trial_nr	onset	event_type	phase	response	nr_frames	movie_index	movie_duration	movie_file	blank	onset_abs	duration
0	0.13565492630004883	stim	0		32.0					117.96644711494446	0.2642631530761719
0	0.3917560577392578	response	0	space						118.22254824638367	
1	0.3999180793762207	stim	0		121.0					118.23071026802063	1.0080947875976562
1	0.9166550636291504	response	0	space						118.74744725227356	
1	1.216688871383667	response	0	space						119.04748106002808	
1	1.408012866973877	stim	1		120.0					119.23880505561829	0.9999790191650391
1	1.6579070091247559	response	1	space						119.48869919776917	
1	1.9579520225524902	response	1	space						119.7887442111969	
1	2.307950019836426	response	1	space						120.13874220848083	
2	2.407991886138916	fix_pre	0		35.0	0.0	2.5	/experiments/knapen_aot/oldvideos/R_S_yt-9yxWUrtQJnw_11.mp4	0.0	120.23878407478333	0.29157209396362305
2	2.6912648677825928	response	0	space		0.0	2.5	/experiments/knapen_aot/oldvideos/R_S_yt-9yxWUrtQJnw_11.mp4	0.0	120.522057056427	
2	2.699563980102539	movie	1		301.0	0.0	2.5	/experiments/knapen_aot/oldvideos/R_S_yt-9yxWUrtQJnw_11.mp4	0.0	120.53035616874695	2.508315086364746
2	5.207879066467285	fix_post	2		12.0	0.0	2.5	/experiments/knapen_aot/oldvideos/R_S_yt-9yxWUrtQJnw_11.mp4	0.0	123.0386712551117	0.0999598503112793
3	5.3078389167785645	fix_pre	0		19.0	1.0	2.5	/experiments/knapen_aot/oldvideos/S_yt-3JApfnMu5cU_378.mp4	0.0	123.13863110542297	0.16065406799316406
3	5.459249973297119	response	0	2		1.0	2.5	/experiments/knapen_aot/oldvideos/S_yt-3JApfnMu5cU_378.mp4	0.0	123.29004216194153	
3	5.4684929847717285	movie	1		301.0	1.0	2.5	/experiments/knapen_aot/oldvideos/S_yt-3JApfnMu5cU_378.mp4	0.0	123.29928517341614	2.506026029586792
3	7.676969051361084	response	1	2		1.0	2.5	/experiments/knapen_aot/oldvideos/S_yt-3JApfnMu5cU_378.mp4	0.0	125.5077612400055	
3	7.924640893936157	response	1	2		1.0	2.5	/experiments/knapen_aot/oldvideos/S_yt-3JApfnMu5cU_378.mp4	0.0	125.75543308258057	
3	7.9745190143585205	fix_post	2		12.0	1.0	2.5	/experiments/knapen_aot/oldvideos/S_yt-3JApfnMu5cU_378.mp4	0.0	125.80531120300293	0.0999910831451416
4	8.074510097503662	fix_pre	0		10.0	2.0	2.5	/experiments/knapen_aot/oldvideos/S_production_ID_4540332.mp4	0.0	125.90530228614807	0.08333086967468262
4	8.1421959400177	response	0	2		2.0	2.5	/experiments/knapen_aot/oldvideos/S_production_ID_4540332.mp4	0.0	125.97298812866211	
4	8.157840967178345	movie	1		164.0	2.0	2.5	/experiments/knapen_aot/oldvideos/S_production_ID_4540332.mp4	0.0	125.98863315582275	2.5083611011505127
4	10.666202068328857	fix_post	2		12.0	2.0	2.5	/experiments/knapen_aot/oldvideos/S_production_ID_4540332.mp4	0.0	128.49699425697327	0.09998893737792969
5	10.766191005706787	fix_pre	0		35.0	3.0	2.5	/experiments/knapen_aot/oldvideos/R_S_yt-AiXq1oDrEXI_123.mp4	0.0	128.5969831943512	0.2925300598144531
5	11.049601078033447	response	0	2		3.0	2.5	/experiments/knapen_aot/oldvideos/R_S_yt-AiXq1oDrEXI_123.mp4	0.0	128.88039326667786	
5	11.05872106552124	movie	1		301.0	3.0	2.5	/experiments/knapen_aot/oldvideos/R_S_yt-AiXq1oDrEXI_123.mp4	0.0	128.88951325416565	2.5074899196624756
5	13.566210985183716	fix_post	2		12.0	3.0	2.5	/experiments/knapen_aot/oldvideos/R_S_yt-AiXq1oDrEXI_123.mp4	0.0	131.39700317382812	0.09994792938232422
6	13.66615891456604	fix_pre	0		17.0	4.0	2.5	/experiments/knapen_aot/oldvideos/S_yt-thmqgEV-sYY_91.mp4	0.0	131.49695110321045	0.14256596565246582
6	13.799637079238892	response	0	2		4.0	2.5	/experiments/knapen_aot/oldvideos/S_yt-thmqgEV-sYY_91.mp4	0.0	131.6304292678833	
6	13.808724880218506	movie	1		301.0	4.0	2.5	/experiments/knapen_aot/oldvideos/S_yt-thmqgEV-sYY_91.mp4	0.0	131.63951706886292	2.50769305229187
6	16.316417932510376	fix_post	2		12.0	4.0	2.5	/experiments/knapen_aot/oldvideos/S_yt-thmqgEV-sYY_91.mp4	0.0	134.14721012115479	0.0997309684753418
7	16.416148900985718	fix_pre	0		19.0	5.0	2.5	blank	1.0	134.24694108963013	0.1584181785583496
7	16.56619095802307	response	0	2		5.0	2.5	blank	1.0	134.39698314666748	
7	16.574567079544067	movie	1		301.0	5.0	2.5	blank	1.0	134.40535926818848	2.5082709789276123
7	19.08283805847168	fix_post	2		12.0	5.0	2.5	blank	1.0	136.9136302471161	0.09995484352111816
8	19.182792901992798	fix_pre	0		19.0	6.0	2.5	/experiments/knapen_aot/oldvideos/S_yt-VQtbKGzI9SE_431.mp4	0.0	137.0135850906372	0.1584000587463379
8	19.332927942276	response	0	2		6.0	2.5	/experiments/knapen_aot/oldvideos/S_yt-VQtbKGzI9SE_431.mp4	0.0	137.1637201309204	
8	19.341192960739136	movie	1		301.0	6.0	2.5	/experiments/knapen_aot/oldvideos/S_yt-VQtbKGzI9SE_431.mp4	0.0	137.17198514938354	2.5082809925079346
8	21.84947395324707	fix_post	2		12.0	6.0	2.5	/experiments/knapen_aot/oldvideos/S_yt-VQtbKGzI9SE_431.mp4	0.0	139.68026614189148	0.10006308555603027
9	21.9495370388031	fix_pre	0		17.0	7.0	2.5	/experiments/knapen_aot/oldvideos/R_S_JApTAOdfunE_1251.mp4	0.0	139.7803292274475	0.14161396026611328
9	22.082849979400635	response	0	2		7.0	2.5	/experiments/knapen_aot/oldvideos/R_S_JApTAOdfunE_1251.mp4	0.0	139.91364216804504	
9	22.091150999069214	movie	1		301.0	7.0	2.5	/experiments/knapen_aot/oldvideos/R_S_JApTAOdfunE_1251.mp4	0.0	139.92194318771362	2.5083298683166504
9	24.599480867385864	fix_post	2		12.0	7.0	2.5	/experiments/knapen_aot/oldvideos/R_S_JApTAOdfunE_1251.mp4	0.0	142.43027305603027	0.09988212585449219
10	24.699362993240356	fix_pre	0		7.0	8.0	2.5	/experiments/knapen_aot/oldvideos/S_ILSVRC2015_train_00497001.mp4	0.0	142.53015518188477	0.058428049087524414
10	24.749587059020996	response	0	2		8.0	2.5	/experiments/knapen_aot/oldvideos/S_ILSVRC2015_train_00497001.mp4	0.0	142.5803792476654	
10	24.75779104232788	movie	1		301.0	8.0	2.5	/experiments/knapen_aot/oldvideos/S_ILSVRC2015_train_00497001.mp4	0.0	142.5885832309723	2.5082998275756836
10	27.266090869903564	fix_post	2		12.0	8.0	2.5	/experiments/knapen_aot/oldvideos/S_ILSVRC2015_train_00497001.mp4	0.0	145.09688305854797	0.10014820098876953
11	27.366239070892334	fix_pre	0		22.0	9.0	2.5	/experiments/knapen_aot/oldvideos/S_yt-ak01CHYgEOs_1383.mp4	0.0	145.19703125953674	0.18314290046691895
11	27.54115605354309	response	0	2		9.0	2.5	/experiments/knapen_aot/oldvideos/S_yt-ak01CHYgEOs_1383.mp4	0.0	145.3719482421875	
11	27.549381971359253	movie	1		301.0	9.0	2.5	/experiments/knapen_aot/oldvideos/S_yt-ak01CHYgEOs_1383.mp4	0.0	145.38017416000366	2.5084331035614014
11	30.057815074920654	fix_post	2		12.0	9.0	2.5	/experiments/knapen_aot/oldvideos/S_yt-ak01CHYgEOs_1383.mp4	0.0	147.88860726356506	0.09992599487304688
12	30.1577410697937	fix_pre	0		25.0	10.0	2.5	/experiments/knapen_aot/oldvideos/S_comp_A114_C001_0305OT_v10_SDR_FINAL_22062018_SDR_2K_AVC.mp4	0.0	147.9885332584381	0.20836186408996582
12	30.357842922210693	response	0	2		10.0	2.5	/experiments/knapen_aot/oldvideos/S_comp_A114_C001_0305OT_v10_SDR_FINAL_22062018_SDR_2K_AVC.mp4	0.0	148.1886351108551	
12	30.366102933883667	movie	1		167.0	10.0	2.5	/experiments/knapen_aot/oldvideos/S_comp_A114_C001_0305OT_v10_SDR_FINAL_22062018_SDR_2K_AVC.mp4	0.0	148.19689512252808	2.5082950592041016
12	32.87439799308777	fix_post	2		12.0	10.0	2.5	/experiments/knapen_aot/oldvideos/S_comp_A114_C001_0305OT_v10_SDR_FINAL_22062018_SDR_2K_AVC.mp4	0.0	150.70519018173218	0.10007905960083008
13	32.9744770526886	fix_pre	0		22.0	11.0	2.5	/experiments/knapen_aot/oldvideos/R_S_yt-DmlSN7mzczI_62.mp4	0.0	150.805269241333	0.1833648681640625
13	33.14201998710632	response	0	2		11.0	2.5	/experiments/knapen_aot/oldvideos/R_S_yt-DmlSN7mzczI_62.mp4	0.0	150.97281217575073	
13	33.15784192085266	movie	1		301.0	11.0	2.5	/experiments/knapen_aot/oldvideos/R_S_yt-DmlSN7mzczI_62.mp4	0.0	150.98863410949707	2.508223056793213
13	35.666064977645874	fix_post	2		12.0	11.0	2.5	/experiments/knapen_aot/oldvideos/R_S_yt-DmlSN7mzczI_62.mp4	0.0	153.49685716629028	0.10003900527954102
14	35.766103982925415	fix_pre	0		15.0	12.0	2.5	/experiments/knapen_aot/oldvideos/R_S_yt-2ftSsLqRQnA_84.mp4	0.0	153.59689617156982	0.12592005729675293
14	35.882827043533325	response	0	2		12.0	2.5	/experiments/knapen_aot/oldvideos/R_S_yt-2ftSsLqRQnA_84.mp4	0.0	153.71361923217773	
14	35.89202404022217	movie	1		301.0	12.0	2.5	/experiments/knapen_aot/oldvideos/R_S_yt-2ftSsLqRQnA_84.mp4	0.0	153.72281622886658	2.5074198246002197
14	38.39944386482239	fix_post	2		12.0	12.0	2.5	/experiments/knapen_aot/oldvideos/R_S_yt-2ftSsLqRQnA_84.mp4	0.0	156.2302360534668	0.09988617897033691
15	38.499330043792725	fix_pre	0		14.0	13.0	2.5	/experiments/knapen_aot/oldvideos/R_S_yt-roThCERxVCs_133.mp4	0.0	156.33012223243713	0.1168358325958252
15	38.60781288146973	response	0	2		13.0	2.5	/experiments/knapen_aot/oldvideos/R_S_yt-roThCERxVCs_133.mp4	0.0	156.43860507011414	
15	38.61616587638855	movie	1		301.0	13.0	2.5	/experiments/knapen_aot/oldvideos/R_S_yt-roThCERxVCs_133.mp4	0.0	156.44695806503296	2.508327007293701
15	41.12449288368225	fix_post	2		12.0	13.0	2.5	/experiments/knapen_aot/oldvideos/R_S_yt-roThCERxVCs_133.mp4	0.0	158.95528507232666	0.09996318817138672
16	41.22445607185364	fix_pre	0		9.0	14.0	2.5	blank	1.0	159.05524826049805	0.07497501373291016
16	41.291192054748535	response	0	2		14.0	2.5	blank	1.0	159.12198424339294	
16	41.29943108558655	movie	1		301.0	14.0	2.5	blank	1.0	159.13022327423096	2.508288860321045
16	43.80771994590759	fix_post	2		12.0	14.0	2.5	blank	1.0	161.638512134552	0.10002398490905762
17	43.90774393081665	fix_pre	0		22.0	15.0	2.5	/experiments/knapen_aot/oldvideos/S_yt-qxtmtMnUfD0_124.mp4	0.0	161.73853611946106	0.1832890510559082
17	44.082793951034546	response	0	2		15.0	2.5	/experiments/knapen_aot/oldvideos/S_yt-qxtmtMnUfD0_124.mp4	0.0	161.91358613967896	
17	44.09103298187256	movie	1		301.0	15.0	2.5	/experiments/knapen_aot/oldvideos/S_yt-qxtmtMnUfD0_124.mp4	0.0	161.92182517051697	2.5083301067352295
17	46.59936308860779	fix_post	2		12.0	15.0	2.5	/experiments/knapen_aot/oldvideos/S_yt-qxtmtMnUfD0_124.mp4	0.0	164.4301552772522	0.10002493858337402
18	46.69938802719116	fix_pre	0		19.0	16.0	2.5	/experiments/knapen_aot/oldvideos/S_WO9z7lBUvOs_151.mp4	0.0	164.53018021583557	0.15829205513000488
18	46.84973192214966	response	0	2		16.0	2.5	/experiments/knapen_aot/oldvideos/S_WO9z7lBUvOs_151.mp4	0.0	164.68052411079407	
18	46.85768008232117	movie	1		301.0	16.0	2.5	/experiments/knapen_aot/oldvideos/S_WO9z7lBUvOs_151.mp4	0.0	164.68847227096558	2.508335828781128
18	49.366015911102295	fix_post	2		12.0	16.0	2.5	/experiments/knapen_aot/oldvideos/S_WO9z7lBUvOs_151.mp4	0.0	167.1968080997467	0.10023117065429688
19	49.46624708175659	fix_pre	0		10.0	17.0	2.5	/experiments/knapen_aot/oldvideos/S_comp_N008_C009_PS_v01_SDR_PS_20180925_SDR_2K_AVC.mp4	0.0	167.297039270401	0.08307600021362305
19	49.54112195968628	response	0	2		17.0	2.5	/experiments/knapen_aot/oldvideos/S_comp_N008_C009_PS_v01_SDR_PS_20180925_SDR_2K_AVC.mp4	0.0	167.3719141483307	
19	49.549323081970215	movie	1		191.0	17.0	2.5	/experiments/knapen_aot/oldvideos/S_comp_N008_C009_PS_v01_SDR_PS_20180925_SDR_2K_AVC.mp4	0.0	167.38011527061462	2.508514881134033
19	52.05783796310425	fix_post	2		12.0	17.0	2.5	/experiments/knapen_aot/oldvideos/S_comp_N008_C009_PS_v01_SDR_PS_20180925_SDR_2K_AVC.mp4	0.0	169.88863015174866	0.09986710548400879
20	52.15770506858826	fix_pre	0		91.0	18.0	2.5	/experiments/knapen_aot/oldvideos/R_S_yt-kKRGgUhVRzc_74.mp4	0.0	169.98849725723267	0.758281946182251
20	52.90774607658386	response	0	2		18.0	2.5	/experiments/knapen_aot/oldvideos/R_S_yt-kKRGgUhVRzc_74.mp4	0.0	170.73853826522827	
20	52.91598701477051	movie	1		301.0	18.0	2.5	/experiments/knapen_aot/oldvideos/R_S_yt-kKRGgUhVRzc_74.mp4	0.0	170.74677920341492	2.5083329677581787
20	55.42431998252869	fix_post	2		12.0	18.0	2.5	/experiments/knapen_aot/oldvideos/R_S_yt-kKRGgUhVRzc_74.mp4	0.0	173.2551121711731	0.09999799728393555
21	55.52431797981262	fix_pre	0		15.0	19.0	2.5	blank	1.0	173.35511016845703	0.12494301795959473
21	55.64113998413086	response	0	2		19.0	2.5	blank	1.0	173.47193217277527	
21	55.64926099777222	movie	1		301.0	19.0	2.5	blank	1.0	173.48005318641663	2.508380889892578
21	58.157641887664795	fix_post	2		12.0	19.0	2.5	blank	1.0	175.9884340763092	0.09996199607849121
22	58.257603883743286	fix_pre	0		27.0	20.0	2.5	/experiments/knapen_aot/oldvideos/S_yt-PltpRRYmQQk_62.mp4	0.0	176.0883960723877	0.22505617141723633
22	58.4743709564209	response	0	2		20.0	2.5	/experiments/knapen_aot/oldvideos/S_yt-PltpRRYmQQk_62.mp4	0.0	176.3051631450653	
22	58.48266005516052	movie	1		301.0	20.0	2.5	/experiments/knapen_aot/oldvideos/S_yt-PltpRRYmQQk_62.mp4	0.0	176.31345224380493	2.508312940597534
22	60.99097299575806	fix_post	2		12.0	20.0	2.5	/experiments/knapen_aot/oldvideos/S_yt-PltpRRYmQQk_62.mp4	0.0	178.82176518440247	0.10002398490905762
23	61.090996980667114	fix_pre	0		15.0	21.0	2.5	/experiments/knapen_aot/oldvideos/S_yt-urJgH6tpfkU_204.mp4	0.0	178.92178916931152	0.12497305870056152
23	61.20040988922119	response	0	2		21.0	2.5	/experiments/knapen_aot/oldvideos/S_yt-urJgH6tpfkU_204.mp4	0.0	179.0312020778656	
23	61.215970039367676	movie	1		301.0	21.0	2.5	/experiments/knapen_aot/oldvideos/S_yt-urJgH6tpfkU_204.mp4	0.0	179.04676222801208	2.5083248615264893
23	63.724294900894165	fix_post	2		12.0	21.0	2.5	/experiments/knapen_aot/oldvideos/S_yt-urJgH6tpfkU_204.mp4	0.0	181.55508708953857	0.10003018379211426
24	63.82432508468628	fix_pre	0		25.0	22.0	2.5	/experiments/knapen_aot/oldvideos/R_S_yt-PltpRRYmQQk_62.mp4	0.0	181.6551172733307	0.20830392837524414
24	64.0244140625	response	0	2		22.0	2.5	/experiments/knapen_aot/oldvideos/R_S_yt-PltpRRYmQQk_62.mp4	0.0	181.8552062511444	
24	64.03262901306152	movie	1		301.0	22.0	2.5	/experiments/knapen_aot/oldvideos/R_S_yt-PltpRRYmQQk_62.mp4	0.0	181.86342120170593	2.5083999633789062
24	66.54102897644043	fix_post	2		12.0	22.0	2.5	/experiments/knapen_aot/oldvideos/R_S_yt-PltpRRYmQQk_62.mp4	0.0	184.37182116508484	0.0999150276184082
25	66.64094400405884	fix_pre	0		8.0	23.0	2.5	/experiments/knapen_aot/oldvideos/R_S_yt-cokedWwwYYs_136.mp4	0.0	184.47173619270325	0.06666803359985352
25	66.69182300567627	response	0	2		23.0	2.5	/experiments/knapen_aot/oldvideos/R_S_yt-cokedWwwYYs_136.mp4	0.0	184.52261519432068	
25	66.70761203765869	movie	1		301.0	23.0	2.5	/experiments/knapen_aot/oldvideos/R_S_yt-cokedWwwYYs_136.mp4	0.0	184.5384042263031	2.5083279609680176
25	69.21593999862671	fix_post	2		12.0	23.0	2.5	/experiments/knapen_aot/oldvideos/R_S_yt-cokedWwwYYs_136.mp4	0.0	187.04673218727112	0.10003900527954102
26	69.31597900390625	fix_pre	0		20.0	24.0	2.5	/experiments/knapen_aot/oldvideos/R_S_yt-t8NfuFA7OlM_26.mp4	0.0	187.14677119255066	0.16655993461608887
26	69.47437310218811	response	0	2		24.0	2.5	/experiments/knapen_aot/oldvideos/R_S_yt-t8NfuFA7OlM_26.mp4	0.0	187.30516529083252	
26	69.48253893852234	movie	1		301.0	24.0	2.5	/experiments/knapen_aot/oldvideos/R_S_yt-t8NfuFA7OlM_26.mp4	0.0	187.31333112716675	2.5084290504455566
26	71.9909679889679	fix_post	2		12.0	24.0	2.5	/experiments/knapen_aot/oldvideos/R_S_yt-t8NfuFA7OlM_26.mp4	0.0	189.8217601776123	0.09990596771240234
27	72.0908739566803	fix_pre	0		34.0	25.0	2.5	/experiments/knapen_aot/oldvideos/R_S_production_ID_4101309.mp4	0.0	189.9216661453247	0.28333091735839844
27	72.36602401733398	response	0	2		25.0	2.5	/experiments/knapen_aot/oldvideos/R_S_production_ID_4101309.mp4	0.0	190.1968162059784	
27	72.3742048740387	movie	1		186.0	25.0	2.5	/experiments/knapen_aot/oldvideos/R_S_production_ID_4101309.mp4	0.0	190.2049970626831	2.5084471702575684
27	74.88265204429626	fix_post	2		12.0	25.0	2.5	/experiments/knapen_aot/oldvideos/R_S_production_ID_4101309.mp4	0.0	192.71344423294067	0.10032391548156738
28	74.98297595977783	fix_pre	0		9.0	26.0	2.5	/experiments/knapen_aot/oldvideos/R_S_yt-MEfljVFL0xw_375.mp4	0.0	192.81376814842224	0.07509493827819824
28	75.04936194419861	response	0	2		26.0	2.5	/experiments/knapen_aot/oldvideos/R_S_yt-MEfljVFL0xw_375.mp4	0.0	192.88015413284302	
28	75.05807089805603	movie	1		301.0	26.0	2.5	/experiments/knapen_aot/oldvideos/R_S_yt-MEfljVFL0xw_375.mp4	0.0	192.88886308670044	2.507810115814209
28	77.56588101387024	fix_post	2		12.0	26.0	2.5	/experiments/knapen_aot/oldvideos/R_S_yt-MEfljVFL0xw_375.mp4	0.0	195.39667320251465	0.0999460220336914
29	77.66582703590393	fix_pre	0		7.0	27.0	2.5	blank	1.0	195.49661922454834	0.058876991271972656
29	77.71602392196655	response	0	2		27.0	2.5	blank	1.0	195.54681611061096	
29	77.7247040271759	movie	1		301.0	27.0	2.5	blank	1.0	195.5554962158203	2.5078580379486084
29	80.23256206512451	fix_post	2		12.0	27.0	2.5	blank	1.0	198.06335425376892	0.09999799728393555
30	80.33256006240845	fix_pre	0		24.0	28.0	2.5	/experiments/knapen_aot/oldvideos/R_S_ILSVRC2015_train_00363000.mp4	0.0	198.16335225105286	0.19998383522033691
30	80.5167920589447	response	0	2		28.0	2.5	/experiments/knapen_aot/oldvideos/R_S_ILSVRC2015_train_00363000.mp4	0.0	198.3475842475891	
30	80.53254389762878	movie	1		301.0	28.0	2.5	/experiments/knapen_aot/oldvideos/R_S_ILSVRC2015_train_00363000.mp4	0.0	198.3633360862732	2.508350133895874
30	83.04089403152466	fix_post	2		12.0	28.0	2.5	/experiments/knapen_aot/oldvideos/R_S_ILSVRC2015_train_00363000.mp4	0.0	200.87168622016907	0.09998202323913574
31	83.1408760547638	fix_pre	0		18.0	29.0	2.5	/experiments/knapen_aot/oldvideos/R_S_zAKvYNtmhuc_772.mp4	0.0	200.9716682434082	0.14997100830078125
31	83.27511286735535	response	0	2		29.0	2.5	/experiments/knapen_aot/oldvideos/R_S_zAKvYNtmhuc_772.mp4	0.0	201.10590505599976	
31	83.29084706306458	movie	1		301.0	29.0	2.5	/experiments/knapen_aot/oldvideos/R_S_zAKvYNtmhuc_772.mp4	0.0	201.12163925170898	2.508344888687134
31	85.79919195175171	fix_post	2		12.0	29.0	2.5	/experiments/knapen_aot/oldvideos/R_S_zAKvYNtmhuc_772.mp4	0.0	203.62998414039612	0.10003995895385742
32	85.89923191070557	fix_pre	0		24.0	30.0	2.5	/experiments/knapen_aot/oldvideos/R_S_yt-xqjVM0Vj4mI_161.mp4	0.0	203.73002409934998	0.2003920078277588
32	86.09096789360046	response	0	2		30.0	2.5	/experiments/knapen_aot/oldvideos/R_S_yt-xqjVM0Vj4mI_161.mp4	0.0	203.92176008224487	
32	86.09962391853333	movie	1		301.0	30.0	2.5	/experiments/knapen_aot/oldvideos/R_S_yt-xqjVM0Vj4mI_161.mp4	0.0	203.93041610717773	2.5079081058502197
32	88.60753202438354	fix_post	2		12.0	30.0	2.5	/experiments/knapen_aot/oldvideos/R_S_yt-xqjVM0Vj4mI_161.mp4	0.0	206.43832421302795	0.10001707077026367
33	88.70754909515381	fix_pre	0		70.0	31.0	2.5	/experiments/knapen_aot/oldvideos/S_yt-wIZprsJwxBM_298.mp4	0.0	206.53834128379822	0.5833029747009277
33	89.28258395195007	response	0	2		31.0	2.5	/experiments/knapen_aot/oldvideos/S_yt-wIZprsJwxBM_298.mp4	0.0	207.11337614059448	
33	89.29085206985474	movie	1		301.0	31.0	2.5	/experiments/knapen_aot/oldvideos/S_yt-wIZprsJwxBM_298.mp4	0.0	207.12164425849915	2.5083439350128174
33	91.79919600486755	fix_post	2		12.0	31.0	2.5	/experiments/knapen_aot/oldvideos/S_yt-wIZprsJwxBM_298.mp4	0.0	209.62998819351196	0.1000509262084961
34	91.89924693107605	fix_pre	0		9.0	32.0	2.5	/experiments/knapen_aot/oldvideos/S_yt-Ryb0K9lGPrg_5.mp4	0.0	209.73003911972046	0.07528901100158691
34	91.96603393554688	response	0	2		32.0	2.5	/experiments/knapen_aot/oldvideos/S_yt-Ryb0K9lGPrg_5.mp4	0.0	209.79682612419128	
34	91.97453594207764	movie	1		301.0	32.0	2.5	/experiments/knapen_aot/oldvideos/S_yt-Ryb0K9lGPrg_5.mp4	0.0	209.80532813072205	2.508134126663208
34	94.48267006874084	fix_post	2		12.0	32.0	2.5	/experiments/knapen_aot/oldvideos/S_yt-Ryb0K9lGPrg_5.mp4	0.0	212.31346225738525	0.09993195533752441
35	94.58260202407837	fix_pre	0		16.0	33.0	2.5	/experiments/knapen_aot/oldvideos/R_S_zr0tzAC2XHk_334.mp4	0.0	212.41339421272278	0.1332089900970459
35	94.70763492584229	response	0	2		33.0	2.5	/experiments/knapen_aot/oldvideos/R_S_zr0tzAC2XHk_334.mp4	0.0	212.5384271144867	
35	94.71581101417542	movie	1		301.0	33.0	2.5	/experiments/knapen_aot/oldvideos/R_S_zr0tzAC2XHk_334.mp4	0.0	212.54660320281982	2.508413076400757
35	97.22422409057617	fix_post	2		12.0	33.0	2.5	/experiments/knapen_aot/oldvideos/R_S_zr0tzAC2XHk_334.mp4	0.0	215.05501627922058	0.09992098808288574
36	97.32414507865906	fix_pre	0		28.0	34.0	2.5	blank	1.0	215.15493726730347	0.23376178741455078
36	97.54922604560852	response	0	2		34.0	2.5	blank	1.0	215.38001823425293	
36	97.55790686607361	movie	1		301.0	34.0	2.5	blank	1.0	215.38869905471802	2.507850170135498
36	100.0657570362091	fix_post	2		12.0	34.0	2.5	blank	1.0	217.89654922485352	0.09998488426208496
37	100.16574192047119	fix_pre	0		25.0	35.0	2.5	/experiments/knapen_aot/oldvideos/R_S_yt-QFGyhhr1KSQ_9.mp4	0.0	217.9965341091156	0.2083740234375
37	100.35863995552063	response	0	2		35.0	2.5	/experiments/knapen_aot/oldvideos/R_S_yt-QFGyhhr1KSQ_9.mp4	0.0	218.18943214416504	
37	100.37411594390869	movie	1		301.0	35.0	2.5	/experiments/knapen_aot/oldvideos/R_S_yt-QFGyhhr1KSQ_9.mp4	0.0	218.2049081325531	2.508347988128662
37	102.88246393203735	fix_post	2		12.0	35.0	2.5	/experiments/knapen_aot/oldvideos/R_S_yt-QFGyhhr1KSQ_9.mp4	0.0	220.71325612068176	0.09994101524353027
38	102.98240494728088	fix_pre	0		49.0	36.0	2.5	/experiments/knapen_aot/oldvideos/S_yt-lazG9z4VQAw_99.mp4	0.0	220.8131971359253	0.4087209701538086
38	103.38250088691711	response	0	2		36.0	2.5	/experiments/knapen_aot/oldvideos/S_yt-lazG9z4VQAw_99.mp4	0.0	221.21329307556152	
38	103.39112591743469	movie	1		301.0	36.0	2.5	/experiments/knapen_aot/oldvideos/S_yt-lazG9z4VQAw_99.mp4	0.0	221.2219181060791	2.5080771446228027
38	105.8992030620575	fix_post	2		12.0	36.0	2.5	/experiments/knapen_aot/oldvideos/S_yt-lazG9z4VQAw_99.mp4	0.0	223.7299952507019	0.09992194175720215
39	105.9991250038147	fix_pre	0		10.0	37.0	2.5	/experiments/knapen_aot/oldvideos/R_S_yt-XpM1Jtwlvvk_42.mp4	0.0	223.8299171924591	0.08328700065612793
39	106.07423400878906	response	0	2		37.0	2.5	/experiments/knapen_aot/oldvideos/R_S_yt-XpM1Jtwlvvk_42.mp4	0.0	223.90502619743347	
39	106.08241200447083	movie	1		301.0	37.0	2.5	/experiments/knapen_aot/oldvideos/R_S_yt-XpM1Jtwlvvk_42.mp4	0.0	223.91320419311523	2.5085079669952393
39	108.59091997146606	fix_post	2		12.0	37.0	2.5	/experiments/knapen_aot/oldvideos/R_S_yt-XpM1Jtwlvvk_42.mp4	0.0	226.42171216011047	0.09990811347961426
40	108.69082808494568	fix_pre	0		64.0	38.0	2.5	/experiments/knapen_aot/oldvideos/S_yt-AiXq1oDrEXI_123.mp4	0.0	226.5216202735901	0.5335979461669922
40	109.21599888801575	response	0	2		38.0	2.5	/experiments/knapen_aot/oldvideos/S_yt-AiXq1oDrEXI_123.mp4	0.0	227.04679107666016	
40	109.22442603111267	movie	1		301.0	38.0	2.5	/experiments/knapen_aot/oldvideos/S_yt-AiXq1oDrEXI_123.mp4	0.0	227.05521821975708	2.508046865463257
40	111.73247289657593	fix_post	2		12.0	38.0	2.5	/experiments/knapen_aot/oldvideos/S_yt-AiXq1oDrEXI_123.mp4	0.0	229.56326508522034	0.09997797012329102
41	111.83245086669922	fix_pre	0		41.0	39.0	2.5	/experiments/knapen_aot/oldvideos/R_S_82eJpVKGnC0_188.mp4	0.0	229.66324305534363	0.34162116050720215
41	112.16601705551147	response	0	2		39.0	2.5	/experiments/knapen_aot/oldvideos/R_S_82eJpVKGnC0_188.mp4	0.0	229.99680924415588	
41	112.17407202720642	movie	1		301.0	39.0	2.5	/experiments/knapen_aot/oldvideos/R_S_82eJpVKGnC0_188.mp4	0.0	230.00486421585083	2.50832200050354
41	114.68239402770996	fix_post	2		12.0	39.0	2.5	/experiments/knapen_aot/oldvideos/R_S_82eJpVKGnC0_188.mp4	0.0	232.51318621635437	0.10000085830688477
42	114.78239488601685	fix_pre	0		48.0	40.0	2.5	blank	1.0	232.61318707466125	0.40032315254211426
42	115.17416596412659	response	0	2		40.0	2.5	blank	1.0	233.004958152771	
42	115.18271803855896	movie	1		301.0	40.0	2.5	blank	1.0	233.01351022720337	2.508060932159424
42	117.69077897071838	fix_post	2		12.0	40.0	2.5	blank	1.0	235.5215711593628	0.09995102882385254
43	117.79072999954224	fix_pre	0		199.0	41.0	2.5	/experiments/knapen_aot/oldvideos/S_yt-b7bIulV49DQ_81.mp4	0.0	235.62152218818665	1.6583349704742432
43	119.44090104103088	response	0	2		41.0	2.5	/experiments/knapen_aot/oldvideos/S_yt-b7bIulV49DQ_81.mp4	0.0	237.2716932296753	
43	119.44906497001648	movie	1		301.0	41.0	2.5	/experiments/knapen_aot/oldvideos/S_yt-b7bIulV49DQ_81.mp4	0.0	237.2798571586609	2.5083839893341064
43	121.95744895935059	fix_post	2		12.0	41.0	2.5	/experiments/knapen_aot/oldvideos/S_yt-b7bIulV49DQ_81.mp4	0.0	239.788241147995	0.10033202171325684
44	122.05778098106384	fix_pre	0		7.0	42.0	2.5	/experiments/knapen_aot/oldvideos/S_yt-Wf-RauSbVgA_56.mp4	0.0	239.88857316970825	0.05791902542114258
44	122.10746097564697	response	0	2		42.0	2.5	/experiments/knapen_aot/oldvideos/S_yt-Wf-RauSbVgA_56.mp4	0.0	239.93825316429138	
44	122.11570000648499	movie	1		301.0	42.0	2.5	/experiments/knapen_aot/oldvideos/S_yt-Wf-RauSbVgA_56.mp4	0.0	239.9464921951294	2.508331060409546
44	124.62403106689453	fix_post	2		12.0	42.0	2.5	/experiments/knapen_aot/oldvideos/S_yt-Wf-RauSbVgA_56.mp4	0.0	242.45482325553894	0.10055279731750488
45	124.72458386421204	fix_pre	0		13.0	43.0	2.5	/experiments/knapen_aot/oldvideos/S_yt-yJmHtBFyhH4_15.mp4	0.0	242.55537605285645	0.10776710510253906
45	124.82408690452576	response	0	2		43.0	2.5	/experiments/knapen_aot/oldvideos/S_yt-yJmHtBFyhH4_15.mp4	0.0	242.65487909317017	
45	124.83235096931458	movie	1		301.0	43.0	2.5	/experiments/knapen_aot/oldvideos/S_yt-yJmHtBFyhH4_15.mp4	0.0	242.66314315795898	2.5083470344543457
45	127.34069800376892	fix_post	2		12.0	43.0	2.5	/experiments/knapen_aot/oldvideos/S_yt-yJmHtBFyhH4_15.mp4	0.0	245.17149019241333	0.10003399848937988
46	127.4407320022583	fix_pre	0		23.0	44.0	2.5	/experiments/knapen_aot/oldvideos/S_yt-GfPep7IhZIU_47.mp4	0.0	245.2715241909027	0.19156789779663086
46	127.62411403656006	response	0	2		44.0	2.5	/experiments/knapen_aot/oldvideos/S_yt-GfPep7IhZIU_47.mp4	0.0	245.45490622520447	
46	127.63229990005493	movie	1		301.0	44.0	2.5	/experiments/knapen_aot/oldvideos/S_yt-GfPep7IhZIU_47.mp4	0.0	245.46309208869934	2.508418083190918
46	130.14071798324585	fix_post	2		12.0	44.0	2.5	/experiments/knapen_aot/oldvideos/S_yt-GfPep7IhZIU_47.mp4	0.0	247.97151017189026	0.09998011589050293
47	130.24069809913635	fix_pre	0		22.0	45.0	2.5	/experiments/knapen_aot/oldvideos/S_wc-DgBY_btLlgBC_19.mp4	0.0	248.07149028778076	0.18332386016845703
47	130.41577196121216	response	0	2		45.0	2.5	/experiments/knapen_aot/oldvideos/S_wc-DgBY_btLlgBC_19.mp4	0.0	248.24656414985657	
47	130.4240219593048	movie	1		164.0	45.0	2.5	/experiments/knapen_aot/oldvideos/S_wc-DgBY_btLlgBC_19.mp4	0.0	248.25481414794922	2.50832200050354
47	132.93234395980835	fix_post	2		12.0	45.0	2.5	/experiments/knapen_aot/oldvideos/S_wc-DgBY_btLlgBC_19.mp4	0.0	250.76313614845276	0.10009407997131348
48	133.03243803977966	fix_pre	0		5.0	46.0	2.5	/experiments/knapen_aot/oldvideos/S_pexels-kindel-media-8165572.mp4	0.0	250.86323022842407	0.041554927825927734
48	133.06578993797302	response	0	2		46.0	2.5	/experiments/knapen_aot/oldvideos/S_pexels-kindel-media-8165572.mp4	0.0	250.89658212661743	
48	133.0739929676056	movie	1		166.0	46.0	2.5	/experiments/knapen_aot/oldvideos/S_pexels-kindel-media-8165572.mp4	0.0	250.90478515625	2.5083580017089844
48	135.58235096931458	fix_post	2		12.0	46.0	2.5	/experiments/knapen_aot/oldvideos/S_pexels-kindel-media-8165572.mp4	0.0	253.41314315795898	0.10014605522155762
48	135.66654992103577	response	2	2		46.0	2.5	/experiments/knapen_aot/oldvideos/S_pexels-kindel-media-8165572.mp4	0.0	253.49734210968018	
49	135.68249702453613	fix_pre	0		44.0	47.0	2.5	/experiments/knapen_aot/oldvideos/R_S_yt-1H8sfkZGZK8_3.mp4	0.0	253.51328921318054	0.36647796630859375
49	136.04072904586792	response	0	2		47.0	2.5	/experiments/knapen_aot/oldvideos/R_S_yt-1H8sfkZGZK8_3.mp4	0.0	253.87152123451233	
49	136.04897499084473	movie	1		301.0	47.0	2.5	/experiments/knapen_aot/oldvideos/R_S_yt-1H8sfkZGZK8_3.mp4	0.0	253.87976717948914	2.5085949897766113
49	138.55756998062134	fix_post	2		12.0	47.0	2.5	/experiments/knapen_aot/oldvideos/R_S_yt-1H8sfkZGZK8_3.mp4	0.0	256.38836216926575	0.09967994689941406
50	138.65724992752075	fix_pre	0		9.0	48.0	2.5	blank	1.0	256.48804211616516	0.07502102851867676
50	138.724102973938	response	0	2		48.0	2.5	blank	1.0	256.5548951625824	
50	138.73227095603943	movie	1		301.0	48.0	2.5	blank	1.0	256.56306314468384	2.508476972579956
50	141.24074792861938	fix_post	2		12.0	48.0	2.5	blank	1.0	259.0715401172638	0.09982705116271973
51	141.3405749797821	fix_pre	0		17.0	49.0	2.5	/experiments/knapen_aot/oldvideos/S_ILSVRC2015_train_00569007.mp4	0.0	259.1713671684265	0.14168095588684082
51	141.47404289245605	response	0	2		49.0	2.5	/experiments/knapen_aot/oldvideos/S_ILSVRC2015_train_00569007.mp4	0.0	259.30483508110046	
51	141.48225593566895	movie	1		301.0	49.0	2.5	/experiments/knapen_aot/oldvideos/S_ILSVRC2015_train_00569007.mp4	0.0	259.31304812431335	2.508397102355957
51	143.9906530380249	fix_post	2		12.0	49.0	2.5	/experiments/knapen_aot/oldvideos/S_ILSVRC2015_train_00569007.mp4	0.0	261.8214452266693	0.09994292259216309
52	144.09059596061707	fix_pre	0		13.0	50.0	2.5	/experiments/knapen_aot/oldvideos/R_S_wc-DgBY_btLlgBC_19.mp4	0.0	261.9213881492615	0.10837292671203613
52	144.19089198112488	response	0	2		50.0	2.5	/experiments/knapen_aot/oldvideos/R_S_wc-DgBY_btLlgBC_19.mp4	0.0	262.0216841697693	
52	144.1989688873291	movie	1		162.0	50.0	2.5	/experiments/knapen_aot/oldvideos/R_S_wc-DgBY_btLlgBC_19.mp4	0.0	262.0297610759735	2.5082900524139404
52	146.70725893974304	fix_post	2		12.0	50.0	2.5	/experiments/knapen_aot/oldvideos/R_S_wc-DgBY_btLlgBC_19.mp4	0.0	264.53805112838745	0.10018801689147949
53	146.80744695663452	fix_pre	0		14.0	51.0	2.5	/experiments/knapen_aot/oldvideos/S_ILSVRC2015_train_00165011.mp4	0.0	264.63823914527893	0.11646914482116699
53	146.91560697555542	response	0	2		51.0	2.5	/experiments/knapen_aot/oldvideos/S_ILSVRC2015_train_00165011.mp4	0.0	264.74639916419983	
53	146.9239161014557	movie	1		301.0	51.0	2.5	/experiments/knapen_aot/oldvideos/S_ILSVRC2015_train_00165011.mp4	0.0	264.7547082901001	2.5084939002990723
53	149.43241000175476	fix_post	2		12.0	51.0	2.5	/experiments/knapen_aot/oldvideos/S_ILSVRC2015_train_00165011.mp4	0.0	267.26320219039917	0.09986090660095215
54	149.5322709083557	fix_pre	0		15.0	52.0	2.5	/experiments/knapen_aot/oldvideos/S_pexels-c-technical-6754008.mp4	0.0	267.3630630970001	0.12492799758911133
54	149.64903688430786	response	0	2		52.0	2.5	/experiments/knapen_aot/oldvideos/S_pexels-c-technical-6754008.mp4	0.0	267.47982907295227	
54	149.65719890594482	movie	1		201.0	52.0	2.5	/experiments/knapen_aot/oldvideos/S_pexels-c-technical-6754008.mp4	0.0	267.48799109458923	2.508397102355957
54	152.16559600830078	fix_post	2		12.0	52.0	2.5	/experiments/knapen_aot/oldvideos/S_pexels-c-technical-6754008.mp4	0.0	269.9963881969452	0.10012602806091309
55	152.2657220363617	fix_pre	0		95.0	53.0	2.5	/experiments/knapen_aot/oldvideos/S_comp_CH_C007_C011_PSNK_v02_SDR_PS_FINAL_20180709_SDR_2K_AVC.mp4	0.0	270.0965142250061	0.7915799617767334
55	153.04903888702393	response	0	2		53.0	2.5	/experiments/knapen_aot/oldvideos/S_comp_CH_C007_C011_PSNK_v02_SDR_PS_FINAL_20180709_SDR_2K_AVC.mp4	0.0	270.87983107566833	
55	153.05730199813843	movie	1		175.0	53.0	2.5	/experiments/knapen_aot/oldvideos/S_comp_CH_C007_C011_PSNK_v02_SDR_PS_FINAL_20180709_SDR_2K_AVC.mp4	0.0	270.88809418678284	2.508307933807373
55	155.5656099319458	fix_post	2		12.0	53.0	2.5	/experiments/knapen_aot/oldvideos/S_comp_CH_C007_C011_PSNK_v02_SDR_PS_FINAL_20180709_SDR_2K_AVC.mp4	0.0	273.3964021205902	0.09999394416809082
56	155.6656038761139	fix_pre	0		108.0	54.0	2.5	blank	1.0	273.4963960647583	0.8999202251434326
56	156.55733704566956	response	0	2		54.0	2.5	blank	1.0	274.38812923431396	
56	156.56552410125732	movie	1		301.0	54.0	2.5	blank	1.0	274.39631628990173	2.5083818435668945
56	159.07390594482422	fix_post	2		12.0	54.0	2.5	blank	1.0	276.9046981334686	0.10001707077026367
57	159.17392301559448	fix_pre	0		25.0	55.0	2.5	/experiments/knapen_aot/oldvideos/R_S_yt-fqbi4rGc9dk_65.mp4	0.0	277.0047152042389	0.20823907852172852
57	159.37401795387268	response	0	2		55.0	2.5	/experiments/knapen_aot/oldvideos/R_S_yt-fqbi4rGc9dk_65.mp4	0.0	277.2048101425171	
57	159.3821620941162	movie	1		301.0	55.0	2.5	/experiments/knapen_aot/oldvideos/R_S_yt-fqbi4rGc9dk_65.mp4	0.0	277.2129542827606	2.5085089206695557
57	161.55735898017883	response	1	2		55.0	2.5	/experiments/knapen_aot/oldvideos/R_S_yt-fqbi4rGc9dk_65.mp4	0.0	279.38815116882324	
57	161.89067101478577	fix_post	2		12.0	55.0	2.5	/experiments/knapen_aot/oldvideos/R_S_yt-fqbi4rGc9dk_65.mp4	0.0	279.7214632034302	0.10007905960083008
58	161.9907500743866	fix_pre	0		8.0	56.0	2.5	/experiments/knapen_aot/oldvideos/S_ILSVRC2015_train_00569006.mp4	0.0	279.821542263031	0.06647086143493652
58	162.04893493652344	response	0	2		56.0	2.5	/experiments/knapen_aot/oldvideos/S_ILSVRC2015_train_00569006.mp4	0.0	279.87972712516785	
58	162.05722093582153	movie	1		301.0	56.0	2.5	/experiments/knapen_aot/oldvideos/S_ILSVRC2015_train_00569006.mp4	0.0	279.88801312446594	2.508234977722168
58	164.5654559135437	fix_post	2		12.0	56.0	2.5	/experiments/knapen_aot/oldvideos/S_ILSVRC2015_train_00569006.mp4	0.0	282.3962481021881	0.10020899772644043
59	164.66566491127014	fix_pre	0		34.0	57.0	2.5	/experiments/knapen_aot/oldvideos/R_S_yt-thmqgEV-sYY_91.mp4	0.0	282.49645709991455	0.28312110900878906
59	164.94062304496765	response	0	2		57.0	2.5	/experiments/knapen_aot/oldvideos/R_S_yt-thmqgEV-sYY_91.mp4	0.0	282.77141523361206	
59	164.94878602027893	movie	1		301.0	57.0	2.5	/experiments/knapen_aot/oldvideos/R_S_yt-thmqgEV-sYY_91.mp4	0.0	282.77957820892334	2.5083348751068115
59	167.45712089538574	fix_post	2		12.0	57.0	2.5	/experiments/knapen_aot/oldvideos/R_S_yt-thmqgEV-sYY_91.mp4	0.0	285.28791308403015	0.10012006759643555
60	167.55724096298218	fix_pre	0		14.0	58.0	2.5	/experiments/knapen_aot/oldvideos/R_S_ILSVRC2015_train_00165011.mp4	0.0	285.3880331516266	0.11656498908996582
60	167.66563987731934	response	0	2		58.0	2.5	/experiments/knapen_aot/oldvideos/R_S_ILSVRC2015_train_00165011.mp4	0.0	285.49643206596375	
60	167.67380595207214	movie	1		301.0	58.0	2.5	/experiments/knapen_aot/oldvideos/R_S_ILSVRC2015_train_00165011.mp4	0.0	285.50459814071655	2.5084609985351562
60	170.1822669506073	fix_post	2		12.0	58.0	2.5	/experiments/knapen_aot/oldvideos/R_S_ILSVRC2015_train_00165011.mp4	0.0	288.0130591392517	0.09996795654296875
61	170.28223490715027	fix_pre	0		5.0	59.0	2.5	/experiments/knapen_aot/oldvideos/S_JApTAOdfunE_1251.mp4	0.0	288.1130270957947	0.041602134704589844
61	170.31563806533813	response	0	2		59.0	2.5	/experiments/knapen_aot/oldvideos/S_JApTAOdfunE_1251.mp4	0.0	288.14643025398254	
61	170.32383704185486	movie	1		301.0	59.0	2.5	/experiments/knapen_aot/oldvideos/S_JApTAOdfunE_1251.mp4	0.0	288.15462923049927	2.508335828781128
61	172.832172870636	fix_post	2		12.0	59.0	2.5	/experiments/knapen_aot/oldvideos/S_JApTAOdfunE_1251.mp4	0.0	290.6629650592804	0.10003304481506348
62	172.93220591545105	fix_pre	0		25.0	60.0	2.5	/experiments/knapen_aot/oldvideos/R_S_ILSVRC2015_train_00743005.mp4	0.0	290.76299810409546	0.20821404457092285
62	173.13227701187134	response	0	2		60.0	2.5	/experiments/knapen_aot/oldvideos/R_S_ILSVRC2015_train_00743005.mp4	0.0	290.96306920051575	
62	173.14041996002197	movie	1		301.0	60.0	2.5	/experiments/knapen_aot/oldvideos/R_S_ILSVRC2015_train_00743005.mp4	0.0	290.9712121486664	2.5083611011505127
62	175.64878106117249	fix_post	2		12.0	60.0	2.5	/experiments/knapen_aot/oldvideos/R_S_ILSVRC2015_train_00743005.mp4	0.0	293.4795732498169	0.1001129150390625
63	175.74889397621155	fix_pre	0		86.0	61.0	2.5	blank	1.0	293.57968616485596	0.7165570259094238
63	176.45723009109497	response	0	2		61.0	2.5	blank	1.0	294.2880222797394	
63	176.46545100212097	movie	1		301.0	61.0	2.5	blank	1.0	294.2962431907654	2.5086939334869385
63	178.9741449356079	fix_post	2		12.0	61.0	2.5	blank	1.0	296.8049371242523	0.09965395927429199
64	179.0737988948822	fix_pre	0		37.0	62.0	2.5	/experiments/knapen_aot/oldvideos/R_S_yt-2y6A9DJPsDU_65.mp4	0.0	296.9045910835266	0.30832719802856445
64	179.37385606765747	response	0	2		62.0	2.5	/experiments/knapen_aot/oldvideos/R_S_yt-2y6A9DJPsDU_65.mp4	0.0	297.2046482563019	
64	179.38212609291077	movie	1		301.0	62.0	2.5	/experiments/knapen_aot/oldvideos/R_S_yt-2y6A9DJPsDU_65.mp4	0.0	297.2129182815552	2.508347988128662
64	181.89047408103943	fix_post	2		12.0	62.0	2.5	/experiments/knapen_aot/oldvideos/R_S_yt-2y6A9DJPsDU_65.mp4	0.0	299.72126626968384	0.10002684593200684
65	181.99050092697144	fix_pre	0		29.0	63.0	2.5	/experiments/knapen_aot/oldvideos/R_S_yt-aiDGx4AN8J0_9.mp4	0.0	299.82129311561584	0.2415759563446045
65	182.2239649295807	response	0	2		63.0	2.5	/experiments/knapen_aot/oldvideos/R_S_yt-aiDGx4AN8J0_9.mp4	0.0	300.0547571182251	
65	182.23207688331604	movie	1		301.0	63.0	2.5	/experiments/knapen_aot/oldvideos/R_S_yt-aiDGx4AN8J0_9.mp4	0.0	300.06286907196045	2.5083670616149902
65	184.74044394493103	fix_post	2		12.0	63.0	2.5	/experiments/knapen_aot/oldvideos/R_S_yt-aiDGx4AN8J0_9.mp4	0.0	302.57123613357544	0.10003495216369629
66	184.84047889709473	fix_pre	0		322.0	64.0	2.5	/experiments/knapen_aot/oldvideos/S_yt-2pRKCSgdXXU_30.mp4	0.0	302.67127108573914	2.683238983154297
66	187.51552605628967	response	0	2		64.0	2.5	/experiments/knapen_aot/oldvideos/S_yt-2pRKCSgdXXU_30.mp4	0.0	305.3463182449341	
66	187.52371788024902	movie	1		301.0	64.0	2.5	/experiments/knapen_aot/oldvideos/S_yt-2pRKCSgdXXU_30.mp4	0.0	305.35451006889343	2.5084011554718018
66	190.03211903572083	fix_post	2		12.0	64.0	2.5	/experiments/knapen_aot/oldvideos/S_yt-2pRKCSgdXXU_30.mp4	0.0	307.86291122436523	0.0999288558959961
67	190.13204789161682	fix_pre	0		164.0	65.0	2.5	/experiments/knapen_aot/oldvideos/S_ILSVRC2015_train_00415003.mp4	0.0	307.96284008026123	1.3666410446166992
67	191.49050402641296	response	0	2		65.0	2.5	/experiments/knapen_aot/oldvideos/S_ILSVRC2015_train_00415003.mp4	0.0	309.3212962150574	
67	191.49868893623352	movie	1		301.0	65.0	2.5	/experiments/knapen_aot/oldvideos/S_ILSVRC2015_train_00415003.mp4	0.0	309.32948112487793	2.508420944213867
67	194.0071098804474	fix_post	2		12.0	65.0	2.5	/experiments/knapen_aot/oldvideos/S_ILSVRC2015_train_00415003.mp4	0.0	311.8379020690918	0.09993720054626465
68	194.10704708099365	fix_pre	0		90.0	66.0	2.5	/experiments/knapen_aot/oldvideos/S_yt-Dj42sI_Z-kQ_38.mp4	0.0	311.93783926963806	0.7500100135803223
68	194.8488690853119	response	0	2		66.0	2.5	/experiments/knapen_aot/oldvideos/S_yt-Dj42sI_Z-kQ_38.mp4	0.0	312.6796612739563	
68	194.85705709457397	movie	1		301.0	66.0	2.5	/experiments/knapen_aot/oldvideos/S_yt-Dj42sI_Z-kQ_38.mp4	0.0	312.6878492832184	2.508349895477295
68	197.36540699005127	fix_post	2		12.0	66.0	2.5	/experiments/knapen_aot/oldvideos/S_yt-Dj42sI_Z-kQ_38.mp4	0.0	315.1961991786957	0.09998488426208496
69	197.46539187431335	fix_pre	0		87.0	67.0	2.5	/experiments/knapen_aot/oldvideos/S_yt-IDpUZ2NWBUY_60.mp4	0.0	315.29618406295776	0.7250120639801025
69	198.1821780204773	response	0	2		67.0	2.5	/experiments/knapen_aot/oldvideos/S_yt-IDpUZ2NWBUY_60.mp4	0.0	316.0129702091217	
69	198.19040393829346	movie	1		301.0	67.0	2.5	/experiments/knapen_aot/oldvideos/S_yt-IDpUZ2NWBUY_60.mp4	0.0	316.02119612693787	2.5086381435394287
69	200.69904208183289	fix_post	2		12.0	67.0	2.5	/experiments/knapen_aot/oldvideos/S_yt-IDpUZ2NWBUY_60.mp4	0.0	318.5298342704773	0.09971880912780762
70	200.7987608909607	fix_pre	0		32.0	68.0	2.5	/experiments/knapen_aot/oldvideos/S_yt-DmlSN7mzczI_62.mp4	0.0	318.6295530796051	0.26658010482788086
70	201.05715799331665	response	0	2		68.0	2.5	/experiments/knapen_aot/oldvideos/S_yt-DmlSN7mzczI_62.mp4	0.0	318.88795018196106	
70	201.06534099578857	movie	1		301.0	68.0	2.5	/experiments/knapen_aot/oldvideos/S_yt-DmlSN7mzczI_62.mp4	0.0	318.896133184433	2.508344888687134
70	203.5736858844757	fix_post	2		12.0	68.0	2.5	/experiments/knapen_aot/oldvideos/S_yt-DmlSN7mzczI_62.mp4	0.0	321.4044780731201	0.10003519058227539
71	203.67372107505798	fix_pre	0		36.0	69.0	2.5	blank	1.0	321.5045132637024	0.29994893074035645
71	203.96547389030457	response	0	2		69.0	2.5	blank	1.0	321.796266078949	
71	203.97367000579834	movie	1		301.0	69.0	2.5	blank	1.0	321.80446219444275	2.508439064025879
71	206.48210906982422	fix_post	2		12.0	69.0	2.5	blank	1.0	324.3129012584686	0.09995198249816895
72	206.5820610523224	fix_pre	0		26.0	70.0	2.5	/experiments/knapen_aot/oldvideos/S_yt-VQtbKGzI9SE_431.mp4	0.0	324.4128532409668	0.21657681465148926
72	206.79045009613037	response	0	2		70.0	2.5	/experiments/knapen_aot/oldvideos/S_yt-VQtbKGzI9SE_431.mp4	0.0	324.6212422847748	
72	206.79863786697388	movie	1		301.0	70.0	2.5	/experiments/knapen_aot/oldvideos/S_yt-VQtbKGzI9SE_431.mp4	0.0	324.6294300556183	2.508345127105713
72	209.3069829940796	fix_post	2		12.0	70.0	2.5	/experiments/knapen_aot/oldvideos/S_yt-VQtbKGzI9SE_431.mp4	0.0	327.137775182724	0.10004901885986328
73	209.40703201293945	fix_pre	0		94.0	71.0	2.5	/experiments/knapen_aot/oldvideos/S_yt-GfPep7IhZIU_47.mp4	0.0	327.23782420158386	0.783236026763916
73	210.1821529865265	response	0	2		71.0	2.5	/experiments/knapen_aot/oldvideos/S_yt-GfPep7IhZIU_47.mp4	0.0	328.0129451751709	
73	210.19026803970337	movie	1		301.0	71.0	2.5	/experiments/knapen_aot/oldvideos/S_yt-GfPep7IhZIU_47.mp4	0.0	328.0210602283478	2.508342981338501
73	212.69861102104187	fix_post	2		12.0	71.0	2.5	/experiments/knapen_aot/oldvideos/S_yt-GfPep7IhZIU_47.mp4	0.0	330.5294032096863	0.10006284713745117
74	212.79867386817932	fix_pre	0		9.0	72.0	2.5	/experiments/knapen_aot/oldvideos/R_S_yt-jUGt_Byqczw_599.mp4	0.0	330.62946605682373	0.07498002052307129
74	212.86544489860535	response	0	2		72.0	2.5	/experiments/knapen_aot/oldvideos/R_S_yt-jUGt_Byqczw_599.mp4	0.0	330.69623708724976	
74	212.8736538887024	movie	1		301.0	72.0	2.5	/experiments/knapen_aot/oldvideos/R_S_yt-jUGt_Byqczw_599.mp4	0.0	330.7044460773468	2.5083510875701904
74	215.38200497627258	fix_post	2		12.0	72.0	2.5	/experiments/knapen_aot/oldvideos/R_S_yt-jUGt_Byqczw_599.mp4	0.0	333.212797164917	0.09996700286865234
75	215.48197197914124	fix_pre	0		26.0	73.0	2.5	/experiments/knapen_aot/oldvideos/S_yt-83nimFMNhrM_131.mp4	0.0	333.31276416778564	0.21671509742736816
75	215.6827940940857	response	0	2		73.0	2.5	/experiments/knapen_aot/oldvideos/S_yt-83nimFMNhrM_131.mp4	0.0	333.5135862827301	
75	215.6986870765686	movie	1		301.0	73.0	2.5	/experiments/knapen_aot/oldvideos/S_yt-83nimFMNhrM_131.mp4	0.0	333.529479265213	2.5084187984466553
75	218.20710587501526	fix_post	2		12.0	73.0	2.5	/experiments/knapen_aot/oldvideos/S_yt-83nimFMNhrM_131.mp4	0.0	336.03789806365967	0.09988522529602051
76	218.30699110031128	fix_pre	0		18.0	74.0	2.5	/experiments/knapen_aot/oldvideos/S_yt-2ZsK7zSCJ2w_67.mp4	0.0	336.1377832889557	0.14995098114013672
76	218.44869899749756	response	0	2		74.0	2.5	/experiments/knapen_aot/oldvideos/S_yt-2ZsK7zSCJ2w_67.mp4	0.0	336.27949118614197	
76	218.45694208145142	movie	1		301.0	74.0	2.5	/experiments/knapen_aot/oldvideos/S_yt-2ZsK7zSCJ2w_67.mp4	0.0	336.2877342700958	2.508356809616089
76	220.9652988910675	fix_post	2		12.0	74.0	2.5	/experiments/knapen_aot/oldvideos/S_yt-2ZsK7zSCJ2w_67.mp4	0.0	338.7960910797119	0.09986114501953125
77	221.06516003608704	fix_pre	0		17.0	75.0	2.5	blank	1.0	338.89595222473145	0.14179301261901855
77	221.19871592521667	response	0	2		75.0	2.5	blank	1.0	339.0295081138611	
77	221.20695304870605	movie	1		301.0	75.0	2.5	blank	1.0	339.03774523735046	2.508309841156006
77	223.71526288986206	fix_post	2		12.0	75.0	2.5	blank	1.0	341.54605507850647	0.10006499290466309
78	223.81532788276672	fix_pre	0		12.0	76.0	2.5	/experiments/knapen_aot/oldvideos/R_S_yt-qiPhBL4lBr0_44.mp4	0.0	341.64612007141113	0.09989213943481445
78	223.90704107284546	response	0	2		76.0	2.5	/experiments/knapen_aot/oldvideos/R_S_yt-qiPhBL4lBr0_44.mp4	0.0	341.73783326148987	
78	223.91522002220154	movie	1		301.0	76.0	2.5	/experiments/knapen_aot/oldvideos/R_S_yt-qiPhBL4lBr0_44.mp4	0.0	341.74601221084595	2.5083529949188232
78	226.42357301712036	fix_post	2		12.0	76.0	2.5	/experiments/knapen_aot/oldvideos/R_S_yt-qiPhBL4lBr0_44.mp4	0.0	344.25436520576477	0.10003900527954102
79	226.5236120223999	fix_pre	0		17.0	77.0	2.5	/experiments/knapen_aot/oldvideos/S_yt-MWX0EtpWIs8_286.mp4	0.0	344.3544042110443	0.1416480541229248
79	226.65701293945312	response	0	2		77.0	2.5	/experiments/knapen_aot/oldvideos/S_yt-MWX0EtpWIs8_286.mp4	0.0	344.48780512809753	
79	226.66526007652283	movie	1		301.0	77.0	2.5	/experiments/knapen_aot/oldvideos/S_yt-MWX0EtpWIs8_286.mp4	0.0	344.49605226516724	2.5083630084991455
79	229.17362308502197	fix_post	2		12.0	77.0	2.5	/experiments/knapen_aot/oldvideos/S_yt-MWX0EtpWIs8_286.mp4	0.0	347.0044152736664	0.10001277923583984
80	229.2736358642578	fix_pre	0		29.0	78.0	2.5	/experiments/knapen_aot/oldvideos/S_yt-Wf-RauSbVgA_56.mp4	0.0	347.1044280529022	0.24158000946044922
80	229.50698804855347	response	0	2		78.0	2.5	/experiments/knapen_aot/oldvideos/S_yt-Wf-RauSbVgA_56.mp4	0.0	347.3377802371979	
80	229.51521587371826	movie	1		301.0	78.0	2.5	/experiments/knapen_aot/oldvideos/S_yt-Wf-RauSbVgA_56.mp4	0.0	347.34600806236267	2.5084071159362793
80	232.02362298965454	fix_post	2		12.0	78.0	2.5	/experiments/knapen_aot/oldvideos/S_yt-Wf-RauSbVgA_56.mp4	0.0	349.85441517829895	0.10015988349914551
81	232.1237828731537	fix_pre	0		16.0	79.0	2.5	/experiments/knapen_aot/oldvideos/S_yt-cokedWwwYYs_136.mp4	0.0	349.9545750617981	0.1342921257019043
81	232.2487120628357	response	0	2		79.0	2.5	/experiments/knapen_aot/oldvideos/S_yt-cokedWwwYYs_136.mp4	0.0	350.0795042514801	
81	232.2580749988556	movie	1		301.0	79.0	2.5	/experiments/knapen_aot/oldvideos/S_yt-cokedWwwYYs_136.mp4	0.0	350.0888671875	2.507227897644043
81	234.76530289649963	fix_post	2		12.0	79.0	2.5	/experiments/knapen_aot/oldvideos/S_yt-cokedWwwYYs_136.mp4	0.0	352.59609508514404	0.09992313385009766
82	234.86522603034973	fix_pre	0		7.0	80.0	2.5	/experiments/knapen_aot/oldvideos/R_S_yt-PreGL81PEP4_61.mp4	0.0	352.69601821899414	0.05946087837219238
82	234.91537594795227	response	0	2		80.0	2.5	/experiments/knapen_aot/oldvideos/R_S_yt-PreGL81PEP4_61.mp4	0.0	352.7461681365967	
82	234.92468690872192	movie	1		301.0	80.0	2.5	/experiments/knapen_aot/oldvideos/R_S_yt-PreGL81PEP4_61.mp4	0.0	352.75547909736633	2.50724196434021
82	237.43192887306213	fix_post	2		12.0	80.0	2.5	/experiments/knapen_aot/oldvideos/R_S_yt-PreGL81PEP4_61.mp4	0.0	355.26272106170654	0.10007619857788086
83	237.53200507164001	fix_pre	0		16.0	81.0	2.5	/experiments/knapen_aot/oldvideos/R_S_DV6V38rplag_215.mp4	0.0	355.3627972602844	0.13320684432983398
83	237.65703201293945	response	0	2		81.0	2.5	/experiments/knapen_aot/oldvideos/R_S_DV6V38rplag_215.mp4	0.0	355.48782420158386	
83	237.66521191596985	movie	1		301.0	81.0	2.5	/experiments/knapen_aot/oldvideos/R_S_DV6V38rplag_215.mp4	0.0	355.49600410461426	2.5083611011505127
83	240.17357301712036	fix_post	2		12.0	81.0	2.5	/experiments/knapen_aot/oldvideos/R_S_DV6V38rplag_215.mp4	0.0	358.00436520576477	0.09999394416809082
84	240.27356696128845	fix_pre	0		41.0	82.0	2.5	/experiments/knapen_aot/oldvideos/S_yt-STL3ejY9u_Q_73.mp4	0.0	358.10435914993286	0.3416321277618408
84	240.6070110797882	response	0	2		82.0	2.5	/experiments/knapen_aot/oldvideos/S_yt-STL3ejY9u_Q_73.mp4	0.0	358.4378032684326	
84	240.6151990890503	movie	1		301.0	82.0	2.5	/experiments/knapen_aot/oldvideos/S_yt-STL3ejY9u_Q_73.mp4	0.0	358.4459912776947	2.5083649158477783
84	243.12356400489807	fix_post	2		12.0	82.0	2.5	/experiments/knapen_aot/oldvideos/S_yt-STL3ejY9u_Q_73.mp4	0.0	360.9543561935425	0.10020208358764648
85	243.22376608848572	fix_pre	0		19.0	83.0	2.5	blank	1.0	361.0545582771301	0.1580648422241211
85	243.37370204925537	response	0	2		83.0	2.5	blank	1.0	361.2044942378998	
85	243.38183093070984	movie	1		301.0	83.0	2.5	blank	1.0	361.21262311935425	2.508336067199707
85	245.89016699790955	fix_post	2		12.0	83.0	2.5	blank	1.0	363.72095918655396	0.10006499290466309
87	245.9902319908142	stim	0		200.0					363.8210241794586	1.6666069030761719
87	246.1819589138031	response	0	2						364.0127511024475	
87	247.64921498298645	response	0	space						365.48000717163086	
