trial_nr	onset	event_type	phase	response	nr_frames	movie_index	movie_duration	movie_file	blank	onset_abs	duration
0	0.12494802474975586	stim	0		21.0					57.36839985847473	0.1737067699432373
0	0.2894759178161621	response	0	space						57.53292775154114	
1	0.29865479469299316	stim	0		121.0					57.54210662841797	1.0071380138397217
1	1.3057928085327148	stim	1		120.0					58.54924464225769	0.9998841285705566
1	1.7059059143066406	response	1	space						58.949357748031616	
1	2.173280954360962	response	1	space						59.41673278808594	
2	2.3056769371032715	fix_pre	0		33.0	0.0	2.5	/experiments/knapen_aot/videos/R_S_yt-9pUeQix6EW8_7.mp4	0.0	59.54912877082825	0.2750730514526367
2	2.56504487991333	response	0	space		0.0	2.5	/experiments/knapen_aot/videos/R_S_yt-9pUeQix6EW8_7.mp4	0.0	59.808496713638306	
2	2.580749988555908	movie	1		301.0	0.0	2.5	/experiments/knapen_aot/videos/R_S_yt-9pUeQix6EW8_7.mp4	0.0	59.824201822280884	2.508391857147217
2	5.089141845703125	fix_post	2		12.0	0.0	2.5	/experiments/knapen_aot/videos/R_S_yt-9pUeQix6EW8_7.mp4	0.0	62.3325936794281	0.09999394416809082
3	5.189135789871216	fix_pre	0		84.0	1.0	2.5	/experiments/knapen_aot/videos/R_S_yt-ILARvS15SDQ_741.mp4	0.0	62.43258762359619	0.6999912261962891
3	5.885715007781982	response	0	2		1.0	2.5	/experiments/knapen_aot/videos/R_S_yt-ILARvS15SDQ_741.mp4	0.0	63.12916684150696	
3	5.889127016067505	movie	1		298.0	1.0	2.5	/experiments/knapen_aot/videos/R_S_yt-ILARvS15SDQ_741.mp4	0.0	63.13257884979248	2.5083348751068115
3	8.397461891174316	fix_post	2		12.0	1.0	2.5	/experiments/knapen_aot/videos/R_S_yt-ILARvS15SDQ_741.mp4	0.0	65.64091372489929	0.09999608993530273
4	8.49745798110962	fix_pre	0		91.0	2.0	2.5	/experiments/knapen_aot/videos/R_S_flickr-clarkstonscamp-4863427159_1.mp4	0.0	65.7409098148346	0.7589728832244873
4	9.247553825378418	response	0	2		2.0	2.5	/experiments/knapen_aot/videos/R_S_flickr-clarkstonscamp-4863427159_1.mp4	0.0	66.4910056591034	
4	9.256430864334106	movie	1		301.0	2.0	2.5	/experiments/knapen_aot/videos/R_S_flickr-clarkstonscamp-4863427159_1.mp4	0.0	66.49988269805908	2.5076849460601807
4	11.764115810394287	fix_post	2		12.0	2.0	2.5	/experiments/knapen_aot/videos/R_S_flickr-clarkstonscamp-4863427159_1.mp4	0.0	69.00756764411926	0.09999513626098633
5	11.864110946655273	fix_pre	0		67.0	3.0	2.5	/experiments/knapen_aot/videos/R_S_yt-fIEGqReekCM_10.mp4	0.0	69.10756278038025	0.5590710639953613
5	12.406729936599731	response	0	2		3.0	2.5	/experiments/knapen_aot/videos/R_S_yt-fIEGqReekCM_10.mp4	0.0	69.6501817703247	
5	12.423182010650635	movie	1		301.0	3.0	2.5	/experiments/knapen_aot/videos/R_S_yt-fIEGqReekCM_10.mp4	0.0	69.66663384437561	2.5075788497924805
5	14.930760860443115	fix_post	2		12.0	3.0	2.5	/experiments/knapen_aot/videos/R_S_yt-fIEGqReekCM_10.mp4	0.0	72.17421269416809	0.10000014305114746
6	15.030761003494263	fix_pre	0		51.0	4.0	2.5	/experiments/knapen_aot/videos/S_yt-QJ2k6vA8aco_12.mp4	0.0	72.27421283721924	0.42493581771850586
6	15.447494983673096	response	0	2		4.0	2.5	/experiments/knapen_aot/videos/S_yt-QJ2k6vA8aco_12.mp4	0.0	72.69094681739807	
6	15.455696821212769	movie	1		301.0	4.0	2.5	/experiments/knapen_aot/videos/S_yt-QJ2k6vA8aco_12.mp4	0.0	72.69914865493774	2.5084099769592285
6	17.964106798171997	fix_post	2		12.0	4.0	2.5	/experiments/knapen_aot/videos/S_yt-QJ2k6vA8aco_12.mp4	0.0	75.20755863189697	0.09996914863586426
7	18.06407594680786	fix_pre	0		58.0	5.0	2.5	/experiments/knapen_aot/videos/R_S_ILSVRC2015_train_00697001.mp4	0.0	75.30752778053284	0.48395705223083496
7	18.539215803146362	response	0	2		5.0	2.5	/experiments/knapen_aot/videos/R_S_ILSVRC2015_train_00697001.mp4	0.0	75.78266763687134	
7	18.548032999038696	movie	1		301.0	5.0	2.5	/experiments/knapen_aot/videos/R_S_ILSVRC2015_train_00697001.mp4	0.0	75.79148483276367	2.507887840270996
7	21.055920839309692	fix_post	2		12.0	5.0	2.5	/experiments/knapen_aot/videos/R_S_ILSVRC2015_train_00697001.mp4	0.0	78.29937267303467	0.0999150276184082
8	21.1558358669281	fix_pre	0		83.0	6.0	2.5	blank	1.0	78.39928770065308	0.6915459632873535
8	21.83921194076538	response	0	2		6.0	2.5	blank	1.0	79.08266377449036	
8	21.847381830215454	movie	1		301.0	6.0	2.5	blank	1.0	79.09083366394043	2.5083529949188232
8	24.355734825134277	fix_post	2		12.0	6.0	2.5	blank	1.0	81.59918665885925	0.09998416900634766
9	24.455718994140625	fix_pre	0		67.0	7.0	2.5	/experiments/knapen_aot/videos/S_yt-Ozx_f0a0ZDI_32.mp4	0.0	81.6991708278656	0.5582959651947021
9	25.00584387779236	response	0	2		7.0	2.5	/experiments/knapen_aot/videos/S_yt-Ozx_f0a0ZDI_32.mp4	0.0	82.24929571151733	
9	25.014014959335327	movie	1		301.0	7.0	2.5	/experiments/knapen_aot/videos/S_yt-Ozx_f0a0ZDI_32.mp4	0.0	82.2574667930603	2.5083248615264893
9	27.522339820861816	fix_post	2		12.0	7.0	2.5	/experiments/knapen_aot/videos/S_yt-Ozx_f0a0ZDI_32.mp4	0.0	84.76579165458679	0.10001707077026367
10	27.62235689163208	fix_pre	0		59.0	8.0	2.5	/experiments/knapen_aot/videos/R_S_yt-wLylWnZs3z0_27.mp4	0.0	84.86580872535706	0.4916229248046875
10	28.10580801963806	response	0	2		8.0	2.5	/experiments/knapen_aot/videos/R_S_yt-wLylWnZs3z0_27.mp4	0.0	85.34925985336304	
10	28.113979816436768	movie	1		301.0	8.0	2.5	/experiments/knapen_aot/videos/R_S_yt-wLylWnZs3z0_27.mp4	0.0	85.35743165016174	2.5083889961242676
10	30.622368812561035	fix_post	2		12.0	8.0	2.5	/experiments/knapen_aot/videos/R_S_yt-wLylWnZs3z0_27.mp4	0.0	87.86582064628601	0.09999918937683105
11	30.722368001937866	fix_pre	0		154.0	9.0	2.5	/experiments/knapen_aot/videos/R_S_pexels-koolshooters-7327405.mp4	0.0	87.96581983566284	1.283850908279419
11	31.997488975524902	response	0	2		9.0	2.5	/experiments/knapen_aot/videos/R_S_pexels-koolshooters-7327405.mp4	0.0	89.24094080924988	
11	32.006218910217285	movie	1		162.0	9.0	2.5	/experiments/knapen_aot/videos/R_S_pexels-koolshooters-7327405.mp4	0.0	89.24967074394226	2.5077390670776367
11	34.51395797729492	fix_post	2		12.0	9.0	2.5	/experiments/knapen_aot/videos/R_S_pexels-koolshooters-7327405.mp4	0.0	91.7574098110199	0.10001087188720703
12	34.61396884918213	fix_pre	0		62.0	10.0	2.5	/experiments/knapen_aot/videos/S_yt-3R23XwTXpKs_238.mp4	0.0	91.8574206829071	0.5172309875488281
12	35.12237882614136	response	0	2		10.0	2.5	/experiments/knapen_aot/videos/S_yt-3R23XwTXpKs_238.mp4	0.0	92.36583065986633	
12	35.13119983673096	movie	1		301.0	10.0	2.5	/experiments/knapen_aot/videos/S_yt-3R23XwTXpKs_238.mp4	0.0	92.37465167045593	2.507796049118042
12	37.638995885849	fix_post	2		12.0	10.0	2.5	/experiments/knapen_aot/videos/S_yt-3R23XwTXpKs_238.mp4	0.0	94.88244771957397	0.10002708435058594
13	37.739022970199585	fix_pre	0		91.0	11.0	2.5	/experiments/knapen_aot/videos/S_yt-lEPoNlKWibA_1.mp4	0.0	94.98247480392456	0.758267879486084
13	38.489128828048706	response	0	2		11.0	2.5	/experiments/knapen_aot/videos/S_yt-lEPoNlKWibA_1.mp4	0.0	95.73258066177368	
13	38.49729084968567	movie	1		301.0	11.0	2.5	/experiments/knapen_aot/videos/S_yt-lEPoNlKWibA_1.mp4	0.0	95.74074268341064	2.5084500312805176
13	41.00574088096619	fix_post	2		12.0	11.0	2.5	/experiments/knapen_aot/videos/S_yt-lEPoNlKWibA_1.mp4	0.0	98.24919271469116	0.09984898567199707
14	41.105589866638184	fix_pre	0		55.0	12.0	2.5	/experiments/knapen_aot/videos/R_S_yt-WTxvvlP8xnw_113.mp4	0.0	98.34904170036316	0.4583280086517334
14	41.54822897911072	response	0	2		12.0	2.5	/experiments/knapen_aot/videos/R_S_yt-WTxvvlP8xnw_113.mp4	0.0	98.7916808128357	
14	41.56391787528992	movie	1		301.0	12.0	2.5	/experiments/knapen_aot/videos/R_S_yt-WTxvvlP8xnw_113.mp4	0.0	98.80736970901489	2.5083820819854736
14	44.07229995727539	fix_post	2		12.0	12.0	2.5	/experiments/knapen_aot/videos/R_S_yt-WTxvvlP8xnw_113.mp4	0.0	101.31575179100037	0.09999799728393555
15	44.172297954559326	fix_pre	0		92.0	13.0	2.5	/experiments/knapen_aot/videos/S_yt-QqSceHxY3d0_356.mp4	0.0	101.4157497882843	0.766636848449707
15	44.93075680732727	response	0	2		13.0	2.5	/experiments/knapen_aot/videos/S_yt-QqSceHxY3d0_356.mp4	0.0	102.17420864105225	
15	44.93893480300903	movie	1		301.0	13.0	2.5	/experiments/knapen_aot/videos/S_yt-QqSceHxY3d0_356.mp4	0.0	102.18238663673401	2.5084261894226074
15	47.44736099243164	fix_post	2		12.0	13.0	2.5	/experiments/knapen_aot/videos/S_yt-QqSceHxY3d0_356.mp4	0.0	104.69081282615662	0.09992790222167969
16	47.54728889465332	fix_pre	0		54.0	14.0	2.5	blank	1.0	104.7907407283783	0.4499959945678711
16	47.98904585838318	response	0	2		14.0	2.5	blank	1.0	105.23249769210815	
16	47.99728488922119	movie	1		301.0	14.0	2.5	blank	1.0	105.24073672294617	2.5084280967712402
16	50.50571298599243	fix_post	2		12.0	14.0	2.5	blank	1.0	107.74916481971741	0.09990882873535156
17	50.60562181472778	fix_pre	0		58.0	15.0	2.5	/experiments/knapen_aot/videos/R_S_production_ID_5182928.mp4	0.0	107.84907364845276	0.4837830066680908
17	51.08062982559204	response	0	2		15.0	2.5	/experiments/knapen_aot/videos/R_S_production_ID_5182928.mp4	0.0	108.32408165931702	
17	51.089404821395874	movie	1		173.0	15.0	2.5	/experiments/knapen_aot/videos/R_S_production_ID_5182928.mp4	0.0	108.33285665512085	2.5078601837158203
17	53.597265005111694	fix_post	2		12.0	15.0	2.5	/experiments/knapen_aot/videos/R_S_production_ID_5182928.mp4	0.0	110.84071683883667	0.10001182556152344
18	53.69727683067322	fix_pre	0		56.0	16.0	2.5	/experiments/knapen_aot/videos/S_yt-kXarkCFJLeg_46.mp4	0.0	110.9407286643982	0.46656298637390137
18	54.15572190284729	response	0	2		16.0	2.5	/experiments/knapen_aot/videos/S_yt-kXarkCFJLeg_46.mp4	0.0	111.39917373657227	
18	54.16383981704712	movie	1		301.0	16.0	2.5	/experiments/knapen_aot/videos/S_yt-kXarkCFJLeg_46.mp4	0.0	111.4072916507721	2.5083580017089844
18	56.6721978187561	fix_post	2		12.0	16.0	2.5	/experiments/knapen_aot/videos/S_yt-kXarkCFJLeg_46.mp4	0.0	113.91564965248108	0.10004711151123047
19	56.772244930267334	fix_pre	0		63.0	17.0	2.5	/experiments/knapen_aot/videos/R_S_yt-PaxmJhMoP3w_87.mp4	0.0	114.01569676399231	0.5255410671234131
19	57.289036989212036	response	0	2		17.0	2.5	/experiments/knapen_aot/videos/R_S_yt-PaxmJhMoP3w_87.mp4	0.0	114.53248882293701	
19	57.29778599739075	movie	1		301.0	17.0	2.5	/experiments/knapen_aot/videos/R_S_yt-PaxmJhMoP3w_87.mp4	0.0	114.54123783111572	2.507848024368286
19	59.80563402175903	fix_post	2		12.0	17.0	2.5	/experiments/knapen_aot/videos/R_S_yt-PaxmJhMoP3w_87.mp4	0.0	117.04908585548401	0.10010099411010742
20	59.90573501586914	fix_pre	0		161.0	18.0	2.5	/experiments/knapen_aot/videos/S_yt-BF80IX4r8x4_106.mp4	0.0	117.14918684959412	1.3414638042449951
20	61.23899579048157	response	0	2		18.0	2.5	/experiments/knapen_aot/videos/S_yt-BF80IX4r8x4_106.mp4	0.0	118.48244762420654	
20	61.247198820114136	movie	1		301.0	18.0	2.5	/experiments/knapen_aot/videos/S_yt-BF80IX4r8x4_106.mp4	0.0	118.49065065383911	2.5083250999450684
20	63.755523920059204	fix_post	2		12.0	18.0	2.5	/experiments/knapen_aot/videos/S_yt-BF80IX4r8x4_106.mp4	0.0	120.99897575378418	0.09999489784240723
21	63.85551881790161	fix_pre	0		70.0	19.0	2.5	/experiments/knapen_aot/videos/R_S_yt-RHPOCG1mII0_138.mp4	0.0	121.09897065162659	0.5833079814910889
21	64.43066191673279	response	0	2		19.0	2.5	/experiments/knapen_aot/videos/R_S_yt-RHPOCG1mII0_138.mp4	0.0	121.67411375045776	
21	64.4388267993927	movie	1		301.0	19.0	2.5	/experiments/knapen_aot/videos/R_S_yt-RHPOCG1mII0_138.mp4	0.0	121.68227863311768	2.5083301067352295
21	66.94715690612793	fix_post	2		12.0	19.0	2.5	/experiments/knapen_aot/videos/R_S_yt-RHPOCG1mII0_138.mp4	0.0	124.1906087398529	0.10004997253417969
22	67.04720687866211	fix_pre	0		57.0	20.0	2.5	blank	1.0	124.29065871238708	0.47498202323913574
22	67.51393580436707	response	0	2		20.0	2.5	blank	1.0	124.75738763809204	
22	67.52218890190125	movie	1		301.0	20.0	2.5	blank	1.0	124.76564073562622	2.5083320140838623
22	70.03052091598511	fix_post	2		12.0	20.0	2.5	blank	1.0	127.27397274971008	0.10001301765441895
23	70.13053393363953	fix_pre	0		63.0	21.0	2.5	/experiments/knapen_aot/videos/S_yt-BAwvfRmE1LU_79.mp4	0.0	127.3739857673645	0.5249490737915039
23	70.63987493515015	response	0	2		21.0	2.5	/experiments/knapen_aot/videos/S_yt-BAwvfRmE1LU_79.mp4	0.0	127.88332676887512	
23	70.65548300743103	movie	1		301.0	21.0	2.5	/experiments/knapen_aot/videos/S_yt-BAwvfRmE1LU_79.mp4	0.0	127.898934841156	2.5083508491516113
23	73.16383385658264	fix_post	2		12.0	21.0	2.5	/experiments/knapen_aot/videos/S_yt-BAwvfRmE1LU_79.mp4	0.0	130.40728569030762	0.09995698928833008
24	73.26379084587097	fix_pre	0		62.0	22.0	2.5	/experiments/knapen_aot/videos/R_S_yt-M8wvzt_BMXM_173.mp4	0.0	130.50724267959595	0.5166831016540527
24	73.77230286598206	response	0	2		22.0	2.5	/experiments/knapen_aot/videos/R_S_yt-M8wvzt_BMXM_173.mp4	0.0	131.01575469970703	
24	73.78047394752502	movie	1		301.0	22.0	2.5	/experiments/knapen_aot/videos/R_S_yt-M8wvzt_BMXM_173.mp4	0.0	131.02392578125	2.5082929134368896
24	76.28876686096191	fix_post	2		12.0	22.0	2.5	/experiments/knapen_aot/videos/R_S_yt-M8wvzt_BMXM_173.mp4	0.0	133.5322186946869	0.10008907318115234
25	76.38885593414307	fix_pre	0		68.0	23.0	2.5	/experiments/knapen_aot/videos/R_S_yt-oxUpc8I5wWQ_238.mp4	0.0	133.63230776786804	0.5666120052337646
25	76.94724988937378	response	0	2		23.0	2.5	/experiments/knapen_aot/videos/R_S_yt-oxUpc8I5wWQ_238.mp4	0.0	134.19070172309875	
25	76.95546793937683	movie	1		301.0	23.0	2.5	/experiments/knapen_aot/videos/R_S_yt-oxUpc8I5wWQ_238.mp4	0.0	134.1989197731018	2.5083730220794678
25	79.4638409614563	fix_post	2		12.0	23.0	2.5	/experiments/knapen_aot/videos/R_S_yt-oxUpc8I5wWQ_238.mp4	0.0	136.70729279518127	0.09996891021728516
26	79.56380987167358	fix_pre	0		86.0	24.0	2.5	/experiments/knapen_aot/videos/S_production_ID_5102663.mp4	0.0	136.80726170539856	0.716588020324707
26	80.2723159790039	response	0	2		24.0	2.5	/experiments/knapen_aot/videos/S_production_ID_5102663.mp4	0.0	137.51576781272888	
26	80.28039789199829	movie	1		210.0	24.0	2.5	/experiments/knapen_aot/videos/S_production_ID_5102663.mp4	0.0	137.52384972572327	2.5084099769592285
26	82.78880786895752	fix_post	2		12.0	24.0	2.5	/experiments/knapen_aot/videos/S_production_ID_5102663.mp4	0.0	140.0322597026825	0.09998607635498047
27	82.8887939453125	fix_pre	0		73.0	25.0	2.5	/experiments/knapen_aot/videos/R_S_yt-BiBS8EO5GPc_4.mp4	0.0	140.13224577903748	0.608288049697876
27	83.4888699054718	response	0	2		25.0	2.5	/experiments/knapen_aot/videos/R_S_yt-BiBS8EO5GPc_4.mp4	0.0	140.73232173919678	
27	83.49708199501038	movie	1		301.0	25.0	2.5	/experiments/knapen_aot/videos/R_S_yt-BiBS8EO5GPc_4.mp4	0.0	140.74053382873535	2.5083749294281006
27	86.00545692443848	fix_post	2		12.0	25.0	2.5	/experiments/knapen_aot/videos/R_S_yt-BiBS8EO5GPc_4.mp4	0.0	143.24890875816345	0.09998297691345215
28	86.10543990135193	fix_pre	0		88.0	26.0	2.5	/experiments/knapen_aot/videos/R_S_yt-3eQHOLBzOqA_100.mp4	0.0	143.3488917350769	0.7335629463195801
28	86.83054995536804	response	0	2		26.0	2.5	/experiments/knapen_aot/videos/R_S_yt-3eQHOLBzOqA_100.mp4	0.0	144.07400178909302	
28	86.83900284767151	movie	1		301.0	26.0	2.5	/experiments/knapen_aot/videos/R_S_yt-3eQHOLBzOqA_100.mp4	0.0	144.08245468139648	2.5081169605255127
28	89.34711980819702	fix_post	2		12.0	26.0	2.5	/experiments/knapen_aot/videos/R_S_yt-3eQHOLBzOqA_100.mp4	0.0	146.590571641922	0.0999610424041748
29	89.4470808506012	fix_pre	0		88.0	27.0	2.5	blank	1.0	146.69053268432617	0.733320951461792
29	90.17223691940308	response	0	2		27.0	2.5	blank	1.0	147.41568875312805	
29	90.18040180206299	movie	1		301.0	27.0	2.5	blank	1.0	147.42385363578796	2.508303165435791
29	92.68870496749878	fix_post	2		12.0	27.0	2.5	blank	1.0	149.93215680122375	0.09999299049377441
30	92.78869795799255	fix_pre	0		55.0	28.0	2.5	/experiments/knapen_aot/videos/R_S_ILSVRC2015_train_00569007.mp4	0.0	150.03214979171753	0.45833587646484375
30	93.23873281478882	response	0	2		28.0	2.5	/experiments/knapen_aot/videos/R_S_ILSVRC2015_train_00569007.mp4	0.0	150.4821846485138	
30	93.2470338344574	movie	1		301.0	28.0	2.5	/experiments/knapen_aot/videos/R_S_ILSVRC2015_train_00569007.mp4	0.0	150.49048566818237	2.5083200931549072
30	95.7553539276123	fix_post	2		12.0	28.0	2.5	/experiments/knapen_aot/videos/R_S_ILSVRC2015_train_00569007.mp4	0.0	152.99880576133728	0.10002803802490234
31	95.8553819656372	fix_pre	0		65.0	29.0	2.5	/experiments/knapen_aot/videos/S_ILSVRC2015_train_00479003.mp4	0.0	153.09883379936218	0.5416018962860107
31	96.38876795768738	response	0	2		29.0	2.5	/experiments/knapen_aot/videos/S_ILSVRC2015_train_00479003.mp4	0.0	153.63221979141235	
31	96.39698386192322	movie	1		301.0	29.0	2.5	/experiments/knapen_aot/videos/S_ILSVRC2015_train_00479003.mp4	0.0	153.6404356956482	2.508406162261963
31	98.90539002418518	fix_post	2		12.0	29.0	2.5	/experiments/knapen_aot/videos/S_ILSVRC2015_train_00479003.mp4	0.0	156.14884185791016	0.1002798080444336
32	99.00566983222961	fix_pre	0		71.0	30.0	2.5	/experiments/knapen_aot/videos/S_ILSVRC2015_train_00682009.mp4	0.0	156.2491216659546	0.5912861824035645
32	99.58893179893494	response	0	2		30.0	2.5	/experiments/knapen_aot/videos/S_ILSVRC2015_train_00682009.mp4	0.0	156.8323836326599	
32	99.59695601463318	movie	1		301.0	30.0	2.5	/experiments/knapen_aot/videos/S_ILSVRC2015_train_00682009.mp4	0.0	156.84040784835815	2.508309841156006
32	102.10526585578918	fix_post	2		12.0	30.0	2.5	/experiments/knapen_aot/videos/S_ILSVRC2015_train_00682009.mp4	0.0	159.34871768951416	0.10008502006530762
33	102.20535087585449	fix_pre	0		51.0	31.0	2.5	/experiments/knapen_aot/videos/R_S_KP_A010_C002_SDR_20190717_SDR_2K_AVC.mp4	0.0	159.44880270957947	0.4251401424407959
33	102.62213802337646	response	0	2		31.0	2.5	/experiments/knapen_aot/videos/R_S_KP_A010_C002_SDR_20190717_SDR_2K_AVC.mp4	0.0	159.86558985710144	
33	102.63049101829529	movie	1		165.0	31.0	2.5	/experiments/knapen_aot/videos/R_S_KP_A010_C002_SDR_20190717_SDR_2K_AVC.mp4	0.0	159.87394285202026	2.5081679821014404
33	105.13865900039673	fix_post	2		12.0	31.0	2.5	/experiments/knapen_aot/videos/R_S_KP_A010_C002_SDR_20190717_SDR_2K_AVC.mp4	0.0	162.3821108341217	0.1000208854675293
34	105.23867988586426	fix_pre	0		59.0	32.0	2.5	/experiments/knapen_aot/videos/S_yt-rafmq6Ydoc8_15.mp4	0.0	162.48213171958923	0.4916341304779053
34	105.72212600708008	response	0	2		32.0	2.5	/experiments/knapen_aot/videos/S_yt-rafmq6Ydoc8_15.mp4	0.0	162.96557784080505	
34	105.73031401634216	movie	1		301.0	32.0	2.5	/experiments/knapen_aot/videos/S_yt-rafmq6Ydoc8_15.mp4	0.0	162.97376585006714	2.5083367824554443
34	108.23865079879761	fix_post	2		12.0	32.0	2.5	/experiments/knapen_aot/videos/S_yt-rafmq6Ydoc8_15.mp4	0.0	165.48210263252258	0.1001729965209961
35	108.3388237953186	fix_pre	0		63.0	33.0	2.5	/experiments/knapen_aot/videos/S_yt-xqHrTtvFFIs_3.mp4	0.0	165.58227562904358	0.5247859954833984
35	108.85543894767761	response	0	2		33.0	2.5	/experiments/knapen_aot/videos/S_yt-xqHrTtvFFIs_3.mp4	0.0	166.0988907814026	
35	108.863609790802	movie	1		301.0	33.0	2.5	/experiments/knapen_aot/videos/S_yt-xqHrTtvFFIs_3.mp4	0.0	166.10706162452698	2.5083742141723633
35	111.37198400497437	fix_post	2		12.0	33.0	2.5	/experiments/knapen_aot/videos/S_yt-xqHrTtvFFIs_3.mp4	0.0	168.61543583869934	0.09993696212768555
36	111.47192096710205	fix_pre	0		83.0	34.0	2.5	blank	1.0	168.71537280082703	0.6916029453277588
36	112.15546298027039	response	0	2		34.0	2.5	blank	1.0	169.39891481399536	
36	112.16352391242981	movie	1		301.0	34.0	2.5	blank	1.0	169.40697574615479	2.508613109588623
36	114.67213702201843	fix_post	2		12.0	34.0	2.5	blank	1.0	171.9155888557434	0.09974884986877441
37	114.7718858718872	fix_pre	0		52.0	35.0	2.5	/experiments/knapen_aot/videos/R_S_yt-9NV8zv2Sdq4_30.mp4	0.0	172.01533770561218	0.43326902389526367
37	115.19702100753784	response	0	2		35.0	2.5	/experiments/knapen_aot/videos/R_S_yt-9NV8zv2Sdq4_30.mp4	0.0	172.44047284126282	
37	115.20515489578247	movie	1		301.0	35.0	2.5	/experiments/knapen_aot/videos/R_S_yt-9NV8zv2Sdq4_30.mp4	0.0	172.44860672950745	2.508661985397339
37	117.71381688117981	fix_post	2		12.0	35.0	2.5	/experiments/knapen_aot/videos/R_S_yt-9NV8zv2Sdq4_30.mp4	0.0	174.95726871490479	0.09977507591247559
38	117.81359195709229	fix_pre	0		60.0	36.0	2.5	/experiments/knapen_aot/videos/S_yt-Wf-RauSbVgA_56.mp4	0.0	175.05704379081726	0.4999690055847168
38	118.30540084838867	response	0	2		36.0	2.5	/experiments/knapen_aot/videos/S_yt-Wf-RauSbVgA_56.mp4	0.0	175.54885268211365	
38	118.313560962677	movie	1		301.0	36.0	2.5	/experiments/knapen_aot/videos/S_yt-Wf-RauSbVgA_56.mp4	0.0	175.55701279640198	2.5083839893341064
38	120.82194495201111	fix_post	2		12.0	36.0	2.5	/experiments/knapen_aot/videos/S_yt-Wf-RauSbVgA_56.mp4	0.0	178.06539678573608	0.10013389587402344
39	120.92207884788513	fix_pre	0		68.0	37.0	2.5	/experiments/knapen_aot/videos/R_S_yt-3R23XwTXpKs_238.mp4	0.0	178.1655306816101	0.566586971282959
39	121.48035192489624	response	0	2		37.0	2.5	/experiments/knapen_aot/videos/R_S_yt-3R23XwTXpKs_238.mp4	0.0	178.72380375862122	
39	121.48866581916809	movie	1		301.0	37.0	2.5	/experiments/knapen_aot/videos/R_S_yt-3R23XwTXpKs_238.mp4	0.0	178.73211765289307	2.508242130279541
39	123.99690794944763	fix_post	2		12.0	37.0	2.5	/experiments/knapen_aot/videos/R_S_yt-3R23XwTXpKs_238.mp4	0.0	181.2403597831726	0.0999598503112793
40	124.09686779975891	fix_pre	0		70.0	38.0	2.5	/experiments/knapen_aot/videos/R_S_wc-7ugQ0V4lxYkJ_131.mp4	0.0	181.3403196334839	0.5832750797271729
40	124.67205381393433	response	0	2		38.0	2.5	/experiments/knapen_aot/videos/R_S_wc-7ugQ0V4lxYkJ_131.mp4	0.0	181.9155056476593	
40	124.68014287948608	movie	1		301.0	38.0	2.5	/experiments/knapen_aot/videos/R_S_wc-7ugQ0V4lxYkJ_131.mp4	0.0	181.92359471321106	2.508415937423706
40	127.18855881690979	fix_post	2		12.0	38.0	2.5	/experiments/knapen_aot/videos/R_S_wc-7ugQ0V4lxYkJ_131.mp4	0.0	184.43201065063477	0.1001291275024414
41	127.28868794441223	fix_pre	0		58.0	39.0	2.5	/experiments/knapen_aot/videos/S_yt-LhP0mZ6xxIg_111.mp4	0.0	184.5321397781372	0.4831829071044922
41	127.7636969089508	response	0	2		39.0	2.5	/experiments/knapen_aot/videos/S_yt-LhP0mZ6xxIg_111.mp4	0.0	185.00714874267578	
41	127.77187085151672	movie	1		301.0	39.0	2.5	/experiments/knapen_aot/videos/S_yt-LhP0mZ6xxIg_111.mp4	0.0	185.0153226852417	2.5083210468292236
41	130.28019189834595	fix_post	2		12.0	39.0	2.5	/experiments/knapen_aot/videos/S_yt-LhP0mZ6xxIg_111.mp4	0.0	187.52364373207092	0.10011410713195801
42	130.3803060054779	fix_pre	0		68.0	40.0	2.5	blank	1.0	187.62375783920288	0.5664958953857422
42	130.93130493164062	response	0	2		40.0	2.5	blank	1.0	188.1747567653656	
42	130.94680190086365	movie	1		301.0	40.0	2.5	blank	1.0	188.19025373458862	2.5084218978881836
42	133.45522379875183	fix_post	2		12.0	40.0	2.5	blank	1.0	190.6986756324768	0.10007619857788086
43	133.5552999973297	fix_pre	0		62.0	41.0	2.5	/experiments/knapen_aot/videos/S_yt-4GDusA21cEA_170.mp4	0.0	190.7987518310547	0.5165159702301025
43	134.0635769367218	response	0	2		41.0	2.5	/experiments/knapen_aot/videos/S_yt-4GDusA21cEA_170.mp4	0.0	191.30702877044678	
43	134.07181596755981	movie	1		301.0	41.0	2.5	/experiments/knapen_aot/videos/S_yt-4GDusA21cEA_170.mp4	0.0	191.3152678012848	2.5083749294281006
43	136.58019089698792	fix_post	2		12.0	41.0	2.5	/experiments/knapen_aot/videos/S_yt-4GDusA21cEA_170.mp4	0.0	193.8236427307129	0.09993100166320801
44	136.68012189865112	fix_pre	0		65.0	42.0	2.5	/experiments/knapen_aot/videos/S_yt-78k6vUHDWAI_206.mp4	0.0	193.9235737323761	0.5416750907897949
44	137.21360087394714	response	0	2		42.0	2.5	/experiments/knapen_aot/videos/S_yt-78k6vUHDWAI_206.mp4	0.0	194.45705270767212	
44	137.22179698944092	movie	1		301.0	42.0	2.5	/experiments/knapen_aot/videos/S_yt-78k6vUHDWAI_206.mp4	0.0	194.4652488231659	2.508366823196411
44	139.73016381263733	fix_post	2		12.0	42.0	2.5	/experiments/knapen_aot/videos/S_yt-78k6vUHDWAI_206.mp4	0.0	196.9736156463623	0.10004520416259766
45	139.83020901679993	fix_pre	0		59.0	43.0	2.5	/experiments/knapen_aot/videos/R_S_yt-JtR6WZXT2kU_8.mp4	0.0	197.0736608505249	0.4916708469390869
45	140.3136088848114	response	0	2		43.0	2.5	/experiments/knapen_aot/videos/R_S_yt-JtR6WZXT2kU_8.mp4	0.0	197.55706071853638	
45	140.321879863739	movie	1		301.0	43.0	2.5	/experiments/knapen_aot/videos/R_S_yt-JtR6WZXT2kU_8.mp4	0.0	197.565331697464	2.50827693939209
45	142.8301568031311	fix_post	2		12.0	43.0	2.5	/experiments/knapen_aot/videos/R_S_yt-JtR6WZXT2kU_8.mp4	0.0	200.07360863685608	0.09993720054626465
46	142.93009400367737	fix_pre	0		66.0	44.0	2.5	/experiments/knapen_aot/videos/S_yt-FsXOl6JjzSY_15.mp4	0.0	200.17354583740234	0.5499730110168457
46	143.46449089050293	response	0	2		44.0	2.5	/experiments/knapen_aot/videos/S_yt-FsXOl6JjzSY_15.mp4	0.0	200.7079427242279	
46	143.4800670146942	movie	1		301.0	44.0	2.5	/experiments/knapen_aot/videos/S_yt-FsXOl6JjzSY_15.mp4	0.0	200.7235188484192	2.5084028244018555
46	145.98846983909607	fix_post	2		12.0	44.0	2.5	/experiments/knapen_aot/videos/S_yt-FsXOl6JjzSY_15.mp4	0.0	203.23192167282104	0.1000521183013916
47	146.08852195739746	fix_pre	0		69.0	45.0	2.5	/experiments/knapen_aot/videos/R_S_yt-Y3pi1bgUwIg_78.mp4	0.0	203.33197379112244	0.5748958587646484
47	146.6552438735962	response	0	2		45.0	2.5	/experiments/knapen_aot/videos/R_S_yt-Y3pi1bgUwIg_78.mp4	0.0	203.89869570732117	
47	146.6634178161621	movie	1		301.0	45.0	2.5	/experiments/knapen_aot/videos/R_S_yt-Y3pi1bgUwIg_78.mp4	0.0	203.90686964988708	2.508445978164673
47	149.17186379432678	fix_post	2		12.0	45.0	2.5	/experiments/knapen_aot/videos/R_S_yt-Y3pi1bgUwIg_78.mp4	0.0	206.41531562805176	0.10006999969482422
48	149.2719337940216	fix_pre	0		88.0	46.0	2.5	/experiments/knapen_aot/videos/S_production_ID_4997166.mp4	0.0	206.51538562774658	0.7331180572509766
48	149.99690294265747	response	0	2		46.0	2.5	/experiments/knapen_aot/videos/S_production_ID_4997166.mp4	0.0	207.24035477638245	
48	150.00505185127258	movie	1		165.0	46.0	2.5	/experiments/knapen_aot/videos/S_production_ID_4997166.mp4	0.0	207.24850368499756	2.508392095565796
48	152.51344394683838	fix_post	2		12.0	46.0	2.5	/experiments/knapen_aot/videos/S_production_ID_4997166.mp4	0.0	209.75689578056335	0.10000991821289062
49	152.61345386505127	fix_pre	0		55.0	47.0	2.5	/experiments/knapen_aot/videos/R_S_yt-BAwvfRmE1LU_79.mp4	0.0	209.85690569877625	0.4582631587982178
49	153.06351399421692	response	0	2		47.0	2.5	/experiments/knapen_aot/videos/R_S_yt-BAwvfRmE1LU_79.mp4	0.0	210.3069658279419	
49	153.0717170238495	movie	1		301.0	47.0	2.5	/experiments/knapen_aot/videos/R_S_yt-BAwvfRmE1LU_79.mp4	0.0	210.31516885757446	2.5083940029144287
49	155.58011102676392	fix_post	2		12.0	47.0	2.5	/experiments/knapen_aot/videos/R_S_yt-BAwvfRmE1LU_79.mp4	0.0	212.8235628604889	0.10000491142272949
50	155.68011593818665	fix_pre	0		60.0	48.0	2.5	/experiments/knapen_aot/videos/S_yt-nn-8LZcafGs_25.mp4	0.0	212.92356777191162	0.49991488456726074
50	156.17184901237488	response	0	2		48.0	2.5	/experiments/knapen_aot/videos/S_yt-nn-8LZcafGs_25.mp4	0.0	213.41530084609985	
50	156.1800308227539	movie	1		301.0	48.0	2.5	/experiments/knapen_aot/videos/S_yt-nn-8LZcafGs_25.mp4	0.0	213.42348265647888	2.508345127105713
50	158.68837594985962	fix_post	2		12.0	48.0	2.5	/experiments/knapen_aot/videos/S_yt-nn-8LZcafGs_25.mp4	0.0	215.9318277835846	0.10002899169921875
51	158.78840494155884	fix_pre	0		56.0	49.0	2.5	blank	1.0	216.0318567752838	0.46660494804382324
51	159.24690985679626	response	0	2		49.0	2.5	blank	1.0	216.49036169052124	
51	159.25500988960266	movie	1		301.0	49.0	2.5	blank	1.0	216.49846172332764	2.508465051651001
51	161.76347494125366	fix_post	2		12.0	49.0	2.5	blank	1.0	219.00692677497864	0.0999300479888916
52	161.86340498924255	fix_pre	0		63.0	50.0	2.5	/experiments/knapen_aot/videos/R_S_ILSVRC2015_train_00469000.mp4	0.0	219.10685682296753	0.5248908996582031
52	162.38022184371948	response	0	2		50.0	2.5	/experiments/knapen_aot/videos/R_S_ILSVRC2015_train_00469000.mp4	0.0	219.62367367744446	
52	162.38829588890076	movie	1		301.0	50.0	2.5	/experiments/knapen_aot/videos/R_S_ILSVRC2015_train_00469000.mp4	0.0	219.63174772262573	2.5084171295166016
52	164.89671301841736	fix_post	2		12.0	50.0	2.5	/experiments/knapen_aot/videos/R_S_ILSVRC2015_train_00469000.mp4	0.0	222.14016485214233	0.10000181198120117
53	164.99671483039856	fix_pre	0		44.0	51.0	2.5	/experiments/knapen_aot/videos/S_yt-WASlRH1zA8c_175.mp4	0.0	222.24016666412354	0.36667418479919434
53	165.35517597198486	response	0	2		51.0	2.5	/experiments/knapen_aot/videos/S_yt-WASlRH1zA8c_175.mp4	0.0	222.59862780570984	
53	165.36338901519775	movie	1		301.0	51.0	2.5	/experiments/knapen_aot/videos/S_yt-WASlRH1zA8c_175.mp4	0.0	222.60684084892273	2.508347988128662
53	167.87173700332642	fix_post	2		12.0	51.0	2.5	/experiments/knapen_aot/videos/S_yt-WASlRH1zA8c_175.mp4	0.0	225.1151888370514	0.10001087188720703
54	167.97174787521362	fix_pre	0		52.0	52.0	2.5	/experiments/knapen_aot/videos/R_S_yt-DWsFRl5bXs8_23.mp4	0.0	225.2151997089386	0.4332880973815918
54	168.3969099521637	response	0	2		52.0	2.5	/experiments/knapen_aot/videos/R_S_yt-DWsFRl5bXs8_23.mp4	0.0	225.64036178588867	
54	168.40503597259521	movie	1		301.0	52.0	2.5	/experiments/knapen_aot/videos/R_S_yt-DWsFRl5bXs8_23.mp4	0.0	225.6484878063202	2.5084128379821777
54	170.9134488105774	fix_post	2		12.0	52.0	2.5	/experiments/knapen_aot/videos/R_S_yt-DWsFRl5bXs8_23.mp4	0.0	228.15690064430237	0.09993910789489746
55	171.0133879184723	fix_pre	0		66.0	53.0	2.5	/experiments/knapen_aot/videos/S_yt-oxUpc8I5wWQ_238.mp4	0.0	228.25683975219727	0.5499660968780518
55	171.5551998615265	response	0	2		53.0	2.5	/experiments/knapen_aot/videos/S_yt-oxUpc8I5wWQ_238.mp4	0.0	228.79865169525146	
55	171.56335401535034	movie	1		301.0	53.0	2.5	/experiments/knapen_aot/videos/S_yt-oxUpc8I5wWQ_238.mp4	0.0	228.80680584907532	2.5083608627319336
55	174.07171487808228	fix_post	2		12.0	53.0	2.5	/experiments/knapen_aot/videos/S_yt-oxUpc8I5wWQ_238.mp4	0.0	231.31516671180725	0.09996414184570312
56	174.17167901992798	fix_pre	0		71.0	54.0	2.5	blank	1.0	231.41513085365295	0.5916829109191895
56	174.7551989555359	response	0	2		54.0	2.5	blank	1.0	231.99865078926086	
56	174.76336193084717	movie	1		301.0	54.0	2.5	blank	1.0	232.00681376457214	2.5083670616149902
56	177.27172899246216	fix_post	2		12.0	54.0	2.5	blank	1.0	234.51518082618713	0.10007095336914062
57	177.3717999458313	fix_pre	0		61.0	55.0	2.5	/experiments/knapen_aot/videos/S_yt-ujdFTAUE8rc_34.mp4	0.0	234.61525177955627	0.5081930160522461
57	177.8718068599701	response	0	2		55.0	2.5	/experiments/knapen_aot/videos/S_yt-ujdFTAUE8rc_34.mp4	0.0	235.11525869369507	
57	177.87999296188354	movie	1		301.0	55.0	2.5	/experiments/knapen_aot/videos/S_yt-ujdFTAUE8rc_34.mp4	0.0	235.12344479560852	2.5083858966827393
57	180.38837885856628	fix_post	2		12.0	55.0	2.5	/experiments/knapen_aot/videos/S_yt-ujdFTAUE8rc_34.mp4	0.0	237.63183069229126	0.09998106956481934
58	180.4883599281311	fix_pre	0		75.0	56.0	2.5	/experiments/knapen_aot/videos/R_S_yt-Ryb0K9lGPrg_5.mp4	0.0	237.73181176185608	0.6249339580535889
58	181.10512280464172	response	0	2		56.0	2.5	/experiments/knapen_aot/videos/R_S_yt-Ryb0K9lGPrg_5.mp4	0.0	238.3485746383667	
58	181.1132938861847	movie	1		301.0	56.0	2.5	/experiments/knapen_aot/videos/R_S_yt-Ryb0K9lGPrg_5.mp4	0.0	238.35674571990967	2.5088460445404053
58	183.6221399307251	fix_post	2		12.0	56.0	2.5	/experiments/knapen_aot/videos/R_S_yt-Ryb0K9lGPrg_5.mp4	0.0	240.86559176445007	0.09968209266662598
59	183.72182202339172	fix_pre	0		83.0	57.0	2.5	/experiments/knapen_aot/videos/R_S_yt-22c5eZ1UNME_76.mp4	0.0	240.9652738571167	0.6913759708404541
59	184.40505290031433	response	0	2		57.0	2.5	/experiments/knapen_aot/videos/R_S_yt-22c5eZ1UNME_76.mp4	0.0	241.6485047340393	
59	184.41319799423218	movie	1		301.0	57.0	2.5	/experiments/knapen_aot/videos/R_S_yt-22c5eZ1UNME_76.mp4	0.0	241.65664982795715	2.5084388256073
59	186.92163681983948	fix_post	2		12.0	57.0	2.5	/experiments/knapen_aot/videos/R_S_yt-22c5eZ1UNME_76.mp4	0.0	244.16508865356445	0.10004210472106934
60	187.02167892456055	fix_pre	0		65.0	58.0	2.5	/experiments/knapen_aot/videos/S_yt-n2PnABmSpxI_115.mp4	0.0	244.26513075828552	0.5415298938751221
60	187.5550889968872	response	0	2		58.0	2.5	/experiments/knapen_aot/videos/S_yt-n2PnABmSpxI_115.mp4	0.0	244.79854083061218	
60	187.56320881843567	movie	1		301.0	58.0	2.5	/experiments/knapen_aot/videos/S_yt-n2PnABmSpxI_115.mp4	0.0	244.80666065216064	2.5084381103515625
60	190.07164692878723	fix_post	2		12.0	58.0	2.5	/experiments/knapen_aot/videos/S_yt-n2PnABmSpxI_115.mp4	0.0	247.3150987625122	0.0999460220336914
61	190.17159295082092	fix_pre	0		51.0	59.0	2.5	/experiments/knapen_aot/videos/S_ILSVRC2015_train_00696000.mp4	0.0	247.4150447845459	0.42495298385620117
61	190.5884029865265	response	0	2		59.0	2.5	/experiments/knapen_aot/videos/S_ILSVRC2015_train_00696000.mp4	0.0	247.83185482025146	
61	190.59654593467712	movie	1		301.0	59.0	2.5	/experiments/knapen_aot/videos/S_ILSVRC2015_train_00696000.mp4	0.0	247.8399977684021	2.50875186920166
61	193.10529780387878	fix_post	2		12.0	59.0	2.5	/experiments/knapen_aot/videos/S_ILSVRC2015_train_00696000.mp4	0.0	250.34874963760376	0.09955215454101562
62	193.2048499584198	fix_pre	0		66.0	60.0	2.5	/experiments/knapen_aot/videos/R_S_yt-YyKEeu2gLrI_158.mp4	0.0	250.44830179214478	0.5499598979949951
62	193.74681997299194	response	0	2		60.0	2.5	/experiments/knapen_aot/videos/R_S_yt-YyKEeu2gLrI_158.mp4	0.0	250.99027180671692	
62	193.7548098564148	movie	1		301.0	60.0	2.5	/experiments/knapen_aot/videos/R_S_yt-YyKEeu2gLrI_158.mp4	0.0	250.99826169013977	2.508430004119873
62	196.26323986053467	fix_post	2		12.0	60.0	2.5	/experiments/knapen_aot/videos/R_S_yt-YyKEeu2gLrI_158.mp4	0.0	253.50669169425964	0.09997916221618652
63	196.36321902275085	fix_pre	0		68.0	61.0	2.5	/experiments/knapen_aot/videos/R_S_yt-78k6vUHDWAI_206.mp4	0.0	253.60667085647583	0.5666308403015137
63	196.92174196243286	response	0	2		61.0	2.5	/experiments/knapen_aot/videos/R_S_yt-78k6vUHDWAI_206.mp4	0.0	254.16519379615784	
63	196.92984986305237	movie	1		301.0	61.0	2.5	/experiments/knapen_aot/videos/R_S_yt-78k6vUHDWAI_206.mp4	0.0	254.17330169677734	2.5083670616149902
63	199.43821692466736	fix_post	2		12.0	61.0	2.5	/experiments/knapen_aot/videos/R_S_yt-78k6vUHDWAI_206.mp4	0.0	256.68166875839233	0.10000395774841309
64	199.53822088241577	fix_pre	0		69.0	62.0	2.5	/experiments/knapen_aot/videos/S_ILSVRC2015_train_00369004.mp4	0.0	256.78167271614075	0.5749881267547607
64	200.10505390167236	response	0	2		62.0	2.5	/experiments/knapen_aot/videos/S_ILSVRC2015_train_00369004.mp4	0.0	257.34850573539734	
64	200.11320900917053	movie	1		301.0	62.0	2.5	/experiments/knapen_aot/videos/S_ILSVRC2015_train_00369004.mp4	0.0	257.3566608428955	2.5083179473876953
64	202.62152695655823	fix_post	2		12.0	62.0	2.5	/experiments/knapen_aot/videos/S_ILSVRC2015_train_00369004.mp4	0.0	259.8649787902832	0.10001897811889648
65	202.72154593467712	fix_pre	0		59.0	63.0	2.5	blank	1.0	259.9649977684021	0.4917020797729492
65	203.20490384101868	response	0	2		63.0	2.5	blank	1.0	260.44835567474365	
65	203.21324801445007	movie	1		301.0	63.0	2.5	blank	1.0	260.45669984817505	2.50830078125
65	205.72154879570007	fix_post	2		12.0	63.0	2.5	blank	1.0	262.96500062942505	0.10006999969482422
66	205.8216187953949	fix_pre	0		65.0	64.0	2.5	/experiments/knapen_aot/videos/S_comp_H012_C009_PS_v01_SDR_PS_20180925_SDR_2K_AVC.mp4	0.0	263.0650706291199	0.5416371822357178
66	206.35494089126587	response	0	2		64.0	2.5	/experiments/knapen_aot/videos/S_comp_H012_C009_PS_v01_SDR_PS_20180925_SDR_2K_AVC.mp4	0.0	263.59839272499084	
66	206.36325597763062	movie	1		165.0	64.0	2.5	/experiments/knapen_aot/videos/S_comp_H012_C009_PS_v01_SDR_PS_20180925_SDR_2K_AVC.mp4	0.0	263.6067078113556	2.508612871170044
66	208.87186884880066	fix_post	2		12.0	64.0	2.5	/experiments/knapen_aot/videos/S_comp_H012_C009_PS_v01_SDR_PS_20180925_SDR_2K_AVC.mp4	0.0	266.11532068252563	0.0996391773223877
67	208.97150802612305	fix_pre	0		56.0	65.0	2.5	/experiments/knapen_aot/videos/S_yt-PRqnM7xDsus_24.mp4	0.0	266.214959859848	0.4666628837585449
67	209.4299349784851	response	0	2		65.0	2.5	/experiments/knapen_aot/videos/S_yt-PRqnM7xDsus_24.mp4	0.0	266.6733868122101	
67	209.4381709098816	movie	1		301.0	65.0	2.5	/experiments/knapen_aot/videos/S_yt-PRqnM7xDsus_24.mp4	0.0	266.68162274360657	2.5083351135253906
67	211.94650602340698	fix_post	2		12.0	65.0	2.5	/experiments/knapen_aot/videos/S_yt-PRqnM7xDsus_24.mp4	0.0	269.18995785713196	0.10001397132873535
68	212.04651999473572	fix_pre	0		62.0	66.0	2.5	/experiments/knapen_aot/videos/R_S_Pexels_Videos_2786546.mp4	0.0	269.2899718284607	0.516603946685791
68	212.55490279197693	response	0	2		66.0	2.5	/experiments/knapen_aot/videos/R_S_Pexels_Videos_2786546.mp4	0.0	269.7983546257019	
68	212.5631239414215	movie	1		169.0	66.0	2.5	/experiments/knapen_aot/videos/R_S_Pexels_Videos_2786546.mp4	0.0	269.8065757751465	2.5108389854431152
68	215.07396292686462	fix_post	2		12.0	66.0	2.5	/experiments/knapen_aot/videos/R_S_Pexels_Videos_2786546.mp4	0.0	272.3174147605896	0.09775590896606445
69	215.1717188358307	fix_pre	0		81.0	67.0	2.5	/experiments/knapen_aot/videos/S_yt-d5jBQ-LOW2I_17.mp4	0.0	272.41517066955566	0.6747870445251465
69	215.83828496932983	response	0	2		67.0	2.5	/experiments/knapen_aot/videos/S_yt-d5jBQ-LOW2I_17.mp4	0.0	273.0817368030548	
69	215.84650588035583	movie	1		301.0	67.0	2.5	/experiments/knapen_aot/videos/S_yt-d5jBQ-LOW2I_17.mp4	0.0	273.0899577140808	2.508336067199707
69	218.35484194755554	fix_post	2		12.0	67.0	2.5	/experiments/knapen_aot/videos/S_yt-d5jBQ-LOW2I_17.mp4	0.0	275.5982937812805	0.10009598731994629
70	218.4549379348755	fix_pre	0		61.0	68.0	2.5	/experiments/knapen_aot/videos/R_S_ILSVRC2015_train_00682009.mp4	0.0	275.69838976860046	0.5081958770751953
70	218.95487594604492	response	0	2		68.0	2.5	/experiments/knapen_aot/videos/R_S_ILSVRC2015_train_00682009.mp4	0.0	276.1983277797699	
70	218.96313381195068	movie	1		301.0	68.0	2.5	/experiments/knapen_aot/videos/R_S_ILSVRC2015_train_00682009.mp4	0.0	276.20658564567566	2.5086700916290283
70	221.4718039035797	fix_post	2		12.0	68.0	2.5	/experiments/knapen_aot/videos/R_S_ILSVRC2015_train_00682009.mp4	0.0	278.7152557373047	0.0997159481048584
71	221.57151985168457	fix_pre	0		51.0	69.0	2.5	blank	1.0	278.81497168540955	0.4249091148376465
71	221.98822283744812	response	0	2		69.0	2.5	blank	1.0	279.2316746711731	
71	221.99642896652222	movie	1		301.0	69.0	2.5	blank	1.0	279.2398808002472	2.5083868503570557
71	224.50481581687927	fix_post	2		12.0	69.0	2.5	blank	1.0	281.74826765060425	0.10020112991333008
72	224.6050169467926	fix_pre	0		66.0	70.0	2.5	/experiments/knapen_aot/videos/R_S_yt-icd9UxxxeW0_255.mp4	0.0	281.8484687805176	0.5497219562530518
72	225.14655995368958	response	0	2		70.0	2.5	/experiments/knapen_aot/videos/R_S_yt-icd9UxxxeW0_255.mp4	0.0	282.39001178741455	
72	225.15473890304565	movie	1		301.0	70.0	2.5	/experiments/knapen_aot/videos/R_S_yt-icd9UxxxeW0_255.mp4	0.0	282.39819073677063	2.508402109146118
72	227.66314101219177	fix_post	2		12.0	70.0	2.5	/experiments/knapen_aot/videos/R_S_yt-icd9UxxxeW0_255.mp4	0.0	284.90659284591675	0.09989285469055176
73	227.76303386688232	fix_pre	0		61.0	71.0	2.5	/experiments/knapen_aot/videos/S_video-10.mp4	0.0	285.0064857006073	0.5083539485931396
73	228.26329588890076	response	0	2		71.0	2.5	/experiments/knapen_aot/videos/S_video-10.mp4	0.0	285.50674772262573	
73	228.27138781547546	movie	1		167.0	71.0	2.5	/experiments/knapen_aot/videos/S_video-10.mp4	0.0	285.51483964920044	2.508439064025879
73	230.77982687950134	fix_post	2		12.0	71.0	2.5	/experiments/knapen_aot/videos/S_video-10.mp4	0.0	288.0232787132263	0.09993696212768555
74	230.87976384162903	fix_pre	0		37.0	72.0	2.5	/experiments/knapen_aot/videos/S_yt-n2PnABmSpxI_115.mp4	0.0	288.123215675354	0.30834102630615234
74	231.1799099445343	response	0	2		72.0	2.5	/experiments/knapen_aot/videos/S_yt-n2PnABmSpxI_115.mp4	0.0	288.4233617782593	
74	231.18810486793518	movie	1		301.0	72.0	2.5	/experiments/knapen_aot/videos/S_yt-n2PnABmSpxI_115.mp4	0.0	288.43155670166016	2.5083930492401123
74	233.6964979171753	fix_post	2		12.0	72.0	2.5	/experiments/knapen_aot/videos/S_yt-n2PnABmSpxI_115.mp4	0.0	290.93994975090027	0.10009908676147461
75	233.79659700393677	fix_pre	0		64.0	73.0	2.5	/experiments/knapen_aot/videos/S_yt-npaE4fe6A6Y_26.mp4	0.0	291.04004883766174	0.5341730117797852
75	234.3214738368988	response	0	2		73.0	2.5	/experiments/knapen_aot/videos/S_yt-npaE4fe6A6Y_26.mp4	0.0	291.5649256706238	
75	234.33077001571655	movie	1		301.0	73.0	2.5	/experiments/knapen_aot/videos/S_yt-npaE4fe6A6Y_26.mp4	0.0	291.5742218494415	2.5072989463806152
75	236.83806896209717	fix_post	2		12.0	73.0	2.5	/experiments/knapen_aot/videos/S_yt-npaE4fe6A6Y_26.mp4	0.0	294.08152079582214	0.09999704360961914
76	236.9380660057068	fix_pre	0		59.0	74.0	2.5	/experiments/knapen_aot/videos/S_yt-hvuC_2YXsTQ_159.mp4	0.0	294.18151783943176	0.49168992042541504
76	237.42149996757507	response	0	2		74.0	2.5	/experiments/knapen_aot/videos/S_yt-hvuC_2YXsTQ_159.mp4	0.0	294.66495180130005	
76	237.4297559261322	movie	1		301.0	74.0	2.5	/experiments/knapen_aot/videos/S_yt-hvuC_2YXsTQ_159.mp4	0.0	294.6732077598572	2.5083749294281006
76	239.9381308555603	fix_post	2		12.0	74.0	2.5	/experiments/knapen_aot/videos/S_yt-hvuC_2YXsTQ_159.mp4	0.0	297.1815826892853	0.09983110427856445
77	240.03796195983887	fix_pre	0		56.0	75.0	2.5	/experiments/knapen_aot/videos/R_S_wc-8bTJmWfuVyJ4_8.mp4	0.0	297.28141379356384	0.46671199798583984
77	240.4964039325714	response	0	2		75.0	2.5	/experiments/knapen_aot/videos/R_S_wc-8bTJmWfuVyJ4_8.mp4	0.0	297.7398557662964	
77	240.5046739578247	movie	1		166.0	75.0	2.5	/experiments/knapen_aot/videos/R_S_wc-8bTJmWfuVyJ4_8.mp4	0.0	297.7481257915497	2.508375883102417
77	243.01304984092712	fix_post	2		12.0	75.0	2.5	/experiments/knapen_aot/videos/R_S_wc-8bTJmWfuVyJ4_8.mp4	0.0	300.2565016746521	0.10002708435058594
78	243.1130769252777	fix_pre	0		48.0	76.0	2.5	blank	1.0	300.3565287590027	0.39995408058166504
78	243.49731302261353	response	0	2		76.0	2.5	blank	1.0	300.7407648563385	
78	243.51303100585938	movie	1		301.0	76.0	2.5	blank	1.0	300.75648283958435	2.508363962173462
78	246.02139496803284	fix_post	2		12.0	76.0	2.5	blank	1.0	303.2648468017578	0.09995603561401367
79	246.12135100364685	fix_pre	0		72.0	77.0	2.5	/experiments/knapen_aot/videos/R_S_yt-kawmL3oVw8c_2.mp4	0.0	303.3648028373718	0.5999798774719238
79	246.7131040096283	response	0	2		77.0	2.5	/experiments/knapen_aot/videos/R_S_yt-kawmL3oVw8c_2.mp4	0.0	303.95655584335327	
79	246.72133088111877	movie	1		301.0	77.0	2.5	/experiments/knapen_aot/videos/R_S_yt-kawmL3oVw8c_2.mp4	0.0	303.96478271484375	2.508341073989868
79	249.22967195510864	fix_post	2		12.0	77.0	2.5	/experiments/knapen_aot/videos/R_S_yt-kawmL3oVw8c_2.mp4	0.0	306.4731237888336	0.1000058650970459
80	249.3296778202057	fix_pre	0		51.0	78.0	2.5	/experiments/knapen_aot/videos/R_S_yt-RO4mhuXBVrY_67.mp4	0.0	306.57312965393066	0.42499399185180664
80	249.7464349269867	response	0	2		78.0	2.5	/experiments/knapen_aot/videos/R_S_yt-RO4mhuXBVrY_67.mp4	0.0	306.98988676071167	
80	249.7546718120575	movie	1		301.0	78.0	2.5	/experiments/knapen_aot/videos/R_S_yt-RO4mhuXBVrY_67.mp4	0.0	306.99812364578247	2.508324146270752
80	252.26299595832825	fix_post	2		12.0	78.0	2.5	/experiments/knapen_aot/videos/R_S_yt-RO4mhuXBVrY_67.mp4	0.0	309.5064477920532	0.10005402565002441
81	252.36304998397827	fix_pre	0		69.0	79.0	2.5	/experiments/knapen_aot/videos/S_ILSVRC2015_train_00042003.mp4	0.0	309.60650181770325	0.574955940246582
81	252.9297490119934	response	0	2		79.0	2.5	/experiments/knapen_aot/videos/S_ILSVRC2015_train_00042003.mp4	0.0	310.1732008457184	
81	252.93800592422485	movie	1		301.0	79.0	2.5	/experiments/knapen_aot/videos/S_ILSVRC2015_train_00042003.mp4	0.0	310.18145775794983	2.5083110332489014
81	255.44631695747375	fix_post	2		12.0	79.0	2.5	/experiments/knapen_aot/videos/S_ILSVRC2015_train_00042003.mp4	0.0	312.68976879119873	0.09999299049377441
82	255.54630994796753	fix_pre	0		65.0	80.0	2.5	/experiments/knapen_aot/videos/S_yt-Y3pi1bgUwIg_78.mp4	0.0	312.7897617816925	0.5416028499603271
82	256.0797200202942	response	0	2		80.0	2.5	/experiments/knapen_aot/videos/S_yt-Y3pi1bgUwIg_78.mp4	0.0	313.32317185401917	
82	256.08791279792786	movie	1		301.0	80.0	2.5	/experiments/knapen_aot/videos/S_yt-Y3pi1bgUwIg_78.mp4	0.0	313.33136463165283	2.508770227432251
82	258.5966830253601	fix_post	2		12.0	80.0	2.5	/experiments/knapen_aot/videos/S_yt-Y3pi1bgUwIg_78.mp4	0.0	315.8401348590851	0.09963798522949219
83	258.6963210105896	fix_pre	0		52.0	81.0	2.5	/experiments/knapen_aot/videos/R_S_yt-xqHrTtvFFIs_3.mp4	0.0	315.9397728443146	0.43320298194885254
83	259.12138986587524	response	0	2		81.0	2.5	/experiments/knapen_aot/videos/R_S_yt-xqHrTtvFFIs_3.mp4	0.0	316.3648416996002	
83	259.12952399253845	movie	1		301.0	81.0	2.5	/experiments/knapen_aot/videos/R_S_yt-xqHrTtvFFIs_3.mp4	0.0	316.3729758262634	2.5085649490356445
83	261.6380889415741	fix_post	2		12.0	81.0	2.5	/experiments/knapen_aot/videos/R_S_yt-xqHrTtvFFIs_3.mp4	0.0	318.8815407752991	0.09989190101623535
84	261.73798084259033	fix_pre	0		47.0	82.0	2.5	/experiments/knapen_aot/videos/S_yt-R9Iabv0XgOQ_80.mp4	0.0	318.9814326763153	0.39162397384643555
84	262.12144684791565	response	0	2		82.0	2.5	/experiments/knapen_aot/videos/S_yt-R9Iabv0XgOQ_80.mp4	0.0	319.3648986816406	
84	262.12960481643677	movie	1		301.0	82.0	2.5	/experiments/knapen_aot/videos/S_yt-R9Iabv0XgOQ_80.mp4	0.0	319.37305665016174	2.5083870887756348
84	264.6379919052124	fix_post	2		12.0	82.0	2.5	/experiments/knapen_aot/videos/S_yt-R9Iabv0XgOQ_80.mp4	0.0	321.8814437389374	0.09987497329711914
85	264.7378668785095	fix_pre	0		50.0	83.0	2.5	blank	1.0	321.9813187122345	0.4166560173034668
85	265.1464259624481	response	0	2		83.0	2.5	blank	1.0	322.3898777961731	
85	265.154522895813	movie	1		301.0	83.0	2.5	blank	1.0	322.39797472953796	2.50839900970459
85	267.6629219055176	fix_post	2		12.0	83.0	2.5	blank	1.0	324.90637373924255	0.09995198249816895
87	267.76287388801575	stim	0		372.0					325.0063257217407	3.1021649837493896
87	270.8586130142212	response	0	space						328.10206484794617	
