trial_nr	onset	event_type	phase	response	nr_frames	movie_index	movie_duration	movie_file	blank	onset_abs	duration
0	0.13328099250793457	stim	0		10.0					189.7561252117157	0.08323884010314941
0	0.20856285095214844	response	0	space						189.8314070701599	
1	0.21651983261108398	stim	0		121.0					189.83936405181885	1.007965087890625
1	1.224484920501709	stim	1		120.0					190.84732913970947	0.9999809265136719
1	1.262293815612793	response	1	4						190.88513803482056	
1	1.2623908519744873	response	1	2						190.88523507118225	
1	1.3080058097839355	response	1	space						190.9308500289917	
1	1.47005295753479	response	1	2						191.09289717674255	
1	1.5831148624420166	response	1	space						191.20595908164978	
1	1.824605941772461	response	1	space						191.44745016098022	
1	1.8496129512786865	response	1	2						191.47245717048645	
1	2.0621299743652344	response	1	space						191.684974193573	
2	2.224465847015381	fix_pre	0		18.0	0.0	2.5	/experiments/knapen_aot/videos/S_video-4.mp4	0.0	191.84731006622314	0.15019011497497559
2	2.366351842880249	response	0	space		0.0	2.5	/experiments/knapen_aot/videos/S_video-4.mp4	0.0	191.989196062088	
2	2.3746559619903564	movie	1		164.0	0.0	2.5	/experiments/knapen_aot/videos/S_video-4.mp4	0.0	191.99750018119812	2.5081470012664795
2	4.882802963256836	fix_post	2		12.0	0.0	2.5	/experiments/knapen_aot/videos/S_video-4.mp4	0.0	194.5056471824646	0.1000528335571289
2	4.928990840911865	response	2	2		0.0	2.5	/experiments/knapen_aot/videos/S_video-4.mp4	0.0	194.55183506011963	
3	4.982855796813965	fix_pre	0		48.0	1.0	2.5	/experiments/knapen_aot/videos/S_yt-ibDaDIEazxg_3.mp4	0.0	194.60570001602173	0.3999810218811035
3	5.374583005905151	response	0	2		1.0	2.5	/experiments/knapen_aot/videos/S_yt-ibDaDIEazxg_3.mp4	0.0	194.99742722511292	
3	5.382836818695068	movie	1		301.0	1.0	2.5	/experiments/knapen_aot/videos/S_yt-ibDaDIEazxg_3.mp4	0.0	195.00568103790283	2.5083391666412354
3	7.891175985336304	fix_post	2		12.0	1.0	2.5	/experiments/knapen_aot/videos/S_yt-ibDaDIEazxg_3.mp4	0.0	197.51402020454407	0.10015082359313965
4	7.991326808929443	fix_pre	0		1.0	2.0	2.5	/experiments/knapen_aot/videos/R_S_comp_GMT329_113NC_396B_1105_CHINA_v04_SDR_FINAL_20180706_F900F2700_SDR_2K_AVC.mp4	0.0	197.6141710281372	0.008809089660644531
4	7.993095874786377	response	0	2		2.0	2.5	/experiments/knapen_aot/videos/R_S_comp_GMT329_113NC_396B_1105_CHINA_v04_SDR_FINAL_20180706_F900F2700_SDR_2K_AVC.mp4	0.0	197.61594009399414	
4	8.000135898590088	movie	1		168.0	2.0	2.5	/experiments/knapen_aot/videos/R_S_comp_GMT329_113NC_396B_1105_CHINA_v04_SDR_FINAL_20180706_F900F2700_SDR_2K_AVC.mp4	0.0	197.62298011779785	2.5077030658721924
4	10.50783896446228	fix_post	2		12.0	2.0	2.5	/experiments/knapen_aot/videos/R_S_comp_GMT329_113NC_396B_1105_CHINA_v04_SDR_FINAL_20180706_F900F2700_SDR_2K_AVC.mp4	0.0	200.13068318367004	0.10008883476257324
4	10.574613809585571	response	2	4		2.0	2.5	/experiments/knapen_aot/videos/R_S_comp_GMT329_113NC_396B_1105_CHINA_v04_SDR_FINAL_20180706_F900F2700_SDR_2K_AVC.mp4	0.0	200.19745802879333	
5	10.607927799224854	fix_pre	0		33.0	3.0	2.5	/experiments/knapen_aot/videos/R_S_yt-PyO8-WsbaLU_43.mp4	0.0	200.23077201843262	0.2748382091522217
5	10.867008924484253	response	0	4		3.0	2.5	/experiments/knapen_aot/videos/R_S_yt-PyO8-WsbaLU_43.mp4	0.0	200.48985314369202	
5	10.882766008377075	movie	1		300.0	3.0	2.5	/experiments/knapen_aot/videos/R_S_yt-PyO8-WsbaLU_43.mp4	0.0	200.50561022758484	2.5084359645843506
5	13.391201972961426	fix_post	2		12.0	3.0	2.5	/experiments/knapen_aot/videos/R_S_yt-PyO8-WsbaLU_43.mp4	0.0	203.0140461921692	0.09998393058776855
6	13.491185903549194	fix_pre	0		1.0	4.0	2.5	/experiments/knapen_aot/videos/R_S_yt-HoRtvVuuvOs_5.mp4	0.0	203.11403012275696	0.00884103775024414
6	13.492818832397461	response	0	4		4.0	2.5	/experiments/knapen_aot/videos/R_S_yt-HoRtvVuuvOs_5.mp4	0.0	203.11566305160522	
6	13.500026941299438	movie	1		301.0	4.0	2.5	/experiments/knapen_aot/videos/R_S_yt-HoRtvVuuvOs_5.mp4	0.0	203.1228711605072	2.5077528953552246
6	15.586151838302612	response	1	4		4.0	2.5	/experiments/knapen_aot/videos/R_S_yt-HoRtvVuuvOs_5.mp4	0.0	205.20899605751038	
6	15.841210842132568	response	1	4		4.0	2.5	/experiments/knapen_aot/videos/R_S_yt-HoRtvVuuvOs_5.mp4	0.0	205.46405506134033	
6	16.007779836654663	fix_post	2		12.0	4.0	2.5	/experiments/knapen_aot/videos/R_S_yt-HoRtvVuuvOs_5.mp4	0.0	205.63062405586243	0.10000801086425781
7	16.10778784751892	fix_pre	0		13.0	5.0	2.5	/experiments/knapen_aot/videos/S_video.mp4	0.0	205.73063206672668	0.1082761287689209
7	16.207815885543823	response	0	4		5.0	2.5	/experiments/knapen_aot/videos/S_video.mp4	0.0	205.8306601047516	
7	16.216063976287842	movie	1		170.0	5.0	2.5	/experiments/knapen_aot/videos/S_video.mp4	0.0	205.8389081954956	2.5086209774017334
7	18.57457685470581	response	1	4		5.0	2.5	/experiments/knapen_aot/videos/S_video.mp4	0.0	208.19742107391357	
7	18.724684953689575	fix_post	2		12.0	5.0	2.5	/experiments/knapen_aot/videos/S_video.mp4	0.0	208.34752917289734	0.09979701042175293
7	18.799474000930786	response	2	4		5.0	2.5	/experiments/knapen_aot/videos/S_video.mp4	0.0	208.42231822013855	
8	18.824481964111328	fix_pre	0		34.0	6.0	2.5	blank	1.0	208.4473261833191	0.2832980155944824
8	19.092031955718994	response	0	4		6.0	2.5	blank	1.0	208.71487617492676	
8	19.10777997970581	movie	1		301.0	6.0	2.5	blank	1.0	208.73062419891357	2.508291006088257
8	21.616070985794067	fix_post	2		12.0	6.0	2.5	blank	1.0	211.23891520500183	0.10016489028930664
8	21.64958381652832	response	2	4		6.0	2.5	blank	1.0	211.27242803573608	
9	21.716235876083374	fix_pre	0		33.0	7.0	2.5	/experiments/knapen_aot/videos/R_S_yt-PP93D7b7Ni4_10.mp4	0.0	211.33908009529114	0.2748548984527588
9	21.982868909835815	response	0	4		7.0	2.5	/experiments/knapen_aot/videos/R_S_yt-PP93D7b7Ni4_10.mp4	0.0	211.60571312904358	
9	21.991090774536133	movie	1		301.0	7.0	2.5	/experiments/knapen_aot/videos/R_S_yt-PP93D7b7Ni4_10.mp4	0.0	211.6139349937439	2.5084261894226074
9	24.326104879379272	response	1	4		7.0	2.5	/experiments/knapen_aot/videos/R_S_yt-PP93D7b7Ni4_10.mp4	0.0	213.94894909858704	
9	24.49951696395874	fix_post	2		12.0	7.0	2.5	/experiments/knapen_aot/videos/R_S_yt-PP93D7b7Ni4_10.mp4	0.0	214.1223611831665	0.09989500045776367
10	24.599411964416504	fix_pre	0		1.0	8.0	2.5	/experiments/knapen_aot/videos/R_S_yt-0xzYSBvVfYM_197.mp4	0.0	214.22225618362427	0.008337974548339844
10	24.592484951019287	response	0	4		8.0	2.5	/experiments/knapen_aot/videos/R_S_yt-0xzYSBvVfYM_197.mp4	0.0	214.21532917022705	
10	24.607749938964844	movie	1		301.0	8.0	2.5	/experiments/knapen_aot/videos/R_S_yt-0xzYSBvVfYM_197.mp4	0.0	214.2305941581726	2.5083818435668945
10	26.774470806121826	response	1	4		8.0	2.5	/experiments/knapen_aot/videos/R_S_yt-0xzYSBvVfYM_197.mp4	0.0	216.3973150253296	
10	27.049431800842285	response	1	4		8.0	2.5	/experiments/knapen_aot/videos/R_S_yt-0xzYSBvVfYM_197.mp4	0.0	216.67227602005005	
10	27.11613178253174	fix_post	2		12.0	8.0	2.5	/experiments/knapen_aot/videos/R_S_yt-0xzYSBvVfYM_197.mp4	0.0	216.7389760017395	0.09993314743041992
11	27.216064929962158	fix_pre	0		16.0	9.0	2.5	/experiments/knapen_aot/videos/S_yt-foGMTdxewBI_43.mp4	0.0	216.83890914916992	0.13336896896362305
11	27.341181993484497	response	0	4		9.0	2.5	/experiments/knapen_aot/videos/S_yt-foGMTdxewBI_43.mp4	0.0	216.96402621269226	
11	27.34943389892578	movie	1		301.0	9.0	2.5	/experiments/knapen_aot/videos/S_yt-foGMTdxewBI_43.mp4	0.0	216.97227811813354	2.508347988128662
11	29.857781887054443	fix_post	2		12.0	9.0	2.5	/experiments/knapen_aot/videos/S_yt-foGMTdxewBI_43.mp4	0.0	219.4806261062622	0.0999600887298584
12	29.9577419757843	fix_pre	0		3.0	10.0	2.5	/experiments/knapen_aot/videos/S_yt-hQ5pge893b4_6.mp4	0.0	219.58058619499207	0.025015830993652344
12	29.967082977294922	response	0	4		10.0	2.5	/experiments/knapen_aot/videos/S_yt-hQ5pge893b4_6.mp4	0.0	219.58992719650269	
12	29.982757806777954	movie	1		301.0	10.0	2.5	/experiments/knapen_aot/videos/S_yt-hQ5pge893b4_6.mp4	0.0	219.60560202598572	2.508427143096924
12	32.49118494987488	fix_post	2		12.0	10.0	2.5	/experiments/knapen_aot/videos/S_yt-hQ5pge893b4_6.mp4	0.0	222.11402916908264	0.09991002082824707
13	32.591094970703125	fix_pre	0		18.0	11.0	2.5	/experiments/knapen_aot/videos/S_yt-3E02UEHdoZ4_752.mp4	0.0	222.2139391899109	0.149871826171875
13	32.732834815979004	response	0	4		11.0	2.5	/experiments/knapen_aot/videos/S_yt-3E02UEHdoZ4_752.mp4	0.0	222.35567903518677	
13	32.740966796875	movie	1		301.0	11.0	2.5	/experiments/knapen_aot/videos/S_yt-3E02UEHdoZ4_752.mp4	0.0	222.36381101608276	2.5084421634674072
13	35.24940896034241	fix_post	2		12.0	11.0	2.5	/experiments/knapen_aot/videos/S_yt-3E02UEHdoZ4_752.mp4	0.0	224.87225317955017	0.0999758243560791
14	35.349384784698486	fix_pre	0		16.0	12.0	2.5	/experiments/knapen_aot/videos/S_8J_zE6r82MY_71.mp4	0.0	224.97222900390625	0.13334918022155762
14	35.474427938461304	response	0	4		12.0	2.5	/experiments/knapen_aot/videos/S_8J_zE6r82MY_71.mp4	0.0	225.09727215766907	
14	35.482733964920044	movie	1		301.0	12.0	2.5	/experiments/knapen_aot/videos/S_8J_zE6r82MY_71.mp4	0.0	225.1055781841278	2.508335828781128
14	37.99106979370117	fix_post	2		12.0	12.0	2.5	/experiments/knapen_aot/videos/S_8J_zE6r82MY_71.mp4	0.0	227.61391401290894	0.09996819496154785
15	38.09103798866272	fix_pre	0		12.0	13.0	2.5	/experiments/knapen_aot/videos/S_BO_A014_C008_SDR_20190719_SDR_2K_AVC.mp4	0.0	227.71388220787048	0.09995293617248535
15	38.18282079696655	response	0	4		13.0	2.5	/experiments/knapen_aot/videos/S_BO_A014_C008_SDR_20190719_SDR_2K_AVC.mp4	0.0	227.80566501617432	
15	38.190990924835205	movie	1		167.0	13.0	2.5	/experiments/knapen_aot/videos/S_BO_A014_C008_SDR_20190719_SDR_2K_AVC.mp4	0.0	227.81383514404297	2.5083489418029785
15	40.699339866638184	fix_post	2		12.0	13.0	2.5	/experiments/knapen_aot/videos/S_BO_A014_C008_SDR_20190719_SDR_2K_AVC.mp4	0.0	230.32218408584595	0.10001111030578613
16	40.79935097694397	fix_pre	0		4.0	14.0	2.5	blank	1.0	230.42219519615173	0.03333687782287598
16	40.824490785598755	response	0	4		14.0	2.5	blank	1.0	230.44733500480652	
16	40.832687854766846	movie	1		301.0	14.0	2.5	blank	1.0	230.4555320739746	2.5082669258117676
16	43.182758808135986	response	1	4		14.0	2.5	blank	1.0	232.80560302734375	
16	43.34095478057861	fix_post	2		12.0	14.0	2.5	blank	1.0	232.96379899978638	0.10005307197570801
17	43.44100785255432	fix_pre	0		11.0	15.0	2.5	/experiments/knapen_aot/videos/R_S_yt-VfASxEzDrvc_145.mp4	0.0	233.06385207176208	0.09165000915527344
17	43.52439785003662	response	0	4		15.0	2.5	/experiments/knapen_aot/videos/R_S_yt-VfASxEzDrvc_145.mp4	0.0	233.14724206924438	
17	43.532657861709595	movie	1		301.0	15.0	2.5	/experiments/knapen_aot/videos/R_S_yt-VfASxEzDrvc_145.mp4	0.0	233.15550208091736	2.5083401203155518
17	46.04099798202515	fix_post	2		12.0	15.0	2.5	/experiments/knapen_aot/videos/R_S_yt-VfASxEzDrvc_145.mp4	0.0	235.6638422012329	0.10002589225769043
18	46.14102387428284	fix_pre	0		9.0	16.0	2.5	/experiments/knapen_aot/videos/S_yt-ycQy_fHCK-U_8.mp4	0.0	235.7638680934906	0.07486796379089355
18	46.20013689994812	response	0	4		16.0	2.5	/experiments/knapen_aot/videos/S_yt-ycQy_fHCK-U_8.mp4	0.0	235.82298111915588	
18	46.21589183807373	movie	1		301.0	16.0	2.5	/experiments/knapen_aot/videos/S_yt-ycQy_fHCK-U_8.mp4	0.0	235.8387360572815	2.5083680152893066
18	48.72425985336304	fix_post	2		12.0	16.0	2.5	/experiments/knapen_aot/videos/S_yt-ycQy_fHCK-U_8.mp4	0.0	238.3471040725708	0.1000819206237793
19	48.824341773986816	fix_pre	0		5.0	17.0	2.5	/experiments/knapen_aot/videos/R_S_yt-2lnxIdOTxog_157.mp4	0.0	238.44718599319458	0.041631221771240234
19	48.857745885849	response	0	4		17.0	2.5	/experiments/knapen_aot/videos/R_S_yt-2lnxIdOTxog_157.mp4	0.0	238.48059010505676	
19	48.86597299575806	movie	1		301.0	17.0	2.5	/experiments/knapen_aot/videos/R_S_yt-2lnxIdOTxog_157.mp4	0.0	238.48881721496582	2.508462905883789
19	51.374435901641846	fix_post	2		12.0	17.0	2.5	/experiments/knapen_aot/videos/R_S_yt-2lnxIdOTxog_157.mp4	0.0	240.9972801208496	0.09979605674743652
19	51.44940686225891	response	2	2		17.0	2.5	/experiments/knapen_aot/videos/R_S_yt-2lnxIdOTxog_157.mp4	0.0	241.07225108146667	
20	51.47423195838928	fix_pre	0		60.0	18.0	2.5	/experiments/knapen_aot/videos/R_S_yt-HoRtvVuuvOs_5.mp4	0.0	241.09707617759705	0.5000410079956055
20	51.96606779098511	response	0	2		18.0	2.5	/experiments/knapen_aot/videos/R_S_yt-HoRtvVuuvOs_5.mp4	0.0	241.58891201019287	
20	51.97427296638489	movie	1		301.0	18.0	2.5	/experiments/knapen_aot/videos/R_S_yt-HoRtvVuuvOs_5.mp4	0.0	241.59711718559265	2.5083940029144287
20	54.482666969299316	fix_post	2		12.0	18.0	2.5	/experiments/knapen_aot/videos/R_S_yt-HoRtvVuuvOs_5.mp4	0.0	244.10551118850708	0.09996581077575684
21	54.58263278007507	fix_pre	0		6.0	19.0	2.5	/experiments/knapen_aot/videos/S_wc-16LozRfhUGea_49.mp4	0.0	244.20547699928284	0.04995322227478027
21	54.62442493438721	response	0	4		19.0	2.5	/experiments/knapen_aot/videos/S_wc-16LozRfhUGea_49.mp4	0.0	244.24726915359497	
21	54.63258600234985	movie	1		301.0	19.0	2.5	/experiments/knapen_aot/videos/S_wc-16LozRfhUGea_49.mp4	0.0	244.25543022155762	2.5083529949188232
21	57.14093899726868	fix_post	2		12.0	19.0	2.5	/experiments/knapen_aot/videos/S_wc-16LozRfhUGea_49.mp4	0.0	246.76378321647644	0.10012698173522949
22	57.241065979003906	fix_pre	0		6.0	20.0	2.5	/experiments/knapen_aot/videos/S_video-4.mp4	0.0	246.86391019821167	0.0498349666595459
22	57.28275489807129	response	0	4		20.0	2.5	/experiments/knapen_aot/videos/S_video-4.mp4	0.0	246.90559911727905	
22	57.29090094566345	movie	1		165.0	20.0	2.5	/experiments/knapen_aot/videos/S_video-4.mp4	0.0	246.91374516487122	2.5084309577941895
22	59.79933190345764	fix_post	2		12.0	20.0	2.5	/experiments/knapen_aot/videos/S_video-4.mp4	0.0	249.4221761226654	0.09993290901184082
22	59.88268184661865	response	2	2		20.0	2.5	/experiments/knapen_aot/videos/S_video-4.mp4	0.0	249.50552606582642	
23	59.89926481246948	fix_pre	0		61.0	21.0	2.5	blank	1.0	249.52210903167725	0.5083081722259521
23	60.399420976638794	response	0	2		21.0	2.5	blank	1.0	250.02226519584656	
23	60.407572984695435	movie	1		301.0	21.0	2.5	blank	1.0	250.0304172039032	2.5087900161743164
23	62.91636300086975	fix_post	2		12.0	21.0	2.5	blank	1.0	252.53920722007751	0.09954595565795898
24	63.01590895652771	fix_pre	0		13.0	22.0	2.5	/experiments/knapen_aot/videos/R_S_yt-wjBwgccZM5k_150.mp4	0.0	252.63875317573547	0.10828995704650879
24	63.11602187156677	response	0	4		22.0	2.5	/experiments/knapen_aot/videos/R_S_yt-wjBwgccZM5k_150.mp4	0.0	252.73886609077454	
24	63.12419891357422	movie	1		301.0	22.0	2.5	/experiments/knapen_aot/videos/R_S_yt-wjBwgccZM5k_150.mp4	0.0	252.74704313278198	2.5084869861602783
24	65.6326858997345	fix_post	2		12.0	22.0	2.5	/experiments/knapen_aot/videos/R_S_yt-wjBwgccZM5k_150.mp4	0.0	255.25553011894226	0.09982705116271973
25	65.73251295089722	fix_pre	0		10.0	23.0	2.5	/experiments/knapen_aot/videos/R_S_yt-ujTY1igjc3E_2.mp4	0.0	255.35535717010498	0.08340692520141602
25	65.80762481689453	response	0	2		23.0	2.5	/experiments/knapen_aot/videos/R_S_yt-ujTY1igjc3E_2.mp4	0.0	255.4304690361023	
25	65.81591987609863	movie	1		301.0	23.0	2.5	/experiments/knapen_aot/videos/R_S_yt-ujTY1igjc3E_2.mp4	0.0	255.4387640953064	2.5083420276641846
25	68.32426190376282	fix_post	2		12.0	23.0	2.5	/experiments/knapen_aot/videos/R_S_yt-ujTY1igjc3E_2.mp4	0.0	257.9471061229706	0.09996795654296875
26	68.42422986030579	fix_pre	0		30.0	24.0	2.5	/experiments/knapen_aot/videos/S_yt-Rybd-sKJFz0_78.mp4	0.0	258.04707407951355	0.24997496604919434
26	68.66600394248962	response	0	2		24.0	2.5	/experiments/knapen_aot/videos/S_yt-Rybd-sKJFz0_78.mp4	0.0	258.2888481616974	
26	68.67420482635498	movie	1		301.0	24.0	2.5	/experiments/knapen_aot/videos/S_yt-Rybd-sKJFz0_78.mp4	0.0	258.29704904556274	2.508363962173462
26	71.18256878852844	fix_post	2		12.0	24.0	2.5	/experiments/knapen_aot/videos/S_yt-Rybd-sKJFz0_78.mp4	0.0	260.8054130077362	0.10000300407409668
27	71.28257179260254	fix_pre	0		29.0	25.0	2.5	/experiments/knapen_aot/videos/R_S_yt-GaJaxp546lc_22.mp4	0.0	260.9054160118103	0.24157118797302246
27	71.51595377922058	response	0	2		25.0	2.5	/experiments/knapen_aot/videos/R_S_yt-GaJaxp546lc_22.mp4	0.0	261.13879799842834	
27	71.52414298057556	movie	1		301.0	25.0	2.5	/experiments/knapen_aot/videos/R_S_yt-GaJaxp546lc_22.mp4	0.0	261.1469871997833	2.5084378719329834
27	74.03258085250854	fix_post	2		12.0	25.0	2.5	/experiments/knapen_aot/videos/R_S_yt-GaJaxp546lc_22.mp4	0.0	263.6554250717163	0.10004901885986328
28	74.13262987136841	fix_pre	0		26.0	26.0	2.5	/experiments/knapen_aot/videos/S_video_inspire_texas_austin_oct2019_evening_00085.1080-h264.mp4	0.0	263.7554740905762	0.21649813652038574
28	74.34098982810974	response	0	2		26.0	2.5	/experiments/knapen_aot/videos/S_video_inspire_texas_austin_oct2019_evening_00085.1080-h264.mp4	0.0	263.9638340473175	
28	74.3491280078888	movie	1		166.0	26.0	2.5	/experiments/knapen_aot/videos/S_video_inspire_texas_austin_oct2019_evening_00085.1080-h264.mp4	0.0	263.97197222709656	2.5084118843078613
28	76.85753989219666	fix_post	2		12.0	26.0	2.5	/experiments/knapen_aot/videos/S_video_inspire_texas_austin_oct2019_evening_00085.1080-h264.mp4	0.0	266.4803841114044	0.10026788711547852
29	76.95780777931213	fix_pre	0		22.0	27.0	2.5	/experiments/knapen_aot/videos/S_yt-2jVJb1PR2XA_16.mp4	0.0	266.5806519985199	0.18303203582763672
29	77.13261795043945	response	0	2		27.0	2.5	/experiments/knapen_aot/videos/S_yt-2jVJb1PR2XA_16.mp4	0.0	266.7554621696472	
29	77.14083981513977	movie	1		301.0	27.0	2.5	/experiments/knapen_aot/videos/S_yt-2jVJb1PR2XA_16.mp4	0.0	266.76368403434753	2.508358955383301
29	79.64919877052307	fix_post	2		12.0	27.0	2.5	/experiments/knapen_aot/videos/S_yt-2jVJb1PR2XA_16.mp4	0.0	269.27204298973083	0.09997820854187012
30	79.74917697906494	fix_pre	0		29.0	28.0	2.5	blank	1.0	269.3720211982727	0.24164199829101562
30	79.98265099525452	response	0	2		28.0	2.5	blank	1.0	269.6054952144623	
30	79.99081897735596	movie	1		301.0	28.0	2.5	blank	1.0	269.6136631965637	2.508316993713379
30	82.49913597106934	fix_post	2		12.0	28.0	2.5	blank	1.0	272.1219801902771	0.10002589225769043
31	82.59916186332703	fix_pre	0		23.0	29.0	2.5	/experiments/knapen_aot/videos/S_yt-Rqwi-Fk9IJQ_114.mp4	0.0	272.2220060825348	0.19164609909057617
31	82.78257298469543	response	0	2		29.0	2.5	/experiments/knapen_aot/videos/S_yt-Rqwi-Fk9IJQ_114.mp4	0.0	272.4054172039032	
31	82.7908079624176	movie	1		301.0	29.0	2.5	/experiments/knapen_aot/videos/S_yt-Rqwi-Fk9IJQ_114.mp4	0.0	272.41365218162537	2.508333921432495
31	85.2991418838501	fix_post	2		12.0	29.0	2.5	/experiments/knapen_aot/videos/S_yt-Rqwi-Fk9IJQ_114.mp4	0.0	274.92198610305786	0.09995007514953613
32	85.39909195899963	fix_pre	0		30.0	30.0	2.5	/experiments/knapen_aot/videos/S_production_ID_4101244.mp4	0.0	275.0219361782074	0.2501699924468994
32	85.6409478187561	response	0	2		30.0	2.5	/experiments/knapen_aot/videos/S_production_ID_4101244.mp4	0.0	275.26379203796387	
32	85.64926195144653	movie	1		191.0	30.0	2.5	/experiments/knapen_aot/videos/S_production_ID_4101244.mp4	0.0	275.2721061706543	2.5082149505615234
32	88.15747690200806	fix_post	2		12.0	30.0	2.5	/experiments/knapen_aot/videos/S_production_ID_4101244.mp4	0.0	277.7803211212158	0.09997105598449707
33	88.25744795799255	fix_pre	0		23.0	31.0	2.5	/experiments/knapen_aot/videos/R_S_pexels-mikhail-nilov-8410084.mp4	0.0	277.8802921772003	0.19283199310302734
33	88.44098281860352	response	0	2		31.0	2.5	/experiments/knapen_aot/videos/R_S_pexels-mikhail-nilov-8410084.mp4	0.0	278.0638270378113	
33	88.45027995109558	movie	1		165.0	31.0	2.5	/experiments/knapen_aot/videos/R_S_pexels-mikhail-nilov-8410084.mp4	0.0	278.07312417030334	2.5073368549346924
33	90.95761680603027	fix_post	2		12.0	31.0	2.5	/experiments/knapen_aot/videos/R_S_pexels-mikhail-nilov-8410084.mp4	0.0	280.58046102523804	0.09984517097473145
34	91.057461977005	fix_pre	0		3.0	32.0	2.5	/experiments/knapen_aot/videos/R_S_video.mp4	0.0	280.68030619621277	0.025007963180541992
34	91.07415795326233	response	0	2		32.0	2.5	/experiments/knapen_aot/videos/R_S_video.mp4	0.0	280.6970021724701	
34	91.08246994018555	movie	1		165.0	32.0	2.5	/experiments/knapen_aot/videos/R_S_video.mp4	0.0	280.7053141593933	2.508388042449951
34	93.5908579826355	fix_post	2		12.0	32.0	2.5	/experiments/knapen_aot/videos/R_S_video.mp4	0.0	283.21370220184326	0.09986400604248047
35	93.69072198867798	fix_pre	0		15.0	33.0	2.5	blank	1.0	283.31356620788574	0.1250598430633545
35	93.80757093429565	response	0	2		33.0	2.5	blank	1.0	283.4304151535034	
35	93.81578183174133	movie	1		301.0	33.0	2.5	blank	1.0	283.4386260509491	2.5084030628204346
35	96.32418489456177	fix_post	2		12.0	33.0	2.5	blank	1.0	285.94702911376953	0.09995388984680176
36	96.42413878440857	fix_pre	0		24.0	34.0	2.5	/experiments/knapen_aot/videos/R_S_pexels-mart-production-7698911.mp4	0.0	286.04698300361633	0.1999220848083496
36	96.6158378124237	response	0	2		34.0	2.5	/experiments/knapen_aot/videos/R_S_pexels-mart-production-7698911.mp4	0.0	286.23868203163147	
36	96.62406086921692	movie	1		188.0	34.0	2.5	/experiments/knapen_aot/videos/R_S_pexels-mart-production-7698911.mp4	0.0	286.2469050884247	2.5083959102630615
36	99.13245677947998	fix_post	2		12.0	34.0	2.5	/experiments/knapen_aot/videos/R_S_pexels-mart-production-7698911.mp4	0.0	288.75530099868774	0.0999910831451416
37	99.23244786262512	fix_pre	0		5.0	35.0	2.5	/experiments/knapen_aot/videos/S_yt-wUqpCtBOFBA_89.mp4	0.0	288.8552920818329	0.04163408279418945
37	99.26585984230042	response	0	2		35.0	2.5	/experiments/knapen_aot/videos/S_yt-wUqpCtBOFBA_89.mp4	0.0	288.8887040615082	
37	99.27408194541931	movie	1		301.0	35.0	2.5	/experiments/knapen_aot/videos/S_yt-wUqpCtBOFBA_89.mp4	0.0	288.8969261646271	2.508430004119873
37	101.78251194953918	fix_post	2		12.0	35.0	2.5	/experiments/knapen_aot/videos/S_yt-wUqpCtBOFBA_89.mp4	0.0	291.40535616874695	0.0998680591583252
38	101.88238000869751	fix_pre	0		17.0	36.0	2.5	/experiments/knapen_aot/videos/R_S_Pexels_Videos_2795171.mp4	0.0	291.5052242279053	0.14170098304748535
38	102.01580882072449	response	0	2		36.0	2.5	/experiments/knapen_aot/videos/R_S_Pexels_Videos_2795171.mp4	0.0	291.63865303993225	
38	102.024080991745	movie	1		163.0	36.0	2.5	/experiments/knapen_aot/videos/R_S_Pexels_Videos_2795171.mp4	0.0	291.64692521095276	2.50834584236145
38	104.53242683410645	fix_post	2		12.0	36.0	2.5	/experiments/knapen_aot/videos/R_S_Pexels_Videos_2795171.mp4	0.0	294.1552710533142	0.09998416900634766
39	104.6324110031128	fix_pre	0		17.0	37.0	2.5	/experiments/knapen_aot/videos/R_S_yt-2dRSJcaJIXw_32.mp4	0.0	294.25525522232056	0.14163589477539062
39	104.76579284667969	response	0	2		37.0	2.5	/experiments/knapen_aot/videos/R_S_yt-2dRSJcaJIXw_32.mp4	0.0	294.38863706588745	
39	104.77404689788818	movie	1		301.0	37.0	2.5	/experiments/knapen_aot/videos/R_S_yt-2dRSJcaJIXw_32.mp4	0.0	294.39689111709595	2.5082850456237793
39	107.28233194351196	fix_post	2		12.0	37.0	2.5	/experiments/knapen_aot/videos/R_S_yt-2dRSJcaJIXw_32.mp4	0.0	296.9051761627197	0.10012197494506836
40	107.38245391845703	fix_pre	0		26.0	38.0	2.5	/experiments/knapen_aot/videos/S_yt-9CUR6mjzaiY_85.mp4	0.0	297.0052981376648	0.21658587455749512
40	107.59087991714478	response	0	2		38.0	2.5	/experiments/knapen_aot/videos/S_yt-9CUR6mjzaiY_85.mp4	0.0	297.21372413635254	
40	107.59903979301453	movie	1		301.0	38.0	2.5	/experiments/knapen_aot/videos/S_yt-9CUR6mjzaiY_85.mp4	0.0	297.2218840122223	2.5087380409240723
40	110.1077778339386	fix_post	2		12.0	38.0	2.5	/experiments/knapen_aot/videos/S_yt-9CUR6mjzaiY_85.mp4	0.0	299.73062205314636	0.09953904151916504
41	110.20731687545776	fix_pre	0		9.0	39.0	2.5	/experiments/knapen_aot/videos/R_S_I005_C008_CROP_SDR_2K_AVC.mp4	0.0	299.8301610946655	0.07606792449951172
41	110.27414584159851	response	0	2		39.0	2.5	/experiments/knapen_aot/videos/R_S_I005_C008_CROP_SDR_2K_AVC.mp4	0.0	299.8969900608063	
41	110.28338479995728	movie	1		178.0	39.0	2.5	/experiments/knapen_aot/videos/R_S_I005_C008_CROP_SDR_2K_AVC.mp4	0.0	299.90622901916504	2.507326126098633
41	112.79071092605591	fix_post	2		12.0	39.0	2.5	/experiments/knapen_aot/videos/R_S_I005_C008_CROP_SDR_2K_AVC.mp4	0.0	302.4135551452637	0.09999895095825195
41	112.85751795768738	response	2	2		39.0	2.5	/experiments/knapen_aot/videos/R_S_I005_C008_CROP_SDR_2K_AVC.mp4	0.0	302.48036217689514	
42	112.89070987701416	fix_pre	0		40.0	40.0	2.5	/experiments/knapen_aot/videos/S_yt-ja8Pmpik_ao_112.mp4	0.0	302.5135540962219	0.33329010009765625
42	113.21571493148804	response	0	2		40.0	2.5	/experiments/knapen_aot/videos/S_yt-ja8Pmpik_ao_112.mp4	0.0	302.8385591506958	
42	113.22399997711182	movie	1		301.0	40.0	2.5	/experiments/knapen_aot/videos/S_yt-ja8Pmpik_ao_112.mp4	0.0	302.8468441963196	2.508359909057617
42	115.73235988616943	fix_post	2		12.0	40.0	2.5	/experiments/knapen_aot/videos/S_yt-ja8Pmpik_ao_112.mp4	0.0	305.3552041053772	0.10001707077026367
43	115.8323769569397	fix_pre	0		10.0	41.0	2.5	blank	1.0	305.45522117614746	0.08333301544189453
43	115.90743780136108	response	0	2		41.0	2.5	blank	1.0	305.53028202056885	
43	115.91570997238159	movie	1		301.0	41.0	2.5	blank	1.0	305.53855419158936	2.5082998275756836
43	118.42400979995728	fix_post	2		12.0	41.0	2.5	blank	1.0	308.04685401916504	0.10007500648498535
44	118.52408480644226	fix_pre	0		20.0	42.0	2.5	/experiments/knapen_aot/videos/R_S_pexels-mikhail-nilov-8410084.mp4	0.0	308.14692902565	0.1664750576019287
44	118.68242192268372	response	0	2		42.0	2.5	/experiments/knapen_aot/videos/R_S_pexels-mikhail-nilov-8410084.mp4	0.0	308.3052661418915	
44	118.69055986404419	movie	1		171.0	42.0	2.5	/experiments/knapen_aot/videos/R_S_pexels-mikhail-nilov-8410084.mp4	0.0	308.31340408325195	2.50846004486084
44	121.19901990890503	fix_post	2		12.0	42.0	2.5	/experiments/knapen_aot/videos/R_S_pexels-mikhail-nilov-8410084.mp4	0.0	310.8218641281128	0.09990692138671875
45	121.29892683029175	fix_pre	0		1.0	43.0	2.5	/experiments/knapen_aot/videos/S_yt-XbigWWtnGL4_75.mp4	0.0	310.9217710494995	0.008373022079467773
45	121.30075597763062	response	0	2		43.0	2.5	/experiments/knapen_aot/videos/S_yt-XbigWWtnGL4_75.mp4	0.0	310.9236001968384	
45	121.30729985237122	movie	1		301.0	43.0	2.5	/experiments/knapen_aot/videos/S_yt-XbigWWtnGL4_75.mp4	0.0	310.930144071579	2.508347988128662
45	123.81564784049988	fix_post	2		12.0	43.0	2.5	/experiments/knapen_aot/videos/S_yt-XbigWWtnGL4_75.mp4	0.0	313.43849205970764	0.10001111030578613
46	123.91565895080566	fix_pre	0		9.0	44.0	2.5	/experiments/knapen_aot/videos/R_S_yt-w_e3sxIzepA_115.mp4	0.0	313.5385031700134	0.0758819580078125
46	123.98243689537048	response	0	2		44.0	2.5	/experiments/knapen_aot/videos/R_S_yt-w_e3sxIzepA_115.mp4	0.0	313.60528111457825	
46	123.99154090881348	movie	1		301.0	44.0	2.5	/experiments/knapen_aot/videos/R_S_yt-w_e3sxIzepA_115.mp4	0.0	313.61438512802124	2.507519006729126
46	126.31803679466248	response	1	2		44.0	2.5	/experiments/knapen_aot/videos/R_S_yt-w_e3sxIzepA_115.mp4	0.0	315.94088101387024	
46	126.4990599155426	fix_post	2		12.0	44.0	2.5	/experiments/knapen_aot/videos/R_S_yt-w_e3sxIzepA_115.mp4	0.0	316.12190413475037	0.09990501403808594
47	126.59896492958069	fix_pre	0		5.0	45.0	2.5	/experiments/knapen_aot/videos/R_S_yt-IT741UWKVzg_34.mp4	0.0	316.22180914878845	0.04167890548706055
47	126.6323778629303	response	0	2		45.0	2.5	/experiments/knapen_aot/videos/R_S_yt-IT741UWKVzg_34.mp4	0.0	316.25522208213806	
47	126.64064383506775	movie	1		301.0	45.0	2.5	/experiments/knapen_aot/videos/R_S_yt-IT741UWKVzg_34.mp4	0.0	316.2634880542755	2.508327007293701
47	129.14897084236145	fix_post	2		12.0	45.0	2.5	/experiments/knapen_aot/videos/R_S_yt-IT741UWKVzg_34.mp4	0.0	318.7718150615692	0.09991812705993652
48	129.2488889694214	fix_pre	0		12.0	46.0	2.5	/experiments/knapen_aot/videos/R_S_ILSVRC2015_train_00423000.mp4	0.0	318.87173318862915	0.10015201568603516
48	129.34075498580933	response	0	2		46.0	2.5	/experiments/knapen_aot/videos/R_S_ILSVRC2015_train_00423000.mp4	0.0	318.9635992050171	
48	129.34904098510742	movie	1		301.0	46.0	2.5	/experiments/knapen_aot/videos/R_S_ILSVRC2015_train_00423000.mp4	0.0	318.9718852043152	2.5083749294281006
48	131.85741591453552	fix_post	2		12.0	46.0	2.5	/experiments/knapen_aot/videos/R_S_ILSVRC2015_train_00423000.mp4	0.0	321.4802601337433	0.09985208511352539
48	131.94903898239136	response	2	2		46.0	2.5	/experiments/knapen_aot/videos/R_S_ILSVRC2015_train_00423000.mp4	0.0	321.5718832015991	
49	131.95726799964905	fix_pre	0		55.0	47.0	2.5	/experiments/knapen_aot/videos/S_yt-H45g6700wbc_159.mp4	0.0	321.5801122188568	0.45827198028564453
49	132.39989399909973	response	0	2		47.0	2.5	/experiments/knapen_aot/videos/S_yt-H45g6700wbc_159.mp4	0.0	322.0227382183075	
49	132.4155399799347	movie	1		301.0	47.0	2.5	/experiments/knapen_aot/videos/S_yt-H45g6700wbc_159.mp4	0.0	322.03838419914246	2.5083999633789062
49	134.59902691841125	response	1	2		47.0	2.5	/experiments/knapen_aot/videos/S_yt-H45g6700wbc_159.mp4	0.0	324.221871137619	
49	134.8907299041748	response	1	2		47.0	2.5	/experiments/knapen_aot/videos/S_yt-H45g6700wbc_159.mp4	0.0	324.51357412338257	
49	134.9239399433136	fix_post	2		12.0	47.0	2.5	/experiments/knapen_aot/videos/S_yt-H45g6700wbc_159.mp4	0.0	324.54678416252136	0.09998488426208496
50	135.02392482757568	fix_pre	0		9.0	48.0	2.5	blank	1.0	324.64676904678345	0.07510209083557129
50	135.09058284759521	response	0	2		48.0	2.5	blank	1.0	324.713427066803	
50	135.09902691841125	movie	1		301.0	48.0	2.5	blank	1.0	324.721871137619	2.508373975753784
50	137.60740089416504	fix_post	2		12.0	48.0	2.5	blank	1.0	327.2302451133728	0.09986495971679688
51	137.70726585388184	fix_pre	0		20.0	49.0	2.5	/experiments/knapen_aot/videos/S_ILSVRC2015_train_00601000.mp4	0.0	327.3301100730896	0.16656804084777832
51	137.8657078742981	response	0	2		49.0	2.5	/experiments/knapen_aot/videos/S_ILSVRC2015_train_00601000.mp4	0.0	327.48855209350586	
51	137.87383389472961	movie	1		301.0	49.0	2.5	/experiments/knapen_aot/videos/S_ILSVRC2015_train_00601000.mp4	0.0	327.4966781139374	2.50839900970459
51	140.3822329044342	fix_post	2		12.0	49.0	2.5	/experiments/knapen_aot/videos/S_ILSVRC2015_train_00601000.mp4	0.0	330.00507712364197	0.10003089904785156
52	140.48226380348206	fix_pre	0		1.0	50.0	2.5	/experiments/knapen_aot/videos/S_flickr-evananderica-2662125519_8.mp4	0.0	330.1051080226898	0.009195089340209961
52	140.47531294822693	response	0	2		50.0	2.5	/experiments/knapen_aot/videos/S_flickr-evananderica-2662125519_8.mp4	0.0	330.0981571674347	
52	140.49145889282227	movie	1		301.0	50.0	2.5	/experiments/knapen_aot/videos/S_flickr-evananderica-2662125519_8.mp4	0.0	330.11430311203003	2.507612943649292
52	142.99907183647156	fix_post	2		12.0	50.0	2.5	/experiments/knapen_aot/videos/S_flickr-evananderica-2662125519_8.mp4	0.0	332.6219160556793	0.09978699684143066
53	143.098858833313	fix_pre	0		1.0	51.0	2.5	/experiments/knapen_aot/videos/R_S_yt-y3tyx6cZjmA_412.mp4	0.0	332.72170305252075	0.010576963424682617
53	143.1006088256836	response	0	2		51.0	2.5	/experiments/knapen_aot/videos/R_S_yt-y3tyx6cZjmA_412.mp4	0.0	332.72345304489136	
53	143.10943579673767	movie	1		301.0	51.0	2.5	/experiments/knapen_aot/videos/R_S_yt-y3tyx6cZjmA_412.mp4	0.0	332.73228001594543	2.5062310695648193
53	145.6156668663025	fix_post	2		12.0	51.0	2.5	/experiments/knapen_aot/videos/R_S_yt-y3tyx6cZjmA_412.mp4	0.0	335.23851108551025	0.09989404678344727
54	145.71556091308594	fix_pre	0		9.0	52.0	2.5	/experiments/knapen_aot/videos/R_S_yt-WRBmpC-RxIc_678.mp4	0.0	335.3384051322937	0.07490086555480957
54	145.78233981132507	response	0	2		52.0	2.5	/experiments/knapen_aot/videos/R_S_yt-WRBmpC-RxIc_678.mp4	0.0	335.40518403053284	
54	145.79046177864075	movie	1		301.0	52.0	2.5	/experiments/knapen_aot/videos/R_S_yt-WRBmpC-RxIc_678.mp4	0.0	335.4133059978485	2.5084221363067627
54	148.2988839149475	fix_post	2		12.0	52.0	2.5	/experiments/knapen_aot/videos/R_S_yt-WRBmpC-RxIc_678.mp4	0.0	337.9217281341553	0.10000491142272949
55	148.39888882637024	fix_pre	0		3.0	53.0	2.5	/experiments/knapen_aot/videos/S_pexels-rodnae-productions-7467585.mp4	0.0	338.021733045578	0.024986982345581055
55	148.4157087802887	response	0	2		53.0	2.5	/experiments/knapen_aot/videos/S_pexels-rodnae-productions-7467585.mp4	0.0	338.03855299949646	
55	148.42387580871582	movie	1		164.0	53.0	2.5	/experiments/knapen_aot/videos/S_pexels-rodnae-productions-7467585.mp4	0.0	338.0467200279236	2.5086770057678223
55	150.93255281448364	fix_post	2		12.0	53.0	2.5	/experiments/knapen_aot/videos/S_pexels-rodnae-productions-7467585.mp4	0.0	340.5553970336914	0.09962701797485352
56	151.0321798324585	fix_pre	0		15.0	54.0	2.5	/experiments/knapen_aot/videos/R_S_yt-ObT9gF8E_tU_250.mp4	0.0	340.65502405166626	0.12585997581481934
56	151.14894700050354	response	0	4		54.0	2.5	/experiments/knapen_aot/videos/R_S_yt-ObT9gF8E_tU_250.mp4	0.0	340.7717912197113	
56	151.15803980827332	movie	1		301.0	54.0	2.5	/experiments/knapen_aot/videos/R_S_yt-ObT9gF8E_tU_250.mp4	0.0	340.7808840274811	2.5074760913848877
56	153.6655158996582	fix_post	2		12.0	54.0	2.5	/experiments/knapen_aot/videos/R_S_yt-ObT9gF8E_tU_250.mp4	0.0	343.28836011886597	0.09994792938232422
57	153.76546382904053	fix_pre	0		2.0	55.0	2.5	blank	1.0	343.3883080482483	0.01771402359008789
57	153.77406692504883	response	0	4		55.0	2.5	blank	1.0	343.3969111442566	
57	153.78317785263062	movie	1		301.0	55.0	2.5	blank	1.0	343.4060220718384	2.5072569847106934
57	156.2904348373413	fix_post	2		12.0	55.0	2.5	blank	1.0	345.9132790565491	0.10012698173522949
58	156.39056181907654	fix_pre	0		21.0	56.0	2.5	/experiments/knapen_aot/videos/S_yt-nn-8LZcafGs_35.mp4	0.0	346.0134060382843	0.17492413520812988
58	156.55727577209473	response	0	4		56.0	2.5	/experiments/knapen_aot/videos/S_yt-nn-8LZcafGs_35.mp4	0.0	346.1801199913025	
58	156.56548595428467	movie	1		301.0	56.0	2.5	/experiments/knapen_aot/videos/S_yt-nn-8LZcafGs_35.mp4	0.0	346.18833017349243	2.5083768367767334
58	159.0738627910614	fix_post	2		12.0	56.0	2.5	/experiments/knapen_aot/videos/S_yt-nn-8LZcafGs_35.mp4	0.0	348.69670701026917	0.09995508193969727
59	159.1738178730011	fix_pre	0		8.0	57.0	2.5	/experiments/knapen_aot/videos/R_S_comp_HK_B005_C011_PSNK_v16_SDR_PS_20180914_SDR_2K_AVC.mp4	0.0	348.79666209220886	0.06743192672729492
59	159.2322759628296	response	0	4		57.0	2.5	/experiments/knapen_aot/videos/R_S_comp_HK_B005_C011_PSNK_v16_SDR_PS_20180914_SDR_2K_AVC.mp4	0.0	348.85512018203735	
59	159.2412497997284	movie	1		180.0	57.0	2.5	/experiments/knapen_aot/videos/R_S_comp_HK_B005_C011_PSNK_v16_SDR_PS_20180914_SDR_2K_AVC.mp4	0.0	348.86409401893616	2.5075581073760986
59	161.7488079071045	fix_post	2		12.0	57.0	2.5	/experiments/knapen_aot/videos/R_S_comp_HK_B005_C011_PSNK_v16_SDR_PS_20180914_SDR_2K_AVC.mp4	0.0	351.37165212631226	0.09998488426208496
59	161.80724477767944	response	2	4		57.0	2.5	/experiments/knapen_aot/videos/R_S_comp_HK_B005_C011_PSNK_v16_SDR_PS_20180914_SDR_2K_AVC.mp4	0.0	351.4300889968872	
60	161.84879279136658	fix_pre	0		34.0	58.0	2.5	/experiments/knapen_aot/videos/S_bing-www_nytimes_com_video_dining_1247468118505_grilled-chicken-breasts-with-herb-butter_html_132.mp4	0.0	351.47163701057434	0.28334498405456543
60	162.1238558292389	response	0	4		58.0	2.5	/experiments/knapen_aot/videos/S_bing-www_nytimes_com_video_dining_1247468118505_grilled-chicken-breasts-with-herb-butter_html_132.mp4	0.0	351.74670004844666	
60	162.13213777542114	movie	1		166.0	58.0	2.5	/experiments/knapen_aot/videos/S_bing-www_nytimes_com_video_dining_1247468118505_grilled-chicken-breasts-with-herb-butter_html_132.mp4	0.0	351.7549819946289	2.508312225341797
60	164.64045000076294	fix_post	2		12.0	58.0	2.5	/experiments/knapen_aot/videos/S_bing-www_nytimes_com_video_dining_1247468118505_grilled-chicken-breasts-with-herb-butter_html_132.mp4	0.0	354.2632942199707	0.10004091262817383
61	164.7404909133911	fix_pre	0		4.0	59.0	2.5	/experiments/knapen_aot/videos/R_S_yt-v9WGfC67DPk_50.mp4	0.0	354.3633351325989	0.033299922943115234
61	164.7655417919159	response	0	4		59.0	2.5	/experiments/knapen_aot/videos/R_S_yt-v9WGfC67DPk_50.mp4	0.0	354.38838601112366	
61	164.77379083633423	movie	1		301.0	59.0	2.5	/experiments/knapen_aot/videos/R_S_yt-v9WGfC67DPk_50.mp4	0.0	354.396635055542	2.508458137512207
61	167.28224897384644	fix_post	2		12.0	59.0	2.5	/experiments/knapen_aot/videos/R_S_yt-v9WGfC67DPk_50.mp4	0.0	356.9050931930542	0.09981298446655273
62	167.382061958313	fix_pre	0		3.0	60.0	2.5	/experiments/knapen_aot/videos/S_pexels-mart-production-7698911.mp4	0.0	357.00490617752075	0.02604389190673828
62	167.3988938331604	response	0	4		60.0	2.5	/experiments/knapen_aot/videos/S_pexels-mart-production-7698911.mp4	0.0	357.02173805236816	
62	167.40810585021973	movie	1		197.0	60.0	2.5	/experiments/knapen_aot/videos/S_pexels-mart-production-7698911.mp4	0.0	357.0309500694275	2.5073671340942383
62	169.91547298431396	fix_post	2		12.0	60.0	2.5	/experiments/knapen_aot/videos/S_pexels-mart-production-7698911.mp4	0.0	359.53831720352173	0.10001683235168457
63	170.01548981666565	fix_pre	0		11.0	61.0	2.5	/experiments/knapen_aot/videos/R_S_flickr-evananderica-2662125519_8.mp4	0.0	359.6383340358734	0.09162211418151855
63	170.09891200065613	response	0	2		61.0	2.5	/experiments/knapen_aot/videos/R_S_flickr-evananderica-2662125519_8.mp4	0.0	359.7217562198639	
63	170.10711193084717	movie	1		301.0	61.0	2.5	/experiments/knapen_aot/videos/R_S_flickr-evananderica-2662125519_8.mp4	0.0	359.72995615005493	2.508344888687134
63	170.6578299999237	response	1	2		61.0	2.5	/experiments/knapen_aot/videos/R_S_flickr-evananderica-2662125519_8.mp4	0.0	360.28067421913147	
63	172.6154568195343	fix_post	2		12.0	61.0	2.5	/experiments/knapen_aot/videos/R_S_flickr-evananderica-2662125519_8.mp4	0.0	362.23830103874207	0.09992313385009766
64	172.7153799533844	fix_pre	0		22.0	62.0	2.5	blank	1.0	362.33822417259216	0.18345904350280762
64	172.89050698280334	response	0	2		62.0	2.5	blank	1.0	362.5133512020111	
64	172.8988389968872	movie	1		301.0	62.0	2.5	blank	1.0	362.52168321609497	2.5082709789276123
64	175.40710997581482	fix_post	2		12.0	62.0	2.5	blank	1.0	365.0299541950226	0.10004186630249023
65	175.5071518421173	fix_pre	0		26.0	63.0	2.5	/experiments/knapen_aot/videos/S_yt-oVrkSsEpuvk_118.mp4	0.0	365.1299960613251	0.21657896041870117
65	175.71550989151	response	0	2		63.0	2.5	/experiments/knapen_aot/videos/S_yt-oVrkSsEpuvk_118.mp4	0.0	365.3383541107178	
65	175.723730802536	movie	1		301.0	63.0	2.5	/experiments/knapen_aot/videos/S_yt-oVrkSsEpuvk_118.mp4	0.0	365.3465750217438	2.5083069801330566
65	178.23203778266907	fix_post	2		12.0	63.0	2.5	/experiments/knapen_aot/videos/S_yt-oVrkSsEpuvk_118.mp4	0.0	367.85488200187683	0.10007905960083008
66	178.3321168422699	fix_pre	0		29.0	64.0	2.5	/experiments/knapen_aot/videos/S_yt-aD-EAuBdpUo_163.mp4	0.0	367.95496106147766	0.24235296249389648
66	178.56550288200378	response	0	2		64.0	2.5	/experiments/knapen_aot/videos/S_yt-aD-EAuBdpUo_163.mp4	0.0	368.18834710121155	
66	178.5744698047638	movie	1		301.0	64.0	2.5	/experiments/knapen_aot/videos/S_yt-aD-EAuBdpUo_163.mp4	0.0	368.19731402397156	2.507646083831787
66	181.0071518421173	response	1	2		64.0	2.5	/experiments/knapen_aot/videos/S_yt-aD-EAuBdpUo_163.mp4	0.0	370.6299960613251	
66	181.08211588859558	fix_post	2		12.0	64.0	2.5	/experiments/knapen_aot/videos/S_yt-aD-EAuBdpUo_163.mp4	0.0	370.70496010780334	0.09996795654296875
67	181.18208384513855	fix_pre	0		9.0	65.0	2.5	/experiments/knapen_aot/videos/S_yt-BrepyEWKrPQ_20.mp4	0.0	370.8049280643463	0.0749211311340332
67	181.24880290031433	response	0	2		65.0	2.5	/experiments/knapen_aot/videos/S_yt-BrepyEWKrPQ_20.mp4	0.0	370.8716471195221	
67	181.25700497627258	movie	1		301.0	65.0	2.5	/experiments/knapen_aot/videos/S_yt-BrepyEWKrPQ_20.mp4	0.0	370.87984919548035	2.508466958999634
67	183.76547193527222	fix_post	2		12.0	65.0	2.5	/experiments/knapen_aot/videos/S_yt-BrepyEWKrPQ_20.mp4	0.0	373.38831615448	0.09993290901184082
68	183.86540484428406	fix_pre	0		23.0	66.0	2.5	/experiments/knapen_aot/videos/S_yt--Ou506YF3mY_106.mp4	0.0	373.4882490634918	0.19164013862609863
68	184.04886388778687	response	0	2		66.0	2.5	/experiments/knapen_aot/videos/S_yt--Ou506YF3mY_106.mp4	0.0	373.67170810699463	
68	184.05704498291016	movie	1		301.0	66.0	2.5	/experiments/knapen_aot/videos/S_yt--Ou506YF3mY_106.mp4	0.0	373.6798892021179	2.508297920227051
68	186.5653429031372	fix_post	2		12.0	66.0	2.5	/experiments/knapen_aot/videos/S_yt--Ou506YF3mY_106.mp4	0.0	376.18818712234497	0.10001087188720703
69	186.6653537750244	fix_pre	0		12.0	67.0	2.5	/experiments/knapen_aot/videos/S_yt-d5jBQ-LOW2I_17.mp4	0.0	376.2881979942322	0.09995818138122559
69	186.75714588165283	response	0	2		67.0	2.5	/experiments/knapen_aot/videos/S_yt-d5jBQ-LOW2I_17.mp4	0.0	376.3799901008606	
69	186.76531195640564	movie	1		301.0	67.0	2.5	/experiments/knapen_aot/videos/S_yt-d5jBQ-LOW2I_17.mp4	0.0	376.3881561756134	2.5084168910980225
69	189.27372884750366	fix_post	2		12.0	67.0	2.5	/experiments/knapen_aot/videos/S_yt-d5jBQ-LOW2I_17.mp4	0.0	378.8965730667114	0.10005998611450195
69	189.31547379493713	response	2	2		67.0	2.5	/experiments/knapen_aot/videos/S_yt-d5jBQ-LOW2I_17.mp4	0.0	378.9383180141449	
70	189.37378883361816	fix_pre	0		20.0	68.0	2.5	blank	1.0	378.9966330528259	0.16658711433410645
70	189.5320279598236	response	0	2		68.0	2.5	blank	1.0	379.1548721790314	
70	189.54037594795227	movie	1		301.0	68.0	2.5	blank	1.0	379.16322016716003	2.5083248615264893
70	191.99877882003784	response	1	2		68.0	2.5	blank	1.0	381.6216230392456	
70	192.04870080947876	fix_post	2		12.0	68.0	2.5	blank	1.0	381.6715450286865	0.09999608993530273
71	192.14869689941406	fix_pre	0		12.0	69.0	2.5	/experiments/knapen_aot/videos/S_ILSVRC2015_train_00697001.mp4	0.0	381.7715411186218	0.09994387626647949
71	192.24039697647095	response	0	2		69.0	2.5	/experiments/knapen_aot/videos/S_ILSVRC2015_train_00697001.mp4	0.0	381.8632411956787	
71	192.24864077568054	movie	1		301.0	69.0	2.5	/experiments/knapen_aot/videos/S_ILSVRC2015_train_00697001.mp4	0.0	381.8714849948883	2.5084030628204346
71	194.75704383850098	fix_post	2		12.0	69.0	2.5	/experiments/knapen_aot/videos/S_ILSVRC2015_train_00697001.mp4	0.0	384.37988805770874	0.0999610424041748
71	194.79882979393005	response	2	2		69.0	2.5	/experiments/knapen_aot/videos/S_ILSVRC2015_train_00697001.mp4	0.0	384.4216740131378	
72	194.85700488090515	fix_pre	0		32.0	70.0	2.5	/experiments/knapen_aot/videos/S_yt-ObT9gF8E_tU_250.mp4	0.0	384.4798491001129	0.26662206649780273
72	195.11549282073975	response	0	2		70.0	2.5	/experiments/knapen_aot/videos/S_yt-ObT9gF8E_tU_250.mp4	0.0	384.7383370399475	
72	195.12362694740295	movie	1		301.0	70.0	2.5	/experiments/knapen_aot/videos/S_yt-ObT9gF8E_tU_250.mp4	0.0	384.7464711666107	2.508746862411499
72	197.63237380981445	fix_post	2		12.0	70.0	2.5	/experiments/knapen_aot/videos/S_yt-ObT9gF8E_tU_250.mp4	0.0	387.2552180290222	0.09964513778686523
73	197.73201894760132	fix_pre	0		5.0	71.0	2.5	/experiments/knapen_aot/videos/S_yt-d5jBQ-LOW2I_17.mp4	0.0	387.3548631668091	0.0416409969329834
73	197.76545882225037	response	0	2		71.0	2.5	/experiments/knapen_aot/videos/S_yt-d5jBQ-LOW2I_17.mp4	0.0	387.38830304145813	
73	197.7736599445343	movie	1		301.0	71.0	2.5	/experiments/knapen_aot/videos/S_yt-d5jBQ-LOW2I_17.mp4	0.0	387.39650416374207	2.5086679458618164
73	200.28232789039612	fix_post	2		12.0	71.0	2.5	/experiments/knapen_aot/videos/S_yt-d5jBQ-LOW2I_17.mp4	0.0	389.9051721096039	0.0996699333190918
74	200.3819978237152	fix_pre	0		16.0	72.0	2.5	/experiments/knapen_aot/videos/R_S_yt-i-1Gou9SA5U_3.mp4	0.0	390.004842042923	0.13329410552978516
74	200.5070128440857	response	0	2		72.0	2.5	/experiments/knapen_aot/videos/R_S_yt-i-1Gou9SA5U_3.mp4	0.0	390.12985706329346	
74	200.515291929245	movie	1		300.0	72.0	2.5	/experiments/knapen_aot/videos/R_S_yt-i-1Gou9SA5U_3.mp4	0.0	390.13813614845276	2.5083749294281006
74	203.0236668586731	fix_post	2		12.0	72.0	2.5	/experiments/knapen_aot/videos/R_S_yt-i-1Gou9SA5U_3.mp4	0.0	392.64651107788086	0.0999290943145752
75	203.12359595298767	fix_pre	0		21.0	73.0	2.5	/experiments/knapen_aot/videos/R_S_comp_L010_C006_PS_v01_SDR_PS_20180925_SDR_2K_AVC.mp4	0.0	392.74644017219543	0.17503595352172852
75	203.29038286209106	response	0	2		73.0	2.5	/experiments/knapen_aot/videos/R_S_comp_L010_C006_PS_v01_SDR_PS_20180925_SDR_2K_AVC.mp4	0.0	392.9132270812988	
75	203.2986319065094	movie	1		170.0	73.0	2.5	/experiments/knapen_aot/videos/R_S_comp_L010_C006_PS_v01_SDR_PS_20180925_SDR_2K_AVC.mp4	0.0	392.92147612571716	2.508342981338501
75	205.8069748878479	fix_post	2		12.0	73.0	2.5	/experiments/knapen_aot/videos/R_S_comp_L010_C006_PS_v01_SDR_PS_20180925_SDR_2K_AVC.mp4	0.0	395.42981910705566	0.10049700736999512
75	205.87379789352417	response	2	2		73.0	2.5	/experiments/knapen_aot/videos/R_S_comp_L010_C006_PS_v01_SDR_PS_20180925_SDR_2K_AVC.mp4	0.0	395.49664211273193	
76	205.9074718952179	fix_pre	0		43.0	74.0	2.5	/experiments/knapen_aot/videos/R_S_dwi2oPzQ1Wo_48.mp4	0.0	395.53031611442566	0.3577919006347656
76	206.25705790519714	response	0	2		74.0	2.5	/experiments/knapen_aot/videos/R_S_dwi2oPzQ1Wo_48.mp4	0.0	395.8799021244049	
76	206.26526379585266	movie	1		301.0	74.0	2.5	/experiments/knapen_aot/videos/R_S_dwi2oPzQ1Wo_48.mp4	0.0	395.8881080150604	2.5082759857177734
76	208.77353978157043	fix_post	2		12.0	74.0	2.5	/experiments/knapen_aot/videos/R_S_dwi2oPzQ1Wo_48.mp4	0.0	398.3963840007782	0.10014510154724121
77	208.87368488311768	fix_pre	0		6.0	75.0	2.5	/experiments/knapen_aot/videos/R_S_yt-mWlx1SIXl5M_850.mp4	0.0	398.49652910232544	0.04990100860595703
77	208.91539788246155	response	0	2		75.0	2.5	/experiments/knapen_aot/videos/R_S_yt-mWlx1SIXl5M_850.mp4	0.0	398.5382421016693	
77	208.92358589172363	movie	1		301.0	75.0	2.5	/experiments/knapen_aot/videos/R_S_yt-mWlx1SIXl5M_850.mp4	0.0	398.5464301109314	2.5083839893341064
77	211.43196988105774	fix_post	2		12.0	75.0	2.5	/experiments/knapen_aot/videos/R_S_yt-mWlx1SIXl5M_850.mp4	0.0	401.0548141002655	0.10091590881347656
78	211.53288578987122	fix_pre	0		14.0	76.0	2.5	blank	1.0	401.155730009079	0.11567115783691406
78	211.64037990570068	response	0	2		76.0	2.5	blank	1.0	401.26322412490845	
78	211.64855694770813	movie	1		301.0	76.0	2.5	blank	1.0	401.2714011669159	2.5082919597625732
78	214.1568489074707	fix_post	2		12.0	76.0	2.5	blank	1.0	403.77969312667847	0.10005998611450195
79	214.2569088935852	fix_pre	0		29.0	77.0	2.5	/experiments/knapen_aot/videos/S_ILSVRC2015_train_00001011.mp4	0.0	403.87975311279297	0.2416369915008545
79	214.49032187461853	response	0	2		77.0	2.5	/experiments/knapen_aot/videos/S_ILSVRC2015_train_00001011.mp4	0.0	404.1131660938263	
79	214.49854588508606	movie	1		301.0	77.0	2.5	/experiments/knapen_aot/videos/S_ILSVRC2015_train_00001011.mp4	0.0	404.1213901042938	2.508354902267456
79	217.00690078735352	fix_post	2		12.0	77.0	2.5	/experiments/knapen_aot/videos/S_ILSVRC2015_train_00001011.mp4	0.0	406.6297450065613	0.09996318817138672
80	217.1068639755249	fix_pre	0		15.0	78.0	2.5	/experiments/knapen_aot/videos/R_S_comp_1223LV_FLARE_v21_SDR_PS_FINAL_20180709_F0F5700_SDR_2K_AVC.mp4	0.0	406.72970819473267	0.12494802474975586
80	217.22367596626282	response	0	2		78.0	2.5	/experiments/knapen_aot/videos/R_S_comp_1223LV_FLARE_v21_SDR_PS_FINAL_20180709_F0F5700_SDR_2K_AVC.mp4	0.0	406.8465201854706	
80	217.23181200027466	movie	1		180.0	78.0	2.5	/experiments/knapen_aot/videos/R_S_comp_1223LV_FLARE_v21_SDR_PS_FINAL_20180709_F0F5700_SDR_2K_AVC.mp4	0.0	406.8546562194824	2.5084118843078613
80	219.74022388458252	fix_post	2		12.0	78.0	2.5	/experiments/knapen_aot/videos/R_S_comp_1223LV_FLARE_v21_SDR_PS_FINAL_20180709_F0F5700_SDR_2K_AVC.mp4	0.0	409.3630681037903	0.09994101524353027
81	219.84016489982605	fix_pre	0		31.0	79.0	2.5	/experiments/knapen_aot/videos/R_S_production_ID_4360158.mp4	0.0	409.4630091190338	0.2583329677581787
81	220.0904529094696	response	0	2		79.0	2.5	/experiments/knapen_aot/videos/R_S_production_ID_4360158.mp4	0.0	409.71329712867737	
81	220.09849786758423	movie	1		166.0	79.0	2.5	/experiments/knapen_aot/videos/R_S_production_ID_4360158.mp4	0.0	409.721342086792	2.5084009170532227
81	222.60689878463745	fix_post	2		12.0	79.0	2.5	/experiments/knapen_aot/videos/R_S_production_ID_4360158.mp4	0.0	412.2297430038452	0.09998321533203125
82	222.70688199996948	fix_pre	0		12.0	80.0	2.5	/experiments/knapen_aot/videos/S_pexels-rodnae-productions-7467585.mp4	0.0	412.32972621917725	0.09996581077575684
82	222.79863500595093	response	0	2		80.0	2.5	/experiments/knapen_aot/videos/S_pexels-rodnae-productions-7467585.mp4	0.0	412.4214792251587	
82	222.80684781074524	movie	1		169.0	80.0	2.5	/experiments/knapen_aot/videos/S_pexels-rodnae-productions-7467585.mp4	0.0	412.429692029953	2.508329153060913
82	225.31517696380615	fix_post	2		12.0	80.0	2.5	/experiments/knapen_aot/videos/S_pexels-rodnae-productions-7467585.mp4	0.0	414.9380211830139	0.09995698928833008
83	225.41513395309448	fix_pre	0		7.0	81.0	2.5	/experiments/knapen_aot/videos/S_yt-2jVJb1PR2XA_16.mp4	0.0	415.03797817230225	0.05840587615966797
83	225.4653878211975	response	0	2		81.0	2.5	/experiments/knapen_aot/videos/S_yt-2jVJb1PR2XA_16.mp4	0.0	415.0882320404053	
83	225.47353982925415	movie	1		301.0	81.0	2.5	/experiments/knapen_aot/videos/S_yt-2jVJb1PR2XA_16.mp4	0.0	415.0963840484619	2.508308172225952
83	227.9818480014801	fix_post	2		12.0	81.0	2.5	/experiments/knapen_aot/videos/S_yt-2jVJb1PR2XA_16.mp4	0.0	417.60469222068787	0.10010695457458496
84	228.0819549560547	fix_pre	0		14.0	82.0	2.5	blank	1.0	417.70479917526245	0.116912841796875
84	228.19029188156128	response	0	2		82.0	2.5	blank	1.0	417.81313610076904	
84	228.19886779785156	movie	1		301.0	82.0	2.5	blank	1.0	417.8217120170593	2.5079832077026367
84	230.7068510055542	fix_post	2		12.0	82.0	2.5	blank	1.0	420.32969522476196	0.10013580322265625
85	230.80698680877686	fix_pre	0		48.0	83.0	2.5	/experiments/knapen_aot/videos/S_comp_1223LV_FLARE_v21_SDR_PS_FINAL_20180709_F0F5700_SDR_2K_AVC.mp4	0.0	420.4298310279846	0.39981913566589355
85	231.19869589805603	response	0	2		83.0	2.5	/experiments/knapen_aot/videos/S_comp_1223LV_FLARE_v21_SDR_PS_FINAL_20180709_F0F5700_SDR_2K_AVC.mp4	0.0	420.8215401172638	
85	231.20680594444275	movie	1		166.0	83.0	2.5	/experiments/knapen_aot/videos/S_comp_1223LV_FLARE_v21_SDR_PS_FINAL_20180709_F0F5700_SDR_2K_AVC.mp4	0.0	420.8296501636505	2.508309841156006
85	233.71511578559875	fix_post	2		12.0	83.0	2.5	/experiments/knapen_aot/videos/S_comp_1223LV_FLARE_v21_SDR_PS_FINAL_20180709_F0F5700_SDR_2K_AVC.mp4	0.0	423.3379600048065	0.10007405281066895
87	233.81518983840942	stim	0		302.0					423.4380340576172	2.516613006591797
87	233.96523690223694	response	0	2						423.5880811214447	
87	236.32662391662598	response	0	space						425.94946813583374	
