trial_nr	onset	event_type	phase	response	nr_frames	movie_index	movie_duration	movie_file	blank	onset_abs	duration
0	0.12746906280517578	stim	0		39.0					73.29353904724121	0.3308138847351074
0	0.44800901412963867	response	0	space						73.61407899856567	
1	0.4582829475402832	stim	0		121.0					73.62435293197632	1.0058550834655762
1	1.148008108139038	response	0	space						74.31407809257507	
1	1.3656389713287354	response	0	4						74.53170895576477	
1	1.4641380310058594	stim	1		120.0					74.6302080154419	1.00006103515625
1	1.6597630977630615	response	1	space						74.8258330821991	
1	2.330902099609375	response	1	space						75.49697208404541	
2	2.4641990661621094	fix_pre	0		25.0	0.0	2.5	/experiments/knapen_aot/videos/R_S_yt-dqcUJzNOzbM_156.mp4	0.0	75.63026905059814	0.209014892578125
2	2.6642961502075195	response	0	space		0.0	2.5	/experiments/knapen_aot/videos/R_S_yt-dqcUJzNOzbM_156.mp4	0.0	75.83036613464355	
2	2.6732139587402344	movie	1		301.0	0.0	2.5	/experiments/knapen_aot/videos/R_S_yt-dqcUJzNOzbM_156.mp4	0.0	75.83928394317627	2.5076210498809814
2	5.180835008621216	fix_post	2		12.0	0.0	2.5	/experiments/knapen_aot/videos/R_S_yt-dqcUJzNOzbM_156.mp4	0.0	78.34690499305725	0.09998798370361328
3	5.280822992324829	fix_pre	0		334.0	1.0	2.5	/experiments/knapen_aot/videos/S_yt-Y7-umyL036c_507.mp4	0.0	78.44689297676086	2.788125991821289
3	8.060171127319336	response	0	4		1.0	2.5	/experiments/knapen_aot/videos/S_yt-Y7-umyL036c_507.mp4	0.0	81.22624111175537	
3	8.068948984146118	movie	1		296.0	1.0	2.5	/experiments/knapen_aot/videos/S_yt-Y7-umyL036c_507.mp4	0.0	81.23501896858215	2.5035400390625
3	10.122539043426514	response	1	4		1.0	2.5	/experiments/knapen_aot/videos/S_yt-Y7-umyL036c_507.mp4	0.0	83.28860902786255	
3	10.572489023208618	fix_post	2		12.0	1.0	2.5	/experiments/knapen_aot/videos/S_yt-Y7-umyL036c_507.mp4	0.0	83.73855900764465	0.09996414184570312
4	10.672453165054321	fix_pre	0		352.0	2.0	2.5	/experiments/knapen_aot/videos/S_pexels-rodnae-productions-5993654.mp4	0.0	83.83852314949036	2.933257818222046
4	13.597608089447021	response	0	4		2.0	2.5	/experiments/knapen_aot/videos/S_pexels-rodnae-productions-5993654.mp4	0.0	86.76367807388306	
4	13.605710983276367	movie	1		165.0	2.0	2.5	/experiments/knapen_aot/videos/S_pexels-rodnae-productions-5993654.mp4	0.0	86.7717809677124	2.508406162261963
4	16.11411714553833	fix_post	2		12.0	2.0	2.5	/experiments/knapen_aot/videos/S_pexels-rodnae-productions-5993654.mp4	0.0	89.28018712997437	0.10062384605407715
5	16.214740991592407	fix_pre	0		57.0	3.0	2.5	/experiments/knapen_aot/videos/S_pexels-cottonbro-10639398.mp4	0.0	89.38081097602844	0.4743521213531494
5	16.68090295791626	response	0	4		3.0	2.5	/experiments/knapen_aot/videos/S_pexels-cottonbro-10639398.mp4	0.0	89.8469729423523	
5	16.689093112945557	movie	1		198.0	3.0	2.5	/experiments/knapen_aot/videos/S_pexels-cottonbro-10639398.mp4	0.0	89.85516309738159	2.508327007293701
5	18.763060092926025	response	1	4		3.0	2.5	/experiments/knapen_aot/videos/S_pexels-cottonbro-10639398.mp4	0.0	91.92913007736206	
5	19.197420120239258	fix_post	2		12.0	3.0	2.5	/experiments/knapen_aot/videos/S_pexels-cottonbro-10639398.mp4	0.0	92.3634901046753	0.10000181198120117
6	19.29742193222046	fix_pre	0		61.0	4.0	2.5	/experiments/knapen_aot/videos/S_yt-ybH6uAiFbjc_273.mp4	0.0	92.4634919166565	0.5083122253417969
6	19.79000210762024	response	0	4		4.0	2.5	/experiments/knapen_aot/videos/S_yt-ybH6uAiFbjc_273.mp4	0.0	92.95607209205627	
6	19.805734157562256	movie	1		301.0	4.0	2.5	/experiments/knapen_aot/videos/S_yt-ybH6uAiFbjc_273.mp4	0.0	92.97180414199829	2.5082569122314453
6	22.3139910697937	fix_post	2		12.0	4.0	2.5	/experiments/knapen_aot/videos/S_yt-ybH6uAiFbjc_273.mp4	0.0	95.48006105422974	0.10001707077026367
7	22.414008140563965	fix_pre	0		58.0	5.0	2.5	/experiments/knapen_aot/videos/R_S_yt-XtzmBXKYEWk_60.mp4	0.0	95.580078125	0.48329901695251465
7	22.889212131500244	response	0	4		5.0	2.5	/experiments/knapen_aot/videos/R_S_yt-XtzmBXKYEWk_60.mp4	0.0	96.05528211593628	
7	22.89730715751648	movie	1		301.0	5.0	2.5	/experiments/knapen_aot/videos/R_S_yt-XtzmBXKYEWk_60.mp4	0.0	96.06337714195251	2.5084269046783447
7	25.405734062194824	fix_post	2		12.0	5.0	2.5	/experiments/knapen_aot/videos/R_S_yt-XtzmBXKYEWk_60.mp4	0.0	98.57180404663086	0.09999895095825195
8	25.505733013153076	fix_pre	0		41.0	6.0	2.5	blank	1.0	98.67180299758911	0.3415501117706299
8	25.839190006256104	response	0	4		6.0	2.5	blank	1.0	99.00525999069214	
8	25.847283124923706	movie	1		301.0	6.0	2.5	blank	1.0	99.01335310935974	2.508452892303467
8	28.355736017227173	fix_post	2		12.0	6.0	2.5	blank	1.0	101.52180600166321	0.09999704360961914
8	28.390269994735718	response	2	4		6.0	2.5	blank	1.0	101.55633997917175	
9	28.455733060836792	fix_pre	0		46.0	7.0	2.5	/experiments/knapen_aot/videos/R_S_yt-1Xbcf0BPT-g_57.mp4	0.0	101.62180304527283	0.3838338851928711
9	28.830806970596313	response	0	4		7.0	2.5	/experiments/knapen_aot/videos/R_S_yt-1Xbcf0BPT-g_57.mp4	0.0	101.99687695503235	
9	28.839566946029663	movie	1		301.0	7.0	2.5	/experiments/knapen_aot/videos/R_S_yt-1Xbcf0BPT-g_57.mp4	0.0	102.0056369304657	2.507786989212036
9	31.3473539352417	fix_post	2		12.0	7.0	2.5	/experiments/knapen_aot/videos/R_S_yt-1Xbcf0BPT-g_57.mp4	0.0	104.51342391967773	0.09999203681945801
10	31.447345972061157	fix_pre	0		14.0	8.0	2.5	/experiments/knapen_aot/videos/S_yt-N7ztk2fa3Ls_137.mp4	0.0	104.61341595649719	0.11661314964294434
10	31.54830312728882	response	0	4		8.0	2.5	/experiments/knapen_aot/videos/S_yt-N7ztk2fa3Ls_137.mp4	0.0	104.71437311172485	
10	31.5639591217041	movie	1		301.0	8.0	2.5	/experiments/knapen_aot/videos/S_yt-N7ztk2fa3Ls_137.mp4	0.0	104.73002910614014	2.508316993713379
10	33.041115045547485	response	1	4		8.0	2.5	/experiments/knapen_aot/videos/S_yt-N7ztk2fa3Ls_137.mp4	0.0	106.20718502998352	
10	33.95779204368591	response	1	4		8.0	2.5	/experiments/knapen_aot/videos/S_yt-N7ztk2fa3Ls_137.mp4	0.0	107.12386202812195	
10	34.07227611541748	fix_post	2		12.0	8.0	2.5	/experiments/knapen_aot/videos/S_yt-N7ztk2fa3Ls_137.mp4	0.0	107.23834609985352	0.10008883476257324
11	34.172364950180054	fix_pre	0		61.0	9.0	2.5	/experiments/knapen_aot/videos/S_yt-G_eNNzNB-hU_1.mp4	0.0	107.33843493461609	0.5166130065917969
11	34.68085694313049	response	0	4		9.0	2.5	/experiments/knapen_aot/videos/S_yt-G_eNNzNB-hU_1.mp4	0.0	107.84692692756653	
11	34.68897795677185	movie	1		301.0	9.0	2.5	/experiments/knapen_aot/videos/S_yt-G_eNNzNB-hU_1.mp4	0.0	107.85504794120789	2.5083820819854736
11	35.878411054611206	response	1	4		9.0	2.5	/experiments/knapen_aot/videos/S_yt-G_eNNzNB-hU_1.mp4	0.0	109.04448103904724	
11	37.197360038757324	fix_post	2		12.0	9.0	2.5	/experiments/knapen_aot/videos/S_yt-G_eNNzNB-hU_1.mp4	0.0	110.36343002319336	0.09992790222167969
12	37.297287940979004	fix_pre	0		2.0	10.0	2.5	/experiments/knapen_aot/videos/R_S_yt-22c5eZ1UNME_76.mp4	0.0	110.46335792541504	0.016738176345825195
12	37.30574607849121	response	0	4		10.0	2.5	/experiments/knapen_aot/videos/R_S_yt-22c5eZ1UNME_76.mp4	0.0	110.47181606292725	
12	37.31402611732483	movie	1		301.0	10.0	2.5	/experiments/knapen_aot/videos/R_S_yt-22c5eZ1UNME_76.mp4	0.0	110.48009610176086	2.508333921432495
12	38.582627058029175	response	1	4		10.0	2.5	/experiments/knapen_aot/videos/R_S_yt-22c5eZ1UNME_76.mp4	0.0	111.74869704246521	
12	39.822360038757324	fix_post	2		12.0	10.0	2.5	/experiments/knapen_aot/videos/R_S_yt-22c5eZ1UNME_76.mp4	0.0	112.98843002319336	0.10053610801696777
13	39.92289614677429	fix_pre	0		57.0	11.0	2.5	/experiments/knapen_aot/videos/R_S_yt-fk-z6WCvjjA_3.mp4	0.0	113.08896613121033	0.47445082664489746
13	40.389196157455444	response	0	4		11.0	2.5	/experiments/knapen_aot/videos/R_S_yt-fk-z6WCvjjA_3.mp4	0.0	113.55526614189148	
13	40.39734697341919	movie	1		301.0	11.0	2.5	/experiments/knapen_aot/videos/R_S_yt-fk-z6WCvjjA_3.mp4	0.0	113.56341695785522	2.5082950592041016
13	41.284120082855225	response	1	4		11.0	2.5	/experiments/knapen_aot/videos/R_S_yt-fk-z6WCvjjA_3.mp4	0.0	114.45019006729126	
13	42.90564203262329	fix_post	2		12.0	11.0	2.5	/experiments/knapen_aot/videos/R_S_yt-fk-z6WCvjjA_3.mp4	0.0	116.07171201705933	0.09990096092224121
14	43.00554299354553	fix_pre	0		22.0	12.0	2.5	/experiments/knapen_aot/videos/S_bing-www_dailymotion_com_video_x4kcklg_53.mp4	0.0	116.17161297798157	0.1833641529083252
14	43.180773973464966	response	0	4		12.0	2.5	/experiments/knapen_aot/videos/S_bing-www_dailymotion_com_video_x4kcklg_53.mp4	0.0	116.346843957901	
14	43.18890714645386	movie	1		164.0	12.0	2.5	/experiments/knapen_aot/videos/S_bing-www_dailymotion_com_video_x4kcklg_53.mp4	0.0	116.35497713088989	2.508408784866333
14	45.69731593132019	fix_post	2		12.0	12.0	2.5	/experiments/knapen_aot/videos/S_bing-www_dailymotion_com_video_x4kcklg_53.mp4	0.0	118.86338591575623	0.10001301765441895
15	45.79732894897461	fix_pre	0		34.0	13.0	2.5	/experiments/knapen_aot/videos/R_S_pexels-mikhail-nilov-8410063.mp4	0.0	118.96339893341064	0.28330016136169434
15	46.072428941726685	response	0	4		13.0	2.5	/experiments/knapen_aot/videos/R_S_pexels-mikhail-nilov-8410063.mp4	0.0	119.23849892616272	
15	46.080629110336304	movie	1		162.0	13.0	2.5	/experiments/knapen_aot/videos/R_S_pexels-mikhail-nilov-8410063.mp4	0.0	119.24669909477234	2.5083539485931396
15	48.58898305892944	fix_post	2		12.0	13.0	2.5	/experiments/knapen_aot/videos/R_S_pexels-mikhail-nilov-8410063.mp4	0.0	121.75505304336548	0.0999910831451416
16	48.688974142074585	fix_pre	0		40.0	14.0	2.5	blank	1.0	121.85504412651062	0.33330798149108887
16	49.00650405883789	response	0	4		14.0	2.5	blank	1.0	122.17257404327393	
16	49.022282123565674	movie	1		301.0	14.0	2.5	blank	1.0	122.18835210800171	2.5082459449768066
16	51.53052806854248	fix_post	2		12.0	14.0	2.5	blank	1.0	124.69659805297852	0.10005593299865723
17	51.63058400154114	fix_pre	0		12.0	15.0	2.5	/experiments/knapen_aot/videos/R_S_comp_A001_C001_120530_v04_SDR_FINAL_20180706_SDR_2K_AVC.mp4	0.0	124.79665398597717	0.09993815422058105
17	51.7148540019989	response	0	4		15.0	2.5	/experiments/knapen_aot/videos/R_S_comp_A001_C001_120530_v04_SDR_FINAL_20180706_SDR_2K_AVC.mp4	0.0	124.88092398643494	
17	51.73052215576172	movie	1		166.0	15.0	2.5	/experiments/knapen_aot/videos/R_S_comp_A001_C001_120530_v04_SDR_FINAL_20180706_SDR_2K_AVC.mp4	0.0	124.89659214019775	2.5083959102630615
17	53.564656019210815	response	1	4		15.0	2.5	/experiments/knapen_aot/videos/R_S_comp_A001_C001_120530_v04_SDR_FINAL_20180706_SDR_2K_AVC.mp4	0.0	126.73072600364685	
17	54.23891806602478	fix_post	2		12.0	15.0	2.5	/experiments/knapen_aot/videos/R_S_comp_A001_C001_120530_v04_SDR_FINAL_20180706_SDR_2K_AVC.mp4	0.0	127.40498805046082	0.10044002532958984
18	54.33935809135437	fix_pre	0		112.0	16.0	2.5	/experiments/knapen_aot/videos/R_S_yt-rlVzHENWufE_61.mp4	0.0	127.5054280757904	0.9329428672790527
18	55.26394009590149	response	0	4		16.0	2.5	/experiments/knapen_aot/videos/R_S_yt-rlVzHENWufE_61.mp4	0.0	128.43001008033752	
18	55.27230095863342	movie	1		301.0	16.0	2.5	/experiments/knapen_aot/videos/R_S_yt-rlVzHENWufE_61.mp4	0.0	128.43837094306946	2.5082101821899414
18	57.2311110496521	response	1	4		16.0	2.5	/experiments/knapen_aot/videos/R_S_yt-rlVzHENWufE_61.mp4	0.0	130.39718103408813	
18	57.780511140823364	fix_post	2		12.0	16.0	2.5	/experiments/knapen_aot/videos/R_S_yt-rlVzHENWufE_61.mp4	0.0	130.9465811252594	0.10007095336914062
19	57.880582094192505	fix_pre	0		101.0	17.0	2.5	/experiments/knapen_aot/videos/S_yt-BG-G7m5wLZ4_94.mp4	0.0	131.04665207862854	0.8416650295257568
19	58.713919162750244	response	0	4		17.0	2.5	/experiments/knapen_aot/videos/S_yt-BG-G7m5wLZ4_94.mp4	0.0	131.87998914718628	
19	58.72224712371826	movie	1		301.0	17.0	2.5	/experiments/knapen_aot/videos/S_yt-BG-G7m5wLZ4_94.mp4	0.0	131.8883171081543	2.5082879066467285
19	59.772348165512085	response	1	4		17.0	2.5	/experiments/knapen_aot/videos/S_yt-BG-G7m5wLZ4_94.mp4	0.0	132.93841814994812	
19	61.23053503036499	fix_post	2		12.0	17.0	2.5	/experiments/knapen_aot/videos/S_yt-BG-G7m5wLZ4_94.mp4	0.0	134.39660501480103	0.1001129150390625
20	61.33064794540405	fix_pre	0		63.0	18.0	2.5	/experiments/knapen_aot/videos/S_yt-zam74qlzGtQ_122.mp4	0.0	134.4967179298401	0.5249550342559814
20	61.84725499153137	response	0	4		18.0	2.5	/experiments/knapen_aot/videos/S_yt-zam74qlzGtQ_122.mp4	0.0	135.0133249759674	
20	61.855602979660034	movie	1		301.0	18.0	2.5	/experiments/knapen_aot/videos/S_yt-zam74qlzGtQ_122.mp4	0.0	135.02167296409607	2.508286952972412
20	62.85960102081299	response	1	4		18.0	2.5	/experiments/knapen_aot/videos/S_yt-zam74qlzGtQ_122.mp4	0.0	136.02567100524902	
20	63.272433042526245	response	1	4		18.0	2.5	/experiments/knapen_aot/videos/S_yt-zam74qlzGtQ_122.mp4	0.0	136.43850302696228	
20	64.36388993263245	fix_post	2		12.0	18.0	2.5	/experiments/knapen_aot/videos/S_yt-zam74qlzGtQ_122.mp4	0.0	137.52995991706848	0.10002708435058594
21	64.46391701698303	fix_pre	0		417.0	19.0	2.5	blank	1.0	137.62998700141907	3.4748971462249756
21	67.93063712120056	response	0	4		19.0	2.5	blank	1.0	141.0967071056366	
21	67.93881416320801	movie	1		301.0	19.0	2.5	blank	1.0	141.10488414764404	2.50834584236145
21	70.44716000556946	fix_post	2		12.0	19.0	2.5	blank	1.0	143.6132299900055	0.09999608993530273
22	70.54715609550476	fix_pre	0		20.0	20.0	2.5	/experiments/knapen_aot/videos/R_S_wc-hmW1OnCPF_xn_37.mp4	0.0	143.7132260799408	0.1670389175415039
22	70.70563507080078	response	0	4		20.0	2.5	/experiments/knapen_aot/videos/R_S_wc-hmW1OnCPF_xn_37.mp4	0.0	143.87170505523682	
22	70.71419501304626	movie	1		167.0	20.0	2.5	/experiments/knapen_aot/videos/R_S_wc-hmW1OnCPF_xn_37.mp4	0.0	143.8802649974823	2.5080230236053467
22	72.87245607376099	response	1	4		20.0	2.5	/experiments/knapen_aot/videos/R_S_wc-hmW1OnCPF_xn_37.mp4	0.0	146.03852605819702	
22	73.22221803665161	fix_post	2		12.0	20.0	2.5	/experiments/knapen_aot/videos/R_S_wc-hmW1OnCPF_xn_37.mp4	0.0	146.38828802108765	0.10006403923034668
23	73.32228207588196	fix_pre	0		45.0	21.0	2.5	/experiments/knapen_aot/videos/S_yt-QJ2k6vA8aco_12.mp4	0.0	146.488352060318	0.3749229907989502
23	73.6889910697937	response	0	4		21.0	2.5	/experiments/knapen_aot/videos/S_yt-QJ2k6vA8aco_12.mp4	0.0	146.85506105422974	
23	73.69720506668091	movie	1		301.0	21.0	2.5	/experiments/knapen_aot/videos/S_yt-QJ2k6vA8aco_12.mp4	0.0	146.86327505111694	2.508349895477295
23	75.4506139755249	response	1	4		21.0	2.5	/experiments/knapen_aot/videos/S_yt-QJ2k6vA8aco_12.mp4	0.0	148.61668395996094	
23	76.2055549621582	fix_post	2		12.0	21.0	2.5	/experiments/knapen_aot/videos/S_yt-QJ2k6vA8aco_12.mp4	0.0	149.37162494659424	0.09995317459106445
24	76.30550813674927	fix_pre	0		10.0	22.0	2.5	/experiments/knapen_aot/videos/S_pexels-koolshooters-7327405.mp4	0.0	149.4715781211853	0.0833439826965332
24	76.38099408149719	response	0	4		22.0	2.5	/experiments/knapen_aot/videos/S_pexels-koolshooters-7327405.mp4	0.0	149.54706406593323	
24	76.3888521194458	movie	1		164.0	22.0	2.5	/experiments/knapen_aot/videos/S_pexels-koolshooters-7327405.mp4	0.0	149.55492210388184	2.5083718299865723
24	78.89722394943237	fix_post	2		12.0	22.0	2.5	/experiments/knapen_aot/videos/S_pexels-koolshooters-7327405.mp4	0.0	152.0632939338684	0.10001420974731445
25	78.99723815917969	fix_pre	0		25.0	23.0	2.5	/experiments/knapen_aot/videos/R_S_yt-Pinnv3-3GFU_452.mp4	0.0	152.16330814361572	0.20826387405395508
25	79.19732403755188	response	0	4		23.0	2.5	/experiments/knapen_aot/videos/R_S_yt-Pinnv3-3GFU_452.mp4	0.0	152.36339402198792	
25	79.20550203323364	movie	1		301.0	23.0	2.5	/experiments/knapen_aot/videos/R_S_yt-Pinnv3-3GFU_452.mp4	0.0	152.37157201766968	2.5083489418029785
25	81.71385097503662	fix_post	2		12.0	23.0	2.5	/experiments/knapen_aot/videos/R_S_yt-Pinnv3-3GFU_452.mp4	0.0	154.87992095947266	0.09999608993530273
26	81.81384706497192	fix_pre	0		2.0	24.0	2.5	/experiments/knapen_aot/videos/R_S_yt-G_eNNzNB-hU_1.mp4	0.0	154.97991704940796	0.018667936325073242
26	81.82235312461853	response	0	4		24.0	2.5	/experiments/knapen_aot/videos/R_S_yt-G_eNNzNB-hU_1.mp4	0.0	154.98842310905457	
26	81.832515001297	movie	1		301.0	24.0	2.5	/experiments/knapen_aot/videos/R_S_yt-G_eNNzNB-hU_1.mp4	0.0	154.99858498573303	2.506610155105591
26	82.8010790348053	response	1	4		24.0	2.5	/experiments/knapen_aot/videos/R_S_yt-G_eNNzNB-hU_1.mp4	0.0	155.96714901924133	
26	83.54067897796631	response	1	4		24.0	2.5	/experiments/knapen_aot/videos/R_S_yt-G_eNNzNB-hU_1.mp4	0.0	156.70674896240234	
26	84.21691799163818	response	1	4		24.0	2.5	/experiments/knapen_aot/videos/R_S_yt-G_eNNzNB-hU_1.mp4	0.0	157.38298797607422	
26	84.33912515640259	fix_post	2		12.0	24.0	2.5	/experiments/knapen_aot/videos/R_S_yt-G_eNNzNB-hU_1.mp4	0.0	157.50519514083862	0.0996699333190918
27	84.43879508972168	fix_pre	0		33.0	25.0	2.5	/experiments/knapen_aot/videos/R_S_zAKvYNtmhuc_772.mp4	0.0	157.60486507415771	0.2752690315246582
27	84.70561599731445	response	0	4		25.0	2.5	/experiments/knapen_aot/videos/R_S_zAKvYNtmhuc_772.mp4	0.0	157.8716859817505	
27	84.71406412124634	movie	1		301.0	25.0	2.5	/experiments/knapen_aot/videos/R_S_zAKvYNtmhuc_772.mp4	0.0	157.88013410568237	2.508121967315674
27	87.22218608856201	fix_post	2		12.0	25.0	2.5	/experiments/knapen_aot/videos/R_S_zAKvYNtmhuc_772.mp4	0.0	160.38825607299805	0.09997701644897461
28	87.32216310501099	fix_pre	0		31.0	26.0	2.5	/experiments/knapen_aot/videos/S_yt-sxZ_ONShI7U_75.mp4	0.0	160.48823308944702	0.25834202766418457
28	87.56473302841187	response	0	4		26.0	2.5	/experiments/knapen_aot/videos/S_yt-sxZ_ONShI7U_75.mp4	0.0	160.7308030128479	
28	87.58050513267517	movie	1		301.0	26.0	2.5	/experiments/knapen_aot/videos/S_yt-sxZ_ONShI7U_75.mp4	0.0	160.7465751171112	2.5085859298706055
28	90.08909106254578	fix_post	2		12.0	26.0	2.5	/experiments/knapen_aot/videos/S_yt-sxZ_ONShI7U_75.mp4	0.0	163.2551610469818	0.09972190856933594
29	90.18881297111511	fix_pre	0		14.0	27.0	2.5	blank	1.0	163.35488295555115	0.11668705940246582
29	90.29727101325989	response	0	4		27.0	2.5	blank	1.0	163.46334099769592	
29	90.30550003051758	movie	1		301.0	27.0	2.5	blank	1.0	163.4715700149536	2.508289098739624
29	92.8137891292572	fix_post	2		12.0	27.0	2.5	blank	1.0	165.97985911369324	0.1000208854675293
30	92.91381001472473	fix_pre	0		122.0	28.0	2.5	/experiments/knapen_aot/videos/S_yt-zKnjBBYWe90_369.mp4	0.0	166.07987999916077	1.0166139602661133
30	93.92230606079102	response	0	4		28.0	2.5	/experiments/knapen_aot/videos/S_yt-zKnjBBYWe90_369.mp4	0.0	167.08837604522705	
30	93.93042397499084	movie	1		301.0	28.0	2.5	/experiments/knapen_aot/videos/S_yt-zKnjBBYWe90_369.mp4	0.0	167.09649395942688	2.5083000659942627
30	95.82526111602783	response	1	4		28.0	2.5	/experiments/knapen_aot/videos/S_yt-zKnjBBYWe90_369.mp4	0.0	168.99133110046387	
30	96.43872404098511	fix_post	2		12.0	28.0	2.5	/experiments/knapen_aot/videos/S_yt-zKnjBBYWe90_369.mp4	0.0	169.60479402542114	0.10002899169921875
31	96.53875303268433	fix_pre	0		47.0	29.0	2.5	/experiments/knapen_aot/videos/R_S_yt-tqxZlasEvZA_43.mp4	0.0	169.70482301712036	0.3916170597076416
31	96.92216205596924	response	0	4		29.0	2.5	/experiments/knapen_aot/videos/R_S_yt-tqxZlasEvZA_43.mp4	0.0	170.08823204040527	
31	96.93037009239197	movie	1		299.0	29.0	2.5	/experiments/knapen_aot/videos/R_S_yt-tqxZlasEvZA_43.mp4	0.0	170.096440076828	2.50827693939209
31	99.43864703178406	fix_post	2		12.0	29.0	2.5	/experiments/knapen_aot/videos/R_S_yt-tqxZlasEvZA_43.mp4	0.0	172.6047170162201	0.10170507431030273
31	99.53049612045288	response	2	4		29.0	2.5	/experiments/knapen_aot/videos/R_S_yt-tqxZlasEvZA_43.mp4	0.0	172.69656610488892	
32	99.54035210609436	fix_pre	0		54.0	30.0	2.5	/experiments/knapen_aot/videos/R_S_ILSVRC2015_train_00484001.mp4	0.0	172.7064220905304	0.4483349323272705
32	99.98048996925354	response	0	4		30.0	2.5	/experiments/knapen_aot/videos/R_S_ILSVRC2015_train_00484001.mp4	0.0	173.14655995368958	
32	99.98868703842163	movie	1		301.0	30.0	2.5	/experiments/knapen_aot/videos/R_S_ILSVRC2015_train_00484001.mp4	0.0	173.15475702285767	2.508423089981079
32	102.46378993988037	response	1	4		30.0	2.5	/experiments/knapen_aot/videos/R_S_ILSVRC2015_train_00484001.mp4	0.0	175.6298599243164	
32	102.49711012840271	fix_post	2		12.0	30.0	2.5	/experiments/knapen_aot/videos/R_S_ILSVRC2015_train_00484001.mp4	0.0	175.66318011283875	0.0998988151550293
33	102.59700894355774	fix_pre	0		110.0	31.0	2.5	/experiments/knapen_aot/videos/R_S_yt-yXJr3FR2xrM_27.mp4	0.0	175.76307892799377	0.9167029857635498
33	103.50540804862976	response	0	4		31.0	2.5	/experiments/knapen_aot/videos/R_S_yt-yXJr3FR2xrM_27.mp4	0.0	176.6714780330658	
33	103.51371192932129	movie	1		301.0	31.0	2.5	/experiments/knapen_aot/videos/R_S_yt-yXJr3FR2xrM_27.mp4	0.0	176.67978191375732	2.5083260536193848
33	106.02203798294067	fix_post	2		12.0	31.0	2.5	/experiments/knapen_aot/videos/R_S_yt-yXJr3FR2xrM_27.mp4	0.0	179.1881079673767	0.09995698928833008
34	106.121994972229	fix_pre	0		11.0	32.0	2.5	/experiments/knapen_aot/videos/R_S_yt-CXn1PGH67_s_20.mp4	0.0	179.28806495666504	0.09214210510253906
34	106.20568895339966	response	0	4		32.0	2.5	/experiments/knapen_aot/videos/R_S_yt-CXn1PGH67_s_20.mp4	0.0	179.3717589378357	
34	106.21413707733154	movie	1		301.0	32.0	2.5	/experiments/knapen_aot/videos/R_S_yt-CXn1PGH67_s_20.mp4	0.0	179.38020706176758	2.507943868637085
34	108.72208094596863	fix_post	2		12.0	32.0	2.5	/experiments/knapen_aot/videos/R_S_yt-CXn1PGH67_s_20.mp4	0.0	181.88815093040466	0.09990406036376953
35	108.8219850063324	fix_pre	0		17.0	33.0	2.5	/experiments/knapen_aot/videos/R_S_yt-sxZ_ONShI7U_75.mp4	0.0	181.98805499076843	0.14179396629333496
35	108.95553207397461	response	0	4		33.0	2.5	/experiments/knapen_aot/videos/R_S_yt-sxZ_ONShI7U_75.mp4	0.0	182.12160205841064	
35	108.96377897262573	movie	1		301.0	33.0	2.5	/experiments/knapen_aot/videos/R_S_yt-sxZ_ONShI7U_75.mp4	0.0	182.12984895706177	2.5082690715789795
35	111.47204804420471	fix_post	2		12.0	33.0	2.5	/experiments/knapen_aot/videos/R_S_yt-sxZ_ONShI7U_75.mp4	0.0	184.63811802864075	0.09997391700744629
36	111.57202196121216	fix_pre	0		52.0	34.0	2.5	blank	1.0	184.7380919456482	0.4334139823913574
36	111.99717497825623	response	0	4		34.0	2.5	blank	1.0	185.16324496269226	
36	112.00543594360352	movie	1		301.0	34.0	2.5	blank	1.0	185.17150592803955	2.5082430839538574
36	113.22215509414673	response	1	4		34.0	2.5	blank	1.0	186.38822507858276	
36	114.51367902755737	fix_post	2		12.0	34.0	2.5	blank	1.0	187.6797490119934	0.1000370979309082
37	114.61371612548828	fix_pre	0		54.0	35.0	2.5	/experiments/knapen_aot/videos/R_S_ILSVRC2015_train_00568000.mp4	0.0	187.77978610992432	0.4499800205230713
37	115.05550408363342	response	0	4		35.0	2.5	/experiments/knapen_aot/videos/R_S_ILSVRC2015_train_00568000.mp4	0.0	188.22157406806946	
37	115.06369614601135	movie	1		300.0	35.0	2.5	/experiments/knapen_aot/videos/R_S_ILSVRC2015_train_00568000.mp4	0.0	188.2297661304474	2.5083518028259277
37	117.57204794883728	fix_post	2		12.0	35.0	2.5	/experiments/knapen_aot/videos/R_S_ILSVRC2015_train_00568000.mp4	0.0	190.73811793327332	0.10013103485107422
38	117.67217898368835	fix_pre	0		10.0	36.0	2.5	/experiments/knapen_aot/videos/S_video-5.mp4	0.0	190.8382489681244	0.08325695991516113
38	117.74718809127808	response	0	4		36.0	2.5	/experiments/knapen_aot/videos/S_video-5.mp4	0.0	190.9132580757141	
38	117.75543594360352	movie	1		170.0	36.0	2.5	/experiments/knapen_aot/videos/S_video-5.mp4	0.0	190.92150592803955	2.508200168609619
38	120.26363611221313	fix_post	2		12.0	36.0	2.5	/experiments/knapen_aot/videos/S_video-5.mp4	0.0	193.42970609664917	0.10000205039978027
39	120.36363816261292	fix_pre	0		70.0	37.0	2.5	/experiments/knapen_aot/videos/S_yt-KV8X9IBWuJk_48.mp4	0.0	193.52970814704895	0.5833389759063721
39	120.93882703781128	response	0	4		37.0	2.5	/experiments/knapen_aot/videos/S_yt-KV8X9IBWuJk_48.mp4	0.0	194.10489702224731	
39	120.94697713851929	movie	1		301.0	37.0	2.5	/experiments/knapen_aot/videos/S_yt-KV8X9IBWuJk_48.mp4	0.0	194.11304712295532	2.50833797454834
39	123.45531511306763	fix_post	2		12.0	37.0	2.5	/experiments/knapen_aot/videos/S_yt-KV8X9IBWuJk_48.mp4	0.0	196.62138509750366	0.09988903999328613
40	123.55520415306091	fix_pre	0		33.0	38.0	2.5	/experiments/knapen_aot/videos/R_S_yt-ZE8Af60eNsI_15.mp4	0.0	196.72127413749695	0.2750678062438965
40	123.82217907905579	response	0	4		38.0	2.5	/experiments/knapen_aot/videos/R_S_yt-ZE8Af60eNsI_15.mp4	0.0	196.98824906349182	
40	123.83027195930481	movie	1		301.0	38.0	2.5	/experiments/knapen_aot/videos/R_S_yt-ZE8Af60eNsI_15.mp4	0.0	196.99634194374084	2.50835919380188
40	126.33863115310669	fix_post	2		12.0	38.0	2.5	/experiments/knapen_aot/videos/R_S_yt-ZE8Af60eNsI_15.mp4	0.0	199.50470113754272	0.1000058650970459
41	126.43863701820374	fix_pre	0		21.0	39.0	2.5	/experiments/knapen_aot/videos/S_video_inspire_california_big-sur_bixby_005.1080-h264.mp4	0.0	199.60470700263977	0.1749260425567627
41	126.60543608665466	response	0	4		39.0	2.5	/experiments/knapen_aot/videos/S_video_inspire_california_big-sur_bixby_005.1080-h264.mp4	0.0	199.7715060710907	
41	126.6135630607605	movie	1		167.0	39.0	2.5	/experiments/knapen_aot/videos/S_video_inspire_california_big-sur_bixby_005.1080-h264.mp4	0.0	199.77963304519653	2.5083959102630615
41	128.83744716644287	response	1	4		39.0	2.5	/experiments/knapen_aot/videos/S_video_inspire_california_big-sur_bixby_005.1080-h264.mp4	0.0	202.0035171508789	
41	129.12195897102356	fix_post	2		12.0	39.0	2.5	/experiments/knapen_aot/videos/S_video_inspire_california_big-sur_bixby_005.1080-h264.mp4	0.0	202.2880289554596	0.10002017021179199
42	129.22197914123535	fix_pre	0		134.0	40.0	2.5	/experiments/knapen_aot/videos/R_S_EFR8AteY59I_15.mp4	0.0	202.3880491256714	1.116628885269165
42	130.33044600486755	response	0	4		40.0	2.5	/experiments/knapen_aot/videos/R_S_EFR8AteY59I_15.mp4	0.0	203.4965159893036	
42	130.33860802650452	movie	1		301.0	40.0	2.5	/experiments/knapen_aot/videos/R_S_EFR8AteY59I_15.mp4	0.0	203.50467801094055	2.5083301067352295
42	132.84693813323975	fix_post	2		12.0	40.0	2.5	/experiments/knapen_aot/videos/R_S_EFR8AteY59I_15.mp4	0.0	206.01300811767578	0.1000359058380127
43	132.94697403907776	fix_pre	0		31.0	41.0	2.5	/experiments/knapen_aot/videos/S_ILSVRC2015_train_00441000.mp4	0.0	206.1130440235138	0.2583909034729004
43	133.19707798957825	response	0	4		41.0	2.5	/experiments/knapen_aot/videos/S_ILSVRC2015_train_00441000.mp4	0.0	206.36314797401428	
43	133.20536494255066	movie	1		301.0	41.0	2.5	/experiments/knapen_aot/videos/S_ILSVRC2015_train_00441000.mp4	0.0	206.3714349269867	2.5082430839538574
43	134.61660194396973	response	1	4		41.0	2.5	/experiments/knapen_aot/videos/S_ILSVRC2015_train_00441000.mp4	0.0	207.78267192840576	
43	135.71360802650452	fix_post	2		12.0	41.0	2.5	/experiments/knapen_aot/videos/S_ILSVRC2015_train_00441000.mp4	0.0	208.87967801094055	0.09998798370361328
44	135.81359601020813	fix_pre	0		32.0	42.0	2.5	blank	1.0	208.97966599464417	0.2666311264038086
44	136.07206892967224	response	0	4		42.0	2.5	blank	1.0	209.23813891410828	
44	136.08022713661194	movie	1		301.0	42.0	2.5	blank	1.0	209.24629712104797	2.508375883102417
44	138.58860301971436	fix_post	2		12.0	42.0	2.5	blank	1.0	211.7546730041504	0.09990406036376953
45	138.68850708007812	fix_pre	0		24.0	43.0	2.5	/experiments/knapen_aot/videos/R_S_yt-he_RSdeVinA_68.mp4	0.0	211.85457706451416	0.19997191429138184
45	138.88032412528992	response	0	4		43.0	2.5	/experiments/knapen_aot/videos/R_S_yt-he_RSdeVinA_68.mp4	0.0	212.04639410972595	
45	138.8884789943695	movie	1		301.0	43.0	2.5	/experiments/knapen_aot/videos/R_S_yt-he_RSdeVinA_68.mp4	0.0	212.05454897880554	2.508538007736206
45	141.3970170021057	fix_post	2		12.0	43.0	2.5	/experiments/knapen_aot/videos/R_S_yt-he_RSdeVinA_68.mp4	0.0	214.56308698654175	0.09989094734191895
46	141.49690794944763	fix_pre	0		46.0	44.0	2.5	/experiments/knapen_aot/videos/R_S_yt-OPzchvF7jO8_53.mp4	0.0	214.66297793388367	0.38327717781066895
46	141.87205815315247	response	0	4		44.0	2.5	/experiments/knapen_aot/videos/R_S_yt-OPzchvF7jO8_53.mp4	0.0	215.0381281375885	
46	141.8801851272583	movie	1		297.0	44.0	2.5	/experiments/knapen_aot/videos/R_S_yt-OPzchvF7jO8_53.mp4	0.0	215.04625511169434	2.5083060264587402
46	144.38849115371704	fix_post	2		12.0	44.0	2.5	/experiments/knapen_aot/videos/R_S_yt-OPzchvF7jO8_53.mp4	0.0	217.55456113815308	0.10004782676696777
47	144.488538980484	fix_pre	0		37.0	45.0	2.5	/experiments/knapen_aot/videos/R_S_yt-hekMMCluhnU_18.mp4	0.0	217.65460896492004	0.3083381652832031
47	144.78870105743408	response	0	4		45.0	2.5	/experiments/knapen_aot/videos/R_S_yt-hekMMCluhnU_18.mp4	0.0	217.95477104187012	
47	144.7968771457672	movie	1		301.0	45.0	2.5	/experiments/knapen_aot/videos/R_S_yt-hekMMCluhnU_18.mp4	0.0	217.96294713020325	2.508286952972412
47	147.30516409873962	fix_post	2		12.0	45.0	2.5	/experiments/knapen_aot/videos/R_S_yt-hekMMCluhnU_18.mp4	0.0	220.47123408317566	0.10002493858337402
48	147.405189037323	fix_pre	0		264.0	46.0	2.5	/experiments/knapen_aot/videos/S_ILSVRC2015_train_00251005.mp4	0.0	220.57125902175903	2.1999189853668213
48	149.59698700904846	response	0	4		46.0	2.5	/experiments/knapen_aot/videos/S_ILSVRC2015_train_00251005.mp4	0.0	222.7630569934845	
48	149.60510802268982	movie	1		299.0	46.0	2.5	/experiments/knapen_aot/videos/S_ILSVRC2015_train_00251005.mp4	0.0	222.77117800712585	2.5083861351013184
48	152.11349415779114	fix_post	2		12.0	46.0	2.5	/experiments/knapen_aot/videos/S_ILSVRC2015_train_00251005.mp4	0.0	225.27956414222717	0.10002994537353516
49	152.21352410316467	fix_pre	0		151.0	47.0	2.5	/experiments/knapen_aot/videos/R_S_m-aeoYPMqfg_185.mp4	0.0	225.3795940876007	1.2582499980926514
49	153.463721036911	response	0	4		47.0	2.5	/experiments/knapen_aot/videos/R_S_m-aeoYPMqfg_185.mp4	0.0	226.62979102134705	
49	153.47177410125732	movie	1		301.0	47.0	2.5	/experiments/knapen_aot/videos/R_S_m-aeoYPMqfg_185.mp4	0.0	226.63784408569336	2.5083060264587402
49	155.98008012771606	fix_post	2		12.0	47.0	2.5	/experiments/knapen_aot/videos/R_S_m-aeoYPMqfg_185.mp4	0.0	229.1461501121521	0.1001439094543457
50	156.0802240371704	fix_pre	0		222.0	48.0	2.5	/experiments/knapen_aot/videos/R_S_pexels-koolshooters-7327405.mp4	0.0	229.24629402160645	1.8498969078063965
50	157.9219491481781	response	0	4		48.0	2.5	/experiments/knapen_aot/videos/R_S_pexels-koolshooters-7327405.mp4	0.0	231.08801913261414	
50	157.9301209449768	movie	1		163.0	48.0	2.5	/experiments/knapen_aot/videos/R_S_pexels-koolshooters-7327405.mp4	0.0	231.09619092941284	2.5083720684051514
50	160.43849301338196	fix_post	2		10.0	48.0	2.5	/experiments/knapen_aot/videos/R_S_pexels-koolshooters-7327405.mp4	0.0	233.604562997818	0.10004210472106934
51	160.53853511810303	fix_pre	0		330.0	49.0	2.5	blank	1.0	233.70460510253906	2.749969959259033
51	163.2802791595459	response	0	4		49.0	2.5	blank	1.0	236.44634914398193	
51	163.28850507736206	movie	1		301.0	49.0	2.5	blank	1.0	236.4545750617981	2.5084359645843506
51	165.7969410419464	fix_post	2		12.0	49.0	2.5	blank	1.0	238.96301102638245	0.0998690128326416
52	165.89681005477905	fix_pre	0		38.0	50.0	2.5	/experiments/knapen_aot/videos/S_yt-EuyfT0PuOoQ_91.mp4	0.0	239.0628800392151	0.3166210651397705
52	166.2051169872284	response	0	4		50.0	2.5	/experiments/knapen_aot/videos/S_yt-EuyfT0PuOoQ_91.mp4	0.0	239.37118697166443	
52	166.21343111991882	movie	1		298.0	50.0	2.5	/experiments/knapen_aot/videos/S_yt-EuyfT0PuOoQ_91.mp4	0.0	239.37950110435486	2.5082998275756836
52	168.7217309474945	fix_post	2		12.0	50.0	2.5	/experiments/knapen_aot/videos/S_yt-EuyfT0PuOoQ_91.mp4	0.0	241.88780093193054	0.10009503364562988
53	168.82182598114014	fix_pre	0		67.0	51.0	2.5	/experiments/knapen_aot/videos/S_yt-YykKZWKmLnQ_386.mp4	0.0	241.98789596557617	0.5582320690155029
53	169.36442494392395	response	0	4		51.0	2.5	/experiments/knapen_aot/videos/S_yt-YykKZWKmLnQ_386.mp4	0.0	242.53049492835999	
53	169.38005805015564	movie	1		300.0	51.0	2.5	/experiments/knapen_aot/videos/S_yt-YykKZWKmLnQ_386.mp4	0.0	242.54612803459167	2.508323907852173
53	171.8883819580078	fix_post	2		12.0	51.0	2.5	/experiments/knapen_aot/videos/S_yt-YykKZWKmLnQ_386.mp4	0.0	245.05445194244385	0.10008120536804199
54	171.98846316337585	fix_pre	0		44.0	52.0	2.5	/experiments/knapen_aot/videos/S_pexels-tima-miroshnichenko-5717005.mp4	0.0	245.1545331478119	0.3666059970855713
54	172.34690809249878	response	0	4		52.0	2.5	/experiments/knapen_aot/videos/S_pexels-tima-miroshnichenko-5717005.mp4	0.0	245.51297807693481	
54	172.35506916046143	movie	1		164.0	52.0	2.5	/experiments/knapen_aot/videos/S_pexels-tima-miroshnichenko-5717005.mp4	0.0	245.52113914489746	2.5083329677581787
54	174.8634021282196	fix_post	2		12.0	52.0	2.5	/experiments/knapen_aot/videos/S_pexels-tima-miroshnichenko-5717005.mp4	0.0	248.02947211265564	0.0999748706817627
55	174.96337699890137	fix_pre	0		454.0	53.0	2.5	/experiments/knapen_aot/videos/S_ILSVRC2015_train_00743006.mp4	0.0	248.1294469833374	3.78330397605896
55	178.73844194412231	response	0	4		53.0	2.5	/experiments/knapen_aot/videos/S_ILSVRC2015_train_00743006.mp4	0.0	251.90451192855835	
55	178.74668097496033	movie	1		301.0	53.0	2.5	/experiments/knapen_aot/videos/S_ILSVRC2015_train_00743006.mp4	0.0	251.91275095939636	2.5083789825439453
55	181.25505995750427	fix_post	2		12.0	53.0	2.5	/experiments/knapen_aot/videos/S_ILSVRC2015_train_00743006.mp4	0.0	254.4211299419403	0.09990811347961426
56	181.3549680709839	fix_pre	0		83.0	54.0	2.5	blank	1.0	254.52103805541992	0.6917738914489746
56	182.03855299949646	response	0	4		54.0	2.5	blank	1.0	255.2046229839325	
56	182.04674196243286	movie	1		301.0	54.0	2.5	blank	1.0	255.2128119468689	2.5082759857177734
56	184.55501794815063	fix_post	2		12.0	54.0	2.5	blank	1.0	257.72108793258667	0.09994816780090332
57	184.65496611595154	fix_pre	0		79.0	55.0	2.5	/experiments/knapen_aot/videos/S_comp_A001_C001_120530_v04_SDR_FINAL_20180706_SDR_2K_AVC.mp4	0.0	257.8210361003876	0.6584110260009766
57	185.29771995544434	response	0	4		55.0	2.5	/experiments/knapen_aot/videos/S_comp_A001_C001_120530_v04_SDR_FINAL_20180706_SDR_2K_AVC.mp4	0.0	258.46378993988037	
57	185.31337714195251	movie	1		166.0	55.0	2.5	/experiments/knapen_aot/videos/S_comp_A001_C001_120530_v04_SDR_FINAL_20180706_SDR_2K_AVC.mp4	0.0	258.47944712638855	2.508309841156006
57	187.82168698310852	fix_post	2		12.0	55.0	2.5	/experiments/knapen_aot/videos/S_comp_A001_C001_120530_v04_SDR_FINAL_20180706_SDR_2K_AVC.mp4	0.0	260.98775696754456	0.10004806518554688
58	187.92173504829407	fix_pre	0		280.0	56.0	2.5	/experiments/knapen_aot/videos/S_yt-CeOZeB1LXwE_79.mp4	0.0	261.0878050327301	2.333275079727173
58	190.2468340396881	response	0	4		56.0	2.5	/experiments/knapen_aot/videos/S_yt-CeOZeB1LXwE_79.mp4	0.0	263.41290402412415	
58	190.25501012802124	movie	1		301.0	56.0	2.5	/experiments/knapen_aot/videos/S_yt-CeOZeB1LXwE_79.mp4	0.0	263.4210801124573	2.5083279609680176
58	192.3728380203247	response	1	4		56.0	2.5	/experiments/knapen_aot/videos/S_yt-CeOZeB1LXwE_79.mp4	0.0	265.53890800476074	
58	192.76333808898926	fix_post	2		12.0	56.0	2.5	/experiments/knapen_aot/videos/S_yt-CeOZeB1LXwE_79.mp4	0.0	265.9294080734253	0.09993386268615723
59	192.86327195167542	fix_pre	0		8.0	57.0	2.5	/experiments/knapen_aot/videos/R_S_yt-qurTr1BJMec_244.mp4	0.0	266.02934193611145	0.06673812866210938
59	192.921865940094	response	0	4		57.0	2.5	/experiments/knapen_aot/videos/R_S_yt-qurTr1BJMec_244.mp4	0.0	266.08793592453003	
59	192.93001008033752	movie	1		301.0	57.0	2.5	/experiments/knapen_aot/videos/R_S_yt-qurTr1BJMec_244.mp4	0.0	266.09608006477356	2.508315086364746
59	195.43832516670227	fix_post	2		12.0	57.0	2.5	/experiments/knapen_aot/videos/R_S_yt-qurTr1BJMec_244.mp4	0.0	268.6043951511383	0.09997987747192383
60	195.5383050441742	fix_pre	0		20.0	58.0	2.5	/experiments/knapen_aot/videos/R_S_AK_A004_C012_SDR_20191217_SDR_2K_AVC.mp4	0.0	268.70437502861023	0.16773700714111328
60	195.69675302505493	response	0	4		58.0	2.5	/experiments/knapen_aot/videos/R_S_AK_A004_C012_SDR_20191217_SDR_2K_AVC.mp4	0.0	268.86282300949097	
60	195.7060420513153	movie	1		164.0	58.0	2.5	/experiments/knapen_aot/videos/R_S_AK_A004_C012_SDR_20191217_SDR_2K_AVC.mp4	0.0	268.87211203575134	2.507236957550049
60	197.98016810417175	response	1	4		58.0	2.5	/experiments/knapen_aot/videos/R_S_AK_A004_C012_SDR_20191217_SDR_2K_AVC.mp4	0.0	271.1462380886078	
60	198.21327900886536	fix_post	2		12.0	58.0	2.5	/experiments/knapen_aot/videos/R_S_AK_A004_C012_SDR_20191217_SDR_2K_AVC.mp4	0.0	271.3793489933014	0.10004615783691406
61	198.31332516670227	fix_pre	0		17.0	59.0	2.5	/experiments/knapen_aot/videos/R_S_yt-ybH6uAiFbjc_273.mp4	0.0	271.4793951511383	0.14274287223815918
61	198.44677805900574	response	0	4		59.0	2.5	/experiments/knapen_aot/videos/R_S_yt-ybH6uAiFbjc_273.mp4	0.0	271.6128480434418	
61	198.45606803894043	movie	1		301.0	59.0	2.5	/experiments/knapen_aot/videos/R_S_yt-ybH6uAiFbjc_273.mp4	0.0	271.62213802337646	2.5072219371795654
61	200.96328997612	fix_post	2		12.0	59.0	2.5	/experiments/knapen_aot/videos/R_S_yt-ybH6uAiFbjc_273.mp4	0.0	274.12935996055603	0.10003209114074707
62	201.06332206726074	fix_pre	0		33.0	60.0	2.5	/experiments/knapen_aot/videos/R_S_yt-s73Xqkcq9Js_285.mp4	0.0	274.2293920516968	0.27498698234558105
62	201.3225700855255	response	0	4		60.0	2.5	/experiments/knapen_aot/videos/R_S_yt-s73Xqkcq9Js_285.mp4	0.0	274.48864006996155	
62	201.33830904960632	movie	1		301.0	60.0	2.5	/experiments/knapen_aot/videos/R_S_yt-s73Xqkcq9Js_285.mp4	0.0	274.50437903404236	2.5083909034729004
62	203.84669995307922	fix_post	2		12.0	60.0	2.5	/experiments/knapen_aot/videos/R_S_yt-s73Xqkcq9Js_285.mp4	0.0	277.01276993751526	0.09994912147521973
63	203.94664907455444	fix_pre	0		8.0	61.0	2.5	/experiments/knapen_aot/videos/R_S_video-5.mp4	0.0	277.1127190589905	0.06666707992553711
63	204.00509595870972	response	0	4		61.0	2.5	/experiments/knapen_aot/videos/R_S_video-5.mp4	0.0	277.17116594314575	
63	204.01331615447998	movie	1		171.0	61.0	2.5	/experiments/knapen_aot/videos/R_S_video-5.mp4	0.0	277.179386138916	2.5083539485931396
63	206.52167010307312	fix_post	2		12.0	61.0	2.5	/experiments/knapen_aot/videos/R_S_video-5.mp4	0.0	279.68774008750916	0.1000368595123291
63	206.53950095176697	response	2	4		61.0	2.5	/experiments/knapen_aot/videos/R_S_video-5.mp4	0.0	279.705570936203	
64	206.62170696258545	fix_pre	0		39.0	62.0	2.5	/experiments/knapen_aot/videos/S_yt-CXn1PGH67_s_20.mp4	0.0	279.7877769470215	0.3249239921569824
64	206.93838500976562	response	0	4		62.0	2.5	/experiments/knapen_aot/videos/S_yt-CXn1PGH67_s_20.mp4	0.0	280.10445499420166	
64	206.94663095474243	movie	1		301.0	62.0	2.5	/experiments/knapen_aot/videos/S_yt-CXn1PGH67_s_20.mp4	0.0	280.11270093917847	2.508366107940674
64	209.4549970626831	fix_post	2		12.0	62.0	2.5	/experiments/knapen_aot/videos/S_yt-CXn1PGH67_s_20.mp4	0.0	282.62106704711914	0.10002708435058594
65	209.5550241470337	fix_pre	0		14.0	63.0	2.5	blank	1.0	282.7210941314697	0.11665701866149902
65	209.66341400146484	response	0	4		63.0	2.5	blank	1.0	282.8294839859009	
65	209.6716811656952	movie	1		301.0	63.0	2.5	blank	1.0	282.8377511501312	2.508309841156006
65	212.1799910068512	fix_post	2		12.0	63.0	2.5	blank	1.0	285.34606099128723	0.09998607635498047
66	212.27997708320618	fix_pre	0		29.0	64.0	2.5	/experiments/knapen_aot/videos/S_yt-Wf-RauSbVgA_56.mp4	0.0	285.4460470676422	0.24159598350524902
66	212.51342797279358	response	0	4		64.0	2.5	/experiments/knapen_aot/videos/S_yt-Wf-RauSbVgA_56.mp4	0.0	285.6794979572296	
66	212.52157306671143	movie	1		301.0	64.0	2.5	/experiments/knapen_aot/videos/S_yt-Wf-RauSbVgA_56.mp4	0.0	285.68764305114746	2.5083580017089844
66	215.0299310684204	fix_post	2		12.0	64.0	2.5	/experiments/knapen_aot/videos/S_yt-Wf-RauSbVgA_56.mp4	0.0	288.19600105285645	0.09999704360961914
67	215.12992811203003	fix_pre	0		20.0	65.0	2.5	/experiments/knapen_aot/videos/S_ILSVRC2015_train_00524001.mp4	0.0	288.29599809646606	0.16662883758544922
67	215.28826999664307	response	0	4		65.0	2.5	/experiments/knapen_aot/videos/S_ILSVRC2015_train_00524001.mp4	0.0	288.4543399810791	
67	215.29655694961548	movie	1		301.0	65.0	2.5	/experiments/knapen_aot/videos/S_ILSVRC2015_train_00524001.mp4	0.0	288.4626269340515	2.5083820819854736
67	217.80493903160095	fix_post	2		12.0	65.0	2.5	/experiments/knapen_aot/videos/S_ILSVRC2015_train_00524001.mp4	0.0	290.971009016037	0.10000205039978027
68	217.90494108200073	fix_pre	0		20.0	66.0	2.5	/experiments/knapen_aot/videos/S_yt-Ek1jcvett9E_33.mp4	0.0	291.07101106643677	0.16661596298217773
68	218.06339597702026	response	0	4		66.0	2.5	/experiments/knapen_aot/videos/S_yt-Ek1jcvett9E_33.mp4	0.0	291.2294659614563	
68	218.0715570449829	movie	1		300.0	66.0	2.5	/experiments/knapen_aot/videos/S_yt-Ek1jcvett9E_33.mp4	0.0	291.23762702941895	2.5082719326019287
68	220.57982897758484	fix_post	2		12.0	66.0	2.5	/experiments/knapen_aot/videos/S_yt-Ek1jcvett9E_33.mp4	0.0	293.7458989620209	0.1000981330871582
69	220.679927110672	fix_pre	0		64.0	67.0	2.5	/experiments/knapen_aot/videos/S_yt-Jo6PxivsTOg_247.mp4	0.0	293.84599709510803	0.5332629680633545
69	221.20505714416504	response	0	4		67.0	2.5	/experiments/knapen_aot/videos/S_yt-Jo6PxivsTOg_247.mp4	0.0	294.3711271286011	
69	221.21319007873535	movie	1		301.0	67.0	2.5	/experiments/knapen_aot/videos/S_yt-Jo6PxivsTOg_247.mp4	0.0	294.3792600631714	2.5083799362182617
69	223.7215700149536	fix_post	2		12.0	67.0	2.5	/experiments/knapen_aot/videos/S_yt-Jo6PxivsTOg_247.mp4	0.0	296.88763999938965	0.09998893737792969
70	223.82155895233154	fix_pre	0		259.0	68.0	2.5	/experiments/knapen_aot/videos/S_yt-zam74qlzGtQ_122.mp4	0.0	296.9876289367676	2.158398151397705
70	225.9716989994049	response	0	4		68.0	2.5	/experiments/knapen_aot/videos/S_yt-zam74qlzGtQ_122.mp4	0.0	299.13776898384094	
70	225.97995710372925	movie	1		298.0	68.0	2.5	/experiments/knapen_aot/videos/S_yt-zam74qlzGtQ_122.mp4	0.0	299.1460270881653	2.5082650184631348
70	228.48822212219238	fix_post	2		12.0	68.0	2.5	/experiments/knapen_aot/videos/S_yt-zam74qlzGtQ_122.mp4	0.0	301.6542921066284	0.09987497329711914
71	228.5880970954895	fix_pre	0		11.0	69.0	2.5	/experiments/knapen_aot/videos/S_yt-IlW1U39Dga4_5.mp4	0.0	301.75416707992554	0.0916900634765625
71	228.67171216011047	response	0	4		69.0	2.5	/experiments/knapen_aot/videos/S_yt-IlW1U39Dga4_5.mp4	0.0	301.8377821445465	
71	228.67978715896606	movie	1		301.0	69.0	2.5	/experiments/knapen_aot/videos/S_yt-IlW1U39Dga4_5.mp4	0.0	301.8458571434021	2.5083107948303223
71	230.0632929801941	response	1	4		69.0	2.5	/experiments/knapen_aot/videos/S_yt-IlW1U39Dga4_5.mp4	0.0	303.2293629646301	
71	231.1880979537964	fix_post	2		11.0	69.0	2.5	/experiments/knapen_aot/videos/S_yt-IlW1U39Dga4_5.mp4	0.0	304.3541679382324	0.10009407997131348
72	231.2881920337677	fix_pre	0		54.0	70.0	2.5	blank	1.0	304.45426201820374	0.4499540328979492
72	231.7299680709839	response	0	4		70.0	2.5	blank	1.0	304.8960380554199	
72	231.73814606666565	movie	1		301.0	70.0	2.5	blank	1.0	304.9042160511017	2.5083200931549072
72	234.24646615982056	fix_post	2		12.0	70.0	2.5	blank	1.0	307.4125361442566	0.1000528335571289
73	234.34651899337769	fix_pre	0		37.0	71.0	2.5	/experiments/knapen_aot/videos/S_video-5.mp4	0.0	307.5125889778137	0.308319091796875
73	234.6466190814972	response	0	4		71.0	2.5	/experiments/knapen_aot/videos/S_video-5.mp4	0.0	307.8126890659332	
73	234.65483808517456	movie	1		170.0	71.0	2.5	/experiments/knapen_aot/videos/S_video-5.mp4	0.0	307.8209080696106	2.5082809925079346
73	235.98769807815552	response	1	4		71.0	2.5	/experiments/knapen_aot/videos/S_video-5.mp4	0.0	309.15376806259155	
73	237.1631190776825	fix_post	2		12.0	71.0	2.5	/experiments/knapen_aot/videos/S_video-5.mp4	0.0	310.32918906211853	0.10007190704345703
74	237.26319098472595	fix_pre	0		70.0	72.0	2.5	/experiments/knapen_aot/videos/R_S_yt-7VVzNnp36DM_62.mp4	0.0	310.429260969162	0.5833091735839844
74	237.8383059501648	response	0	4		72.0	2.5	/experiments/knapen_aot/videos/R_S_yt-7VVzNnp36DM_62.mp4	0.0	311.00437593460083	
74	237.84650015830994	movie	1		301.0	72.0	2.5	/experiments/knapen_aot/videos/R_S_yt-7VVzNnp36DM_62.mp4	0.0	311.012570142746	2.5083038806915283
74	239.53921008110046	response	1	4		72.0	2.5	/experiments/knapen_aot/videos/R_S_yt-7VVzNnp36DM_62.mp4	0.0	312.7052800655365	
74	240.35480403900146	fix_post	2		12.0	72.0	2.5	/experiments/knapen_aot/videos/R_S_yt-7VVzNnp36DM_62.mp4	0.0	313.5208740234375	0.10004806518554688
75	240.454852104187	fix_pre	0		12.0	73.0	2.5	/experiments/knapen_aot/videos/S_yt-xBwq6sHHF5M_21.mp4	0.0	313.62092208862305	0.09991192817687988
75	240.54656314849854	response	0	4		73.0	2.5	/experiments/knapen_aot/videos/S_yt-xBwq6sHHF5M_21.mp4	0.0	313.71263313293457	
75	240.5547640323639	movie	1		301.0	73.0	2.5	/experiments/knapen_aot/videos/S_yt-xBwq6sHHF5M_21.mp4	0.0	313.7208340167999	2.50832200050354
75	243.06308603286743	fix_post	2		12.0	73.0	2.5	/experiments/knapen_aot/videos/S_yt-xBwq6sHHF5M_21.mp4	0.0	316.22915601730347	0.10004997253417969
76	243.1631360054016	fix_pre	0		192.0	74.0	2.5	/experiments/knapen_aot/videos/S_yt-y2RUPYKfBZs_12.mp4	0.0	316.32920598983765	1.5999360084533691
76	244.7549331188202	response	0	4		74.0	2.5	/experiments/knapen_aot/videos/S_yt-y2RUPYKfBZs_12.mp4	0.0	317.9210031032562	
76	244.76307201385498	movie	1		301.0	74.0	2.5	/experiments/knapen_aot/videos/S_yt-y2RUPYKfBZs_12.mp4	0.0	317.929141998291	2.5083560943603516
76	246.31322813034058	response	1	4		74.0	2.5	/experiments/knapen_aot/videos/S_yt-y2RUPYKfBZs_12.mp4	0.0	319.4792981147766	
76	247.27142810821533	fix_post	2		12.0	74.0	2.5	/experiments/knapen_aot/videos/S_yt-y2RUPYKfBZs_12.mp4	0.0	320.43749809265137	0.10006999969482422
76	247.30503606796265	response	2	4		74.0	2.5	/experiments/knapen_aot/videos/S_yt-y2RUPYKfBZs_12.mp4	0.0	320.4711060523987	
77	247.37149810791016	fix_pre	0		369.0	75.0	2.5	/experiments/knapen_aot/videos/S_wc-hmW1OnCPF_xn_37.mp4	0.0	320.5375680923462	3.0748908519744873
77	250.4381251335144	response	0	4		75.0	2.5	/experiments/knapen_aot/videos/S_wc-hmW1OnCPF_xn_37.mp4	0.0	323.60419511795044	
77	250.44638895988464	movie	1		167.0	75.0	2.5	/experiments/knapen_aot/videos/S_wc-hmW1OnCPF_xn_37.mp4	0.0	323.6124589443207	2.508419990539551
77	252.9548089504242	fix_post	2		12.0	75.0	2.5	/experiments/knapen_aot/videos/S_wc-hmW1OnCPF_xn_37.mp4	0.0	326.12087893486023	0.10001611709594727
78	253.05482506752014	fix_pre	0		26.0	76.0	2.5	/experiments/knapen_aot/videos/S_ILSVRC2015_train_00568000.mp4	0.0	326.2208950519562	0.21662688255310059
78	253.2632119655609	response	0	4		76.0	2.5	/experiments/knapen_aot/videos/S_ILSVRC2015_train_00568000.mp4	0.0	326.42928194999695	
78	253.27145195007324	movie	1		301.0	76.0	2.5	/experiments/knapen_aot/videos/S_ILSVRC2015_train_00568000.mp4	0.0	326.4375219345093	2.508357048034668
78	255.7798089981079	fix_post	2		12.0	76.0	2.5	/experiments/knapen_aot/videos/S_ILSVRC2015_train_00568000.mp4	0.0	328.94587898254395	0.09998106956481934
79	255.87979006767273	fix_pre	0		19.0	77.0	2.5	blank	1.0	329.04586005210876	0.15910696983337402
79	256.0223741531372	response	0	4		77.0	2.5	blank	1.0	329.18844413757324	
79	256.0388970375061	movie	1		301.0	77.0	2.5	blank	1.0	329.20496702194214	2.5075340270996094
79	258.5464310646057	fix_post	2		12.0	77.0	2.5	blank	1.0	331.71250104904175	0.09992408752441406
80	258.6463551521301	fix_pre	0		67.0	78.0	2.5	/experiments/knapen_aot/videos/R_S_ILSVRC2015_train_00601000.mp4	0.0	331.81242513656616	0.5591938495635986
80	259.19645595550537	response	0	4		78.0	2.5	/experiments/knapen_aot/videos/R_S_ILSVRC2015_train_00601000.mp4	0.0	332.3625259399414	
80	259.2055490016937	movie	1		301.0	78.0	2.5	/experiments/knapen_aot/videos/R_S_ILSVRC2015_train_00601000.mp4	0.0	332.37161898612976	2.507460117340088
80	261.7130091190338	fix_post	2		12.0	78.0	2.5	/experiments/knapen_aot/videos/R_S_ILSVRC2015_train_00601000.mp4	0.0	334.87907910346985	0.09999203681945801
81	261.81300115585327	fix_pre	0		481.0	79.0	2.5	/experiments/knapen_aot/videos/S_yt-9CY7rDYBYUI_40.mp4	0.0	334.9790711402893	4.008342981338501
81	265.81308603286743	response	0	4		79.0	2.5	/experiments/knapen_aot/videos/S_yt-9CY7rDYBYUI_40.mp4	0.0	338.97915601730347	
81	265.8213441371918	movie	1		301.0	79.0	2.5	/experiments/knapen_aot/videos/S_yt-9CY7rDYBYUI_40.mp4	0.0	338.9874141216278	2.508358955383301
81	268.3297030925751	fix_post	2		12.0	79.0	2.5	/experiments/knapen_aot/videos/S_yt-9CY7rDYBYUI_40.mp4	0.0	341.4957730770111	0.10002398490905762
82	268.42972707748413	fix_pre	0		566.0	80.0	2.5	/experiments/knapen_aot/videos/S_ILSVRC2015_train_00042003.mp4	0.0	341.59579706192017	4.716625928878784
82	273.13063311576843	response	0	4		80.0	2.5	/experiments/knapen_aot/videos/S_ILSVRC2015_train_00042003.mp4	0.0	346.29670310020447	
82	273.1463530063629	movie	1		301.0	80.0	2.5	/experiments/knapen_aot/videos/S_ILSVRC2015_train_00042003.mp4	0.0	346.31242299079895	2.5083329677581787
82	275.6546859741211	fix_post	2		12.0	80.0	2.5	/experiments/knapen_aot/videos/S_ILSVRC2015_train_00042003.mp4	0.0	348.82075595855713	0.10000896453857422
83	275.75469493865967	fix_pre	0		21.0	81.0	2.5	/experiments/knapen_aot/videos/S_yt-fQGoTMausn8_88.mp4	0.0	348.9207649230957	0.17497801780700684
83	275.9213719367981	response	0	4		81.0	2.5	/experiments/knapen_aot/videos/S_yt-fQGoTMausn8_88.mp4	0.0	349.08744192123413	
83	275.9296729564667	movie	1		301.0	81.0	2.5	/experiments/knapen_aot/videos/S_yt-fQGoTMausn8_88.mp4	0.0	349.0957429409027	2.5082921981811523
83	278.4379651546478	fix_post	2		12.0	81.0	2.5	/experiments/knapen_aot/videos/S_yt-fQGoTMausn8_88.mp4	0.0	351.60403513908386	0.10003280639648438
83	278.5131311416626	response	2	4		81.0	2.5	/experiments/knapen_aot/videos/S_yt-fQGoTMausn8_88.mp4	0.0	351.67920112609863	
84	278.5379979610443	fix_pre	0		63.0	82.0	2.5	/experiments/knapen_aot/videos/R_S_production_ID_4325509.mp4	0.0	351.70406794548035	0.5249621868133545
84	279.0546889305115	response	0	4		82.0	2.5	/experiments/knapen_aot/videos/R_S_production_ID_4325509.mp4	0.0	352.2207589149475	
84	279.06296014785767	movie	1		208.0	82.0	2.5	/experiments/knapen_aot/videos/R_S_production_ID_4325509.mp4	0.0	352.2290301322937	2.508328914642334
84	281.5712890625	fix_post	2		12.0	82.0	2.5	/experiments/knapen_aot/videos/R_S_production_ID_4325509.mp4	0.0	354.73735904693604	0.10002589225769043
84	281.5729911327362	response	2	4		82.0	2.5	/experiments/knapen_aot/videos/R_S_production_ID_4325509.mp4	0.0	354.73906111717224	
85	281.6713149547577	fix_pre	0		43.0	83.0	2.5	blank	1.0	354.8373849391937	0.35835719108581543
85	282.0138249397278	response	0	4		83.0	2.5	blank	1.0	355.1798949241638	
85	282.0296721458435	movie	1		301.0	83.0	2.5	blank	1.0	355.19574213027954	2.508248805999756
85	284.53792095184326	fix_post	2		12.0	83.0	2.5	blank	1.0	357.7039909362793	0.10004019737243652
87	284.6379611492157	stim	0		185.0					357.80403113365173	1.5416259765625
87	284.7214159965515	response	0	4						357.88748598098755	
87	286.1755270957947	response	0	space						359.3415970802307	
