trial_nr	onset	event_type	phase	response	nr_frames	movie_index	movie_duration	movie_file	blank	onset_abs	duration
0	0.15902304649353027	stim	0		41.0					66.98812294006348	0.34113287925720215
0	0.4855959415435791	response	0	space						67.31469583511353	
1	0.5001559257507324	stim	0		121.0					67.32925581932068	1.0079550743103027
1	1.5081110000610352	stim	1		120.0					68.33721089363098	0.9999570846557617
1	1.6082789897918701	response	1	space						68.43737888336182	
1	2.274811029434204	response	1	space						69.10391092300415	
2	2.508068084716797	fix_pre	0		80.0	0.0	2.5	/experiments/knapen_aot/videos/S_yt-2dRSJcaJIXw_32.mp4	0.0	69.33716797828674	0.6666719913482666
2	3.16658091545105	response	0	space		0.0	2.5	/experiments/knapen_aot/videos/S_yt-2dRSJcaJIXw_32.mp4	0.0	69.995680809021	
2	3.1747400760650635	movie	1		301.0	0.0	2.5	/experiments/knapen_aot/videos/S_yt-2dRSJcaJIXw_32.mp4	0.0	70.00383996963501	2.508342981338501
2	5.6830830574035645	fix_post	2		12.0	0.0	2.5	/experiments/knapen_aot/videos/S_yt-2dRSJcaJIXw_32.mp4	0.0	72.51218295097351	0.1000509262084961
3	5.7831339836120605	fix_pre	0		20.0	1.0	2.5	/experiments/knapen_aot/videos/S_yt-Fci3dBzt2T4_223.mp4	0.0	72.612233877182	0.16659998893737793
3	5.945455074310303	response	0	2		1.0	2.5	/experiments/knapen_aot/videos/S_yt-Fci3dBzt2T4_223.mp4	0.0	72.77455496788025	
3	5.9497339725494385	movie	1		294.0	1.0	2.5	/experiments/knapen_aot/videos/S_yt-Fci3dBzt2T4_223.mp4	0.0	72.77883386611938	2.5083301067352295
3	8.458064079284668	fix_post	2		12.0	1.0	2.5	/experiments/knapen_aot/videos/S_yt-Fci3dBzt2T4_223.mp4	0.0	75.28716397285461	0.10001087188720703
4	8.558074951171875	fix_pre	0		7.0	2.0	2.5	/experiments/knapen_aot/videos/S_yt-JmmyeMOFpII_29.mp4	0.0	75.38717484474182	0.058279991149902344
4	8.608262062072754	response	0	2		2.0	2.5	/experiments/knapen_aot/videos/S_yt-JmmyeMOFpII_29.mp4	0.0	75.4373619556427	
4	8.616354942321777	movie	1		301.0	2.0	2.5	/experiments/knapen_aot/videos/S_yt-JmmyeMOFpII_29.mp4	0.0	75.44545483589172	2.508389949798584
4	11.124744892120361	fix_post	2		12.0	2.0	2.5	/experiments/knapen_aot/videos/S_yt-JmmyeMOFpII_29.mp4	0.0	77.95384478569031	0.09996819496154785
5	11.22471308708191	fix_pre	0		6.0	3.0	2.5	/experiments/knapen_aot/videos/S_ILSVRC2015_train_00524001.mp4	0.0	78.05381298065186	0.05040693283081055
5	11.259361028671265	response	0	2		3.0	2.5	/experiments/knapen_aot/videos/S_ILSVRC2015_train_00524001.mp4	0.0	78.08846092224121	
5	11.27512001991272	movie	1		301.0	3.0	2.5	/experiments/knapen_aot/videos/S_ILSVRC2015_train_00524001.mp4	0.0	78.10421991348267	2.5077760219573975
5	13.782896041870117	fix_post	2		12.0	3.0	2.5	/experiments/knapen_aot/videos/S_ILSVRC2015_train_00524001.mp4	0.0	80.61199593544006	0.1000509262084961
6	13.882946968078613	fix_pre	0		3.0	4.0	2.5	/experiments/knapen_aot/videos/R_S_Ds4EKTLx_RI_51.mp4	0.0	80.71204686164856	0.025065898895263672
6	13.900255918502808	response	0	2		4.0	2.5	/experiments/knapen_aot/videos/R_S_Ds4EKTLx_RI_51.mp4	0.0	80.72935581207275	
6	13.908012866973877	movie	1		301.0	4.0	2.5	/experiments/knapen_aot/videos/R_S_Ds4EKTLx_RI_51.mp4	0.0	80.73711276054382	2.5083022117614746
6	16.41631507873535	fix_post	2		12.0	4.0	2.5	/experiments/knapen_aot/videos/R_S_Ds4EKTLx_RI_51.mp4	0.0	83.2454149723053	0.10002684593200684
6	16.499722003936768	response	2	2		4.0	2.5	/experiments/knapen_aot/videos/R_S_Ds4EKTLx_RI_51.mp4	0.0	83.32882189750671	
7	16.51634192466736	fix_pre	0		39.0	5.0	2.5	/experiments/knapen_aot/videos/S_yt-nYi_FfCjepk_74.mp4	0.0	83.3454418182373	0.3249399662017822
7	16.833049058914185	response	0	2		5.0	2.5	/experiments/knapen_aot/videos/S_yt-nYi_FfCjepk_74.mp4	0.0	83.66214895248413	
7	16.84128189086914	movie	1		301.0	5.0	2.5	/experiments/knapen_aot/videos/S_yt-nYi_FfCjepk_74.mp4	0.0	83.67038178443909	2.5084311962127686
7	19.34971308708191	fix_post	2		12.0	5.0	2.5	/experiments/knapen_aot/videos/S_yt-nYi_FfCjepk_74.mp4	0.0	86.17881298065186	0.09993696212768555
8	19.449650049209595	fix_pre	0		7.0	6.0	2.5	/experiments/knapen_aot/videos/R_S_yt-LZS1RrEtTeQ_136.mp4	0.0	86.27874994277954	0.058319807052612305
8	19.499738931655884	response	0	2		6.0	2.5	/experiments/knapen_aot/videos/R_S_yt-LZS1RrEtTeQ_136.mp4	0.0	86.32883882522583	
8	19.507969856262207	movie	1		301.0	6.0	2.5	/experiments/knapen_aot/videos/R_S_yt-LZS1RrEtTeQ_136.mp4	0.0	86.33706974983215	2.508275032043457
8	22.016244888305664	fix_post	2		12.0	6.0	2.5	/experiments/knapen_aot/videos/R_S_yt-LZS1RrEtTeQ_136.mp4	0.0	88.84534478187561	0.10001516342163086
9	22.116260051727295	fix_pre	0		9.0	7.0	2.5	blank	1.0	88.94535994529724	0.07534599304199219
9	22.18310308456421	response	0	2		7.0	2.5	blank	1.0	89.01220297813416	
9	22.191606044769287	movie	1		301.0	7.0	2.5	blank	1.0	89.02070593833923	2.507982015609741
9	24.233031034469604	response	1	2		7.0	2.5	blank	1.0	91.06213092803955	
9	24.491277933120728	response	1	2		7.0	2.5	blank	1.0	91.32037782669067	
9	24.69958806037903	fix_post	2		12.0	7.0	2.5	blank	1.0	91.52868795394897	0.0999758243560791
10	24.799563884735107	fix_pre	0		21.0	8.0	2.5	/experiments/knapen_aot/videos/R_S_yt-FsXOl6JjzSY_15.mp4	0.0	91.62866377830505	0.17496919631958008
10	24.966336011886597	response	0	2		8.0	2.5	/experiments/knapen_aot/videos/R_S_yt-FsXOl6JjzSY_15.mp4	0.0	91.79543590545654	
10	24.974533081054688	movie	1		299.0	8.0	2.5	/experiments/knapen_aot/videos/R_S_yt-FsXOl6JjzSY_15.mp4	0.0	91.80363297462463	2.5083179473876953
10	27.482851028442383	fix_post	2		12.0	8.0	2.5	/experiments/knapen_aot/videos/R_S_yt-FsXOl6JjzSY_15.mp4	0.0	94.31195092201233	0.10007190704345703
11	27.58292293548584	fix_pre	0		9.0	9.0	2.5	/experiments/knapen_aot/videos/R_S_yt-Zn0YwrsCFOQ_44.mp4	0.0	94.41202282905579	0.07499504089355469
11	27.649695873260498	response	0	2		9.0	2.5	/experiments/knapen_aot/videos/R_S_yt-Zn0YwrsCFOQ_44.mp4	0.0	94.47879576683044	
11	27.657917976379395	movie	1		301.0	9.0	2.5	/experiments/knapen_aot/videos/R_S_yt-Zn0YwrsCFOQ_44.mp4	0.0	94.48701786994934	2.508370876312256
11	30.16628885269165	fix_post	2		12.0	9.0	2.5	/experiments/knapen_aot/videos/R_S_yt-Zn0YwrsCFOQ_44.mp4	0.0	96.9953887462616	0.0999610424041748
12	30.266249895095825	fix_pre	0		14.0	10.0	2.5	/experiments/knapen_aot/videos/S_comp_DB_D001_C001_PSNK_v06_SDR_PS_20180824_SDR_2K_AVC.mp4	0.0	97.09534978866577	0.11666512489318848
12	30.37468385696411	response	0	2		10.0	2.5	/experiments/knapen_aot/videos/S_comp_DB_D001_C001_PSNK_v06_SDR_PS_20180824_SDR_2K_AVC.mp4	0.0	97.20378375053406	
12	30.382915019989014	movie	1		167.0	10.0	2.5	/experiments/knapen_aot/videos/S_comp_DB_D001_C001_PSNK_v06_SDR_PS_20180824_SDR_2K_AVC.mp4	0.0	97.21201491355896	2.5083000659942627
12	32.891215085983276	fix_post	2		12.0	10.0	2.5	/experiments/knapen_aot/videos/S_comp_DB_D001_C001_PSNK_v06_SDR_PS_20180824_SDR_2K_AVC.mp4	0.0	99.72031497955322	0.10006999969482422
13	32.9912850856781	fix_pre	0		3.0	11.0	2.5	/experiments/knapen_aot/videos/S_yt-n1snPiGfg0A_45.mp4	0.0	99.82038497924805	0.024892807006835938
13	33.00110697746277	response	0	2		11.0	2.5	/experiments/knapen_aot/videos/S_yt-n1snPiGfg0A_45.mp4	0.0	99.83020687103271	
13	33.01617789268494	movie	1		301.0	11.0	2.5	/experiments/knapen_aot/videos/S_yt-n1snPiGfg0A_45.mp4	0.0	99.84527778625488	2.5083861351013184
13	35.524564027786255	fix_post	2		12.0	11.0	2.5	/experiments/knapen_aot/videos/S_yt-n1snPiGfg0A_45.mp4	0.0	102.3536639213562	0.10003900527954102
14	35.624603033065796	fix_pre	0		18.0	12.0	2.5	blank	1.0	102.45370292663574	0.15033197402954102
14	35.76635789871216	response	0	2		12.0	2.5	blank	1.0	102.5954577922821	
14	35.77493500709534	movie	1		301.0	12.0	2.5	blank	1.0	102.60403490066528	2.5079939365386963
14	38.28292894363403	fix_post	2		12.0	12.0	2.5	blank	1.0	105.11202883720398	0.09995412826538086
15	38.382883071899414	fix_pre	0		18.0	13.0	2.5	/experiments/knapen_aot/videos/S_ILSVRC2015_train_00165008.mp4	0.0	105.21198296546936	0.15004181861877441
15	38.524779081344604	response	0	2		13.0	2.5	/experiments/knapen_aot/videos/S_ILSVRC2015_train_00165008.mp4	0.0	105.35387897491455	
15	38.53292489051819	movie	1		301.0	13.0	2.5	/experiments/knapen_aot/videos/S_ILSVRC2015_train_00165008.mp4	0.0	105.36202478408813	2.508284091949463
15	41.04120898246765	fix_post	2		12.0	13.0	2.5	/experiments/knapen_aot/videos/S_ILSVRC2015_train_00165008.mp4	0.0	107.8703088760376	0.10003900527954102
16	41.14124798774719	fix_pre	0		1.0	14.0	2.5	/experiments/knapen_aot/videos/S_yt-5hgLXyLw82w_23.mp4	0.0	107.97034788131714	0.008634090423583984
16	41.14286494255066	response	0	2		14.0	2.5	/experiments/knapen_aot/videos/S_yt-5hgLXyLw82w_23.mp4	0.0	107.9719648361206	
16	41.149882078170776	movie	1		299.0	14.0	2.5	/experiments/knapen_aot/videos/S_yt-5hgLXyLw82w_23.mp4	0.0	107.97898197174072	2.50795578956604
16	43.657837867736816	fix_post	2		12.0	14.0	2.5	/experiments/knapen_aot/videos/S_yt-5hgLXyLw82w_23.mp4	0.0	110.48693776130676	0.1000361442565918
17	43.75787401199341	fix_pre	0		12.0	15.0	2.5	/experiments/knapen_aot/videos/S_video_copy.mp4	0.0	110.58697390556335	0.10020804405212402
17	43.849639892578125	response	0	2		15.0	2.5	/experiments/knapen_aot/videos/S_video_copy.mp4	0.0	110.67873978614807	
17	43.85808205604553	movie	1		165.0	15.0	2.5	/experiments/knapen_aot/videos/S_video_copy.mp4	0.0	110.68718194961548	2.5080928802490234
17	46.366174936294556	fix_post	2		12.0	15.0	2.5	/experiments/knapen_aot/videos/S_video_copy.mp4	0.0	113.1952748298645	0.09994292259216309
18	46.46611785888672	fix_pre	0		14.0	16.0	2.5	/experiments/knapen_aot/videos/S_yt-zSSnQYeO_DE_338.mp4	0.0	113.29521775245667	0.11672306060791016
18	46.57454299926758	response	0	2		16.0	2.5	/experiments/knapen_aot/videos/S_yt-zSSnQYeO_DE_338.mp4	0.0	113.40364289283752	
18	46.58284091949463	movie	1		301.0	16.0	2.5	/experiments/knapen_aot/videos/S_yt-zSSnQYeO_DE_338.mp4	0.0	113.41194081306458	2.5083391666412354
18	49.091180086135864	fix_post	2		12.0	16.0	2.5	/experiments/knapen_aot/videos/S_yt-zSSnQYeO_DE_338.mp4	0.0	115.92027997970581	0.1002187728881836
19	49.19139885902405	fix_pre	0		15.0	17.0	2.5	/experiments/knapen_aot/videos/R_S_yt-n1snPiGfg0A_45.mp4	0.0	116.020498752594	0.12495303153991699
19	49.307947874069214	response	0	2		17.0	2.5	/experiments/knapen_aot/videos/R_S_yt-n1snPiGfg0A_45.mp4	0.0	116.13704776763916	
19	49.316351890563965	movie	1		301.0	17.0	2.5	/experiments/knapen_aot/videos/R_S_yt-n1snPiGfg0A_45.mp4	0.0	116.14545178413391	2.5082080364227295
19	51.824559926986694	fix_post	2		12.0	17.0	2.5	/experiments/knapen_aot/videos/R_S_yt-n1snPiGfg0A_45.mp4	0.0	118.65365982055664	0.09994912147521973
19	51.89960289001465	response	2	2		17.0	2.5	/experiments/knapen_aot/videos/R_S_yt-n1snPiGfg0A_45.mp4	0.0	118.7287027835846	
20	51.924509048461914	fix_pre	0		34.0	18.0	2.5	/experiments/knapen_aot/videos/S_yt-YEiNSML5iiQ_18.mp4	0.0	118.75360894203186	0.28327298164367676
20	52.199568033218384	response	0	2		18.0	2.5	/experiments/knapen_aot/videos/S_yt-YEiNSML5iiQ_18.mp4	0.0	119.02866792678833	
20	52.20778203010559	movie	1		301.0	18.0	2.5	/experiments/knapen_aot/videos/S_yt-YEiNSML5iiQ_18.mp4	0.0	119.03688192367554	2.508340835571289
20	54.71612286567688	fix_post	2		12.0	18.0	2.5	/experiments/knapen_aot/videos/S_yt-YEiNSML5iiQ_18.mp4	0.0	121.54522275924683	0.10017704963684082
21	54.81629991531372	fix_pre	0		1.0	19.0	2.5	/experiments/knapen_aot/videos/R_S_comp_DB_D002_C003_PSNK_v04_SDR_PS_20180914_SDR_2K_AVC.mp4	0.0	121.64539980888367	0.00820016860961914
21	54.817972898483276	response	0	2		19.0	2.5	/experiments/knapen_aot/videos/R_S_comp_DB_D002_C003_PSNK_v04_SDR_PS_20180914_SDR_2K_AVC.mp4	0.0	121.64707279205322	
21	54.82450008392334	movie	1		166.0	19.0	2.5	/experiments/knapen_aot/videos/R_S_comp_DB_D002_C003_PSNK_v04_SDR_PS_20180914_SDR_2K_AVC.mp4	0.0	121.65359997749329	2.50832200050354
21	57.33282208442688	fix_post	2		12.0	19.0	2.5	/experiments/knapen_aot/videos/R_S_comp_DB_D002_C003_PSNK_v04_SDR_PS_20180914_SDR_2K_AVC.mp4	0.0	124.16192197799683	0.09996891021728516
21	57.37464499473572	response	2	2		19.0	2.5	/experiments/knapen_aot/videos/R_S_comp_DB_D002_C003_PSNK_v04_SDR_PS_20180914_SDR_2K_AVC.mp4	0.0	124.20374488830566	
22	57.432790994644165	fix_pre	0		24.0	20.0	2.5	/experiments/knapen_aot/videos/R_S_ILSVRC2015_train_00638000.mp4	0.0	124.26189088821411	0.19997286796569824
22	57.6245219707489	response	0	2		20.0	2.5	/experiments/knapen_aot/videos/R_S_ILSVRC2015_train_00638000.mp4	0.0	124.45362186431885	
22	57.63276386260986	movie	1		301.0	20.0	2.5	/experiments/knapen_aot/videos/R_S_ILSVRC2015_train_00638000.mp4	0.0	124.46186375617981	2.5083541870117188
22	60.14111804962158	fix_post	2		12.0	20.0	2.5	/experiments/knapen_aot/videos/R_S_ILSVRC2015_train_00638000.mp4	0.0	126.97021794319153	0.09995603561401367
22	60.16627502441406	response	2	2		20.0	2.5	/experiments/knapen_aot/videos/R_S_ILSVRC2015_train_00638000.mp4	0.0	126.99537491798401	
23	60.241074085235596	fix_pre	0		35.0	21.0	2.5	blank	1.0	127.07017397880554	0.29166483879089355
23	60.524534940719604	response	0	2		21.0	2.5	blank	1.0	127.35363483428955	
23	60.53273892402649	movie	1		301.0	21.0	2.5	blank	1.0	127.36183881759644	2.5083229541778564
23	63.041061878204346	fix_post	2		12.0	21.0	2.5	blank	1.0	129.8701617717743	0.10000205039978027
23	63.09128403663635	response	2	2		21.0	2.5	blank	1.0	129.9203839302063	
24	63.141063928604126	fix_pre	0		21.0	22.0	2.5	/experiments/knapen_aot/videos/R_S_yt-1RVw8p6Dw2Q_20.mp4	0.0	129.97016382217407	0.17516803741455078
24	63.307929039001465	response	0	2		22.0	2.5	/experiments/knapen_aot/videos/R_S_yt-1RVw8p6Dw2Q_20.mp4	0.0	130.1370289325714	
24	63.31623196601868	movie	1		300.0	22.0	2.5	/experiments/knapen_aot/videos/R_S_yt-1RVw8p6Dw2Q_20.mp4	0.0	130.14533185958862	2.508223056793213
24	65.82445502281189	fix_post	2		12.0	22.0	2.5	/experiments/knapen_aot/videos/R_S_yt-1RVw8p6Dw2Q_20.mp4	0.0	132.65355491638184	0.09992384910583496
24	65.88288593292236	response	2	2		22.0	2.5	/experiments/knapen_aot/videos/R_S_yt-1RVw8p6Dw2Q_20.mp4	0.0	132.7119858264923	
25	65.92437887191772	fix_pre	0		37.0	23.0	2.5	/experiments/knapen_aot/videos/S_Ds4EKTLx_RI_51.mp4	0.0	132.75347876548767	0.3085930347442627
25	66.22456097602844	response	0	2		23.0	2.5	/experiments/knapen_aot/videos/S_Ds4EKTLx_RI_51.mp4	0.0	133.0536608695984	
25	66.23297190666199	movie	1		301.0	23.0	2.5	/experiments/knapen_aot/videos/S_Ds4EKTLx_RI_51.mp4	0.0	133.06207180023193	2.5080831050872803
25	68.74105501174927	fix_post	2		12.0	23.0	2.5	/experiments/knapen_aot/videos/S_Ds4EKTLx_RI_51.mp4	0.0	135.5701549053192	0.10002684593200684
25	68.75792407989502	response	2	2		23.0	2.5	/experiments/knapen_aot/videos/S_Ds4EKTLx_RI_51.mp4	0.0	135.58702397346497	
26	68.84108185768127	fix_pre	0		27.0	24.0	2.5	/experiments/knapen_aot/videos/S_yt-T7RmOAme5dU_213.mp4	0.0	135.67018175125122	0.2250981330871582
26	69.05785989761353	response	0	2		24.0	2.5	/experiments/knapen_aot/videos/S_yt-T7RmOAme5dU_213.mp4	0.0	135.88695979118347	
26	69.06617999076843	movie	1		301.0	24.0	2.5	/experiments/knapen_aot/videos/S_yt-T7RmOAme5dU_213.mp4	0.0	135.89527988433838	2.508275032043457
26	71.57445502281189	fix_post	2		12.0	24.0	2.5	/experiments/knapen_aot/videos/S_yt-T7RmOAme5dU_213.mp4	0.0	138.40355491638184	0.09998798370361328
27	71.6744430065155	fix_pre	0		4.0	25.0	2.5	/experiments/knapen_aot/videos/R_S_yt-O6W6CZPXvlA_15.mp4	0.0	138.50354290008545	0.033284902572631836
27	71.70022487640381	response	0	2		25.0	2.5	/experiments/knapen_aot/videos/R_S_yt-O6W6CZPXvlA_15.mp4	0.0	138.52932476997375	
27	71.70772790908813	movie	1		301.0	25.0	2.5	/experiments/knapen_aot/videos/R_S_yt-O6W6CZPXvlA_15.mp4	0.0	138.53682780265808	2.508294105529785
27	74.21602201461792	fix_post	2		12.0	25.0	2.5	/experiments/knapen_aot/videos/R_S_yt-O6W6CZPXvlA_15.mp4	0.0	141.04512190818787	0.10007691383361816
28	74.31609892845154	fix_pre	0		6.0	26.0	2.5	/experiments/knapen_aot/videos/S_comp_L010_C006_PS_v01_SDR_PS_20180925_SDR_2K_AVC.mp4	0.0	141.14519882202148	0.04998898506164551
28	74.35841608047485	response	0	2		26.0	2.5	/experiments/knapen_aot/videos/S_comp_L010_C006_PS_v01_SDR_PS_20180925_SDR_2K_AVC.mp4	0.0	141.1875159740448	
28	74.36608791351318	movie	1		167.0	26.0	2.5	/experiments/knapen_aot/videos/S_comp_L010_C006_PS_v01_SDR_PS_20180925_SDR_2K_AVC.mp4	0.0	141.19518780708313	2.5083119869232178
28	76.8743999004364	fix_post	2		12.0	26.0	2.5	/experiments/knapen_aot/videos/S_comp_L010_C006_PS_v01_SDR_PS_20180925_SDR_2K_AVC.mp4	0.0	143.70349979400635	0.09998798370361328
29	76.97438788414001	fix_pre	0		15.0	27.0	2.5	/experiments/knapen_aot/videos/R_S_yt-GBt59U0KUR0_6.mp4	0.0	143.80348777770996	0.12496519088745117
29	77.09120297431946	response	0	2		27.0	2.5	/experiments/knapen_aot/videos/R_S_yt-GBt59U0KUR0_6.mp4	0.0	143.9203028678894	
29	77.09935307502747	movie	1		301.0	27.0	2.5	/experiments/knapen_aot/videos/R_S_yt-GBt59U0KUR0_6.mp4	0.0	143.9284529685974	2.5084049701690674
29	79.60775804519653	fix_post	2		12.0	27.0	2.5	/experiments/knapen_aot/videos/R_S_yt-GBt59U0KUR0_6.mp4	0.0	146.43685793876648	0.09985089302062988
29	79.69953894615173	response	2	2		27.0	2.5	/experiments/knapen_aot/videos/R_S_yt-GBt59U0KUR0_6.mp4	0.0	146.52863883972168	
30	79.70760893821716	fix_pre	0		39.0	28.0	2.5	blank	1.0	146.5367088317871	0.32509398460388184
30	80.0244779586792	response	0	2		28.0	2.5	blank	1.0	146.85357785224915	
30	80.03270292282104	movie	1		301.0	28.0	2.5	blank	1.0	146.861802816391	2.508302927017212
30	82.54100584983826	fix_post	2		12.0	28.0	2.5	blank	1.0	149.3701057434082	0.09991621971130371
31	82.64092206954956	fix_pre	0		18.0	29.0	2.5	/experiments/knapen_aot/videos/R_S_Oo8otu7cQ20_112.mp4	0.0	149.4700219631195	0.1500709056854248
31	82.77529191970825	response	0	2		29.0	2.5	/experiments/knapen_aot/videos/R_S_Oo8otu7cQ20_112.mp4	0.0	149.6043918132782	
31	82.79099297523499	movie	1		301.0	29.0	2.5	/experiments/knapen_aot/videos/R_S_Oo8otu7cQ20_112.mp4	0.0	149.62009286880493	2.508349895477295
31	85.29934287071228	fix_post	2		12.0	29.0	2.5	/experiments/knapen_aot/videos/R_S_Oo8otu7cQ20_112.mp4	0.0	152.12844276428223	0.10001516342163086
32	85.39935803413391	fix_pre	0		12.0	30.0	2.5	/experiments/knapen_aot/videos/S_BO_A012_C031_SDR_20190726_SDR_2K_AVC.mp4	0.0	152.22845792770386	0.09998202323913574
32	85.49116086959839	response	0	2		30.0	2.5	/experiments/knapen_aot/videos/S_BO_A012_C031_SDR_20190726_SDR_2K_AVC.mp4	0.0	152.32026076316833	
32	85.49934005737305	movie	1		166.0	30.0	2.5	/experiments/knapen_aot/videos/S_BO_A012_C031_SDR_20190726_SDR_2K_AVC.mp4	0.0	152.328439950943	2.5083489418029785
32	88.00768899917603	fix_post	2		12.0	30.0	2.5	/experiments/knapen_aot/videos/S_BO_A012_C031_SDR_20190726_SDR_2K_AVC.mp4	0.0	154.83678889274597	0.09999895095825195
33	88.10768795013428	fix_pre	0		8.0	31.0	2.5	/experiments/knapen_aot/videos/R_S_yt-waWM9vAfsIw_116.mp4	0.0	154.93678784370422	0.06660199165344238
33	88.16615986824036	response	0	2		31.0	2.5	/experiments/knapen_aot/videos/R_S_yt-waWM9vAfsIw_116.mp4	0.0	154.9952597618103	
33	88.17428994178772	movie	1		301.0	31.0	2.5	/experiments/knapen_aot/videos/R_S_yt-waWM9vAfsIw_116.mp4	0.0	155.00338983535767	2.5083250999450684
33	90.68261504173279	fix_post	2		12.0	31.0	2.5	/experiments/knapen_aot/videos/R_S_yt-waWM9vAfsIw_116.mp4	0.0	157.51171493530273	0.10009193420410156
34	90.78270697593689	fix_pre	0		23.0	32.0	2.5	/experiments/knapen_aot/videos/R_S_yt-lazG9z4VQAw_99.mp4	0.0	157.61180686950684	0.19162201881408691
34	90.96615195274353	response	0	2		32.0	2.5	/experiments/knapen_aot/videos/R_S_yt-lazG9z4VQAw_99.mp4	0.0	157.79525184631348	
34	90.97432899475098	movie	1		301.0	32.0	2.5	/experiments/knapen_aot/videos/R_S_yt-lazG9z4VQAw_99.mp4	0.0	157.80342888832092	2.5083229541778564
34	93.48265194892883	fix_post	2		12.0	32.0	2.5	/experiments/knapen_aot/videos/R_S_yt-lazG9z4VQAw_99.mp4	0.0	160.31175184249878	0.1000211238861084
35	93.58267307281494	fix_pre	0		15.0	33.0	2.5	/experiments/knapen_aot/videos/R_S_yt-Dwgpjoikt84_122.mp4	0.0	160.4117729663849	0.12488198280334473
35	93.69938087463379	response	0	2		33.0	2.5	/experiments/knapen_aot/videos/R_S_yt-Dwgpjoikt84_122.mp4	0.0	160.52848076820374	
35	93.70755505561829	movie	1		301.0	33.0	2.5	/experiments/knapen_aot/videos/R_S_yt-Dwgpjoikt84_122.mp4	0.0	160.53665494918823	2.5083658695220947
35	96.21592092514038	fix_post	2		12.0	33.0	2.5	/experiments/knapen_aot/videos/R_S_yt-Dwgpjoikt84_122.mp4	0.0	163.04502081871033	0.10002398490905762
36	96.31594491004944	fix_pre	0		18.0	34.0	2.5	/experiments/knapen_aot/videos/R_S_yt-zam74qlzGtQ_122.mp4	0.0	163.14504480361938	0.14998412132263184
36	96.45779991149902	response	0	2		34.0	2.5	/experiments/knapen_aot/videos/R_S_yt-zam74qlzGtQ_122.mp4	0.0	163.28689980506897	
36	96.46592903137207	movie	1		301.0	34.0	2.5	/experiments/knapen_aot/videos/R_S_yt-zam74qlzGtQ_122.mp4	0.0	163.29502892494202	2.5083508491516113
36	98.97427988052368	fix_post	2		12.0	34.0	2.5	/experiments/knapen_aot/videos/R_S_yt-zam74qlzGtQ_122.mp4	0.0	165.80337977409363	0.09995102882385254
37	99.07423090934753	fix_pre	0		9.0	35.0	2.5	blank	1.0	165.90333080291748	0.07505917549133301
37	99.14111399650574	response	0	2		35.0	2.5	blank	1.0	165.97021389007568	
37	99.14929008483887	movie	1		301.0	35.0	2.5	blank	1.0	165.9783899784088	2.5082948207855225
37	101.65758490562439	fix_post	2		12.0	35.0	2.5	blank	1.0	168.48668479919434	0.10001802444458008
38	101.75760293006897	fix_pre	0		36.0	36.0	2.5	/experiments/knapen_aot/videos/S_yt-XBAU3cq0rZs_150.mp4	0.0	168.58670282363892	0.2999401092529297
38	102.04938793182373	response	0	2		36.0	2.5	/experiments/knapen_aot/videos/S_yt-XBAU3cq0rZs_150.mp4	0.0	168.87848782539368	
38	102.0575430393219	movie	1		301.0	36.0	2.5	/experiments/knapen_aot/videos/S_yt-XBAU3cq0rZs_150.mp4	0.0	168.88664293289185	2.5084149837493896
38	104.56595802307129	fix_post	2		12.0	36.0	2.5	/experiments/knapen_aot/videos/S_yt-XBAU3cq0rZs_150.mp4	0.0	171.39505791664124	0.09996390342712402
39	104.66592192649841	fix_pre	0		7.0	37.0	2.5	/experiments/knapen_aot/videos/S_yt-Fci3dBzt2T4_223.mp4	0.0	171.49502182006836	0.05964803695678711
39	104.71605086326599	response	0	2		37.0	2.5	/experiments/knapen_aot/videos/S_yt-Fci3dBzt2T4_223.mp4	0.0	171.54515075683594	
39	104.7255699634552	movie	1		301.0	37.0	2.5	/experiments/knapen_aot/videos/S_yt-Fci3dBzt2T4_223.mp4	0.0	171.55466985702515	2.50700306892395
39	107.23257303237915	fix_post	2		12.0	37.0	2.5	/experiments/knapen_aot/videos/S_yt-Fci3dBzt2T4_223.mp4	0.0	174.0616729259491	0.10001587867736816
40	107.33258891105652	fix_pre	0		16.0	38.0	2.5	/experiments/knapen_aot/videos/R_S_yt-RMjo2PPEPEA_112.mp4	0.0	174.16168880462646	0.13336610794067383
40	107.45773506164551	response	0	2		38.0	2.5	/experiments/knapen_aot/videos/R_S_yt-RMjo2PPEPEA_112.mp4	0.0	174.28683495521545	
40	107.46595501899719	movie	1		301.0	38.0	2.5	/experiments/knapen_aot/videos/R_S_yt-RMjo2PPEPEA_112.mp4	0.0	174.29505491256714	2.508296012878418
40	109.97425103187561	fix_post	2		12.0	38.0	2.5	/experiments/knapen_aot/videos/R_S_yt-RMjo2PPEPEA_112.mp4	0.0	176.80335092544556	0.10004186630249023
41	110.0742928981781	fix_pre	0		7.0	39.0	2.5	/experiments/knapen_aot/videos/S_yt-GjFQxAklviE_25.mp4	0.0	176.90339279174805	0.05828714370727539
41	110.12452101707458	response	0	2		39.0	2.5	/experiments/knapen_aot/videos/S_yt-GjFQxAklviE_25.mp4	0.0	176.95362091064453	
41	110.13258004188538	movie	1		301.0	39.0	2.5	/experiments/knapen_aot/videos/S_yt-GjFQxAklviE_25.mp4	0.0	176.96167993545532	2.508316993713379
41	112.64089703559875	fix_post	2		12.0	39.0	2.5	/experiments/knapen_aot/videos/S_yt-GjFQxAklviE_25.mp4	0.0	179.4699969291687	0.09993100166320801
42	112.74082803726196	fix_pre	0		17.0	40.0	2.5	/experiments/knapen_aot/videos/R_S_yt-RMjo2PPEPEA_112.mp4	0.0	179.5699279308319	0.14174103736877441
42	112.87438297271729	response	0	2		40.0	2.5	/experiments/knapen_aot/videos/R_S_yt-RMjo2PPEPEA_112.mp4	0.0	179.70348286628723	
42	112.88256907463074	movie	1		301.0	40.0	2.5	/experiments/knapen_aot/videos/R_S_yt-RMjo2PPEPEA_112.mp4	0.0	179.71166896820068	2.508373975753784
42	115.39094305038452	fix_post	2		12.0	40.0	2.5	/experiments/knapen_aot/videos/R_S_yt-RMjo2PPEPEA_112.mp4	0.0	182.22004294395447	0.09993982315063477
43	115.49088287353516	fix_pre	0		10.0	41.0	2.5	blank	1.0	182.3199827671051	0.08333516120910645
43	115.55894303321838	response	0	2		41.0	2.5	blank	1.0	182.38804292678833	
43	115.57421803474426	movie	1		301.0	41.0	2.5	blank	1.0	182.4033179283142	2.508488893508911
43	118.08270692825317	fix_post	2		12.0	41.0	2.5	blank	1.0	184.91180682182312	0.09987306594848633
44	118.18257999420166	fix_pre	0		21.0	42.0	2.5	/experiments/knapen_aot/videos/R_S_comp_A105_C002_v06_SDR_FINAL_25062018_SDR_2K_AVC.mp4	0.0	185.0116798877716	0.1749570369720459
44	118.34932088851929	response	0	2		42.0	2.5	/experiments/knapen_aot/videos/R_S_comp_A105_C002_v06_SDR_FINAL_25062018_SDR_2K_AVC.mp4	0.0	185.17842078208923	
44	118.3575370311737	movie	1		167.0	42.0	2.5	/experiments/knapen_aot/videos/R_S_comp_A105_C002_v06_SDR_FINAL_25062018_SDR_2K_AVC.mp4	0.0	185.18663692474365	2.5083608627319336
44	120.86589789390564	fix_post	2		12.0	42.0	2.5	/experiments/knapen_aot/videos/R_S_comp_A105_C002_v06_SDR_FINAL_25062018_SDR_2K_AVC.mp4	0.0	187.6949977874756	0.09998202323913574
45	120.96587991714478	fix_pre	0		3.0	43.0	2.5	/experiments/knapen_aot/videos/S_ILSVRC2015_train_00569006.mp4	0.0	187.79497981071472	0.02502608299255371
45	120.98269891738892	response	0	2		43.0	2.5	/experiments/knapen_aot/videos/S_ILSVRC2015_train_00569006.mp4	0.0	187.81179881095886	
45	120.99090600013733	movie	1		301.0	43.0	2.5	/experiments/knapen_aot/videos/S_ILSVRC2015_train_00569006.mp4	0.0	187.82000589370728	2.508342981338501
45	123.49924898147583	fix_post	2		12.0	43.0	2.5	/experiments/knapen_aot/videos/S_ILSVRC2015_train_00569006.mp4	0.0	190.32834887504578	0.10004210472106934
46	123.5992910861969	fix_pre	0		3.0	44.0	2.5	/experiments/knapen_aot/videos/S_yt-ni4JaYu7PhU_6.mp4	0.0	190.42839097976685	0.02493000030517578
46	123.61598706245422	response	0	2		44.0	2.5	/experiments/knapen_aot/videos/S_yt-ni4JaYu7PhU_6.mp4	0.0	190.44508695602417	
46	123.62422108650208	movie	1		301.0	44.0	2.5	/experiments/knapen_aot/videos/S_yt-ni4JaYu7PhU_6.mp4	0.0	190.45332098007202	2.5082848072052
46	126.13250589370728	fix_post	2		12.0	44.0	2.5	/experiments/knapen_aot/videos/S_yt-ni4JaYu7PhU_6.mp4	0.0	192.96160578727722	0.09998703002929688
47	126.23249292373657	fix_pre	0		13.0	45.0	2.5	/experiments/knapen_aot/videos/R_S_ILSVRC2015_train_00417000.mp4	0.0	193.06159281730652	0.10830211639404297
47	126.33269190788269	response	0	2		45.0	2.5	/experiments/knapen_aot/videos/R_S_ILSVRC2015_train_00417000.mp4	0.0	193.16179180145264	
47	126.34079504013062	movie	1		301.0	45.0	2.5	/experiments/knapen_aot/videos/R_S_ILSVRC2015_train_00417000.mp4	0.0	193.16989493370056	2.508262872695923
47	128.84905791282654	fix_post	2		12.0	45.0	2.5	/experiments/knapen_aot/videos/R_S_ILSVRC2015_train_00417000.mp4	0.0	195.67815780639648	0.10010695457458496
48	128.94916486740112	fix_pre	0		10.0	46.0	2.5	/experiments/knapen_aot/videos/R_S_production_ID_3967181.mp4	0.0	195.77826476097107	0.08327412605285645
48	129.0242829322815	response	0	2		46.0	2.5	/experiments/knapen_aot/videos/R_S_production_ID_3967181.mp4	0.0	195.85338282585144	
48	129.03243899345398	movie	1		194.0	46.0	2.5	/experiments/knapen_aot/videos/R_S_production_ID_3967181.mp4	0.0	195.86153888702393	2.508439064025879
48	131.54087805747986	fix_post	2		12.0	46.0	2.5	/experiments/knapen_aot/videos/R_S_production_ID_3967181.mp4	0.0	198.3699779510498	0.09994792938232422
49	131.64082598686218	fix_pre	0		12.0	47.0	2.5	blank	1.0	198.46992588043213	0.09997391700744629
49	131.7326500415802	response	0	2		47.0	2.5	blank	1.0	198.56174993515015	
49	131.74079990386963	movie	1		301.0	47.0	2.5	blank	1.0	198.56989979743958	2.508366107940674
49	134.2491660118103	fix_post	2		12.0	47.0	2.5	blank	1.0	201.07826590538025	0.09994196891784668
50	134.34910798072815	fix_pre	0		17.0	48.0	2.5	/experiments/knapen_aot/videos/S_yt-2XRGfGc0q44_37.mp4	0.0	201.1782078742981	0.14165902137756348
50	134.48260807991028	response	0	2		48.0	2.5	/experiments/knapen_aot/videos/S_yt-2XRGfGc0q44_37.mp4	0.0	201.31170797348022	
50	134.4907670021057	movie	1		301.0	48.0	2.5	/experiments/knapen_aot/videos/S_yt-2XRGfGc0q44_37.mp4	0.0	201.31986689567566	2.508336067199707
50	136.99910306930542	fix_post	2		12.0	48.0	2.5	/experiments/knapen_aot/videos/S_yt-2XRGfGc0q44_37.mp4	0.0	203.82820296287537	0.10004782676696777
51	137.0991508960724	fix_pre	0		12.0	49.0	2.5	/experiments/knapen_aot/videos/S_comp_A108_C001_v09_SDR_FINAL_22062018_SDR_2K_AVC.mp4	0.0	203.92825078964233	0.09995412826538086
51	137.19095301628113	response	0	2		49.0	2.5	/experiments/knapen_aot/videos/S_comp_A108_C001_v09_SDR_FINAL_22062018_SDR_2K_AVC.mp4	0.0	204.02005290985107	
51	137.19910502433777	movie	1		168.0	49.0	2.5	/experiments/knapen_aot/videos/S_comp_A108_C001_v09_SDR_FINAL_22062018_SDR_2K_AVC.mp4	0.0	204.02820491790771	2.508340835571289
51	139.70744585990906	fix_post	2		12.0	49.0	2.5	/experiments/knapen_aot/videos/S_comp_A108_C001_v09_SDR_FINAL_22062018_SDR_2K_AVC.mp4	0.0	206.536545753479	0.09999704360961914
51	139.7908308506012	response	2	2		49.0	2.5	/experiments/knapen_aot/videos/S_comp_A108_C001_v09_SDR_FINAL_22062018_SDR_2K_AVC.mp4	0.0	206.61993074417114	
52	139.80744290351868	fix_pre	0		43.0	50.0	2.5	/experiments/knapen_aot/videos/S_yt-GBt59U0KUR0_6.mp4	0.0	206.63654279708862	0.35831713676452637
52	140.1574580669403	response	0	2		50.0	2.5	/experiments/knapen_aot/videos/S_yt-GBt59U0KUR0_6.mp4	0.0	206.98655796051025	
52	140.1657600402832	movie	1		301.0	50.0	2.5	/experiments/knapen_aot/videos/S_yt-GBt59U0KUR0_6.mp4	0.0	206.99485993385315	2.5083160400390625
52	142.67407608032227	fix_post	2		12.0	50.0	2.5	/experiments/knapen_aot/videos/S_yt-GBt59U0KUR0_6.mp4	0.0	209.5031759738922	0.10009598731994629
53	142.7741720676422	fix_pre	0		8.0	51.0	2.5	/experiments/knapen_aot/videos/S_yt-BG-G7m5wLZ4_94.mp4	0.0	209.60327196121216	0.06658387184143066
53	142.83262991905212	response	0	2		51.0	2.5	/experiments/knapen_aot/videos/S_yt-BG-G7m5wLZ4_94.mp4	0.0	209.66172981262207	
53	142.84075593948364	movie	1		301.0	51.0	2.5	/experiments/knapen_aot/videos/S_yt-BG-G7m5wLZ4_94.mp4	0.0	209.6698558330536	2.508291006088257
53	145.3490469455719	fix_post	2		12.0	51.0	2.5	/experiments/knapen_aot/videos/S_yt-BG-G7m5wLZ4_94.mp4	0.0	212.17814683914185	0.10001492500305176
54	145.44906187057495	fix_pre	0		29.0	52.0	2.5	/experiments/knapen_aot/videos/S_video.mp4	0.0	212.2781617641449	0.24168705940246582
54	145.67506194114685	response	0	2		52.0	2.5	/experiments/knapen_aot/videos/S_video.mp4	0.0	212.5041618347168	
54	145.69074892997742	movie	1		167.0	52.0	2.5	/experiments/knapen_aot/videos/S_video.mp4	0.0	212.51984882354736	2.508297920227051
54	148.19904685020447	fix_post	2		12.0	52.0	2.5	/experiments/knapen_aot/videos/S_video.mp4	0.0	215.0281467437744	0.10007500648498535
55	148.29912185668945	fix_pre	0		8.0	53.0	2.5	/experiments/knapen_aot/videos/R_S_yt-n2PnABmSpxI_115.mp4	0.0	215.1282217502594	0.06683707237243652
55	148.3577470779419	response	0	2		53.0	2.5	/experiments/knapen_aot/videos/R_S_yt-n2PnABmSpxI_115.mp4	0.0	215.18684697151184	
55	148.3659589290619	movie	1		301.0	53.0	2.5	/experiments/knapen_aot/videos/R_S_yt-n2PnABmSpxI_115.mp4	0.0	215.19505882263184	2.5081140995025635
55	150.87407302856445	fix_post	2		12.0	53.0	2.5	/experiments/knapen_aot/videos/R_S_yt-n2PnABmSpxI_115.mp4	0.0	217.7031729221344	0.09996700286865234
56	150.9740400314331	fix_pre	0		14.0	54.0	2.5	/experiments/knapen_aot/videos/R_S_yt-Q9fI2ar05IE_77.mp4	0.0	217.80313992500305	0.1167149543762207
56	151.08252787590027	response	0	2		54.0	2.5	/experiments/knapen_aot/videos/R_S_yt-Q9fI2ar05IE_77.mp4	0.0	217.91162776947021	
56	151.09075498580933	movie	1		301.0	54.0	2.5	/experiments/knapen_aot/videos/R_S_yt-Q9fI2ar05IE_77.mp4	0.0	217.91985487937927	2.5082850456237793
56	153.5990400314331	fix_post	2		12.0	54.0	2.5	/experiments/knapen_aot/videos/R_S_yt-Q9fI2ar05IE_77.mp4	0.0	220.42813992500305	0.09995388984680176
57	153.6989939212799	fix_pre	0		22.0	55.0	2.5	blank	1.0	220.52809381484985	0.18329811096191406
57	153.87421488761902	response	0	2		55.0	2.5	blank	1.0	220.70331478118896	
57	153.88229203224182	movie	1		301.0	55.0	2.5	blank	1.0	220.71139192581177	2.5083749294281006
57	156.39066696166992	fix_post	2		12.0	55.0	2.5	blank	1.0	223.21976685523987	0.10004997253417969
58	156.4907169342041	fix_pre	0		19.0	56.0	2.5	/experiments/knapen_aot/videos/R_S_yt-Fci3dBzt2T4_223.mp4	0.0	223.31981682777405	0.15829896926879883
58	156.64083194732666	response	0	2		56.0	2.5	/experiments/knapen_aot/videos/R_S_yt-Fci3dBzt2T4_223.mp4	0.0	223.4699318408966	
58	156.6490159034729	movie	1		301.0	56.0	2.5	/experiments/knapen_aot/videos/R_S_yt-Fci3dBzt2T4_223.mp4	0.0	223.47811579704285	2.5082590579986572
58	159.15727496147156	fix_post	2		12.0	56.0	2.5	/experiments/knapen_aot/videos/R_S_yt-Fci3dBzt2T4_223.mp4	0.0	225.9863748550415	0.10008001327514648
59	159.2573549747467	fix_pre	0		14.0	57.0	2.5	/experiments/knapen_aot/videos/R_S_yt--WPE_4bqQXc_26.mp4	0.0	226.08645486831665	0.11666607856750488
59	159.36586999893188	response	0	2		57.0	2.5	/experiments/knapen_aot/videos/R_S_yt--WPE_4bqQXc_26.mp4	0.0	226.19496989250183	
59	159.3740210533142	movie	1		301.0	57.0	2.5	/experiments/knapen_aot/videos/R_S_yt--WPE_4bqQXc_26.mp4	0.0	226.20312094688416	2.508368968963623
59	161.88239002227783	fix_post	2		12.0	57.0	2.5	/experiments/knapen_aot/videos/R_S_yt--WPE_4bqQXc_26.mp4	0.0	228.71148991584778	0.09997296333312988
60	161.98236298561096	fix_pre	0		14.0	58.0	2.5	/experiments/knapen_aot/videos/R_S_comp_A108_C001_v09_SDR_FINAL_22062018_SDR_2K_AVC.mp4	0.0	228.8114628791809	0.11763501167297363
60	162.09087896347046	response	0	2		58.0	2.5	/experiments/knapen_aot/videos/R_S_comp_A108_C001_v09_SDR_FINAL_22062018_SDR_2K_AVC.mp4	0.0	228.9199788570404	
60	162.09999799728394	movie	1		170.0	58.0	2.5	/experiments/knapen_aot/videos/R_S_comp_A108_C001_v09_SDR_FINAL_22062018_SDR_2K_AVC.mp4	0.0	228.92909789085388	2.5073189735412598
60	164.6073169708252	fix_post	2		12.0	58.0	2.5	/experiments/knapen_aot/videos/R_S_comp_A108_C001_v09_SDR_FINAL_22062018_SDR_2K_AVC.mp4	0.0	231.43641686439514	0.10007691383361816
60	164.64081501960754	response	2	2		58.0	2.5	/experiments/knapen_aot/videos/R_S_comp_A108_C001_v09_SDR_FINAL_22062018_SDR_2K_AVC.mp4	0.0	231.4699149131775	
61	164.7073938846588	fix_pre	0		32.0	59.0	2.5	/experiments/knapen_aot/videos/S_production_ID_3967181.mp4	0.0	231.53649377822876	0.2676081657409668
61	164.96578192710876	response	0	2		59.0	2.5	/experiments/knapen_aot/videos/S_production_ID_3967181.mp4	0.0	231.7948818206787	
61	164.97500205039978	movie	1		197.0	59.0	2.5	/experiments/knapen_aot/videos/S_production_ID_3967181.mp4	0.0	231.80410194396973	2.5072739124298096
61	167.4822759628296	fix_post	2		12.0	59.0	2.5	/experiments/knapen_aot/videos/S_production_ID_3967181.mp4	0.0	234.31137585639954	0.10008597373962402
62	167.5823619365692	fix_pre	0		5.0	60.0	2.5	/experiments/knapen_aot/videos/S_yt-fjOsq03OC2c_188.mp4	0.0	234.41146183013916	0.041665077209472656
62	167.61581897735596	response	0	2		60.0	2.5	/experiments/knapen_aot/videos/S_yt-fjOsq03OC2c_188.mp4	0.0	234.4449188709259	
62	167.6240270137787	movie	1		301.0	60.0	2.5	/experiments/knapen_aot/videos/S_yt-fjOsq03OC2c_188.mp4	0.0	234.45312690734863	2.5083179473876953
62	170.13234496116638	fix_post	2		12.0	60.0	2.5	/experiments/knapen_aot/videos/S_yt-fjOsq03OC2c_188.mp4	0.0	236.96144485473633	0.09995007514953613
63	170.23229503631592	fix_pre	0		26.0	61.0	2.5	/experiments/knapen_aot/videos/R_S_ILSVRC2015_train_00369000.mp4	0.0	237.06139492988586	0.21663284301757812
63	170.44078087806702	response	0	2		61.0	2.5	/experiments/knapen_aot/videos/R_S_ILSVRC2015_train_00369000.mp4	0.0	237.26988077163696	
63	170.4489278793335	movie	1		301.0	61.0	2.5	/experiments/knapen_aot/videos/R_S_ILSVRC2015_train_00369000.mp4	0.0	237.27802777290344	2.5083911418914795
63	172.95731902122498	fix_post	2		12.0	61.0	2.5	/experiments/knapen_aot/videos/R_S_ILSVRC2015_train_00369000.mp4	0.0	239.78641891479492	0.10001087188720703
64	173.05732989311218	fix_pre	0		13.0	62.0	2.5	blank	1.0	239.88642978668213	0.10834813117980957
64	173.15741801261902	response	0	2		62.0	2.5	blank	1.0	239.98651790618896	
64	173.165678024292	movie	1		301.0	62.0	2.5	blank	1.0	239.99477791786194	2.5082108974456787
64	175.67388892173767	fix_post	2		12.0	62.0	2.5	blank	1.0	242.50298881530762	0.10007810592651367
65	175.77396702766418	fix_pre	0		16.0	63.0	2.5	/experiments/knapen_aot/videos/S_yt-2pRKCSgdXXU_30.mp4	0.0	242.60306692123413	0.13330793380737305
65	175.89909887313843	response	0	2		63.0	2.5	/experiments/knapen_aot/videos/S_yt-2pRKCSgdXXU_30.mp4	0.0	242.72819876670837	
65	175.90727496147156	movie	1		301.0	63.0	2.5	/experiments/knapen_aot/videos/S_yt-2pRKCSgdXXU_30.mp4	0.0	242.7363748550415	2.508368968963623
65	178.41564393043518	fix_post	2		12.0	63.0	2.5	/experiments/knapen_aot/videos/S_yt-2pRKCSgdXXU_30.mp4	0.0	245.24474382400513	0.10001301765441895
66	178.5156569480896	fix_pre	0		20.0	64.0	2.5	/experiments/knapen_aot/videos/S_yt-etQaTgGOhR4_69.mp4	0.0	245.34475684165955	0.16757607460021973
66	178.67407298088074	response	0	2		64.0	2.5	/experiments/knapen_aot/videos/S_yt-etQaTgGOhR4_69.mp4	0.0	245.50317287445068	
66	178.68323302268982	movie	1		301.0	64.0	2.5	/experiments/knapen_aot/videos/S_yt-etQaTgGOhR4_69.mp4	0.0	245.51233291625977	2.5073909759521484
66	181.19062399864197	fix_post	2		12.0	64.0	2.5	/experiments/knapen_aot/videos/S_yt-etQaTgGOhR4_69.mp4	0.0	248.0197238922119	0.10000395774841309
67	181.29062795639038	fix_pre	0		25.0	65.0	2.5	/experiments/knapen_aot/videos/R_S_yt-FbCVXEJicis_5.mp4	0.0	248.11972784996033	0.2082509994506836
67	181.49078607559204	response	0	2		65.0	2.5	/experiments/knapen_aot/videos/R_S_yt-FbCVXEJicis_5.mp4	0.0	248.319885969162	
67	181.49887895584106	movie	1		300.0	65.0	2.5	/experiments/knapen_aot/videos/R_S_yt-FbCVXEJicis_5.mp4	0.0	248.327978849411	2.508336067199707
67	184.00721502304077	fix_post	2		12.0	65.0	2.5	/experiments/knapen_aot/videos/R_S_yt-FbCVXEJicis_5.mp4	0.0	250.83631491661072	0.1000518798828125
68	184.10726690292358	fix_pre	0		9.0	66.0	2.5	/experiments/knapen_aot/videos/R_S_yt-RKo978aBdzw_173.mp4	0.0	250.93636679649353	0.07589411735534668
68	184.17404890060425	response	0	2		66.0	2.5	/experiments/knapen_aot/videos/R_S_yt-RKo978aBdzw_173.mp4	0.0	251.0031487941742	
68	184.18316102027893	movie	1		301.0	66.0	2.5	/experiments/knapen_aot/videos/R_S_yt-RKo978aBdzw_173.mp4	0.0	251.01226091384888	2.5074498653411865
68	186.69061088562012	fix_post	2		12.0	66.0	2.5	/experiments/knapen_aot/videos/R_S_yt-RKo978aBdzw_173.mp4	0.0	253.51971077919006	0.0999150276184082
69	186.79052591323853	fix_pre	0		10.0	67.0	2.5	/experiments/knapen_aot/videos/R_S_video.mp4	0.0	253.61962580680847	0.08339405059814453
69	186.86571788787842	response	0	2		67.0	2.5	/experiments/knapen_aot/videos/R_S_video.mp4	0.0	253.69481778144836	
69	186.87391996383667	movie	1		165.0	67.0	2.5	/experiments/knapen_aot/videos/R_S_video.mp4	0.0	253.70301985740662	2.5083229541778564
69	189.38224291801453	fix_post	2		12.0	67.0	2.5	/experiments/knapen_aot/videos/R_S_video.mp4	0.0	256.2113428115845	0.10003304481506348
70	189.4822759628296	fix_pre	0		10.0	68.0	2.5	blank	1.0	256.31137585639954	0.08331894874572754
70	189.54993295669556	response	0	2		68.0	2.5	blank	1.0	256.3790328502655	
70	189.56559491157532	movie	1		301.0	68.0	2.5	blank	1.0	256.39469480514526	2.5083460807800293
70	192.07394099235535	fix_post	2		12.0	68.0	2.5	blank	1.0	258.9030408859253	0.09993386268615723
71	192.1738748550415	fix_pre	0		14.0	69.0	2.5	/experiments/knapen_aot/videos/R_S_yt-iT6jsSikmGM_4.mp4	0.0	259.00297474861145	0.11670804023742676
71	192.28228306770325	response	0	2		69.0	2.5	/experiments/knapen_aot/videos/R_S_yt-iT6jsSikmGM_4.mp4	0.0	259.1113829612732	
71	192.29058289527893	movie	1		301.0	69.0	2.5	/experiments/knapen_aot/videos/R_S_yt-iT6jsSikmGM_4.mp4	0.0	259.1196827888489	2.5083160400390625
71	194.798898935318	fix_post	2		12.0	69.0	2.5	/experiments/knapen_aot/videos/R_S_yt-iT6jsSikmGM_4.mp4	0.0	261.62799882888794	0.09998106956481934
72	194.8988800048828	fix_pre	0		11.0	70.0	2.5	/experiments/knapen_aot/videos/R_S_yt-RKo978aBdzw_173.mp4	0.0	261.72797989845276	0.0916450023651123
72	194.98233890533447	response	0	2		70.0	2.5	/experiments/knapen_aot/videos/R_S_yt-RKo978aBdzw_173.mp4	0.0	261.8114387989044	
72	194.99052500724792	movie	1		301.0	70.0	2.5	/experiments/knapen_aot/videos/R_S_yt-RKo978aBdzw_173.mp4	0.0	261.81962490081787	2.5083348751068115
72	197.49885988235474	fix_post	2		12.0	70.0	2.5	/experiments/knapen_aot/videos/R_S_yt-RKo978aBdzw_173.mp4	0.0	264.3279597759247	0.1000821590423584
73	197.5989420413971	fix_pre	0		17.0	71.0	2.5	/experiments/knapen_aot/videos/S_S003_C020_SDR_2K_AVC.mp4	0.0	264.42804193496704	0.14158391952514648
73	197.73224997520447	response	0	2		71.0	2.5	/experiments/knapen_aot/videos/S_S003_C020_SDR_2K_AVC.mp4	0.0	264.5613498687744	
73	197.74052596092224	movie	1		185.0	71.0	2.5	/experiments/knapen_aot/videos/S_S003_C020_SDR_2K_AVC.mp4	0.0	264.5696258544922	2.5083539485931396
73	200.24887990951538	fix_post	2		12.0	71.0	2.5	/experiments/knapen_aot/videos/S_S003_C020_SDR_2K_AVC.mp4	0.0	267.0779798030853	0.10001802444458008
73	200.25058603286743	response	2	2		71.0	2.5	/experiments/knapen_aot/videos/S_S003_C020_SDR_2K_AVC.mp4	0.0	267.0796859264374	
74	200.34889793395996	fix_pre	0		27.0	72.0	2.5	/experiments/knapen_aot/videos/S_yt-jbvXEFk2Gyw_12.mp4	0.0	267.1779978275299	0.22496509552001953
74	200.56563305854797	response	0	2		72.0	2.5	/experiments/knapen_aot/videos/S_yt-jbvXEFk2Gyw_12.mp4	0.0	267.3947329521179	
74	200.57386302947998	movie	1		301.0	72.0	2.5	/experiments/knapen_aot/videos/S_yt-jbvXEFk2Gyw_12.mp4	0.0	267.4029629230499	2.508314847946167
74	203.08217787742615	fix_post	2		12.0	72.0	2.5	/experiments/knapen_aot/videos/S_yt-jbvXEFk2Gyw_12.mp4	0.0	269.9112777709961	0.09999799728393555
75	203.18217587471008	fix_pre	0		11.0	73.0	2.5	/experiments/knapen_aot/videos/R_S_yt-Ul81y6R9YbE_12.mp4	0.0	270.01127576828003	0.09168100357055664
75	203.25802993774414	response	0	2		73.0	2.5	/experiments/knapen_aot/videos/R_S_yt-Ul81y6R9YbE_12.mp4	0.0	270.0871298313141	
75	203.27385687828064	movie	1		301.0	73.0	2.5	/experiments/knapen_aot/videos/R_S_yt-Ul81y6R9YbE_12.mp4	0.0	270.1029567718506	2.5082931518554688
75	205.7821500301361	fix_post	2		12.0	73.0	2.5	/experiments/knapen_aot/videos/R_S_yt-Ul81y6R9YbE_12.mp4	0.0	272.61124992370605	0.10000300407409668
76	205.8821530342102	fix_pre	0		23.0	74.0	2.5	/experiments/knapen_aot/videos/S_comp_GMT306_139NC_139J_3066_CALI_TO_VEGAS_v08_SDR_PS_20180824_SDR_2K_AVC.mp4	0.0	272.71125292778015	0.19170689582824707
76	206.06559300422668	response	0	2		74.0	2.5	/experiments/knapen_aot/videos/S_comp_GMT306_139NC_139J_3066_CALI_TO_VEGAS_v08_SDR_PS_20180824_SDR_2K_AVC.mp4	0.0	272.89469289779663	
76	206.07385993003845	movie	1		163.0	74.0	2.5	/experiments/knapen_aot/videos/S_comp_GMT306_139NC_139J_3066_CALI_TO_VEGAS_v08_SDR_PS_20180824_SDR_2K_AVC.mp4	0.0	272.9029598236084	2.5083250999450684
76	208.58218502998352	fix_post	2		12.0	74.0	2.5	/experiments/knapen_aot/videos/S_comp_GMT306_139NC_139J_3066_CALI_TO_VEGAS_v08_SDR_PS_20180824_SDR_2K_AVC.mp4	0.0	275.41128492355347	0.10002994537353516
77	208.68221497535706	fix_pre	0		13.0	75.0	2.5	blank	1.0	275.511314868927	0.10828900337219238
77	208.78225803375244	response	0	2		75.0	2.5	blank	1.0	275.6113579273224	
77	208.79050397872925	movie	1		301.0	75.0	2.5	blank	1.0	275.6196038722992	2.508349895477295
77	211.29885387420654	fix_post	2		12.0	75.0	2.5	blank	1.0	278.1279537677765	0.09998416900634766
78	211.3988380432129	fix_pre	0		25.0	76.0	2.5	/experiments/knapen_aot/videos/S_yt-l_pvPAznG1A_20.mp4	0.0	278.22793793678284	0.20831584930419922
78	211.59890389442444	response	0	2		76.0	2.5	/experiments/knapen_aot/videos/S_yt-l_pvPAznG1A_20.mp4	0.0	278.4280037879944	
78	211.6071538925171	movie	1		301.0	76.0	2.5	/experiments/knapen_aot/videos/S_yt-l_pvPAznG1A_20.mp4	0.0	278.43625378608704	2.5082859992980957
78	214.11543989181519	fix_post	2		12.0	76.0	2.5	/experiments/knapen_aot/videos/S_yt-l_pvPAznG1A_20.mp4	0.0	280.94453978538513	0.09999299049377441
79	214.21543288230896	fix_pre	0		5.0	77.0	2.5	/experiments/knapen_aot/videos/S_yt-BLmwmX-mni8_56.mp4	0.0	281.0445327758789	0.041674137115478516
79	214.24915194511414	response	0	2		77.0	2.5	/experiments/knapen_aot/videos/S_yt-BLmwmX-mni8_56.mp4	0.0	281.0782518386841	
79	214.25710701942444	movie	1		301.0	77.0	2.5	/experiments/knapen_aot/videos/S_yt-BLmwmX-mni8_56.mp4	0.0	281.0862069129944	2.5082569122314453
79	216.76536393165588	fix_post	2		12.0	77.0	2.5	/experiments/knapen_aot/videos/S_yt-BLmwmX-mni8_56.mp4	0.0	283.59446382522583	0.10006403923034668
80	216.86542797088623	fix_pre	0		15.0	78.0	2.5	/experiments/knapen_aot/videos/S_yt-xCh0LI9VKeI_28.mp4	0.0	283.6945278644562	0.12498998641967773
80	216.98223400115967	response	0	2		78.0	2.5	/experiments/knapen_aot/videos/S_yt-xCh0LI9VKeI_28.mp4	0.0	283.8113338947296	
80	216.9904179573059	movie	1		301.0	78.0	2.5	/experiments/knapen_aot/videos/S_yt-xCh0LI9VKeI_28.mp4	0.0	283.81951785087585	2.5083839893341064
80	219.49880194664001	fix_post	2		12.0	78.0	2.5	/experiments/knapen_aot/videos/S_yt-xCh0LI9VKeI_28.mp4	0.0	286.32790184020996	0.0999441146850586
81	219.59874606132507	fix_pre	0		13.0	79.0	2.5	/experiments/knapen_aot/videos/R_S_yt-GaJaxp546lc_22.mp4	0.0	286.427845954895	0.10834693908691406
81	219.69889307022095	response	0	2		79.0	2.5	/experiments/knapen_aot/videos/R_S_yt-GaJaxp546lc_22.mp4	0.0	286.5279929637909	
81	219.707093000412	movie	1		301.0	79.0	2.5	/experiments/knapen_aot/videos/R_S_yt-GaJaxp546lc_22.mp4	0.0	286.53619289398193	2.5083608627319336
81	222.21545386314392	fix_post	2		12.0	79.0	2.5	/experiments/knapen_aot/videos/R_S_yt-GaJaxp546lc_22.mp4	0.0	289.04455375671387	0.09988808631896973
82	222.3153419494629	fix_pre	0		17.0	80.0	2.5	/experiments/knapen_aot/videos/S_yt-i-1Gou9SA5U_3.mp4	0.0	289.14444184303284	0.14173412322998047
82	222.44137287139893	response	0	2		80.0	2.5	/experiments/knapen_aot/videos/S_yt-i-1Gou9SA5U_3.mp4	0.0	289.2704727649689	
82	222.45707607269287	movie	1		299.0	80.0	2.5	/experiments/knapen_aot/videos/S_yt-i-1Gou9SA5U_3.mp4	0.0	289.2861759662628	2.508427858352661
82	224.96550393104553	fix_post	2		12.0	80.0	2.5	/experiments/knapen_aot/videos/S_yt-i-1Gou9SA5U_3.mp4	0.0	291.7946038246155	0.0999441146850586
83	225.0654480457306	fix_pre	0		9.0	81.0	2.5	/experiments/knapen_aot/videos/R_S_yt-3JApfnMu5cU_378.mp4	0.0	291.89454793930054	0.07563996315002441
83	225.13234496116638	response	0	2		81.0	2.5	/experiments/knapen_aot/videos/R_S_yt-3JApfnMu5cU_378.mp4	0.0	291.9614448547363	
83	225.14108800888062	movie	1		301.0	81.0	2.5	/experiments/knapen_aot/videos/R_S_yt-3JApfnMu5cU_378.mp4	0.0	291.97018790245056	2.507689952850342
83	227.64877796173096	fix_post	2		12.0	81.0	2.5	/experiments/knapen_aot/videos/R_S_yt-3JApfnMu5cU_378.mp4	0.0	294.4778778553009	0.1000070571899414
84	227.7487850189209	fix_pre	0		11.0	82.0	2.5	/experiments/knapen_aot/videos/R_S_yt-2ftSsLqRQnA_84.mp4	0.0	294.57788491249084	0.0915989875793457
84	227.83215308189392	response	0	2		82.0	2.5	/experiments/knapen_aot/videos/R_S_yt-2ftSsLqRQnA_84.mp4	0.0	294.66125297546387	
84	227.84038400650024	movie	1		301.0	82.0	2.5	/experiments/knapen_aot/videos/R_S_yt-2ftSsLqRQnA_84.mp4	0.0	294.6694839000702	2.5083658695220947
84	230.34874987602234	fix_post	2		12.0	82.0	2.5	/experiments/knapen_aot/videos/R_S_yt-2ftSsLqRQnA_84.mp4	0.0	297.1778497695923	0.10001897811889648
85	230.44876885414124	fix_pre	0		9.0	83.0	2.5	blank	1.0	297.2778687477112	0.0749812126159668
85	230.51649689674377	response	0	2		83.0	2.5	blank	1.0	297.3455967903137	
85	230.5237500667572	movie	1		301.0	83.0	2.5	blank	1.0	297.35284996032715	2.5082998275756836
85	233.03204989433289	fix_post	2		12.0	83.0	2.5	blank	1.0	299.86114978790283	0.10005402565002441
87	233.1321039199829	stim	0		288.0					299.96120381355286	2.39990496635437
87	233.3155539035797	response	0	2						300.14465379714966	
87	235.52502703666687	response	0	space						302.3541269302368	
