trial_nr	onset	event_type	phase	response	nr_frames	movie_index	movie_duration	movie_file	blank	onset_abs	duration
0	0.16318893432617188	stim	0		47.0					64.15252900123596	0.3957979679107666
0	0.5501649379730225	response	0	space						64.53950500488281	
1	0.5589869022369385	stim	0		121.0					64.54832696914673	1.007328987121582
1	1.5663158893585205	stim	1		120.0					65.55565595626831	0.9999849796295166
2	2.566300868988037	fix_pre	0		11.0	0.0	2.5	/experiments/knapen_aot/videos/R_S_yt-Fm97IY0Z2LU_110.mp4	0.0	66.55564093589783	0.0916140079498291
2	2.649780035018921	response	0	space		0.0	2.5	/experiments/knapen_aot/videos/R_S_yt-Fm97IY0Z2LU_110.mp4	0.0	66.63912010192871	
2	2.657914876937866	movie	1		301.0	0.0	2.5	/experiments/knapen_aot/videos/R_S_yt-Fm97IY0Z2LU_110.mp4	0.0	66.64725494384766	2.5083611011505127
2	5.166275978088379	fix_post	2		12.0	0.0	2.5	/experiments/knapen_aot/videos/R_S_yt-Fm97IY0Z2LU_110.mp4	0.0	69.15561604499817	0.10002493858337402
3	5.266300916671753	fix_pre	0		14.0	1.0	2.5	/experiments/knapen_aot/videos/R_S_yt-4GDusA21cEA_170.mp4	0.0	69.25564098358154	0.11666011810302734
3	5.375243902206421	response	0	2		1.0	2.5	/experiments/knapen_aot/videos/R_S_yt-4GDusA21cEA_170.mp4	0.0	69.36458396911621	
3	5.38296103477478	movie	1		301.0	1.0	2.5	/experiments/knapen_aot/videos/R_S_yt-4GDusA21cEA_170.mp4	0.0	69.37230110168457	2.5083658695220947
3	7.891326904296875	fix_post	2		12.0	1.0	2.5	/experiments/knapen_aot/videos/R_S_yt-4GDusA21cEA_170.mp4	0.0	71.88066697120667	0.10000205039978027
4	7.991328954696655	fix_pre	0		20.0	2.0	2.5	/experiments/knapen_aot/videos/R_S_yt-11S5tcT2Tm0_254.mp4	0.0	71.98066902160645	0.1666259765625
4	8.149799823760986	response	0	2		2.0	2.5	/experiments/knapen_aot/videos/R_S_yt-11S5tcT2Tm0_254.mp4	0.0	72.13913989067078	
4	8.157954931259155	movie	1		301.0	2.0	2.5	/experiments/knapen_aot/videos/R_S_yt-11S5tcT2Tm0_254.mp4	0.0	72.14729499816895	2.508310079574585
4	10.66626501083374	fix_post	2		12.0	2.0	2.5	/experiments/knapen_aot/videos/R_S_yt-11S5tcT2Tm0_254.mp4	0.0	74.65560507774353	0.10002684593200684
5	10.766291856765747	fix_pre	0		22.0	3.0	2.5	/experiments/knapen_aot/videos/S_yt-l_ioasf6yHg_44.mp4	0.0	74.75563192367554	0.18330001831054688
5	10.94142198562622	response	0	2		3.0	2.5	/experiments/knapen_aot/videos/S_yt-l_ioasf6yHg_44.mp4	0.0	74.93076205253601	
5	10.949591875076294	movie	1		301.0	3.0	2.5	/experiments/knapen_aot/videos/S_yt-l_ioasf6yHg_44.mp4	0.0	74.93893194198608	2.5083279609680176
5	13.457919836044312	fix_post	2		11.0	3.0	2.5	/experiments/knapen_aot/videos/S_yt-l_ioasf6yHg_44.mp4	0.0	77.4472599029541	0.09997820854187012
6	13.557898044586182	fix_pre	0		26.0	4.0	2.5	/experiments/knapen_aot/videos/R_S_yt-z68VLDDCFdw_93.mp4	0.0	77.54723811149597	0.21665191650390625
6	13.766337871551514	response	0	2		4.0	2.5	/experiments/knapen_aot/videos/R_S_yt-z68VLDDCFdw_93.mp4	0.0	77.7556779384613	
6	13.774549961090088	movie	1		301.0	4.0	2.5	/experiments/knapen_aot/videos/R_S_yt-z68VLDDCFdw_93.mp4	0.0	77.76389002799988	2.5083229541778564
6	16.282872915267944	fix_post	2		12.0	4.0	2.5	/experiments/knapen_aot/videos/R_S_yt-z68VLDDCFdw_93.mp4	0.0	80.27221298217773	0.10003304481506348
7	16.382905960083008	fix_pre	0		13.0	5.0	2.5	/experiments/knapen_aot/videos/R_S_comp_LA_A009_C009_PSNK_v02_SDR_PS_FINAL_20180709_SDR_2K_AVC.mp4	0.0	80.3722460269928	0.1083228588104248
7	16.483022928237915	response	0	2		5.0	2.5	/experiments/knapen_aot/videos/R_S_comp_LA_A009_C009_PSNK_v02_SDR_PS_FINAL_20180709_SDR_2K_AVC.mp4	0.0	80.4723629951477	
7	16.491228818893433	movie	1		162.0	5.0	2.5	/experiments/knapen_aot/videos/R_S_comp_LA_A009_C009_PSNK_v02_SDR_PS_FINAL_20180709_SDR_2K_AVC.mp4	0.0	80.48056888580322	2.5083281993865967
7	18.99955701828003	fix_post	2		12.0	5.0	2.5	/experiments/knapen_aot/videos/R_S_comp_LA_A009_C009_PSNK_v02_SDR_PS_FINAL_20180709_SDR_2K_AVC.mp4	0.0	82.98889708518982	0.10004496574401855
8	19.099601984024048	fix_pre	0		17.0	6.0	2.5	blank	1.0	83.08894205093384	0.1416490077972412
8	19.23302984237671	response	0	2		6.0	2.5	blank	1.0	83.2223699092865	
8	19.24125099182129	movie	1		301.0	6.0	2.5	blank	1.0	83.23059105873108	2.5083439350128174
8	21.749594926834106	fix_post	2		12.0	6.0	2.5	blank	1.0	85.7389349937439	0.09996700286865234
9	21.84956192970276	fix_pre	0		25.0	7.0	2.5	/experiments/knapen_aot/videos/R_S_comp_A105_C002_v06_SDR_FINAL_25062018_SDR_2K_AVC.mp4	0.0	85.83890199661255	0.20885896682739258
9	22.04962682723999	response	0	2		7.0	2.5	/experiments/knapen_aot/videos/R_S_comp_A105_C002_v06_SDR_FINAL_25062018_SDR_2K_AVC.mp4	0.0	86.03896689414978	
9	22.05842089653015	movie	1		168.0	7.0	2.5	/experiments/knapen_aot/videos/R_S_comp_A105_C002_v06_SDR_FINAL_25062018_SDR_2K_AVC.mp4	0.0	86.04776096343994	2.5077080726623535
9	24.566128969192505	fix_post	2		12.0	7.0	2.5	/experiments/knapen_aot/videos/R_S_comp_A105_C002_v06_SDR_FINAL_25062018_SDR_2K_AVC.mp4	0.0	88.5554690361023	0.10007286071777344
10	24.66620182991028	fix_pre	0		25.0	8.0	2.5	/experiments/knapen_aot/videos/S_yt-TqVe93JCGmM_12.mp4	0.0	88.65554189682007	0.20832300186157227
10	24.86639904975891	response	0	2		8.0	2.5	/experiments/knapen_aot/videos/S_yt-TqVe93JCGmM_12.mp4	0.0	88.8557391166687	
10	24.87452483177185	movie	1		301.0	8.0	2.5	/experiments/knapen_aot/videos/S_yt-TqVe93JCGmM_12.mp4	0.0	88.86386489868164	2.508334159851074
10	27.382858991622925	fix_post	2		12.0	8.0	2.5	/experiments/knapen_aot/videos/S_yt-TqVe93JCGmM_12.mp4	0.0	91.37219905853271	0.09998703002929688
11	27.48284602165222	fix_pre	0		9.0	9.0	2.5	/experiments/knapen_aot/videos/R_S_yt-V5iQ3MbihnI_103.mp4	0.0	91.47218608856201	0.07549190521240234
11	27.54961395263672	response	0	2		9.0	2.5	/experiments/knapen_aot/videos/R_S_yt-V5iQ3MbihnI_103.mp4	0.0	91.53895401954651	
11	27.558337926864624	movie	1		301.0	9.0	2.5	/experiments/knapen_aot/videos/R_S_yt-V5iQ3MbihnI_103.mp4	0.0	91.54767799377441	2.5078489780426025
11	30.066186904907227	fix_post	2		12.0	9.0	2.5	/experiments/knapen_aot/videos/R_S_yt-V5iQ3MbihnI_103.mp4	0.0	94.05552697181702	0.10003900527954102
12	30.166225910186768	fix_pre	0		4.0	10.0	2.5	/experiments/knapen_aot/videos/R_S_yt-qYuLW5vSotM_160.mp4	0.0	94.15556597709656	0.03328108787536621
12	30.1912739276886	response	0	2		10.0	2.5	/experiments/knapen_aot/videos/R_S_yt-qYuLW5vSotM_160.mp4	0.0	94.18061399459839	
12	30.199506998062134	movie	1		301.0	10.0	2.5	/experiments/knapen_aot/videos/R_S_yt-qYuLW5vSotM_160.mp4	0.0	94.18884706497192	2.508357048034668
12	32.7078640460968	fix_post	2		12.0	10.0	2.5	/experiments/knapen_aot/videos/R_S_yt-qYuLW5vSotM_160.mp4	0.0	96.69720411300659	0.09994196891784668
12	32.73375391960144	response	2	2		10.0	2.5	/experiments/knapen_aot/videos/R_S_yt-qYuLW5vSotM_160.mp4	0.0	96.72309398651123	
13	32.80780601501465	fix_pre	0		39.0	11.0	2.5	/experiments/knapen_aot/videos/R_S_production_ID_4499960.mp4	0.0	96.79714608192444	0.3250739574432373
13	33.12457585334778	response	0	2		11.0	2.5	/experiments/knapen_aot/videos/R_S_production_ID_4499960.mp4	0.0	97.11391592025757	
13	33.132879972457886	movie	1		164.0	11.0	2.5	/experiments/knapen_aot/videos/R_S_production_ID_4499960.mp4	0.0	97.12222003936768	2.5082859992980957
13	35.64116597175598	fix_post	2		12.0	11.0	2.5	/experiments/knapen_aot/videos/R_S_production_ID_4499960.mp4	0.0	99.63050603866577	0.09995007514953613
13	35.691279888153076	response	2	2		11.0	2.5	/experiments/knapen_aot/videos/R_S_production_ID_4499960.mp4	0.0	99.68061995506287	
14	35.74111604690552	fix_pre	0		44.0	12.0	2.5	/experiments/knapen_aot/videos/S_BO_A014_C008_SDR_20190719_SDR_2K_AVC.mp4	0.0	99.73045611381531	0.3667159080505371
14	36.09958004951477	response	0	2		12.0	2.5	/experiments/knapen_aot/videos/S_BO_A014_C008_SDR_20190719_SDR_2K_AVC.mp4	0.0	100.08892011642456	
14	36.107831954956055	movie	1		166.0	12.0	2.5	/experiments/knapen_aot/videos/S_BO_A014_C008_SDR_20190719_SDR_2K_AVC.mp4	0.0	100.09717202186584	2.508514881134033
14	38.61634683609009	fix_post	2		12.0	12.0	2.5	/experiments/knapen_aot/videos/S_BO_A014_C008_SDR_20190719_SDR_2K_AVC.mp4	0.0	102.60568690299988	0.09981417655944824
15	38.716161012649536	fix_pre	0		16.0	13.0	2.5	/experiments/knapen_aot/videos/S_yt-RO4mhuXBVrY_67.mp4	0.0	102.70550107955933	0.13373589515686035
15	38.84124398231506	response	0	2		13.0	2.5	/experiments/knapen_aot/videos/S_yt-RO4mhuXBVrY_67.mp4	0.0	102.83058404922485	
15	38.8498969078064	movie	1		301.0	13.0	2.5	/experiments/knapen_aot/videos/S_yt-RO4mhuXBVrY_67.mp4	0.0	102.83923697471619	2.5079541206359863
15	41.35785102844238	fix_post	2		12.0	13.0	2.5	/experiments/knapen_aot/videos/S_yt-RO4mhuXBVrY_67.mp4	0.0	105.34719109535217	0.09999585151672363
15	41.44962787628174	response	2	2		13.0	2.5	/experiments/knapen_aot/videos/S_yt-RO4mhuXBVrY_67.mp4	0.0	105.43896794319153	
16	41.457846879959106	fix_pre	0		50.0	14.0	2.5	blank	1.0	105.4471869468689	0.41667795181274414
16	41.86627984046936	response	0	2		14.0	2.5	blank	1.0	105.85561990737915	
16	41.87452483177185	movie	1		301.0	14.0	2.5	blank	1.0	105.86386489868164	2.508305072784424
16	44.382829904556274	fix_post	2		12.0	14.0	2.5	blank	1.0	108.37216997146606	0.09999895095825195
17	44.482828855514526	fix_pre	0		30.0	15.0	2.5	/experiments/knapen_aot/videos/S_yt-4NjyKFnwHBo_13.mp4	0.0	108.47216892242432	0.2499861717224121
17	44.72457790374756	response	0	2		15.0	2.5	/experiments/knapen_aot/videos/S_yt-4NjyKFnwHBo_13.mp4	0.0	108.71391797065735	
17	44.73281502723694	movie	1		301.0	15.0	2.5	/experiments/knapen_aot/videos/S_yt-4NjyKFnwHBo_13.mp4	0.0	108.72215509414673	2.508330821990967
17	47.241145849227905	fix_post	2		12.0	15.0	2.5	/experiments/knapen_aot/videos/S_yt-4NjyKFnwHBo_13.mp4	0.0	111.2304859161377	0.0999751091003418
18	47.34112095832825	fix_pre	0		14.0	16.0	2.5	/experiments/knapen_aot/videos/S__9v_wUywaAA_35.mp4	0.0	111.33046102523804	0.11668086051940918
18	47.449645042419434	response	0	2		16.0	2.5	/experiments/knapen_aot/videos/S__9v_wUywaAA_35.mp4	0.0	111.43898510932922	
18	47.457801818847656	movie	1		300.0	16.0	2.5	/experiments/knapen_aot/videos/S__9v_wUywaAA_35.mp4	0.0	111.44714188575745	2.508327007293701
18	49.96612882614136	fix_post	2		12.0	16.0	2.5	/experiments/knapen_aot/videos/S__9v_wUywaAA_35.mp4	0.0	113.95546889305115	0.10004115104675293
19	50.06616997718811	fix_pre	0		17.0	17.0	2.5	/experiments/knapen_aot/videos/S_yt-hRAqAwRhmwE_58.mp4	0.0	114.0555100440979	0.14163684844970703
19	50.199578046798706	response	0	2		17.0	2.5	/experiments/knapen_aot/videos/S_yt-hRAqAwRhmwE_58.mp4	0.0	114.1889181137085	
19	50.20780682563782	movie	1		301.0	17.0	2.5	/experiments/knapen_aot/videos/S_yt-hRAqAwRhmwE_58.mp4	0.0	114.19714689254761	2.508369207382202
19	52.71617603302002	fix_post	2		12.0	17.0	2.5	/experiments/knapen_aot/videos/S_yt-hRAqAwRhmwE_58.mp4	0.0	116.70551609992981	0.09996294975280762
20	52.81613898277283	fix_pre	0		27.0	18.0	2.5	/experiments/knapen_aot/videos/R_S_yt-QiJyOUkuo38_6.mp4	0.0	116.80547904968262	0.224945068359375
20	53.03296995162964	response	0	2		18.0	2.5	/experiments/knapen_aot/videos/R_S_yt-QiJyOUkuo38_6.mp4	0.0	117.02231001853943	
20	53.0410840511322	movie	1		301.0	18.0	2.5	/experiments/knapen_aot/videos/R_S_yt-QiJyOUkuo38_6.mp4	0.0	117.03042411804199	2.5082638263702393
20	55.54934787750244	fix_post	2		12.0	18.0	2.5	/experiments/knapen_aot/videos/R_S_yt-QiJyOUkuo38_6.mp4	0.0	119.53868794441223	0.1000831127166748
21	55.649430990219116	fix_pre	0		12.0	19.0	2.5	/experiments/knapen_aot/videos/R_S_yt-x7NWmdlvVIQ_183.mp4	0.0	119.6387710571289	0.09987688064575195
21	55.741262912750244	response	0	2		19.0	2.5	/experiments/knapen_aot/videos/R_S_yt-x7NWmdlvVIQ_183.mp4	0.0	119.73060297966003	
21	55.74930787086487	movie	1		301.0	19.0	2.5	/experiments/knapen_aot/videos/R_S_yt-x7NWmdlvVIQ_183.mp4	0.0	119.73864793777466	2.5083670616149902
21	58.25767493247986	fix_post	2		12.0	19.0	2.5	/experiments/knapen_aot/videos/R_S_yt-x7NWmdlvVIQ_183.mp4	0.0	122.24701499938965	0.10012102127075195
22	58.35779595375061	fix_pre	0		11.0	20.0	2.5	blank	1.0	122.3471360206604	0.09157299995422363
22	58.44115591049194	response	0	2		20.0	2.5	blank	1.0	122.43049597740173	
22	58.449368953704834	movie	1		301.0	20.0	2.5	blank	1.0	122.43870902061462	2.508357048034668
22	60.9577260017395	fix_post	2		12.0	20.0	2.5	blank	1.0	124.94706606864929	0.10035896301269531
23	61.0580849647522	fix_pre	0		41.0	21.0	2.5	/experiments/knapen_aot/videos/S_ILSVRC2015_train_00067005.mp4	0.0	125.04742503166199	0.3413090705871582
23	61.391127824783325	response	0	2		21.0	2.5	/experiments/knapen_aot/videos/S_ILSVRC2015_train_00067005.mp4	0.0	125.38046789169312	
23	61.399394035339355	movie	1		301.0	21.0	2.5	/experiments/knapen_aot/videos/S_ILSVRC2015_train_00067005.mp4	0.0	125.38873410224915	2.5083179473876953
23	63.90771198272705	fix_post	2		12.0	21.0	2.5	/experiments/knapen_aot/videos/S_ILSVRC2015_train_00067005.mp4	0.0	127.89705204963684	0.10000491142272949
24	64.00771689414978	fix_pre	0		2.0	22.0	2.5	/experiments/knapen_aot/videos/R_S_yt-gPhlnZG-pRY_4.mp4	0.0	127.99705696105957	0.01669001579284668
24	64.01653289794922	response	0	2		22.0	2.5	/experiments/knapen_aot/videos/R_S_yt-gPhlnZG-pRY_4.mp4	0.0	128.005872964859	
24	64.02440690994263	movie	1		300.0	22.0	2.5	/experiments/knapen_aot/videos/R_S_yt-gPhlnZG-pRY_4.mp4	0.0	128.01374697685242	2.5082640647888184
24	66.53267097473145	fix_post	2		12.0	22.0	2.5	/experiments/knapen_aot/videos/R_S_yt-gPhlnZG-pRY_4.mp4	0.0	130.52201104164124	0.09993886947631836
25	66.63260984420776	fix_pre	0		28.0	23.0	2.5	/experiments/knapen_aot/videos/R_S_yt-l6WPyKg_3is_154.mp4	0.0	130.62194991111755	0.23337912559509277
25	66.85777497291565	response	0	2		23.0	2.5	/experiments/knapen_aot/videos/R_S_yt-l6WPyKg_3is_154.mp4	0.0	130.84711503982544	
25	66.86598896980286	movie	1		300.0	23.0	2.5	/experiments/knapen_aot/videos/R_S_yt-l6WPyKg_3is_154.mp4	0.0	130.85532903671265	2.5083980560302734
25	69.37438702583313	fix_post	2		12.0	23.0	2.5	/experiments/knapen_aot/videos/R_S_yt-l6WPyKg_3is_154.mp4	0.0	133.36372709274292	0.10029482841491699
26	69.47468185424805	fix_pre	0		14.0	24.0	2.5	/experiments/knapen_aot/videos/R_S_comp_GMT312_162NC_139M_1041_AFRICA_NIGHT_v14_SDR_FINAL_20180706_SDR_2K_AVC.mp4	0.0	133.46402192115784	0.11638808250427246
26	69.58281898498535	response	0	2		24.0	2.5	/experiments/knapen_aot/videos/R_S_comp_GMT312_162NC_139M_1041_AFRICA_NIGHT_v14_SDR_FINAL_20180706_SDR_2K_AVC.mp4	0.0	133.57215905189514	
26	69.59106993675232	movie	1		166.0	24.0	2.5	/experiments/knapen_aot/videos/R_S_comp_GMT312_162NC_139M_1041_AFRICA_NIGHT_v14_SDR_FINAL_20180706_SDR_2K_AVC.mp4	0.0	133.5804100036621	2.5083351135253906
26	72.09940505027771	fix_post	2		12.0	24.0	2.5	/experiments/knapen_aot/videos/R_S_comp_GMT312_162NC_139M_1041_AFRICA_NIGHT_v14_SDR_FINAL_20180706_SDR_2K_AVC.mp4	0.0	136.0887451171875	0.09999990463256836
27	72.19940495491028	fix_pre	0		3.0	25.0	2.5	/experiments/knapen_aot/videos/S_yt-PP93D7b7Ni4_10.mp4	0.0	136.18874502182007	0.02551102638244629
27	72.21622490882874	response	0	2		25.0	2.5	/experiments/knapen_aot/videos/S_yt-PP93D7b7Ni4_10.mp4	0.0	136.20556497573853	
27	72.22491598129272	movie	1		301.0	25.0	2.5	/experiments/knapen_aot/videos/S_yt-PP93D7b7Ni4_10.mp4	0.0	136.21425604820251	2.507735013961792
27	74.73265099525452	fix_post	2		12.0	25.0	2.5	/experiments/knapen_aot/videos/S_yt-PP93D7b7Ni4_10.mp4	0.0	138.7219910621643	0.10003304481506348
28	74.83268404006958	fix_pre	0		3.0	26.0	2.5	/experiments/knapen_aot/videos/R_S_yt-LsCCAQ8BRO8_7.mp4	0.0	138.82202410697937	0.025012969970703125
28	74.85011100769043	response	0	2		26.0	2.5	/experiments/knapen_aot/videos/R_S_yt-LsCCAQ8BRO8_7.mp4	0.0	138.83945107460022	
28	74.85769701004028	movie	1		299.0	26.0	2.5	/experiments/knapen_aot/videos/R_S_yt-LsCCAQ8BRO8_7.mp4	0.0	138.84703707695007	2.508281946182251
28	77.36597895622253	fix_post	2		12.0	26.0	2.5	/experiments/knapen_aot/videos/R_S_yt-LsCCAQ8BRO8_7.mp4	0.0	141.35531902313232	0.10006308555603027
29	77.46604204177856	fix_pre	0		31.0	27.0	2.5	/experiments/knapen_aot/videos/S_yt-a0axt7n0GuQ_19.mp4	0.0	141.45538210868835	0.25855088233947754
29	77.71610188484192	response	0	2		27.0	2.5	/experiments/knapen_aot/videos/S_yt-a0axt7n0GuQ_19.mp4	0.0	141.7054419517517	
29	77.72459292411804	movie	1		301.0	27.0	2.5	/experiments/knapen_aot/videos/S_yt-a0axt7n0GuQ_19.mp4	0.0	141.71393299102783	2.5080909729003906
29	80.23268389701843	fix_post	2		12.0	27.0	2.5	/experiments/knapen_aot/videos/S_yt-a0axt7n0GuQ_19.mp4	0.0	144.22202396392822	0.099945068359375
30	80.33262896537781	fix_pre	0		25.0	28.0	2.5	blank	1.0	144.3219690322876	0.20840191841125488
30	80.53281593322754	response	0	2		28.0	2.5	blank	1.0	144.52215600013733	
30	80.54103088378906	movie	1		301.0	28.0	2.5	blank	1.0	144.53037095069885	2.5083041191101074
30	83.04933500289917	fix_post	2		12.0	28.0	2.5	blank	1.0	147.03867506980896	0.10002994537353516
31	83.1493649482727	fix_pre	0		50.0	29.0	2.5	/experiments/knapen_aot/videos/R_S_yt-ujTY1igjc3E_2.mp4	0.0	147.1387050151825	0.4166140556335449
31	83.55779695510864	response	0	2		29.0	2.5	/experiments/knapen_aot/videos/R_S_yt-ujTY1igjc3E_2.mp4	0.0	147.54713702201843	
31	83.56597900390625	movie	1		301.0	29.0	2.5	/experiments/knapen_aot/videos/R_S_yt-ujTY1igjc3E_2.mp4	0.0	147.55531907081604	2.5083489418029785
31	86.07432794570923	fix_post	2		12.0	29.0	2.5	/experiments/knapen_aot/videos/R_S_yt-ujTY1igjc3E_2.mp4	0.0	150.06366801261902	0.09996891021728516
32	86.17429685592651	fix_pre	0		14.0	30.0	2.5	/experiments/knapen_aot/videos/R_S_yt-738MRS0yI6g_177.mp4	0.0	150.1636369228363	0.11669397354125977
32	86.28277397155762	response	0	2		30.0	2.5	/experiments/knapen_aot/videos/R_S_yt-738MRS0yI6g_177.mp4	0.0	150.2721140384674	
32	86.29099082946777	movie	1		301.0	30.0	2.5	/experiments/knapen_aot/videos/R_S_yt-738MRS0yI6g_177.mp4	0.0	150.28033089637756	2.5083301067352295
32	88.799320936203	fix_post	2		12.0	30.0	2.5	/experiments/knapen_aot/videos/R_S_yt-738MRS0yI6g_177.mp4	0.0	152.7886610031128	0.09997010231018066
33	88.89929103851318	fix_pre	0		74.0	31.0	2.5	/experiments/knapen_aot/videos/S_yt-vjed5qyKqZw_1.mp4	0.0	152.88863110542297	0.6167938709259033
33	89.50764489173889	response	0	2		31.0	2.5	/experiments/knapen_aot/videos/S_yt-vjed5qyKqZw_1.mp4	0.0	153.49698495864868	
33	89.51608490943909	movie	1		298.0	31.0	2.5	/experiments/knapen_aot/videos/S_yt-vjed5qyKqZw_1.mp4	0.0	153.50542497634888	2.5082080364227295
33	91.6993989944458	response	1	2		31.0	2.5	/experiments/knapen_aot/videos/S_yt-vjed5qyKqZw_1.mp4	0.0	155.6887390613556	
33	92.02429294586182	fix_post	2		12.0	31.0	2.5	/experiments/knapen_aot/videos/S_yt-vjed5qyKqZw_1.mp4	0.0	156.0136330127716	0.10008406639099121
34	92.12437701225281	fix_pre	0		18.0	32.0	2.5	/experiments/knapen_aot/videos/R_S_production_ID_3761571.mp4	0.0	156.1137170791626	0.14986395835876465
34	92.26610684394836	response	0	2		32.0	2.5	/experiments/knapen_aot/videos/R_S_production_ID_3761571.mp4	0.0	156.25544691085815	
34	92.27424097061157	movie	1		165.0	32.0	2.5	/experiments/knapen_aot/videos/R_S_production_ID_3761571.mp4	0.0	156.26358103752136	2.5083370208740234
34	94.7825779914856	fix_post	2		12.0	32.0	2.5	/experiments/knapen_aot/videos/R_S_production_ID_3761571.mp4	0.0	158.77191805839539	0.09998393058776855
35	94.88256192207336	fix_pre	0		22.0	33.0	2.5	/experiments/knapen_aot/videos/R_S_yt-_zDYi2P-QxY_128.mp4	0.0	158.87190198898315	0.1833178997039795
35	95.0576958656311	response	0	2		33.0	2.5	/experiments/knapen_aot/videos/R_S_yt-_zDYi2P-QxY_128.mp4	0.0	159.0470359325409	
35	95.06587982177734	movie	1		301.0	33.0	2.5	/experiments/knapen_aot/videos/R_S_yt-_zDYi2P-QxY_128.mp4	0.0	159.05521988868713	2.508336067199707
35	97.57421588897705	fix_post	2		12.0	33.0	2.5	/experiments/knapen_aot/videos/R_S_yt-_zDYi2P-QxY_128.mp4	0.0	161.56355595588684	0.1000370979309082
36	97.67425298690796	fix_pre	0		8.0	34.0	2.5	/experiments/knapen_aot/videos/R_S_yt-kkbtZP78JxQ_96.mp4	0.0	161.66359305381775	0.06662583351135254
36	97.73273396492004	response	0	2		34.0	2.5	/experiments/knapen_aot/videos/R_S_yt-kkbtZP78JxQ_96.mp4	0.0	161.72207403182983	
36	97.74087882041931	movie	1		301.0	34.0	2.5	/experiments/knapen_aot/videos/R_S_yt-kkbtZP78JxQ_96.mp4	0.0	161.7302188873291	2.508317232131958
36	100.23266005516052	response	1	2		34.0	2.5	/experiments/knapen_aot/videos/R_S_yt-kkbtZP78JxQ_96.mp4	0.0	164.2220001220703	
36	100.24919605255127	fix_post	2		12.0	34.0	2.5	/experiments/knapen_aot/videos/R_S_yt-kkbtZP78JxQ_96.mp4	0.0	164.23853611946106	0.10018277168273926
37	100.34937882423401	fix_pre	0		37.0	35.0	2.5	blank	1.0	164.3387188911438	0.30817723274230957
37	100.64928889274597	response	0	2		35.0	2.5	blank	1.0	164.63862895965576	
37	100.65755605697632	movie	1		301.0	35.0	2.5	blank	1.0	164.6468961238861	2.508323907852173
37	103.16587996482849	fix_post	2		12.0	35.0	2.5	blank	1.0	167.15522003173828	0.10010790824890137
38	103.26598787307739	fix_pre	0		20.0	36.0	2.5	/experiments/knapen_aot/videos/R_S_ILSVRC2015_train_00495000.mp4	0.0	167.25532793998718	0.16660809516906738
38	103.42432999610901	response	0	2		36.0	2.5	/experiments/knapen_aot/videos/R_S_ILSVRC2015_train_00495000.mp4	0.0	167.4136700630188	
38	103.43259596824646	movie	1		301.0	36.0	2.5	/experiments/knapen_aot/videos/R_S_ILSVRC2015_train_00495000.mp4	0.0	167.42193603515625	2.5082268714904785
38	105.94082283973694	fix_post	2		12.0	36.0	2.5	/experiments/knapen_aot/videos/R_S_ILSVRC2015_train_00495000.mp4	0.0	169.93016290664673	0.10003304481506348
39	106.040855884552	fix_pre	0		56.0	37.0	2.5	/experiments/knapen_aot/videos/R_S_pexels-anthony-shkraba-7569650.mp4	0.0	170.0301959514618	0.46660304069519043
39	106.49935603141785	response	0	2		37.0	2.5	/experiments/knapen_aot/videos/R_S_pexels-anthony-shkraba-7569650.mp4	0.0	170.48869609832764	
39	106.50745892524719	movie	1		178.0	37.0	2.5	/experiments/knapen_aot/videos/R_S_pexels-anthony-shkraba-7569650.mp4	0.0	170.49679899215698	2.508492946624756
39	109.01595187187195	fix_post	2		12.0	37.0	2.5	/experiments/knapen_aot/videos/R_S_pexels-anthony-shkraba-7569650.mp4	0.0	173.00529193878174	0.09990715980529785
40	109.11585903167725	fix_pre	0		37.0	38.0	2.5	/experiments/knapen_aot/videos/R_S_yt-gMqeZkpA_1Q_61.mp4	0.0	173.10519909858704	0.3082308769226074
40	109.41597390174866	response	0	2		38.0	2.5	/experiments/knapen_aot/videos/R_S_yt-gMqeZkpA_1Q_61.mp4	0.0	173.40531396865845	
40	109.42408990859985	movie	1		300.0	38.0	2.5	/experiments/knapen_aot/videos/R_S_yt-gMqeZkpA_1Q_61.mp4	0.0	173.41342997550964	2.50846791267395
40	111.9325578212738	fix_post	2		12.0	38.0	2.5	/experiments/knapen_aot/videos/R_S_yt-gMqeZkpA_1Q_61.mp4	0.0	175.9218978881836	0.09991621971130371
41	112.03247404098511	fix_pre	0		381.0	39.0	2.5	/experiments/knapen_aot/videos/R_S_S003_C020_SDR_2K_AVC.mp4	0.0	176.0218141078949	3.1750059127807617
41	115.19929504394531	response	0	2		39.0	2.5	/experiments/knapen_aot/videos/R_S_S003_C020_SDR_2K_AVC.mp4	0.0	179.1886351108551	
41	115.20747995376587	movie	1		175.0	39.0	2.5	/experiments/knapen_aot/videos/R_S_S003_C020_SDR_2K_AVC.mp4	0.0	179.19682002067566	2.5083370208740234
41	117.71581697463989	fix_post	2		12.0	39.0	2.5	/experiments/knapen_aot/videos/R_S_S003_C020_SDR_2K_AVC.mp4	0.0	181.70515704154968	0.09999489784240723
42	117.8158118724823	fix_pre	0		6.0	40.0	2.5	blank	1.0	181.8051519393921	0.050050973892211914
42	117.85757899284363	response	0	2		40.0	2.5	blank	1.0	181.84691905975342	
42	117.86586284637451	movie	1		301.0	40.0	2.5	blank	1.0	181.8552029132843	2.508272171020508
42	120.37413501739502	fix_post	2		12.0	40.0	2.5	blank	1.0	184.3634750843048	0.09997987747192383
43	120.47411489486694	fix_pre	0		40.0	41.0	2.5	/experiments/knapen_aot/videos/R_S_yt-LYnwnfi1JJ4_120.mp4	0.0	184.46345496177673	0.33334803581237793
43	120.79928088188171	response	0	2		41.0	2.5	/experiments/knapen_aot/videos/R_S_yt-LYnwnfi1JJ4_120.mp4	0.0	184.7886209487915	
43	120.80746293067932	movie	1		300.0	41.0	2.5	/experiments/knapen_aot/videos/R_S_yt-LYnwnfi1JJ4_120.mp4	0.0	184.7968029975891	2.5082929134368896
43	123.31575584411621	fix_post	2		12.0	41.0	2.5	/experiments/knapen_aot/videos/R_S_yt-LYnwnfi1JJ4_120.mp4	0.0	187.305095911026	0.10005807876586914
44	123.41581392288208	fix_pre	0		13.0	42.0	2.5	/experiments/knapen_aot/videos/R_S_yt-x7NWmdlvVIQ_183.mp4	0.0	187.40515398979187	0.10830307006835938
44	123.51590085029602	response	0	2		42.0	2.5	/experiments/knapen_aot/videos/R_S_yt-x7NWmdlvVIQ_183.mp4	0.0	187.5052409172058	
44	123.52411699295044	movie	1		301.0	42.0	2.5	/experiments/knapen_aot/videos/R_S_yt-x7NWmdlvVIQ_183.mp4	0.0	187.51345705986023	2.508319854736328
44	126.03243684768677	fix_post	2		12.0	42.0	2.5	/experiments/knapen_aot/videos/R_S_yt-x7NWmdlvVIQ_183.mp4	0.0	190.02177691459656	0.09994101524353027
45	126.1323778629303	fix_pre	0		28.0	43.0	2.5	/experiments/knapen_aot/videos/S_yt-9Ow95khYa_M_91.mp4	0.0	190.1217179298401	0.2333531379699707
45	126.35744285583496	response	0	2		43.0	2.5	/experiments/knapen_aot/videos/S_yt-9Ow95khYa_M_91.mp4	0.0	190.34678292274475	
45	126.36573100090027	movie	1		301.0	43.0	2.5	/experiments/knapen_aot/videos/S_yt-9Ow95khYa_M_91.mp4	0.0	190.35507106781006	2.508347988128662
45	128.87407898902893	fix_post	2		12.0	43.0	2.5	/experiments/knapen_aot/videos/S_yt-9Ow95khYa_M_91.mp4	0.0	192.86341905593872	0.09997296333312988
46	128.97405195236206	fix_pre	0		53.0	44.0	2.5	/experiments/knapen_aot/videos/S_yt-BAwvfRmE1LU_79.mp4	0.0	192.96339201927185	0.4416940212249756
46	129.40757393836975	response	0	2		44.0	2.5	/experiments/knapen_aot/videos/S_yt-BAwvfRmE1LU_79.mp4	0.0	193.39691400527954	
46	129.41574597358704	movie	1		301.0	44.0	2.5	/experiments/knapen_aot/videos/S_yt-BAwvfRmE1LU_79.mp4	0.0	193.40508604049683	2.5083088874816895
46	131.92405486106873	fix_post	2		12.0	44.0	2.5	/experiments/knapen_aot/videos/S_yt-BAwvfRmE1LU_79.mp4	0.0	195.91339492797852	0.10001516342163086
47	132.02407002449036	fix_pre	0		3.0	45.0	2.5	/experiments/knapen_aot/videos/R_S_comp_H007_C003_PS_v01_SDR_PS_20180925_SDR_2K_AVC.mp4	0.0	196.01341009140015	0.026482820510864258
47	132.04090905189514	response	0	2		45.0	2.5	/experiments/knapen_aot/videos/R_S_comp_H007_C003_PS_v01_SDR_PS_20180925_SDR_2K_AVC.mp4	0.0	196.03024911880493	
47	132.05055284500122	movie	1		184.0	45.0	2.5	/experiments/knapen_aot/videos/R_S_comp_H007_C003_PS_v01_SDR_PS_20180925_SDR_2K_AVC.mp4	0.0	196.039892911911	2.506826162338257
47	134.55737900733948	fix_post	2		12.0	45.0	2.5	/experiments/knapen_aot/videos/R_S_comp_H007_C003_PS_v01_SDR_PS_20180925_SDR_2K_AVC.mp4	0.0	198.54671907424927	0.09994983673095703
48	134.65732884407043	fix_pre	0		29.0	46.0	2.5	/experiments/knapen_aot/videos/R_S_yt-K-iCphzt_RE_17.mp4	0.0	198.64666891098022	0.24174118041992188
48	134.8908429145813	response	0	2		46.0	2.5	/experiments/knapen_aot/videos/R_S_yt-K-iCphzt_RE_17.mp4	0.0	198.8801829814911	
48	134.89907002449036	movie	1		301.0	46.0	2.5	/experiments/knapen_aot/videos/R_S_yt-K-iCphzt_RE_17.mp4	0.0	198.88841009140015	2.508253812789917
48	137.40732383728027	fix_post	2		12.0	46.0	2.5	/experiments/knapen_aot/videos/R_S_yt-K-iCphzt_RE_17.mp4	0.0	201.39666390419006	0.10006308555603027
49	137.5073869228363	fix_pre	0		80.0	47.0	2.5	/experiments/knapen_aot/videos/S_yt-LYnwnfi1JJ4_120.mp4	0.0	201.4967269897461	0.6680009365081787
49	138.16587090492249	response	0	2		47.0	2.5	/experiments/knapen_aot/videos/S_yt-LYnwnfi1JJ4_120.mp4	0.0	202.15521097183228	
49	138.17538785934448	movie	1		301.0	47.0	2.5	/experiments/knapen_aot/videos/S_yt-LYnwnfi1JJ4_120.mp4	0.0	202.16472792625427	2.5070509910583496
49	140.68243885040283	fix_post	2		12.0	47.0	2.5	/experiments/knapen_aot/videos/S_yt-LYnwnfi1JJ4_120.mp4	0.0	204.67177891731262	0.099945068359375
50	140.7823839187622	fix_pre	0		27.0	48.0	2.5	blank	1.0	204.771723985672	0.2250049114227295
50	140.9991638660431	response	0	2		48.0	2.5	blank	1.0	204.98850393295288	
50	141.00738883018494	movie	1		301.0	48.0	2.5	blank	1.0	204.99672889709473	2.508305072784424
50	143.51569390296936	fix_post	2		12.0	48.0	2.5	blank	1.0	207.50503396987915	0.0999150276184082
51	143.61560893058777	fix_pre	0		23.0	49.0	2.5	/experiments/knapen_aot/videos/R_S_yt-XtzmBXKYEWk_60.mp4	0.0	207.60494899749756	0.19173789024353027
51	143.79918003082275	response	0	2		49.0	2.5	/experiments/knapen_aot/videos/R_S_yt-XtzmBXKYEWk_60.mp4	0.0	207.78852009773254	
51	143.8073468208313	movie	1		301.0	49.0	2.5	/experiments/knapen_aot/videos/R_S_yt-XtzmBXKYEWk_60.mp4	0.0	207.7966868877411	2.508327007293701
51	146.315673828125	fix_post	2		12.0	49.0	2.5	/experiments/knapen_aot/videos/R_S_yt-XtzmBXKYEWk_60.mp4	0.0	210.3050138950348	0.09998607635498047
52	146.41565990447998	fix_pre	0		26.0	50.0	2.5	/experiments/knapen_aot/videos/S_comp_GMT312_162NC_139M_1041_AFRICA_NIGHT_v14_SDR_FINAL_20180706_SDR_2K_AVC.mp4	0.0	210.40499997138977	0.21671295166015625
52	146.624037027359	response	0	2		50.0	2.5	/experiments/knapen_aot/videos/S_comp_GMT312_162NC_139M_1041_AFRICA_NIGHT_v14_SDR_FINAL_20180706_SDR_2K_AVC.mp4	0.0	210.6133770942688	
52	146.63237285614014	movie	1		167.0	50.0	2.5	/experiments/knapen_aot/videos/S_comp_GMT312_162NC_139M_1041_AFRICA_NIGHT_v14_SDR_FINAL_20180706_SDR_2K_AVC.mp4	0.0	210.62171292304993	2.508305072784424
52	149.14067792892456	fix_post	2		12.0	50.0	2.5	/experiments/knapen_aot/videos/S_comp_GMT312_162NC_139M_1041_AFRICA_NIGHT_v14_SDR_FINAL_20180706_SDR_2K_AVC.mp4	0.0	213.13001799583435	0.09999704360961914
53	149.24067497253418	fix_pre	0		16.0	51.0	2.5	/experiments/knapen_aot/videos/R_S_yt-V5iQ3MbihnI_103.mp4	0.0	213.23001503944397	0.13325905799865723
53	149.3658230304718	response	0	2		51.0	2.5	/experiments/knapen_aot/videos/R_S_yt-V5iQ3MbihnI_103.mp4	0.0	213.3551630973816	
53	149.37393403053284	movie	1		301.0	51.0	2.5	/experiments/knapen_aot/videos/R_S_yt-V5iQ3MbihnI_103.mp4	0.0	213.36327409744263	2.508312940597534
53	151.88224697113037	fix_post	2		12.0	51.0	2.5	/experiments/knapen_aot/videos/R_S_yt-V5iQ3MbihnI_103.mp4	0.0	215.87158703804016	0.10007190704345703
54	151.98231887817383	fix_pre	0		12.0	52.0	2.5	/experiments/knapen_aot/videos/R_S_yt-ycQy_fHCK-U_8.mp4	0.0	215.97165894508362	0.09997010231018066
54	152.074138879776	response	0	2		52.0	2.5	/experiments/knapen_aot/videos/R_S_yt-ycQy_fHCK-U_8.mp4	0.0	216.0634789466858	
54	152.082288980484	movie	1		301.0	52.0	2.5	/experiments/knapen_aot/videos/R_S_yt-ycQy_fHCK-U_8.mp4	0.0	216.0716290473938	2.5084068775177
54	154.5906958580017	fix_post	2		12.0	52.0	2.5	/experiments/knapen_aot/videos/R_S_yt-ycQy_fHCK-U_8.mp4	0.0	218.5800359249115	0.09998607635498047
55	154.6906819343567	fix_pre	0		41.0	53.0	2.5	/experiments/knapen_aot/videos/R_S_yt-BLmwmX-mni8_1030.mp4	0.0	218.68002200126648	0.3416891098022461
55	155.02412700653076	response	0	2		53.0	2.5	/experiments/knapen_aot/videos/R_S_yt-BLmwmX-mni8_1030.mp4	0.0	219.01346707344055	
55	155.03237104415894	movie	1		298.0	53.0	2.5	/experiments/knapen_aot/videos/R_S_yt-BLmwmX-mni8_1030.mp4	0.0	219.02171111106873	2.508229970932007
55	157.54060101509094	fix_post	2		12.0	53.0	2.5	/experiments/knapen_aot/videos/R_S_yt-BLmwmX-mni8_1030.mp4	0.0	221.52994108200073	0.10002684593200684
55	157.63245296478271	response	2	2		53.0	2.5	/experiments/knapen_aot/videos/R_S_yt-BLmwmX-mni8_1030.mp4	0.0	221.6217930316925	
56	157.64062786102295	fix_pre	0		46.0	54.0	2.5	/experiments/knapen_aot/videos/S_BO_A018_C029_SDR_20190812_SDR_2K_AVC.mp4	0.0	221.62996792793274	0.38330912590026855
56	158.01574397087097	response	0	2		54.0	2.5	/experiments/knapen_aot/videos/S_BO_A018_C029_SDR_20190812_SDR_2K_AVC.mp4	0.0	222.00508403778076	
56	158.02393698692322	movie	1		173.0	54.0	2.5	/experiments/knapen_aot/videos/S_BO_A018_C029_SDR_20190812_SDR_2K_AVC.mp4	0.0	222.013277053833	2.5083000659942627
56	160.53223705291748	fix_post	2		12.0	54.0	2.5	/experiments/knapen_aot/videos/S_BO_A018_C029_SDR_20190812_SDR_2K_AVC.mp4	0.0	224.52157711982727	0.10001897811889648
57	160.63225603103638	fix_pre	0		7.0	55.0	2.5	blank	1.0	224.62159609794617	0.05839180946350098
57	160.68243789672852	response	0	2		55.0	2.5	blank	1.0	224.6717779636383	
57	160.69064784049988	movie	1		301.0	55.0	2.5	blank	1.0	224.67998790740967	2.5082950592041016
57	163.19894289970398	fix_post	2		12.0	55.0	2.5	blank	1.0	227.18828296661377	0.10003495216369629
58	163.29897785186768	fix_pre	0		33.0	56.0	2.5	/experiments/knapen_aot/videos/S_ILSVRC2015_train_00251005.mp4	0.0	227.28831791877747	0.2749180793762207
58	163.55815482139587	response	0	2		56.0	2.5	/experiments/knapen_aot/videos/S_ILSVRC2015_train_00251005.mp4	0.0	227.54749488830566	
58	163.5738959312439	movie	1		301.0	56.0	2.5	/experiments/knapen_aot/videos/S_ILSVRC2015_train_00251005.mp4	0.0	227.5632359981537	2.508328914642334
58	166.08222484588623	fix_post	2		12.0	56.0	2.5	/experiments/knapen_aot/videos/S_ILSVRC2015_train_00251005.mp4	0.0	230.07156491279602	0.10006213188171387
59	166.18228697776794	fix_pre	0		18.0	57.0	2.5	/experiments/knapen_aot/videos/S_yt-x6tYi0lRGqU_114.mp4	0.0	230.17162704467773	0.14995694160461426
59	166.3240659236908	response	0	2		57.0	2.5	/experiments/knapen_aot/videos/S_yt-x6tYi0lRGqU_114.mp4	0.0	230.3134059906006	
59	166.33224391937256	movie	1		301.0	57.0	2.5	/experiments/knapen_aot/videos/S_yt-x6tYi0lRGqU_114.mp4	0.0	230.32158398628235	2.508323907852173
59	168.84056782722473	fix_post	2		12.0	57.0	2.5	/experiments/knapen_aot/videos/S_yt-x6tYi0lRGqU_114.mp4	0.0	232.82990789413452	0.09991717338562012
60	168.94048500061035	fix_pre	0		16.0	58.0	2.5	/experiments/knapen_aot/videos/S_yt-4NjyKFnwHBo_13.mp4	0.0	232.92982506752014	0.13337993621826172
60	169.06572198867798	response	0	2		58.0	2.5	/experiments/knapen_aot/videos/S_yt-4NjyKFnwHBo_13.mp4	0.0	233.05506205558777	
60	169.0738649368286	movie	1		301.0	58.0	2.5	/experiments/knapen_aot/videos/S_yt-4NjyKFnwHBo_13.mp4	0.0	233.0632050037384	2.508368968963623
60	171.58223390579224	fix_post	2		12.0	58.0	2.5	/experiments/knapen_aot/videos/S_yt-4NjyKFnwHBo_13.mp4	0.0	235.57157397270203	0.10003495216369629
61	171.68226885795593	fix_pre	0		29.0	59.0	2.5	/experiments/knapen_aot/videos/R_S_yt-ObT9gF8E_tU_250.mp4	0.0	235.67160892486572	0.24278497695922852
61	171.91568398475647	response	0	2		59.0	2.5	/experiments/knapen_aot/videos/R_S_yt-ObT9gF8E_tU_250.mp4	0.0	235.90502405166626	
61	171.92505383491516	movie	1		301.0	59.0	2.5	/experiments/knapen_aot/videos/R_S_yt-ObT9gF8E_tU_250.mp4	0.0	235.91439390182495	2.5071921348571777
61	174.43224596977234	fix_post	2		12.0	59.0	2.5	/experiments/knapen_aot/videos/R_S_yt-ObT9gF8E_tU_250.mp4	0.0	238.42158603668213	0.09998607635498047
61	174.51567196846008	response	2	2		59.0	2.5	/experiments/knapen_aot/videos/R_S_yt-ObT9gF8E_tU_250.mp4	0.0	238.50501203536987	
62	174.53223204612732	fix_pre	0		64.0	60.0	2.5	/experiments/knapen_aot/videos/S_yt-YeT4acsbqok_210.mp4	0.0	238.5215721130371	0.5332958698272705
62	175.05729603767395	response	0	2		60.0	2.5	/experiments/knapen_aot/videos/S_yt-YeT4acsbqok_210.mp4	0.0	239.04663610458374	
62	175.0655279159546	movie	1		301.0	60.0	2.5	/experiments/knapen_aot/videos/S_yt-YeT4acsbqok_210.mp4	0.0	239.05486798286438	2.5083329677581787
62	177.57386088371277	fix_post	2		12.0	60.0	2.5	/experiments/knapen_aot/videos/S_yt-YeT4acsbqok_210.mp4	0.0	241.56320095062256	0.10003209114074707
63	177.67389297485352	fix_pre	0		16.0	61.0	2.5	/experiments/knapen_aot/videos/R_S_yt-_zDYi2P-QxY_128.mp4	0.0	241.6632330417633	0.1332700252532959
63	177.79900193214417	response	0	2		61.0	2.5	/experiments/knapen_aot/videos/R_S_yt-_zDYi2P-QxY_128.mp4	0.0	241.78834199905396	
63	177.8071630001068	movie	1		301.0	61.0	2.5	/experiments/knapen_aot/videos/R_S_yt-_zDYi2P-QxY_128.mp4	0.0	241.7965030670166	2.508327007293701
63	180.3154900074005	fix_post	2		12.0	61.0	2.5	/experiments/knapen_aot/videos/R_S_yt-_zDYi2P-QxY_128.mp4	0.0	244.3048300743103	0.10001087188720703
64	180.41550087928772	fix_pre	0		10.0	62.0	2.5	blank	1.0	244.4048409461975	0.08332395553588867
64	180.49066400527954	response	0	2		62.0	2.5	blank	1.0	244.48000407218933	
64	180.4988248348236	movie	1		301.0	62.0	2.5	blank	1.0	244.4881649017334	2.5083820819854736
64	183.00720691680908	fix_post	2		12.0	62.0	2.5	blank	1.0	246.99654698371887	0.09997797012329102
65	183.10718488693237	fix_pre	0		14.0	63.0	2.5	/experiments/knapen_aot/videos/S_yt-YTQXM5ZjRgg_116.mp4	0.0	247.09652495384216	0.11661815643310547
65	183.21553587913513	response	0	2		63.0	2.5	/experiments/knapen_aot/videos/S_yt-YTQXM5ZjRgg_116.mp4	0.0	247.20487594604492	
65	183.22380304336548	movie	1		301.0	63.0	2.5	/experiments/knapen_aot/videos/S_yt-YTQXM5ZjRgg_116.mp4	0.0	247.21314311027527	2.508427858352661
65	185.73223090171814	fix_post	2		12.0	63.0	2.5	/experiments/knapen_aot/videos/S_yt-YTQXM5ZjRgg_116.mp4	0.0	249.72157096862793	0.09998798370361328
66	185.83221888542175	fix_pre	0		6.0	64.0	2.5	/experiments/knapen_aot/videos/R_S_gX_VbZnZO0k_13.mp4	0.0	249.82155895233154	0.05114102363586426
66	185.87407088279724	response	0	2		64.0	2.5	/experiments/knapen_aot/videos/R_S_gX_VbZnZO0k_13.mp4	0.0	249.86341094970703	
66	185.88335990905762	movie	1		301.0	64.0	2.5	/experiments/knapen_aot/videos/R_S_gX_VbZnZO0k_13.mp4	0.0	249.8726999759674	2.5071630477905273
66	188.39052295684814	fix_post	2		12.0	64.0	2.5	/experiments/knapen_aot/videos/R_S_gX_VbZnZO0k_13.mp4	0.0	252.37986302375793	0.09998488426208496
67	188.49050784111023	fix_pre	0		13.0	65.0	2.5	/experiments/knapen_aot/videos/R_S_yt-2jVJb1PR2XA_16.mp4	0.0	252.47984790802002	0.10828900337219238
67	188.59064292907715	response	0	2		65.0	2.5	/experiments/knapen_aot/videos/R_S_yt-2jVJb1PR2XA_16.mp4	0.0	252.57998299598694	
67	188.59879684448242	movie	1		300.0	65.0	2.5	/experiments/knapen_aot/videos/R_S_yt-2jVJb1PR2XA_16.mp4	0.0	252.5881369113922	2.508388042449951
67	191.10718488693237	fix_post	2		12.0	65.0	2.5	/experiments/knapen_aot/videos/R_S_yt-2jVJb1PR2XA_16.mp4	0.0	255.09652495384216	0.10003805160522461
68	191.2072229385376	fix_pre	0		15.0	66.0	2.5	/experiments/knapen_aot/videos/R_S_Y011_C008_SDR_2K_AVC.mp4	0.0	255.1965630054474	0.12499594688415527
68	191.32396984100342	response	0	2		66.0	2.5	/experiments/knapen_aot/videos/R_S_Y011_C008_SDR_2K_AVC.mp4	0.0	255.3133099079132	
68	191.33221888542175	movie	1		175.0	66.0	2.5	/experiments/knapen_aot/videos/R_S_Y011_C008_SDR_2K_AVC.mp4	0.0	255.32155895233154	2.5082530975341797
68	193.84047198295593	fix_post	2		12.0	66.0	2.5	/experiments/knapen_aot/videos/R_S_Y011_C008_SDR_2K_AVC.mp4	0.0	257.8298120498657	0.10005688667297363
69	193.9405288696289	fix_pre	0		8.0	67.0	2.5	/experiments/knapen_aot/videos/R_S_yt-2kPrGwVmRfE_169.mp4	0.0	257.9298689365387	0.06769609451293945
69	193.9990198612213	response	0	2		67.0	2.5	/experiments/knapen_aot/videos/R_S_yt-2kPrGwVmRfE_169.mp4	0.0	257.9883599281311	
69	194.00822496414185	movie	1		301.0	67.0	2.5	/experiments/knapen_aot/videos/R_S_yt-2kPrGwVmRfE_169.mp4	0.0	257.99756503105164	2.507230043411255
69	196.5154550075531	fix_post	2		12.0	67.0	2.5	/experiments/knapen_aot/videos/R_S_yt-2kPrGwVmRfE_169.mp4	0.0	260.5047950744629	0.10007500648498535
70	196.6155300140381	fix_pre	0		11.0	68.0	2.5	/experiments/knapen_aot/videos/R_S_comp_GMT110_112NC_364D_1054_AURORA_ANTARTICA__COMP_FINAL_v34_PS_SDR_20181107_SDR_2K_AVC.mp4	0.0	260.6048700809479	0.09164285659790039
70	196.6988959312439	response	0	2		68.0	2.5	/experiments/knapen_aot/videos/R_S_comp_GMT110_112NC_364D_1054_AURORA_ANTARTICA__COMP_FINAL_v34_PS_SDR_20181107_SDR_2K_AVC.mp4	0.0	260.6882359981537	
70	196.707172870636	movie	1		166.0	68.0	2.5	/experiments/knapen_aot/videos/R_S_comp_GMT110_112NC_364D_1054_AURORA_ANTARTICA__COMP_FINAL_v34_PS_SDR_20181107_SDR_2K_AVC.mp4	0.0	260.6965129375458	2.5082650184631348
70	199.21543788909912	fix_post	2		12.0	68.0	2.5	/experiments/knapen_aot/videos/R_S_comp_GMT110_112NC_364D_1054_AURORA_ANTARTICA__COMP_FINAL_v34_PS_SDR_20181107_SDR_2K_AVC.mp4	0.0	263.2047779560089	0.09997105598449707
71	199.31540894508362	fix_pre	0		4.0	69.0	2.5	/experiments/knapen_aot/videos/R_S_pexels-cottonbro-10640532.mp4	0.0	263.3047490119934	0.0333859920501709
71	199.34053993225098	response	0	2		69.0	2.5	/experiments/knapen_aot/videos/R_S_pexels-cottonbro-10640532.mp4	0.0	263.32987999916077	
71	199.3487949371338	movie	1		197.0	69.0	2.5	/experiments/knapen_aot/videos/R_S_pexels-cottonbro-10640532.mp4	0.0	263.3381350040436	2.5082669258117676
71	201.85706186294556	fix_post	2		12.0	69.0	2.5	/experiments/knapen_aot/videos/R_S_pexels-cottonbro-10640532.mp4	0.0	265.84640192985535	0.1000680923461914
72	201.95712995529175	fix_pre	0		1.0	70.0	2.5	blank	1.0	265.94647002220154	0.009372949600219727
72	201.95016288757324	response	0	2		70.0	2.5	blank	1.0	265.93950295448303	
72	201.96650290489197	movie	1		301.0	70.0	2.5	blank	1.0	265.95584297180176	2.507246971130371
72	204.29890704154968	response	1	2		70.0	2.5	blank	1.0	268.2882471084595	
72	204.47374987602234	fix_post	2		12.0	70.0	2.5	blank	1.0	268.46308994293213	0.10003399848937988
73	204.57378387451172	fix_pre	0		19.0	71.0	2.5	/experiments/knapen_aot/videos/R_S_yt-N7ztk2fa3Ls_137.mp4	0.0	268.5631239414215	0.15826702117919922
73	204.7238998413086	response	0	2		71.0	2.5	/experiments/knapen_aot/videos/R_S_yt-N7ztk2fa3Ls_137.mp4	0.0	268.7132399082184	
73	204.73205089569092	movie	1		301.0	71.0	2.5	/experiments/knapen_aot/videos/R_S_yt-N7ztk2fa3Ls_137.mp4	0.0	268.7213909626007	2.5083110332489014
73	207.24036192893982	fix_post	2		12.0	71.0	2.5	/experiments/knapen_aot/videos/R_S_yt-N7ztk2fa3Ls_137.mp4	0.0	271.2297019958496	0.10010504722595215
74	207.34046697616577	fix_pre	0		16.0	72.0	2.5	/experiments/knapen_aot/videos/S_yt-E8EDQCPbBeI_196.mp4	0.0	271.32980704307556	0.13326191902160645
74	207.46550989151	response	0	2		72.0	2.5	/experiments/knapen_aot/videos/S_yt-E8EDQCPbBeI_196.mp4	0.0	271.4548499584198	
74	207.47372889518738	movie	1		301.0	72.0	2.5	/experiments/knapen_aot/videos/S_yt-E8EDQCPbBeI_196.mp4	0.0	271.46306896209717	2.5083539485931396
74	209.98208284378052	fix_post	2		12.0	72.0	2.5	/experiments/knapen_aot/videos/S_yt-E8EDQCPbBeI_196.mp4	0.0	273.9714229106903	0.10000205039978027
75	210.0820848941803	fix_pre	0		21.0	73.0	2.5	/experiments/knapen_aot/videos/S_yt-FE5srhxadno_73.mp4	0.0	274.0714249610901	0.1759660243988037
75	210.24887704849243	response	0	2		73.0	2.5	/experiments/knapen_aot/videos/S_yt-FE5srhxadno_73.mp4	0.0	274.2382171154022	
75	210.2580509185791	movie	1		301.0	73.0	2.5	/experiments/knapen_aot/videos/S_yt-FE5srhxadno_73.mp4	0.0	274.2473909854889	2.5073649883270264
75	212.76541590690613	fix_post	2		12.0	73.0	2.5	/experiments/knapen_aot/videos/S_yt-FE5srhxadno_73.mp4	0.0	276.7547559738159	0.09993600845336914
76	212.8653519153595	fix_pre	0		14.0	74.0	2.5	/experiments/knapen_aot/videos/R_S_yt-FzMLLmcD1mE_19.mp4	0.0	276.8546919822693	0.11668896675109863
76	212.9738368988037	response	0	2		74.0	2.5	/experiments/knapen_aot/videos/R_S_yt-FzMLLmcD1mE_19.mp4	0.0	276.9631769657135	
76	212.9820408821106	movie	1		301.0	74.0	2.5	/experiments/knapen_aot/videos/R_S_yt-FzMLLmcD1mE_19.mp4	0.0	276.9713809490204	2.5083370208740234
76	215.49037790298462	fix_post	2		12.0	74.0	2.5	/experiments/knapen_aot/videos/R_S_yt-FzMLLmcD1mE_19.mp4	0.0	279.4797179698944	0.0999441146850586
77	215.59032201766968	fix_pre	0		22.0	75.0	2.5	/experiments/knapen_aot/videos/S_ILSVRC2015_train_00495000.mp4	0.0	279.57966208457947	0.18335986137390137
77	215.75791692733765	response	0	2		75.0	2.5	/experiments/knapen_aot/videos/S_ILSVRC2015_train_00495000.mp4	0.0	279.74725699424744	
77	215.77368187904358	movie	1		301.0	75.0	2.5	/experiments/knapen_aot/videos/S_ILSVRC2015_train_00495000.mp4	0.0	279.76302194595337	2.50833797454834
77	218.28201985359192	fix_post	2		12.0	75.0	2.5	/experiments/knapen_aot/videos/S_ILSVRC2015_train_00495000.mp4	0.0	282.2713599205017	0.10003900527954102
78	218.38205885887146	fix_pre	0		32.0	76.0	2.5	blank	1.0	282.37139892578125	0.26654601097106934
78	218.6405668258667	response	0	2		76.0	2.5	blank	1.0	282.6299068927765	
78	218.64860486984253	movie	1		301.0	76.0	2.5	blank	1.0	282.6379449367523	2.5084481239318848
78	221.1570529937744	fix_post	2		12.0	76.0	2.5	blank	1.0	285.1463930606842	0.09994792938232422
79	221.25700092315674	fix_pre	0		42.0	77.0	2.5	/experiments/knapen_aot/videos/S_S003_C020_SDR_2K_AVC.mp4	0.0	285.2463409900665	0.34999799728393555
79	221.59871888160706	response	0	2		77.0	2.5	/experiments/knapen_aot/videos/S_S003_C020_SDR_2K_AVC.mp4	0.0	285.58805894851685	
79	221.60699892044067	movie	1		174.0	77.0	2.5	/experiments/knapen_aot/videos/S_S003_C020_SDR_2K_AVC.mp4	0.0	285.59633898735046	2.5083670616149902
79	224.11536598205566	fix_post	2		12.0	77.0	2.5	/experiments/knapen_aot/videos/S_S003_C020_SDR_2K_AVC.mp4	0.0	288.10470604896545	0.09999489784240723
80	224.21536087989807	fix_pre	0		17.0	78.0	2.5	/experiments/knapen_aot/videos/R_S_wc-TAGpcap1KdAS_212.mp4	0.0	288.20470094680786	0.14161014556884766
80	224.3413050174713	response	0	2		78.0	2.5	/experiments/knapen_aot/videos/R_S_wc-TAGpcap1KdAS_212.mp4	0.0	288.3306450843811	
80	224.35697102546692	movie	1		301.0	78.0	2.5	/experiments/knapen_aot/videos/R_S_wc-TAGpcap1KdAS_212.mp4	0.0	288.3463110923767	2.5083179473876953
80	226.86528897285461	fix_post	2		12.0	78.0	2.5	/experiments/knapen_aot/videos/R_S_wc-TAGpcap1KdAS_212.mp4	0.0	290.8546290397644	0.09994697570800781
81	226.96523594856262	fix_pre	0		35.0	79.0	2.5	/experiments/knapen_aot/videos/R_S_yt-PP93D7b7Ni4_10.mp4	0.0	290.9545760154724	0.29259610176086426
81	227.24880504608154	response	0	2		79.0	2.5	/experiments/knapen_aot/videos/R_S_yt-PP93D7b7Ni4_10.mp4	0.0	291.23814511299133	
81	227.2578320503235	movie	1		301.0	79.0	2.5	/experiments/knapen_aot/videos/R_S_yt-PP93D7b7Ni4_10.mp4	0.0	291.2471721172333	2.5074729919433594
81	229.76530504226685	fix_post	2		12.0	79.0	2.5	/experiments/knapen_aot/videos/R_S_yt-PP93D7b7Ni4_10.mp4	0.0	293.75464510917664	0.09997081756591797
81	229.80721187591553	response	2	2		79.0	2.5	/experiments/knapen_aot/videos/R_S_yt-PP93D7b7Ni4_10.mp4	0.0	293.7965519428253	
82	229.86527585983276	fix_pre	0		41.0	80.0	2.5	/experiments/knapen_aot/videos/S_yt-PltpRRYmQQk_62.mp4	0.0	293.85461592674255	0.34174418449401855
82	230.1987738609314	response	0	2		80.0	2.5	/experiments/knapen_aot/videos/S_yt-PltpRRYmQQk_62.mp4	0.0	294.1881139278412	
82	230.20702004432678	movie	1		301.0	80.0	2.5	/experiments/knapen_aot/videos/S_yt-PltpRRYmQQk_62.mp4	0.0	294.1963601112366	2.508417844772339
82	232.71543788909912	fix_post	2		12.0	80.0	2.5	/experiments/knapen_aot/videos/S_yt-PltpRRYmQQk_62.mp4	0.0	296.7047779560089	0.09991693496704102
83	232.81535482406616	fix_pre	0		18.0	81.0	2.5	/experiments/knapen_aot/videos/S_video_inspire_texas_austin_oct2019_evening_00085.1080-h264.mp4	0.0	296.80469489097595	0.15080618858337402
83	232.95709896087646	response	0	2		81.0	2.5	/experiments/knapen_aot/videos/S_video_inspire_texas_austin_oct2019_evening_00085.1080-h264.mp4	0.0	296.94643902778625	
83	232.96616101264954	movie	1		167.0	81.0	2.5	/experiments/knapen_aot/videos/S_video_inspire_texas_austin_oct2019_evening_00085.1080-h264.mp4	0.0	296.9555010795593	2.5075409412384033
83	235.47370195388794	fix_post	2		12.0	81.0	2.5	/experiments/knapen_aot/videos/S_video_inspire_texas_austin_oct2019_evening_00085.1080-h264.mp4	0.0	299.46304202079773	0.10001301765441895
83	235.48212790489197	response	2	2		81.0	2.5	/experiments/knapen_aot/videos/S_video_inspire_texas_austin_oct2019_evening_00085.1080-h264.mp4	0.0	299.47146797180176	
84	235.57371497154236	fix_pre	0		59.0	82.0	2.5	/experiments/knapen_aot/videos/R_S_comp_A008_C007_011550_CC_v01_SDR_PS_FINAL_20180709_SDR_2K_AVC.mp4	0.0	299.56305503845215	0.4916529655456543
84	236.05705094337463	response	0	2		82.0	2.5	/experiments/knapen_aot/videos/R_S_comp_A008_C007_011550_CC_v01_SDR_PS_FINAL_20180709_SDR_2K_AVC.mp4	0.0	300.0463910102844	
84	236.065367937088	movie	1		167.0	82.0	2.5	/experiments/knapen_aot/videos/R_S_comp_A008_C007_011550_CC_v01_SDR_PS_FINAL_20180709_SDR_2K_AVC.mp4	0.0	300.0547080039978	2.5082569122314453
84	238.57362484931946	fix_post	2		12.0	82.0	2.5	/experiments/knapen_aot/videos/R_S_comp_A008_C007_011550_CC_v01_SDR_PS_FINAL_20180709_SDR_2K_AVC.mp4	0.0	302.56296491622925	0.10003519058227539
85	238.67366003990173	fix_pre	0		5.0	83.0	2.5	blank	1.0	302.6630001068115	0.04274892807006836
85	238.70040798187256	response	0	2		83.0	2.5	blank	1.0	302.68974804878235	
85	238.7164089679718	movie	1		301.0	83.0	2.5	blank	1.0	302.7057490348816	2.507267951965332
85	241.22367691993713	fix_post	2		12.0	83.0	2.5	blank	1.0	305.2130169868469	0.09999895095825195
87	241.32367587089539	stim	0		371.0					305.3130159378052	3.093954086303711
87	241.41548204421997	response	0	2						305.40482211112976	
87	244.41001296043396	response	0	space						308.39935302734375	
