trial_nr	onset	event_type	phase	response	nr_frames	movie_index	movie_duration	movie_file	blank	onset_abs	duration
0	0.13292908668518066	stim	0		69.0					54.81662201881409	0.5752320289611816
0	0.6997721195220947	response	0	space						55.383465051651	
1	0.7081611156463623	stim	0		121.0					55.39185404777527	1.0077829360961914
1	1.4165921211242676	response	0	space						56.100285053253174	
1	1.7159440517425537	stim	1		120.0					56.39963698387146	1.0000240802764893
1	2.674360990524292	response	1	space						57.3580539226532	
2	2.715968132019043	fix_pre	0		71.0	0.0	2.5	/experiments/knapen_aot/videos/S_wc-8bTJmWfuVyJ4_8.mp4	0.0	57.39966106414795	0.5915889739990234
2	3.2993581295013428	response	0	space		0.0	2.5	/experiments/knapen_aot/videos/S_wc-8bTJmWfuVyJ4_8.mp4	0.0	57.98305106163025	
2	3.3075571060180664	movie	1		162.0	0.0	2.5	/experiments/knapen_aot/videos/S_wc-8bTJmWfuVyJ4_8.mp4	0.0	57.99125003814697	2.5083560943603516
2	5.815913200378418	fix_post	2		12.0	0.0	2.5	/experiments/knapen_aot/videos/S_wc-8bTJmWfuVyJ4_8.mp4	0.0	60.499606132507324	0.10041499137878418
3	5.916328191757202	fix_pre	0		36.0	1.0	2.5	/experiments/knapen_aot/videos/S_production_ID_5102663.mp4	0.0	60.60002112388611	0.2995028495788574
3	6.210036993026733	response	0	2		1.0	2.5	/experiments/knapen_aot/videos/S_production_ID_5102663.mp4	0.0	60.89372992515564	
3	6.21583104133606	movie	1		204.0	1.0	2.5	/experiments/knapen_aot/videos/S_production_ID_5102663.mp4	0.0	60.899523973464966	2.5083980560302734
3	8.724229097366333	fix_post	2		12.0	1.0	2.5	/experiments/knapen_aot/videos/S_production_ID_5102663.mp4	0.0	63.40792202949524	0.0999600887298584
4	8.824189186096191	fix_pre	0		38.0	2.0	2.5	/experiments/knapen_aot/videos/R_S_yt--Ou506YF3mY_106.mp4	0.0	63.5078821182251	0.31670379638671875
4	9.132708072662354	response	0	2		2.0	2.5	/experiments/knapen_aot/videos/R_S_yt--Ou506YF3mY_106.mp4	0.0	63.81640100479126	
4	9.14089298248291	movie	1		300.0	2.0	2.5	/experiments/knapen_aot/videos/R_S_yt--Ou506YF3mY_106.mp4	0.0	63.824585914611816	2.508366107940674
4	11.649259090423584	fix_post	2		12.0	2.0	2.5	/experiments/knapen_aot/videos/R_S_yt--Ou506YF3mY_106.mp4	0.0	66.33295202255249	0.10018396377563477
5	11.749443054199219	fix_pre	0		33.0	3.0	2.5	/experiments/knapen_aot/videos/S_yt-7NjoFHBdP7c_102.mp4	0.0	66.43313598632812	0.27468395233154297
5	12.016026973724365	response	0	2		3.0	2.5	/experiments/knapen_aot/videos/S_yt-7NjoFHBdP7c_102.mp4	0.0	66.69971990585327	
5	12.024127006530762	movie	1		301.0	3.0	2.5	/experiments/knapen_aot/videos/S_yt-7NjoFHBdP7c_102.mp4	0.0	66.70781993865967	2.508342981338501
5	14.532469987869263	fix_post	2		12.0	3.0	2.5	/experiments/knapen_aot/videos/S_yt-7NjoFHBdP7c_102.mp4	0.0	69.21616291999817	0.10005712509155273
6	14.632527112960815	fix_pre	0		34.0	4.0	2.5	/experiments/knapen_aot/videos/R_S_yt-kiEFK7bDssE_14.mp4	0.0	69.31622004508972	0.2834770679473877
6	14.90765905380249	response	0	2		4.0	2.5	/experiments/knapen_aot/videos/R_S_yt-kiEFK7bDssE_14.mp4	0.0	69.5913519859314	
6	14.916004180908203	movie	1		300.0	4.0	2.5	/experiments/knapen_aot/videos/R_S_yt-kiEFK7bDssE_14.mp4	0.0	69.59969711303711	2.5082268714904785
6	17.42423105239868	fix_post	2		12.0	4.0	2.5	/experiments/knapen_aot/videos/R_S_yt-kiEFK7bDssE_14.mp4	0.0	72.10792398452759	0.09995293617248535
7	17.524183988571167	fix_pre	0		20.0	5.0	2.5	/experiments/knapen_aot/videos/S_pexels-cottonbro-10639398.mp4	0.0	72.20787692070007	0.16664814949035645
7	17.675146102905273	response	0	2		5.0	2.5	/experiments/knapen_aot/videos/S_pexels-cottonbro-10639398.mp4	0.0	72.35883903503418	
7	17.690832138061523	movie	1		192.0	5.0	2.5	/experiments/knapen_aot/videos/S_pexels-cottonbro-10639398.mp4	0.0	72.37452507019043	2.5082919597625732
7	20.199124097824097	fix_post	2		12.0	5.0	2.5	/experiments/knapen_aot/videos/S_pexels-cottonbro-10639398.mp4	0.0	74.882817029953	0.10006904602050781
8	20.299193143844604	fix_pre	0		64.0	6.0	2.5	blank	1.0	74.98288607597351	0.5334458351135254
8	20.824352979660034	response	0	2		6.0	2.5	blank	1.0	75.50804591178894	
8	20.83263897895813	movie	1		301.0	6.0	2.5	blank	1.0	75.51633191108704	2.508225202560425
8	23.340864181518555	fix_post	2		12.0	6.0	2.5	blank	1.0	78.02455711364746	0.09999394416809082
9	23.440858125686646	fix_pre	0		29.0	7.0	2.5	/experiments/knapen_aot/videos/S_pexels-diva-plavalaguna-6985395_1.mp4	0.0	78.12455105781555	0.24162507057189941
9	23.674286127090454	response	0	2		7.0	2.5	/experiments/knapen_aot/videos/S_pexels-diva-plavalaguna-6985395_1.mp4	0.0	78.35797905921936	
9	23.682483196258545	movie	1		163.0	7.0	2.5	/experiments/knapen_aot/videos/S_pexels-diva-plavalaguna-6985395_1.mp4	0.0	78.36617612838745	2.5083119869232178
9	26.190795183181763	fix_post	2		12.0	7.0	2.5	/experiments/knapen_aot/videos/S_pexels-diva-plavalaguna-6985395_1.mp4	0.0	80.87448811531067	0.10017085075378418
10	26.290966033935547	fix_pre	0		33.0	8.0	2.5	/experiments/knapen_aot/videos/S_yt--Ou506YF3mY_106.mp4	0.0	80.97465896606445	0.27483606338500977
10	26.557631015777588	response	0	2		8.0	2.5	/experiments/knapen_aot/videos/S_yt--Ou506YF3mY_106.mp4	0.0	81.2413239479065	
10	26.565802097320557	movie	1		301.0	8.0	2.5	/experiments/knapen_aot/videos/S_yt--Ou506YF3mY_106.mp4	0.0	81.24949502944946	2.5083260536193848
10	29.07412815093994	fix_post	2		12.0	8.0	2.5	/experiments/knapen_aot/videos/S_yt--Ou506YF3mY_106.mp4	0.0	83.75782108306885	0.1000068187713623
11	29.174134969711304	fix_pre	0		36.0	9.0	2.5	/experiments/knapen_aot/videos/R_S_yt-7Ya-rGPO8cM_159.mp4	0.0	83.85782790184021	0.29999518394470215
11	29.46592402458191	response	0	2		9.0	2.5	/experiments/knapen_aot/videos/R_S_yt-7Ya-rGPO8cM_159.mp4	0.0	84.14961695671082	
11	29.474130153656006	movie	1		301.0	9.0	2.5	/experiments/knapen_aot/videos/R_S_yt-7Ya-rGPO8cM_159.mp4	0.0	84.15782308578491	2.508302927017212
11	31.982433080673218	fix_post	2		12.0	9.0	2.5	/experiments/knapen_aot/videos/R_S_yt-7Ya-rGPO8cM_159.mp4	0.0	86.66612601280212	0.10016608238220215
12	32.08259916305542	fix_pre	0		28.0	10.0	2.5	/experiments/knapen_aot/videos/S_yt-jbvXEFk2Gyw_12.mp4	0.0	86.76629209518433	0.23324084281921387
12	32.3076651096344	response	0	2		10.0	2.5	/experiments/knapen_aot/videos/S_yt-jbvXEFk2Gyw_12.mp4	0.0	86.9913580417633	
12	32.315840005874634	movie	1		301.0	10.0	2.5	/experiments/knapen_aot/videos/S_yt-jbvXEFk2Gyw_12.mp4	0.0	86.99953293800354	2.5084290504455566
12	34.82426905632019	fix_post	2		12.0	10.0	2.5	/experiments/knapen_aot/videos/S_yt-jbvXEFk2Gyw_12.mp4	0.0	89.5079619884491	0.09991812705993652
13	34.92418718338013	fix_pre	0		60.0	11.0	2.5	/experiments/knapen_aot/videos/S_ILSVRC2015_train_00594000.mp4	0.0	89.60788011550903	0.5000028610229492
13	35.415935039520264	response	0	2		11.0	2.5	/experiments/knapen_aot/videos/S_ILSVRC2015_train_00594000.mp4	0.0	90.09962797164917	
13	35.424190044403076	movie	1		301.0	11.0	2.5	/experiments/knapen_aot/videos/S_ILSVRC2015_train_00594000.mp4	0.0	90.10788297653198	2.5082900524139404
13	37.93248009681702	fix_post	2		12.0	11.0	2.5	/experiments/knapen_aot/videos/S_ILSVRC2015_train_00594000.mp4	0.0	92.61617302894592	0.09999990463256836
14	38.032480001449585	fix_pre	0		28.0	12.0	2.5	/experiments/knapen_aot/videos/R_S_yt-ph1AkIToO4E_46.mp4	0.0	92.71617293357849	0.23334002494812012
14	38.25755000114441	response	0	2		12.0	2.5	/experiments/knapen_aot/videos/R_S_yt-ph1AkIToO4E_46.mp4	0.0	92.94124293327332	
14	38.265820026397705	movie	1		300.0	12.0	2.5	/experiments/knapen_aot/videos/R_S_yt-ph1AkIToO4E_46.mp4	0.0	92.94951295852661	2.5083560943603516
14	40.77417612075806	fix_post	2		12.0	12.0	2.5	/experiments/knapen_aot/videos/R_S_yt-ph1AkIToO4E_46.mp4	0.0	95.45786905288696	0.10002398490905762
15	40.874200105667114	fix_pre	0		35.0	13.0	2.5	/experiments/knapen_aot/videos/S_ILSVRC2015_train_00743002.mp4	0.0	95.55789303779602	0.2916738986968994
15	41.15762209892273	response	0	2		13.0	2.5	/experiments/knapen_aot/videos/S_ILSVRC2015_train_00743002.mp4	0.0	95.84131503105164	
15	41.165874004364014	movie	1		301.0	13.0	2.5	/experiments/knapen_aot/videos/S_ILSVRC2015_train_00743002.mp4	0.0	95.84956693649292	2.508287191390991
15	43.674161195755005	fix_post	2		12.0	13.0	2.5	/experiments/knapen_aot/videos/S_ILSVRC2015_train_00743002.mp4	0.0	98.35785412788391	0.09995698928833008
16	43.774118185043335	fix_pre	0		34.0	14.0	2.5	blank	1.0	98.45781111717224	0.2833437919616699
16	44.049237966537476	response	0	2		14.0	2.5	blank	1.0	98.73293089866638	
16	44.057461977005005	movie	1		301.0	14.0	2.5	blank	1.0	98.74115490913391	2.5083091259002686
16	46.56577110290527	fix_post	2		12.0	14.0	2.5	blank	1.0	101.24946403503418	0.09993696212768555
17	46.66570806503296	fix_pre	0		29.0	15.0	2.5	/experiments/knapen_aot/videos/R_S_ILSVRC2015_train_00682000.mp4	0.0	101.34940099716187	0.24167799949645996
17	46.899163007736206	response	0	2		15.0	2.5	/experiments/knapen_aot/videos/R_S_ILSVRC2015_train_00682000.mp4	0.0	101.58285593986511	
17	46.90738606452942	movie	1		301.0	15.0	2.5	/experiments/knapen_aot/videos/R_S_ILSVRC2015_train_00682000.mp4	0.0	101.59107899665833	2.508354902267456
17	49.415740966796875	fix_post	2		12.0	15.0	2.5	/experiments/knapen_aot/videos/R_S_ILSVRC2015_train_00682000.mp4	0.0	104.09943389892578	0.10006022453308105
18	49.515801191329956	fix_pre	0		19.0	16.0	2.5	/experiments/knapen_aot/videos/S_yt-b7bIulV49DQ_81.mp4	0.0	104.19949412345886	0.1582629680633545
18	49.66590213775635	response	0	2		16.0	2.5	/experiments/knapen_aot/videos/S_yt-b7bIulV49DQ_81.mp4	0.0	104.34959506988525	
18	49.67406415939331	movie	1		301.0	16.0	2.5	/experiments/knapen_aot/videos/S_yt-b7bIulV49DQ_81.mp4	0.0	104.35775709152222	2.50838303565979
18	52.1824471950531	fix_post	2		12.0	16.0	2.5	/experiments/knapen_aot/videos/S_yt-b7bIulV49DQ_81.mp4	0.0	106.866140127182	0.09997677803039551
19	52.282423973083496	fix_pre	0		36.0	17.0	2.5	/experiments/knapen_aot/videos/S_yt-2cwARrUMj40_67.mp4	0.0	106.9661169052124	0.2998690605163574
19	52.57420015335083	response	0	2		17.0	2.5	/experiments/knapen_aot/videos/S_yt-2cwARrUMj40_67.mp4	0.0	107.25789308547974	
19	52.58229303359985	movie	1		301.0	17.0	2.5	/experiments/knapen_aot/videos/S_yt-2cwARrUMj40_67.mp4	0.0	107.26598596572876	2.5083460807800293
19	55.09063911437988	fix_post	2		12.0	17.0	2.5	/experiments/knapen_aot/videos/S_yt-2cwARrUMj40_67.mp4	0.0	109.77433204650879	0.10006999969482422
20	55.19070911407471	fix_pre	0		24.0	18.0	2.5	/experiments/knapen_aot/videos/R_S_ILSVRC2015_train_00559000.mp4	0.0	109.87440204620361	0.20000886917114258
20	55.38239908218384	response	0	2		18.0	2.5	/experiments/knapen_aot/videos/R_S_ILSVRC2015_train_00559000.mp4	0.0	110.06609201431274	
20	55.39071798324585	movie	1		301.0	18.0	2.5	/experiments/knapen_aot/videos/R_S_ILSVRC2015_train_00559000.mp4	0.0	110.07441091537476	2.508334159851074
20	57.899052143096924	fix_post	2		12.0	18.0	2.5	/experiments/knapen_aot/videos/R_S_ILSVRC2015_train_00559000.mp4	0.0	112.58274507522583	0.10005402565002441
21	57.99910616874695	fix_pre	0		30.0	19.0	2.5	/experiments/knapen_aot/videos/S_yt-v9WGfC67DPk_50.mp4	0.0	112.68279910087585	0.2499070167541504
21	58.24080204963684	response	0	2		19.0	2.5	/experiments/knapen_aot/videos/S_yt-v9WGfC67DPk_50.mp4	0.0	112.92449498176575	
21	58.2490131855011	movie	1		301.0	19.0	2.5	/experiments/knapen_aot/videos/S_yt-v9WGfC67DPk_50.mp4	0.0	112.93270611763	2.5084078311920166
21	60.757421016693115	fix_post	2		12.0	19.0	2.5	/experiments/knapen_aot/videos/S_yt-v9WGfC67DPk_50.mp4	0.0	115.44111394882202	0.09998512268066406
22	60.85740613937378	fix_pre	0		45.0	20.0	2.5	blank	1.0	115.54109907150269	0.37491893768310547
22	61.22416615486145	response	0	2		20.0	2.5	blank	1.0	115.90785908699036	
22	61.232325077056885	movie	1		301.0	20.0	2.5	blank	1.0	115.91601800918579	2.5083320140838623
22	63.74065709114075	fix_post	2		12.0	20.0	2.5	blank	1.0	118.42435002326965	0.10000896453857422
23	63.84066605567932	fix_pre	0		41.0	21.0	2.5	/experiments/knapen_aot/videos/S_yt-WrwPgZYBXlA_34.mp4	0.0	118.52435898780823	0.3416280746459961
23	64.1741271018982	response	0	2		21.0	2.5	/experiments/knapen_aot/videos/S_yt-WrwPgZYBXlA_34.mp4	0.0	118.8578200340271	
23	64.18229413032532	movie	1		301.0	21.0	2.5	/experiments/knapen_aot/videos/S_yt-WrwPgZYBXlA_34.mp4	0.0	118.86598706245422	2.5082850456237793
23	66.6905791759491	fix_post	2		12.0	21.0	2.5	/experiments/knapen_aot/videos/S_yt-WrwPgZYBXlA_34.mp4	0.0	121.374272108078	0.10009288787841797
24	66.79067206382751	fix_pre	0		48.0	22.0	2.5	/experiments/knapen_aot/videos/S_yt-82O1uT8dmv8_12.mp4	0.0	121.47436499595642	0.39993906021118164
24	67.18250107765198	response	0	2		22.0	2.5	/experiments/knapen_aot/videos/S_yt-82O1uT8dmv8_12.mp4	0.0	121.86619400978088	
24	67.1906111240387	movie	1		301.0	22.0	2.5	/experiments/knapen_aot/videos/S_yt-82O1uT8dmv8_12.mp4	0.0	121.8743040561676	2.5083940029144287
24	69.69900512695312	fix_post	2		12.0	22.0	2.5	/experiments/knapen_aot/videos/S_yt-82O1uT8dmv8_12.mp4	0.0	124.38269805908203	0.0999140739440918
25	69.79891920089722	fix_pre	0		28.0	23.0	2.5	/experiments/knapen_aot/videos/R_S_yt-IyxCMODHSSE_29.mp4	0.0	124.48261213302612	0.23467779159545898
25	70.0166540145874	response	0	2		23.0	2.5	/experiments/knapen_aot/videos/R_S_yt-IyxCMODHSSE_29.mp4	0.0	124.70034694671631	
25	70.03359699249268	movie	1		301.0	23.0	2.5	/experiments/knapen_aot/videos/R_S_yt-IyxCMODHSSE_29.mp4	0.0	124.71728992462158	2.5070431232452393
25	72.54064011573792	fix_post	2		12.0	23.0	2.5	/experiments/knapen_aot/videos/R_S_yt-IyxCMODHSSE_29.mp4	0.0	127.22433304786682	0.09998393058776855
26	72.64062404632568	fix_pre	0		44.0	24.0	2.5	/experiments/knapen_aot/videos/S_yt-wnQFgNEnHUI_109.mp4	0.0	127.32431697845459	0.3666260242462158
26	72.99156618118286	response	0	2		24.0	2.5	/experiments/knapen_aot/videos/S_yt-wnQFgNEnHUI_109.mp4	0.0	127.67525911331177	
26	73.0072500705719	movie	1		301.0	24.0	2.5	/experiments/knapen_aot/videos/S_yt-wnQFgNEnHUI_109.mp4	0.0	127.6909430027008	2.5084171295166016
26	75.5156672000885	fix_post	2		12.0	24.0	2.5	/experiments/knapen_aot/videos/S_yt-wnQFgNEnHUI_109.mp4	0.0	130.1993601322174	0.0998997688293457
27	75.61556696891785	fix_pre	0		31.0	25.0	2.5	/experiments/knapen_aot/videos/R_S_8J_zE6r82MY_71.mp4	0.0	130.29925990104675	0.25830721855163574
27	75.86571002006531	response	0	2		25.0	2.5	/experiments/knapen_aot/videos/R_S_8J_zE6r82MY_71.mp4	0.0	130.5494029521942	
27	75.87387418746948	movie	1		301.0	25.0	2.5	/experiments/knapen_aot/videos/R_S_8J_zE6r82MY_71.mp4	0.0	130.5575671195984	2.508363962173462
27	78.38223814964294	fix_post	2		12.0	25.0	2.5	/experiments/knapen_aot/videos/R_S_8J_zE6r82MY_71.mp4	0.0	133.06593108177185	0.10005497932434082
28	78.48229312896729	fix_pre	0		21.0	26.0	2.5	blank	1.0	133.1659860610962	0.17496085166931152
28	78.64910006523132	response	0	2		26.0	2.5	blank	1.0	133.33279299736023	
28	78.6572539806366	movie	1		301.0	26.0	2.5	blank	1.0	133.3409469127655	2.5083460807800293
28	81.16560006141663	fix_post	2		12.0	26.0	2.5	blank	1.0	135.84929299354553	0.09999203681945801
29	81.26559209823608	fix_pre	0		33.0	27.0	2.5	/experiments/knapen_aot/videos/S_bing-www_msn_com_en-us_video_news_tommy-lasorda-salutes-national-league-champs_vp-AAtLThQ_4.mp4	0.0	135.949285030365	0.2750051021575928
29	81.53233313560486	response	0	2		27.0	2.5	/experiments/knapen_aot/videos/S_bing-www_msn_com_en-us_video_news_tommy-lasorda-salutes-national-league-champs_vp-AAtLThQ_4.mp4	0.0	136.21602606773376	
29	81.54059720039368	movie	1		166.0	27.0	2.5	/experiments/knapen_aot/videos/S_bing-www_msn_com_en-us_video_news_tommy-lasorda-salutes-national-league-champs_vp-AAtLThQ_4.mp4	0.0	136.22429013252258	2.508314847946167
29	84.04891204833984	fix_post	2		12.0	27.0	2.5	/experiments/knapen_aot/videos/S_bing-www_msn_com_en-us_video_news_tommy-lasorda-salutes-national-league-champs_vp-AAtLThQ_4.mp4	0.0	138.73260498046875	0.10004210472106934
30	84.14895415306091	fix_pre	0		33.0	28.0	2.5	/experiments/knapen_aot/videos/S_yt--WPE_4bqQXc_26.mp4	0.0	138.83264708518982	0.27494287490844727
30	84.41573905944824	response	0	2		28.0	2.5	/experiments/knapen_aot/videos/S_yt--WPE_4bqQXc_26.mp4	0.0	139.09943199157715	
30	84.42389702796936	movie	1		300.0	28.0	2.5	/experiments/knapen_aot/videos/S_yt--WPE_4bqQXc_26.mp4	0.0	139.10758996009827	2.5083539485931396
30	86.9322509765625	fix_post	2		12.0	28.0	2.5	/experiments/knapen_aot/videos/S_yt--WPE_4bqQXc_26.mp4	0.0	141.6159439086914	0.0999140739440918
31	87.03216505050659	fix_pre	0		54.0	29.0	2.5	/experiments/knapen_aot/videos/R_S_yt-t23g0U_hAgg_32.mp4	0.0	141.7158579826355	0.4500620365142822
31	87.47410607337952	response	0	2		29.0	2.5	/experiments/knapen_aot/videos/R_S_yt-t23g0U_hAgg_32.mp4	0.0	142.15779900550842	
31	87.48222708702087	movie	1		301.0	29.0	2.5	/experiments/knapen_aot/videos/R_S_yt-t23g0U_hAgg_32.mp4	0.0	142.16592001914978	2.508305072784424
31	89.9905321598053	fix_post	2		12.0	29.0	2.5	/experiments/knapen_aot/videos/R_S_yt-t23g0U_hAgg_32.mp4	0.0	144.6742250919342	0.09996891021728516
32	90.09050107002258	fix_pre	0		41.0	30.0	2.5	/experiments/knapen_aot/videos/R_S_comp_A351_C001_v06_SDR_PS_20180725_SDR_2K_AVC.mp4	0.0	144.7741940021515	0.34171605110168457
32	90.42404198646545	response	0	2		30.0	2.5	/experiments/knapen_aot/videos/R_S_comp_A351_C001_v06_SDR_PS_20180725_SDR_2K_AVC.mp4	0.0	145.10773491859436	
32	90.43221712112427	movie	1		166.0	30.0	2.5	/experiments/knapen_aot/videos/R_S_comp_A351_C001_v06_SDR_PS_20180725_SDR_2K_AVC.mp4	0.0	145.11591005325317	2.5083229541778564
32	92.94054007530212	fix_post	2		12.0	30.0	2.5	/experiments/knapen_aot/videos/R_S_comp_A351_C001_v06_SDR_PS_20180725_SDR_2K_AVC.mp4	0.0	147.62423300743103	0.0999760627746582
33	93.04051613807678	fix_pre	0		41.0	31.0	2.5	/experiments/knapen_aot/videos/R_S_yt-SHTeTAnZgho_43.mp4	0.0	147.7242090702057	0.34165501594543457
33	93.37402606010437	response	0	2		31.0	2.5	/experiments/knapen_aot/videos/R_S_yt-SHTeTAnZgho_43.mp4	0.0	148.05771899223328	
33	93.38217115402222	movie	1		301.0	31.0	2.5	/experiments/knapen_aot/videos/R_S_yt-SHTeTAnZgho_43.mp4	0.0	148.06586408615112	2.508410930633545
33	95.89058208465576	fix_post	2		12.0	31.0	2.5	/experiments/knapen_aot/videos/R_S_yt-SHTeTAnZgho_43.mp4	0.0	150.57427501678467	0.09998488426208496
34	95.99056696891785	fix_pre	0		27.0	32.0	2.5	/experiments/knapen_aot/videos/S_yt-bZfmqTZ-d2k_112.mp4	0.0	150.67425990104675	0.22490715980529785
34	96.20733308792114	response	0	2		32.0	2.5	/experiments/knapen_aot/videos/S_yt-bZfmqTZ-d2k_112.mp4	0.0	150.89102602005005	
34	96.21547412872314	movie	1		301.0	32.0	2.5	/experiments/knapen_aot/videos/S_yt-bZfmqTZ-d2k_112.mp4	0.0	150.89916706085205	2.5084190368652344
34	98.72389316558838	fix_post	2		12.0	32.0	2.5	/experiments/knapen_aot/videos/S_yt-bZfmqTZ-d2k_112.mp4	0.0	153.40758609771729	0.0999608039855957
35	98.82385396957397	fix_pre	0		38.0	33.0	2.5	/experiments/knapen_aot/videos/S_yt_R-SwXr0ScjD9o_20.mp4	0.0	153.50754690170288	0.3166830539703369
35	99.13228106498718	response	0	2		33.0	2.5	/experiments/knapen_aot/videos/S_yt_R-SwXr0ScjD9o_20.mp4	0.0	153.8159739971161	
35	99.14053702354431	movie	1		301.0	33.0	2.5	/experiments/knapen_aot/videos/S_yt_R-SwXr0ScjD9o_20.mp4	0.0	153.82422995567322	2.508315086364746
35	101.64885210990906	fix_post	2		12.0	33.0	2.5	/experiments/knapen_aot/videos/S_yt_R-SwXr0ScjD9o_20.mp4	0.0	156.33254504203796	0.09995007514953613
36	101.7488021850586	fix_pre	0		42.0	34.0	2.5	/experiments/knapen_aot/videos/R_S_yt-XtzmBXKYEWk_60.mp4	0.0	156.4324951171875	0.34997987747192383
36	102.09066414833069	response	0	2		34.0	2.5	/experiments/knapen_aot/videos/R_S_yt-XtzmBXKYEWk_60.mp4	0.0	156.7743570804596	
36	102.09878206253052	movie	1		301.0	34.0	2.5	/experiments/knapen_aot/videos/R_S_yt-XtzmBXKYEWk_60.mp4	0.0	156.78247499465942	2.508362054824829
36	104.60714411735535	fix_post	2		12.0	34.0	2.5	/experiments/knapen_aot/videos/R_S_yt-XtzmBXKYEWk_60.mp4	0.0	159.29083704948425	0.10004806518554688
37	104.7071921825409	fix_pre	0		43.0	35.0	2.5	blank	1.0	159.3908851146698	0.35828590393066406
37	105.05735516548157	response	0	2		35.0	2.5	blank	1.0	159.74104809761047	
37	105.06547808647156	movie	1		301.0	35.0	2.5	blank	1.0	159.74917101860046	2.508344888687134
37	107.57382297515869	fix_post	2		12.0	35.0	2.5	blank	1.0	162.2575159072876	0.10004305839538574
38	107.67386603355408	fix_pre	0		28.0	36.0	2.5	/experiments/knapen_aot/videos/S_wc-0SAXOWjdNVGC_8.mp4	0.0	162.35755896568298	0.23436212539672852
38	107.89897012710571	response	0	2		36.0	2.5	/experiments/knapen_aot/videos/S_wc-0SAXOWjdNVGC_8.mp4	0.0	162.58266305923462	
38	107.9082281589508	movie	1		165.0	36.0	2.5	/experiments/knapen_aot/videos/S_wc-0SAXOWjdNVGC_8.mp4	0.0	162.5919210910797	2.507309913635254
38	110.41553807258606	fix_post	2		12.0	36.0	2.5	/experiments/knapen_aot/videos/S_wc-0SAXOWjdNVGC_8.mp4	0.0	165.09923100471497	0.09999704360961914
39	110.51553511619568	fix_pre	0		41.0	37.0	2.5	/experiments/knapen_aot/videos/S_Pexels_Videos_2795736.mp4	0.0	165.19922804832458	0.3415870666503906
39	110.84897804260254	response	0	2		37.0	2.5	/experiments/knapen_aot/videos/S_Pexels_Videos_2795736.mp4	0.0	165.53267097473145	
39	110.85712218284607	movie	1		162.0	37.0	2.5	/experiments/knapen_aot/videos/S_Pexels_Videos_2795736.mp4	0.0	165.54081511497498	2.508448839187622
39	113.36557102203369	fix_post	2		12.0	37.0	2.5	/experiments/knapen_aot/videos/S_Pexels_Videos_2795736.mp4	0.0	168.0492639541626	0.09993600845336914
40	113.46550703048706	fix_pre	0		43.0	38.0	2.5	/experiments/knapen_aot/videos/S_yt-O6W6CZPXvlA_15.mp4	0.0	168.14919996261597	0.3593599796295166
40	113.81566214561462	response	0	2		38.0	2.5	/experiments/knapen_aot/videos/S_yt-O6W6CZPXvlA_15.mp4	0.0	168.49935507774353	
40	113.82486701011658	movie	1		300.0	38.0	2.5	/experiments/knapen_aot/videos/S_yt-O6W6CZPXvlA_15.mp4	0.0	168.50855994224548	2.5072901248931885
40	116.33215713500977	fix_post	2		12.0	38.0	2.5	/experiments/knapen_aot/videos/S_yt-O6W6CZPXvlA_15.mp4	0.0	171.01585006713867	0.09999489784240723
41	116.43215203285217	fix_pre	0		46.0	39.0	2.5	/experiments/knapen_aot/videos/R_S_ILSVRC2015_train_00578001.mp4	0.0	171.11584496498108	0.38330602645874023
41	116.79974603652954	response	0	2		39.0	2.5	/experiments/knapen_aot/videos/R_S_ILSVRC2015_train_00578001.mp4	0.0	171.48343896865845	
41	116.81545805931091	movie	1		301.0	39.0	2.5	/experiments/knapen_aot/videos/R_S_ILSVRC2015_train_00578001.mp4	0.0	171.49915099143982	2.508357048034668
41	119.32381510734558	fix_post	2		12.0	39.0	2.5	/experiments/knapen_aot/videos/R_S_ILSVRC2015_train_00578001.mp4	0.0	174.0075080394745	0.10000991821289062
42	119.42382502555847	fix_pre	0		17.0	40.0	2.5	/experiments/knapen_aot/videos/R_S_yt-2ZsK7zSCJ2w_67.mp4	0.0	174.10751795768738	0.1416339874267578
42	119.55718898773193	response	0	2		40.0	2.5	/experiments/knapen_aot/videos/R_S_yt-2ZsK7zSCJ2w_67.mp4	0.0	174.24088191986084	
42	119.56545901298523	movie	1		299.0	40.0	2.5	/experiments/knapen_aot/videos/R_S_yt-2ZsK7zSCJ2w_67.mp4	0.0	174.24915194511414	2.508368968963623
42	122.07382798194885	fix_post	2		12.0	40.0	2.5	/experiments/knapen_aot/videos/R_S_yt-2ZsK7zSCJ2w_67.mp4	0.0	176.75752091407776	0.09994101524353027
43	122.17376899719238	fix_pre	0		44.0	41.0	2.5	blank	1.0	176.8574619293213	0.3667161464691162
43	122.53239011764526	response	0	2		41.0	2.5	blank	1.0	177.21608304977417	
43	122.5404851436615	movie	1		301.0	41.0	2.5	blank	1.0	177.2241780757904	2.5082738399505615
43	125.04875898361206	fix_post	2		12.0	41.0	2.5	blank	1.0	179.73245191574097	0.1000661849975586
44	125.14882516860962	fix_pre	0		33.0	42.0	2.5	/experiments/knapen_aot/videos/R_S_yt-2ZsK7zSCJ2w_67.mp4	0.0	179.83251810073853	0.2749300003051758
44	125.41568112373352	response	0	2		42.0	2.5	/experiments/knapen_aot/videos/R_S_yt-2ZsK7zSCJ2w_67.mp4	0.0	180.09937405586243	
44	125.4237551689148	movie	1		301.0	42.0	2.5	/experiments/knapen_aot/videos/R_S_yt-2ZsK7zSCJ2w_67.mp4	0.0	180.1074481010437	2.5083658695220947
44	127.93212103843689	fix_post	2		12.0	42.0	2.5	/experiments/knapen_aot/videos/R_S_yt-2ZsK7zSCJ2w_67.mp4	0.0	182.6158139705658	0.10003209114074707
45	128.03215312957764	fix_pre	0		37.0	43.0	2.5	/experiments/knapen_aot/videos/S_yt-7Ya-rGPO8cM_159.mp4	0.0	182.71584606170654	0.30831193923950195
45	128.33220219612122	response	0	2		43.0	2.5	/experiments/knapen_aot/videos/S_yt-7Ya-rGPO8cM_159.mp4	0.0	183.01589512825012	
45	128.34046506881714	movie	1		300.0	43.0	2.5	/experiments/knapen_aot/videos/S_yt-7Ya-rGPO8cM_159.mp4	0.0	183.02415800094604	2.5082690715789795
45	130.84873414039612	fix_post	2		12.0	43.0	2.5	/experiments/knapen_aot/videos/S_yt-7Ya-rGPO8cM_159.mp4	0.0	185.53242707252502	0.09992599487304688
46	130.94866013526917	fix_pre	0		42.0	44.0	2.5	/experiments/knapen_aot/videos/R_S_yt-b7bIulV49DQ_81.mp4	0.0	185.63235306739807	0.3500208854675293
46	131.29056119918823	response	0	2		44.0	2.5	/experiments/knapen_aot/videos/R_S_yt-b7bIulV49DQ_81.mp4	0.0	185.97425413131714	
46	131.2986810207367	movie	1		301.0	44.0	2.5	/experiments/knapen_aot/videos/R_S_yt-b7bIulV49DQ_81.mp4	0.0	185.9823739528656	2.508301019668579
46	133.80698204040527	fix_post	2		12.0	44.0	2.5	/experiments/knapen_aot/videos/R_S_yt-b7bIulV49DQ_81.mp4	0.0	188.49067497253418	0.10007905960083008
47	133.9070611000061	fix_pre	0		25.0	45.0	2.5	/experiments/knapen_aot/videos/S_yt-i4kSCZ8rNC0_11.mp4	0.0	188.590754032135	0.20929288864135742
47	134.10721015930176	response	0	2		45.0	2.5	/experiments/knapen_aot/videos/S_yt-i4kSCZ8rNC0_11.mp4	0.0	188.79090309143066	
47	134.11635398864746	movie	1		301.0	45.0	2.5	/experiments/knapen_aot/videos/S_yt-i4kSCZ8rNC0_11.mp4	0.0	188.80004692077637	2.5073440074920654
47	136.62369799613953	fix_post	2		12.0	45.0	2.5	/experiments/knapen_aot/videos/S_yt-i4kSCZ8rNC0_11.mp4	0.0	191.30739092826843	0.10001397132873535
48	136.72371196746826	fix_pre	0		24.0	46.0	2.5	/experiments/knapen_aot/videos/R_S_yt-CEQnXB0LxQU_278.mp4	0.0	191.40740489959717	0.19996213912963867
48	136.90791416168213	response	0	2		46.0	2.5	/experiments/knapen_aot/videos/R_S_yt-CEQnXB0LxQU_278.mp4	0.0	191.59160709381104	
48	136.9236741065979	movie	1		301.0	46.0	2.5	/experiments/knapen_aot/videos/R_S_yt-CEQnXB0LxQU_278.mp4	0.0	191.6073670387268	2.5082850456237793
48	139.43195915222168	fix_post	2		12.0	46.0	2.5	/experiments/knapen_aot/videos/R_S_yt-CEQnXB0LxQU_278.mp4	0.0	194.1156520843506	0.10005593299865723
49	139.53201508522034	fix_pre	0		28.0	47.0	2.5	blank	1.0	194.21570801734924	0.23334503173828125
49	139.75712704658508	response	0	2		47.0	2.5	blank	1.0	194.440819978714	
49	139.76536011695862	movie	1		301.0	47.0	2.5	blank	1.0	194.44905304908752	2.5083179473876953
49	142.2736780643463	fix_post	2		12.0	47.0	2.5	blank	1.0	196.95737099647522	0.10002303123474121
50	142.37370109558105	fix_pre	0		62.0	48.0	2.5	/experiments/knapen_aot/videos/R_S_yt-Mjm5smrurQI_125.mp4	0.0	197.05739402770996	0.5165948867797852
50	142.8821291923523	response	0	2		48.0	2.5	/experiments/knapen_aot/videos/R_S_yt-Mjm5smrurQI_125.mp4	0.0	197.5658221244812	
50	142.89029598236084	movie	1		301.0	48.0	2.5	/experiments/knapen_aot/videos/R_S_yt-Mjm5smrurQI_125.mp4	0.0	197.57398891448975	2.508450984954834
50	145.39874696731567	fix_post	2		12.0	48.0	2.5	/experiments/knapen_aot/videos/R_S_yt-Mjm5smrurQI_125.mp4	0.0	200.08243989944458	0.09990501403808594
51	145.49865198135376	fix_pre	0		31.0	49.0	2.5	/experiments/knapen_aot/videos/S_pexels-mart-production-7698693.mp4	0.0	200.18234491348267	0.2583310604095459
51	145.7487461566925	response	0	2		49.0	2.5	/experiments/knapen_aot/videos/S_pexels-mart-production-7698693.mp4	0.0	200.4324390888214	
51	145.7569830417633	movie	1		197.0	49.0	2.5	/experiments/knapen_aot/videos/S_pexels-mart-production-7698693.mp4	0.0	200.4406759738922	2.508342981338501
51	148.2653260231018	fix_post	2		12.0	49.0	2.5	/experiments/knapen_aot/videos/S_pexels-mart-production-7698693.mp4	0.0	202.9490189552307	0.0999760627746582
52	148.36530208587646	fix_pre	0		28.0	50.0	2.5	/experiments/knapen_aot/videos/R_S_ILSVRC2015_train_00638000.mp4	0.0	203.04899501800537	0.2333359718322754
52	148.59040117263794	response	0	2		50.0	2.5	/experiments/knapen_aot/videos/R_S_ILSVRC2015_train_00638000.mp4	0.0	203.27409410476685	
52	148.59863805770874	movie	1		301.0	50.0	2.5	/experiments/knapen_aot/videos/R_S_ILSVRC2015_train_00638000.mp4	0.0	203.28233098983765	2.5083401203155518
52	151.1069781780243	fix_post	2		12.0	50.0	2.5	/experiments/knapen_aot/videos/R_S_ILSVRC2015_train_00638000.mp4	0.0	205.7906711101532	0.10001897811889648
53	151.2069971561432	fix_pre	0		22.0	51.0	2.5	/experiments/knapen_aot/videos/R_S_pexels-cottonbro-9063801_1.mp4	0.0	205.8906900882721	0.18325400352478027
53	151.3821361064911	response	0	2		51.0	2.5	/experiments/knapen_aot/videos/R_S_pexels-cottonbro-9063801_1.mp4	0.0	206.06582903862	
53	151.39025115966797	movie	1		208.0	51.0	2.5	/experiments/knapen_aot/videos/R_S_pexels-cottonbro-9063801_1.mp4	0.0	206.07394409179688	2.5083389282226562
53	153.89859008789062	fix_post	2		12.0	51.0	2.5	/experiments/knapen_aot/videos/R_S_pexels-cottonbro-9063801_1.mp4	0.0	208.58228302001953	0.10002899169921875
54	153.99861907958984	fix_pre	0		29.0	52.0	2.5	/experiments/knapen_aot/videos/R_S_ILSVRC2015_train_00324001.mp4	0.0	208.68231201171875	0.24251508712768555
54	154.23211312294006	response	0	2		52.0	2.5	/experiments/knapen_aot/videos/R_S_ILSVRC2015_train_00324001.mp4	0.0	208.91580605506897	
54	154.24113416671753	movie	1		301.0	52.0	2.5	/experiments/knapen_aot/videos/R_S_ILSVRC2015_train_00324001.mp4	0.0	208.92482709884644	2.5075058937072754
54	156.7486400604248	fix_post	2		12.0	52.0	2.5	/experiments/knapen_aot/videos/R_S_ILSVRC2015_train_00324001.mp4	0.0	211.4323329925537	0.10005903244018555
55	156.848699092865	fix_pre	0		29.0	53.0	2.5	/experiments/knapen_aot/videos/R_S_comp_GMT329_113NC_396B_1105_ITALY_v03_SDR_FINAL_20180706_SDR_2K_AVC.mp4	0.0	211.5323920249939	0.2415330410003662
55	157.0820391178131	response	0	2		53.0	2.5	/experiments/knapen_aot/videos/R_S_comp_GMT329_113NC_396B_1105_ITALY_v03_SDR_FINAL_20180706_SDR_2K_AVC.mp4	0.0	211.76573204994202	
55	157.09023213386536	movie	1		166.0	53.0	2.5	/experiments/knapen_aot/videos/R_S_comp_GMT329_113NC_396B_1105_ITALY_v03_SDR_FINAL_20180706_SDR_2K_AVC.mp4	0.0	211.77392506599426	2.5083868503570557
55	159.5986189842224	fix_post	2		12.0	53.0	2.5	/experiments/knapen_aot/videos/R_S_comp_GMT329_113NC_396B_1105_ITALY_v03_SDR_FINAL_20180706_SDR_2K_AVC.mp4	0.0	214.28231191635132	0.10000300407409668
56	159.6986219882965	fix_pre	0		25.0	54.0	2.5	blank	1.0	214.38231492042542	0.20911121368408203
56	159.89870405197144	response	0	2		54.0	2.5	blank	1.0	214.58239698410034	
56	159.9077332019806	movie	1		301.0	54.0	2.5	blank	1.0	214.5914261341095	2.5074849128723145
56	162.4152181148529	fix_post	2		12.0	54.0	2.5	blank	1.0	217.0989110469818	0.10002493858337402
57	162.51524305343628	fix_pre	0		22.0	55.0	2.5	/experiments/knapen_aot/videos/S_yt-cgYmOmMzn98_103.mp4	0.0	217.19893598556519	0.18413114547729492
57	162.6903920173645	response	0	2		55.0	2.5	/experiments/knapen_aot/videos/S_yt-cgYmOmMzn98_103.mp4	0.0	217.3740849494934	
57	162.69937419891357	movie	1		300.0	55.0	2.5	/experiments/knapen_aot/videos/S_yt-cgYmOmMzn98_103.mp4	0.0	217.38306713104248	2.507520914077759
57	165.20689511299133	fix_post	2		12.0	55.0	2.5	/experiments/knapen_aot/videos/S_yt-cgYmOmMzn98_103.mp4	0.0	219.89058804512024	0.10001897811889648
58	165.30691409111023	fix_pre	0		23.0	56.0	2.5	/experiments/knapen_aot/videos/S_yt-cgYmOmMzn98_103.mp4	0.0	219.99060702323914	0.1917729377746582
58	165.49037408828735	response	0	2		56.0	2.5	/experiments/knapen_aot/videos/S_yt-cgYmOmMzn98_103.mp4	0.0	220.17406702041626	
58	165.4986870288849	movie	1		301.0	56.0	2.5	/experiments/knapen_aot/videos/S_yt-cgYmOmMzn98_103.mp4	0.0	220.1823799610138	2.5083680152893066
58	168.0070550441742	fix_post	2		12.0	56.0	2.5	/experiments/knapen_aot/videos/S_yt-cgYmOmMzn98_103.mp4	0.0	222.6907479763031	0.09986996650695801
59	168.10692501068115	fix_pre	0		40.0	57.0	2.5	/experiments/knapen_aot/videos/S_pexels-mart-production-7277934.mp4	0.0	222.79061794281006	0.3332960605621338
59	168.43204808235168	response	0	2		57.0	2.5	/experiments/knapen_aot/videos/S_pexels-mart-production-7277934.mp4	0.0	223.1157410144806	
59	168.4402210712433	movie	1		166.0	57.0	2.5	/experiments/knapen_aot/videos/S_pexels-mart-production-7277934.mp4	0.0	223.1239140033722	2.50832200050354
59	170.94854307174683	fix_post	2		12.0	57.0	2.5	/experiments/knapen_aot/videos/S_pexels-mart-production-7277934.mp4	0.0	225.63223600387573	0.10002994537353516
60	171.04857301712036	fix_pre	0		23.0	58.0	2.5	/experiments/knapen_aot/videos/S_yt-9yxWUrtQJnw_11.mp4	0.0	225.73226594924927	0.19236016273498535
60	171.23203897476196	response	0	2		58.0	2.5	/experiments/knapen_aot/videos/S_yt-9yxWUrtQJnw_11.mp4	0.0	225.91573190689087	
60	171.24093317985535	movie	1		301.0	58.0	2.5	/experiments/knapen_aot/videos/S_yt-9yxWUrtQJnw_11.mp4	0.0	225.92462611198425	2.5075838565826416
60	173.748517036438	fix_post	2		11.0	58.0	2.5	/experiments/knapen_aot/videos/S_yt-9yxWUrtQJnw_11.mp4	0.0	228.4322099685669	0.10007309913635254
61	173.84859013557434	fix_pre	0		24.0	59.0	2.5	/experiments/knapen_aot/videos/S_yt-2cwARrUMj40_67.mp4	0.0	228.53228306770325	0.1999819278717041
61	174.04033398628235	response	0	2		59.0	2.5	/experiments/knapen_aot/videos/S_yt-2cwARrUMj40_67.mp4	0.0	228.72402691841125	
61	174.04857206344604	movie	1		301.0	59.0	2.5	/experiments/knapen_aot/videos/S_yt-2cwARrUMj40_67.mp4	0.0	228.73226499557495	2.5083389282226562
61	176.5569109916687	fix_post	2		12.0	59.0	2.5	/experiments/knapen_aot/videos/S_yt-2cwARrUMj40_67.mp4	0.0	231.2406039237976	0.1000070571899414
62	176.65691804885864	fix_pre	0		20.0	60.0	2.5	/experiments/knapen_aot/videos/R_S_yt-s-J3C6e5A3Q_18.mp4	0.0	231.34061098098755	0.16739106178283691
62	176.8154091835022	response	0	2		60.0	2.5	/experiments/knapen_aot/videos/R_S_yt-s-J3C6e5A3Q_18.mp4	0.0	231.4991021156311	
62	176.82430911064148	movie	1		301.0	60.0	2.5	/experiments/knapen_aot/videos/R_S_yt-s-J3C6e5A3Q_18.mp4	0.0	231.50800204277039	2.507556915283203
62	179.33186602592468	fix_post	2		12.0	60.0	2.5	/experiments/knapen_aot/videos/R_S_yt-s-J3C6e5A3Q_18.mp4	0.0	234.0155589580536	0.10002708435058594
63	179.43189311027527	fix_pre	0		25.0	61.0	2.5	/experiments/knapen_aot/videos/S_ILSVRC2015_train_00565000.mp4	0.0	234.11558604240417	0.20833992958068848
63	179.63206005096436	response	0	2		61.0	2.5	/experiments/knapen_aot/videos/S_ILSVRC2015_train_00565000.mp4	0.0	234.31575298309326	
63	179.64023303985596	movie	1		301.0	61.0	2.5	/experiments/knapen_aot/videos/S_ILSVRC2015_train_00565000.mp4	0.0	234.32392597198486	2.508324146270752
63	182.1485571861267	fix_post	2		12.0	61.0	2.5	/experiments/knapen_aot/videos/S_ILSVRC2015_train_00565000.mp4	0.0	236.83225011825562	0.09993982315063477
64	182.24849700927734	fix_pre	0		21.0	62.0	2.5	blank	1.0	236.93218994140625	0.1750810146331787
64	182.41535115242004	response	0	2		62.0	2.5	blank	1.0	237.09904408454895	
64	182.42357802391052	movie	1		301.0	62.0	2.5	blank	1.0	237.10727095603943	2.5083160400390625
64	184.93189406394958	fix_post	2		12.0	62.0	2.5	blank	1.0	239.6155869960785	0.09997892379760742
65	185.0318729877472	fix_pre	0		33.0	63.0	2.5	/experiments/knapen_aot/videos/S_yt-etQaTgGOhR4_69.mp4	0.0	239.7155659198761	0.2748720645904541
65	185.29859614372253	response	0	2		63.0	2.5	/experiments/knapen_aot/videos/S_yt-etQaTgGOhR4_69.mp4	0.0	239.98228907585144	
65	185.30674505233765	movie	1		301.0	63.0	2.5	/experiments/knapen_aot/videos/S_yt-etQaTgGOhR4_69.mp4	0.0	239.99043798446655	2.508418083190918
65	187.81516313552856	fix_post	2		12.0	63.0	2.5	/experiments/knapen_aot/videos/S_yt-etQaTgGOhR4_69.mp4	0.0	242.49885606765747	0.0999598503112793
66	187.91512298583984	fix_pre	0		27.0	64.0	2.5	/experiments/knapen_aot/videos/S_yt-r4st6Mt4EE8_85.mp4	0.0	242.59881591796875	0.2250051498413086
66	188.13189005851746	response	0	2		64.0	2.5	/experiments/knapen_aot/videos/S_yt-r4st6Mt4EE8_85.mp4	0.0	242.81558299064636	
66	188.14012813568115	movie	1		301.0	64.0	2.5	/experiments/knapen_aot/videos/S_yt-r4st6Mt4EE8_85.mp4	0.0	242.82382106781006	2.5083489418029785
66	190.64847707748413	fix_post	2		12.0	64.0	2.5	/experiments/knapen_aot/videos/S_yt-r4st6Mt4EE8_85.mp4	0.0	245.33217000961304	0.10002899169921875
67	190.74850606918335	fix_pre	0		18.0	65.0	2.5	/experiments/knapen_aot/videos/S_yt-2ZsK7zSCJ2w_67.mp4	0.0	245.43219900131226	0.14989495277404785
67	190.89027404785156	response	0	2		65.0	2.5	/experiments/knapen_aot/videos/S_yt-2ZsK7zSCJ2w_67.mp4	0.0	245.57396697998047	
67	190.8984010219574	movie	1		301.0	65.0	2.5	/experiments/knapen_aot/videos/S_yt-2ZsK7zSCJ2w_67.mp4	0.0	245.5820939540863	2.5083391666412354
67	193.40674018859863	fix_post	2		12.0	65.0	2.5	/experiments/knapen_aot/videos/S_yt-2ZsK7zSCJ2w_67.mp4	0.0	248.09043312072754	0.10004997253417969
68	193.5067901611328	fix_pre	0		40.0	66.0	2.5	/experiments/knapen_aot/videos/S_yt-5MyvZYFlc9g_125.mp4	0.0	248.19048309326172	0.3333008289337158
68	193.83195805549622	response	0	2		66.0	2.5	/experiments/knapen_aot/videos/S_yt-5MyvZYFlc9g_125.mp4	0.0	248.51565098762512	
68	193.84009099006653	movie	1		301.0	66.0	2.5	/experiments/knapen_aot/videos/S_yt-5MyvZYFlc9g_125.mp4	0.0	248.52378392219543	2.5084340572357178
68	196.34852504730225	fix_post	2		12.0	66.0	2.5	/experiments/knapen_aot/videos/S_yt-5MyvZYFlc9g_125.mp4	0.0	251.03221797943115	0.09987092018127441
69	196.44839596748352	fix_pre	0		33.0	67.0	2.5	/experiments/knapen_aot/videos/R_S_yt-QJHe-CoK4iI_170.mp4	0.0	251.13208889961243	0.27498912811279297
69	196.71523904800415	response	0	2		67.0	2.5	/experiments/knapen_aot/videos/R_S_yt-QJHe-CoK4iI_170.mp4	0.0	251.39893198013306	
69	196.7233850955963	movie	1		301.0	67.0	2.5	/experiments/knapen_aot/videos/R_S_yt-QJHe-CoK4iI_170.mp4	0.0	251.40707802772522	2.508362054824829
69	199.23174715042114	fix_post	2		12.0	67.0	2.5	/experiments/knapen_aot/videos/R_S_yt-QJHe-CoK4iI_170.mp4	0.0	253.91544008255005	0.09996795654296875
70	199.3317151069641	fix_pre	0		34.0	68.0	2.5	/experiments/knapen_aot/videos/S_yt-4wYTkhggZNM_90.mp4	0.0	254.01540803909302	0.2839479446411133
70	199.606938123703	response	0	2		68.0	2.5	/experiments/knapen_aot/videos/S_yt-4wYTkhggZNM_90.mp4	0.0	254.2906310558319	
70	199.61566305160522	movie	1		301.0	68.0	2.5	/experiments/knapen_aot/videos/S_yt-4wYTkhggZNM_90.mp4	0.0	254.29935598373413	2.5077171325683594
70	202.12338018417358	fix_post	2		12.0	68.0	2.5	/experiments/knapen_aot/videos/S_yt-4wYTkhggZNM_90.mp4	0.0	256.8070731163025	0.10004591941833496
71	202.22342610359192	fix_pre	0		19.0	69.0	2.5	/experiments/knapen_aot/videos/R_S_yt-b7bIulV49DQ_81.mp4	0.0	256.9071190357208	0.15830588340759277
71	202.37354707717896	response	0	2		69.0	2.5	/experiments/knapen_aot/videos/R_S_yt-b7bIulV49DQ_81.mp4	0.0	257.05724000930786	
71	202.3817319869995	movie	1		301.0	69.0	2.5	/experiments/knapen_aot/videos/R_S_yt-b7bIulV49DQ_81.mp4	0.0	257.0654249191284	2.508350133895874
71	204.89008212089539	fix_post	2		12.0	69.0	2.5	/experiments/knapen_aot/videos/R_S_yt-b7bIulV49DQ_81.mp4	0.0	259.5737750530243	0.09998798370361328
72	204.990070104599	fix_pre	0		15.0	70.0	2.5	blank	1.0	259.6737630367279	0.1255950927734375
72	205.10685300827026	response	0	2		70.0	2.5	blank	1.0	259.79054594039917	
72	205.11566519737244	movie	1		301.0	70.0	2.5	blank	1.0	259.79935812950134	2.507744789123535
72	207.62340998649597	fix_post	2		12.0	70.0	2.5	blank	1.0	262.3071029186249	0.09994101524353027
73	207.7233510017395	fix_pre	0		25.0	71.0	2.5	/experiments/knapen_aot/videos/R_S_comp_GL_G004_C010_PSNK_v04_SDR_PS_FINAL_20180709_SDR_2K_AVC.mp4	0.0	262.4070439338684	0.20838618278503418
73	207.92353510856628	response	0	2		71.0	2.5	/experiments/knapen_aot/videos/R_S_comp_GL_G004_C010_PSNK_v04_SDR_PS_FINAL_20180709_SDR_2K_AVC.mp4	0.0	262.6072280406952	
73	207.93173718452454	movie	1		168.0	71.0	2.5	/experiments/knapen_aot/videos/R_S_comp_GL_G004_C010_PSNK_v04_SDR_PS_FINAL_20180709_SDR_2K_AVC.mp4	0.0	262.61543011665344	2.5083909034729004
73	210.44012808799744	fix_post	2		12.0	71.0	2.5	/experiments/knapen_aot/videos/R_S_comp_GL_G004_C010_PSNK_v04_SDR_PS_FINAL_20180709_SDR_2K_AVC.mp4	0.0	265.12382102012634	0.09999799728393555
74	210.54012608528137	fix_pre	0		12.0	72.0	2.5	/experiments/knapen_aot/videos/R_S_yt-7XDVHp75fu4_93.mp4	0.0	265.2238190174103	0.09993290901184082
74	210.63195204734802	response	0	2		72.0	2.5	/experiments/knapen_aot/videos/R_S_yt-7XDVHp75fu4_93.mp4	0.0	265.31564497947693	
74	210.6400589942932	movie	1		301.0	72.0	2.5	/experiments/knapen_aot/videos/R_S_yt-7XDVHp75fu4_93.mp4	0.0	265.3237519264221	2.5083651542663574
74	213.14842414855957	fix_post	2		12.0	72.0	2.5	/experiments/knapen_aot/videos/R_S_yt-7XDVHp75fu4_93.mp4	0.0	267.8321170806885	0.10000395774841309
75	213.24842810630798	fix_pre	0		7.0	73.0	2.5	/experiments/knapen_aot/videos/R_S_flickr-clarkstonscamp-4863427159_1.mp4	0.0	267.9321210384369	0.05827903747558594
75	213.29860997200012	response	0	2		73.0	2.5	/experiments/knapen_aot/videos/R_S_flickr-clarkstonscamp-4863427159_1.mp4	0.0	267.982302904129	
75	213.30670714378357	movie	1		301.0	73.0	2.5	/experiments/knapen_aot/videos/R_S_flickr-clarkstonscamp-4863427159_1.mp4	0.0	267.9904000759125	2.5083179473876953
75	215.81502509117126	fix_post	2		12.0	73.0	2.5	/experiments/knapen_aot/videos/R_S_flickr-clarkstonscamp-4863427159_1.mp4	0.0	270.49871802330017	0.10008907318115234
76	215.91511416435242	fix_pre	0		5.0	74.0	2.5	/experiments/knapen_aot/videos/R_S_ILSVRC2015_train_00408000.mp4	0.0	270.5988070964813	0.04164695739746094
76	215.9485809803009	response	0	2		74.0	2.5	/experiments/knapen_aot/videos/R_S_ILSVRC2015_train_00408000.mp4	0.0	270.6322739124298	
76	215.95676112174988	movie	1		299.0	74.0	2.5	/experiments/knapen_aot/videos/R_S_ILSVRC2015_train_00408000.mp4	0.0	270.6404540538788	2.508436918258667
76	218.46519804000854	fix_post	2		12.0	74.0	2.5	/experiments/knapen_aot/videos/R_S_ILSVRC2015_train_00408000.mp4	0.0	273.14889097213745	0.0998690128326416
77	218.5650670528412	fix_pre	0		35.0	75.0	2.5	/experiments/knapen_aot/videos/R_S_ILSVRC2015_train_00743002.mp4	0.0	273.2487599849701	0.29163312911987305
77	218.8485701084137	response	0	2		75.0	2.5	/experiments/knapen_aot/videos/R_S_ILSVRC2015_train_00743002.mp4	0.0	273.5322630405426	
77	218.85670018196106	movie	1		301.0	75.0	2.5	/experiments/knapen_aot/videos/R_S_ILSVRC2015_train_00743002.mp4	0.0	273.54039311408997	2.5083119869232178
77	221.36501216888428	fix_post	2		12.0	75.0	2.5	/experiments/knapen_aot/videos/R_S_ILSVRC2015_train_00743002.mp4	0.0	276.0487051010132	0.10006499290466309
78	221.46507716178894	fix_pre	0		16.0	76.0	2.5	/experiments/knapen_aot/videos/R_S_yt-25xuzTBhwPk_109.mp4	0.0	276.14877009391785	0.13330292701721191
78	221.59021615982056	response	0	2		76.0	2.5	/experiments/knapen_aot/videos/R_S_yt-25xuzTBhwPk_109.mp4	0.0	276.27390909194946	
78	221.59838008880615	movie	1		301.0	76.0	2.5	/experiments/knapen_aot/videos/R_S_yt-25xuzTBhwPk_109.mp4	0.0	276.28207302093506	2.5082790851593018
78	224.10665917396545	fix_post	2		12.0	76.0	2.5	/experiments/knapen_aot/videos/R_S_yt-25xuzTBhwPk_109.mp4	0.0	278.79035210609436	0.10000181198120117
79	224.20666098594666	fix_pre	0		26.0	77.0	2.5	blank	1.0	278.89035391807556	0.2166461944580078
79	224.41516017913818	response	0	2		77.0	2.5	blank	1.0	279.0988531112671	
79	224.42330718040466	movie	1		301.0	77.0	2.5	blank	1.0	279.10700011253357	2.508380889892578
79	226.93168807029724	fix_post	2		12.0	77.0	2.5	blank	1.0	281.61538100242615	0.10000300407409668
80	227.03169107437134	fix_pre	0		27.0	78.0	2.5	/experiments/knapen_aot/videos/S_comp_GL_G004_C010_PSNK_v04_SDR_PS_FINAL_20180709_SDR_2K_AVC.mp4	0.0	281.71538400650024	0.22492599487304688
80	227.24848818778992	response	0	2		78.0	2.5	/experiments/knapen_aot/videos/S_comp_GL_G004_C010_PSNK_v04_SDR_PS_FINAL_20180709_SDR_2K_AVC.mp4	0.0	281.9321811199188	
80	227.25661706924438	movie	1		164.0	78.0	2.5	/experiments/knapen_aot/videos/S_comp_GL_G004_C010_PSNK_v04_SDR_PS_FINAL_20180709_SDR_2K_AVC.mp4	0.0	281.9403100013733	2.508388042449951
80	229.76500511169434	fix_post	2		12.0	78.0	2.5	/experiments/knapen_aot/videos/S_comp_GL_G004_C010_PSNK_v04_SDR_PS_FINAL_20180709_SDR_2K_AVC.mp4	0.0	284.44869804382324	0.09999990463256836
81	229.8650050163269	fix_pre	0		16.0	79.0	2.5	/experiments/knapen_aot/videos/S_wc-lItGMdwvEd_l_7.mp4	0.0	284.5486979484558	0.13335013389587402
81	229.9900941848755	response	0	2		79.0	2.5	/experiments/knapen_aot/videos/S_wc-lItGMdwvEd_l_7.mp4	0.0	284.6737871170044	
81	229.99835515022278	movie	1		164.0	79.0	2.5	/experiments/knapen_aot/videos/S_wc-lItGMdwvEd_l_7.mp4	0.0	284.6820480823517	2.5082919597625732
81	232.50664710998535	fix_post	2		12.0	79.0	2.5	/experiments/knapen_aot/videos/S_wc-lItGMdwvEd_l_7.mp4	0.0	287.19034004211426	0.09998703002929688
82	232.60663414001465	fix_pre	0		39.0	80.0	2.5	/experiments/knapen_aot/videos/S_yt-WFiEvQuOqqg_18.mp4	0.0	287.29032707214355	0.3249690532684326
82	232.9234709739685	response	0	2		80.0	2.5	/experiments/knapen_aot/videos/S_yt-WFiEvQuOqqg_18.mp4	0.0	287.6071639060974	
82	232.93160319328308	movie	1		301.0	80.0	2.5	/experiments/knapen_aot/videos/S_yt-WFiEvQuOqqg_18.mp4	0.0	287.615296125412	2.508342981338501
82	235.43994617462158	fix_post	2		12.0	80.0	2.5	/experiments/knapen_aot/videos/S_yt-WFiEvQuOqqg_18.mp4	0.0	290.1236391067505	0.1000218391418457
83	235.53996801376343	fix_pre	0		28.0	81.0	2.5	/experiments/knapen_aot/videos/S_comp_C003_C003_PS_v01_SDR_PS_20180925_SDR_2K_AVC.mp4	0.0	290.22366094589233	0.23330307006835938
83	235.76504611968994	response	0	2		81.0	2.5	/experiments/knapen_aot/videos/S_comp_C003_C003_PS_v01_SDR_PS_20180925_SDR_2K_AVC.mp4	0.0	290.44873905181885	
83	235.7732710838318	movie	1		164.0	81.0	2.5	/experiments/knapen_aot/videos/S_comp_C003_C003_PS_v01_SDR_PS_20180925_SDR_2K_AVC.mp4	0.0	290.4569640159607	2.5083189010620117
83	238.2815899848938	fix_post	2		12.0	81.0	2.5	/experiments/knapen_aot/videos/S_comp_C003_C003_PS_v01_SDR_PS_20180925_SDR_2K_AVC.mp4	0.0	292.9652829170227	0.10004115104675293
84	238.38163113594055	fix_pre	0		9.0	82.0	2.5	/experiments/knapen_aot/videos/R_S_yt-Ilr77XzakaY_95.mp4	0.0	293.06532406806946	0.07500290870666504
84	238.44833302497864	response	0	2		82.0	2.5	/experiments/knapen_aot/videos/R_S_yt-Ilr77XzakaY_95.mp4	0.0	293.13202595710754	
84	238.45663404464722	movie	1		301.0	82.0	2.5	/experiments/knapen_aot/videos/R_S_yt-Ilr77XzakaY_95.mp4	0.0	293.1403269767761	2.508319139480591
84	240.9649531841278	fix_post	2		12.0	82.0	2.5	/experiments/knapen_aot/videos/R_S_yt-Ilr77XzakaY_95.mp4	0.0	295.6486461162567	0.09996294975280762
85	241.06491613388062	fix_pre	0		31.0	83.0	2.5	blank	1.0	295.7486090660095	0.2587859630584717
85	241.31508207321167	response	0	2		83.0	2.5	blank	1.0	295.9987750053406	
85	241.3237020969391	movie	1		301.0	83.0	2.5	blank	1.0	296.007395029068	2.507920980453491
85	243.83162307739258	fix_post	2		12.0	83.0	2.5	blank	1.0	298.5153160095215	0.10002708435058594
87	243.93165016174316	stim	0		167.0					298.61534309387207	1.3919568061828613
87	244.13168907165527	response	0	2						298.8153820037842	
87	245.31314301490784	response	0	space						299.99683594703674	
