trial_nr	onset	event_type	phase	response	nr_frames	movie_index	movie_duration	movie_file	blank	onset_abs	duration
0	0.149993896484375	stim	0		24.0					66.30950093269348	0.20179319381713867
0	0.3416140079498291	response	0	space						66.50112104415894	
1	0.35178709030151367	stim	0		121.0					66.51129412651062	1.0059919357299805
1	1.2829201221466064	response	0	space						67.44242715835571	
1	1.3577790260314941	stim	1		120.0					67.5172860622406	1.0003550052642822
1	1.607856035232544	response	1	space						67.76736307144165	
1	1.9828219413757324	response	1	space						68.14232897758484	
2	2.3581340312957764	fix_pre	0		5.0	0.0	2.5	/experiments/knapen_aot/oldvideos/S_ILSVRC2015_train_00545000.mp4	0.0	68.51764106750488	0.04156899452209473
2	2.391294002532959	response	0	space		0.0	2.5	/experiments/knapen_aot/oldvideos/S_ILSVRC2015_train_00545000.mp4	0.0	68.55080103874207	
2	2.399703025817871	movie	1		301.0	0.0	2.5	/experiments/knapen_aot/oldvideos/S_ILSVRC2015_train_00545000.mp4	0.0	68.55921006202698	2.5080389976501465
2	4.907742023468018	fix_post	2		12.0	0.0	2.5	/experiments/knapen_aot/oldvideos/S_ILSVRC2015_train_00545000.mp4	0.0	71.06724905967712	0.10003495216369629
3	5.007776975631714	fix_pre	0		141.0	1.0	2.5	/experiments/knapen_aot/oldvideos/R_S_yt-iAQ98zgVlds_97.mp4	0.0	71.16728401184082	1.176584005355835
3	6.179245948791504	response	0	2		1.0	2.5	/experiments/knapen_aot/oldvideos/R_S_yt-iAQ98zgVlds_97.mp4	0.0	72.33875298500061	
3	6.184360980987549	movie	1		299.0	1.0	2.5	/experiments/knapen_aot/oldvideos/R_S_yt-iAQ98zgVlds_97.mp4	0.0	72.34386801719666	2.506938934326172
3	8.69129991531372	fix_post	2		12.0	1.0	2.5	/experiments/knapen_aot/oldvideos/R_S_yt-iAQ98zgVlds_97.mp4	0.0	74.85080695152283	0.09975314140319824
4	8.791053056716919	fix_pre	0		46.0	2.0	2.5	/experiments/knapen_aot/oldvideos/S_yt-JtR6WZXT2kU_8.mp4	0.0	74.95056009292603	0.3833620548248291
4	9.166223049163818	response	0	4		2.0	2.5	/experiments/knapen_aot/oldvideos/S_yt-JtR6WZXT2kU_8.mp4	0.0	75.32573008537292	
4	9.174415111541748	movie	1		301.0	2.0	2.5	/experiments/knapen_aot/oldvideos/S_yt-JtR6WZXT2kU_8.mp4	0.0	75.33392214775085	2.508314847946167
4	11.682729959487915	fix_post	2		12.0	2.0	2.5	/experiments/knapen_aot/oldvideos/S_yt-JtR6WZXT2kU_8.mp4	0.0	77.84223699569702	0.1002199649810791
5	11.782949924468994	fix_pre	0		29.0	3.0	2.5	/experiments/knapen_aot/oldvideos/R_S_yt--v_iMUMMX6g_39.mp4	0.0	77.9424569606781	0.24160099029541016
5	12.016093969345093	response	0	4		3.0	2.5	/experiments/knapen_aot/oldvideos/R_S_yt--v_iMUMMX6g_39.mp4	0.0	78.1756010055542	
5	12.024550914764404	movie	1		301.0	3.0	2.5	/experiments/knapen_aot/oldvideos/R_S_yt--v_iMUMMX6g_39.mp4	0.0	78.18405795097351	2.508131980895996
5	14.5326828956604	fix_post	2		12.0	3.0	2.5	/experiments/knapen_aot/oldvideos/R_S_yt--v_iMUMMX6g_39.mp4	0.0	80.6921899318695	0.10005617141723633
6	14.632739067077637	fix_pre	0		28.0	4.0	2.5	/experiments/knapen_aot/oldvideos/S_comp_L004_C011_PS_v01_SDR_PS_20180925_SDR_2K_AVC.mp4	0.0	80.79224610328674	0.23326802253723145
6	14.857706069946289	response	0	4		4.0	2.5	/experiments/knapen_aot/oldvideos/S_comp_L004_C011_PS_v01_SDR_PS_20180925_SDR_2K_AVC.mp4	0.0	81.0172131061554	
6	14.866007089614868	movie	1		167.0	4.0	2.5	/experiments/knapen_aot/oldvideos/S_comp_L004_C011_PS_v01_SDR_PS_20180925_SDR_2K_AVC.mp4	0.0	81.02551412582397	2.5083649158477783
6	17.374372005462646	fix_post	2		12.0	4.0	2.5	/experiments/knapen_aot/oldvideos/S_comp_L004_C011_PS_v01_SDR_PS_20180925_SDR_2K_AVC.mp4	0.0	83.53387904167175	0.10001111030578613
7	17.474383115768433	fix_pre	0		30.0	5.0	2.5	/experiments/knapen_aot/oldvideos/R_S_yt-McqS-QObQbk_122.mp4	0.0	83.63389015197754	0.24993085861206055
7	17.716118097305298	response	0	4		5.0	2.5	/experiments/knapen_aot/oldvideos/R_S_yt-McqS-QObQbk_122.mp4	0.0	83.8756251335144	
7	17.724313974380493	movie	1		301.0	5.0	2.5	/experiments/knapen_aot/oldvideos/R_S_yt-McqS-QObQbk_122.mp4	0.0	83.8838210105896	2.508327007293701
7	20.232640981674194	fix_post	2		12.0	5.0	2.5	/experiments/knapen_aot/oldvideos/R_S_yt-McqS-QObQbk_122.mp4	0.0	86.3921480178833	0.10001993179321289
8	20.332660913467407	fix_pre	0		20.0	6.0	2.5	/experiments/knapen_aot/oldvideos/S_pexels-mart-production-7698693.mp4	0.0	86.49216794967651	0.16660308837890625
8	20.491136074066162	response	0	4		6.0	2.5	/experiments/knapen_aot/oldvideos/S_pexels-mart-production-7698693.mp4	0.0	86.65064311027527	
8	20.499264001846313	movie	1		194.0	6.0	2.5	/experiments/knapen_aot/oldvideos/S_pexels-mart-production-7698693.mp4	0.0	86.65877103805542	2.5084009170532227
8	23.007664918899536	fix_post	2		12.0	6.0	2.5	/experiments/knapen_aot/oldvideos/S_pexels-mart-production-7698693.mp4	0.0	89.16717195510864	0.10023307800292969
9	23.107897996902466	fix_pre	0		20.0	7.0	2.5	blank	1.0	89.26740503311157	0.16664695739746094
9	23.266070127487183	response	0	4		7.0	2.5	blank	1.0	89.42557716369629	
9	23.274544954299927	movie	1		301.0	7.0	2.5	blank	1.0	89.43405199050903	2.508113145828247
9	25.782658100128174	fix_post	2		12.0	7.0	2.5	blank	1.0	91.94216513633728	0.10005402565002441
10	25.8827121257782	fix_pre	0		37.0	8.0	2.5	/experiments/knapen_aot/oldvideos/S_yt-yXJr3FR2xrM_27.mp4	0.0	92.0422191619873	0.3083939552307129
10	26.175257921218872	response	0	4		8.0	2.5	/experiments/knapen_aot/oldvideos/S_yt-yXJr3FR2xrM_27.mp4	0.0	92.33476495742798	
10	26.19110608100891	movie	1		301.0	8.0	2.5	/experiments/knapen_aot/oldvideos/S_yt-yXJr3FR2xrM_27.mp4	0.0	92.35061311721802	2.5081799030303955
10	28.699285984039307	fix_post	2		12.0	8.0	2.5	/experiments/knapen_aot/oldvideos/S_yt-yXJr3FR2xrM_27.mp4	0.0	94.85879302024841	0.10008811950683594
11	28.799374103546143	fix_pre	0		30.0	9.0	2.5	/experiments/knapen_aot/oldvideos/R_S_dwi2oPzQ1Wo_48.mp4	0.0	94.95888113975525	0.2498779296875
11	29.0411159992218	response	0	4		9.0	2.5	/experiments/knapen_aot/oldvideos/R_S_dwi2oPzQ1Wo_48.mp4	0.0	95.20062303543091	
11	29.049252033233643	movie	1		301.0	9.0	2.5	/experiments/knapen_aot/oldvideos/R_S_dwi2oPzQ1Wo_48.mp4	0.0	95.20875906944275	2.5083658695220947
11	31.557617902755737	fix_post	2		12.0	9.0	2.5	/experiments/knapen_aot/oldvideos/R_S_dwi2oPzQ1Wo_48.mp4	0.0	97.71712493896484	0.09996700286865234
12	31.65758490562439	fix_pre	0		20.0	10.0	2.5	/experiments/knapen_aot/oldvideos/S_yt-ZBk_XFb5PGo_25.mp4	0.0	97.8170919418335	0.16663599014282227
12	31.816046953201294	response	0	4		10.0	2.5	/experiments/knapen_aot/oldvideos/S_yt-ZBk_XFb5PGo_25.mp4	0.0	97.9755539894104	
12	31.824220895767212	movie	1		301.0	10.0	2.5	/experiments/knapen_aot/oldvideos/S_yt-ZBk_XFb5PGo_25.mp4	0.0	97.98372793197632	2.508404016494751
12	34.33262491226196	fix_post	2		12.0	10.0	2.5	/experiments/knapen_aot/oldvideos/S_yt-ZBk_XFb5PGo_25.mp4	0.0	100.49213194847107	0.09998106956481934
13	34.43260598182678	fix_pre	0		35.0	11.0	2.5	/experiments/knapen_aot/oldvideos/S_yt-JG2OY_7B-gI_537.mp4	0.0	100.59211301803589	0.2916250228881836
13	34.71609592437744	response	0	4		11.0	2.5	/experiments/knapen_aot/oldvideos/S_yt-JG2OY_7B-gI_537.mp4	0.0	100.87560296058655	
13	34.724231004714966	movie	1		301.0	11.0	2.5	/experiments/knapen_aot/oldvideos/S_yt-JG2OY_7B-gI_537.mp4	0.0	100.88373804092407	2.508492946624756
13	37.23272395133972	fix_post	2		12.0	11.0	2.5	/experiments/knapen_aot/oldvideos/S_yt-JG2OY_7B-gI_537.mp4	0.0	103.39223098754883	0.1000211238861084
14	37.33274507522583	fix_pre	0		20.0	12.0	2.5	blank	1.0	103.49225211143494	0.16646099090576172
14	37.49109601974487	response	0	4		12.0	2.5	blank	1.0	103.65060305595398	
14	37.49920606613159	movie	1		301.0	12.0	2.5	blank	1.0	103.6587131023407	2.5084989070892334
14	40.007704973220825	fix_post	2		12.0	12.0	2.5	blank	1.0	106.16721200942993	0.09993815422058105
15	40.107643127441406	fix_pre	0		45.0	13.0	2.5	/experiments/knapen_aot/oldvideos/R_S_bing-www_nytimes_com_video_dining_1247468118505_grilled-chicken-breasts-with-herb-butter_html_132.mp4	0.0	106.26715016365051	0.3749549388885498
15	40.4743549823761	response	0	4		13.0	2.5	/experiments/knapen_aot/oldvideos/R_S_bing-www_nytimes_com_video_dining_1247468118505_grilled-chicken-breasts-with-herb-butter_html_132.mp4	0.0	106.6338620185852	
15	40.482598066329956	movie	1		167.0	13.0	2.5	/experiments/knapen_aot/oldvideos/R_S_bing-www_nytimes_com_video_dining_1247468118505_grilled-chicken-breasts-with-herb-butter_html_132.mp4	0.0	106.64210510253906	2.508354902267456
15	42.99095296859741	fix_post	2		12.0	13.0	2.5	/experiments/knapen_aot/oldvideos/R_S_bing-www_nytimes_com_video_dining_1247468118505_grilled-chicken-breasts-with-herb-butter_html_132.mp4	0.0	109.15046000480652	0.10030293464660645
16	43.09125590324402	fix_pre	0		26.0	14.0	2.5	/experiments/knapen_aot/oldvideos/S_wc-eJe3wXMgTLRV_20.mp4	0.0	109.25076293945312	0.21627116203308105
16	43.299362897872925	response	0	4		14.0	2.5	/experiments/knapen_aot/oldvideos/S_wc-eJe3wXMgTLRV_20.mp4	0.0	109.45886993408203	
16	43.3075270652771	movie	1		161.0	14.0	2.5	/experiments/knapen_aot/oldvideos/S_wc-eJe3wXMgTLRV_20.mp4	0.0	109.4670341014862	2.5085020065307617
16	45.81602907180786	fix_post	2		12.0	14.0	2.5	/experiments/knapen_aot/oldvideos/S_wc-eJe3wXMgTLRV_20.mp4	0.0	111.97553610801697	0.09986495971679688
17	45.91589403152466	fix_pre	0		21.0	15.0	2.5	/experiments/knapen_aot/oldvideos/R_S_yt-3aTDYxyF6bc_35.mp4	0.0	112.07540106773376	0.1750049591064453
17	46.08273696899414	response	0	4		15.0	2.5	/experiments/knapen_aot/oldvideos/R_S_yt-3aTDYxyF6bc_35.mp4	0.0	112.24224400520325	
17	46.0908989906311	movie	1		301.0	15.0	2.5	/experiments/knapen_aot/oldvideos/R_S_yt-3aTDYxyF6bc_35.mp4	0.0	112.25040602684021	2.5083529949188232
17	48.59925198554993	fix_post	2		12.0	15.0	2.5	/experiments/knapen_aot/oldvideos/R_S_yt-3aTDYxyF6bc_35.mp4	0.0	114.75875902175903	0.1000509262084961
18	48.69930291175842	fix_pre	0		30.0	16.0	2.5	/experiments/knapen_aot/oldvideos/R_S_yt-yXJr3FR2xrM_27.mp4	0.0	114.85880994796753	0.24990415573120117
18	48.94105005264282	response	0	4		16.0	2.5	/experiments/knapen_aot/oldvideos/R_S_yt-yXJr3FR2xrM_27.mp4	0.0	115.10055708885193	
18	48.949207067489624	movie	1		301.0	16.0	2.5	/experiments/knapen_aot/oldvideos/R_S_yt-yXJr3FR2xrM_27.mp4	0.0	115.10871410369873	2.5083930492401123
18	51.457600116729736	fix_post	2		12.0	16.0	2.5	/experiments/knapen_aot/oldvideos/R_S_yt-yXJr3FR2xrM_27.mp4	0.0	117.61710715293884	0.09992599487304688
19	51.55752611160278	fix_pre	0		57.0	17.0	2.5	/experiments/knapen_aot/oldvideos/S_comp_DB_D002_C003_PSNK_v04_SDR_PS_20180914_SDR_2K_AVC.mp4	0.0	117.71703314781189	0.4749720096588135
19	52.016770124435425	response	0	4		17.0	2.5	/experiments/knapen_aot/oldvideos/S_comp_DB_D002_C003_PSNK_v04_SDR_PS_20180914_SDR_2K_AVC.mp4	0.0	118.17627716064453	
19	52.0324981212616	movie	1		164.0	17.0	2.5	/experiments/knapen_aot/oldvideos/S_comp_DB_D002_C003_PSNK_v04_SDR_PS_20180914_SDR_2K_AVC.mp4	0.0	118.1920051574707	2.5083889961242676
19	54.540887117385864	fix_post	2		12.0	17.0	2.5	/experiments/knapen_aot/oldvideos/S_comp_DB_D002_C003_PSNK_v04_SDR_PS_20180914_SDR_2K_AVC.mp4	0.0	120.70039415359497	0.10000181198120117
20	54.640888929367065	fix_pre	0		11.0	18.0	2.5	/experiments/knapen_aot/oldvideos/S_ILSVRC2015_train_00556000.mp4	0.0	120.80039596557617	0.09165096282958984
20	54.72437000274658	response	0	4		18.0	2.5	/experiments/knapen_aot/oldvideos/S_ILSVRC2015_train_00556000.mp4	0.0	120.88387703895569	
20	54.732539892196655	movie	1		301.0	18.0	2.5	/experiments/knapen_aot/oldvideos/S_ILSVRC2015_train_00556000.mp4	0.0	120.89204692840576	2.50838303565979
20	57.240922927856445	fix_post	2		12.0	18.0	2.5	/experiments/knapen_aot/oldvideos/S_ILSVRC2015_train_00556000.mp4	0.0	123.40042996406555	0.09998011589050293
21	57.34090304374695	fix_pre	0		93.0	19.0	2.5	/experiments/knapen_aot/oldvideos/S_yt-_68FWLGgPYE_25.mp4	0.0	123.50041007995605	0.7749860286712646
21	58.107702016830444	response	0	4		19.0	2.5	/experiments/knapen_aot/oldvideos/S_yt-_68FWLGgPYE_25.mp4	0.0	124.26720905303955	
21	58.11588907241821	movie	1		301.0	19.0	2.5	/experiments/knapen_aot/oldvideos/S_yt-_68FWLGgPYE_25.mp4	0.0	124.27539610862732	2.5083420276641846
21	60.6242311000824	fix_post	2		12.0	19.0	2.5	/experiments/knapen_aot/oldvideos/S_yt-_68FWLGgPYE_25.mp4	0.0	126.7837381362915	0.09992480278015137
22	60.72415590286255	fix_pre	0		104.0	20.0	2.5	blank	1.0	126.88366293907166	0.8665971755981445
22	61.5825629234314	response	0	4		20.0	2.5	blank	1.0	127.7420699596405	
22	61.59075307846069	movie	1		301.0	20.0	2.5	blank	1.0	127.7502601146698	2.5084118843078613
22	64.09916496276855	fix_post	2		12.0	20.0	2.5	blank	1.0	130.25867199897766	0.10019111633300781
23	64.19935607910156	fix_pre	0		13.0	21.0	2.5	/experiments/knapen_aot/oldvideos/R_S_yt-YyKEeu2gLrI_158.mp4	0.0	130.35886311531067	0.10815691947937012
23	64.29929804801941	response	0	4		21.0	2.5	/experiments/knapen_aot/oldvideos/R_S_yt-YyKEeu2gLrI_158.mp4	0.0	130.45880508422852	
23	64.30751299858093	movie	1		301.0	21.0	2.5	/experiments/knapen_aot/oldvideos/R_S_yt-YyKEeu2gLrI_158.mp4	0.0	130.46702003479004	2.508336067199707
23	66.81584906578064	fix_post	2		12.0	21.0	2.5	/experiments/knapen_aot/oldvideos/R_S_yt-YyKEeu2gLrI_158.mp4	0.0	132.97535610198975	0.09995698928833008
24	66.91580605506897	fix_pre	0		23.0	22.0	2.5	/experiments/knapen_aot/oldvideos/S_video-7.mp4	0.0	133.07531309127808	0.1916799545288086
24	67.09921908378601	response	0	4		22.0	2.5	/experiments/knapen_aot/oldvideos/S_video-7.mp4	0.0	133.25872611999512	
24	67.10748600959778	movie	1		166.0	22.0	2.5	/experiments/knapen_aot/oldvideos/S_video-7.mp4	0.0	133.26699304580688	2.508336067199707
24	69.61582207679749	fix_post	2		12.0	22.0	2.5	/experiments/knapen_aot/oldvideos/S_video-7.mp4	0.0	135.7753291130066	0.10000395774841309
25	69.7158260345459	fix_pre	0		7.0	23.0	2.5	/experiments/knapen_aot/oldvideos/R_S_yt-8vm83GUgYxI_1.mp4	0.0	135.875333070755	0.05826997756958008
25	69.76596593856812	response	0	4		23.0	2.5	/experiments/knapen_aot/oldvideos/R_S_yt-8vm83GUgYxI_1.mp4	0.0	135.92547297477722	
25	69.77409601211548	movie	1		301.0	23.0	2.5	/experiments/knapen_aot/oldvideos/R_S_yt-8vm83GUgYxI_1.mp4	0.0	135.93360304832458	2.508419990539551
25	72.28251600265503	fix_post	2		12.0	23.0	2.5	/experiments/knapen_aot/oldvideos/R_S_yt-8vm83GUgYxI_1.mp4	0.0	138.44202303886414	0.09997105598449707
25	72.3408510684967	response	2	2		23.0	2.5	/experiments/knapen_aot/oldvideos/R_S_yt-8vm83GUgYxI_1.mp4	0.0	138.5003581047058	
26	72.38248705863953	fix_pre	0		63.0	24.0	2.5	/experiments/knapen_aot/oldvideos/R_S_yt-xWCPbUQc-vg_7.mp4	0.0	138.54199409484863	0.5248188972473145
26	72.89926099777222	response	0	2		24.0	2.5	/experiments/knapen_aot/oldvideos/R_S_yt-xWCPbUQc-vg_7.mp4	0.0	139.05876803398132	
26	72.90730595588684	movie	1		301.0	24.0	2.5	/experiments/knapen_aot/oldvideos/R_S_yt-xWCPbUQc-vg_7.mp4	0.0	139.06681299209595	2.508523941040039
26	75.41582989692688	fix_post	2		12.0	24.0	2.5	/experiments/knapen_aot/oldvideos/R_S_yt-xWCPbUQc-vg_7.mp4	0.0	141.575336933136	0.09996819496154785
27	75.51579809188843	fix_pre	0		20.0	25.0	2.5	/experiments/knapen_aot/oldvideos/R_S_video_inspire_oregon_lone-ranch-beach_00021.1080-h264.mp4	0.0	141.67530512809753	0.1666569709777832
27	75.67417812347412	response	0	2		25.0	2.5	/experiments/knapen_aot/oldvideos/R_S_video_inspire_oregon_lone-ranch-beach_00021.1080-h264.mp4	0.0	141.83368515968323	
27	75.68245506286621	movie	1		164.0	25.0	2.5	/experiments/knapen_aot/oldvideos/R_S_video_inspire_oregon_lone-ranch-beach_00021.1080-h264.mp4	0.0	141.84196209907532	2.508288860321045
27	78.19074392318726	fix_post	2		12.0	25.0	2.5	/experiments/knapen_aot/oldvideos/R_S_video_inspire_oregon_lone-ranch-beach_00021.1080-h264.mp4	0.0	144.35025095939636	0.09999704360961914
28	78.29074096679688	fix_pre	0		1.0	26.0	2.5	/experiments/knapen_aot/oldvideos/R_S_yt-7Fyu2vr7zbA_31.mp4	0.0	144.45024800300598	0.008316993713378906
28	78.28368496894836	response	0	2		26.0	2.5	/experiments/knapen_aot/oldvideos/R_S_yt-7Fyu2vr7zbA_31.mp4	0.0	144.44319200515747	
28	78.29905796051025	movie	1		301.0	26.0	2.5	/experiments/knapen_aot/oldvideos/R_S_yt-7Fyu2vr7zbA_31.mp4	0.0	144.45856499671936	2.5083470344543457
28	80.8074049949646	fix_post	2		12.0	26.0	2.5	/experiments/knapen_aot/oldvideos/R_S_yt-7Fyu2vr7zbA_31.mp4	0.0	146.9669120311737	0.10000109672546387
29	80.90740609169006	fix_pre	0		12.0	27.0	2.5	blank	1.0	147.06691312789917	0.10006189346313477
29	80.99928307533264	response	0	2		27.0	2.5	blank	1.0	147.15879011154175	
29	81.0074679851532	movie	1		301.0	27.0	2.5	blank	1.0	147.1669750213623	2.5082709789276123
29	83.51573896408081	fix_post	2		12.0	27.0	2.5	blank	1.0	149.67524600028992	0.10006904602050781
30	83.61580801010132	fix_pre	0		27.0	28.0	2.5	/experiments/knapen_aot/oldvideos/R_S_comp_LW_L001_C006_PSNK_DENOISE_v02_SDR_PS_FINAL_20180709_SDR_2K_AVC.mp4	0.0	149.77531504631042	0.22487807273864746
30	83.83258295059204	response	0	4		28.0	2.5	/experiments/knapen_aot/oldvideos/R_S_comp_LW_L001_C006_PSNK_DENOISE_v02_SDR_PS_FINAL_20180709_SDR_2K_AVC.mp4	0.0	149.99208998680115	
30	83.84068608283997	movie	1		165.0	28.0	2.5	/experiments/knapen_aot/oldvideos/R_S_comp_LW_L001_C006_PSNK_DENOISE_v02_SDR_PS_FINAL_20180709_SDR_2K_AVC.mp4	0.0	150.00019311904907	2.5084729194641113
30	86.34915900230408	fix_post	2		12.0	28.0	2.5	/experiments/knapen_aot/oldvideos/R_S_comp_LW_L001_C006_PSNK_DENOISE_v02_SDR_PS_FINAL_20180709_SDR_2K_AVC.mp4	0.0	152.50866603851318	0.09987711906433105
31	86.44903612136841	fix_pre	0		246.0	29.0	2.5	/experiments/knapen_aot/oldvideos/R_S_Pexels_Videos_2795737.mp4	0.0	152.60854315757751	2.0499348640441895
31	88.49084496498108	response	0	4		29.0	2.5	/experiments/knapen_aot/oldvideos/R_S_Pexels_Videos_2795737.mp4	0.0	154.65035200119019	
31	88.4989709854126	movie	1		164.0	29.0	2.5	/experiments/knapen_aot/oldvideos/R_S_Pexels_Videos_2795737.mp4	0.0	154.6584780216217	2.5083811283111572
31	91.00735211372375	fix_post	2		12.0	29.0	2.5	/experiments/knapen_aot/oldvideos/R_S_Pexels_Videos_2795737.mp4	0.0	157.16685914993286	0.10014891624450684
32	91.10750102996826	fix_pre	0		16.0	30.0	2.5	/experiments/knapen_aot/oldvideos/S_yt-npaE4fe6A6Y_26.mp4	0.0	157.26700806617737	0.13315105438232422
32	91.23248100280762	response	0	4		30.0	2.5	/experiments/knapen_aot/oldvideos/S_yt-npaE4fe6A6Y_26.mp4	0.0	157.39198803901672	
32	91.24065208435059	movie	1		301.0	30.0	2.5	/experiments/knapen_aot/oldvideos/S_yt-npaE4fe6A6Y_26.mp4	0.0	157.4001591205597	2.5083999633789062
32	93.74905204772949	fix_post	2		12.0	30.0	2.5	/experiments/knapen_aot/oldvideos/S_yt-npaE4fe6A6Y_26.mp4	0.0	159.9085590839386	0.10013890266418457
33	93.84919095039368	fix_pre	0		27.0	31.0	2.5	/experiments/knapen_aot/oldvideos/R_S_yt-HwGg4-zeWi8_364.mp4	0.0	160.00869798660278	0.22478294372558594
33	94.06578707695007	response	0	4		31.0	2.5	/experiments/knapen_aot/oldvideos/R_S_yt-HwGg4-zeWi8_364.mp4	0.0	160.22529411315918	
33	94.07397389411926	movie	1		301.0	31.0	2.5	/experiments/knapen_aot/oldvideos/R_S_yt-HwGg4-zeWi8_364.mp4	0.0	160.23348093032837	2.5084221363067627
33	96.58239603042603	fix_post	2		12.0	31.0	2.5	/experiments/knapen_aot/oldvideos/R_S_yt-HwGg4-zeWi8_364.mp4	0.0	162.74190306663513	0.09994101524353027
34	96.68233704566956	fix_pre	0		25.0	32.0	2.5	/experiments/knapen_aot/oldvideos/S_ILSVRC2015_train_00569007.mp4	0.0	162.84184408187866	0.20954203605651855
34	96.88242292404175	response	0	4		32.0	2.5	/experiments/knapen_aot/oldvideos/S_ILSVRC2015_train_00569007.mp4	0.0	163.04192996025085	
34	96.89187908172607	movie	1		301.0	32.0	2.5	/experiments/knapen_aot/oldvideos/S_ILSVRC2015_train_00569007.mp4	0.0	163.05138611793518	2.5070958137512207
34	99.3989748954773	fix_post	2		12.0	32.0	2.5	/experiments/knapen_aot/oldvideos/S_ILSVRC2015_train_00569007.mp4	0.0	165.5584819316864	0.1002340316772461
35	99.49920892715454	fix_pre	0		25.0	33.0	2.5	blank	1.0	165.65871596336365	0.2080080509185791
35	99.69917702674866	response	0	4		33.0	2.5	blank	1.0	165.85868406295776	
35	99.70721697807312	movie	1		301.0	33.0	2.5	blank	1.0	165.86672401428223	2.5084609985351562
35	102.21567797660828	fix_post	2		12.0	33.0	2.5	blank	1.0	168.37518501281738	0.09998393058776855
36	102.31566190719604	fix_pre	0		56.0	34.0	2.5	/experiments/knapen_aot/oldvideos/R_S_yt-rlVzHENWufE_61.mp4	0.0	168.47516894340515	0.4666621685028076
36	102.76650404930115	response	0	4		34.0	2.5	/experiments/knapen_aot/oldvideos/R_S_yt-rlVzHENWufE_61.mp4	0.0	168.92601108551025	
36	102.78232407569885	movie	1		301.0	34.0	2.5	/experiments/knapen_aot/oldvideos/R_S_yt-rlVzHENWufE_61.mp4	0.0	168.94183111190796	2.5082998275756836
36	105.29062390327454	fix_post	2		12.0	34.0	2.5	/experiments/knapen_aot/oldvideos/R_S_yt-rlVzHENWufE_61.mp4	0.0	171.45013093948364	0.09996819496154785
37	105.39059209823608	fix_pre	0		25.0	35.0	2.5	/experiments/knapen_aot/oldvideos/R_S_flickr-53807584@N00-5565833509_7.mp4	0.0	171.5500991344452	0.20832395553588867
37	105.59073996543884	response	0	4		35.0	2.5	/experiments/knapen_aot/oldvideos/R_S_flickr-53807584@N00-5565833509_7.mp4	0.0	171.75024700164795	
37	105.59891605377197	movie	1		301.0	35.0	2.5	/experiments/knapen_aot/oldvideos/R_S_flickr-53807584@N00-5565833509_7.mp4	0.0	171.75842308998108	2.5084400177001953
37	108.10735607147217	fix_post	2		12.0	35.0	2.5	/experiments/knapen_aot/oldvideos/R_S_flickr-53807584@N00-5565833509_7.mp4	0.0	174.26686310768127	0.10000300407409668
38	108.20735907554626	fix_pre	0		21.0	36.0	2.5	/experiments/knapen_aot/oldvideos/R_S_yt-nlfwzxlwRfk_12.mp4	0.0	174.36686611175537	0.17489385604858398
38	108.3740119934082	response	0	4		36.0	2.5	/experiments/knapen_aot/oldvideos/R_S_yt-nlfwzxlwRfk_12.mp4	0.0	174.5335190296173	
38	108.38225293159485	movie	1		301.0	36.0	2.5	/experiments/knapen_aot/oldvideos/R_S_yt-nlfwzxlwRfk_12.mp4	0.0	174.54175996780396	2.508406162261963
38	110.89065909385681	fix_post	2		12.0	36.0	2.5	/experiments/knapen_aot/oldvideos/R_S_yt-nlfwzxlwRfk_12.mp4	0.0	177.05016613006592	0.09996795654296875
39	110.99062705039978	fix_pre	0		306.0	37.0	2.5	/experiments/knapen_aot/oldvideos/S_yt-JQOHHL30Y54_101.mp4	0.0	177.1501340866089	2.549919843673706
39	113.53244590759277	response	0	4		37.0	2.5	/experiments/knapen_aot/oldvideos/S_yt-JQOHHL30Y54_101.mp4	0.0	179.69195294380188	
39	113.54054689407349	movie	1		301.0	37.0	2.5	/experiments/knapen_aot/oldvideos/S_yt-JQOHHL30Y54_101.mp4	0.0	179.7000539302826	2.508406162261963
39	116.04895305633545	fix_post	2		12.0	37.0	2.5	/experiments/knapen_aot/oldvideos/S_yt-JQOHHL30Y54_101.mp4	0.0	182.20846009254456	0.10000491142272949
40	116.14895796775818	fix_pre	0		33.0	38.0	2.5	/experiments/knapen_aot/oldvideos/S_ILSVRC2015_train_00323000.mp4	0.0	182.30846500396729	0.2749910354614258
40	116.40820097923279	response	0	4		38.0	2.5	/experiments/knapen_aot/oldvideos/S_ILSVRC2015_train_00323000.mp4	0.0	182.5677080154419	
40	116.4239490032196	movie	1		301.0	38.0	2.5	/experiments/knapen_aot/oldvideos/S_ILSVRC2015_train_00323000.mp4	0.0	182.5834560394287	2.508378028869629
40	118.93232703208923	fix_post	2		12.0	38.0	2.5	/experiments/knapen_aot/oldvideos/S_ILSVRC2015_train_00323000.mp4	0.0	185.09183406829834	0.09992694854736328
41	119.0322539806366	fix_pre	0		20.0	39.0	2.5	/experiments/knapen_aot/oldvideos/R_S_ILSVRC2015_train_00323000.mp4	0.0	185.1917610168457	0.16668105125427246
41	119.19075894355774	response	0	4		39.0	2.5	/experiments/knapen_aot/oldvideos/R_S_ILSVRC2015_train_00323000.mp4	0.0	185.35026597976685	
41	119.19893503189087	movie	1		301.0	39.0	2.5	/experiments/knapen_aot/oldvideos/R_S_ILSVRC2015_train_00323000.mp4	0.0	185.35844206809998	2.5084450244903564
41	121.70738005638123	fix_post	2		12.0	39.0	2.5	/experiments/knapen_aot/oldvideos/R_S_ILSVRC2015_train_00323000.mp4	0.0	187.86688709259033	0.09991598129272461
42	121.80729603767395	fix_pre	0		146.0	40.0	2.5	blank	1.0	187.96680307388306	1.2166740894317627
42	123.01572799682617	response	0	4		40.0	2.5	blank	1.0	189.17523503303528	
42	123.02397012710571	movie	1		301.0	40.0	2.5	blank	1.0	189.18347716331482	2.5084807872772217
42	125.53245091438293	fix_post	2		12.0	40.0	2.5	blank	1.0	191.69195795059204	0.09976506233215332
43	125.63221597671509	fix_pre	0		16.0	41.0	2.5	/experiments/knapen_aot/oldvideos/S_yt-HwGg4-zeWi8_364.mp4	0.0	191.7917230129242	0.13437795639038086
43	125.75730204582214	response	0	4		41.0	2.5	/experiments/knapen_aot/oldvideos/S_yt-HwGg4-zeWi8_364.mp4	0.0	191.91680908203125	
43	125.76659393310547	movie	1		301.0	41.0	2.5	/experiments/knapen_aot/oldvideos/S_yt-HwGg4-zeWi8_364.mp4	0.0	191.92610096931458	2.5073301792144775
43	128.27392411231995	fix_post	2		12.0	41.0	2.5	/experiments/knapen_aot/oldvideos/S_yt-HwGg4-zeWi8_364.mp4	0.0	194.43343114852905	0.10000395774841309
44	128.37392807006836	fix_pre	0		23.0	42.0	2.5	/experiments/knapen_aot/oldvideos/R_S_video-6.mp4	0.0	194.53343510627747	0.19160985946655273
44	128.5573980808258	response	0	4		42.0	2.5	/experiments/knapen_aot/oldvideos/R_S_video-6.mp4	0.0	194.7169051170349	
44	128.5655379295349	movie	1		191.0	42.0	2.5	/experiments/knapen_aot/oldvideos/R_S_video-6.mp4	0.0	194.72504496574402	2.5083580017089844
44	131.0738959312439	fix_post	2		12.0	42.0	2.5	/experiments/knapen_aot/oldvideos/R_S_video-6.mp4	0.0	197.233402967453	0.10003018379211426
45	131.173926115036	fix_pre	0		17.0	43.0	2.5	/experiments/knapen_aot/oldvideos/S_yt-8QCcmqaEMPI_16.mp4	0.0	197.33343315124512	0.14161896705627441
45	131.30732798576355	response	0	4		43.0	2.5	/experiments/knapen_aot/oldvideos/S_yt-8QCcmqaEMPI_16.mp4	0.0	197.46683502197266	
45	131.31554508209229	movie	1		301.0	43.0	2.5	/experiments/knapen_aot/oldvideos/S_yt-8QCcmqaEMPI_16.mp4	0.0	197.4750521183014	2.508427858352661
45	133.82397294044495	fix_post	2		12.0	43.0	2.5	/experiments/knapen_aot/oldvideos/S_yt-8QCcmqaEMPI_16.mp4	0.0	199.98347997665405	0.09998202323913574
46	133.92395496368408	fix_pre	0		195.0	44.0	2.5	/experiments/knapen_aot/oldvideos/R_S_yt-hRAqAwRhmwE_58.mp4	0.0	200.0834619998932	1.6249370574951172
46	135.540678024292	response	0	4		44.0	2.5	/experiments/knapen_aot/oldvideos/R_S_yt-hRAqAwRhmwE_58.mp4	0.0	201.7001850605011	
46	135.5488920211792	movie	1		301.0	44.0	2.5	/experiments/knapen_aot/oldvideos/R_S_yt-hRAqAwRhmwE_58.mp4	0.0	201.7083990573883	2.5083138942718506
46	138.05720591545105	fix_post	2		12.0	44.0	2.5	/experiments/knapen_aot/oldvideos/R_S_yt-hRAqAwRhmwE_58.mp4	0.0	204.21671295166016	0.09999704360961914
47	138.15720295906067	fix_pre	0		20.0	45.0	2.5	/experiments/knapen_aot/oldvideos/R_S_yt-oT4Bq8zYN4E_42.mp4	0.0	204.31670999526978	0.16670703887939453
47	138.3156599998474	response	0	2		45.0	2.5	/experiments/knapen_aot/oldvideos/R_S_yt-oT4Bq8zYN4E_42.mp4	0.0	204.47516703605652	
47	138.32390999794006	movie	1		301.0	45.0	2.5	/experiments/knapen_aot/oldvideos/R_S_yt-oT4Bq8zYN4E_42.mp4	0.0	204.48341703414917	2.508286952972412
47	140.83219695091248	fix_post	2		12.0	45.0	2.5	/experiments/knapen_aot/oldvideos/R_S_yt-oT4Bq8zYN4E_42.mp4	0.0	206.99170398712158	0.10000109672546387
48	140.93219804763794	fix_pre	0		22.0	46.0	2.5	/experiments/knapen_aot/oldvideos/S_pexels-roman-odintsov-8232443.mp4	0.0	207.09170508384705	0.1833019256591797
48	141.10749197006226	response	0	2		46.0	2.5	/experiments/knapen_aot/oldvideos/S_pexels-roman-odintsov-8232443.mp4	0.0	207.26699900627136	
48	141.11549997329712	movie	1		195.0	46.0	2.5	/experiments/knapen_aot/oldvideos/S_pexels-roman-odintsov-8232443.mp4	0.0	207.27500700950623	2.508296012878418
48	143.62379598617554	fix_post	2		12.0	46.0	2.5	/experiments/knapen_aot/oldvideos/S_pexels-roman-odintsov-8232443.mp4	0.0	209.78330302238464	0.10106611251831055
49	143.72486209869385	fix_pre	0		217.0	47.0	2.5	/experiments/knapen_aot/oldvideos/R_S_yt-JGKdBO2Ldzo_93.mp4	0.0	209.88436913490295	1.8072729110717773
49	145.52396202087402	response	0	2		47.0	2.5	/experiments/knapen_aot/oldvideos/R_S_yt-JGKdBO2Ldzo_93.mp4	0.0	211.68346905708313	
49	145.53213500976562	movie	1		301.0	47.0	2.5	/experiments/knapen_aot/oldvideos/R_S_yt-JGKdBO2Ldzo_93.mp4	0.0	211.69164204597473	2.5083389282226562
49	148.04047393798828	fix_post	2		12.0	47.0	2.5	/experiments/knapen_aot/oldvideos/R_S_yt-JGKdBO2Ldzo_93.mp4	0.0	214.1999809741974	0.10003805160522461
50	148.1405119895935	fix_pre	0		89.0	48.0	2.5	blank	1.0	214.3000190258026	0.7415690422058105
50	148.87398099899292	response	0	2		48.0	2.5	blank	1.0	215.03348803520203	
50	148.88208103179932	movie	1		301.0	48.0	2.5	blank	1.0	215.04158806800842	2.5084428787231445
50	151.39052391052246	fix_post	2		12.0	48.0	2.5	blank	1.0	217.55003094673157	0.09998106956481934
51	151.49050498008728	fix_pre	0		38.0	49.0	2.5	/experiments/knapen_aot/oldvideos/R_S_pexels-kindel-media-8165572.mp4	0.0	217.6500120162964	0.3175480365753174
51	151.798898935318	response	0	2		49.0	2.5	/experiments/knapen_aot/oldvideos/R_S_pexels-kindel-media-8165572.mp4	0.0	217.9584059715271	
51	151.8080530166626	movie	1		168.0	49.0	2.5	/experiments/knapen_aot/oldvideos/R_S_pexels-kindel-media-8165572.mp4	0.0	217.9675600528717	2.5074479579925537
51	154.31550097465515	fix_post	2		12.0	49.0	2.5	/experiments/knapen_aot/oldvideos/R_S_pexels-kindel-media-8165572.mp4	0.0	220.47500801086426	0.09989714622497559
52	154.41539812088013	fix_pre	0		9.0	50.0	2.5	/experiments/knapen_aot/oldvideos/S_yt-s2PWkCdT-TM_258.mp4	0.0	220.57490515708923	0.07503795623779297
52	154.48226404190063	response	0	2		50.0	2.5	/experiments/knapen_aot/oldvideos/S_yt-s2PWkCdT-TM_258.mp4	0.0	220.64177107810974	
52	154.49043607711792	movie	1		301.0	50.0	2.5	/experiments/knapen_aot/oldvideos/S_yt-s2PWkCdT-TM_258.mp4	0.0	220.64994311332703	2.508312940597534
52	156.99874901771545	fix_post	2		12.0	50.0	2.5	/experiments/knapen_aot/oldvideos/S_yt-s2PWkCdT-TM_258.mp4	0.0	223.15825605392456	0.09998893737792969
53	157.09873795509338	fix_pre	0		225.0	51.0	2.5	/experiments/knapen_aot/oldvideos/S_yt-VJ65ukWmdxQ_193.mp4	0.0	223.2582449913025	1.8759469985961914
53	158.9655520915985	response	0	2		51.0	2.5	/experiments/knapen_aot/oldvideos/S_yt-VJ65ukWmdxQ_193.mp4	0.0	225.12505912780762	
53	158.97468495368958	movie	1		301.0	51.0	2.5	/experiments/knapen_aot/oldvideos/S_yt-VJ65ukWmdxQ_193.mp4	0.0	225.13419198989868	2.5073649883270264
53	161.4820499420166	fix_post	2		12.0	51.0	2.5	/experiments/knapen_aot/oldvideos/S_yt-VJ65ukWmdxQ_193.mp4	0.0	227.6415569782257	0.09997916221618652
54	161.5820291042328	fix_pre	0		48.0	52.0	2.5	/experiments/knapen_aot/oldvideos/R_S_g201_CA_A016_C002_SDR_20191114_SDR_2K_AVC.mp4	0.0	227.7415361404419	0.39993786811828613
54	161.97387290000916	response	0	2		52.0	2.5	/experiments/knapen_aot/oldvideos/R_S_g201_CA_A016_C002_SDR_20191114_SDR_2K_AVC.mp4	0.0	228.13337993621826	
54	161.98196697235107	movie	1		166.0	52.0	2.5	/experiments/knapen_aot/oldvideos/R_S_g201_CA_A016_C002_SDR_20191114_SDR_2K_AVC.mp4	0.0	228.14147400856018	2.5087029933929443
54	164.49066996574402	fix_post	2		12.0	52.0	2.5	/experiments/knapen_aot/oldvideos/R_S_g201_CA_A016_C002_SDR_20191114_SDR_2K_AVC.mp4	0.0	230.65017700195312	0.09973812103271484
55	164.59040808677673	fix_pre	0		34.0	53.0	2.5	/experiments/knapen_aot/oldvideos/R_S_dwi2oPzQ1Wo_48.mp4	0.0	230.74991512298584	0.28334498405456543
55	164.86558294296265	response	0	2		53.0	2.5	/experiments/knapen_aot/oldvideos/R_S_dwi2oPzQ1Wo_48.mp4	0.0	231.02508997917175	
55	164.8737530708313	movie	1		301.0	53.0	2.5	/experiments/knapen_aot/oldvideos/R_S_dwi2oPzQ1Wo_48.mp4	0.0	231.0332601070404	2.5083179473876953
55	167.382071018219	fix_post	2		12.0	53.0	2.5	/experiments/knapen_aot/oldvideos/R_S_dwi2oPzQ1Wo_48.mp4	0.0	233.5415780544281	0.0999760627746582
56	167.48204708099365	fix_pre	0		210.0	54.0	2.5	/experiments/knapen_aot/oldvideos/R_S_yt-2i53vKte7SA_117.mp4	0.0	233.64155411720276	1.7499990463256836
56	169.22379803657532	response	0	2		54.0	2.5	/experiments/knapen_aot/oldvideos/R_S_yt-2i53vKte7SA_117.mp4	0.0	235.38330507278442	
56	169.23204612731934	movie	1		301.0	54.0	2.5	/experiments/knapen_aot/oldvideos/R_S_yt-2i53vKte7SA_117.mp4	0.0	235.39155316352844	2.5083858966827393
56	171.74043202400208	fix_post	2		12.0	54.0	2.5	/experiments/knapen_aot/oldvideos/R_S_yt-2i53vKte7SA_117.mp4	0.0	237.89993906021118	0.10008597373962402
57	171.8405179977417	fix_pre	0		10.0	55.0	2.5	/experiments/knapen_aot/oldvideos/S_yt-25xuzTBhwPk_109.mp4	0.0	238.0000250339508	0.08316898345947266
57	171.91547107696533	response	0	2		55.0	2.5	/experiments/knapen_aot/oldvideos/S_yt-25xuzTBhwPk_109.mp4	0.0	238.07497811317444	
57	171.92368698120117	movie	1		301.0	55.0	2.5	/experiments/knapen_aot/oldvideos/S_yt-25xuzTBhwPk_109.mp4	0.0	238.08319401741028	2.508352041244507
57	174.43203902244568	fix_post	2		12.0	55.0	2.5	/experiments/knapen_aot/oldvideos/S_yt-25xuzTBhwPk_109.mp4	0.0	240.59154605865479	0.10005593299865723
58	174.53209495544434	fix_pre	0		43.0	56.0	2.5	blank	1.0	240.69160199165344	0.3590569496154785
58	174.88227009773254	response	0	2		56.0	2.5	blank	1.0	241.04177713394165	
58	174.89115190505981	movie	1		301.0	56.0	2.5	blank	1.0	241.05065894126892	2.507538080215454
58	177.39868998527527	fix_post	2		12.0	56.0	2.5	blank	1.0	243.55819702148438	0.09996700286865234
59	177.49865698814392	fix_pre	0		97.0	57.0	2.5	/experiments/knapen_aot/oldvideos/R_S_production_ID_4510622.mp4	0.0	243.65816402435303	0.8091020584106445
59	178.29125690460205	response	0	2		57.0	2.5	/experiments/knapen_aot/oldvideos/R_S_production_ID_4510622.mp4	0.0	244.45076394081116	
59	178.30775904655457	movie	1		168.0	57.0	2.5	/experiments/knapen_aot/oldvideos/R_S_production_ID_4510622.mp4	0.0	244.46726608276367	2.5076210498809814
59	180.81538009643555	fix_post	2		12.0	57.0	2.5	/experiments/knapen_aot/oldvideos/R_S_production_ID_4510622.mp4	0.0	246.97488713264465	0.09996199607849121
60	180.91534209251404	fix_pre	0		9.0	58.0	2.5	/experiments/knapen_aot/oldvideos/S_yt-wPXrAuiiRZg_1062.mp4	0.0	247.07484912872314	0.07494783401489258
60	180.98205709457397	response	0	2		58.0	2.5	/experiments/knapen_aot/oldvideos/S_yt-wPXrAuiiRZg_1062.mp4	0.0	247.14156413078308	
60	180.99028992652893	movie	1		301.0	58.0	2.5	/experiments/knapen_aot/oldvideos/S_yt-wPXrAuiiRZg_1062.mp4	0.0	247.14979696273804	2.508355140686035
60	183.49864506721497	fix_post	2		12.0	58.0	2.5	/experiments/knapen_aot/oldvideos/S_yt-wPXrAuiiRZg_1062.mp4	0.0	249.65815210342407	0.1000368595123291
61	183.5986819267273	fix_pre	0		31.0	59.0	2.5	/experiments/knapen_aot/oldvideos/R_S_yt-uWeU2s6JYyk_10.mp4	0.0	249.7581889629364	0.25839996337890625
61	183.84875297546387	response	0	2		59.0	2.5	/experiments/knapen_aot/oldvideos/R_S_yt-uWeU2s6JYyk_10.mp4	0.0	250.00826001167297	
61	183.8570818901062	movie	1		301.0	59.0	2.5	/experiments/knapen_aot/oldvideos/R_S_yt-uWeU2s6JYyk_10.mp4	0.0	250.0165889263153	2.5082712173461914
61	186.3653531074524	fix_post	2		12.0	59.0	2.5	/experiments/knapen_aot/oldvideos/R_S_yt-uWeU2s6JYyk_10.mp4	0.0	252.5248601436615	0.10018396377563477
62	186.46553707122803	fix_pre	0		242.0	60.0	2.5	/experiments/knapen_aot/oldvideos/S_yt-YyKEeu2gLrI_158.mp4	0.0	252.62504410743713	2.0164170265197754
62	188.46620893478394	response	0	2		60.0	2.5	/experiments/knapen_aot/oldvideos/S_yt-YyKEeu2gLrI_158.mp4	0.0	254.62571597099304	
62	188.4819540977478	movie	1		301.0	60.0	2.5	/experiments/knapen_aot/oldvideos/S_yt-YyKEeu2gLrI_158.mp4	0.0	254.6414611339569	2.5083978176116943
62	190.9903519153595	fix_post	2		12.0	60.0	2.5	/experiments/knapen_aot/oldvideos/S_yt-YyKEeu2gLrI_158.mp4	0.0	257.1498589515686	0.1000051498413086
63	191.0903570652008	fix_pre	0		8.0	61.0	2.5	/experiments/knapen_aot/oldvideos/S_wc-AyT9mzwZsu0T_14.mp4	0.0	257.2498641014099	0.06661605834960938
63	191.14878392219543	response	0	2		61.0	2.5	/experiments/knapen_aot/oldvideos/S_wc-AyT9mzwZsu0T_14.mp4	0.0	257.30829095840454	
63	191.15697312355042	movie	1		178.0	61.0	2.5	/experiments/knapen_aot/oldvideos/S_wc-AyT9mzwZsu0T_14.mp4	0.0	257.3164801597595	2.5082287788391113
63	193.66520190238953	fix_post	2		12.0	61.0	2.5	/experiments/knapen_aot/oldvideos/S_wc-AyT9mzwZsu0T_14.mp4	0.0	259.82470893859863	0.10007810592651367
64	193.76528000831604	fix_pre	0		15.0	62.0	2.5	blank	1.0	259.92478704452515	0.12574100494384766
64	193.88200998306274	response	0	2		62.0	2.5	blank	1.0	260.04151701927185	
64	193.8910210132599	movie	1		301.0	62.0	2.5	blank	1.0	260.050528049469	2.5076050758361816
64	196.39862608909607	fix_post	2		12.0	62.0	2.5	blank	1.0	262.5581331253052	0.10018396377563477
65	196.4988100528717	fix_pre	0		351.0	63.0	2.5	/experiments/knapen_aot/oldvideos/S_comp_LA_A006_C004_v01_SDR_FINAL_PS_20180730_SDR_2K_AVC.mp4	0.0	262.6583170890808	2.924682855606079
65	199.41533303260803	response	0	2		63.0	2.5	/experiments/knapen_aot/oldvideos/S_comp_LA_A006_C004_v01_SDR_FINAL_PS_20180730_SDR_2K_AVC.mp4	0.0	265.57484006881714	
65	199.42349290847778	movie	1		166.0	63.0	2.5	/experiments/knapen_aot/oldvideos/S_comp_LA_A006_C004_v01_SDR_FINAL_PS_20180730_SDR_2K_AVC.mp4	0.0	265.5829999446869	2.508463144302368
65	201.93195605278015	fix_post	2		12.0	63.0	2.5	/experiments/knapen_aot/oldvideos/S_comp_LA_A006_C004_v01_SDR_FINAL_PS_20180730_SDR_2K_AVC.mp4	0.0	268.09146308898926	0.09997105598449707
66	202.03192710876465	fix_pre	0		24.0	64.0	2.5	/experiments/knapen_aot/oldvideos/S_yt-WpLgDX6Yw_s_20.mp4	0.0	268.19143414497375	0.19999980926513672
66	202.2236831188202	response	0	2		64.0	2.5	/experiments/knapen_aot/oldvideos/S_yt-WpLgDX6Yw_s_20.mp4	0.0	268.3831901550293	
66	202.23192691802979	movie	1		301.0	64.0	2.5	/experiments/knapen_aot/oldvideos/S_yt-WpLgDX6Yw_s_20.mp4	0.0	268.3914339542389	2.5084400177001953
66	204.74036693572998	fix_post	2		12.0	64.0	2.5	/experiments/knapen_aot/oldvideos/S_yt-WpLgDX6Yw_s_20.mp4	0.0	270.8998739719391	0.09992408752441406
67	204.8402910232544	fix_pre	0		32.0	65.0	2.5	/experiments/knapen_aot/oldvideos/R_S_FK_U009_C004_SDR_20191220_SDR_2K_AVC.mp4	0.0	270.9997980594635	0.2666029930114746
67	205.0986249446869	response	0	2		65.0	2.5	/experiments/knapen_aot/oldvideos/R_S_FK_U009_C004_SDR_20191220_SDR_2K_AVC.mp4	0.0	271.258131980896	
67	205.10689401626587	movie	1		163.0	65.0	2.5	/experiments/knapen_aot/oldvideos/R_S_FK_U009_C004_SDR_20191220_SDR_2K_AVC.mp4	0.0	271.266401052475	2.508378028869629
67	207.6152720451355	fix_post	2		12.0	65.0	2.5	/experiments/knapen_aot/oldvideos/R_S_FK_U009_C004_SDR_20191220_SDR_2K_AVC.mp4	0.0	273.7747790813446	0.0999760627746582
68	207.71524810791016	fix_pre	0		34.0	66.0	2.5	/experiments/knapen_aot/oldvideos/S_ILSVRC2015_train_00292006.mp4	0.0	273.87475514411926	0.28325891494750977
68	207.99034905433655	response	0	2		66.0	2.5	/experiments/knapen_aot/oldvideos/S_ILSVRC2015_train_00292006.mp4	0.0	274.14985609054565	
68	207.99850702285767	movie	1		301.0	66.0	2.5	/experiments/knapen_aot/oldvideos/S_ILSVRC2015_train_00292006.mp4	0.0	274.1580140590668	2.5083649158477783
68	210.50687193870544	fix_post	2		12.0	66.0	2.5	/experiments/knapen_aot/oldvideos/S_ILSVRC2015_train_00292006.mp4	0.0	276.66637897491455	0.10004401206970215
69	210.60691595077515	fix_pre	0		18.0	67.0	2.5	/experiments/knapen_aot/oldvideos/R_S_yt-npaE4fe6A6Y_26.mp4	0.0	276.76642298698425	0.14999103546142578
69	210.74869298934937	response	0	2		67.0	2.5	/experiments/knapen_aot/oldvideos/R_S_yt-npaE4fe6A6Y_26.mp4	0.0	276.9082000255585	
69	210.75690698623657	movie	1		301.0	67.0	2.5	/experiments/knapen_aot/oldvideos/R_S_yt-npaE4fe6A6Y_26.mp4	0.0	276.9164140224457	2.50839900970459
69	213.26530599594116	fix_post	2		12.0	67.0	2.5	/experiments/knapen_aot/oldvideos/R_S_yt-npaE4fe6A6Y_26.mp4	0.0	279.42481303215027	0.09996390342712402
70	213.3652698993683	fix_pre	0		12.0	68.0	2.5	blank	1.0	279.5247769355774	0.09998822212219238
70	213.45696997642517	response	0	2		68.0	2.5	blank	1.0	279.6164770126343	
70	213.46525812149048	movie	1		301.0	68.0	2.5	blank	1.0	279.6247651576996	2.5083069801330566
70	215.97356510162354	fix_post	2		12.0	68.0	2.5	blank	1.0	282.13307213783264	0.10004782676696777
71	216.0736129283905	fix_pre	0		43.0	69.0	2.5	/experiments/knapen_aot/oldvideos/S_production_ID_3967181.mp4	0.0	282.2331199645996	0.35878801345825195
71	216.42361092567444	response	0	2		69.0	2.5	/experiments/knapen_aot/oldvideos/S_production_ID_3967181.mp4	0.0	282.58311796188354	
71	216.43240094184875	movie	1		182.0	69.0	2.5	/experiments/knapen_aot/oldvideos/S_production_ID_3967181.mp4	0.0	282.59190797805786	2.5078821182250977
71	218.94028306007385	fix_post	2		12.0	69.0	2.5	/experiments/knapen_aot/oldvideos/S_production_ID_3967181.mp4	0.0	285.09979009628296	0.09994006156921387
72	219.04022312164307	fix_pre	0		49.0	70.0	2.5	/experiments/knapen_aot/oldvideos/S_yt_R-SwXr0ScjD9o_20.mp4	0.0	285.1997301578522	0.4082639217376709
72	219.44035291671753	response	0	2		70.0	2.5	/experiments/knapen_aot/oldvideos/S_yt_R-SwXr0ScjD9o_20.mp4	0.0	285.59985995292664	
72	219.44848704338074	movie	1		301.0	70.0	2.5	/experiments/knapen_aot/oldvideos/S_yt_R-SwXr0ScjD9o_20.mp4	0.0	285.60799407958984	2.5083658695220947
72	221.95685291290283	fix_post	2		12.0	70.0	2.5	/experiments/knapen_aot/oldvideos/S_yt_R-SwXr0ScjD9o_20.mp4	0.0	288.11635994911194	0.10002708435058594
73	222.05687999725342	fix_pre	0		24.0	71.0	2.5	/experiments/knapen_aot/oldvideos/S_yt-lADkWM79teI_18.mp4	0.0	288.2163870334625	0.19994306564331055
73	222.24861192703247	response	0	2		71.0	2.5	/experiments/knapen_aot/oldvideos/S_yt-lADkWM79teI_18.mp4	0.0	288.4081189632416	
73	222.25682306289673	movie	1		301.0	71.0	2.5	/experiments/knapen_aot/oldvideos/S_yt-lADkWM79teI_18.mp4	0.0	288.41633009910583	2.5083489418029785
73	224.7651720046997	fix_post	2		12.0	71.0	2.5	/experiments/knapen_aot/oldvideos/S_yt-lADkWM79teI_18.mp4	0.0	290.9246790409088	0.10006403923034668
74	224.86523604393005	fix_pre	0		26.0	72.0	2.5	/experiments/knapen_aot/oldvideos/R_S_yt-bD1U6bo-6bE_465.mp4	0.0	291.02474308013916	0.2167198657989502
74	225.07363104820251	response	0	2		72.0	2.5	/experiments/knapen_aot/oldvideos/R_S_yt-bD1U6bo-6bE_465.mp4	0.0	291.2331380844116	
74	225.081955909729	movie	1		301.0	72.0	2.5	/experiments/knapen_aot/oldvideos/R_S_yt-bD1U6bo-6bE_465.mp4	0.0	291.2414629459381	2.508190155029297
74	227.5901460647583	fix_post	2		12.0	72.0	2.5	/experiments/knapen_aot/oldvideos/R_S_yt-bD1U6bo-6bE_465.mp4	0.0	293.7496531009674	0.09997296333312988
75	227.69011902809143	fix_pre	0		42.0	73.0	2.5	/experiments/knapen_aot/oldvideos/S_pexels-mart-production-8435081.mp4	0.0	293.84962606430054	0.3533339500427246
75	228.03193497657776	response	0	2		73.0	2.5	/experiments/knapen_aot/oldvideos/S_pexels-mart-production-8435081.mp4	0.0	294.19144201278687	
75	228.04345297813416	movie	1		200.0	73.0	2.5	/experiments/knapen_aot/oldvideos/S_pexels-mart-production-8435081.mp4	0.0	294.20296001434326	2.5050370693206787
75	230.54849004745483	fix_post	2		12.0	73.0	2.5	/experiments/knapen_aot/oldvideos/S_pexels-mart-production-8435081.mp4	0.0	296.70799708366394	0.10002803802490234
76	230.64851808547974	fix_pre	0		10.0	74.0	2.5	/experiments/knapen_aot/oldvideos/R_S_comp_HK_H004_C010_PSNK_v08_SDR_PS_20181009_SDR_2K_AVC.mp4	0.0	296.80802512168884	0.08324790000915527
76	230.72363996505737	response	0	2		74.0	2.5	/experiments/knapen_aot/oldvideos/R_S_comp_HK_H004_C010_PSNK_v08_SDR_PS_20181009_SDR_2K_AVC.mp4	0.0	296.8831470012665	
76	230.7317659854889	movie	1		170.0	74.0	2.5	/experiments/knapen_aot/oldvideos/R_S_comp_HK_H004_C010_PSNK_v08_SDR_PS_20181009_SDR_2K_AVC.mp4	0.0	296.891273021698	2.5087380409240723
76	233.24050402641296	fix_post	2		12.0	74.0	2.5	/experiments/knapen_aot/oldvideos/R_S_comp_HK_H004_C010_PSNK_v08_SDR_PS_20181009_SDR_2K_AVC.mp4	0.0	299.40001106262207	0.09962606430053711
77	233.3401300907135	fix_pre	0		11.0	75.0	2.5	/experiments/knapen_aot/oldvideos/S_ILSVRC2015_train_00556000.mp4	0.0	299.4996371269226	0.09253597259521484
77	233.42358112335205	response	0	2		75.0	2.5	/experiments/knapen_aot/oldvideos/S_ILSVRC2015_train_00556000.mp4	0.0	299.58308815956116	
77	233.43266606330872	movie	1		301.0	75.0	2.5	/experiments/knapen_aot/oldvideos/S_ILSVRC2015_train_00556000.mp4	0.0	299.5921730995178	2.5074338912963867
77	235.9400999546051	fix_post	2		12.0	75.0	2.5	/experiments/knapen_aot/oldvideos/S_ILSVRC2015_train_00556000.mp4	0.0	302.0996069908142	0.10001897811889648
78	236.040118932724	fix_pre	0		61.0	76.0	2.5	blank	1.0	302.1996259689331	0.5082709789276123
78	236.54019689559937	response	0	2		76.0	2.5	blank	1.0	302.6997039318085	
78	236.5483899116516	movie	1		301.0	76.0	2.5	blank	1.0	302.7078969478607	2.50839900970459
78	239.0567889213562	fix_post	2		12.0	76.0	2.5	blank	1.0	305.2162959575653	0.10001707077026367
79	239.15680599212646	fix_pre	0		30.0	77.0	2.5	/experiments/knapen_aot/oldvideos/S_yt-fymgyhmYnMI_76.mp4	0.0	305.31631302833557	0.24997901916503906
79	239.39850401878357	response	0	2		77.0	2.5	/experiments/knapen_aot/oldvideos/S_yt-fymgyhmYnMI_76.mp4	0.0	305.5580110549927	
79	239.4067850112915	movie	1		301.0	77.0	2.5	/experiments/knapen_aot/oldvideos/S_yt-fymgyhmYnMI_76.mp4	0.0	305.5662920475006	2.508272886276245
79	241.91505789756775	fix_post	2		12.0	77.0	2.5	/experiments/knapen_aot/oldvideos/S_yt-fymgyhmYnMI_76.mp4	0.0	308.07456493377686	0.10044622421264648
80	242.0155041217804	fix_pre	0		33.0	78.0	2.5	/experiments/knapen_aot/oldvideos/S_ILSVRC2015_train_00632002.mp4	0.0	308.1750111579895	0.27448391914367676
80	242.28181099891663	response	0	2		78.0	2.5	/experiments/knapen_aot/oldvideos/S_ILSVRC2015_train_00632002.mp4	0.0	308.44131803512573	
80	242.28998804092407	movie	1		301.0	78.0	2.5	/experiments/knapen_aot/oldvideos/S_ILSVRC2015_train_00632002.mp4	0.0	308.4494950771332	2.508928060531616
80	244.7989161014557	fix_post	2		12.0	78.0	2.5	/experiments/knapen_aot/oldvideos/S_ILSVRC2015_train_00632002.mp4	0.0	310.9584231376648	0.09946489334106445
81	244.89838099479675	fix_pre	0		374.0	79.0	2.5	/experiments/knapen_aot/oldvideos/S_yt-Xegmd8whqBs_230.mp4	0.0	311.05788803100586	3.117029905319214
81	248.00678396224976	response	0	2		79.0	2.5	/experiments/knapen_aot/oldvideos/S_yt-Xegmd8whqBs_230.mp4	0.0	314.16629099845886	
81	248.01541090011597	movie	1		301.0	79.0	2.5	/experiments/knapen_aot/oldvideos/S_yt-Xegmd8whqBs_230.mp4	0.0	314.1749179363251	2.507894992828369
81	250.52330589294434	fix_post	2		12.0	79.0	2.5	/experiments/knapen_aot/oldvideos/S_yt-Xegmd8whqBs_230.mp4	0.0	316.68281292915344	0.10005307197570801
82	250.62335896492004	fix_pre	0		29.0	80.0	2.5	/experiments/knapen_aot/oldvideos/S_yt-rlVzHENWufE_61.mp4	0.0	316.78286600112915	0.2416520118713379
82	250.84922695159912	response	0	2		80.0	2.5	/experiments/knapen_aot/oldvideos/S_yt-rlVzHENWufE_61.mp4	0.0	317.0087339878082	
82	250.86501097679138	movie	1		301.0	80.0	2.5	/experiments/knapen_aot/oldvideos/S_yt-rlVzHENWufE_61.mp4	0.0	317.0245180130005	2.5083250999450684
82	253.37333607673645	fix_post	2		12.0	80.0	2.5	/experiments/knapen_aot/oldvideos/S_yt-rlVzHENWufE_61.mp4	0.0	319.53284311294556	0.09996891021728516
83	253.47330498695374	fix_pre	0		46.0	81.0	2.5	/experiments/knapen_aot/oldvideos/S_yt-xWCPbUQc-vg_7.mp4	0.0	319.63281202316284	0.3832831382751465
83	253.84846210479736	response	0	2		81.0	2.5	/experiments/knapen_aot/oldvideos/S_yt-xWCPbUQc-vg_7.mp4	0.0	320.00796914100647	
83	253.85658812522888	movie	1		301.0	81.0	2.5	/experiments/knapen_aot/oldvideos/S_yt-xWCPbUQc-vg_7.mp4	0.0	320.016095161438	2.508469820022583
83	256.36505794525146	fix_post	2		12.0	81.0	2.5	/experiments/knapen_aot/oldvideos/S_yt-xWCPbUQc-vg_7.mp4	0.0	322.52456498146057	0.09998202323913574
84	256.4650399684906	fix_pre	0		36.0	82.0	2.5	blank	1.0	322.6245470046997	0.30046606063842773
84	256.7568008899689	response	0	2		82.0	2.5	blank	1.0	322.916307926178	
84	256.765506029129	movie	1		301.0	82.0	2.5	blank	1.0	322.92501306533813	2.5078649520874023
84	259.27337098121643	fix_post	2		12.0	82.0	2.5	blank	1.0	325.43287801742554	0.09997892379760742
85	259.37334990501404	fix_pre	0		66.0	83.0	2.5	/experiments/knapen_aot/oldvideos/R_S_yt-wPXrAuiiRZg_1062.mp4	0.0	325.53285694122314	0.5499451160430908
85	259.9151201248169	response	0	2		83.0	2.5	/experiments/knapen_aot/oldvideos/R_S_yt-wPXrAuiiRZg_1062.mp4	0.0	326.074627161026	
85	259.92329502105713	movie	1		301.0	83.0	2.5	/experiments/knapen_aot/oldvideos/R_S_yt-wPXrAuiiRZg_1062.mp4	0.0	326.08280205726624	2.508380889892578
85	262.4316759109497	fix_post	2		12.0	83.0	2.5	/experiments/knapen_aot/oldvideos/R_S_yt-wPXrAuiiRZg_1062.mp4	0.0	328.5911829471588	0.09998011589050293
87	262.5316560268402	stim	0		569.0					328.6911630630493	4.741520881652832
87	262.74842500686646	response	0	2						328.90793204307556	
87	266.4947741031647	response	0	ralt						332.6542811393738	
87	267.2650320529938	response	0	space						333.4245390892029	
