trial_nr	onset	event_type	phase	response	nr_frames	movie_index	movie_duration	movie_file	blank	onset_abs	duration
0	0.12480807304382324	stim	0		378.0					92.80185794830322	3.14957594871521
0	3.2661831378936768	response	0	space						95.94323301315308	
1	3.274384021759033	stim	0		121.0					95.95143389701843	1.0083370208740234
1	4.282721042633057	stim	1		120.0					96.95977091789246	0.9999229907989502
2	5.282644033432007	fix_pre	0		99.0	0.0	2.5	/experiments/knapen_aot/videos/R_S_yt-mJzkLd3Mr_c_35.mp4	0.0	97.9596939086914	0.8347170352935791
2	6.103448152542114	response	0	2		0.0	2.5	/experiments/knapen_aot/videos/R_S_yt-mJzkLd3Mr_c_35.mp4	0.0	98.78049802780151	
2	6.117361068725586	movie	1		297.0	0.0	2.5	/experiments/knapen_aot/videos/R_S_yt-mJzkLd3Mr_c_35.mp4	0.0	98.79441094398499	2.4986820220947266
2	8.616043090820312	fix_post	2		12.0	0.0	2.5	/experiments/knapen_aot/videos/R_S_yt-mJzkLd3Mr_c_35.mp4	0.0	101.29309296607971	0.10006403923034668
3	8.71610713005066	fix_pre	0		115.0	1.0	2.5	/experiments/knapen_aot/videos/S_ILSVRC2015_train_00251005.mp4	0.0	101.39315700531006	0.9583039283752441
3	9.666243076324463	response	0	2		1.0	2.5	/experiments/knapen_aot/videos/S_ILSVRC2015_train_00251005.mp4	0.0	102.34329295158386	
3	9.674411058425903	movie	1		301.0	1.0	2.5	/experiments/knapen_aot/videos/S_ILSVRC2015_train_00251005.mp4	0.0	102.3514609336853	2.508470058441162
3	12.182881116867065	fix_post	2		12.0	1.0	2.5	/experiments/knapen_aot/videos/S_ILSVRC2015_train_00251005.mp4	0.0	104.85993099212646	0.09987688064575195
4	12.282757997512817	fix_pre	0		75.0	2.0	2.5	/experiments/knapen_aot/videos/S_yt-ak01CHYgEOs_1383.mp4	0.0	104.95980787277222	0.6261990070343018
4	12.899533033370972	response	0	2		2.0	2.5	/experiments/knapen_aot/videos/S_yt-ak01CHYgEOs_1383.mp4	0.0	105.57658290863037	
4	12.90895700454712	movie	1		298.0	2.0	2.5	/experiments/knapen_aot/videos/S_yt-ak01CHYgEOs_1383.mp4	0.0	105.58600687980652	2.507127046585083
4	15.416084051132202	fix_post	2		12.0	2.0	2.5	/experiments/knapen_aot/videos/S_yt-ak01CHYgEOs_1383.mp4	0.0	108.0931339263916	0.0999760627746582
5	15.51606011390686	fix_pre	0		143.0	3.0	2.5	/experiments/knapen_aot/videos/S_yt-5fnd__rpWeE_396.mp4	0.0	108.19310998916626	1.1916508674621582
5	16.699542999267578	response	0	2		3.0	2.5	/experiments/knapen_aot/videos/S_yt-5fnd__rpWeE_396.mp4	0.0	109.37659287452698	
5	16.70771098136902	movie	1		301.0	3.0	2.5	/experiments/knapen_aot/videos/S_yt-5fnd__rpWeE_396.mp4	0.0	109.38476085662842	2.5083751678466797
5	19.2160861492157	fix_post	2		12.0	3.0	2.5	/experiments/knapen_aot/videos/S_yt-5fnd__rpWeE_396.mp4	0.0	111.8931360244751	0.09989786148071289
6	19.31598401069641	fix_pre	0		162.0	4.0	2.5	/experiments/knapen_aot/videos/R_S_yt-V35ubrbe8gA_86.mp4	0.0	111.99303388595581	1.3500239849090576
6	20.657850980758667	response	0	2		4.0	2.5	/experiments/knapen_aot/videos/R_S_yt-V35ubrbe8gA_86.mp4	0.0	113.33490085601807	
6	20.66600799560547	movie	1		301.0	4.0	2.5	/experiments/knapen_aot/videos/R_S_yt-V35ubrbe8gA_86.mp4	0.0	113.34305787086487	2.5083799362182617
6	23.17438793182373	fix_post	2		12.0	4.0	2.5	/experiments/knapen_aot/videos/R_S_yt-V35ubrbe8gA_86.mp4	0.0	115.85143780708313	0.0999751091003418
7	23.274363040924072	fix_pre	0		19.0	5.0	2.5	/experiments/knapen_aot/videos/R_S_comp_A108_C001_v09_SDR_FINAL_22062018_SDR_2K_AVC.mp4	0.0	115.95141291618347	0.15828895568847656
7	23.424524068832397	response	0	2		5.0	2.5	/experiments/knapen_aot/videos/R_S_comp_A108_C001_v09_SDR_FINAL_22062018_SDR_2K_AVC.mp4	0.0	116.1015739440918	
7	23.43265199661255	movie	1		167.0	5.0	2.5	/experiments/knapen_aot/videos/R_S_comp_A108_C001_v09_SDR_FINAL_22062018_SDR_2K_AVC.mp4	0.0	116.10970187187195	2.508358955383301
7	25.94101095199585	fix_post	2		12.0	5.0	2.5	/experiments/knapen_aot/videos/R_S_comp_A108_C001_v09_SDR_FINAL_22062018_SDR_2K_AVC.mp4	0.0	118.61806082725525	0.10001015663146973
8	26.04102110862732	fix_pre	0		30.0	6.0	2.5	/experiments/knapen_aot/videos/R_S_EFR8AteY59I_15.mp4	0.0	118.71807098388672	0.24994802474975586
8	26.282850980758667	response	0	2		6.0	2.5	/experiments/knapen_aot/videos/R_S_EFR8AteY59I_15.mp4	0.0	118.95990085601807	
8	26.290969133377075	movie	1		301.0	6.0	2.5	/experiments/knapen_aot/videos/R_S_EFR8AteY59I_15.mp4	0.0	118.96801900863647	2.5083699226379395
8	28.799339056015015	fix_post	2		12.0	6.0	2.5	/experiments/knapen_aot/videos/R_S_EFR8AteY59I_15.mp4	0.0	121.47638893127441	0.10002589225769043
9	28.899364948272705	fix_pre	0		111.0	7.0	2.5	blank	1.0	121.5764148235321	0.9249839782714844
9	29.816144943237305	response	0	2		7.0	2.5	blank	1.0	122.4931948184967	
9	29.82434892654419	movie	1		301.0	7.0	2.5	blank	1.0	122.50139880180359	2.508319139480591
9	32.33266806602478	fix_post	2		12.0	7.0	2.5	blank	1.0	125.00971794128418	0.10000801086425781
10	32.43267607688904	fix_pre	0		1.0	8.0	2.5	/experiments/knapen_aot/videos/S_yt-5rC42egLl5E_387.mp4	0.0	125.10972595214844	0.011245965957641602
10	32.43428897857666	response	0	2		8.0	2.5	/experiments/knapen_aot/videos/S_yt-5rC42egLl5E_387.mp4	0.0	125.11133885383606	
10	32.44392204284668	movie	1		301.0	8.0	2.5	/experiments/knapen_aot/videos/S_yt-5rC42egLl5E_387.mp4	0.0	125.12097191810608	2.5053179264068604
10	34.94923996925354	fix_post	2		12.0	8.0	2.5	/experiments/knapen_aot/videos/S_yt-5rC42egLl5E_387.mp4	0.0	127.62628984451294	0.09998011589050293
11	35.04922008514404	fix_pre	0		73.0	9.0	2.5	/experiments/knapen_aot/videos/S_yt-zgkJCgcT1s4_300.mp4	0.0	127.72626996040344	0.6094930171966553
11	35.64937996864319	response	0	2		9.0	2.5	/experiments/knapen_aot/videos/S_yt-zgkJCgcT1s4_300.mp4	0.0	128.3264298439026	
11	35.6587131023407	movie	1		301.0	9.0	2.5	/experiments/knapen_aot/videos/S_yt-zgkJCgcT1s4_300.mp4	0.0	128.3357629776001	2.50718092918396
11	38.16589403152466	fix_post	2		12.0	9.0	2.5	/experiments/knapen_aot/videos/S_yt-zgkJCgcT1s4_300.mp4	0.0	130.84294390678406	0.10006999969482422
12	38.26596403121948	fix_pre	0		142.0	10.0	2.5	/experiments/knapen_aot/videos/S_ILSVRC2015_train_00515000.mp4	0.0	130.94301390647888	1.1843910217285156
12	39.44111204147339	response	0	2		10.0	2.5	/experiments/knapen_aot/videos/S_ILSVRC2015_train_00515000.mp4	0.0	132.1181619167328	
12	39.450355052948	movie	1		301.0	10.0	2.5	/experiments/knapen_aot/videos/S_ILSVRC2015_train_00515000.mp4	0.0	132.1274049282074	2.5071909427642822
12	41.95754599571228	fix_post	2		12.0	10.0	2.5	/experiments/knapen_aot/videos/S_ILSVRC2015_train_00515000.mp4	0.0	134.63459587097168	0.10005593299865723
13	42.05760192871094	fix_pre	0		98.0	11.0	2.5	/experiments/knapen_aot/videos/R_S_comp_L004_C011_PS_v01_SDR_PS_20180925_SDR_2K_AVC.mp4	0.0	134.73465180397034	0.8165841102600098
13	42.86602711677551	response	0	2		11.0	2.5	/experiments/knapen_aot/videos/R_S_comp_L004_C011_PS_v01_SDR_PS_20180925_SDR_2K_AVC.mp4	0.0	135.5430769920349	
13	42.87418603897095	movie	1		164.0	11.0	2.5	/experiments/knapen_aot/videos/R_S_comp_L004_C011_PS_v01_SDR_PS_20180925_SDR_2K_AVC.mp4	0.0	135.55123591423035	2.508413076400757
13	45.382599115371704	fix_post	2		12.0	11.0	2.5	/experiments/knapen_aot/videos/R_S_comp_L004_C011_PS_v01_SDR_PS_20180925_SDR_2K_AVC.mp4	0.0	138.0596489906311	0.09998297691345215
14	45.482582092285156	fix_pre	0		40.0	12.0	2.5	blank	1.0	138.15963196754456	0.3333249092102051
14	45.800190925598145	response	0	2		12.0	2.5	blank	1.0	138.47724080085754	
14	45.81590700149536	movie	1		301.0	12.0	2.5	blank	1.0	138.49295687675476	2.508362054824829
14	47.04946708679199	response	1	2		12.0	2.5	blank	1.0	139.7265169620514	
14	48.32426905632019	fix_post	2		12.0	12.0	2.5	blank	1.0	141.0013189315796	0.10003900527954102
15	48.42430806159973	fix_pre	0		121.0	13.0	2.5	/experiments/knapen_aot/videos/S_pexels-diva-plavalaguna-6985395_1.mp4	0.0	141.10135793685913	1.008202075958252
15	49.42436504364014	response	0	2		13.0	2.5	/experiments/knapen_aot/videos/S_pexels-diva-plavalaguna-6985395_1.mp4	0.0	142.10141491889954	
15	49.43251013755798	movie	1		165.0	13.0	2.5	/experiments/knapen_aot/videos/S_pexels-diva-plavalaguna-6985395_1.mp4	0.0	142.10956001281738	2.508327007293701
15	51.940837144851685	fix_post	2		12.0	13.0	2.5	/experiments/knapen_aot/videos/S_pexels-diva-plavalaguna-6985395_1.mp4	0.0	144.61788702011108	0.10005784034729004
16	52.040894985198975	fix_pre	0		124.0	14.0	2.5	/experiments/knapen_aot/videos/R_S_yt--a-d97T4Gak_75.mp4	0.0	144.71794486045837	1.0343129634857178
16	53.06604313850403	response	0	2		14.0	2.5	/experiments/knapen_aot/videos/R_S_yt--a-d97T4Gak_75.mp4	0.0	145.74309301376343	
16	53.07520794868469	movie	1		301.0	14.0	2.5	/experiments/knapen_aot/videos/R_S_yt--a-d97T4Gak_75.mp4	0.0	145.7522578239441	2.507270097732544
16	55.582478046417236	fix_post	2		12.0	14.0	2.5	/experiments/knapen_aot/videos/R_S_yt--a-d97T4Gak_75.mp4	0.0	148.25952792167664	0.10001897811889648
17	55.68249702453613	fix_pre	0		60.0	15.0	2.5	/experiments/knapen_aot/videos/S_yt-1ruRqcfBMw0_21.mp4	0.0	148.35954689979553	0.5000040531158447
17	56.17431998252869	response	0	2		15.0	2.5	/experiments/knapen_aot/videos/S_yt-1ruRqcfBMw0_21.mp4	0.0	148.8513698577881	
17	56.18250107765198	movie	1		301.0	15.0	2.5	/experiments/knapen_aot/videos/S_yt-1ruRqcfBMw0_21.mp4	0.0	148.85955095291138	2.5084099769592285
17	58.690911054611206	fix_post	2		12.0	15.0	2.5	/experiments/knapen_aot/videos/S_yt-1ruRqcfBMw0_21.mp4	0.0	151.3679609298706	0.0999140739440918
18	58.7908251285553	fix_pre	0		59.0	16.0	2.5	/experiments/knapen_aot/videos/R_S_ILSVRC2015_train_00292005.mp4	0.0	151.4678750038147	0.49265599250793457
18	59.26682710647583	response	0	2		16.0	2.5	/experiments/knapen_aot/videos/R_S_ILSVRC2015_train_00292005.mp4	0.0	151.94387698173523	
18	59.28348112106323	movie	1		301.0	16.0	2.5	/experiments/knapen_aot/videos/R_S_ILSVRC2015_train_00292005.mp4	0.0	151.96053099632263	2.5072689056396484
18	61.79075002670288	fix_post	2		12.0	16.0	2.5	/experiments/knapen_aot/videos/R_S_ILSVRC2015_train_00292005.mp4	0.0	154.46779990196228	0.1000680923461914
19	61.89081811904907	fix_pre	0		56.0	17.0	2.5	/experiments/knapen_aot/videos/R_S_pexels-tima-miroshnichenko-6077718.mp4	0.0	154.56786799430847	0.46665191650390625
19	62.349262952804565	response	0	2		17.0	2.5	/experiments/knapen_aot/videos/R_S_pexels-tima-miroshnichenko-6077718.mp4	0.0	155.02631282806396	
19	62.35747003555298	movie	1		163.0	17.0	2.5	/experiments/knapen_aot/videos/R_S_pexels-tima-miroshnichenko-6077718.mp4	0.0	155.03451991081238	2.5083680152893066
19	64.86583805084229	fix_post	2		12.0	17.0	2.5	/experiments/knapen_aot/videos/R_S_pexels-tima-miroshnichenko-6077718.mp4	0.0	157.54288792610168	0.09995102882385254
20	64.96578907966614	fix_pre	0		43.0	18.0	2.5	/experiments/knapen_aot/videos/R_S_ILSVRC2015_train_00303008.mp4	0.0	157.64283895492554	0.3592848777770996
20	65.31591296195984	response	0	2		18.0	2.5	/experiments/knapen_aot/videos/R_S_ILSVRC2015_train_00303008.mp4	0.0	157.99296283721924	
20	65.32507395744324	movie	1		301.0	18.0	2.5	/experiments/knapen_aot/videos/R_S_ILSVRC2015_train_00303008.mp4	0.0	158.00212383270264	2.507369041442871
20	67.83244299888611	fix_post	2		12.0	18.0	2.5	/experiments/knapen_aot/videos/R_S_ILSVRC2015_train_00303008.mp4	0.0	160.5094928741455	0.10001897811889648
21	67.932461977005	fix_pre	0		89.0	19.0	2.5	blank	1.0	160.6095118522644	0.741657018661499
21	68.66589093208313	response	0	2		19.0	2.5	blank	1.0	161.34294080734253	
21	68.6741189956665	movie	1		301.0	19.0	2.5	blank	1.0	161.3511688709259	2.5083980560302734
21	70.22417998313904	response	1	2		19.0	2.5	blank	1.0	162.90122985839844	
21	71.18251705169678	fix_post	2		12.0	19.0	2.5	blank	1.0	163.85956692695618	0.09993600845336914
22	71.28245306015015	fix_pre	0		63.0	20.0	2.5	/experiments/knapen_aot/videos/S_yt-5rC42egLl5E_387.mp4	0.0	163.95950293540955	0.5249969959259033
22	71.7992811203003	response	0	2		20.0	2.5	/experiments/knapen_aot/videos/S_yt-5rC42egLl5E_387.mp4	0.0	164.4763309955597	
22	71.80745005607605	movie	1		299.0	20.0	2.5	/experiments/knapen_aot/videos/S_yt-5rC42egLl5E_387.mp4	0.0	164.48449993133545	2.5083200931549072
22	74.31577014923096	fix_post	2		12.0	20.0	2.5	/experiments/knapen_aot/videos/S_yt-5rC42egLl5E_387.mp4	0.0	166.99282002449036	0.10000801086425781
23	74.41577816009521	fix_pre	0		139.0	21.0	2.5	/experiments/knapen_aot/videos/S_yt-Wr5pSPApQDw_235.mp4	0.0	167.09282803535461	1.1591858863830566
23	75.56598901748657	response	0	2		21.0	2.5	/experiments/knapen_aot/videos/S_yt-Wr5pSPApQDw_235.mp4	0.0	168.24303889274597	
23	75.57496404647827	movie	1		300.0	21.0	2.5	/experiments/knapen_aot/videos/S_yt-Wr5pSPApQDw_235.mp4	0.0	168.25201392173767	2.5074210166931152
23	78.08238506317139	fix_post	2		12.0	21.0	2.5	/experiments/knapen_aot/videos/S_yt-Wr5pSPApQDw_235.mp4	0.0	170.7594349384308	0.10007596015930176
24	78.18246102333069	fix_pre	0		70.0	22.0	2.5	/experiments/knapen_aot/videos/R_S_yt-xgqx7tH92-c_6.mp4	0.0	170.8595108985901	0.583280086517334
24	78.75758409500122	response	0	2		22.0	2.5	/experiments/knapen_aot/videos/R_S_yt-xgqx7tH92-c_6.mp4	0.0	171.43463397026062	
24	78.76574110984802	movie	1		299.0	22.0	2.5	/experiments/knapen_aot/videos/R_S_yt-xgqx7tH92-c_6.mp4	0.0	171.44279098510742	2.5083489418029785
24	81.274090051651	fix_post	2		12.0	22.0	2.5	/experiments/knapen_aot/videos/R_S_yt-xgqx7tH92-c_6.mp4	0.0	173.9511399269104	0.0999600887298584
25	81.37405014038086	fix_pre	0		139.0	23.0	2.5	/experiments/knapen_aot/videos/S_yt-Jo6PxivsTOg_247.mp4	0.0	174.05110001564026	1.1592319011688232
25	82.51679015159607	response	0	2		23.0	2.5	/experiments/knapen_aot/videos/S_yt-Jo6PxivsTOg_247.mp4	0.0	175.19384002685547	
25	82.53328204154968	movie	1		301.0	23.0	2.5	/experiments/knapen_aot/videos/S_yt-Jo6PxivsTOg_247.mp4	0.0	175.21033191680908	2.507427930831909
25	85.04070997238159	fix_post	2		12.0	23.0	2.5	/experiments/knapen_aot/videos/S_yt-Jo6PxivsTOg_247.mp4	0.0	177.717759847641	0.10007596015930176
26	85.1407859325409	fix_pre	0		104.0	24.0	2.5	/experiments/knapen_aot/videos/R_S_wc-zkO_omg3nTvg_5.mp4	0.0	177.8178358078003	0.8666050434112549
26	85.99917507171631	response	0	2		24.0	2.5	/experiments/knapen_aot/videos/R_S_wc-zkO_omg3nTvg_5.mp4	0.0	178.6762249469757	
26	86.00739097595215	movie	1		164.0	24.0	2.5	/experiments/knapen_aot/videos/R_S_wc-zkO_omg3nTvg_5.mp4	0.0	178.68444085121155	2.50833797454834
26	88.51572895050049	fix_post	2		12.0	24.0	2.5	/experiments/knapen_aot/videos/R_S_wc-zkO_omg3nTvg_5.mp4	0.0	181.1927788257599	0.10005807876586914
27	88.61578702926636	fix_pre	0		115.0	25.0	2.5	/experiments/knapen_aot/videos/R_S_comp_L004_C011_PS_v01_SDR_PS_20180925_SDR_2K_AVC.mp4	0.0	181.29283690452576	0.9592270851135254
27	89.56590914726257	response	0	2		25.0	2.5	/experiments/knapen_aot/videos/R_S_comp_L004_C011_PS_v01_SDR_PS_20180925_SDR_2K_AVC.mp4	0.0	182.24295902252197	
27	89.57501411437988	movie	1		165.0	25.0	2.5	/experiments/knapen_aot/videos/R_S_comp_L004_C011_PS_v01_SDR_PS_20180925_SDR_2K_AVC.mp4	0.0	182.25206398963928	2.5073788166046143
27	92.0823929309845	fix_post	2		12.0	25.0	2.5	/experiments/knapen_aot/videos/R_S_comp_L004_C011_PS_v01_SDR_PS_20180925_SDR_2K_AVC.mp4	0.0	184.7594428062439	0.10004711151123047
28	92.18244004249573	fix_pre	0		41.0	26.0	2.5	/experiments/knapen_aot/videos/R_S_ILSVRC2015_train_00479004.mp4	0.0	184.85948991775513	0.3416299819946289
28	92.51589894294739	response	0	2		26.0	2.5	/experiments/knapen_aot/videos/R_S_ILSVRC2015_train_00479004.mp4	0.0	185.1929488182068	
28	92.52407002449036	movie	1		301.0	26.0	2.5	/experiments/knapen_aot/videos/R_S_ILSVRC2015_train_00479004.mp4	0.0	185.20111989974976	2.508392095565796
28	95.03246212005615	fix_post	2		12.0	26.0	2.5	/experiments/knapen_aot/videos/R_S_ILSVRC2015_train_00479004.mp4	0.0	187.70951199531555	0.09996700286865234
29	95.1324291229248	fix_pre	0		115.0	27.0	2.5	blank	1.0	187.8094789981842	0.9583029747009277
29	96.08254909515381	response	0	2		27.0	2.5	blank	1.0	188.7595989704132	
29	96.09073209762573	movie	1		301.0	27.0	2.5	blank	1.0	188.76778197288513	2.5084099769592285
29	97.2658109664917	response	1	2		27.0	2.5	blank	1.0	189.9428608417511	
29	98.59914207458496	fix_post	2		12.0	27.0	2.5	blank	1.0	191.27619194984436	0.09990906715393066
30	98.69905114173889	fix_pre	0		139.0	28.0	2.5	/experiments/knapen_aot/videos/S_8lrGQK4UBj8_38.mp4	0.0	191.3761010169983	1.1583378314971924
30	99.8492181301117	response	0	2		28.0	2.5	/experiments/knapen_aot/videos/S_8lrGQK4UBj8_38.mp4	0.0	192.5262680053711	
30	99.85738897323608	movie	1		301.0	28.0	2.5	/experiments/knapen_aot/videos/S_8lrGQK4UBj8_38.mp4	0.0	192.53443884849548	2.5083351135253906
30	102.36572408676147	fix_post	2		12.0	28.0	2.5	/experiments/knapen_aot/videos/S_8lrGQK4UBj8_38.mp4	0.0	195.04277396202087	0.09999489784240723
31	102.46571898460388	fix_pre	0		124.0	29.0	2.5	/experiments/knapen_aot/videos/S_yt-7W50lcw5FCo_37.mp4	0.0	195.14276885986328	1.0332670211791992
31	103.49086904525757	response	0	2		29.0	2.5	/experiments/knapen_aot/videos/S_yt-7W50lcw5FCo_37.mp4	0.0	196.16791892051697	
31	103.49898600578308	movie	1		299.0	29.0	2.5	/experiments/knapen_aot/videos/S_yt-7W50lcw5FCo_37.mp4	0.0	196.17603588104248	2.5082690715789795
31	106.00725507736206	fix_post	2		12.0	29.0	2.5	/experiments/knapen_aot/videos/S_yt-7W50lcw5FCo_37.mp4	0.0	198.68430495262146	0.10006284713745117
32	106.10731792449951	fix_pre	0		139.0	30.0	2.5	/experiments/knapen_aot/videos/S_pexels-tima-miroshnichenko-6077718.mp4	0.0	198.7843677997589	1.1582891941070557
32	107.25744295120239	response	0	2		30.0	2.5	/experiments/knapen_aot/videos/S_pexels-tima-miroshnichenko-6077718.mp4	0.0	199.9344928264618	
32	107.26560711860657	movie	1		167.0	30.0	2.5	/experiments/knapen_aot/videos/S_pexels-tima-miroshnichenko-6077718.mp4	0.0	199.94265699386597	2.508352041244507
32	109.77395915985107	fix_post	2		12.0	30.0	2.5	/experiments/knapen_aot/videos/S_pexels-tima-miroshnichenko-6077718.mp4	0.0	202.45100903511047	0.09990596771240234
33	109.87386512756348	fix_pre	0		134.0	31.0	2.5	/experiments/knapen_aot/videos/R_S_yt-wjBwgccZM5k_150.mp4	0.0	202.55091500282288	1.117460012435913
33	110.98246192932129	response	0	2		31.0	2.5	/experiments/knapen_aot/videos/R_S_yt-wjBwgccZM5k_150.mp4	0.0	203.6595118045807	
33	110.99132513999939	movie	1		301.0	31.0	2.5	/experiments/knapen_aot/videos/R_S_yt-wjBwgccZM5k_150.mp4	0.0	203.6683750152588	2.5076279640197754
33	113.49895310401917	fix_post	2		12.0	31.0	2.5	/experiments/knapen_aot/videos/R_S_yt-wjBwgccZM5k_150.mp4	0.0	206.17600297927856	0.10001182556152344
34	113.59896492958069	fix_pre	0		124.0	32.0	2.5	/experiments/knapen_aot/videos/S_yt-9pYW_TqVpU4_43.mp4	0.0	206.2760148048401	1.0334210395812988
34	114.62411904335022	response	0	2		32.0	2.5	/experiments/knapen_aot/videos/S_yt-9pYW_TqVpU4_43.mp4	0.0	207.30116891860962	
34	114.63238596916199	movie	1		301.0	32.0	2.5	/experiments/knapen_aot/videos/S_yt-9pYW_TqVpU4_43.mp4	0.0	207.3094358444214	2.508208990097046
34	117.14059495925903	fix_post	2		12.0	32.0	2.5	/experiments/knapen_aot/videos/S_yt-9pYW_TqVpU4_43.mp4	0.0	209.81764483451843	0.09993314743041992
35	117.24052810668945	fix_pre	0		103.0	33.0	2.5	blank	1.0	209.91757798194885	0.8583998680114746
35	118.0907211303711	response	0	2		33.0	2.5	blank	1.0	210.7677710056305	
35	118.09892797470093	movie	1		301.0	33.0	2.5	blank	1.0	210.77597784996033	2.5083320140838623
35	120.09072709083557	response	1	2		33.0	2.5	blank	1.0	212.76777696609497	
35	120.60725998878479	fix_post	2		12.0	33.0	2.5	blank	1.0	213.2843098640442	0.09997105598449707
36	120.70723104476929	fix_pre	0		115.0	34.0	2.5	/experiments/knapen_aot/videos/S_ILSVRC2015_train_00418001.mp4	0.0	213.3842809200287	0.9583089351654053
36	121.65736699104309	response	0	2		34.0	2.5	/experiments/knapen_aot/videos/S_ILSVRC2015_train_00418001.mp4	0.0	214.3344168663025	
36	121.66553997993469	movie	1		301.0	34.0	2.5	/experiments/knapen_aot/videos/S_ILSVRC2015_train_00418001.mp4	0.0	214.3425898551941	2.5085361003875732
36	124.17407608032227	fix_post	2		12.0	34.0	2.5	/experiments/knapen_aot/videos/S_ILSVRC2015_train_00418001.mp4	0.0	216.85112595558167	0.09984588623046875
37	124.27392196655273	fix_pre	0		165.0	35.0	2.5	/experiments/knapen_aot/videos/S_yt-9T99N7Cvi_o_112.mp4	0.0	216.95097184181213	1.374953031539917
37	125.6407699584961	response	0	2		35.0	2.5	/experiments/knapen_aot/videos/S_yt-9T99N7Cvi_o_112.mp4	0.0	218.3178198337555	
37	125.64887499809265	movie	1		301.0	35.0	2.5	/experiments/knapen_aot/videos/S_yt-9T99N7Cvi_o_112.mp4	0.0	218.32592487335205	2.508270025253296
37	128.15714502334595	fix_post	2		12.0	35.0	2.5	/experiments/knapen_aot/videos/S_yt-9T99N7Cvi_o_112.mp4	0.0	220.83419489860535	0.10006999969482422
38	128.25721502304077	fix_pre	0		96.0	36.0	2.5	/experiments/knapen_aot/videos/R_S_wc-ikynRrpJVaWp_12.mp4	0.0	220.93426489830017	0.7999589443206787
38	129.04903101921082	response	0	2		36.0	2.5	/experiments/knapen_aot/videos/R_S_wc-ikynRrpJVaWp_12.mp4	0.0	221.72608089447021	
38	129.05717396736145	movie	1		163.0	36.0	2.5	/experiments/knapen_aot/videos/R_S_wc-ikynRrpJVaWp_12.mp4	0.0	221.73422384262085	2.508380174636841
38	131.5655541419983	fix_post	2		12.0	36.0	2.5	/experiments/knapen_aot/videos/R_S_wc-ikynRrpJVaWp_12.mp4	0.0	224.2426040172577	0.10000491142272949
39	131.66555905342102	fix_pre	0		191.0	37.0	2.5	/experiments/knapen_aot/videos/S_yt-hMyqUMAbFAk_303.mp4	0.0	224.34260892868042	1.5915920734405518
39	133.2489881515503	response	0	2		37.0	2.5	/experiments/knapen_aot/videos/S_yt-hMyqUMAbFAk_303.mp4	0.0	225.9260380268097	
39	133.25715112686157	movie	1		301.0	37.0	2.5	/experiments/knapen_aot/videos/S_yt-hMyqUMAbFAk_303.mp4	0.0	225.93420100212097	2.50834584236145
39	135.76549696922302	fix_post	2		12.0	37.0	2.5	/experiments/knapen_aot/videos/S_yt-hMyqUMAbFAk_303.mp4	0.0	228.44254684448242	0.10002398490905762
40	135.86552095413208	fix_pre	0		132.0	38.0	2.5	/experiments/knapen_aot/videos/S_wc-ikynRrpJVaWp_12.mp4	0.0	228.54257082939148	1.0999531745910645
40	136.9573471546173	response	0	2		38.0	2.5	/experiments/knapen_aot/videos/S_wc-ikynRrpJVaWp_12.mp4	0.0	229.6343970298767	
40	136.96547412872314	movie	1		163.0	38.0	2.5	/experiments/knapen_aot/videos/S_wc-ikynRrpJVaWp_12.mp4	0.0	229.64252400398254	2.508309841156006
40	139.47378396987915	fix_post	2		12.0	38.0	2.5	/experiments/knapen_aot/videos/S_wc-ikynRrpJVaWp_12.mp4	0.0	232.15083384513855	0.10004615783691406
41	139.57383012771606	fix_pre	0		113.0	39.0	2.5	/experiments/knapen_aot/videos/S_EFR8AteY59I_15.mp4	0.0	232.25088000297546	0.9416148662567139
41	140.50733494758606	response	0	2		39.0	2.5	/experiments/knapen_aot/videos/S_EFR8AteY59I_15.mp4	0.0	233.18438482284546	
41	140.51544499397278	movie	1		301.0	39.0	2.5	/experiments/knapen_aot/videos/S_EFR8AteY59I_15.mp4	0.0	233.19249486923218	2.5083260536193848
41	143.02377104759216	fix_post	2		12.0	39.0	2.5	/experiments/knapen_aot/videos/S_EFR8AteY59I_15.mp4	0.0	235.70082092285156	0.10008001327514648
42	143.1238510608673	fix_pre	0		80.0	40.0	2.5	blank	1.0	235.8009009361267	0.6666109561920166
42	143.78229093551636	response	0	2		40.0	2.5	blank	1.0	236.45934081077576	
42	143.79046201705933	movie	1		301.0	40.0	2.5	blank	1.0	236.46751189231873	2.5083770751953125
42	146.29883909225464	fix_post	2		12.0	40.0	2.5	blank	1.0	238.97588896751404	0.09993290901184082
43	146.39877200126648	fix_pre	0		143.0	41.0	2.5	/experiments/knapen_aot/videos/S_yt-GfPep7IhZIU_47.mp4	0.0	239.07582187652588	1.1916799545288086
43	147.58227396011353	response	0	2		41.0	2.5	/experiments/knapen_aot/videos/S_yt-GfPep7IhZIU_47.mp4	0.0	240.25932383537292	
43	147.5904519557953	movie	1		301.0	41.0	2.5	/experiments/knapen_aot/videos/S_yt-GfPep7IhZIU_47.mp4	0.0	240.2675018310547	2.5082950592041016
43	150.0987470149994	fix_post	2		12.0	41.0	2.5	/experiments/knapen_aot/videos/S_yt-GfPep7IhZIU_47.mp4	0.0	242.7757968902588	0.10007309913635254
44	150.19882011413574	fix_pre	0		105.0	42.0	2.5	/experiments/knapen_aot/videos/S_yt-fymgyhmYnMI_76.mp4	0.0	242.87586998939514	0.8754780292510986
44	151.06562304496765	response	0	2		42.0	2.5	/experiments/knapen_aot/videos/S_yt-fymgyhmYnMI_76.mp4	0.0	243.74267292022705	
44	151.07429814338684	movie	1		299.0	42.0	2.5	/experiments/knapen_aot/videos/S_yt-fymgyhmYnMI_76.mp4	0.0	243.75134801864624	2.5078349113464355
44	153.58213305473328	fix_post	2		12.0	42.0	2.5	/experiments/knapen_aot/videos/S_yt-fymgyhmYnMI_76.mp4	0.0	246.25918292999268	0.09997105598449707
45	153.68210411071777	fix_pre	0		123.0	43.0	2.5	/experiments/knapen_aot/videos/R_S_yt-GfPep7IhZIU_47.mp4	0.0	246.35915398597717	1.0249879360198975
45	154.69891905784607	response	0	2		43.0	2.5	/experiments/knapen_aot/videos/R_S_yt-GfPep7IhZIU_47.mp4	0.0	247.37596893310547	
45	154.70709204673767	movie	1		301.0	43.0	2.5	/experiments/knapen_aot/videos/R_S_yt-GfPep7IhZIU_47.mp4	0.0	247.38414192199707	2.508344888687134
45	157.2154369354248	fix_post	2		12.0	43.0	2.5	/experiments/knapen_aot/videos/R_S_yt-GfPep7IhZIU_47.mp4	0.0	249.8924868106842	0.0998990535736084
46	157.3153359889984	fix_pre	0		81.0	44.0	2.5	/experiments/knapen_aot/videos/S_yt-V35ubrbe8gA_86.mp4	0.0	249.9923858642578	0.6756401062011719
46	157.98224401474	response	0	2		44.0	2.5	/experiments/knapen_aot/videos/S_yt-V35ubrbe8gA_86.mp4	0.0	250.6592938899994	
46	157.99097609519958	movie	1		301.0	44.0	2.5	/experiments/knapen_aot/videos/S_yt-V35ubrbe8gA_86.mp4	0.0	250.66802597045898	2.5077669620513916
46	160.49874305725098	fix_post	2		12.0	44.0	2.5	/experiments/knapen_aot/videos/S_yt-V35ubrbe8gA_86.mp4	0.0	253.17579293251038	0.10002589225769043
47	160.59876894950867	fix_pre	0		132.0	45.0	2.5	/experiments/knapen_aot/videos/R_S_yt-9T99N7Cvi_o_112.mp4	0.0	253.27581882476807	1.100438117980957
47	161.69056606292725	response	0	2		45.0	2.5	/experiments/knapen_aot/videos/R_S_yt-9T99N7Cvi_o_112.mp4	0.0	254.36761593818665	
47	161.69920706748962	movie	1		298.0	45.0	2.5	/experiments/knapen_aot/videos/R_S_yt-9T99N7Cvi_o_112.mp4	0.0	254.37625694274902	2.507891893386841
47	164.20709896087646	fix_post	2		12.0	45.0	2.5	/experiments/knapen_aot/videos/R_S_yt-9T99N7Cvi_o_112.mp4	0.0	256.88414883613586	0.09999704360961914
48	164.30709600448608	fix_pre	0		221.0	46.0	2.5	/experiments/knapen_aot/videos/S_yt-BDCyXL5e9S4_223.mp4	0.0	256.9841458797455	1.8416030406951904
48	166.1330120563507	response	0	2		46.0	2.5	/experiments/knapen_aot/videos/S_yt-BDCyXL5e9S4_223.mp4	0.0	258.8100619316101	
48	166.14869904518127	movie	1		301.0	46.0	2.5	/experiments/knapen_aot/videos/S_yt-BDCyXL5e9S4_223.mp4	0.0	258.8257489204407	2.5082929134368896
48	168.65699195861816	fix_post	2		12.0	46.0	2.5	/experiments/knapen_aot/videos/S_yt-BDCyXL5e9S4_223.mp4	0.0	261.33404183387756	0.10007119178771973
49	168.75706315040588	fix_pre	0		63.0	47.0	2.5	/experiments/knapen_aot/videos/S_yt-RVoC19C420Y_27.mp4	0.0	261.4341130256653	0.5253818035125732
49	169.27393698692322	response	0	2		47.0	2.5	/experiments/knapen_aot/videos/S_yt-RVoC19C420Y_27.mp4	0.0	261.9509868621826	
49	169.28244495391846	movie	1		300.0	47.0	2.5	/experiments/knapen_aot/videos/S_yt-RVoC19C420Y_27.mp4	0.0	261.95949482917786	2.5078561305999756
49	171.79030108451843	fix_post	2		12.0	47.0	2.5	/experiments/knapen_aot/videos/S_yt-RVoC19C420Y_27.mp4	0.0	264.46735095977783	0.10005307197570801
50	171.89035415649414	fix_pre	0		75.0	48.0	2.5	blank	1.0	264.56740403175354	0.6251728534698486
50	172.5071840286255	response	0	2		48.0	2.5	blank	1.0	265.1842339038849	
50	172.515527009964	movie	1		301.0	48.0	2.5	blank	1.0	265.1925768852234	2.5081779956817627
50	174.3403890132904	response	1	2		48.0	2.5	blank	1.0	267.0174388885498	
50	175.02370500564575	fix_post	2		12.0	48.0	2.5	blank	1.0	267.70075488090515	0.09999394416809082
51	175.12369894981384	fix_pre	0		194.0	49.0	2.5	/experiments/knapen_aot/videos/R_S_yt-2CWrK9nbhTk_211.mp4	0.0	267.80074882507324	1.6170010566711426
51	176.73219513893127	response	0	2		49.0	2.5	/experiments/knapen_aot/videos/R_S_yt-2CWrK9nbhTk_211.mp4	0.0	269.4092450141907	
51	176.74070000648499	movie	1		297.0	49.0	2.5	/experiments/knapen_aot/videos/R_S_yt-2CWrK9nbhTk_211.mp4	0.0	269.4177498817444	2.507974147796631
51	179.24867415428162	fix_post	2		12.0	49.0	2.5	/experiments/knapen_aot/videos/R_S_yt-2CWrK9nbhTk_211.mp4	0.0	271.925724029541	0.09997677803039551
52	179.348650932312	fix_pre	0		72.0	50.0	2.5	/experiments/knapen_aot/videos/S_production_ID_4154238.mp4	0.0	272.0257008075714	0.6003432273864746
52	179.94047093391418	response	0	2		50.0	2.5	/experiments/knapen_aot/videos/S_production_ID_4154238.mp4	0.0	272.6175208091736	
52	179.9489941596985	movie	1		194.0	50.0	2.5	/experiments/knapen_aot/videos/S_production_ID_4154238.mp4	0.0	272.6260440349579	2.5080158710479736
52	182.45701003074646	fix_post	2		12.0	50.0	2.5	/experiments/knapen_aot/videos/S_production_ID_4154238.mp4	0.0	275.13405990600586	0.09998798370361328
53	182.55699801445007	fix_pre	0		82.0	51.0	2.5	/experiments/knapen_aot/videos/R_S_yt-BFA07F4L4S0_22.mp4	0.0	275.2340478897095	0.68361496925354
53	183.23214101791382	response	0	2		51.0	2.5	/experiments/knapen_aot/videos/R_S_yt-BFA07F4L4S0_22.mp4	0.0	275.9091908931732	
53	183.2406129837036	movie	1		301.0	51.0	2.5	/experiments/knapen_aot/videos/R_S_yt-BFA07F4L4S0_22.mp4	0.0	275.917662858963	2.5080549716949463
53	185.74866795539856	fix_post	2		12.0	51.0	2.5	/experiments/knapen_aot/videos/R_S_yt-BFA07F4L4S0_22.mp4	0.0	278.42571783065796	0.0999901294708252
54	185.84865808486938	fix_pre	0		76.0	52.0	2.5	/experiments/knapen_aot/videos/S_yt-O_6CyqHeJig_132.mp4	0.0	278.5257079601288	0.6332659721374512
54	186.47377610206604	response	0	2		52.0	2.5	/experiments/knapen_aot/videos/S_yt-O_6CyqHeJig_132.mp4	0.0	279.15082597732544	
54	186.48192405700684	movie	1		299.0	52.0	2.5	/experiments/knapen_aot/videos/S_yt-O_6CyqHeJig_132.mp4	0.0	279.15897393226624	2.5084519386291504
54	188.990375995636	fix_post	2		12.0	52.0	2.5	/experiments/knapen_aot/videos/S_yt-O_6CyqHeJig_132.mp4	0.0	281.6674258708954	0.09986305236816406
55	189.09023904800415	fix_pre	0		135.0	53.0	2.5	/experiments/knapen_aot/videos/S_pexels-anthony-shkraba-production-8135459.mp4	0.0	281.76728892326355	1.1250309944152832
55	190.2071270942688	response	0	2		53.0	2.5	/experiments/knapen_aot/videos/S_pexels-anthony-shkraba-production-8135459.mp4	0.0	282.8841769695282	
55	190.21527004241943	movie	1		167.0	53.0	2.5	/experiments/knapen_aot/videos/S_pexels-anthony-shkraba-production-8135459.mp4	0.0	282.89231991767883	2.5082991123199463
55	192.72356915473938	fix_post	2		12.0	53.0	2.5	/experiments/knapen_aot/videos/S_pexels-anthony-shkraba-production-8135459.mp4	0.0	285.4006190299988	0.1003108024597168
56	192.8238799571991	fix_pre	0		82.0	54.0	2.5	/experiments/knapen_aot/videos/S_yt-dkBlyE3igk0_44.mp4	0.0	285.5009298324585	0.6830050945281982
56	193.49878406524658	response	0	2		54.0	2.5	/experiments/knapen_aot/videos/S_yt-dkBlyE3igk0_44.mp4	0.0	286.175833940506	
56	193.5068850517273	movie	1		301.0	54.0	2.5	/experiments/knapen_aot/videos/S_yt-dkBlyE3igk0_44.mp4	0.0	286.1839349269867	2.508430004119873
56	196.01531505584717	fix_post	2		12.0	54.0	2.5	/experiments/knapen_aot/videos/S_yt-dkBlyE3igk0_44.mp4	0.0	288.69236493110657	0.10038900375366211
57	196.11570405960083	fix_pre	0		90.0	55.0	2.5	blank	1.0	288.79275393486023	0.7498519420623779
57	196.85710310935974	response	0	2		55.0	2.5	blank	1.0	289.53415298461914	
57	196.8655560016632	movie	1		301.0	55.0	2.5	blank	1.0	289.5426058769226	2.5080320835113525
57	199.37358808517456	fix_post	2		12.0	55.0	2.5	blank	1.0	292.05063796043396	0.09998893737792969
58	199.4735770225525	fix_pre	0		128.0	56.0	2.5	/experiments/knapen_aot/videos/S_ILSVRC2015_train_00219003.mp4	0.0	292.1506268978119	1.0666389465332031
58	200.532133102417	response	0	2		56.0	2.5	/experiments/knapen_aot/videos/S_ILSVRC2015_train_00219003.mp4	0.0	293.2091829776764	
58	200.5402159690857	movie	1		301.0	56.0	2.5	/experiments/knapen_aot/videos/S_ILSVRC2015_train_00219003.mp4	0.0	293.2172658443451	2.5083861351013184
58	203.048602104187	fix_post	2		12.0	56.0	2.5	/experiments/knapen_aot/videos/S_ILSVRC2015_train_00219003.mp4	0.0	295.7256519794464	0.09999585151672363
59	203.14859795570374	fix_pre	0		137.0	57.0	2.5	/experiments/knapen_aot/videos/R_S_yt-fqbi4rGc9dk_65.mp4	0.0	295.82564783096313	1.1415400505065918
59	204.2821021080017	response	0	2		57.0	2.5	/experiments/knapen_aot/videos/R_S_yt-fqbi4rGc9dk_65.mp4	0.0	296.9591519832611	
59	204.29013800621033	movie	1		301.0	57.0	2.5	/experiments/knapen_aot/videos/R_S_yt-fqbi4rGc9dk_65.mp4	0.0	296.9671878814697	2.5084171295166016
59	206.79855513572693	fix_post	2		12.0	57.0	2.5	/experiments/knapen_aot/videos/R_S_yt-fqbi4rGc9dk_65.mp4	0.0	299.4756050109863	0.09994983673095703
60	206.89850497245789	fix_pre	0		95.0	58.0	2.5	/experiments/knapen_aot/videos/R_S_pexels-tima-miroshnichenko-6077718.mp4	0.0	299.5755548477173	0.791680097579956
60	207.6820731163025	response	0	2		58.0	2.5	/experiments/knapen_aot/videos/R_S_pexels-tima-miroshnichenko-6077718.mp4	0.0	300.3591229915619	
60	207.69018507003784	movie	1		166.0	58.0	2.5	/experiments/knapen_aot/videos/R_S_pexels-tima-miroshnichenko-6077718.mp4	0.0	300.36723494529724	2.508291006088257
60	210.1984760761261	fix_post	2		12.0	58.0	2.5	/experiments/knapen_aot/videos/R_S_pexels-tima-miroshnichenko-6077718.mp4	0.0	302.8755259513855	0.10004496574401855
61	210.29852104187012	fix_pre	0		95.0	59.0	2.5	/experiments/knapen_aot/videos/S_ILSVRC2015_train_00303008.mp4	0.0	302.9755709171295	0.7916269302368164
61	211.07445001602173	response	0	2		59.0	2.5	/experiments/knapen_aot/videos/S_ILSVRC2015_train_00303008.mp4	0.0	303.7514998912811	
61	211.09014797210693	movie	1		301.0	59.0	2.5	/experiments/knapen_aot/videos/S_ILSVRC2015_train_00303008.mp4	0.0	303.76719784736633	2.5083601474761963
61	213.59850811958313	fix_post	2		12.0	59.0	2.5	/experiments/knapen_aot/videos/S_ILSVRC2015_train_00303008.mp4	0.0	306.27555799484253	0.10016894340515137
62	213.69867706298828	fix_pre	0		71.0	60.0	2.5	/experiments/knapen_aot/videos/S_yt-Zn0YwrsCFOQ_44.mp4	0.0	306.3757269382477	0.5914649963378906
62	214.28202199935913	response	0	2		60.0	2.5	/experiments/knapen_aot/videos/S_yt-Zn0YwrsCFOQ_44.mp4	0.0	306.95907187461853	
62	214.29014205932617	movie	1		300.0	60.0	2.5	/experiments/knapen_aot/videos/S_yt-Zn0YwrsCFOQ_44.mp4	0.0	306.96719193458557	2.5083398818969727
62	216.79848194122314	fix_post	2		12.0	60.0	2.5	/experiments/knapen_aot/videos/S_yt-Zn0YwrsCFOQ_44.mp4	0.0	309.47553181648254	0.10005521774291992
63	216.89853715896606	fix_pre	0		121.0	61.0	2.5	/experiments/knapen_aot/videos/S_yt-zgkJCgcT1s4_300.mp4	0.0	309.57558703422546	1.0084648132324219
63	217.89863896369934	response	0	2		61.0	2.5	/experiments/knapen_aot/videos/S_yt-zgkJCgcT1s4_300.mp4	0.0	310.57568883895874	
63	217.9070019721985	movie	1		301.0	61.0	2.5	/experiments/knapen_aot/videos/S_yt-zgkJCgcT1s4_300.mp4	0.0	310.5840518474579	2.508120059967041
63	220.41512203216553	fix_post	2		12.0	61.0	2.5	/experiments/knapen_aot/videos/S_yt-zgkJCgcT1s4_300.mp4	0.0	313.0921719074249	0.09992289543151855
64	220.51504492759705	fix_pre	0		69.0	62.0	2.5	blank	1.0	313.19209480285645	0.5750641822814941
64	221.08195900917053	response	0	2		62.0	2.5	blank	1.0	313.75900888442993	
64	221.09010910987854	movie	1		301.0	62.0	2.5	blank	1.0	313.76715898513794	2.508396863937378
64	223.31527495384216	response	1	2		62.0	2.5	blank	1.0	315.99232482910156	
64	223.59850597381592	fix_post	2		12.0	62.0	2.5	blank	1.0	316.2755558490753	0.10025811195373535
65	223.69876408576965	fix_pre	0		126.0	63.0	2.5	/experiments/knapen_aot/videos/R_S_yt-4r-oovk9JWg_85.mp4	0.0	316.37581396102905	1.0496480464935303
65	224.7402789592743	response	0	2		63.0	2.5	/experiments/knapen_aot/videos/R_S_yt-4r-oovk9JWg_85.mp4	0.0	317.4173288345337	
65	224.74841213226318	movie	1		301.0	63.0	2.5	/experiments/knapen_aot/videos/R_S_yt-4r-oovk9JWg_85.mp4	0.0	317.4254620075226	2.5083999633789062
65	227.2568120956421	fix_post	2		12.0	63.0	2.5	/experiments/knapen_aot/videos/R_S_yt-4r-oovk9JWg_85.mp4	0.0	319.9338619709015	0.1000070571899414
66	227.35681915283203	fix_pre	0		61.0	64.0	2.5	/experiments/knapen_aot/videos/R_S_ILSVRC2015_train_00756000.mp4	0.0	320.03386902809143	0.5084218978881836
66	227.85698103904724	response	0	2		64.0	2.5	/experiments/knapen_aot/videos/R_S_ILSVRC2015_train_00756000.mp4	0.0	320.53403091430664	
66	227.86524105072021	movie	1		301.0	64.0	2.5	/experiments/knapen_aot/videos/R_S_ILSVRC2015_train_00756000.mp4	0.0	320.5422909259796	2.508270025253296
66	230.3735110759735	fix_post	2		12.0	64.0	2.5	/experiments/knapen_aot/videos/R_S_ILSVRC2015_train_00756000.mp4	0.0	323.0505609512329	0.09999799728393555
67	230.47350907325745	fix_pre	0		74.0	65.0	2.5	/experiments/knapen_aot/videos/R_S_yt-zam74qlzGtQ_122.mp4	0.0	323.15055894851685	0.6166398525238037
67	231.08200097084045	response	0	2		65.0	2.5	/experiments/knapen_aot/videos/R_S_yt-zam74qlzGtQ_122.mp4	0.0	323.75905084609985	
67	231.09014892578125	movie	1		301.0	65.0	2.5	/experiments/knapen_aot/videos/R_S_yt-zam74qlzGtQ_122.mp4	0.0	323.76719880104065	2.5083811283111572
67	233.5985300540924	fix_post	2		12.0	65.0	2.5	/experiments/knapen_aot/videos/R_S_yt-zam74qlzGtQ_122.mp4	0.0	326.2755799293518	0.09997987747192383
68	233.69850993156433	fix_pre	0		69.0	66.0	2.5	/experiments/knapen_aot/videos/R_S_yt-3JApfnMu5cU_378.mp4	0.0	326.37555980682373	0.5749170780181885
68	234.2577440738678	response	0	2		66.0	2.5	/experiments/knapen_aot/videos/R_S_yt-3JApfnMu5cU_378.mp4	0.0	326.9347939491272	
68	234.27342700958252	movie	1		301.0	66.0	2.5	/experiments/knapen_aot/videos/R_S_yt-3JApfnMu5cU_378.mp4	0.0	326.9504768848419	2.5084660053253174
68	236.78189301490784	fix_post	2		12.0	66.0	2.5	/experiments/knapen_aot/videos/R_S_yt-3JApfnMu5cU_378.mp4	0.0	329.45894289016724	0.09986996650695801
69	236.8817629814148	fix_pre	0		53.0	67.0	2.5	/experiments/knapen_aot/videos/R_S_yt-hDYtYKUsVE4_120.mp4	0.0	329.5588128566742	0.44165802001953125
69	237.31526494026184	response	0	2		67.0	2.5	/experiments/knapen_aot/videos/R_S_yt-hDYtYKUsVE4_120.mp4	0.0	329.99231481552124	
69	237.32342100143433	movie	1		301.0	67.0	2.5	/experiments/knapen_aot/videos/R_S_yt-hDYtYKUsVE4_120.mp4	0.0	330.0004708766937	2.508357048034668
69	239.831778049469	fix_post	2		12.0	67.0	2.5	/experiments/knapen_aot/videos/R_S_yt-hDYtYKUsVE4_120.mp4	0.0	332.5088279247284	0.10000109672546387
70	239.93177914619446	fix_pre	0		44.0	68.0	2.5	blank	1.0	332.60882902145386	0.3666558265686035
70	240.2901270389557	response	0	2		68.0	2.5	blank	1.0	332.9671769142151	
70	240.29843497276306	movie	1		301.0	68.0	2.5	blank	1.0	332.97548484802246	2.508331060409546
70	242.8067660331726	fix_post	2		12.0	68.0	2.5	blank	1.0	335.483815908432	0.10002493858337402
71	242.90679097175598	fix_pre	0		92.0	69.0	2.5	/experiments/knapen_aot/videos/R_S_yt-aqrdb6BiFx4_12.mp4	0.0	335.5838408470154	0.7665619850158691
71	243.65768814086914	response	0	2		69.0	2.5	/experiments/knapen_aot/videos/R_S_yt-aqrdb6BiFx4_12.mp4	0.0	336.33473801612854	
71	243.67335295677185	movie	1		301.0	69.0	2.5	/experiments/knapen_aot/videos/R_S_yt-aqrdb6BiFx4_12.mp4	0.0	336.35040283203125	2.5083560943603516
71	246.1817090511322	fix_post	2		12.0	69.0	2.5	/experiments/knapen_aot/videos/R_S_yt-aqrdb6BiFx4_12.mp4	0.0	338.8587589263916	0.09998488426208496
72	246.2816939353943	fix_pre	0		89.0	70.0	2.5	/experiments/knapen_aot/videos/S_production_ID_4101242.mp4	0.0	338.9587438106537	0.7416460514068604
72	247.0077259540558	response	0	2		70.0	2.5	/experiments/knapen_aot/videos/S_production_ID_4101242.mp4	0.0	339.6847758293152	
72	247.02333998680115	movie	1		195.0	70.0	2.5	/experiments/knapen_aot/videos/S_production_ID_4101242.mp4	0.0	339.70038986206055	2.5083999633789062
72	249.53173995018005	fix_post	2		12.0	70.0	2.5	/experiments/knapen_aot/videos/S_production_ID_4101242.mp4	0.0	342.20878982543945	0.09993219375610352
73	249.63167214393616	fix_pre	0		197.0	71.0	2.5	/experiments/knapen_aot/videos/R_S_yt-t8NfuFA7OlM_26.mp4	0.0	342.30872201919556	1.6416749954223633
73	251.2651879787445	response	0	2		71.0	2.5	/experiments/knapen_aot/videos/R_S_yt-t8NfuFA7OlM_26.mp4	0.0	343.9422378540039	
73	251.27334713935852	movie	1		301.0	71.0	2.5	/experiments/knapen_aot/videos/R_S_yt-t8NfuFA7OlM_26.mp4	0.0	343.9503970146179	2.508328914642334
73	253.78167605400085	fix_post	2		12.0	71.0	2.5	/experiments/knapen_aot/videos/R_S_yt-t8NfuFA7OlM_26.mp4	0.0	346.45872592926025	0.09997987747192383
74	253.88165593147278	fix_pre	0		96.0	72.0	2.5	/experiments/knapen_aot/videos/S_comp_GMT110_112NC_364D_1054_AURORA_ANTARTICA__COMP_FINAL_v34_PS_SDR_20181107_SDR_2K_AVC.mp4	0.0	346.5587058067322	0.7999720573425293
74	254.665874004364	response	0	2		72.0	2.5	/experiments/knapen_aot/videos/S_comp_GMT110_112NC_364D_1054_AURORA_ANTARTICA__COMP_FINAL_v34_PS_SDR_20181107_SDR_2K_AVC.mp4	0.0	347.3429238796234	
74	254.6816279888153	movie	1		179.0	72.0	2.5	/experiments/knapen_aot/videos/S_comp_GMT110_112NC_364D_1054_AURORA_ANTARTICA__COMP_FINAL_v34_PS_SDR_20181107_SDR_2K_AVC.mp4	0.0	347.3586778640747	2.508263111114502
74	257.1898910999298	fix_post	2		12.0	72.0	2.5	/experiments/knapen_aot/videos/S_comp_GMT110_112NC_364D_1054_AURORA_ANTARTICA__COMP_FINAL_v34_PS_SDR_20181107_SDR_2K_AVC.mp4	0.0	349.8669409751892	0.10007786750793457
75	257.28996896743774	fix_pre	0		76.0	73.0	2.5	/experiments/knapen_aot/videos/R_S_yt-83nimFMNhrM_131.mp4	0.0	349.96701884269714	0.6333320140838623
75	257.91525197029114	response	0	2		73.0	2.5	/experiments/knapen_aot/videos/R_S_yt-83nimFMNhrM_131.mp4	0.0	350.59230184555054	
75	257.9233009815216	movie	1		301.0	73.0	2.5	/experiments/knapen_aot/videos/R_S_yt-83nimFMNhrM_131.mp4	0.0	350.600350856781	2.508255958557129
75	260.43155694007874	fix_post	2		12.0	73.0	2.5	/experiments/knapen_aot/videos/R_S_yt-83nimFMNhrM_131.mp4	0.0	353.10860681533813	0.10009503364562988
76	260.53165197372437	fix_pre	0		94.0	74.0	2.5	/experiments/knapen_aot/videos/R_S_ILSVRC2015_train_00067003.mp4	0.0	353.20870184898376	0.784649133682251
76	261.30691599845886	response	0	2		74.0	2.5	/experiments/knapen_aot/videos/R_S_ILSVRC2015_train_00067003.mp4	0.0	353.98396587371826	
76	261.3163011074066	movie	1		301.0	74.0	2.5	/experiments/knapen_aot/videos/R_S_ILSVRC2015_train_00067003.mp4	0.0	353.993350982666	2.507045030593872
76	263.8233461380005	fix_post	2		12.0	74.0	2.5	/experiments/knapen_aot/videos/R_S_ILSVRC2015_train_00067003.mp4	0.0	356.5003960132599	0.09995293617248535
77	263.923299074173	fix_pre	0		76.0	75.0	2.5	/experiments/knapen_aot/videos/S_yt-aqrdb6BiFx4_12.mp4	0.0	356.6003489494324	0.6333398818969727
77	264.54855608940125	response	0	2		75.0	2.5	/experiments/knapen_aot/videos/S_yt-aqrdb6BiFx4_12.mp4	0.0	357.22560596466064	
77	264.55663895606995	movie	1		301.0	75.0	2.5	/experiments/knapen_aot/videos/S_yt-aqrdb6BiFx4_12.mp4	0.0	357.23368883132935	2.5082859992980957
77	267.06492495536804	fix_post	2		12.0	75.0	2.5	/experiments/knapen_aot/videos/S_yt-aqrdb6BiFx4_12.mp4	0.0	359.74197483062744	0.09998798370361328
78	267.16491293907166	fix_pre	0		89.0	76.0	2.5	blank	1.0	359.84196281433105	0.7416410446166992
78	267.8984651565552	response	0	2		76.0	2.5	blank	1.0	360.5755150318146	
78	267.90655398368835	movie	1		301.0	76.0	2.5	blank	1.0	360.58360385894775	2.508296012878418
78	270.4148499965668	fix_post	2		12.0	76.0	2.5	blank	1.0	363.0918998718262	0.10004305839538574
79	270.51489305496216	fix_pre	0		75.0	77.0	2.5	/experiments/knapen_aot/videos/S_yt-IigHVUksnw8_7.mp4	0.0	363.19194293022156	0.6250259876251221
79	271.13182401657104	response	0	2		77.0	2.5	/experiments/knapen_aot/videos/S_yt-IigHVUksnw8_7.mp4	0.0	363.80887389183044	
79	271.1399190425873	movie	1		301.0	77.0	2.5	/experiments/knapen_aot/videos/S_yt-IigHVUksnw8_7.mp4	0.0	363.8169689178467	2.5082850456237793
79	273.64820408821106	fix_post	2		12.0	77.0	2.5	/experiments/knapen_aot/videos/S_yt-IigHVUksnw8_7.mp4	0.0	366.32525396347046	0.10003495216369629
80	273.74823904037476	fix_pre	0		90.0	78.0	2.5	/experiments/knapen_aot/videos/R_S_yt-Q9fI2ar05IE_77.mp4	0.0	366.42528891563416	0.7499799728393555
80	274.4901020526886	response	0	2		78.0	2.5	/experiments/knapen_aot/videos/R_S_yt-Q9fI2ar05IE_77.mp4	0.0	367.167151927948	
80	274.4982190132141	movie	1		300.0	78.0	2.5	/experiments/knapen_aot/videos/R_S_yt-Q9fI2ar05IE_77.mp4	0.0	367.1752688884735	2.508388042449951
80	277.00660705566406	fix_post	2		12.0	78.0	2.5	/experiments/knapen_aot/videos/R_S_yt-Q9fI2ar05IE_77.mp4	0.0	369.68365693092346	0.09997797012329102
81	277.10658502578735	fix_pre	0		53.0	79.0	2.5	/experiments/knapen_aot/videos/R_S_yt-Zn0YwrsCFOQ_44.mp4	0.0	369.78363490104675	0.441648006439209
81	277.5401930809021	response	0	2		79.0	2.5	/experiments/knapen_aot/videos/R_S_yt-Zn0YwrsCFOQ_44.mp4	0.0	370.2172429561615	
81	277.54823303222656	movie	1		301.0	79.0	2.5	/experiments/knapen_aot/videos/R_S_yt-Zn0YwrsCFOQ_44.mp4	0.0	370.22528290748596	2.508273124694824
81	280.0565061569214	fix_post	2		12.0	79.0	2.5	/experiments/knapen_aot/videos/R_S_yt-Zn0YwrsCFOQ_44.mp4	0.0	372.7335560321808	0.10006880760192871
82	280.1565749645233	fix_pre	0		65.0	80.0	2.5	/experiments/knapen_aot/videos/S_yt-PaxmJhMoP3w_87.mp4	0.0	372.8336248397827	0.5415611267089844
82	280.69007396698	response	0	2		80.0	2.5	/experiments/knapen_aot/videos/S_yt-PaxmJhMoP3w_87.mp4	0.0	373.3671238422394	
82	280.6981360912323	movie	1		301.0	80.0	2.5	/experiments/knapen_aot/videos/S_yt-PaxmJhMoP3w_87.mp4	0.0	373.3751859664917	2.5083720684051514
82	283.20650815963745	fix_post	2		12.0	80.0	2.5	/experiments/knapen_aot/videos/S_yt-PaxmJhMoP3w_87.mp4	0.0	375.88355803489685	0.1000518798828125
83	283.30656003952026	fix_pre	0		107.0	81.0	2.5	/experiments/knapen_aot/videos/R_S_yt-b7bIulV49DQ_81.mp4	0.0	375.98360991477966	0.8916630744934082
83	284.19013500213623	response	0	2		81.0	2.5	/experiments/knapen_aot/videos/R_S_yt-b7bIulV49DQ_81.mp4	0.0	376.86718487739563	
83	284.1982231140137	movie	1		298.0	81.0	2.5	/experiments/knapen_aot/videos/R_S_yt-b7bIulV49DQ_81.mp4	0.0	376.87527298927307	2.5082738399505615
83	286.70649695396423	fix_post	2		12.0	81.0	2.5	/experiments/knapen_aot/videos/R_S_yt-b7bIulV49DQ_81.mp4	0.0	379.38354682922363	0.10002017021179199
84	286.806517124176	fix_pre	0		123.0	82.0	2.5	/experiments/knapen_aot/videos/R_S_yt-EApB0DJ3ECg_66.mp4	0.0	379.4835669994354	1.0250208377838135
84	287.82343196868896	response	0	2		82.0	2.5	/experiments/knapen_aot/videos/R_S_yt-EApB0DJ3ECg_66.mp4	0.0	380.50048184394836	
84	287.83153796195984	movie	1		301.0	82.0	2.5	/experiments/knapen_aot/videos/R_S_yt-EApB0DJ3ECg_66.mp4	0.0	380.50858783721924	2.5083231925964355
84	290.3398611545563	fix_post	2		12.0	82.0	2.5	/experiments/knapen_aot/videos/R_S_yt-EApB0DJ3ECg_66.mp4	0.0	383.0169110298157	0.09997987747192383
85	290.4398410320282	fix_pre	0		101.0	83.0	2.5	blank	1.0	383.1168909072876	0.8416669368743896
85	291.2733271121979	response	0	2		83.0	2.5	blank	1.0	383.9503769874573	
85	291.2815079689026	movie	1		301.0	83.0	2.5	blank	1.0	383.958557844162	2.5083861351013184
85	293.7898941040039	fix_post	2		12.0	83.0	2.5	blank	1.0	386.4669439792633	0.09997296333312988
87	293.88986706733704	stim	0		483.0					386.56691694259644	4.024909019470215
87	295.73272800445557	response	0	2						388.40977787971497	
87	297.9111850261688	response	0	space						390.5882349014282	
