trial_nr	onset	event_type	phase	response	nr_frames	movie_index	movie_duration	movie_file	blank	onset_abs	duration
0	0.13336586952209473	stim	0		86.0					92.80976605415344	0.7165451049804688
0	0.8418698310852051	response	0	space						93.51827001571655	
1	0.8499109745025635	stim	0		121.0					93.52631115913391	1.00807785987854
1	1.8579888343811035	stim	1		120.0					94.53438901901245	1.00002121925354
2	2.8580100536346436	fix_pre	0		173.0	0.0	2.5	/experiments/knapen_aot/videos/S_yt-2i53vKte7SA_117.mp4	0.0	95.53441023826599	1.4415888786315918
2	4.291417837142944	response	0	space		0.0	2.5	/experiments/knapen_aot/videos/S_yt-2i53vKte7SA_117.mp4	0.0	96.96781802177429	
2	4.299598932266235	movie	1		300.0	0.0	2.5	/experiments/knapen_aot/videos/S_yt-2i53vKte7SA_117.mp4	0.0	96.97599911689758	2.5083889961242676
2	6.807987928390503	fix_post	2		12.0	0.0	2.5	/experiments/knapen_aot/videos/S_yt-2i53vKte7SA_117.mp4	0.0	99.48438811302185	0.09997010231018066
3	6.907958030700684	fix_pre	0		42.0	1.0	2.5	/experiments/knapen_aot/videos/R_S_ILSVRC2015_train_00715000.mp4	0.0	99.58435821533203	0.3500099182128906
3	7.251497983932495	response	0	2		1.0	2.5	/experiments/knapen_aot/videos/R_S_ILSVRC2015_train_00715000.mp4	0.0	99.92789816856384	
3	7.257967948913574	movie	1		301.0	1.0	2.5	/experiments/knapen_aot/videos/R_S_ILSVRC2015_train_00715000.mp4	0.0	99.93436813354492	2.508316993713379
3	9.766284942626953	fix_post	2		12.0	1.0	2.5	/experiments/knapen_aot/videos/R_S_ILSVRC2015_train_00715000.mp4	0.0	102.4426851272583	0.09999394416809082
4	9.866278886795044	fix_pre	0		8.0	2.0	2.5	/experiments/knapen_aot/videos/R_S_yt-MNo__ov96eI_22.mp4	0.0	102.54267907142639	0.06665205955505371
4	9.924731969833374	response	0	2		2.0	2.5	/experiments/knapen_aot/videos/R_S_yt-MNo__ov96eI_22.mp4	0.0	102.60113215446472	
4	9.932930946350098	movie	1		301.0	2.0	2.5	/experiments/knapen_aot/videos/R_S_yt-MNo__ov96eI_22.mp4	0.0	102.60933113098145	2.508333921432495
4	12.441264867782593	fix_post	2		12.0	2.0	2.5	/experiments/knapen_aot/videos/R_S_yt-MNo__ov96eI_22.mp4	0.0	105.11766505241394	0.1000211238861084
5	12.541285991668701	fix_pre	0		29.0	3.0	2.5	/experiments/knapen_aot/videos/S_pexels-pavel-danilyuk-8057714.mp4	0.0	105.21768617630005	0.24241995811462402
5	12.767142057418823	response	0	2		3.0	2.5	/experiments/knapen_aot/videos/S_pexels-pavel-danilyuk-8057714.mp4	0.0	105.44354224205017	
5	12.783705949783325	movie	1		167.0	3.0	2.5	/experiments/knapen_aot/videos/S_pexels-pavel-danilyuk-8057714.mp4	0.0	105.46010613441467	2.5075631141662598
5	15.291269063949585	fix_post	2		12.0	3.0	2.5	/experiments/knapen_aot/videos/S_pexels-pavel-danilyuk-8057714.mp4	0.0	107.96766924858093	0.1000058650970459
6	15.39127492904663	fix_pre	0		2.0	4.0	2.5	/experiments/knapen_aot/videos/R_S_yt-2i53vKte7SA_117.mp4	0.0	108.06767511367798	0.017854928970336914
6	15.399718046188354	response	0	2		4.0	2.5	/experiments/knapen_aot/videos/R_S_yt-2i53vKte7SA_117.mp4	0.0	108.0761182308197	
6	15.409129858016968	movie	1		301.0	4.0	2.5	/experiments/knapen_aot/videos/R_S_yt-2i53vKte7SA_117.mp4	0.0	108.08553004264832	2.5070559978485107
6	17.91618585586548	fix_post	2		12.0	4.0	2.5	/experiments/knapen_aot/videos/R_S_yt-2i53vKte7SA_117.mp4	0.0	110.59258604049683	0.10007715225219727
7	18.016263008117676	fix_pre	0		13.0	5.0	2.5	/experiments/knapen_aot/videos/S_yt-GOgS--rzmKQ_51.mp4	0.0	110.69266319274902	0.10830998420715332
7	18.116389989852905	response	0	2		5.0	2.5	/experiments/knapen_aot/videos/S_yt-GOgS--rzmKQ_51.mp4	0.0	110.79279017448425	
7	18.12457299232483	movie	1		301.0	5.0	2.5	/experiments/knapen_aot/videos/S_yt-GOgS--rzmKQ_51.mp4	0.0	110.80097317695618	2.5083529949188232
7	20.632925987243652	fix_post	2		12.0	5.0	2.5	/experiments/knapen_aot/videos/S_yt-GOgS--rzmKQ_51.mp4	0.0	113.309326171875	0.10000395774841309
8	20.732929944992065	fix_pre	0		6.0	6.0	2.5	/experiments/knapen_aot/videos/R_S_yt-c5KPuyzO-50_4.mp4	0.0	113.40933012962341	0.05074810981750488
8	20.774693965911865	response	0	2		6.0	2.5	/experiments/knapen_aot/videos/R_S_yt-c5KPuyzO-50_4.mp4	0.0	113.45109415054321	
8	20.78367805480957	movie	1		300.0	6.0	2.5	/experiments/knapen_aot/videos/R_S_yt-c5KPuyzO-50_4.mp4	0.0	113.46007823944092	2.5075337886810303
8	23.2912118434906	fix_post	2		12.0	6.0	2.5	/experiments/knapen_aot/videos/R_S_yt-c5KPuyzO-50_4.mp4	0.0	115.96761202812195	0.09995007514953613
9	23.391161918640137	fix_pre	0		13.0	7.0	2.5	blank	1.0	116.06756210327148	0.10841798782348633
9	23.491333961486816	response	0	2		7.0	2.5	blank	1.0	116.16773414611816	
9	23.499579906463623	movie	1		301.0	7.0	2.5	blank	1.0	116.17598009109497	2.5084619522094727
9	26.008041858673096	fix_post	2		12.0	7.0	2.5	blank	1.0	118.68444204330444	0.09985899925231934
10	26.107900857925415	fix_pre	0		18.0	8.0	2.5	/experiments/knapen_aot/videos/R_S_yt-j3Sk8ZnAiEA_32.mp4	0.0	118.78430104255676	0.14998602867126465
10	26.242141008377075	response	0	2		8.0	2.5	/experiments/knapen_aot/videos/R_S_yt-j3Sk8ZnAiEA_32.mp4	0.0	118.91854119300842	
10	26.25788688659668	movie	1		300.0	8.0	2.5	/experiments/knapen_aot/videos/R_S_yt-j3Sk8ZnAiEA_32.mp4	0.0	118.93428707122803	2.5083539485931396
10	28.76624083518982	fix_post	2		12.0	8.0	2.5	/experiments/knapen_aot/videos/R_S_yt-j3Sk8ZnAiEA_32.mp4	0.0	121.44264101982117	0.10000205039978027
11	28.8662428855896	fix_pre	0		14.0	9.0	2.5	/experiments/knapen_aot/videos/S_yt-bTcbsBET7gc_270.mp4	0.0	121.54264307022095	0.11653709411621094
11	28.97472906112671	response	0	2		9.0	2.5	/experiments/knapen_aot/videos/S_yt-bTcbsBET7gc_270.mp4	0.0	121.65112924575806	
11	28.98277997970581	movie	1		301.0	9.0	2.5	/experiments/knapen_aot/videos/S_yt-bTcbsBET7gc_270.mp4	0.0	121.65918016433716	2.508378028869629
11	31.49115800857544	fix_post	2		12.0	9.0	2.5	/experiments/knapen_aot/videos/S_yt-bTcbsBET7gc_270.mp4	0.0	124.16755819320679	0.10006594657897949
12	31.59122395515442	fix_pre	0		11.0	10.0	2.5	/experiments/knapen_aot/videos/S_yt-g_CLzrCYHoc_7.mp4	0.0	124.26762413978577	0.09167909622192383
12	31.674805879592896	response	0	2		10.0	2.5	/experiments/knapen_aot/videos/S_yt-g_CLzrCYHoc_7.mp4	0.0	124.35120606422424	
12	31.682903051376343	movie	1		301.0	10.0	2.5	/experiments/knapen_aot/videos/S_yt-g_CLzrCYHoc_7.mp4	0.0	124.35930323600769	2.5082638263702393
12	34.19116687774658	fix_post	2		12.0	10.0	2.5	/experiments/knapen_aot/videos/S_yt-g_CLzrCYHoc_7.mp4	0.0	126.86756706237793	0.10005807876586914
13	34.29122495651245	fix_pre	0		14.0	11.0	2.5	/experiments/knapen_aot/videos/R_S_yt-NFb0SUCeiro_158.mp4	0.0	126.9676251411438	0.1172950267791748
13	34.39208793640137	response	0	2		11.0	2.5	/experiments/knapen_aot/videos/R_S_yt-NFb0SUCeiro_158.mp4	0.0	127.06848812103271	
13	34.408519983291626	movie	1		301.0	11.0	2.5	/experiments/knapen_aot/videos/R_S_yt-NFb0SUCeiro_158.mp4	0.0	127.08492016792297	2.5076818466186523
13	36.91620182991028	fix_post	2		12.0	11.0	2.5	/experiments/knapen_aot/videos/R_S_yt-NFb0SUCeiro_158.mp4	0.0	129.59260201454163	0.09999823570251465
14	37.01620006561279	fix_pre	0		1.0	12.0	2.5	blank	1.0	129.69260025024414	0.010477781295776367
14	37.01792001724243	response	0	2		12.0	2.5	blank	1.0	129.69432020187378	
14	37.02667784690857	movie	1		301.0	12.0	2.5	blank	1.0	129.70307803153992	2.506165027618408
14	39.53284287452698	fix_post	2		12.0	12.0	2.5	blank	1.0	132.20924305915833	0.09997415542602539
15	39.632817029953	fix_pre	0		27.0	13.0	2.5	/experiments/knapen_aot/videos/S_ILSVRC2015_train_00165009.mp4	0.0	132.30921721458435	0.22500991821289062
15	39.8495569229126	response	0	2		13.0	2.5	/experiments/knapen_aot/videos/S_ILSVRC2015_train_00165009.mp4	0.0	132.52595710754395	
15	39.857826948165894	movie	1		301.0	13.0	2.5	/experiments/knapen_aot/videos/S_ILSVRC2015_train_00165009.mp4	0.0	132.53422713279724	2.50833797454834
15	42.36616492271423	fix_post	2		12.0	13.0	2.5	/experiments/knapen_aot/videos/S_ILSVRC2015_train_00165009.mp4	0.0	135.04256510734558	0.09994101524353027
15	42.44954705238342	response	2	2		13.0	2.5	/experiments/knapen_aot/videos/S_ILSVRC2015_train_00165009.mp4	0.0	135.12594723701477	
16	42.466105937957764	fix_pre	0		92.0	14.0	2.5	/experiments/knapen_aot/videos/R_S_yt-xQilXyNKsBw_42.mp4	0.0	135.1425061225891	0.766758918762207
16	43.224573850631714	response	0	2		14.0	2.5	/experiments/knapen_aot/videos/R_S_yt-xQilXyNKsBw_42.mp4	0.0	135.90097403526306	
16	43.23286485671997	movie	1		301.0	14.0	2.5	/experiments/knapen_aot/videos/R_S_yt-xQilXyNKsBw_42.mp4	0.0	135.90926504135132	2.5082621574401855
16	45.741127014160156	fix_post	2		12.0	14.0	2.5	/experiments/knapen_aot/videos/R_S_yt-xQilXyNKsBw_42.mp4	0.0	138.4175271987915	0.09998798370361328
17	45.84111499786377	fix_pre	0		7.0	15.0	2.5	/experiments/knapen_aot/videos/R_S_yt-v8e_DlCsP4w_10.mp4	0.0	138.51751518249512	0.05833888053894043
17	45.89127492904663	response	0	2		15.0	2.5	/experiments/knapen_aot/videos/R_S_yt-v8e_DlCsP4w_10.mp4	0.0	138.56767511367798	
17	45.89945387840271	movie	1		301.0	15.0	2.5	/experiments/knapen_aot/videos/R_S_yt-v8e_DlCsP4w_10.mp4	0.0	138.57585406303406	2.5083811283111572
17	48.40783500671387	fix_post	2		12.0	15.0	2.5	/experiments/knapen_aot/videos/R_S_yt-v8e_DlCsP4w_10.mp4	0.0	141.08423519134521	0.09999704360961914
18	48.507832050323486	fix_pre	0		5.0	16.0	2.5	/experiments/knapen_aot/videos/S_yt-7Fyu2vr7zbA_31.mp4	0.0	141.18423223495483	0.0416569709777832
18	48.541292905807495	response	0	2		16.0	2.5	/experiments/knapen_aot/videos/S_yt-7Fyu2vr7zbA_31.mp4	0.0	141.21769309043884	
18	48.54948902130127	movie	1		301.0	16.0	2.5	/experiments/knapen_aot/videos/S_yt-7Fyu2vr7zbA_31.mp4	0.0	141.22588920593262	2.508297920227051
18	51.05778694152832	fix_post	2		12.0	16.0	2.5	/experiments/knapen_aot/videos/S_yt-7Fyu2vr7zbA_31.mp4	0.0	143.73418712615967	0.1000831127166748
19	51.157870054244995	fix_pre	0		15.0	17.0	2.5	/experiments/knapen_aot/videos/S_pexels-koolshooters-7327401.mp4	0.0	143.83427023887634	0.12555193901062012
19	51.27464485168457	response	0	2		17.0	2.5	/experiments/knapen_aot/videos/S_pexels-koolshooters-7327401.mp4	0.0	143.95104503631592	
19	51.283421993255615	movie	1		166.0	17.0	2.5	/experiments/knapen_aot/videos/S_pexels-koolshooters-7327401.mp4	0.0	143.95982217788696	2.507654905319214
19	53.79107689857483	fix_post	2		12.0	17.0	2.5	/experiments/knapen_aot/videos/S_pexels-koolshooters-7327401.mp4	0.0	146.46747708320618	0.1000211238861084
20	53.89109802246094	fix_pre	0		16.0	18.0	2.5	/experiments/knapen_aot/videos/S_yt-he_RSdeVinA_68.mp4	0.0	146.56749820709229	0.13339781761169434
20	54.0161988735199	response	0	2		18.0	2.5	/experiments/knapen_aot/videos/S_yt-he_RSdeVinA_68.mp4	0.0	146.69259905815125	
20	54.02449584007263	movie	1		299.0	18.0	2.5	/experiments/knapen_aot/videos/S_yt-he_RSdeVinA_68.mp4	0.0	146.70089602470398	2.5082781314849854
20	56.53277397155762	fix_post	2		12.0	18.0	2.5	/experiments/knapen_aot/videos/S_yt-he_RSdeVinA_68.mp4	0.0	149.20917415618896	0.09998893737792969
21	56.63276290893555	fix_pre	0		14.0	19.0	2.5	blank	1.0	149.3091630935669	0.11665606498718262
21	56.74118494987488	response	0	2		19.0	2.5	blank	1.0	149.41758513450623	
21	56.74941897392273	movie	1		301.0	19.0	2.5	blank	1.0	149.42581915855408	2.5083389282226562
21	59.257757902145386	fix_post	2		12.0	19.0	2.5	blank	1.0	151.93415808677673	0.09992504119873047
22	59.357682943344116	fix_pre	0		28.0	20.0	2.5	/experiments/knapen_aot/videos/R_S_yt-XRQ_LSGGr3Y_712.mp4	0.0	152.03408312797546	0.23337101936340332
22	59.58283591270447	response	0	2		20.0	2.5	/experiments/knapen_aot/videos/R_S_yt-XRQ_LSGGr3Y_712.mp4	0.0	152.25923609733582	
22	59.59105396270752	movie	1		301.0	20.0	2.5	/experiments/knapen_aot/videos/R_S_yt-XRQ_LSGGr3Y_712.mp4	0.0	152.26745414733887	2.5085320472717285
22	62.09958600997925	fix_post	2		12.0	20.0	2.5	/experiments/knapen_aot/videos/R_S_yt-XRQ_LSGGr3Y_712.mp4	0.0	154.7759861946106	0.09983181953430176
23	62.19941782951355	fix_pre	0		5.0	21.0	2.5	/experiments/knapen_aot/videos/S_yt-dqcUJzNOzbM_156.mp4	0.0	154.8758180141449	0.042353153228759766
23	62.22551989555359	response	0	2		21.0	2.5	/experiments/knapen_aot/videos/S_yt-dqcUJzNOzbM_156.mp4	0.0	154.90192008018494	
23	62.24177098274231	movie	1		301.0	21.0	2.5	/experiments/knapen_aot/videos/S_yt-dqcUJzNOzbM_156.mp4	0.0	154.91817116737366	2.5076210498809814
23	64.74939203262329	fix_post	2		12.0	21.0	2.5	/experiments/knapen_aot/videos/S_yt-dqcUJzNOzbM_156.mp4	0.0	157.42579221725464	0.10001802444458008
24	64.84941005706787	fix_pre	0		16.0	22.0	2.5	/experiments/knapen_aot/videos/S_yt-OEY9O2MglQM_7.mp4	0.0	157.52581024169922	0.13323497772216797
24	64.96698999404907	response	0	2		22.0	2.5	/experiments/knapen_aot/videos/S_yt-OEY9O2MglQM_7.mp4	0.0	157.64339017868042	
24	64.98264503479004	movie	1		300.0	22.0	2.5	/experiments/knapen_aot/videos/S_yt-OEY9O2MglQM_7.mp4	0.0	157.6590452194214	2.5084149837493896
24	67.49106001853943	fix_post	2		12.0	22.0	2.5	/experiments/knapen_aot/videos/S_yt-OEY9O2MglQM_7.mp4	0.0	160.16746020317078	0.10000085830688477
25	67.59106087684631	fix_pre	0		11.0	23.0	2.5	/experiments/knapen_aot/videos/S_yt-G65z8p1YNhw_16.mp4	0.0	160.26746106147766	0.09160017967224121
25	67.6744589805603	response	0	2		23.0	2.5	/experiments/knapen_aot/videos/S_yt-G65z8p1YNhw_16.mp4	0.0	160.35085916519165	
25	67.68266105651855	movie	1		301.0	23.0	2.5	/experiments/knapen_aot/videos/S_yt-G65z8p1YNhw_16.mp4	0.0	160.3590612411499	2.508420944213867
25	70.19108200073242	fix_post	2		12.0	23.0	2.5	/experiments/knapen_aot/videos/S_yt-G65z8p1YNhw_16.mp4	0.0	162.86748218536377	0.09999585151672363
26	70.29107785224915	fix_pre	0		7.0	24.0	2.5	/experiments/knapen_aot/videos/R_S_pexels-marcus-aurelius-6785014.mp4	0.0	162.9674780368805	0.05825209617614746
26	70.3412618637085	response	0	2		24.0	2.5	/experiments/knapen_aot/videos/R_S_pexels-marcus-aurelius-6785014.mp4	0.0	163.01766204833984	
26	70.3493299484253	movie	1		168.0	24.0	2.5	/experiments/knapen_aot/videos/R_S_pexels-marcus-aurelius-6785014.mp4	0.0	163.02573013305664	2.5083870887756348
26	72.85771703720093	fix_post	2		12.0	24.0	2.5	/experiments/knapen_aot/videos/R_S_pexels-marcus-aurelius-6785014.mp4	0.0	165.53411722183228	0.09989380836486816
27	72.9576108455658	fix_pre	0		4.0	25.0	2.5	/experiments/knapen_aot/videos/R_S_yt-XRQ_LSGGr3Y_712.mp4	0.0	165.63401103019714	0.03441214561462402
27	72.98278188705444	response	0	2		25.0	2.5	/experiments/knapen_aot/videos/R_S_yt-XRQ_LSGGr3Y_712.mp4	0.0	165.6591820716858	
27	72.99202299118042	movie	1		301.0	25.0	2.5	/experiments/knapen_aot/videos/R_S_yt-XRQ_LSGGr3Y_712.mp4	0.0	165.66842317581177	2.5072810649871826
27	75.4993040561676	fix_post	2		12.0	25.0	2.5	/experiments/knapen_aot/videos/R_S_yt-XRQ_LSGGr3Y_712.mp4	0.0	168.17570424079895	0.10004496574401855
27	75.53475785255432	response	2	2		25.0	2.5	/experiments/knapen_aot/videos/R_S_yt-XRQ_LSGGr3Y_712.mp4	0.0	168.21115803718567	
28	75.59934902191162	fix_pre	0		56.0	26.0	2.5	/experiments/knapen_aot/videos/R_S_yt-HQQws1Lp_rQ_10.mp4	0.0	168.27574920654297	0.46662282943725586
28	76.05778789520264	response	0	2		26.0	2.5	/experiments/knapen_aot/videos/R_S_yt-HQQws1Lp_rQ_10.mp4	0.0	168.73418807983398	
28	76.06597185134888	movie	1		301.0	26.0	2.5	/experiments/knapen_aot/videos/R_S_yt-HQQws1Lp_rQ_10.mp4	0.0	168.74237203598022	2.5084121227264404
28	78.57438397407532	fix_post	2		12.0	26.0	2.5	/experiments/knapen_aot/videos/R_S_yt-HQQws1Lp_rQ_10.mp4	0.0	171.25078415870667	0.09998393058776855
29	78.67436790466309	fix_pre	0		9.0	27.0	2.5	/experiments/knapen_aot/videos/S_yt--a-d97T4Gak_75.mp4	0.0	171.35076808929443	0.07500314712524414
29	78.74117684364319	response	0	2		27.0	2.5	/experiments/knapen_aot/videos/S_yt--a-d97T4Gak_75.mp4	0.0	171.41757702827454	
29	78.74937105178833	movie	1		301.0	27.0	2.5	/experiments/knapen_aot/videos/S_yt--a-d97T4Gak_75.mp4	0.0	171.42577123641968	2.508330821990967
29	81.2577018737793	fix_post	2		12.0	27.0	2.5	/experiments/knapen_aot/videos/S_yt--a-d97T4Gak_75.mp4	0.0	173.93410205841064	0.10004401206970215
30	81.357745885849	fix_pre	0		23.0	28.0	2.5	blank	1.0	174.03414607048035	0.1916179656982422
30	81.54110503196716	response	0	2		28.0	2.5	blank	1.0	174.2175052165985	
30	81.54936385154724	movie	1		301.0	28.0	2.5	blank	1.0	174.2257640361786	2.508268117904663
30	84.0576319694519	fix_post	2		12.0	28.0	2.5	blank	1.0	176.73403215408325	0.09996891021728516
31	84.15760087966919	fix_pre	0		36.0	29.0	2.5	/experiments/knapen_aot/videos/S_comp_LA_A011_C003_DGRN_LNFIX_STAB_v57_SDR_PS_20181002_SDR_2K_AVC.mp4	0.0	176.83400106430054	0.3000061511993408
31	84.44948887825012	response	0	2		29.0	2.5	/experiments/knapen_aot/videos/S_comp_LA_A011_C003_DGRN_LNFIX_STAB_v57_SDR_PS_20181002_SDR_2K_AVC.mp4	0.0	177.12588906288147	
31	84.45760703086853	movie	1		168.0	29.0	2.5	/experiments/knapen_aot/videos/S_comp_LA_A011_C003_DGRN_LNFIX_STAB_v57_SDR_PS_20181002_SDR_2K_AVC.mp4	0.0	177.13400721549988	2.508405923843384
31	86.96601295471191	fix_post	2		12.0	29.0	2.5	/experiments/knapen_aot/videos/S_comp_LA_A011_C003_DGRN_LNFIX_STAB_v57_SDR_PS_20181002_SDR_2K_AVC.mp4	0.0	179.64241313934326	0.10184192657470703
31	87.05772686004639	response	2	2		29.0	2.5	/experiments/knapen_aot/videos/S_comp_LA_A011_C003_DGRN_LNFIX_STAB_v57_SDR_PS_20181002_SDR_2K_AVC.mp4	0.0	179.73412704467773	
32	87.06785488128662	fix_pre	0		46.0	30.0	2.5	/experiments/knapen_aot/videos/R_S_yt-33PKaLVxDC4_2703.mp4	0.0	179.74425506591797	0.38180017471313477
32	87.44110584259033	response	0	2		30.0	2.5	/experiments/knapen_aot/videos/R_S_yt-33PKaLVxDC4_2703.mp4	0.0	180.11750602722168	
32	87.44965505599976	movie	1		301.0	30.0	2.5	/experiments/knapen_aot/videos/R_S_yt-33PKaLVxDC4_2703.mp4	0.0	180.1260552406311	2.5079569816589355
32	89.95761203765869	fix_post	2		12.0	30.0	2.5	/experiments/knapen_aot/videos/R_S_yt-33PKaLVxDC4_2703.mp4	0.0	182.63401222229004	0.10005784034729004
33	90.05766987800598	fix_pre	0		27.0	31.0	2.5	/experiments/knapen_aot/videos/S_yt-fQgLKiz2tuM_14.mp4	0.0	182.73407006263733	0.22536015510559082
33	90.27444005012512	response	0	2		31.0	2.5	/experiments/knapen_aot/videos/S_yt-fQgLKiz2tuM_14.mp4	0.0	182.95084023475647	
33	90.28303003311157	movie	1		301.0	31.0	2.5	/experiments/knapen_aot/videos/S_yt-fQgLKiz2tuM_14.mp4	0.0	182.95943021774292	2.5079519748687744
33	92.79098200798035	fix_post	2		12.0	31.0	2.5	/experiments/knapen_aot/videos/S_yt-fQgLKiz2tuM_14.mp4	0.0	185.4673821926117	0.09998583793640137
34	92.89096784591675	fix_pre	0		13.0	32.0	2.5	/experiments/knapen_aot/videos/S_yt-2cwARrUMj40_67.mp4	0.0	185.5673680305481	0.10833215713500977
34	92.98353505134583	response	0	2		32.0	2.5	/experiments/knapen_aot/videos/S_yt-2cwARrUMj40_67.mp4	0.0	185.65993523597717	
34	92.99930000305176	movie	1		301.0	32.0	2.5	/experiments/knapen_aot/videos/S_yt-2cwARrUMj40_67.mp4	0.0	185.6757001876831	2.508219003677368
34	95.50751900672913	fix_post	2		9.0	32.0	2.5	/experiments/knapen_aot/videos/S_yt-2cwARrUMj40_67.mp4	0.0	188.18391919136047	0.1000518798828125
35	95.60757088661194	fix_pre	0		7.0	33.0	2.5	blank	1.0	188.2839710712433	0.05839204788208008
35	95.65768790245056	response	0	2		33.0	2.5	blank	1.0	188.3340880870819	
35	95.66596293449402	movie	1		301.0	33.0	2.5	blank	1.0	188.34236311912537	2.508301019668579
35	98.1742639541626	fix_post	2		12.0	33.0	2.5	blank	1.0	190.85066413879395	0.09992289543151855
36	98.27418684959412	fix_pre	0		31.0	34.0	2.5	/experiments/knapen_aot/videos/S_yt-6mRpmfIvdew_1435.mp4	0.0	190.95058703422546	0.25879716873168945
36	98.52443289756775	response	0	2		34.0	2.5	/experiments/knapen_aot/videos/S_yt-6mRpmfIvdew_1435.mp4	0.0	191.2008330821991	
36	98.5329840183258	movie	1		301.0	34.0	2.5	/experiments/knapen_aot/videos/S_yt-6mRpmfIvdew_1435.mp4	0.0	191.20938420295715	2.5078558921813965
36	101.0408399105072	fix_post	2		12.0	34.0	2.5	/experiments/knapen_aot/videos/S_yt-6mRpmfIvdew_1435.mp4	0.0	193.71724009513855	0.10006999969482422
36	101.11655902862549	response	2	2		34.0	2.5	/experiments/knapen_aot/videos/S_yt-6mRpmfIvdew_1435.mp4	0.0	193.79295921325684	
37	101.14090991020203	fix_pre	0		44.0	35.0	2.5	/experiments/knapen_aot/videos/R_S_yt-fk-z6WCvjjA_3.mp4	0.0	193.81731009483337	0.3666551113128662
37	101.49947500228882	response	0	2		35.0	2.5	/experiments/knapen_aot/videos/R_S_yt-fk-z6WCvjjA_3.mp4	0.0	194.17587518692017	
37	101.50756502151489	movie	1		301.0	35.0	2.5	/experiments/knapen_aot/videos/R_S_yt-fk-z6WCvjjA_3.mp4	0.0	194.18396520614624	2.508352041244507
37	104.0159170627594	fix_post	2		12.0	35.0	2.5	/experiments/knapen_aot/videos/R_S_yt-fk-z6WCvjjA_3.mp4	0.0	196.69231724739075	0.10043096542358398
38	104.11634802818298	fix_pre	0		21.0	36.0	2.5	/experiments/knapen_aot/videos/R_S_yt-mQRzWCcKOR8_28.mp4	0.0	196.79274821281433	0.17456483840942383
38	104.28258895874023	response	0	2		36.0	2.5	/experiments/knapen_aot/videos/R_S_yt-mQRzWCcKOR8_28.mp4	0.0	196.95898914337158	
38	104.29091286659241	movie	1		301.0	36.0	2.5	/experiments/knapen_aot/videos/R_S_yt-mQRzWCcKOR8_28.mp4	0.0	196.96731305122375	2.5083110332489014
38	106.79922389984131	fix_post	2		12.0	36.0	2.5	/experiments/knapen_aot/videos/R_S_yt-mQRzWCcKOR8_28.mp4	0.0	199.47562408447266	0.10001516342163086
39	106.89923906326294	fix_pre	0		23.0	37.0	2.5	/experiments/knapen_aot/videos/S_yt-2V2tq9-O_Nc_1669.mp4	0.0	199.5756392478943	0.1916358470916748
39	107.0828070640564	response	0	2		37.0	2.5	/experiments/knapen_aot/videos/S_yt-2V2tq9-O_Nc_1669.mp4	0.0	199.75920724868774	
39	107.09087491035461	movie	1		301.0	37.0	2.5	/experiments/knapen_aot/videos/S_yt-2V2tq9-O_Nc_1669.mp4	0.0	199.76727509498596	2.508363962173462
39	109.59923887252808	fix_post	2		12.0	37.0	2.5	/experiments/knapen_aot/videos/S_yt-2V2tq9-O_Nc_1669.mp4	0.0	202.27563905715942	0.10000205039978027
40	109.69924092292786	fix_pre	0		19.0	38.0	2.5	/experiments/knapen_aot/videos/S_ILSVRC2015_train_00479000.mp4	0.0	202.3756411075592	0.1583409309387207
40	109.8492980003357	response	0	2		38.0	2.5	/experiments/knapen_aot/videos/S_ILSVRC2015_train_00479000.mp4	0.0	202.52569818496704	
40	109.85758185386658	movie	1		301.0	38.0	2.5	/experiments/knapen_aot/videos/S_ILSVRC2015_train_00479000.mp4	0.0	202.53398203849792	2.5083131790161133
40	112.36589503288269	fix_post	2		12.0	38.0	2.5	/experiments/knapen_aot/videos/S_ILSVRC2015_train_00479000.mp4	0.0	205.04229521751404	0.09999394416809082
41	112.46588897705078	fix_pre	0		57.0	39.0	2.5	/experiments/knapen_aot/videos/R_S_yt-SkIJvj6KNOo_33.mp4	0.0	205.14228916168213	0.475085973739624
41	112.93259882926941	response	0	2		39.0	2.5	/experiments/knapen_aot/videos/R_S_yt-SkIJvj6KNOo_33.mp4	0.0	205.60899901390076	
41	112.9409749507904	movie	1		301.0	39.0	2.5	/experiments/knapen_aot/videos/R_S_yt-SkIJvj6KNOo_33.mp4	0.0	205.61737513542175	2.508239984512329
41	115.44921493530273	fix_post	2		12.0	39.0	2.5	/experiments/knapen_aot/videos/R_S_yt-SkIJvj6KNOo_33.mp4	0.0	208.12561511993408	0.10002708435058594
42	115.54924201965332	fix_pre	0		20.0	40.0	2.5	/experiments/knapen_aot/videos/S_yt-ObT9gF8E_tU_250.mp4	0.0	208.22564220428467	0.16656899452209473
42	115.70763993263245	response	0	2		40.0	2.5	/experiments/knapen_aot/videos/S_yt-ObT9gF8E_tU_250.mp4	0.0	208.3840401172638	
42	115.71581101417542	movie	1		301.0	40.0	2.5	/experiments/knapen_aot/videos/S_yt-ObT9gF8E_tU_250.mp4	0.0	208.39221119880676	2.508347988128662
42	118.22415900230408	fix_post	2		12.0	40.0	2.5	/experiments/knapen_aot/videos/S_yt-ObT9gF8E_tU_250.mp4	0.0	210.90055918693542	0.09997797012329102
43	118.32413697242737	fix_pre	0		29.0	41.0	2.5	blank	1.0	211.00053715705872	0.24181604385375977
43	118.5577039718628	response	0	2		41.0	2.5	blank	1.0	211.23410415649414	
43	118.56595301628113	movie	1		301.0	41.0	2.5	blank	1.0	211.24235320091248	2.5082409381866455
43	121.07419395446777	fix_post	2		12.0	41.0	2.5	blank	1.0	213.75059413909912	0.09994697570800781
44	121.17414093017578	fix_pre	0		35.0	42.0	2.5	/experiments/knapen_aot/videos/S_ILSVRC2015_train_00469000.mp4	0.0	213.85054111480713	0.291672945022583
44	121.45762205123901	response	0	2		42.0	2.5	/experiments/knapen_aot/videos/S_ILSVRC2015_train_00469000.mp4	0.0	214.13402223587036	
44	121.46581387519836	movie	1		300.0	42.0	2.5	/experiments/knapen_aot/videos/S_ILSVRC2015_train_00469000.mp4	0.0	214.1422140598297	2.508385181427002
44	123.97419905662537	fix_post	2		12.0	42.0	2.5	/experiments/knapen_aot/videos/S_ILSVRC2015_train_00469000.mp4	0.0	216.6505992412567	0.10024690628051758
45	124.07444596290588	fix_pre	0		5.0	43.0	2.5	/experiments/knapen_aot/videos/S_pexels-ron-lach-8071987.mp4	0.0	216.75084614753723	0.04206109046936035
45	124.10774803161621	response	0	2		43.0	2.5	/experiments/knapen_aot/videos/S_pexels-ron-lach-8071987.mp4	0.0	216.78414821624756	
45	124.11650705337524	movie	1		195.0	43.0	2.5	/experiments/knapen_aot/videos/S_pexels-ron-lach-8071987.mp4	0.0	216.7929072380066	2.5076677799224854
45	126.62417483329773	fix_post	2		12.0	43.0	2.5	/experiments/knapen_aot/videos/S_pexels-ron-lach-8071987.mp4	0.0	219.30057501792908	0.1000070571899414
46	126.72418189048767	fix_pre	0		5.0	44.0	2.5	/experiments/knapen_aot/videos/S_yt-kINZMjys3O4_112.mp4	0.0	219.40058207511902	0.04166412353515625
46	126.7576470375061	response	0	2		44.0	2.5	/experiments/knapen_aot/videos/S_yt-kINZMjys3O4_112.mp4	0.0	219.43404722213745	
46	126.76584601402283	movie	1		301.0	44.0	2.5	/experiments/knapen_aot/videos/S_yt-kINZMjys3O4_112.mp4	0.0	219.44224619865417	2.5082919597625732
46	129.2741379737854	fix_post	2		12.0	44.0	2.5	/experiments/knapen_aot/videos/S_yt-kINZMjys3O4_112.mp4	0.0	221.95053815841675	0.10002899169921875
47	129.37416696548462	fix_pre	0		13.0	45.0	2.5	/experiments/knapen_aot/videos/S_pexels-c-technical-6753390_2.mp4	0.0	222.05056715011597	0.10826301574707031
47	129.47423696517944	response	0	2		45.0	2.5	/experiments/knapen_aot/videos/S_pexels-c-technical-6753390_2.mp4	0.0	222.1506371498108	
47	129.4824299812317	movie	1		191.0	45.0	2.5	/experiments/knapen_aot/videos/S_pexels-c-technical-6753390_2.mp4	0.0	222.15883016586304	2.5083279609680176
47	131.9907579421997	fix_post	2		12.0	45.0	2.5	/experiments/knapen_aot/videos/S_pexels-c-technical-6753390_2.mp4	0.0	224.66715812683105	0.09996700286865234
48	132.09072494506836	fix_pre	0		3.0	46.0	2.5	/experiments/knapen_aot/videos/R_S_ILSVRC2015_train_00584001.mp4	0.0	224.7671251296997	0.0255429744720459
48	132.1075620651245	response	0	2		46.0	2.5	/experiments/knapen_aot/videos/R_S_ILSVRC2015_train_00584001.mp4	0.0	224.78396224975586	
48	132.1162679195404	movie	1		300.0	46.0	2.5	/experiments/knapen_aot/videos/R_S_ILSVRC2015_train_00584001.mp4	0.0	224.79266810417175	2.507873058319092
48	134.6241409778595	fix_post	2		12.0	46.0	2.5	/experiments/knapen_aot/videos/R_S_ILSVRC2015_train_00584001.mp4	0.0	227.30054116249084	0.09998202323913574
49	134.72412300109863	fix_pre	0		6.0	47.0	2.5	blank	1.0	227.40052318572998	0.04999899864196777
49	134.76596689224243	response	0	2		47.0	2.5	blank	1.0	227.44236707687378	
49	134.7741219997406	movie	1		301.0	47.0	2.5	blank	1.0	227.45052218437195	2.508488893508911
49	137.2826108932495	fix_post	2		12.0	47.0	2.5	blank	1.0	229.95901107788086	0.09987211227416992
50	137.38248300552368	fix_pre	0		40.0	48.0	2.5	/experiments/knapen_aot/videos/S_BO_A014_C023_SDR_20190717_F240F3709_SDR_2K_AVC.mp4	0.0	230.05888319015503	0.33326196670532227
50	137.70754504203796	response	0	2		48.0	2.5	/experiments/knapen_aot/videos/S_BO_A014_C023_SDR_20190717_F240F3709_SDR_2K_AVC.mp4	0.0	230.3839452266693	
50	137.715744972229	movie	1		168.0	48.0	2.5	/experiments/knapen_aot/videos/S_BO_A014_C023_SDR_20190717_F240F3709_SDR_2K_AVC.mp4	0.0	230.39214515686035	2.5083398818969727
50	140.22408485412598	fix_post	2		12.0	48.0	2.5	/experiments/knapen_aot/videos/S_BO_A014_C023_SDR_20190717_F240F3709_SDR_2K_AVC.mp4	0.0	232.90048503875732	0.1001121997833252
51	140.3241970539093	fix_pre	0		31.0	49.0	2.5	/experiments/knapen_aot/videos/R_S_yt-JpOBXV46TLE_124.mp4	0.0	233.00059723854065	0.25820088386535645
51	140.5742268562317	response	0	2		49.0	2.5	/experiments/knapen_aot/videos/R_S_yt-JpOBXV46TLE_124.mp4	0.0	233.25062704086304	
51	140.58239793777466	movie	1		301.0	49.0	2.5	/experiments/knapen_aot/videos/R_S_yt-JpOBXV46TLE_124.mp4	0.0	233.258798122406	2.5083279609680176
51	143.09072589874268	fix_post	2		12.0	49.0	2.5	/experiments/knapen_aot/videos/R_S_yt-JpOBXV46TLE_124.mp4	0.0	235.76712608337402	0.10001802444458008
52	143.19074392318726	fix_pre	0		7.0	50.0	2.5	/experiments/knapen_aot/videos/R_S_yt-KpOAdMtPGFs_17.mp4	0.0	235.8671441078186	0.058457136154174805
52	143.2417540550232	response	0	2		50.0	2.5	/experiments/knapen_aot/videos/R_S_yt-KpOAdMtPGFs_17.mp4	0.0	235.91815423965454	
52	143.24920105934143	movie	1		301.0	50.0	2.5	/experiments/knapen_aot/videos/R_S_yt-KpOAdMtPGFs_17.mp4	0.0	235.92560124397278	2.508225917816162
52	145.7574269771576	fix_post	2		12.0	50.0	2.5	/experiments/knapen_aot/videos/R_S_yt-KpOAdMtPGFs_17.mp4	0.0	238.43382716178894	0.09997391700744629
53	145.85740089416504	fix_pre	0		48.0	51.0	2.5	/experiments/knapen_aot/videos/S_yt-7W50lcw5FCo_37.mp4	0.0	238.5338010787964	0.39998793601989746
53	146.24919605255127	response	0	2		51.0	2.5	/experiments/knapen_aot/videos/S_yt-7W50lcw5FCo_37.mp4	0.0	238.92559623718262	
53	146.25738883018494	movie	1		301.0	51.0	2.5	/experiments/knapen_aot/videos/S_yt-7W50lcw5FCo_37.mp4	0.0	238.93378901481628	2.508317232131958
53	148.7657060623169	fix_post	2		12.0	51.0	2.5	/experiments/knapen_aot/videos/S_yt-7W50lcw5FCo_37.mp4	0.0	241.44210624694824	0.10068583488464355
54	148.86639189720154	fix_pre	0		91.0	52.0	2.5	/experiments/knapen_aot/videos/S_wc-0SAXOWjdNVGC_8.mp4	0.0	241.54279208183289	0.7576510906219482
54	149.61589288711548	response	0	2		52.0	2.5	/experiments/knapen_aot/videos/S_wc-0SAXOWjdNVGC_8.mp4	0.0	242.29229307174683	
54	149.6240429878235	movie	1		167.0	52.0	2.5	/experiments/knapen_aot/videos/S_wc-0SAXOWjdNVGC_8.mp4	0.0	242.30044317245483	2.5083210468292236
54	152.1323640346527	fix_post	2		12.0	52.0	2.5	/experiments/knapen_aot/videos/S_wc-0SAXOWjdNVGC_8.mp4	0.0	244.80876421928406	0.10001993179321289
55	152.23238396644592	fix_pre	0		71.0	53.0	2.5	/experiments/knapen_aot/videos/S_yt-JpOBXV46TLE_124.mp4	0.0	244.90878415107727	0.5917320251464844
55	152.8157458305359	response	0	2		53.0	2.5	/experiments/knapen_aot/videos/S_yt-JpOBXV46TLE_124.mp4	0.0	245.49214601516724	
55	152.8241159915924	movie	1		301.0	53.0	2.5	/experiments/knapen_aot/videos/S_yt-JpOBXV46TLE_124.mp4	0.0	245.50051617622375	2.5082478523254395
55	155.33236384391785	fix_post	2		12.0	53.0	2.5	/experiments/knapen_aot/videos/S_yt-JpOBXV46TLE_124.mp4	0.0	248.0087640285492	0.10002017021179199
56	155.43238401412964	fix_pre	0		15.0	54.0	2.5	blank	1.0	248.108784198761	0.12492895126342773
56	155.54914689064026	response	0	2		54.0	2.5	blank	1.0	248.2255470752716	
56	155.55731296539307	movie	1		301.0	54.0	2.5	blank	1.0	248.2337131500244	2.5083870887756348
56	158.0657000541687	fix_post	2		12.0	54.0	2.5	blank	1.0	250.74210023880005	0.09996199607849121
57	158.1656620502472	fix_pre	0		43.0	55.0	2.5	/experiments/knapen_aot/videos/R_S_yt-yXJr3FR2xrM_27.mp4	0.0	250.84206223487854	0.358306884765625
57	158.5157549381256	response	0	2		55.0	2.5	/experiments/knapen_aot/videos/R_S_yt-yXJr3FR2xrM_27.mp4	0.0	251.19215512275696	
57	158.52396893501282	movie	1		301.0	55.0	2.5	/experiments/knapen_aot/videos/R_S_yt-yXJr3FR2xrM_27.mp4	0.0	251.20036911964417	2.5084660053253174
57	161.03243494033813	fix_post	2		12.0	55.0	2.5	/experiments/knapen_aot/videos/R_S_yt-yXJr3FR2xrM_27.mp4	0.0	253.70883512496948	0.09994292259216309
58	161.1323778629303	fix_pre	0		11.0	56.0	2.5	/experiments/knapen_aot/videos/R_S_yt-V4Oosy-ZtGY_193.mp4	0.0	253.80877804756165	0.09161901473999023
58	161.21576690673828	response	0	2		56.0	2.5	/experiments/knapen_aot/videos/R_S_yt-V4Oosy-ZtGY_193.mp4	0.0	253.89216709136963	
58	161.2239968776703	movie	1		301.0	56.0	2.5	/experiments/knapen_aot/videos/R_S_yt-V4Oosy-ZtGY_193.mp4	0.0	253.90039706230164	2.508366107940674
58	163.73236298561096	fix_post	2		12.0	56.0	2.5	/experiments/knapen_aot/videos/R_S_yt-V4Oosy-ZtGY_193.mp4	0.0	256.4087631702423	0.09991693496704102
59	163.832279920578	fix_pre	0		8.0	57.0	2.5	/experiments/knapen_aot/videos/S_flickr-evananderica-2662125519_8.mp4	0.0	256.50868010520935	0.06810903549194336
59	163.8910038471222	response	0	2		57.0	2.5	/experiments/knapen_aot/videos/S_flickr-evananderica-2662125519_8.mp4	0.0	256.56740403175354	
59	163.90038895606995	movie	1		298.0	57.0	2.5	/experiments/knapen_aot/videos/S_flickr-evananderica-2662125519_8.mp4	0.0	256.5767891407013	2.5069940090179443
59	166.4073829650879	fix_post	2		12.0	57.0	2.5	/experiments/knapen_aot/videos/S_flickr-evananderica-2662125519_8.mp4	0.0	259.08378314971924	0.09997987747192383
60	166.50736284255981	fix_pre	0		16.0	58.0	2.5	/experiments/knapen_aot/videos/R_S_yt-OTNdgakSIJE_97.mp4	0.0	259.18376302719116	0.13327312469482422
60	166.63239002227783	response	0	2		58.0	2.5	/experiments/knapen_aot/videos/R_S_yt-OTNdgakSIJE_97.mp4	0.0	259.3087902069092	
60	166.64063596725464	movie	1		301.0	58.0	2.5	/experiments/knapen_aot/videos/R_S_yt-OTNdgakSIJE_97.mp4	0.0	259.317036151886	2.5083670616149902
60	169.14900302886963	fix_post	2		12.0	58.0	2.5	/experiments/knapen_aot/videos/R_S_yt-OTNdgakSIJE_97.mp4	0.0	261.825403213501	0.0999898910522461
61	169.24899291992188	fix_pre	0		4.0	59.0	2.5	/experiments/knapen_aot/videos/R_S_ILSVRC2015_train_00379000.mp4	0.0	261.9253931045532	0.03339791297912598
61	169.26688599586487	response	0	2		59.0	2.5	/experiments/knapen_aot/videos/R_S_ILSVRC2015_train_00379000.mp4	0.0	261.9432861804962	
61	169.282390832901	movie	1		297.0	59.0	2.5	/experiments/knapen_aot/videos/R_S_ILSVRC2015_train_00379000.mp4	0.0	261.95879101753235	2.5081779956817627
61	171.79056882858276	fix_post	2		12.0	59.0	2.5	/experiments/knapen_aot/videos/R_S_ILSVRC2015_train_00379000.mp4	0.0	264.4669690132141	0.09997320175170898
61	171.88242197036743	response	2	2		59.0	2.5	/experiments/knapen_aot/videos/R_S_ILSVRC2015_train_00379000.mp4	0.0	264.5588221549988	
62	171.89054203033447	fix_pre	0		50.0	60.0	2.5	/experiments/knapen_aot/videos/S_yt-h09NHEfoKb0_8.mp4	0.0	264.5669422149658	0.4167039394378662
62	172.29900288581848	response	0	2		60.0	2.5	/experiments/knapen_aot/videos/S_yt-h09NHEfoKb0_8.mp4	0.0	264.97540307044983	
62	172.30724596977234	movie	1		301.0	60.0	2.5	/experiments/knapen_aot/videos/S_yt-h09NHEfoKb0_8.mp4	0.0	264.9836461544037	2.5084118843078613
62	174.8156578540802	fix_post	2		12.0	60.0	2.5	/experiments/knapen_aot/videos/S_yt-h09NHEfoKb0_8.mp4	0.0	267.49205803871155	0.09998297691345215
63	174.91564083099365	fix_pre	0		12.0	61.0	2.5	blank	1.0	267.592041015625	0.10001301765441895
63	175.00742983818054	response	0	2		61.0	2.5	blank	1.0	267.6838300228119	
63	175.01565384864807	movie	1		301.0	61.0	2.5	blank	1.0	267.6920540332794	2.508303165435791
63	177.52395701408386	fix_post	2		12.0	61.0	2.5	blank	1.0	270.2003571987152	0.09997296333312988
64	177.623929977417	fix_pre	0		29.0	62.0	2.5	/experiments/knapen_aot/videos/S_yt-NFb0SUCeiro_158.mp4	0.0	270.30033016204834	0.24164295196533203
64	177.85737705230713	response	0	2		62.0	2.5	/experiments/knapen_aot/videos/S_yt-NFb0SUCeiro_158.mp4	0.0	270.5337772369385	
64	177.86557292938232	movie	1		301.0	62.0	2.5	/experiments/knapen_aot/videos/S_yt-NFb0SUCeiro_158.mp4	0.0	270.5419731140137	2.508305072784424
64	180.37387800216675	fix_post	2		12.0	62.0	2.5	/experiments/knapen_aot/videos/S_yt-NFb0SUCeiro_158.mp4	0.0	273.0502781867981	0.10001587867736816
65	180.47389388084412	fix_pre	0		1.0	63.0	2.5	/experiments/knapen_aot/videos/R_S_yt-K_gHa2x2OQA_319.mp4	0.0	273.15029406547546	0.009768962860107422
65	180.4756519794464	response	0	2		63.0	2.5	/experiments/knapen_aot/videos/R_S_yt-K_gHa2x2OQA_319.mp4	0.0	273.15205216407776	
65	180.48366284370422	movie	1		301.0	63.0	2.5	/experiments/knapen_aot/videos/R_S_yt-K_gHa2x2OQA_319.mp4	0.0	273.16006302833557	2.506937026977539
65	182.99059987068176	fix_post	2		12.0	63.0	2.5	/experiments/knapen_aot/videos/R_S_yt-K_gHa2x2OQA_319.mp4	0.0	275.6670000553131	0.10001516342163086
65	183.05740785598755	response	2	2		63.0	2.5	/experiments/knapen_aot/videos/R_S_yt-K_gHa2x2OQA_319.mp4	0.0	275.7338080406189	
66	183.0906150341034	fix_pre	0		47.0	64.0	2.5	/experiments/knapen_aot/videos/S_yt-B7ZRYVhfW2U_52.mp4	0.0	275.76701521873474	0.3916199207305908
66	183.47400188446045	response	0	2		64.0	2.5	/experiments/knapen_aot/videos/S_yt-B7ZRYVhfW2U_52.mp4	0.0	276.1504020690918	
66	183.48223495483398	movie	1		301.0	64.0	2.5	/experiments/knapen_aot/videos/S_yt-B7ZRYVhfW2U_52.mp4	0.0	276.15863513946533	2.5083200931549072
66	185.9905550479889	fix_post	2		12.0	64.0	2.5	/experiments/knapen_aot/videos/S_yt-B7ZRYVhfW2U_52.mp4	0.0	278.66695523262024	0.10003781318664551
67	186.09059286117554	fix_pre	0		25.0	65.0	2.5	/experiments/knapen_aot/videos/S_yt-SS7pSyb0_d0_32.mp4	0.0	278.7669930458069	0.20831298828125
67	186.29073190689087	response	0	2		65.0	2.5	/experiments/knapen_aot/videos/S_yt-SS7pSyb0_d0_32.mp4	0.0	278.9671320915222	
67	186.2989058494568	movie	1		301.0	65.0	2.5	/experiments/knapen_aot/videos/S_yt-SS7pSyb0_d0_32.mp4	0.0	278.97530603408813	2.5083069801330566
67	188.80721282958984	fix_post	2		12.0	65.0	2.5	/experiments/knapen_aot/videos/S_yt-SS7pSyb0_d0_32.mp4	0.0	281.4836130142212	0.10001206398010254
68	188.90722489356995	fix_pre	0		10.0	66.0	2.5	/experiments/knapen_aot/videos/R_S_video_inspire_oregon_lone-ranch-beach_00001.1080-h264.mp4	0.0	281.5836250782013	0.08330798149108887
68	188.98234295845032	response	0	2		66.0	2.5	/experiments/knapen_aot/videos/R_S_video_inspire_oregon_lone-ranch-beach_00001.1080-h264.mp4	0.0	281.65874314308167	
68	188.99053287506104	movie	1		171.0	66.0	2.5	/experiments/knapen_aot/videos/R_S_video_inspire_oregon_lone-ranch-beach_00001.1080-h264.mp4	0.0	281.6669330596924	2.5083789825439453
68	191.49891185760498	fix_post	2		12.0	66.0	2.5	/experiments/knapen_aot/videos/R_S_video_inspire_oregon_lone-ranch-beach_00001.1080-h264.mp4	0.0	284.1753120422363	0.09995198249816895
69	191.59886384010315	fix_pre	0		27.0	67.0	2.5	/experiments/knapen_aot/videos/S_yt-kkbtZP78JxQ_96.mp4	0.0	284.2752640247345	0.2249600887298584
69	191.80823493003845	response	0	2		67.0	2.5	/experiments/knapen_aot/videos/S_yt-kkbtZP78JxQ_96.mp4	0.0	284.4846351146698	
69	191.823823928833	movie	1		301.0	67.0	2.5	/experiments/knapen_aot/videos/S_yt-kkbtZP78JxQ_96.mp4	0.0	284.50022411346436	2.5083959102630615
69	194.33221983909607	fix_post	2		12.0	67.0	2.5	/experiments/knapen_aot/videos/S_yt-kkbtZP78JxQ_96.mp4	0.0	287.0086200237274	0.09990620613098145
70	194.43212604522705	fix_pre	0		14.0	68.0	2.5	/experiments/knapen_aot/videos/S_yt-wrfAMDCg93Y_8.mp4	0.0	287.1085262298584	0.11672186851501465
70	194.54077982902527	response	0	2		68.0	2.5	/experiments/knapen_aot/videos/S_yt-wrfAMDCg93Y_8.mp4	0.0	287.2171800136566	
70	194.54884791374207	movie	1		297.0	68.0	2.5	/experiments/knapen_aot/videos/S_yt-wrfAMDCg93Y_8.mp4	0.0	287.2252480983734	2.5082950592041016
70	197.05714297294617	fix_post	2		12.0	68.0	2.5	/experiments/knapen_aot/videos/S_yt-wrfAMDCg93Y_8.mp4	0.0	289.7335431575775	0.10002493858337402
71	197.15716791152954	fix_pre	0		16.0	69.0	2.5	blank	1.0	289.8335680961609	0.13329100608825684
71	197.28228282928467	response	0	2		69.0	2.5	blank	1.0	289.958683013916	
71	197.2904589176178	movie	1		301.0	69.0	2.5	blank	1.0	289.96685910224915	2.5082809925079346
71	199.79873991012573	fix_post	2		12.0	69.0	2.5	blank	1.0	292.4751400947571	0.10008692741394043
72	199.89882683753967	fix_pre	0		30.0	70.0	2.5	/experiments/knapen_aot/videos/R_S_yt-zhQ32_OayBQ_39.mp4	0.0	292.575227022171	0.25
72	200.14061284065247	response	0	2		70.0	2.5	/experiments/knapen_aot/videos/R_S_yt-zhQ32_OayBQ_39.mp4	0.0	292.8170130252838	
72	200.14882683753967	movie	1		299.0	70.0	2.5	/experiments/knapen_aot/videos/R_S_yt-zhQ32_OayBQ_39.mp4	0.0	292.825227022171	2.5083141326904297
72	202.6571409702301	fix_post	2		12.0	70.0	2.5	/experiments/knapen_aot/videos/R_S_yt-zhQ32_OayBQ_39.mp4	0.0	295.33354115486145	0.10006093978881836
73	202.75720191001892	fix_pre	0		21.0	71.0	2.5	/experiments/knapen_aot/videos/S_yt-nQu-PAXBv2g_5.mp4	0.0	295.43360209465027	0.17498493194580078
73	202.92400288581848	response	0	2		71.0	2.5	/experiments/knapen_aot/videos/S_yt-nQu-PAXBv2g_5.mp4	0.0	295.60040307044983	
73	202.93218684196472	movie	1		301.0	71.0	2.5	/experiments/knapen_aot/videos/S_yt-nQu-PAXBv2g_5.mp4	0.0	295.60858702659607	2.5083141326904297
73	205.44050097465515	fix_post	2		12.0	71.0	2.5	/experiments/knapen_aot/videos/S_yt-nQu-PAXBv2g_5.mp4	0.0	298.1169011592865	0.10003495216369629
74	205.54053592681885	fix_pre	0		27.0	72.0	2.5	/experiments/knapen_aot/videos/R_S_ILSVRC2015_train_00518001.mp4	0.0	298.2169361114502	0.22503209114074707
74	205.7573070526123	response	0	2		72.0	2.5	/experiments/knapen_aot/videos/R_S_ILSVRC2015_train_00518001.mp4	0.0	298.43370723724365	
74	205.7655680179596	movie	1		301.0	72.0	2.5	/experiments/knapen_aot/videos/R_S_ILSVRC2015_train_00518001.mp4	0.0	298.44196820259094	2.5082390308380127
74	208.2738070487976	fix_post	2		12.0	72.0	2.5	/experiments/knapen_aot/videos/R_S_ILSVRC2015_train_00518001.mp4	0.0	300.95020723342896	0.09996986389160156
75	208.3737769126892	fix_pre	0		1.0	73.0	2.5	/experiments/knapen_aot/videos/R_S_yt-kINZMjys3O4_112.mp4	0.0	301.05017709732056	0.0083770751953125
75	208.37550592422485	response	0	2		73.0	2.5	/experiments/knapen_aot/videos/R_S_yt-kINZMjys3O4_112.mp4	0.0	301.0519061088562	
75	208.38215398788452	movie	1		301.0	73.0	2.5	/experiments/knapen_aot/videos/R_S_yt-kINZMjys3O4_112.mp4	0.0	301.05855417251587	2.508327007293701
75	210.89048099517822	fix_post	2		12.0	73.0	2.5	/experiments/knapen_aot/videos/R_S_yt-kINZMjys3O4_112.mp4	0.0	303.56688117980957	0.10002899169921875
76	210.99050998687744	fix_pre	0		15.0	74.0	2.5	/experiments/knapen_aot/videos/R_S_yt-lkpfs_4qAGE_50.mp4	0.0	303.6669101715088	0.12495899200439453
76	211.10723686218262	response	0	2		74.0	2.5	/experiments/knapen_aot/videos/R_S_yt-lkpfs_4qAGE_50.mp4	0.0	303.78363704681396	
76	211.11546897888184	movie	1		301.0	74.0	2.5	/experiments/knapen_aot/videos/R_S_yt-lkpfs_4qAGE_50.mp4	0.0	303.7918691635132	2.508296012878418
76	213.62376499176025	fix_post	2		12.0	74.0	2.5	/experiments/knapen_aot/videos/R_S_yt-lkpfs_4qAGE_50.mp4	0.0	306.3001651763916	0.10016489028930664
77	213.72392988204956	fix_pre	0		22.0	75.0	2.5	/experiments/knapen_aot/videos/R_S_yt-TxU1H5A6BaQ_52.mp4	0.0	306.4003300666809	0.1831960678100586
77	213.89150595664978	response	0	2		75.0	2.5	/experiments/knapen_aot/videos/R_S_yt-TxU1H5A6BaQ_52.mp4	0.0	306.5679061412811	
77	213.90712594985962	movie	1		301.0	75.0	2.5	/experiments/knapen_aot/videos/R_S_yt-TxU1H5A6BaQ_52.mp4	0.0	306.58352613449097	2.508315086364746
77	216.41544103622437	fix_post	2		12.0	75.0	2.5	/experiments/knapen_aot/videos/R_S_yt-TxU1H5A6BaQ_52.mp4	0.0	309.0918412208557	0.10001087188720703
78	216.51545190811157	fix_pre	0		26.0	76.0	2.5	/experiments/knapen_aot/videos/S_ILSVRC2015_train_00551000.mp4	0.0	309.1918520927429	0.21777796745300293
78	216.72392392158508	response	0	2		76.0	2.5	/experiments/knapen_aot/videos/S_ILSVRC2015_train_00551000.mp4	0.0	309.40032410621643	
78	216.73322987556458	movie	1		301.0	76.0	2.5	/experiments/knapen_aot/videos/S_ILSVRC2015_train_00551000.mp4	0.0	309.4096300601959	2.5072081089019775
78	219.24043798446655	fix_post	2		12.0	76.0	2.5	/experiments/knapen_aot/videos/S_ILSVRC2015_train_00551000.mp4	0.0	311.9168381690979	0.09997701644897461
79	219.34041500091553	fix_pre	0		26.0	77.0	2.5	blank	1.0	312.0168151855469	0.21665000915527344
79	219.54884696006775	response	0	2		77.0	2.5	blank	1.0	312.2252471446991	
79	219.5570650100708	movie	1		300.0	77.0	2.5	blank	1.0	312.23346519470215	2.5083179473876953
79	222.0653829574585	fix_post	2		12.0	77.0	2.5	blank	1.0	314.74178314208984	0.10000109672546387
80	222.16538405418396	fix_pre	0		30.0	78.0	2.5	/experiments/knapen_aot/videos/R_S_ILSVRC2015_train_00469000.mp4	0.0	314.8417842388153	0.249985933303833
80	222.40724897384644	response	0	2		78.0	2.5	/experiments/knapen_aot/videos/R_S_ILSVRC2015_train_00469000.mp4	0.0	315.0836491584778	
80	222.4153699874878	movie	1		301.0	78.0	2.5	/experiments/knapen_aot/videos/R_S_ILSVRC2015_train_00469000.mp4	0.0	315.09177017211914	2.5083189010620117
80	224.9236888885498	fix_post	2		12.0	78.0	2.5	/experiments/knapen_aot/videos/R_S_ILSVRC2015_train_00469000.mp4	0.0	317.60008907318115	0.10007596015930176
81	225.0237648487091	fix_pre	0		2.0	79.0	2.5	/experiments/knapen_aot/videos/S_yt-HRuCkU_kBoE_239.mp4	0.0	317.70016503334045	0.016662120819091797
81	225.0321569442749	response	0	2		79.0	2.5	/experiments/knapen_aot/videos/S_yt-HRuCkU_kBoE_239.mp4	0.0	317.70855712890625	
81	225.0404269695282	movie	1		301.0	79.0	2.5	/experiments/knapen_aot/videos/S_yt-HRuCkU_kBoE_239.mp4	0.0	317.71682715415955	2.508254051208496
81	227.5486810207367	fix_post	2		12.0	79.0	2.5	/experiments/knapen_aot/videos/S_yt-HRuCkU_kBoE_239.mp4	0.0	320.22508120536804	0.09998583793640137
82	227.6486668586731	fix_pre	0		15.0	80.0	2.5	/experiments/knapen_aot/videos/S_flickr-reginahart-31964450591_23.mp4	0.0	320.32506704330444	0.1262052059173584
82	227.76550197601318	response	0	2		80.0	2.5	/experiments/knapen_aot/videos/S_flickr-reginahart-31964450591_23.mp4	0.0	320.44190216064453	
82	227.77487206459045	movie	1		168.0	80.0	2.5	/experiments/knapen_aot/videos/S_flickr-reginahart-31964450591_23.mp4	0.0	320.4512722492218	2.5071909427642822
82	230.28206300735474	fix_post	2		12.0	80.0	2.5	/experiments/knapen_aot/videos/S_flickr-reginahart-31964450591_23.mp4	0.0	322.9584631919861	0.09991288185119629
83	230.38197588920593	fix_pre	0		1.0	81.0	2.5	/experiments/knapen_aot/videos/S_yt-7VVzNnp36DM_62.mp4	0.0	323.0583760738373	0.010977029800415039
83	230.3837490081787	response	0	2		81.0	2.5	/experiments/knapen_aot/videos/S_yt-7VVzNnp36DM_62.mp4	0.0	323.06014919281006	
83	230.39295291900635	movie	1		301.0	81.0	2.5	/experiments/knapen_aot/videos/S_yt-7VVzNnp36DM_62.mp4	0.0	323.0693531036377	2.505722999572754
83	232.8986759185791	fix_post	2		12.0	81.0	2.5	/experiments/knapen_aot/videos/S_yt-7VVzNnp36DM_62.mp4	0.0	325.57507610321045	0.10006904602050781
84	232.9987449645996	fix_pre	0		15.0	82.0	2.5	blank	1.0	325.67514514923096	0.12491893768310547
84	233.11555004119873	response	0	2		82.0	2.5	blank	1.0	325.7919502258301	
84	233.12366390228271	movie	1		301.0	82.0	2.5	blank	1.0	325.80006408691406	2.5083539485931396
84	235.63201785087585	fix_post	2		12.0	82.0	2.5	blank	1.0	328.3084180355072	0.0999760627746582
85	235.7319939136505	fix_pre	0		18.0	83.0	2.5	/experiments/knapen_aot/videos/S_ILSVRC2015_train_00638001.mp4	0.0	328.40839409828186	0.1499800682067871
85	235.87379693984985	response	0	2		83.0	2.5	/experiments/knapen_aot/videos/S_ILSVRC2015_train_00638001.mp4	0.0	328.5501971244812	
85	235.8819739818573	movie	1		298.0	83.0	2.5	/experiments/knapen_aot/videos/S_ILSVRC2015_train_00638001.mp4	0.0	328.55837416648865	2.508430004119873
85	238.39040398597717	fix_post	2		12.0	83.0	2.5	/experiments/knapen_aot/videos/S_ILSVRC2015_train_00638001.mp4	0.0	331.0668041706085	0.09995102882385254
87	238.49035501480103	stim	0		94.0					331.1667551994324	0.7843420505523682
87	238.56549286842346	response	0	2						331.2418930530548	
87	239.27000498771667	response	0	space						331.946405172348	
