trial_nr	onset	event_type	phase	response	nr_frames	movie_index	movie_duration	movie_file	blank	onset_abs	duration
0	0.14984703063964844	stim	0		83.0					103.56199789047241	0.6941838264465332
0	0.8334648609161377	response	0	space						104.2456157207489	
1	0.8440308570861816	stim	0		121.0					104.25618171691895	1.0055761337280273
1	1.849606990814209	stim	1		120.0					105.26175785064697	0.9998979568481445
1	2.3413898944854736	response	1	space						105.75354075431824	
2	2.8495049476623535	fix_pre	0		72.0	0.0	2.5	/experiments/knapen_aot/videos/S_yt-Q6BFO3Yz0zY_363.mp4	0.0	106.26165580749512	0.6000370979309082
2	3.441344976425171	response	0	space		0.0	2.5	/experiments/knapen_aot/videos/S_yt-Q6BFO3Yz0zY_363.mp4	0.0	106.85349583625793	
2	3.4495420455932617	movie	1		300.0	0.0	2.5	/experiments/knapen_aot/videos/S_yt-Q6BFO3Yz0zY_363.mp4	0.0	106.86169290542603	2.508392810821533
2	5.957934856414795	fix_post	2		12.0	0.0	2.5	/experiments/knapen_aot/videos/S_yt-Q6BFO3Yz0zY_363.mp4	0.0	109.37008571624756	0.10002708435058594
3	6.057961940765381	fix_pre	0		8.0	1.0	2.5	/experiments/knapen_aot/videos/S_yt-hMyqUMAbFAk_303.mp4	0.0	109.47011280059814	0.0704500675201416
3	6.1140148639678955	response	0	2		1.0	2.5	/experiments/knapen_aot/videos/S_yt-hMyqUMAbFAk_303.mp4	0.0	109.52616572380066	
3	6.1284120082855225	movie	1		298.0	1.0	2.5	/experiments/knapen_aot/videos/S_yt-hMyqUMAbFAk_303.mp4	0.0	109.54056286811829	2.504556894302368
3	8.63296890258789	fix_post	2		11.0	1.0	2.5	/experiments/knapen_aot/videos/S_yt-hMyqUMAbFAk_303.mp4	0.0	112.04511976242065	0.09992098808288574
4	8.732889890670776	fix_pre	0		11.0	2.0	2.5	/experiments/knapen_aot/videos/R_S_yt-jcuaf9iSEkI_169.mp4	0.0	112.14504075050354	0.09163808822631836
4	8.816349983215332	response	0	2		2.0	2.5	/experiments/knapen_aot/videos/R_S_yt-jcuaf9iSEkI_169.mp4	0.0	112.2285008430481	
4	8.824527978897095	movie	1		301.0	2.0	2.5	/experiments/knapen_aot/videos/R_S_yt-jcuaf9iSEkI_169.mp4	0.0	112.23667883872986	2.5083329677581787
4	11.332860946655273	fix_post	2		12.0	2.0	2.5	/experiments/knapen_aot/videos/R_S_yt-jcuaf9iSEkI_169.mp4	0.0	114.74501180648804	0.09999704360961914
5	11.432857990264893	fix_pre	0		7.0	3.0	2.5	/experiments/knapen_aot/videos/R_S_yt-hHdxZ26SImA_17.mp4	0.0	114.84500885009766	0.058403968811035156
5	11.483075857162476	response	0	2		3.0	2.5	/experiments/knapen_aot/videos/R_S_yt-hHdxZ26SImA_17.mp4	0.0	114.89522671699524	
5	11.491261959075928	movie	1		301.0	3.0	2.5	/experiments/knapen_aot/videos/R_S_yt-hHdxZ26SImA_17.mp4	0.0	114.90341281890869	2.5082850456237793
5	13.999547004699707	fix_post	2		12.0	3.0	2.5	/experiments/knapen_aot/videos/R_S_yt-hHdxZ26SImA_17.mp4	0.0	117.41169786453247	0.09999299049377441
6	14.099539995193481	fix_pre	0		21.0	4.0	2.5	/experiments/knapen_aot/videos/S_yt-Ev39pXXfr1Y_152.mp4	0.0	117.51169085502625	0.17497897148132324
6	14.266284942626953	response	0	2		4.0	2.5	/experiments/knapen_aot/videos/S_yt-Ev39pXXfr1Y_152.mp4	0.0	117.67843580245972	
6	14.274518966674805	movie	1		301.0	4.0	2.5	/experiments/knapen_aot/videos/S_yt-Ev39pXXfr1Y_152.mp4	0.0	117.68666982650757	2.5083229541778564
6	16.78284192085266	fix_post	2		12.0	4.0	2.5	/experiments/knapen_aot/videos/S_yt-Ev39pXXfr1Y_152.mp4	0.0	120.19499278068542	0.09999394416809082
7	16.882835865020752	fix_pre	0		7.0	5.0	2.5	/experiments/knapen_aot/videos/S_yt-OdTWn1U1mO4_68.mp4	0.0	120.29498672485352	0.05832505226135254
7	16.93303394317627	response	0	2		5.0	2.5	/experiments/knapen_aot/videos/S_yt-OdTWn1U1mO4_68.mp4	0.0	120.34518480300903	
7	16.941160917282104	movie	1		301.0	5.0	2.5	/experiments/knapen_aot/videos/S_yt-OdTWn1U1mO4_68.mp4	0.0	120.35331177711487	2.5083560943603516
7	19.449517011642456	fix_post	2		12.0	5.0	2.5	/experiments/knapen_aot/videos/S_yt-OdTWn1U1mO4_68.mp4	0.0	122.86166787147522	0.10002493858337402
8	19.54954195022583	fix_pre	0		18.0	6.0	2.5	blank	1.0	122.9616928100586	0.14992904663085938
8	19.691321849822998	response	0	2		6.0	2.5	blank	1.0	123.10347270965576	
8	19.69947099685669	movie	1		301.0	6.0	2.5	blank	1.0	123.11162185668945	2.5084028244018555
8	22.207873821258545	fix_post	2		12.0	6.0	2.5	blank	1.0	125.62002468109131	0.09995317459106445
9	22.30782699584961	fix_pre	0		14.0	7.0	2.5	/experiments/knapen_aot/videos/R_S_yt-gaXgXGEanCk_140.mp4	0.0	125.71997785568237	0.11665487289428711
9	22.40876603126526	response	0	2		7.0	2.5	/experiments/knapen_aot/videos/R_S_yt-gaXgXGEanCk_140.mp4	0.0	125.82091689109802	
9	22.424481868743896	movie	1		301.0	7.0	2.5	/experiments/knapen_aot/videos/R_S_yt-gaXgXGEanCk_140.mp4	0.0	125.83663272857666	2.5082881450653076
9	24.932770013809204	fix_post	2		12.0	7.0	2.5	/experiments/knapen_aot/videos/R_S_yt-gaXgXGEanCk_140.mp4	0.0	128.34492087364197	0.10003900527954102
9	24.974747896194458	response	2	2		7.0	2.5	/experiments/knapen_aot/videos/R_S_yt-gaXgXGEanCk_140.mp4	0.0	128.38689875602722	
10	25.032809019088745	fix_pre	0		48.0	8.0	2.5	/experiments/knapen_aot/videos/R_S_production_ID_3943965.mp4	0.0	128.4449598789215	0.40091991424560547
10	25.42455291748047	response	0	2		8.0	2.5	/experiments/knapen_aot/videos/R_S_production_ID_3943965.mp4	0.0	128.83670377731323	
10	25.43372893333435	movie	1		204.0	8.0	2.5	/experiments/knapen_aot/videos/R_S_production_ID_3943965.mp4	0.0	128.84587979316711	2.5073959827423096
10	27.94112491607666	fix_post	2		12.0	8.0	2.5	/experiments/knapen_aot/videos/R_S_production_ID_3943965.mp4	0.0	131.35327577590942	0.09992408752441406
11	28.041049003601074	fix_pre	0		16.0	9.0	2.5	/experiments/knapen_aot/videos/R_S_ILSVRC2015_test_00001002.mp4	0.0	131.45319986343384	0.13339996337890625
11	28.16624903678894	response	0	2		9.0	2.5	/experiments/knapen_aot/videos/R_S_ILSVRC2015_test_00001002.mp4	0.0	131.5783998966217	
11	28.17444896697998	movie	1		301.0	9.0	2.5	/experiments/knapen_aot/videos/R_S_ILSVRC2015_test_00001002.mp4	0.0	131.58659982681274	2.5083720684051514
11	30.682821035385132	fix_post	2		12.0	9.0	2.5	/experiments/knapen_aot/videos/R_S_ILSVRC2015_test_00001002.mp4	0.0	134.0949718952179	0.09999990463256836
12	30.7828209400177	fix_pre	0		18.0	10.0	2.5	/experiments/knapen_aot/videos/S_yt-b0IfGcoHfD0_83.mp4	0.0	134.19497179985046	0.15085887908935547
12	30.92461395263672	response	0	2		10.0	2.5	/experiments/knapen_aot/videos/S_yt-b0IfGcoHfD0_83.mp4	0.0	134.33676481246948	
12	30.933679819107056	movie	1		301.0	10.0	2.5	/experiments/knapen_aot/videos/S_yt-b0IfGcoHfD0_83.mp4	0.0	134.34583067893982	2.507449150085449
12	33.441128969192505	fix_post	2		12.0	10.0	2.5	/experiments/knapen_aot/videos/S_yt-b0IfGcoHfD0_83.mp4	0.0	136.85327982902527	0.09995698928833008
13	33.541085958480835	fix_pre	0		24.0	11.0	2.5	/experiments/knapen_aot/videos/R_S_yt-y6zr69M0yHI_76.mp4	0.0	136.9532368183136	0.20003485679626465
13	33.73284983634949	response	0	2		11.0	2.5	/experiments/knapen_aot/videos/R_S_yt-y6zr69M0yHI_76.mp4	0.0	137.14500069618225	
13	33.7411208152771	movie	1		301.0	11.0	2.5	/experiments/knapen_aot/videos/R_S_yt-y6zr69M0yHI_76.mp4	0.0	137.15327167510986	2.508261203765869
13	36.24938201904297	fix_post	2		12.0	11.0	2.5	/experiments/knapen_aot/videos/R_S_yt-y6zr69M0yHI_76.mp4	0.0	139.66153287887573	0.0999908447265625
14	36.34937286376953	fix_pre	0		33.0	12.0	2.5	/experiments/knapen_aot/videos/S_yt-xvIZtEVkebk_462.mp4	0.0	139.7615237236023	0.2750070095062256
14	36.61625385284424	response	0	2		12.0	2.5	/experiments/knapen_aot/videos/S_yt-xvIZtEVkebk_462.mp4	0.0	140.028404712677	
14	36.62437987327576	movie	1		301.0	12.0	2.5	/experiments/knapen_aot/videos/S_yt-xvIZtEVkebk_462.mp4	0.0	140.03653073310852	2.508392095565796
14	39.13277196884155	fix_post	2		12.0	12.0	2.5	/experiments/knapen_aot/videos/S_yt-xvIZtEVkebk_462.mp4	0.0	142.54492282867432	0.09999394416809082
15	39.232765913009644	fix_pre	0		11.0	13.0	2.5	blank	1.0	142.6449167728424	0.09160208702087402
15	39.316407918930054	response	0	2		13.0	2.5	blank	1.0	142.72855877876282	
15	39.32436800003052	movie	1		301.0	13.0	2.5	blank	1.0	142.73651885986328	2.5083768367767334
15	41.83274483680725	fix_post	2		12.0	13.0	2.5	blank	1.0	145.24489569664001	0.10089516639709473
16	41.933640003204346	fix_pre	0		14.0	14.0	2.5	/experiments/knapen_aot/videos/R_S_yt-BCFGCganiuE_8.mp4	0.0	145.3457908630371	0.11573195457458496
16	42.04114484786987	response	0	2		14.0	2.5	/experiments/knapen_aot/videos/R_S_yt-BCFGCganiuE_8.mp4	0.0	145.45329570770264	
16	42.04937195777893	movie	1		301.0	14.0	2.5	/experiments/knapen_aot/videos/R_S_yt-BCFGCganiuE_8.mp4	0.0	145.4615228176117	2.5083870887756348
16	44.557759046554565	fix_post	2		12.0	14.0	2.5	/experiments/knapen_aot/videos/R_S_yt-BCFGCganiuE_8.mp4	0.0	147.96990990638733	0.09997987747192383
17	44.65773892402649	fix_pre	0		29.0	15.0	2.5	/experiments/knapen_aot/videos/S_production_ID_4325591.mp4	0.0	148.06988978385925	0.24154996871948242
17	44.89122700691223	response	0	2		15.0	2.5	/experiments/knapen_aot/videos/S_production_ID_4325591.mp4	0.0	148.303377866745	
17	44.89928889274597	movie	1		198.0	15.0	2.5	/experiments/knapen_aot/videos/S_production_ID_4325591.mp4	0.0	148.31143975257874	2.5084409713745117
17	47.40772986412048	fix_post	2		11.0	15.0	2.5	/experiments/knapen_aot/videos/S_production_ID_4325591.mp4	0.0	150.81988072395325	0.0999901294708252
18	47.50771999359131	fix_pre	0		11.0	16.0	2.5	/experiments/knapen_aot/videos/S_yt-bmGWhOCsvJo_128.mp4	0.0	150.91987085342407	0.09250497817993164
18	47.583645820617676	response	0	2		16.0	2.5	/experiments/knapen_aot/videos/S_yt-bmGWhOCsvJo_128.mp4	0.0	150.99579668045044	
18	47.60022497177124	movie	1		301.0	16.0	2.5	/experiments/knapen_aot/videos/S_yt-bmGWhOCsvJo_128.mp4	0.0	151.012375831604	2.507473945617676
18	50.107698917388916	fix_post	2		12.0	16.0	2.5	/experiments/knapen_aot/videos/S_yt-bmGWhOCsvJo_128.mp4	0.0	153.51984977722168	0.10003399848937988
19	50.207732915878296	fix_pre	0		15.0	17.0	2.5	/experiments/knapen_aot/videos/R_S_production_ID_3943965.mp4	0.0	153.61988377571106	0.12495994567871094
19	50.324440002441406	response	0	2		17.0	2.5	/experiments/knapen_aot/videos/R_S_production_ID_3943965.mp4	0.0	153.73659086227417	
19	50.33269286155701	movie	1		184.0	17.0	2.5	/experiments/knapen_aot/videos/R_S_production_ID_3943965.mp4	0.0	153.74484372138977	2.5083370208740234
19	52.84102988243103	fix_post	2		12.0	17.0	2.5	/experiments/knapen_aot/videos/R_S_production_ID_3943965.mp4	0.0	156.2531807422638	0.10002398490905762
20	52.94105386734009	fix_pre	0		16.0	18.0	2.5	/experiments/knapen_aot/videos/S_yt-M_ApPnq00iE_67.mp4	0.0	156.35320472717285	0.13332104682922363
20	53.066213846206665	response	0	2		18.0	2.5	/experiments/knapen_aot/videos/S_yt-M_ApPnq00iE_67.mp4	0.0	156.47836470603943	
20	53.07437491416931	movie	1		301.0	18.0	2.5	/experiments/knapen_aot/videos/S_yt-M_ApPnq00iE_67.mp4	0.0	156.48652577400208	2.5083119869232178
20	55.58268690109253	fix_post	2		12.0	18.0	2.5	/experiments/knapen_aot/videos/S_yt-M_ApPnq00iE_67.mp4	0.0	158.9948377609253	0.10002303123474121
21	55.68270993232727	fix_pre	0		11.0	19.0	2.5	/experiments/knapen_aot/videos/S_yt-SkIJvj6KNOo_33.mp4	0.0	159.09486079216003	0.09164905548095703
21	55.766106843948364	response	0	2		19.0	2.5	/experiments/knapen_aot/videos/S_yt-SkIJvj6KNOo_33.mp4	0.0	159.17825770378113	
21	55.77435898780823	movie	1		301.0	19.0	2.5	/experiments/knapen_aot/videos/S_yt-SkIJvj6KNOo_33.mp4	0.0	159.186509847641	2.508281946182251
21	58.28264093399048	fix_post	2		12.0	19.0	2.5	/experiments/knapen_aot/videos/S_yt-SkIJvj6KNOo_33.mp4	0.0	161.69479179382324	0.10007309913635254
22	58.38271403312683	fix_pre	0		9.0	20.0	2.5	blank	1.0	161.7948648929596	0.0749509334564209
22	58.44942283630371	response	0	2		20.0	2.5	blank	1.0	161.86157369613647	
22	58.45766496658325	movie	1		301.0	20.0	2.5	blank	1.0	161.86981582641602	2.508236885070801
22	60.96590185165405	fix_post	2		12.0	20.0	2.5	blank	1.0	164.37805271148682	0.10006213188171387
23	61.06596398353577	fix_pre	0		20.0	21.0	2.5	/experiments/knapen_aot/videos/S_yt-CNq5mTA8oXY_176.mp4	0.0	164.47811484336853	0.16667985916137695
23	61.22433400154114	response	0	2		21.0	2.5	/experiments/knapen_aot/videos/S_yt-CNq5mTA8oXY_176.mp4	0.0	164.6364848613739	
23	61.232643842697144	movie	1		300.0	21.0	2.5	/experiments/knapen_aot/videos/S_yt-CNq5mTA8oXY_176.mp4	0.0	164.6447947025299	2.5083370208740234
23	63.74098086357117	fix_post	2		12.0	21.0	2.5	/experiments/knapen_aot/videos/S_yt-CNq5mTA8oXY_176.mp4	0.0	167.15313172340393	0.09999418258666992
24	63.84097504615784	fix_pre	0		3.0	22.0	2.5	/experiments/knapen_aot/videos/S_ILSVRC2015_train_00693000.mp4	0.0	167.2531259059906	0.024928808212280273
24	63.85778498649597	response	0	2		22.0	2.5	/experiments/knapen_aot/videos/S_ILSVRC2015_train_00693000.mp4	0.0	167.26993584632874	
24	63.86590385437012	movie	1		299.0	22.0	2.5	/experiments/knapen_aot/videos/S_ILSVRC2015_train_00693000.mp4	0.0	167.27805471420288	2.5083911418914795
24	66.3742949962616	fix_post	2		12.0	22.0	2.5	/experiments/knapen_aot/videos/S_ILSVRC2015_train_00693000.mp4	0.0	169.78644585609436	0.10003495216369629
25	66.4743299484253	fix_pre	0		6.0	23.0	2.5	/experiments/knapen_aot/videos/R_S_video-4.mp4	0.0	169.88648080825806	0.050013065338134766
25	66.50886988639832	response	0	2		23.0	2.5	/experiments/knapen_aot/videos/R_S_video-4.mp4	0.0	169.92102074623108	
25	66.52434301376343	movie	1		163.0	23.0	2.5	/experiments/knapen_aot/videos/R_S_video-4.mp4	0.0	169.9364938735962	2.5082669258117676
25	69.0326099395752	fix_post	2		12.0	23.0	2.5	/experiments/knapen_aot/videos/R_S_video-4.mp4	0.0	172.44476079940796	0.10004591941833496
26	69.13265585899353	fix_pre	0		14.0	24.0	2.5	/experiments/knapen_aot/videos/S_yt-SyePE8wOlxs_321.mp4	0.0	172.5448067188263	0.11660003662109375
26	69.24110794067383	response	0	2		24.0	2.5	/experiments/knapen_aot/videos/S_yt-SyePE8wOlxs_321.mp4	0.0	172.6532588005066	
26	69.24925589561462	movie	1		301.0	24.0	2.5	/experiments/knapen_aot/videos/S_yt-SyePE8wOlxs_321.mp4	0.0	172.6614067554474	2.508310079574585
26	71.75756597518921	fix_post	2		12.0	24.0	2.5	/experiments/knapen_aot/videos/S_yt-SyePE8wOlxs_321.mp4	0.0	175.16971683502197	0.10001397132873535
27	71.85757994651794	fix_pre	0		6.0	25.0	2.5	/experiments/knapen_aot/videos/R_S_pexels-mikhail-nilov-8410088.mp4	0.0	175.2697308063507	0.05000901222229004
27	71.89946389198303	response	0	2		25.0	2.5	/experiments/knapen_aot/videos/R_S_pexels-mikhail-nilov-8410088.mp4	0.0	175.3116147518158	
27	71.90758895874023	movie	1		168.0	25.0	2.5	/experiments/knapen_aot/videos/R_S_pexels-mikhail-nilov-8410088.mp4	0.0	175.319739818573	2.508310079574585
27	74.41589903831482	fix_post	2		12.0	25.0	2.5	/experiments/knapen_aot/videos/R_S_pexels-mikhail-nilov-8410088.mp4	0.0	177.82804989814758	0.09997892379760742
28	74.51587796211243	fix_pre	0		5.0	26.0	2.5	blank	1.0	177.9280288219452	0.04274106025695801
28	74.54948592185974	response	0	2		26.0	2.5	blank	1.0	177.9616367816925	
28	74.55861902236938	movie	1		301.0	26.0	2.5	blank	1.0	177.97076988220215	2.5072948932647705
28	77.06591391563416	fix_post	2		12.0	26.0	2.5	blank	1.0	180.47806477546692	0.10001707077026367
29	77.16593098640442	fix_pre	0		42.0	27.0	2.5	/experiments/knapen_aot/videos/S_yt-aiDGx4AN8J0_9.mp4	0.0	180.57808184623718	0.3506200313568115
29	77.50763988494873	response	0	2		27.0	2.5	/experiments/knapen_aot/videos/S_yt-aiDGx4AN8J0_9.mp4	0.0	180.9197907447815	
29	77.51655101776123	movie	1		299.0	27.0	2.5	/experiments/knapen_aot/videos/S_yt-aiDGx4AN8J0_9.mp4	0.0	180.928701877594	2.507694959640503
29	80.02424597740173	fix_post	2		12.0	27.0	2.5	/experiments/knapen_aot/videos/S_yt-aiDGx4AN8J0_9.mp4	0.0	183.4363968372345	0.1000058650970459
30	80.12425184249878	fix_pre	0		6.0	28.0	2.5	/experiments/knapen_aot/videos/S_yt-C0INfEJ4Awk_53.mp4	0.0	183.53640270233154	0.05001711845397949
30	80.16603684425354	response	0	2		28.0	2.5	/experiments/knapen_aot/videos/S_yt-C0INfEJ4Awk_53.mp4	0.0	183.5781877040863	
30	80.17426896095276	movie	1		301.0	28.0	2.5	/experiments/knapen_aot/videos/S_yt-C0INfEJ4Awk_53.mp4	0.0	183.58641982078552	2.5082340240478516
30	82.68250298500061	fix_post	2		12.0	28.0	2.5	/experiments/knapen_aot/videos/S_yt-C0INfEJ4Awk_53.mp4	0.0	186.09465384483337	0.10002493858337402
31	82.78252792358398	fix_pre	0		5.0	29.0	2.5	/experiments/knapen_aot/videos/S_yt-CJeyOFsd3lg_80.mp4	0.0	186.19467878341675	0.0417780876159668
31	82.81597089767456	response	0	2		29.0	2.5	/experiments/knapen_aot/videos/S_yt-CJeyOFsd3lg_80.mp4	0.0	186.22812175750732	
31	82.82430601119995	movie	1		301.0	29.0	2.5	/experiments/knapen_aot/videos/S_yt-CJeyOFsd3lg_80.mp4	0.0	186.23645687103271	2.5081989765167236
31	85.33250498771667	fix_post	2		12.0	29.0	2.5	/experiments/knapen_aot/videos/S_yt-CJeyOFsd3lg_80.mp4	0.0	188.74465584754944	0.10002994537353516
32	85.43253493309021	fix_pre	0		16.0	30.0	2.5	/experiments/knapen_aot/videos/R_S_yt-6DJulOrg2-8_122.mp4	0.0	188.84468579292297	0.13333606719970703
32	85.55020689964294	response	0	2		30.0	2.5	/experiments/knapen_aot/videos/R_S_yt-6DJulOrg2-8_122.mp4	0.0	188.9623577594757	
32	85.56587100028992	movie	1		301.0	30.0	2.5	/experiments/knapen_aot/videos/R_S_yt-6DJulOrg2-8_122.mp4	0.0	188.97802186012268	2.508307933807373
32	88.07417893409729	fix_post	2		12.0	30.0	2.5	/experiments/knapen_aot/videos/R_S_yt-6DJulOrg2-8_122.mp4	0.0	191.48632979393005	0.09997797012329102
33	88.17415690422058	fix_pre	0		8.0	31.0	2.5	/experiments/knapen_aot/videos/R_S_ILSVRC2015_train_00574004.mp4	0.0	191.58630776405334	0.06666803359985352
33	88.23267602920532	response	0	2		31.0	2.5	/experiments/knapen_aot/videos/R_S_ILSVRC2015_train_00574004.mp4	0.0	191.6448268890381	
33	88.24082493782043	movie	1		301.0	31.0	2.5	/experiments/knapen_aot/videos/R_S_ILSVRC2015_train_00574004.mp4	0.0	191.6529757976532	2.508363962173462
33	90.7491888999939	fix_post	2		12.0	31.0	2.5	/experiments/knapen_aot/videos/R_S_ILSVRC2015_train_00574004.mp4	0.0	194.16133975982666	0.09998297691345215
34	90.84917187690735	fix_pre	0		14.0	32.0	2.5	/experiments/knapen_aot/videos/R_S_ILSVRC2015_train_00693000.mp4	0.0	194.2613227367401	0.11669015884399414
34	90.9576690196991	response	0	2		32.0	2.5	/experiments/knapen_aot/videos/R_S_ILSVRC2015_train_00693000.mp4	0.0	194.36981987953186	
34	90.96586203575134	movie	1		301.0	32.0	2.5	/experiments/knapen_aot/videos/R_S_ILSVRC2015_train_00693000.mp4	0.0	194.3780128955841	2.508335828781128
34	93.47419786453247	fix_post	2		12.0	32.0	2.5	/experiments/knapen_aot/videos/R_S_ILSVRC2015_train_00693000.mp4	0.0	196.88634872436523	0.10005617141723633
35	93.5742540359497	fix_pre	0		5.0	33.0	2.5	/experiments/knapen_aot/videos/S_ILSVRC2015_train_00559000.mp4	0.0	196.98640489578247	0.04153585433959961
35	93.6076819896698	response	0	2		33.0	2.5	/experiments/knapen_aot/videos/S_ILSVRC2015_train_00559000.mp4	0.0	197.01983284950256	
35	93.6157898902893	movie	1		301.0	33.0	2.5	/experiments/knapen_aot/videos/S_ILSVRC2015_train_00559000.mp4	0.0	197.02794075012207	2.508207082748413
35	96.12399697303772	fix_post	2		12.0	33.0	2.5	/experiments/knapen_aot/videos/S_ILSVRC2015_train_00559000.mp4	0.0	199.53614783287048	0.10017991065979004
36	96.22417688369751	fix_pre	0		2.0	34.0	2.5	/experiments/knapen_aot/videos/S_pexels-tima-miroshnichenko-5717005.mp4	0.0	199.63632774353027	0.0167391300201416
36	96.23252582550049	response	0	2		34.0	2.5	/experiments/knapen_aot/videos/S_pexels-tima-miroshnichenko-5717005.mp4	0.0	199.64467668533325	
36	96.24091601371765	movie	1		164.0	34.0	2.5	/experiments/knapen_aot/videos/S_pexels-tima-miroshnichenko-5717005.mp4	0.0	199.65306687355042	2.5082459449768066
36	98.74916195869446	fix_post	2		12.0	34.0	2.5	/experiments/knapen_aot/videos/S_pexels-tima-miroshnichenko-5717005.mp4	0.0	202.16131281852722	0.10000801086425781
37	98.84916996955872	fix_pre	0		8.0	35.0	2.5	blank	1.0	202.26132082939148	0.06665706634521484
37	98.90761685371399	response	0	2		35.0	2.5	blank	1.0	202.31976771354675	
37	98.91582703590393	movie	1		301.0	35.0	2.5	blank	1.0	202.3279778957367	2.5082459449768066
37	101.42407298088074	fix_post	2		12.0	35.0	2.5	blank	1.0	204.8362238407135	0.10007596015930176
38	101.52414894104004	fix_pre	0		24.0	36.0	2.5	/experiments/knapen_aot/videos/R_S_yt-Faxdis4m3Fw_9.mp4	0.0	204.9362998008728	0.20055007934570312
38	101.71582889556885	response	0	2		36.0	2.5	/experiments/knapen_aot/videos/R_S_yt-Faxdis4m3Fw_9.mp4	0.0	205.1279797554016	
38	101.72469902038574	movie	1		299.0	36.0	2.5	/experiments/knapen_aot/videos/R_S_yt-Faxdis4m3Fw_9.mp4	0.0	205.1368498802185	2.507797956466675
38	104.23249697685242	fix_post	2		12.0	36.0	2.5	/experiments/knapen_aot/videos/R_S_yt-Faxdis4m3Fw_9.mp4	0.0	207.64464783668518	0.09999203681945801
39	104.33248901367188	fix_pre	0		12.0	37.0	2.5	/experiments/knapen_aot/videos/S_production_ID_4325591.mp4	0.0	207.74463987350464	0.1005549430847168
39	104.4243369102478	response	0	2		37.0	2.5	/experiments/knapen_aot/videos/S_production_ID_4325591.mp4	0.0	207.83648777008057	
39	104.43304395675659	movie	1		184.0	37.0	2.5	/experiments/knapen_aot/videos/S_production_ID_4325591.mp4	0.0	207.84519481658936	2.5077080726623535
39	106.94075202941895	fix_post	2		12.0	37.0	2.5	/experiments/knapen_aot/videos/S_production_ID_4325591.mp4	0.0	210.3529028892517	0.1000528335571289
40	107.04080486297607	fix_pre	0		16.0	38.0	2.5	/experiments/knapen_aot/videos/S_yt-7e6Z9QQieAk_183.mp4	0.0	210.45295572280884	0.13340497016906738
40	107.16597390174866	response	0	2		38.0	2.5	/experiments/knapen_aot/videos/S_yt-7e6Z9QQieAk_183.mp4	0.0	210.57812476158142	
40	107.17420983314514	movie	1		301.0	38.0	2.5	/experiments/knapen_aot/videos/S_yt-7e6Z9QQieAk_183.mp4	0.0	210.5863606929779	2.508301019668579
40	109.68251085281372	fix_post	2		12.0	38.0	2.5	/experiments/knapen_aot/videos/S_yt-7e6Z9QQieAk_183.mp4	0.0	213.09466171264648	0.09992599487304688
41	109.78243684768677	fix_pre	0		23.0	39.0	2.5	/experiments/knapen_aot/videos/S_yt-hZxbKZ1WCVg_24.mp4	0.0	213.19458770751953	0.19218897819519043
41	109.96595096588135	response	0	2		39.0	2.5	/experiments/knapen_aot/videos/S_yt-hZxbKZ1WCVg_24.mp4	0.0	213.3781018257141	
41	109.97462582588196	movie	1		301.0	39.0	2.5	/experiments/knapen_aot/videos/S_yt-hZxbKZ1WCVg_24.mp4	0.0	213.38677668571472	2.507824182510376
41	112.48245000839233	fix_post	2		12.0	39.0	2.5	/experiments/knapen_aot/videos/S_yt-hZxbKZ1WCVg_24.mp4	0.0	215.8946008682251	0.09995603561401367
42	112.58240604400635	fix_pre	0		8.0	40.0	2.5	/experiments/knapen_aot/videos/R_S_ILSVRC2015_train_00434000.mp4	0.0	215.9945569038391	0.06670379638671875
42	112.64087891578674	response	0	2		40.0	2.5	/experiments/knapen_aot/videos/R_S_ILSVRC2015_train_00434000.mp4	0.0	216.0530297756195	
42	112.64910984039307	movie	1		299.0	40.0	2.5	/experiments/knapen_aot/videos/R_S_ILSVRC2015_train_00434000.mp4	0.0	216.06126070022583	2.508247137069702
42	115.15735697746277	fix_post	2		12.0	40.0	2.5	/experiments/knapen_aot/videos/R_S_ILSVRC2015_train_00434000.mp4	0.0	218.56950783729553	0.09999489784240723
43	115.25735187530518	fix_pre	0		2.0	41.0	2.5	blank	1.0	218.66950273513794	0.01666712760925293
43	115.26648187637329	response	0	2		41.0	2.5	blank	1.0	218.67863273620605	
43	115.27401900291443	movie	1		301.0	41.0	2.5	blank	1.0	218.6861698627472	2.5082709789276123
43	117.78228998184204	fix_post	2		12.0	41.0	2.5	blank	1.0	221.1944408416748	0.10004401206970215
44	117.88233399391174	fix_pre	0		19.0	42.0	2.5	/experiments/knapen_aot/videos/R_S_yt-bmGWhOCsvJo_128.mp4	0.0	221.2944848537445	0.1584029197692871
44	118.02499985694885	response	0	2		42.0	2.5	/experiments/knapen_aot/videos/R_S_yt-bmGWhOCsvJo_128.mp4	0.0	221.43715071678162	
44	118.04073691368103	movie	1		301.0	42.0	2.5	/experiments/knapen_aot/videos/R_S_yt-bmGWhOCsvJo_128.mp4	0.0	221.4528877735138	2.5082740783691406
44	120.54901099205017	fix_post	2		12.0	42.0	2.5	/experiments/knapen_aot/videos/R_S_yt-bmGWhOCsvJo_128.mp4	0.0	223.96116185188293	0.10004496574401855
45	120.64905595779419	fix_pre	0		13.0	43.0	2.5	/experiments/knapen_aot/videos/R_S_yt-6aqg1P9YqR8_38.mp4	0.0	224.06120681762695	0.10827207565307617
45	120.74917602539062	response	0	2		43.0	2.5	/experiments/knapen_aot/videos/R_S_yt-6aqg1P9YqR8_38.mp4	0.0	224.1613268852234	
45	120.75732803344727	movie	1		301.0	43.0	2.5	/experiments/knapen_aot/videos/R_S_yt-6aqg1P9YqR8_38.mp4	0.0	224.16947889328003	2.5083799362182617
45	123.26570796966553	fix_post	2		12.0	43.0	2.5	/experiments/knapen_aot/videos/R_S_yt-6aqg1P9YqR8_38.mp4	0.0	226.6778588294983	0.09999799728393555
46	123.36570596694946	fix_pre	0		18.0	44.0	2.5	/experiments/knapen_aot/videos/S_production_ID_3709168.mp4	0.0	226.77785682678223	0.15039801597595215
46	123.5074110031128	response	0	2		44.0	2.5	/experiments/knapen_aot/videos/S_production_ID_3709168.mp4	0.0	226.91956186294556	
46	123.51610398292542	movie	1		212.0	44.0	2.5	/experiments/knapen_aot/videos/S_production_ID_3709168.mp4	0.0	226.92825484275818	2.507962942123413
46	126.02406692504883	fix_post	2		12.0	44.0	2.5	/experiments/knapen_aot/videos/S_production_ID_3709168.mp4	0.0	229.4362177848816	0.0999460220336914
47	126.12401294708252	fix_pre	0		15.0	45.0	2.5	/experiments/knapen_aot/videos/S_yt-O6FS0xnF0CU_106.mp4	0.0	229.53616380691528	0.12492203712463379
47	126.2407648563385	response	0	2		45.0	2.5	/experiments/knapen_aot/videos/S_yt-O6FS0xnF0CU_106.mp4	0.0	229.65291571617126	
47	126.24893498420715	movie	1		299.0	45.0	2.5	/experiments/knapen_aot/videos/S_yt-O6FS0xnF0CU_106.mp4	0.0	229.66108584403992	2.5083508491516113
47	128.75728583335876	fix_post	2		12.0	45.0	2.5	/experiments/knapen_aot/videos/S_yt-O6FS0xnF0CU_106.mp4	0.0	232.16943669319153	0.1000661849975586
48	128.85735201835632	fix_pre	0		42.0	46.0	2.5	/experiments/knapen_aot/videos/S_Pexels_Videos_2786546.mp4	0.0	232.2695028781891	0.3499438762664795
48	129.19912695884705	response	0	2		46.0	2.5	/experiments/knapen_aot/videos/S_Pexels_Videos_2786546.mp4	0.0	232.6112778186798	
48	129.2072958946228	movie	1		166.0	46.0	2.5	/experiments/knapen_aot/videos/S_Pexels_Videos_2786546.mp4	0.0	232.61944675445557	2.5083510875701904
48	131.715646982193	fix_post	2		12.0	46.0	2.5	/experiments/knapen_aot/videos/S_Pexels_Videos_2786546.mp4	0.0	235.12779784202576	0.09994387626647949
49	131.81559085845947	fix_pre	0		22.0	47.0	2.5	blank	1.0	235.22774171829224	0.18333697319030762
49	131.99077200889587	response	0	2		47.0	2.5	blank	1.0	235.40292286872864	
49	131.99892783164978	movie	1		301.0	47.0	2.5	blank	1.0	235.41107869148254	2.50832200050354
49	134.50724983215332	fix_post	2		12.0	47.0	2.5	blank	1.0	237.91940069198608	0.10004806518554688
50	134.60729789733887	fix_pre	0		23.0	48.0	2.5	/experiments/knapen_aot/videos/R_S_I005_C008_CROP_SDR_2K_AVC.mp4	0.0	238.01944875717163	0.1916210651397705
50	134.79084587097168	response	0	2		48.0	2.5	/experiments/knapen_aot/videos/R_S_I005_C008_CROP_SDR_2K_AVC.mp4	0.0	238.20299673080444	
50	134.79891896247864	movie	1		172.0	48.0	2.5	/experiments/knapen_aot/videos/R_S_I005_C008_CROP_SDR_2K_AVC.mp4	0.0	238.2110698223114	2.5084240436553955
50	137.30734300613403	fix_post	2		12.0	48.0	2.5	/experiments/knapen_aot/videos/R_S_I005_C008_CROP_SDR_2K_AVC.mp4	0.0	240.7194938659668	0.09994888305664062
50	137.3658618927002	response	2	2		48.0	2.5	/experiments/knapen_aot/videos/R_S_I005_C008_CROP_SDR_2K_AVC.mp4	0.0	240.77801275253296	
51	137.40729188919067	fix_pre	0		37.0	49.0	2.5	/experiments/knapen_aot/videos/S_yt-IyxCMODHSSE_29.mp4	0.0	240.81944274902344	0.3083009719848633
51	137.70740699768066	response	0	2		49.0	2.5	/experiments/knapen_aot/videos/S_yt-IyxCMODHSSE_29.mp4	0.0	241.11955785751343	
51	137.71559286117554	movie	1		301.0	49.0	2.5	/experiments/knapen_aot/videos/S_yt-IyxCMODHSSE_29.mp4	0.0	241.1277437210083	2.5083391666412354
51	140.22393202781677	fix_post	2		12.0	49.0	2.5	/experiments/knapen_aot/videos/S_yt-IyxCMODHSSE_29.mp4	0.0	243.63608288764954	0.10002899169921875
52	140.323961019516	fix_pre	0		19.0	50.0	2.5	/experiments/knapen_aot/videos/R_S_g201_TH_803_A001_8_SDR_20191031_SDR_2K_AVC.mp4	0.0	243.73611187934875	0.15829086303710938
52	140.47409296035767	response	0	2		50.0	2.5	/experiments/knapen_aot/videos/R_S_g201_TH_803_A001_8_SDR_20191031_SDR_2K_AVC.mp4	0.0	243.88624382019043	
52	140.4822518825531	movie	1		170.0	50.0	2.5	/experiments/knapen_aot/videos/R_S_g201_TH_803_A001_8_SDR_20191031_SDR_2K_AVC.mp4	0.0	243.89440274238586	2.5083861351013184
52	142.99063801765442	fix_post	2		12.0	50.0	2.5	/experiments/knapen_aot/videos/R_S_g201_TH_803_A001_8_SDR_20191031_SDR_2K_AVC.mp4	0.0	246.40278887748718	0.09997797012329102
53	143.0906159877777	fix_pre	0		7.0	51.0	2.5	/experiments/knapen_aot/videos/R_S_ILSVRC2015_train_00495000.mp4	0.0	246.50276684761047	0.05830883979797363
53	143.14126992225647	response	0	2		51.0	2.5	/experiments/knapen_aot/videos/R_S_ILSVRC2015_train_00495000.mp4	0.0	246.55342078208923	
53	143.14892482757568	movie	1		301.0	51.0	2.5	/experiments/knapen_aot/videos/R_S_ILSVRC2015_train_00495000.mp4	0.0	246.56107568740845	2.508350133895874
53	145.65727496147156	fix_post	2		12.0	51.0	2.5	/experiments/knapen_aot/videos/R_S_ILSVRC2015_train_00495000.mp4	0.0	249.06942582130432	0.09999585151672363
54	145.75727081298828	fix_pre	0		19.0	52.0	2.5	/experiments/knapen_aot/videos/R_S_PA_A002_C009_SDR_20190730_ALT01_SDR_2K_AVC.mp4	0.0	249.16942167282104	0.15831518173217773
54	145.907320022583	response	0	2		52.0	2.5	/experiments/knapen_aot/videos/R_S_PA_A002_C009_SDR_20190730_ALT01_SDR_2K_AVC.mp4	0.0	249.31947088241577	
54	145.91558599472046	movie	1		171.0	52.0	2.5	/experiments/knapen_aot/videos/R_S_PA_A002_C009_SDR_20190730_ALT01_SDR_2K_AVC.mp4	0.0	249.32773685455322	2.50826096534729
54	148.42384696006775	fix_post	2		12.0	52.0	2.5	/experiments/knapen_aot/videos/R_S_PA_A002_C009_SDR_20190730_ALT01_SDR_2K_AVC.mp4	0.0	251.8359978199005	0.10009193420410156
55	148.52393889427185	fix_pre	0		13.0	53.0	2.5	/experiments/knapen_aot/videos/R_S_yt-FsXOl6JjzSY_15.mp4	0.0	251.93608975410461	0.1083230972290039
55	148.61649990081787	response	0	2		53.0	2.5	/experiments/knapen_aot/videos/R_S_yt-FsXOl6JjzSY_15.mp4	0.0	252.02865076065063	
55	148.63226199150085	movie	1		301.0	53.0	2.5	/experiments/knapen_aot/videos/R_S_yt-FsXOl6JjzSY_15.mp4	0.0	252.04441285133362	2.5082850456237793
55	151.14054703712463	fix_post	2		12.0	53.0	2.5	/experiments/knapen_aot/videos/R_S_yt-FsXOl6JjzSY_15.mp4	0.0	254.5526978969574	0.09999680519104004
56	151.24054384231567	fix_pre	0		33.0	54.0	2.5	/experiments/knapen_aot/videos/S_ILSVRC2015_train_00408000.mp4	0.0	254.65269470214844	0.275313138961792
56	151.50736594200134	response	0	2		54.0	2.5	/experiments/knapen_aot/videos/S_ILSVRC2015_train_00408000.mp4	0.0	254.9195168018341	
56	151.51585698127747	movie	1		301.0	54.0	2.5	/experiments/knapen_aot/videos/S_ILSVRC2015_train_00408000.mp4	0.0	254.92800784111023	2.508044958114624
56	154.0239019393921	fix_post	2		12.0	54.0	2.5	/experiments/knapen_aot/videos/S_ILSVRC2015_train_00408000.mp4	0.0	257.43605279922485	0.09991598129272461
57	154.12381792068481	fix_pre	0		58.0	55.0	2.5	/experiments/knapen_aot/videos/R_S_yt-sTBOjPxix5c_1072.mp4	0.0	257.5359687805176	0.4833719730377197
57	154.59889698028564	response	0	2		55.0	2.5	/experiments/knapen_aot/videos/R_S_yt-sTBOjPxix5c_1072.mp4	0.0	258.0110478401184	
57	154.60718989372253	movie	1		301.0	55.0	2.5	/experiments/knapen_aot/videos/R_S_yt-sTBOjPxix5c_1072.mp4	0.0	258.0193407535553	2.508376121520996
57	157.11556601524353	fix_post	2		12.0	55.0	2.5	/experiments/knapen_aot/videos/R_S_yt-sTBOjPxix5c_1072.mp4	0.0	260.5277168750763	0.09997892379760742
58	157.21554493904114	fix_pre	0		26.0	56.0	2.5	blank	1.0	260.6276957988739	0.216933012008667
58	157.4239058494568	response	0	2		56.0	2.5	blank	1.0	260.83605670928955	
58	157.4324779510498	movie	1		301.0	56.0	2.5	blank	1.0	260.84462881088257	2.508064031600952
58	159.94054198265076	fix_post	2		12.0	56.0	2.5	blank	1.0	263.3526928424835	0.09997391700744629
59	160.0405158996582	fix_pre	0		26.0	57.0	2.5	/experiments/knapen_aot/videos/S_yt-KLInd-KrK_w_19.mp4	0.0	263.45266675949097	0.2166581153869629
59	160.24896883964539	response	0	2		57.0	2.5	/experiments/knapen_aot/videos/S_yt-KLInd-KrK_w_19.mp4	0.0	263.66111969947815	
59	160.25717401504517	movie	1		301.0	57.0	2.5	/experiments/knapen_aot/videos/S_yt-KLInd-KrK_w_19.mp4	0.0	263.66932487487793	2.5086770057678223
59	162.765851020813	fix_post	2		12.0	57.0	2.5	/experiments/knapen_aot/videos/S_yt-KLInd-KrK_w_19.mp4	0.0	266.17800188064575	0.09969592094421387
60	162.8655469417572	fix_pre	0		13.0	58.0	2.5	/experiments/knapen_aot/videos/R_S_yt-1ruRqcfBMw0_21.mp4	0.0	266.27769780158997	0.10854101181030273
60	162.9656879901886	response	0	2		58.0	2.5	/experiments/knapen_aot/videos/R_S_yt-1ruRqcfBMw0_21.mp4	0.0	266.37783885002136	
60	162.9740879535675	movie	1		300.0	58.0	2.5	/experiments/knapen_aot/videos/R_S_yt-1ruRqcfBMw0_21.mp4	0.0	266.38623881340027	2.5080909729003906
60	165.4821789264679	fix_post	2		12.0	58.0	2.5	/experiments/knapen_aot/videos/R_S_yt-1ruRqcfBMw0_21.mp4	0.0	268.89432978630066	0.09997200965881348
61	165.5821509361267	fix_pre	0		11.0	59.0	2.5	/experiments/knapen_aot/videos/S_yt-11VGDAOVEag_8.mp4	0.0	268.9943017959595	0.09165191650390625
61	165.66558504104614	response	0	2		59.0	2.5	/experiments/knapen_aot/videos/S_yt-11VGDAOVEag_8.mp4	0.0	269.0777359008789	
61	165.67380285263062	movie	1		301.0	59.0	2.5	/experiments/knapen_aot/videos/S_yt-11VGDAOVEag_8.mp4	0.0	269.0859537124634	2.5085690021514893
61	168.1823718547821	fix_post	2		12.0	59.0	2.5	/experiments/knapen_aot/videos/S_yt-11VGDAOVEag_8.mp4	0.0	271.59452271461487	0.09985804557800293
62	168.2822299003601	fix_pre	0		17.0	60.0	2.5	/experiments/knapen_aot/videos/S_yt--vHa85DHvLU_31.mp4	0.0	271.69438076019287	0.14159607887268066
62	168.40813493728638	response	0	2		60.0	2.5	/experiments/knapen_aot/videos/S_yt--vHa85DHvLU_31.mp4	0.0	271.82028579711914	
62	168.4238259792328	movie	1		301.0	60.0	2.5	/experiments/knapen_aot/videos/S_yt--vHa85DHvLU_31.mp4	0.0	271.83597683906555	2.5085558891296387
62	170.93238186836243	fix_post	2		12.0	60.0	2.5	/experiments/knapen_aot/videos/S_yt--vHa85DHvLU_31.mp4	0.0	274.3445327281952	0.09973597526550293
63	171.03211784362793	fix_pre	0		8.0	61.0	2.5	/experiments/knapen_aot/videos/S_yt-QxNuo4ojvz4_420.mp4	0.0	274.4442687034607	0.066864013671875
63	171.0905590057373	response	0	2		61.0	2.5	/experiments/knapen_aot/videos/S_yt-QxNuo4ojvz4_420.mp4	0.0	274.50270986557007	
63	171.0989818572998	movie	1		301.0	61.0	2.5	/experiments/knapen_aot/videos/S_yt-QxNuo4ojvz4_420.mp4	0.0	274.51113271713257	2.508213996887207
63	173.607195854187	fix_post	2		12.0	61.0	2.5	/experiments/knapen_aot/videos/S_yt-QxNuo4ojvz4_420.mp4	0.0	277.0193467140198	0.09999799728393555
64	173.70719385147095	fix_pre	0		31.0	62.0	2.5	blank	1.0	277.1193447113037	0.25826406478881836
64	173.95734095573425	response	0	2		62.0	2.5	blank	1.0	277.369491815567	
64	173.96545791625977	movie	1		301.0	62.0	2.5	blank	1.0	277.37760877609253	2.5085439682006836
64	176.47400188446045	fix_post	2		12.0	62.0	2.5	blank	1.0	279.8861527442932	0.0998380184173584
65	176.5738399028778	fix_pre	0		24.0	63.0	2.5	/experiments/knapen_aot/videos/R_S_yt-EuyfT0PuOoQ_91.mp4	0.0	279.98599076271057	0.1999809741973877
65	176.76562595367432	response	0	2		63.0	2.5	/experiments/knapen_aot/videos/R_S_yt-EuyfT0PuOoQ_91.mp4	0.0	280.1777768135071	
65	176.7738208770752	movie	1		300.0	63.0	2.5	/experiments/knapen_aot/videos/R_S_yt-EuyfT0PuOoQ_91.mp4	0.0	280.18597173690796	2.5083460807800293
65	179.28216695785522	fix_post	2		12.0	63.0	2.5	/experiments/knapen_aot/videos/R_S_yt-EuyfT0PuOoQ_91.mp4	0.0	282.694317817688	0.09997892379760742
66	179.38214588165283	fix_pre	0		16.0	64.0	2.5	/experiments/knapen_aot/videos/S_yt-mL3MuCfKtdY_79.mp4	0.0	282.7942967414856	0.1334240436553955
66	179.50728702545166	response	0	2		64.0	2.5	/experiments/knapen_aot/videos/S_yt-mL3MuCfKtdY_79.mp4	0.0	282.9194378852844	
66	179.51556992530823	movie	1		301.0	64.0	2.5	/experiments/knapen_aot/videos/S_yt-mL3MuCfKtdY_79.mp4	0.0	282.927720785141	2.508136034011841
66	182.02370595932007	fix_post	2		12.0	64.0	2.5	/experiments/knapen_aot/videos/S_yt-mL3MuCfKtdY_79.mp4	0.0	285.43585681915283	0.1000518798828125
67	182.12375783920288	fix_pre	0		15.0	65.0	2.5	/experiments/knapen_aot/videos/S_yt-K-iCphzt_RE_17.mp4	0.0	285.53590869903564	0.12496209144592285
67	182.2405140399933	response	0	2		65.0	2.5	/experiments/knapen_aot/videos/S_yt-K-iCphzt_RE_17.mp4	0.0	285.65266489982605	
67	182.2487199306488	movie	1		301.0	65.0	2.5	/experiments/knapen_aot/videos/S_yt-K-iCphzt_RE_17.mp4	0.0	285.66087079048157	2.5084149837493896
67	184.7571349143982	fix_post	2		12.0	65.0	2.5	/experiments/knapen_aot/videos/S_yt-K-iCphzt_RE_17.mp4	0.0	288.16928577423096	0.09995698928833008
68	184.85709190368652	fix_pre	0		38.0	66.0	2.5	/experiments/knapen_aot/videos/R_S_b6-4.mp4	0.0	288.2692427635193	0.3165700435638428
68	185.1655628681183	response	0	2		66.0	2.5	/experiments/knapen_aot/videos/R_S_b6-4.mp4	0.0	288.57771372795105	
68	185.17366194725037	movie	1		169.0	66.0	2.5	/experiments/knapen_aot/videos/R_S_b6-4.mp4	0.0	288.58581280708313	2.508629083633423
68	187.6822910308838	fix_post	2		12.0	66.0	2.5	/experiments/knapen_aot/videos/R_S_b6-4.mp4	0.0	291.09444189071655	0.09977483749389648
68	187.73225498199463	response	2	2		66.0	2.5	/experiments/knapen_aot/videos/R_S_b6-4.mp4	0.0	291.1444058418274	
69	187.78206586837769	fix_pre	0		34.0	67.0	2.5	/experiments/knapen_aot/videos/R_S_yt-utYnOeoj2Rw_3.mp4	0.0	291.19421672821045	0.2832939624786377
69	188.05721187591553	response	0	2		67.0	2.5	/experiments/knapen_aot/videos/R_S_yt-utYnOeoj2Rw_3.mp4	0.0	291.4693627357483	
69	188.06535983085632	movie	1		300.0	67.0	2.5	/experiments/knapen_aot/videos/R_S_yt-utYnOeoj2Rw_3.mp4	0.0	291.4775106906891	2.508385181427002
69	190.57374501228333	fix_post	2		12.0	67.0	2.5	/experiments/knapen_aot/videos/R_S_yt-utYnOeoj2Rw_3.mp4	0.0	293.9858958721161	0.0999298095703125
70	190.67367482185364	fix_pre	0		18.0	68.0	2.5	/experiments/knapen_aot/videos/S_yt-Fm97IY0Z2LU_110.mp4	0.0	294.0858256816864	0.15005207061767578
70	190.81542801856995	response	0	2		68.0	2.5	/experiments/knapen_aot/videos/S_yt-Fm97IY0Z2LU_110.mp4	0.0	294.2275788784027	
70	190.8237268924713	movie	1		301.0	68.0	2.5	/experiments/knapen_aot/videos/S_yt-Fm97IY0Z2LU_110.mp4	0.0	294.2358777523041	2.508312940597534
70	193.33203983306885	fix_post	2		12.0	68.0	2.5	/experiments/knapen_aot/videos/S_yt-Fm97IY0Z2LU_110.mp4	0.0	296.7441906929016	0.10013818740844727
71	193.4321780204773	fix_pre	0		11.0	69.0	2.5	/experiments/knapen_aot/videos/S_3WAnGcPubBY_179.mp4	0.0	296.84432888031006	0.0915529727935791
71	193.50800704956055	response	0	2		69.0	2.5	/experiments/knapen_aot/videos/S_3WAnGcPubBY_179.mp4	0.0	296.9201579093933	
71	193.52373099327087	movie	1		301.0	69.0	2.5	/experiments/knapen_aot/videos/S_3WAnGcPubBY_179.mp4	0.0	296.93588185310364	2.5083069801330566
71	196.03203797340393	fix_post	2		12.0	69.0	2.5	/experiments/knapen_aot/videos/S_3WAnGcPubBY_179.mp4	0.0	299.4441888332367	0.09998893737792969
71	196.08217000961304	response	2	2		69.0	2.5	/experiments/knapen_aot/videos/S_3WAnGcPubBY_179.mp4	0.0	299.4943208694458	
72	196.13202691078186	fix_pre	0		40.0	70.0	2.5	blank	1.0	299.5441777706146	0.3333001136779785
72	196.4571578502655	response	0	2		70.0	2.5	blank	1.0	299.86930871009827	
72	196.46532702445984	movie	1		301.0	70.0	2.5	blank	1.0	299.8774778842926	2.508431911468506
72	198.97375893592834	fix_post	2		12.0	70.0	2.5	blank	1.0	302.3859097957611	0.10004591941833496
72	198.99886298179626	response	2	2		70.0	2.5	blank	1.0	302.411013841629	
73	199.07380485534668	fix_pre	0		51.0	71.0	2.5	/experiments/knapen_aot/videos/S_yt-Ev39pXXfr1Y_152.mp4	0.0	302.48595571517944	0.4248800277709961
73	199.49042797088623	response	0	2		71.0	2.5	/experiments/knapen_aot/videos/S_yt-Ev39pXXfr1Y_152.mp4	0.0	302.902578830719	
73	199.49868488311768	movie	1		301.0	71.0	2.5	/experiments/knapen_aot/videos/S_yt-Ev39pXXfr1Y_152.mp4	0.0	302.91083574295044	2.50833797454834
73	202.00702285766602	fix_post	2		12.0	71.0	2.5	/experiments/knapen_aot/videos/S_yt-Ev39pXXfr1Y_152.mp4	0.0	305.4191737174988	0.09999299049377441
74	202.1070158481598	fix_pre	0		15.0	72.0	2.5	/experiments/knapen_aot/videos/S_yt-hHdxZ26SImA_17.mp4	0.0	305.51916670799255	0.12494897842407227
74	202.22379183769226	response	0	2		72.0	2.5	/experiments/knapen_aot/videos/S_yt-hHdxZ26SImA_17.mp4	0.0	305.635942697525	
74	202.23196482658386	movie	1		299.0	72.0	2.5	/experiments/knapen_aot/videos/S_yt-hHdxZ26SImA_17.mp4	0.0	305.6441156864166	2.5083742141723633
74	204.74033904075623	fix_post	2		12.0	72.0	2.5	/experiments/knapen_aot/videos/S_yt-hHdxZ26SImA_17.mp4	0.0	308.152489900589	0.10001492500305176
75	204.84035396575928	fix_pre	0		13.0	73.0	2.5	/experiments/knapen_aot/videos/S_ILSVRC2015_train_00495000.mp4	0.0	308.25250482559204	0.10828304290771484
75	204.94041681289673	response	0	2		73.0	2.5	/experiments/knapen_aot/videos/S_ILSVRC2015_train_00495000.mp4	0.0	308.3525676727295	
75	204.948637008667	movie	1		301.0	73.0	2.5	/experiments/knapen_aot/videos/S_ILSVRC2015_train_00495000.mp4	0.0	308.36078786849976	2.5083110332489014
75	207.4569480419159	fix_post	2		12.0	73.0	2.5	/experiments/knapen_aot/videos/S_ILSVRC2015_train_00495000.mp4	0.0	310.86909890174866	0.10004496574401855
76	207.5569930076599	fix_pre	0		15.0	74.0	2.5	/experiments/knapen_aot/videos/R_S_video-8.mp4	0.0	310.9691438674927	0.12499690055847168
76	207.67372703552246	response	0	2		74.0	2.5	/experiments/knapen_aot/videos/R_S_video-8.mp4	0.0	311.0858778953552	
76	207.68198990821838	movie	1		203.0	74.0	2.5	/experiments/knapen_aot/videos/R_S_video-8.mp4	0.0	311.09414076805115	2.508342981338501
76	210.19033288955688	fix_post	2		12.0	74.0	2.5	/experiments/knapen_aot/videos/R_S_video-8.mp4	0.0	313.60248374938965	0.09992504119873047
77	210.29025793075562	fix_pre	0		13.0	75.0	2.5	/experiments/knapen_aot/videos/R_S_production_ID_4325591.mp4	0.0	313.7024087905884	0.10838007926940918
77	210.3829128742218	response	0	2		75.0	2.5	/experiments/knapen_aot/videos/R_S_production_ID_4325591.mp4	0.0	313.79506373405457	
77	210.39863801002502	movie	1		198.0	75.0	2.5	/experiments/knapen_aot/videos/R_S_production_ID_4325591.mp4	0.0	313.8107888698578	2.5083580017089844
77	212.906996011734	fix_post	2		12.0	75.0	2.5	/experiments/knapen_aot/videos/R_S_production_ID_4325591.mp4	0.0	316.3191468715668	0.10003399848937988
78	213.0070300102234	fix_pre	0		1.0	76.0	2.5	blank	1.0	316.41918087005615	0.008347034454345703
78	212.99996185302734	response	0	2		76.0	2.5	blank	1.0	316.4121127128601	
78	213.01537704467773	movie	1		301.0	76.0	2.5	blank	1.0	316.4275279045105	2.5082709789276123
78	215.52364802360535	fix_post	2		12.0	76.0	2.5	blank	1.0	318.9357988834381	0.10001301765441895
79	215.62366104125977	fix_pre	0		23.0	77.0	2.5	/experiments/knapen_aot/videos/R_S_yt-bQRBtP9zkms_111.mp4	0.0	319.03581190109253	0.19161081314086914
79	215.79960894584656	response	0	2		77.0	2.5	/experiments/knapen_aot/videos/R_S_yt-bQRBtP9zkms_111.mp4	0.0	319.2117598056793	
79	215.81527185440063	movie	1		301.0	77.0	2.5	/experiments/knapen_aot/videos/R_S_yt-bQRBtP9zkms_111.mp4	0.0	319.2274227142334	2.508277177810669
79	218.3235490322113	fix_post	2		12.0	77.0	2.5	/experiments/knapen_aot/videos/R_S_yt-bQRBtP9zkms_111.mp4	0.0	321.73569989204407	0.10007381439208984
80	218.4236228466034	fix_pre	0		17.0	78.0	2.5	/experiments/knapen_aot/videos/S_video-9.mp4	0.0	321.83577370643616	0.14164400100708008
80	218.5570650100708	response	0	2		78.0	2.5	/experiments/knapen_aot/videos/S_video-9.mp4	0.0	321.96921586990356	
80	218.56526684761047	movie	1		195.0	78.0	2.5	/experiments/knapen_aot/videos/S_video-9.mp4	0.0	321.97741770744324	2.5083091259002686
80	221.07357597351074	fix_post	2		12.0	78.0	2.5	/experiments/knapen_aot/videos/S_video-9.mp4	0.0	324.4857268333435	0.10010004043579102
81	221.17367601394653	fix_pre	0		12.0	79.0	2.5	/experiments/knapen_aot/videos/S_yt-bH4nJibL4Jo_164.mp4	0.0	324.5858268737793	0.09983491897583008
81	221.257709980011	response	0	2		79.0	2.5	/experiments/knapen_aot/videos/S_yt-bH4nJibL4Jo_164.mp4	0.0	324.66986083984375	
81	221.27351093292236	movie	1		301.0	79.0	2.5	/experiments/knapen_aot/videos/S_yt-bH4nJibL4Jo_164.mp4	0.0	324.6856617927551	2.508394956588745
81	223.7819058895111	fix_post	2		12.0	79.0	2.5	/experiments/knapen_aot/videos/S_yt-bH4nJibL4Jo_164.mp4	0.0	327.1940567493439	0.0999751091003418
82	223.88188099861145	fix_pre	0		9.0	80.0	2.5	/experiments/knapen_aot/videos/S_yt-c6kLumgTX54_7.mp4	0.0	327.2940318584442	0.0749809741973877
82	223.94864201545715	response	0	2		80.0	2.5	/experiments/knapen_aot/videos/S_yt-c6kLumgTX54_7.mp4	0.0	327.3607928752899	
82	223.95686197280884	movie	1		300.0	80.0	2.5	/experiments/knapen_aot/videos/S_yt-c6kLumgTX54_7.mp4	0.0	327.3690128326416	2.5084149837493896
82	226.46527695655823	fix_post	2		12.0	80.0	2.5	/experiments/knapen_aot/videos/S_yt-c6kLumgTX54_7.mp4	0.0	329.877427816391	0.0999910831451416
83	226.56526803970337	fix_pre	0		31.0	81.0	2.5	/experiments/knapen_aot/videos/S_yt-vQ-rd-1gwH4_238.mp4	0.0	329.97741889953613	0.25832581520080566
83	226.81540989875793	response	0	2		81.0	2.5	/experiments/knapen_aot/videos/S_yt-vQ-rd-1gwH4_238.mp4	0.0	330.2275607585907	
83	226.82359385490417	movie	1		300.0	81.0	2.5	/experiments/knapen_aot/videos/S_yt-vQ-rd-1gwH4_238.mp4	0.0	330.23574471473694	2.508284091949463
83	229.33187794685364	fix_post	2		12.0	81.0	2.5	/experiments/knapen_aot/videos/S_yt-vQ-rd-1gwH4_238.mp4	0.0	332.7440288066864	0.09998393058776855
84	229.4318618774414	fix_pre	0		12.0	82.0	2.5	blank	1.0	332.84401273727417	0.09997797012329102
84	229.52360200881958	response	0	2		82.0	2.5	blank	1.0	332.93575286865234	
84	229.5318398475647	movie	1		301.0	82.0	2.5	blank	1.0	332.94399070739746	2.5084171295166016
84	232.0402569770813	fix_post	2		12.0	82.0	2.5	blank	1.0	335.45240783691406	0.0999150276184082
85	232.1401720046997	fix_pre	0		18.0	83.0	2.5	/experiments/knapen_aot/videos/R_S_yt-fq7m668hqZo_39.mp4	0.0	335.55232286453247	0.15004491806030273
85	232.28201484680176	response	0	2		83.0	2.5	/experiments/knapen_aot/videos/R_S_yt-fq7m668hqZo_39.mp4	0.0	335.6941657066345	
85	232.29021692276	movie	1		301.0	83.0	2.5	/experiments/knapen_aot/videos/R_S_yt-fq7m668hqZo_39.mp4	0.0	335.7023677825928	2.5082669258117676
85	234.79848384857178	fix_post	2		12.0	83.0	2.5	/experiments/knapen_aot/videos/R_S_yt-fq7m668hqZo_39.mp4	0.0	338.21063470840454	0.10001301765441895
87	234.8984968662262	stim	0		420.0					338.31064772605896	3.4999520778656006
87	234.92464804649353	response	0	2						338.3367989063263	
87	238.39141488075256	response	0	space						341.8035657405853	
