trial_nr	onset	event_type	phase	response	nr_frames	movie_index	movie_duration	movie_file	blank	onset_abs	duration
0	0.12882709503173828	stim	0		68.0					66.09883189201355	0.5626089572906494
0	0.6757750511169434	response	0	space						66.64577984809875	
1	0.6914360523223877	stim	0		121.0					66.6614408493042	1.008052110671997
1	1.6994881629943848	stim	1		120.0					67.6694929599762	1.0000309944152832
1	2.6247031688690186	response	1	space						68.59470796585083	
2	2.699519157409668	fix_pre	0		176.0	0.0	2.5	/experiments/knapen_aot/videos/S_ILSVRC2015_train_00584001.mp4	0.0	68.66952395439148	1.4666810035705566
2	4.158015012741089	response	0	space		0.0	2.5	/experiments/knapen_aot/videos/S_ILSVRC2015_train_00584001.mp4	0.0	70.1280198097229	
2	4.166200160980225	movie	1		301.0	0.0	2.5	/experiments/knapen_aot/videos/S_ILSVRC2015_train_00584001.mp4	0.0	70.13620495796204	2.508340835571289
2	6.674540996551514	fix_post	2		12.0	0.0	2.5	/experiments/knapen_aot/videos/S_ILSVRC2015_train_00584001.mp4	0.0	72.64454579353333	0.0999441146850586
3	6.774485111236572	fix_pre	0		22.0	1.0	2.5	/experiments/knapen_aot/videos/R_S_production_ID_4499960.mp4	0.0	72.74448990821838	0.1833360195159912
3	6.9505250453948975	response	0	2		1.0	2.5	/experiments/knapen_aot/videos/R_S_production_ID_4499960.mp4	0.0	72.92052984237671	
3	6.9578211307525635	movie	1		164.0	1.0	2.5	/experiments/knapen_aot/videos/R_S_production_ID_4499960.mp4	0.0	72.92782592773438	2.5083930492401123
3	9.466214179992676	fix_post	2		12.0	1.0	2.5	/experiments/knapen_aot/videos/R_S_production_ID_4499960.mp4	0.0	75.43621897697449	0.09999990463256836
3	9.541341066360474	response	2	2		1.0	2.5	/experiments/knapen_aot/videos/R_S_production_ID_4499960.mp4	0.0	75.51134586334229	
4	9.566214084625244	fix_pre	0		44.0	2.0	2.5	/experiments/knapen_aot/videos/S_yt-5ws2gxbcjs4_381.mp4	0.0	75.53621888160706	0.3677809238433838
4	9.924663066864014	response	0	2		2.0	2.5	/experiments/knapen_aot/videos/S_yt-5ws2gxbcjs4_381.mp4	0.0	75.89466786384583	
4	9.933995008468628	movie	1		300.0	2.0	2.5	/experiments/knapen_aot/videos/S_yt-5ws2gxbcjs4_381.mp4	0.0	75.90399980545044	2.507193088531494
4	12.441188097000122	fix_post	2		12.0	2.0	2.5	/experiments/knapen_aot/videos/S_yt-5ws2gxbcjs4_381.mp4	0.0	78.41119289398193	0.10002994537353516
5	12.541218042373657	fix_pre	0		6.0	3.0	2.5	/experiments/knapen_aot/videos/S_yt-kXarkCFJLeg_46.mp4	0.0	78.51122283935547	0.05000710487365723
5	12.583007097244263	response	0	2		3.0	2.5	/experiments/knapen_aot/videos/S_yt-kXarkCFJLeg_46.mp4	0.0	78.55301189422607	
5	12.591225147247314	movie	1		301.0	3.0	2.5	/experiments/knapen_aot/videos/S_yt-kXarkCFJLeg_46.mp4	0.0	78.56122994422913	2.5082850456237793
5	15.099510192871094	fix_post	2		12.0	3.0	2.5	/experiments/knapen_aot/videos/S_yt-kXarkCFJLeg_46.mp4	0.0	81.0695149898529	0.10006189346313477
5	15.175481081008911	response	2	2		3.0	2.5	/experiments/knapen_aot/videos/S_yt-kXarkCFJLeg_46.mp4	0.0	81.14548587799072	
6	15.199572086334229	fix_pre	0		45.0	4.0	2.5	/experiments/knapen_aot/videos/R_S_yt-HQQws1Lp_rQ_10.mp4	0.0	81.16957688331604	0.3749079704284668
6	15.566272974014282	response	0	2		4.0	2.5	/experiments/knapen_aot/videos/R_S_yt-HQQws1Lp_rQ_10.mp4	0.0	81.5362777709961	
6	15.574480056762695	movie	1		301.0	4.0	2.5	/experiments/knapen_aot/videos/R_S_yt-HQQws1Lp_rQ_10.mp4	0.0	81.5444848537445	2.508357048034668
6	18.082837104797363	fix_post	2		12.0	4.0	2.5	/experiments/knapen_aot/videos/R_S_yt-HQQws1Lp_rQ_10.mp4	0.0	84.05284190177917	0.10002493858337402
7	18.182862043380737	fix_pre	0		3.0	5.0	2.5	/experiments/knapen_aot/videos/R_S_xTlFOCRvy68_1564.mp4	0.0	84.15286684036255	0.024999141693115234
7	18.199616193771362	response	0	2		5.0	2.5	/experiments/knapen_aot/videos/R_S_xTlFOCRvy68_1564.mp4	0.0	84.16962099075317	
7	18.207861185073853	movie	1		301.0	5.0	2.5	/experiments/knapen_aot/videos/R_S_xTlFOCRvy68_1564.mp4	0.0	84.17786598205566	2.5083138942718506
7	20.716175079345703	fix_post	2		12.0	5.0	2.5	/experiments/knapen_aot/videos/R_S_xTlFOCRvy68_1564.mp4	0.0	86.68617987632751	0.09998703002929688
8	20.816162109375	fix_pre	0		2.0	6.0	2.5	/experiments/knapen_aot/videos/S_ILSVRC2015_train_00574004.mp4	0.0	86.78616690635681	0.016663074493408203
8	20.824640035629272	response	0	2		6.0	2.5	/experiments/knapen_aot/videos/S_ILSVRC2015_train_00574004.mp4	0.0	86.79464483261108	
8	20.832825183868408	movie	1		300.0	6.0	2.5	/experiments/knapen_aot/videos/S_ILSVRC2015_train_00574004.mp4	0.0	86.80282998085022	2.5082828998565674
8	23.341108083724976	fix_post	2		12.0	6.0	2.5	/experiments/knapen_aot/videos/S_ILSVRC2015_train_00574004.mp4	0.0	89.31111288070679	0.10006594657897949
9	23.441174030303955	fix_pre	0		13.0	7.0	2.5	blank	1.0	89.41117882728577	0.10826706886291504
9	23.541290044784546	response	0	2		7.0	2.5	blank	1.0	89.51129484176636	
9	23.54944109916687	movie	1		301.0	7.0	2.5	blank	1.0	89.51944589614868	2.508384943008423
9	26.057826042175293	fix_post	2		12.0	7.0	2.5	blank	1.0	92.0278308391571	0.10004615783691406
10	26.157872200012207	fix_pre	0		14.0	8.0	2.5	/experiments/knapen_aot/videos/R_S_yt-hvuC_2YXsTQ_159.mp4	0.0	92.12787699699402	0.11655187606811523
10	26.266247987747192	response	0	2		8.0	2.5	/experiments/knapen_aot/videos/R_S_yt-hvuC_2YXsTQ_159.mp4	0.0	92.236252784729	
10	26.274424076080322	movie	1		301.0	8.0	2.5	/experiments/knapen_aot/videos/R_S_yt-hvuC_2YXsTQ_159.mp4	0.0	92.24442887306213	2.5083560943603516
10	28.782780170440674	fix_post	2		12.0	8.0	2.5	/experiments/knapen_aot/videos/R_S_yt-hvuC_2YXsTQ_159.mp4	0.0	94.75278496742249	0.10001087188720703
11	28.88279104232788	fix_pre	0		12.0	9.0	2.5	/experiments/knapen_aot/videos/S_yt-OTNdgakSIJE_97.mp4	0.0	94.85279583930969	0.09994101524353027
11	28.974523067474365	response	0	2		9.0	2.5	/experiments/knapen_aot/videos/S_yt-OTNdgakSIJE_97.mp4	0.0	94.94452786445618	
11	28.98273205757141	movie	1		301.0	9.0	2.5	/experiments/knapen_aot/videos/S_yt-OTNdgakSIJE_97.mp4	0.0	94.95273685455322	2.5083320140838623
11	31.491064071655273	fix_post	2		12.0	9.0	2.5	/experiments/knapen_aot/videos/S_yt-OTNdgakSIJE_97.mp4	0.0	97.46106886863708	0.10008811950683594
12	31.59115219116211	fix_pre	0		32.0	10.0	2.5	/experiments/knapen_aot/videos/S_Pexels_Videos_2795731.mp4	0.0	97.56115698814392	0.26659584045410156
12	31.849595069885254	response	0	2		10.0	2.5	/experiments/knapen_aot/videos/S_Pexels_Videos_2795731.mp4	0.0	97.81959986686707	
12	31.85774803161621	movie	1		165.0	10.0	2.5	/experiments/knapen_aot/videos/S_Pexels_Videos_2795731.mp4	0.0	97.82775282859802	2.5084640979766846
12	34.366212129592896	fix_post	2		12.0	10.0	2.5	/experiments/knapen_aot/videos/S_Pexels_Videos_2795731.mp4	0.0	100.3362169265747	0.09994387626647949
13	34.466156005859375	fix_pre	0		10.0	11.0	2.5	/experiments/knapen_aot/videos/S_yt-JpOBXV46TLE_124.mp4	0.0	100.43616080284119	0.08328413963317871
13	34.54130697250366	response	0	2		11.0	2.5	/experiments/knapen_aot/videos/S_yt-JpOBXV46TLE_124.mp4	0.0	100.51131176948547	
13	34.549440145492554	movie	1		301.0	11.0	2.5	/experiments/knapen_aot/videos/S_yt-JpOBXV46TLE_124.mp4	0.0	100.51944494247437	2.508333921432495
13	37.05777406692505	fix_post	2		12.0	11.0	2.5	/experiments/knapen_aot/videos/S_yt-JpOBXV46TLE_124.mp4	0.0	103.02777886390686	0.10000109672546387
14	37.15777516365051	fix_pre	0		36.0	12.0	2.5	blank	1.0	103.12777996063232	0.30005598068237305
14	37.44955015182495	response	0	2		12.0	2.5	blank	1.0	103.41955494880676	
14	37.457831144332886	movie	1		301.0	12.0	2.5	blank	1.0	103.4278359413147	2.508283853530884
14	39.96611499786377	fix_post	2		12.0	12.0	2.5	blank	1.0	105.93611979484558	0.09997010231018066
15	40.06608510017395	fix_pre	0		33.0	13.0	2.5	/experiments/knapen_aot/videos/S_ILSVRC2015_train_00479004.mp4	0.0	106.03608989715576	0.2749800682067871
15	40.33288216590881	response	0	2		13.0	2.5	/experiments/knapen_aot/videos/S_ILSVRC2015_train_00479004.mp4	0.0	106.30288696289062	
15	40.34106516838074	movie	1		301.0	13.0	2.5	/experiments/knapen_aot/videos/S_ILSVRC2015_train_00479004.mp4	0.0	106.31106996536255	2.5082290172576904
15	42.84929418563843	fix_post	2		12.0	13.0	2.5	/experiments/knapen_aot/videos/S_ILSVRC2015_train_00479004.mp4	0.0	108.81929898262024	0.10010099411010742
16	42.949395179748535	fix_pre	0		13.0	14.0	2.5	/experiments/knapen_aot/videos/R_S_yt-dqcUJzNOzbM_156.mp4	0.0	108.91939997673035	0.10926389694213867
16	43.04946804046631	response	0	2		14.0	2.5	/experiments/knapen_aot/videos/R_S_yt-dqcUJzNOzbM_156.mp4	0.0	109.01947283744812	
16	43.058659076690674	movie	1		301.0	14.0	2.5	/experiments/knapen_aot/videos/R_S_yt-dqcUJzNOzbM_156.mp4	0.0	109.02866387367249	2.5073649883270264
16	45.5660240650177	fix_post	2		12.0	14.0	2.5	/experiments/knapen_aot/videos/R_S_yt-dqcUJzNOzbM_156.mp4	0.0	111.53602886199951	0.10003995895385742
17	45.66606402397156	fix_pre	0		17.0	15.0	2.5	/experiments/knapen_aot/videos/S_ILSVRC2015_train_00654000.mp4	0.0	111.63606882095337	0.1425609588623047
17	45.7994601726532	response	0	2		15.0	2.5	/experiments/knapen_aot/videos/S_ILSVRC2015_train_00654000.mp4	0.0	111.76946496963501	
17	45.80862498283386	movie	1		301.0	15.0	2.5	/experiments/knapen_aot/videos/S_ILSVRC2015_train_00654000.mp4	0.0	111.77862977981567	2.507430076599121
17	48.31605505943298	fix_post	2		12.0	15.0	2.5	/experiments/knapen_aot/videos/S_ILSVRC2015_train_00654000.mp4	0.0	114.2860598564148	0.0999760627746582
18	48.41603112220764	fix_pre	0		10.0	16.0	2.5	/experiments/knapen_aot/videos/S_yt-XA6RBioito4_18.mp4	0.0	114.38603591918945	0.0833280086517334
18	48.491355180740356	response	0	2		16.0	2.5	/experiments/knapen_aot/videos/S_yt-XA6RBioito4_18.mp4	0.0	114.46135997772217	
18	48.499359130859375	movie	1		301.0	16.0	2.5	/experiments/knapen_aot/videos/S_yt-XA6RBioito4_18.mp4	0.0	114.46936392784119	2.5083730220794678
18	51.00773215293884	fix_post	2		12.0	16.0	2.5	/experiments/knapen_aot/videos/S_yt-XA6RBioito4_18.mp4	0.0	116.97773694992065	0.10000801086425781
19	51.1077401638031	fix_pre	0		13.0	17.0	2.5	/experiments/knapen_aot/videos/R_S_G009_C003_UHD_SDR_2K_AVC.mp4	0.0	117.07774496078491	0.10832881927490234
19	51.20781207084656	response	0	2		17.0	2.5	/experiments/knapen_aot/videos/R_S_G009_C003_UHD_SDR_2K_AVC.mp4	0.0	117.17781686782837	
19	51.216068983078	movie	1		167.0	17.0	2.5	/experiments/knapen_aot/videos/R_S_G009_C003_UHD_SDR_2K_AVC.mp4	0.0	117.18607378005981	2.5082740783691406
19	53.724343061447144	fix_post	2		12.0	17.0	2.5	/experiments/knapen_aot/videos/R_S_G009_C003_UHD_SDR_2K_AVC.mp4	0.0	119.69434785842896	0.0999150276184082
19	53.76724314689636	response	2	2		17.0	2.5	/experiments/knapen_aot/videos/R_S_G009_C003_UHD_SDR_2K_AVC.mp4	0.0	119.73724794387817	
20	53.82425808906555	fix_pre	0		41.0	18.0	2.5	/experiments/knapen_aot/videos/R_S_yt-s73Xqkcq9Js_285.mp4	0.0	119.79426288604736	0.34172797203063965
20	54.1577889919281	response	0	2		18.0	2.5	/experiments/knapen_aot/videos/R_S_yt-s73Xqkcq9Js_285.mp4	0.0	120.12779378890991	
20	54.16598606109619	movie	1		301.0	18.0	2.5	/experiments/knapen_aot/videos/R_S_yt-s73Xqkcq9Js_285.mp4	0.0	120.135990858078	2.5083401203155518
20	56.67432618141174	fix_post	2		12.0	18.0	2.5	/experiments/knapen_aot/videos/R_S_yt-s73Xqkcq9Js_285.mp4	0.0	122.64433097839355	0.09993481636047363
21	56.77426099777222	fix_pre	0		8.0	19.0	2.5	/experiments/knapen_aot/videos/S_wc-1MzpHfRq1MUK_32.mp4	0.0	122.74426579475403	0.06702113151550293
21	56.83283805847168	response	0	2		19.0	2.5	/experiments/knapen_aot/videos/S_wc-1MzpHfRq1MUK_32.mp4	0.0	122.80284285545349	
21	56.84128212928772	movie	1		300.0	19.0	2.5	/experiments/knapen_aot/videos/S_wc-1MzpHfRq1MUK_32.mp4	0.0	122.81128692626953	2.5080759525299072
21	59.34935808181763	fix_post	2		12.0	19.0	2.5	/experiments/knapen_aot/videos/S_wc-1MzpHfRq1MUK_32.mp4	0.0	125.31936287879944	0.09999990463256836
22	59.449357986450195	fix_pre	0		9.0	20.0	2.5	/experiments/knapen_aot/videos/S_yt-5ws2gxbcjs4_381.mp4	0.0	125.419362783432	0.07496500015258789
22	59.5161030292511	response	0	2		20.0	2.5	/experiments/knapen_aot/videos/S_yt-5ws2gxbcjs4_381.mp4	0.0	125.48610782623291	
22	59.52432298660278	movie	1		301.0	20.0	2.5	/experiments/knapen_aot/videos/S_yt-5ws2gxbcjs4_381.mp4	0.0	125.4943277835846	2.5083460807800293
22	62.03266906738281	fix_post	2		12.0	20.0	2.5	/experiments/knapen_aot/videos/S_yt-5ws2gxbcjs4_381.mp4	0.0	128.00267386436462	0.09993410110473633
23	62.13260316848755	fix_pre	0		6.0	21.0	2.5	blank	1.0	128.10260796546936	0.050909996032714844
23	62.174489974975586	response	0	2		21.0	2.5	blank	1.0	128.1444947719574	
23	62.183513164520264	movie	1		301.0	21.0	2.5	blank	1.0	128.15351796150208	2.507431983947754
23	64.69094514846802	fix_post	2		12.0	21.0	2.5	blank	1.0	130.66094994544983	0.10004591941833496
24	64.79099106788635	fix_pre	0		74.0	22.0	2.5	/experiments/knapen_aot/videos/R_S_yt-2cwARrUMj40_67.mp4	0.0	130.76099586486816	0.616624116897583
24	65.39188408851624	response	0	2		22.0	2.5	/experiments/knapen_aot/videos/R_S_yt-2cwARrUMj40_67.mp4	0.0	131.36188888549805	
24	65.40761518478394	movie	1		300.0	22.0	2.5	/experiments/knapen_aot/videos/R_S_yt-2cwARrUMj40_67.mp4	0.0	131.37761998176575	2.5083389282226562
24	67.91595411300659	fix_post	2		12.0	22.0	2.5	/experiments/knapen_aot/videos/R_S_yt-2cwARrUMj40_67.mp4	0.0	133.8859589099884	0.1000208854675293
25	68.01597499847412	fix_pre	0		1.0	23.0	2.5	/experiments/knapen_aot/videos/S_pexels-mikhail-nilov-8410084.mp4	0.0	133.98597979545593	0.008301973342895508
25	68.0176191329956	response	0	2		23.0	2.5	/experiments/knapen_aot/videos/S_pexels-mikhail-nilov-8410084.mp4	0.0	133.98762392997742	
25	68.02427697181702	movie	1		168.0	23.0	2.5	/experiments/knapen_aot/videos/S_pexels-mikhail-nilov-8410084.mp4	0.0	133.99428176879883	2.5084941387176514
25	70.53277111053467	fix_post	2		12.0	23.0	2.5	/experiments/knapen_aot/videos/S_pexels-mikhail-nilov-8410084.mp4	0.0	136.50277590751648	0.099822998046875
25	70.62442302703857	response	2	2		23.0	2.5	/experiments/knapen_aot/videos/S_pexels-mikhail-nilov-8410084.mp4	0.0	136.59442782402039	
26	70.63259410858154	fix_pre	0		51.0	24.0	2.5	/experiments/knapen_aot/videos/S_yt-XA6RBioito4_18.mp4	0.0	136.60259890556335	0.42583608627319336
26	71.04208707809448	response	0	2		24.0	2.5	/experiments/knapen_aot/videos/S_yt-XA6RBioito4_18.mp4	0.0	137.0120918750763	
26	71.05843019485474	movie	1		301.0	24.0	2.5	/experiments/knapen_aot/videos/S_yt-XA6RBioito4_18.mp4	0.0	137.02843499183655	2.5075128078460693
26	73.5659430027008	fix_post	2		12.0	24.0	2.5	/experiments/knapen_aot/videos/S_yt-XA6RBioito4_18.mp4	0.0	139.53594779968262	0.10016918182373047
27	73.66611218452454	fix_pre	0		5.0	25.0	2.5	/experiments/knapen_aot/videos/R_S_yt-feTWuKPZA_k_34.mp4	0.0	139.63611698150635	0.04149293899536133
27	73.69948220252991	response	0	2		25.0	2.5	/experiments/knapen_aot/videos/R_S_yt-feTWuKPZA_k_34.mp4	0.0	139.66948699951172	
27	73.7076051235199	movie	1		296.0	25.0	2.5	/experiments/knapen_aot/videos/R_S_yt-feTWuKPZA_k_34.mp4	0.0	139.6776099205017	2.5083329677581787
27	76.21593809127808	fix_post	2		12.0	25.0	2.5	/experiments/knapen_aot/videos/R_S_yt-feTWuKPZA_k_34.mp4	0.0	142.1859428882599	0.09999299049377441
28	76.31593108177185	fix_pre	0		23.0	26.0	2.5	blank	1.0	142.28593587875366	0.1916790008544922
28	76.4994170665741	response	0	2		26.0	2.5	blank	1.0	142.4694218635559	
28	76.50761008262634	movie	1		301.0	26.0	2.5	blank	1.0	142.47761487960815	2.5083160400390625
28	79.0159261226654	fix_post	2		12.0	26.0	2.5	blank	1.0	144.98593091964722	0.09993100166320801
29	79.11585712432861	fix_pre	0		55.0	27.0	2.5	/experiments/knapen_aot/videos/R_S_S003_C020_SDR_2K_AVC.mp4	0.0	145.08586192131042	0.45830392837524414
29	79.55840301513672	response	0	2		27.0	2.5	/experiments/knapen_aot/videos/R_S_S003_C020_SDR_2K_AVC.mp4	0.0	145.52840781211853	
29	79.57416105270386	movie	1		176.0	27.0	2.5	/experiments/knapen_aot/videos/R_S_S003_C020_SDR_2K_AVC.mp4	0.0	145.54416584968567	2.5083141326904297
29	82.08247518539429	fix_post	2		12.0	27.0	2.5	/experiments/knapen_aot/videos/R_S_S003_C020_SDR_2K_AVC.mp4	0.0	148.0524799823761	0.10008692741394043
29	82.07546710968018	response	2	2		27.0	2.5	/experiments/knapen_aot/videos/R_S_S003_C020_SDR_2K_AVC.mp4	0.0	148.045471906662	
30	82.18256211280823	fix_pre	0		33.0	28.0	2.5	/experiments/knapen_aot/videos/R_S_ILSVRC2015_train_00654000.mp4	0.0	148.15256690979004	0.27496790885925293
30	82.44926810264587	response	0	2		28.0	2.5	/experiments/knapen_aot/videos/R_S_ILSVRC2015_train_00654000.mp4	0.0	148.41927289962769	
30	82.45753002166748	movie	1		301.0	28.0	2.5	/experiments/knapen_aot/videos/R_S_ILSVRC2015_train_00654000.mp4	0.0	148.4275348186493	2.5083680152893066
30	84.96589803695679	fix_post	2		12.0	28.0	2.5	/experiments/knapen_aot/videos/R_S_ILSVRC2015_train_00654000.mp4	0.0	150.9359028339386	0.10005497932434082
31	85.06595301628113	fix_pre	0		34.0	29.0	2.5	/experiments/knapen_aot/videos/S_yt-Rqwi-Fk9IJQ_114.mp4	0.0	151.03595781326294	0.283980131149292
31	85.34111905097961	response	0	2		29.0	2.5	/experiments/knapen_aot/videos/S_yt-Rqwi-Fk9IJQ_114.mp4	0.0	151.31112384796143	
31	85.34993314743042	movie	1		301.0	29.0	2.5	/experiments/knapen_aot/videos/S_yt-Rqwi-Fk9IJQ_114.mp4	0.0	151.31993794441223	2.507568836212158
31	87.85750198364258	fix_post	2		12.0	29.0	2.5	/experiments/knapen_aot/videos/S_yt-Rqwi-Fk9IJQ_114.mp4	0.0	153.8275067806244	0.10001420974731445
32	87.95751619338989	fix_pre	0		19.0	30.0	2.5	/experiments/knapen_aot/videos/S_ILSVRC2015_test_00004002.mp4	0.0	153.9275209903717	0.1583418846130371
32	88.10765218734741	response	0	2		30.0	2.5	/experiments/knapen_aot/videos/S_ILSVRC2015_test_00004002.mp4	0.0	154.07765698432922	
32	88.11585807800293	movie	1		301.0	30.0	2.5	/experiments/knapen_aot/videos/S_ILSVRC2015_test_00004002.mp4	0.0	154.08586287498474	2.508336067199707
32	90.62419414520264	fix_post	2		12.0	30.0	2.5	/experiments/knapen_aot/videos/S_ILSVRC2015_test_00004002.mp4	0.0	156.59419894218445	0.10023689270019531
33	90.72443103790283	fix_pre	0		6.0	31.0	2.5	/experiments/knapen_aot/videos/R_S_pexels-kelly-lacy-6756531.mp4	0.0	156.69443583488464	0.04978609085083008
33	90.76593899726868	response	0	2		31.0	2.5	/experiments/knapen_aot/videos/R_S_pexels-kelly-lacy-6756531.mp4	0.0	156.7359437942505	
33	90.77421712875366	movie	1		167.0	31.0	2.5	/experiments/knapen_aot/videos/R_S_pexels-kelly-lacy-6756531.mp4	0.0	156.74422192573547	2.508316993713379
33	93.28253412246704	fix_post	2		12.0	31.0	2.5	/experiments/knapen_aot/videos/R_S_pexels-kelly-lacy-6756531.mp4	0.0	159.25253891944885	0.10003900527954102
34	93.38257312774658	fix_pre	0		5.0	32.0	2.5	/experiments/knapen_aot/videos/S_ILSVRC2015_train_00654000.mp4	0.0	159.3525779247284	0.041667938232421875
34	93.41602611541748	response	0	2		32.0	2.5	/experiments/knapen_aot/videos/S_ILSVRC2015_train_00654000.mp4	0.0	159.3860309123993	
34	93.424241065979	movie	1		301.0	32.0	2.5	/experiments/knapen_aot/videos/S_ILSVRC2015_train_00654000.mp4	0.0	159.39424586296082	2.508281946182251
34	95.93252301216125	fix_post	2		12.0	32.0	2.5	/experiments/knapen_aot/videos/S_ILSVRC2015_train_00654000.mp4	0.0	161.90252780914307	0.10000896453857422
35	96.03253197669983	fix_pre	0		18.0	33.0	2.5	/experiments/knapen_aot/videos/S_yt-SkIJvj6KNOo_33.mp4	0.0	162.00253677368164	0.15064406394958496
35	96.17423009872437	response	0	2		33.0	2.5	/experiments/knapen_aot/videos/S_yt-SkIJvj6KNOo_33.mp4	0.0	162.14423489570618	
35	96.18317604064941	movie	1		301.0	33.0	2.5	/experiments/knapen_aot/videos/S_yt-SkIJvj6KNOo_33.mp4	0.0	162.15318083763123	2.5076611042022705
35	98.69083714485168	fix_post	2		12.0	33.0	2.5	/experiments/knapen_aot/videos/S_yt-SkIJvj6KNOo_33.mp4	0.0	164.6608419418335	0.1000218391418457
36	98.79085898399353	fix_pre	0		63.0	34.0	2.5	blank	1.0	164.76086378097534	0.5249600410461426
36	99.30756616592407	response	0	2		34.0	2.5	blank	1.0	165.27757096290588	
36	99.31581902503967	movie	1		301.0	34.0	2.5	blank	1.0	165.28582382202148	2.508373975753784
36	101.82419300079346	fix_post	2		12.0	34.0	2.5	blank	1.0	167.79419779777527	0.10001301765441895
37	101.92420601844788	fix_pre	0		66.0	35.0	2.5	/experiments/knapen_aot/videos/R_S_yt-35i8UeYXjGw_47.mp4	0.0	167.8942108154297	0.5505621433258057
37	102.45844912528992	response	0	2		35.0	2.5	/experiments/knapen_aot/videos/R_S_yt-35i8UeYXjGw_47.mp4	0.0	168.42845392227173	
37	102.47476816177368	movie	1		301.0	35.0	2.5	/experiments/knapen_aot/videos/R_S_yt-35i8UeYXjGw_47.mp4	0.0	168.4447729587555	2.507737874984741
37	104.98250603675842	fix_post	2		12.0	35.0	2.5	/experiments/knapen_aot/videos/R_S_yt-35i8UeYXjGw_47.mp4	0.0	170.95251083374023	0.0999751091003418
38	105.08248114585876	fix_pre	0		8.0	36.0	2.5	/experiments/knapen_aot/videos/R_S_pexels-kelly-lacy-6756531.mp4	0.0	171.05248594284058	0.06666088104248047
38	105.14099907875061	response	0	2		36.0	2.5	/experiments/knapen_aot/videos/R_S_pexels-kelly-lacy-6756531.mp4	0.0	171.11100387573242	
38	105.14914202690125	movie	1		165.0	36.0	2.5	/experiments/knapen_aot/videos/R_S_pexels-kelly-lacy-6756531.mp4	0.0	171.11914682388306	2.5082781314849854
38	107.65742015838623	fix_post	2		12.0	36.0	2.5	/experiments/knapen_aot/videos/R_S_pexels-kelly-lacy-6756531.mp4	0.0	173.62742495536804	0.10008001327514648
39	107.75750017166138	fix_pre	0		4.0	37.0	2.5	/experiments/knapen_aot/videos/R_S_yt-mQRzWCcKOR8_28.mp4	0.0	173.7275049686432	0.03330183029174805
39	107.77516913414001	response	0	2		37.0	2.5	/experiments/knapen_aot/videos/R_S_yt-mQRzWCcKOR8_28.mp4	0.0	173.74517393112183	
39	107.79080200195312	movie	1		296.0	37.0	2.5	/experiments/knapen_aot/videos/R_S_yt-mQRzWCcKOR8_28.mp4	0.0	173.76080679893494	2.5082600116729736
39	110.2990620136261	fix_post	2		12.0	37.0	2.5	/experiments/knapen_aot/videos/R_S_yt-mQRzWCcKOR8_28.mp4	0.0	176.2690668106079	0.1000680923461914
40	110.39913010597229	fix_pre	0		15.0	38.0	2.5	/experiments/knapen_aot/videos/S_ILSVRC2015_train_00551000.mp4	0.0	176.3691349029541	0.12498593330383301
40	110.51600408554077	response	0	2		38.0	2.5	/experiments/knapen_aot/videos/S_ILSVRC2015_train_00551000.mp4	0.0	176.48600888252258	
40	110.52411603927612	movie	1		301.0	38.0	2.5	/experiments/knapen_aot/videos/S_ILSVRC2015_train_00551000.mp4	0.0	176.49412083625793	2.5082430839538574
40	113.03235912322998	fix_post	2		12.0	38.0	2.5	/experiments/knapen_aot/videos/S_ILSVRC2015_train_00551000.mp4	0.0	179.0023639202118	0.10003900527954102
41	113.13239812850952	fix_pre	0		7.0	39.0	2.5	/experiments/knapen_aot/videos/R_S_yt-4qU-6TEW06E_38.mp4	0.0	179.10240292549133	0.058400869369506836
41	113.18259310722351	response	0	2		39.0	2.5	/experiments/knapen_aot/videos/R_S_yt-4qU-6TEW06E_38.mp4	0.0	179.15259790420532	
41	113.19079899787903	movie	1		301.0	39.0	2.5	/experiments/knapen_aot/videos/R_S_yt-4qU-6TEW06E_38.mp4	0.0	179.16080379486084	2.5083560943603516
41	115.69915509223938	fix_post	2		12.0	39.0	2.5	/experiments/knapen_aot/videos/R_S_yt-4qU-6TEW06E_38.mp4	0.0	181.6691598892212	0.09991097450256348
42	115.79906606674194	fix_pre	0		20.0	40.0	2.5	/experiments/knapen_aot/videos/R_S_yt-Dlk44AGz-xM_37.mp4	0.0	181.76907086372375	0.16666698455810547
42	115.95753717422485	response	0	2		40.0	2.5	/experiments/knapen_aot/videos/R_S_yt-Dlk44AGz-xM_37.mp4	0.0	181.92754197120667	
42	115.96573305130005	movie	1		301.0	40.0	2.5	/experiments/knapen_aot/videos/R_S_yt-Dlk44AGz-xM_37.mp4	0.0	181.93573784828186	2.5083749294281006
42	118.47410798072815	fix_post	2		12.0	40.0	2.5	/experiments/knapen_aot/videos/R_S_yt-Dlk44AGz-xM_37.mp4	0.0	184.44411277770996	0.09999299049377441
43	118.57410097122192	fix_pre	0		5.0	41.0	2.5	blank	1.0	184.54410576820374	0.04172205924987793
43	118.6076090335846	response	0	2		41.0	2.5	blank	1.0	184.5776138305664	
43	118.6158230304718	movie	1		301.0	41.0	2.5	blank	1.0	184.5858278274536	2.508342981338501
43	121.1241660118103	fix_post	2		12.0	41.0	2.5	blank	1.0	187.09417080879211	0.09993696212768555
44	121.22410297393799	fix_pre	0		38.0	42.0	2.5	/experiments/knapen_aot/videos/R_S_ILSVRC2015_train_00067005.mp4	0.0	187.1941077709198	0.3166670799255371
44	121.53245115280151	response	0	2		42.0	2.5	/experiments/knapen_aot/videos/R_S_ILSVRC2015_train_00067005.mp4	0.0	187.50245594978333	
44	121.54077005386353	movie	1		299.0	42.0	2.5	/experiments/knapen_aot/videos/R_S_ILSVRC2015_train_00067005.mp4	0.0	187.51077485084534	2.508355140686035
44	124.04912519454956	fix_post	2		12.0	42.0	2.5	/experiments/knapen_aot/videos/R_S_ILSVRC2015_train_00067005.mp4	0.0	190.01912999153137	0.09993886947631836
45	124.14906406402588	fix_pre	0		10.0	43.0	2.5	/experiments/knapen_aot/videos/S_yt-2i53vKte7SA_117.mp4	0.0	190.1190688610077	0.0832979679107666
45	124.22414898872375	response	0	2		43.0	2.5	/experiments/knapen_aot/videos/S_yt-2i53vKte7SA_117.mp4	0.0	190.19415378570557	
45	124.23236203193665	movie	1		301.0	43.0	2.5	/experiments/knapen_aot/videos/S_yt-2i53vKte7SA_117.mp4	0.0	190.20236682891846	2.50838303565979
45	126.74074506759644	fix_post	2		12.0	43.0	2.5	/experiments/knapen_aot/videos/S_yt-2i53vKte7SA_117.mp4	0.0	192.71074986457825	0.09998202323913574
46	126.84072709083557	fix_pre	0		7.0	44.0	2.5	/experiments/knapen_aot/videos/S_yt-0d5TkclKWVA_146.mp4	0.0	192.81073188781738	0.05839109420776367
46	126.89166212081909	response	0	2		44.0	2.5	/experiments/knapen_aot/videos/S_yt-0d5TkclKWVA_146.mp4	0.0	192.8616669178009	
46	126.89911818504333	movie	1		301.0	44.0	2.5	/experiments/knapen_aot/videos/S_yt-0d5TkclKWVA_146.mp4	0.0	192.86912298202515	2.508255958557129
46	129.40737414360046	fix_post	2		12.0	44.0	2.5	/experiments/knapen_aot/videos/S_yt-0d5TkclKWVA_146.mp4	0.0	195.37737894058228	0.09999394416809082
47	129.50736808776855	fix_pre	0		12.0	45.0	2.5	/experiments/knapen_aot/videos/R_S_yt-wE0cEswyaaM_53.mp4	0.0	195.47737288475037	0.0999751091003418
47	129.59915208816528	response	0	2		45.0	2.5	/experiments/knapen_aot/videos/R_S_yt-wE0cEswyaaM_53.mp4	0.0	195.5691568851471	
47	129.6073431968689	movie	1		301.0	45.0	2.5	/experiments/knapen_aot/videos/R_S_yt-wE0cEswyaaM_53.mp4	0.0	195.5773479938507	2.508373975753784
47	132.11571717262268	fix_post	2		12.0	45.0	2.5	/experiments/knapen_aot/videos/R_S_yt-wE0cEswyaaM_53.mp4	0.0	198.0857219696045	0.09996294975280762
48	132.2156801223755	fix_pre	0		23.0	46.0	2.5	/experiments/knapen_aot/videos/S_ILSVRC2015_train_00563000.mp4	0.0	198.1856849193573	0.1916790008544922
48	132.3991780281067	response	0	2		46.0	2.5	/experiments/knapen_aot/videos/S_ILSVRC2015_train_00563000.mp4	0.0	198.3691828250885	
48	132.40735912322998	movie	1		301.0	46.0	2.5	/experiments/knapen_aot/videos/S_ILSVRC2015_train_00563000.mp4	0.0	198.3773639202118	2.5083539485931396
48	134.91571307182312	fix_post	2		12.0	46.0	2.5	/experiments/knapen_aot/videos/S_ILSVRC2015_train_00563000.mp4	0.0	200.88571786880493	0.10044002532958984
49	135.0161530971527	fix_pre	0		14.0	47.0	2.5	/experiments/knapen_aot/videos/S_yt-HMAa2QbfFPI_216.mp4	0.0	200.98615789413452	0.1161959171295166
49	135.1240952014923	response	0	2		47.0	2.5	/experiments/knapen_aot/videos/S_yt-HMAa2QbfFPI_216.mp4	0.0	201.09409999847412	
49	135.13234901428223	movie	1		301.0	47.0	2.5	/experiments/knapen_aot/videos/S_yt-HMAa2QbfFPI_216.mp4	0.0	201.10235381126404	2.5083651542663574
49	137.64071416854858	fix_post	2		12.0	47.0	2.5	/experiments/knapen_aot/videos/S_yt-HMAa2QbfFPI_216.mp4	0.0	203.6107189655304	0.09997892379760742
50	137.7406930923462	fix_pre	0		12.0	48.0	2.5	blank	1.0	203.710697889328	0.09997987747192383
50	137.8324921131134	response	0	2		48.0	2.5	blank	1.0	203.80249691009521	
50	137.84067296981812	movie	1		301.0	48.0	2.5	blank	1.0	203.81067776679993	2.508345127105713
50	140.34901809692383	fix_post	2		12.0	48.0	2.5	blank	1.0	206.31902289390564	0.09998106956481934
51	140.44899916648865	fix_pre	0		22.0	49.0	2.5	/experiments/knapen_aot/videos/S_comp_DB_D008_C010_PSNK_v21_SDR_PS_20180914_F0F16157_SDR_2K_AVC.mp4	0.0	206.41900396347046	0.18346285820007324
51	140.62413215637207	response	0	2		49.0	2.5	/experiments/knapen_aot/videos/S_comp_DB_D008_C010_PSNK_v21_SDR_PS_20180914_F0F16157_SDR_2K_AVC.mp4	0.0	206.59413695335388	
51	140.63246202468872	movie	1		170.0	49.0	2.5	/experiments/knapen_aot/videos/S_comp_DB_D008_C010_PSNK_v21_SDR_PS_20180914_F0F16157_SDR_2K_AVC.mp4	0.0	206.60246682167053	2.5082590579986572
51	143.14072108268738	fix_post	2		12.0	49.0	2.5	/experiments/knapen_aot/videos/S_comp_DB_D008_C010_PSNK_v21_SDR_PS_20180914_F0F16157_SDR_2K_AVC.mp4	0.0	209.1107258796692	0.09998011589050293
51	143.21580815315247	response	2	2		49.0	2.5	/experiments/knapen_aot/videos/S_comp_DB_D008_C010_PSNK_v21_SDR_PS_20180914_F0F16157_SDR_2K_AVC.mp4	0.0	209.18581295013428	
52	143.24070119857788	fix_pre	0		48.0	50.0	2.5	/experiments/knapen_aot/videos/R_S_bing-www_break_com_video_like-a-cat-catching-a-fly-3131008_12.mp4	0.0	209.2107059955597	0.40044283866882324
52	143.62488317489624	response	0	2		50.0	2.5	/experiments/knapen_aot/videos/R_S_bing-www_break_com_video_like-a-cat-catching-a-fly-3131008_12.mp4	0.0	209.59488797187805	
52	143.6411440372467	movie	1		301.0	50.0	2.5	/experiments/knapen_aot/videos/R_S_bing-www_break_com_video_like-a-cat-catching-a-fly-3131008_12.mp4	0.0	209.61114883422852	2.50781512260437
52	146.14895915985107	fix_post	2		12.0	50.0	2.5	/experiments/knapen_aot/videos/R_S_bing-www_break_com_video_like-a-cat-catching-a-fly-3131008_12.mp4	0.0	212.11896395683289	0.10000085830688477
53	146.24896001815796	fix_pre	0		14.0	51.0	2.5	/experiments/knapen_aot/videos/S_ILSVRC2015_train_00756000.mp4	0.0	212.21896481513977	0.1167140007019043
53	146.34995317459106	response	0	2		51.0	2.5	/experiments/knapen_aot/videos/S_ILSVRC2015_train_00756000.mp4	0.0	212.31995797157288	
53	146.36567401885986	movie	1		301.0	51.0	2.5	/experiments/knapen_aot/videos/S_ILSVRC2015_train_00756000.mp4	0.0	212.33567881584167	2.508316993713379
53	148.87399101257324	fix_post	2		12.0	51.0	2.5	/experiments/knapen_aot/videos/S_ILSVRC2015_train_00756000.mp4	0.0	214.84399580955505	0.10037708282470703
54	148.97436809539795	fix_pre	0		11.0	52.0	2.5	/experiments/knapen_aot/videos/R_S_yt-qBPDvSQD0XY_5.mp4	0.0	214.94437289237976	0.09128499031066895
54	149.0575110912323	response	0	2		52.0	2.5	/experiments/knapen_aot/videos/R_S_yt-qBPDvSQD0XY_5.mp4	0.0	215.0275158882141	
54	149.06565308570862	movie	1		301.0	52.0	2.5	/experiments/knapen_aot/videos/R_S_yt-qBPDvSQD0XY_5.mp4	0.0	215.03565788269043	2.5083019733428955
54	151.5739550590515	fix_post	2		12.0	52.0	2.5	/experiments/knapen_aot/videos/R_S_yt-qBPDvSQD0XY_5.mp4	0.0	217.54395985603333	0.10000896453857422
55	151.6739640235901	fix_pre	0		28.0	53.0	2.5	/experiments/knapen_aot/videos/S_yt-jYSri2JVUqo_1036.mp4	0.0	217.6439688205719	0.2332460880279541
55	151.89915299415588	response	0	2		53.0	2.5	/experiments/knapen_aot/videos/S_yt-jYSri2JVUqo_1036.mp4	0.0	217.8691577911377	
55	151.90721011161804	movie	1		301.0	53.0	2.5	/experiments/knapen_aot/videos/S_yt-jYSri2JVUqo_1036.mp4	0.0	217.87721490859985	2.5083670616149902
55	154.41557717323303	fix_post	2		12.0	53.0	2.5	/experiments/knapen_aot/videos/S_yt-jYSri2JVUqo_1036.mp4	0.0	220.38558197021484	0.1004188060760498
56	154.51599597930908	fix_pre	0		23.0	54.0	2.5	blank	1.0	220.4860007762909	0.1912081241607666
56	154.69913816452026	response	0	2		54.0	2.5	blank	1.0	220.66914296150208	
56	154.70720410346985	movie	1		301.0	54.0	2.5	blank	1.0	220.67720890045166	2.508363962173462
56	157.2155680656433	fix_post	2		12.0	54.0	2.5	blank	1.0	223.18557286262512	0.1000981330871582
57	157.31566619873047	fix_pre	0		57.0	55.0	2.5	/experiments/knapen_aot/videos/S_yt-jYSri2JVUqo_1036.mp4	0.0	223.28567099571228	0.47494077682495117
57	157.78240513801575	response	0	2		55.0	2.5	/experiments/knapen_aot/videos/S_yt-jYSri2JVUqo_1036.mp4	0.0	223.75240993499756	
57	157.79060697555542	movie	1		301.0	55.0	2.5	/experiments/knapen_aot/videos/S_yt-jYSri2JVUqo_1036.mp4	0.0	223.76061177253723	2.5083401203155518
57	160.29894709587097	fix_post	2		12.0	55.0	2.5	/experiments/knapen_aot/videos/S_yt-jYSri2JVUqo_1036.mp4	0.0	226.26895189285278	0.0999898910522461
58	160.39893698692322	fix_pre	0		8.0	56.0	2.5	/experiments/knapen_aot/videos/R_S_yt-jYSri2JVUqo_1036.mp4	0.0	226.36894178390503	0.0683901309967041
58	160.45753717422485	response	0	2		56.0	2.5	/experiments/knapen_aot/videos/R_S_yt-jYSri2JVUqo_1036.mp4	0.0	226.42754197120667	
58	160.46732711791992	movie	1		301.0	56.0	2.5	/experiments/knapen_aot/videos/R_S_yt-jYSri2JVUqo_1036.mp4	0.0	226.43733191490173	2.5066099166870117
58	162.97393703460693	fix_post	2		12.0	56.0	2.5	/experiments/knapen_aot/videos/R_S_yt-jYSri2JVUqo_1036.mp4	0.0	228.94394183158875	0.1000370979309082
59	163.07397413253784	fix_pre	0		9.0	57.0	2.5	/experiments/knapen_aot/videos/R_S_yt-2V2tq9-O_Nc_1669.mp4	0.0	229.04397892951965	0.07494688034057617
59	163.14077615737915	response	0	2		57.0	2.5	/experiments/knapen_aot/videos/R_S_yt-2V2tq9-O_Nc_1669.mp4	0.0	229.11078095436096	
59	163.14892101287842	movie	1		301.0	57.0	2.5	/experiments/knapen_aot/videos/R_S_yt-2V2tq9-O_Nc_1669.mp4	0.0	229.11892580986023	2.5083279609680176
59	165.65724897384644	fix_post	2		12.0	57.0	2.5	/experiments/knapen_aot/videos/R_S_yt-2V2tq9-O_Nc_1669.mp4	0.0	231.62725377082825	0.10000205039978027
60	165.75725102424622	fix_pre	0		6.0	58.0	2.5	/experiments/knapen_aot/videos/S_yt-XRQ_LSGGr3Y_712.mp4	0.0	231.72725582122803	0.050269126892089844
60	165.79141497612	response	0	2		58.0	2.5	/experiments/knapen_aot/videos/S_yt-XRQ_LSGGr3Y_712.mp4	0.0	231.7614197731018	
60	165.8075201511383	movie	1		301.0	58.0	2.5	/experiments/knapen_aot/videos/S_yt-XRQ_LSGGr3Y_712.mp4	0.0	231.77752494812012	2.5080149173736572
60	168.31553506851196	fix_post	2		12.0	58.0	2.5	/experiments/knapen_aot/videos/S_yt-XRQ_LSGGr3Y_712.mp4	0.0	234.28553986549377	0.10000801086425781
60	168.38322019577026	response	2	2		58.0	2.5	/experiments/knapen_aot/videos/S_yt-XRQ_LSGGr3Y_712.mp4	0.0	234.35322499275208	
61	168.41554307937622	fix_pre	0		78.0	59.0	2.5	/experiments/knapen_aot/videos/S_G009_C003_UHD_SDR_2K_AVC.mp4	0.0	234.38554787635803	0.6500289440155029
61	169.05728697776794	response	0	2		59.0	2.5	/experiments/knapen_aot/videos/S_G009_C003_UHD_SDR_2K_AVC.mp4	0.0	235.02729177474976	
61	169.06557202339172	movie	1		167.0	59.0	2.5	/experiments/knapen_aot/videos/S_G009_C003_UHD_SDR_2K_AVC.mp4	0.0	235.03557682037354	2.5083720684051514
61	171.57394409179688	fix_post	2		12.0	59.0	2.5	/experiments/knapen_aot/videos/S_G009_C003_UHD_SDR_2K_AVC.mp4	0.0	237.5439488887787	0.100006103515625
62	171.6739501953125	fix_pre	0		13.0	60.0	2.5	/experiments/knapen_aot/videos/S_ILSVRC2015_train_00578000.mp4	0.0	237.6439549922943	0.1082448959350586
62	171.774080991745	response	0	2		60.0	2.5	/experiments/knapen_aot/videos/S_ILSVRC2015_train_00578000.mp4	0.0	237.7440857887268	
62	171.78219509124756	movie	1		301.0	60.0	2.5	/experiments/knapen_aot/videos/S_ILSVRC2015_train_00578000.mp4	0.0	237.75219988822937	2.5083789825439453
62	174.2905740737915	fix_post	2		12.0	60.0	2.5	/experiments/knapen_aot/videos/S_ILSVRC2015_train_00578000.mp4	0.0	240.26057887077332	0.10027503967285156
63	174.39084911346436	fix_pre	0		2.0	61.0	2.5	/experiments/knapen_aot/videos/R_S_yt-NLfzvAJgyJ4_120.mp4	0.0	240.36085391044617	0.01637887954711914
63	174.3990659713745	response	0	2		61.0	2.5	/experiments/knapen_aot/videos/R_S_yt-NLfzvAJgyJ4_120.mp4	0.0	240.36907076835632	
63	174.40722799301147	movie	1		299.0	61.0	2.5	/experiments/knapen_aot/videos/R_S_yt-NLfzvAJgyJ4_120.mp4	0.0	240.3772327899933	2.5082740783691406
63	176.91550207138062	fix_post	2		12.0	61.0	2.5	/experiments/knapen_aot/videos/R_S_yt-NLfzvAJgyJ4_120.mp4	0.0	242.88550686836243	0.10025191307067871
64	177.0157539844513	fix_pre	0		3.0	62.0	2.5	/experiments/knapen_aot/videos/R_S_video-10.mp4	0.0	242.9857587814331	0.024799108505249023
64	177.03240299224854	response	0	2		62.0	2.5	/experiments/knapen_aot/videos/R_S_video-10.mp4	0.0	243.00240778923035	
64	177.04055309295654	movie	1		167.0	62.0	2.5	/experiments/knapen_aot/videos/R_S_video-10.mp4	0.0	243.01055788993835	2.5082409381866455
64	179.5487940311432	fix_post	2		12.0	62.0	2.5	/experiments/knapen_aot/videos/R_S_video-10.mp4	0.0	245.518798828125	0.10003805160522461
65	179.6488320827484	fix_pre	0		57.0	63.0	2.5	blank	1.0	245.61883687973022	0.47497105598449707
65	180.11564707756042	response	0	2		63.0	2.5	blank	1.0	246.08565187454224	
65	180.1238031387329	movie	1		301.0	63.0	2.5	blank	1.0	246.09380793571472	2.5083608627319336
65	182.63216400146484	fix_post	2		12.0	63.0	2.5	blank	1.0	248.60216879844666	0.09994816780090332
66	182.73211216926575	fix_pre	0		125.0	64.0	2.5	/experiments/knapen_aot/videos/S_yt-146gReE6xKw_379.mp4	0.0	248.70211696624756	1.0417189598083496
66	183.76561403274536	response	0	2		64.0	2.5	/experiments/knapen_aot/videos/S_yt-146gReE6xKw_379.mp4	0.0	249.73561882972717	
66	183.7738311290741	movie	1		299.0	64.0	2.5	/experiments/knapen_aot/videos/S_yt-146gReE6xKw_379.mp4	0.0	249.7438359260559	2.5083298683166504
66	186.28216099739075	fix_post	2		12.0	64.0	2.5	/experiments/knapen_aot/videos/S_yt-146gReE6xKw_379.mp4	0.0	252.25216579437256	0.09991908073425293
67	186.382080078125	fix_pre	0		7.0	65.0	2.5	/experiments/knapen_aot/videos/S_OdxWh1oU8e8_1.mp4	0.0	252.3520848751068	0.05832505226135254
67	186.4247920513153	response	0	2		65.0	2.5	/experiments/knapen_aot/videos/S_OdxWh1oU8e8_1.mp4	0.0	252.39479684829712	
67	186.44040513038635	movie	1		301.0	65.0	2.5	/experiments/knapen_aot/videos/S_OdxWh1oU8e8_1.mp4	0.0	252.41040992736816	2.5083138942718506
67	188.9487190246582	fix_post	2		12.0	65.0	2.5	/experiments/knapen_aot/videos/S_OdxWh1oU8e8_1.mp4	0.0	254.91872382164001	0.1000680923461914
68	189.0487871170044	fix_pre	0		27.0	66.0	2.5	/experiments/knapen_aot/videos/R_S_ILSVRC2015_train_00638001.mp4	0.0	255.0187919139862	0.22499799728393555
68	189.2655839920044	response	0	2		66.0	2.5	/experiments/knapen_aot/videos/R_S_ILSVRC2015_train_00638001.mp4	0.0	255.2355887889862	
68	189.27378511428833	movie	1		301.0	66.0	2.5	/experiments/knapen_aot/videos/R_S_ILSVRC2015_train_00638001.mp4	0.0	255.24378991127014	2.5083038806915283
68	191.78208899497986	fix_post	2		12.0	66.0	2.5	/experiments/knapen_aot/videos/R_S_ILSVRC2015_train_00638001.mp4	0.0	257.75209379196167	0.1000220775604248
69	191.88211107254028	fix_pre	0		7.0	67.0	2.5	/experiments/knapen_aot/videos/R_S_yt-MNo__ov96eI_22.mp4	0.0	257.8521158695221	0.05834007263183594
69	191.93227410316467	response	0	2		67.0	2.5	/experiments/knapen_aot/videos/R_S_yt-MNo__ov96eI_22.mp4	0.0	257.9022789001465	
69	191.94045114517212	movie	1		301.0	67.0	2.5	/experiments/knapen_aot/videos/R_S_yt-MNo__ov96eI_22.mp4	0.0	257.91045594215393	2.5083189010620117
69	194.44877004623413	fix_post	2		12.0	67.0	2.5	/experiments/knapen_aot/videos/R_S_yt-MNo__ov96eI_22.mp4	0.0	260.41877484321594	0.10007309913635254
70	194.54884314537048	fix_pre	0		34.0	68.0	2.5	/experiments/knapen_aot/videos/S_yt-dO0OuozAgt0_225.mp4	0.0	260.5188479423523	0.2833058834075928
70	194.8239130973816	response	0	2		68.0	2.5	/experiments/knapen_aot/videos/S_yt-dO0OuozAgt0_225.mp4	0.0	260.7939178943634	
70	194.83214902877808	movie	1		301.0	68.0	2.5	/experiments/knapen_aot/videos/S_yt-dO0OuozAgt0_225.mp4	0.0	260.8021538257599	2.5082449913024902
70	197.34039402008057	fix_post	2		12.0	68.0	2.5	/experiments/knapen_aot/videos/S_yt-dO0OuozAgt0_225.mp4	0.0	263.3103988170624	0.1000511646270752
71	197.44044518470764	fix_pre	0		38.0	69.0	2.5	/experiments/knapen_aot/videos/S_ILSVRC2015_train_00715000.mp4	0.0	263.41044998168945	0.3166329860687256
71	197.7488660812378	response	0	2		69.0	2.5	/experiments/knapen_aot/videos/S_ILSVRC2015_train_00715000.mp4	0.0	263.7188708782196	
71	197.75707817077637	movie	1		301.0	69.0	2.5	/experiments/knapen_aot/videos/S_ILSVRC2015_train_00715000.mp4	0.0	263.7270829677582	2.508486032485962
71	200.26556420326233	fix_post	2		12.0	69.0	2.5	/experiments/knapen_aot/videos/S_ILSVRC2015_train_00715000.mp4	0.0	266.23556900024414	0.09986495971679688
72	200.36542916297913	fix_pre	0		19.0	70.0	2.5	blank	1.0	266.33543395996094	0.15836787223815918
72	200.51556015014648	response	0	2		70.0	2.5	blank	1.0	266.4855649471283	
72	200.52379703521729	movie	1		301.0	70.0	2.5	blank	1.0	266.4938018321991	2.5082530975341797
72	203.03205013275146	fix_post	2		12.0	70.0	2.5	blank	1.0	269.0020549297333	0.1000208854675293
73	203.132071018219	fix_pre	0		31.0	71.0	2.5	/experiments/knapen_aot/videos/S_yt-pB9w3AA-woE_37.mp4	0.0	269.1020758152008	0.258411169052124
73	203.3821051120758	response	0	2		71.0	2.5	/experiments/knapen_aot/videos/S_yt-pB9w3AA-woE_37.mp4	0.0	269.3521099090576	
73	203.39048218727112	movie	1		301.0	71.0	2.5	/experiments/knapen_aot/videos/S_yt-pB9w3AA-woE_37.mp4	0.0	269.36048698425293	2.508236885070801
73	205.89871907234192	fix_post	2		12.0	71.0	2.5	/experiments/knapen_aot/videos/S_yt-pB9w3AA-woE_37.mp4	0.0	271.86872386932373	0.09998297691345215
73	205.99056005477905	response	2	2		71.0	2.5	/experiments/knapen_aot/videos/S_yt-pB9w3AA-woE_37.mp4	0.0	271.96056485176086	
74	205.99870204925537	fix_pre	0		44.0	72.0	2.5	/experiments/knapen_aot/videos/R_S_comp_A009_C001_010181A_v09_SDR_PS_FINAL_20180725_SDR_2K_AVC.mp4	0.0	271.9687068462372	0.36670398712158203
74	206.35713505744934	response	0	2		72.0	2.5	/experiments/knapen_aot/videos/R_S_comp_A009_C001_010181A_v09_SDR_PS_FINAL_20180725_SDR_2K_AVC.mp4	0.0	272.32713985443115	
74	206.36540603637695	movie	1		168.0	72.0	2.5	/experiments/knapen_aot/videos/R_S_comp_A009_C001_010181A_v09_SDR_PS_FINAL_20180725_SDR_2K_AVC.mp4	0.0	272.33541083335876	2.508358955383301
74	208.87376499176025	fix_post	2		12.0	72.0	2.5	/experiments/knapen_aot/videos/R_S_comp_A009_C001_010181A_v09_SDR_PS_FINAL_20180725_SDR_2K_AVC.mp4	0.0	274.84376978874207	0.10007214546203613
74	208.89897298812866	response	2	2		72.0	2.5	/experiments/knapen_aot/videos/R_S_comp_A009_C001_010181A_v09_SDR_PS_FINAL_20180725_SDR_2K_AVC.mp4	0.0	274.8689777851105	
75	208.9738371372223	fix_pre	0		57.0	73.0	2.5	/experiments/knapen_aot/videos/S_yt-2IfvnrF3IV0_241.mp4	0.0	274.9438419342041	0.47490692138671875
75	209.44049501419067	response	0	2		73.0	2.5	/experiments/knapen_aot/videos/S_yt-2IfvnrF3IV0_241.mp4	0.0	275.4104998111725	
75	209.448744058609	movie	1		300.0	73.0	2.5	/experiments/knapen_aot/videos/S_yt-2IfvnrF3IV0_241.mp4	0.0	275.4187488555908	2.5083470344543457
75	211.95709109306335	fix_post	2		12.0	73.0	2.5	/experiments/knapen_aot/videos/S_yt-2IfvnrF3IV0_241.mp4	0.0	277.92709589004517	0.10000896453857422
76	212.05710005760193	fix_pre	0		21.0	74.0	2.5	/experiments/knapen_aot/videos/R_S_yt-I9uf7kAccFA_229.mp4	0.0	278.02710485458374	0.17496013641357422
76	212.22391510009766	response	0	2		74.0	2.5	/experiments/knapen_aot/videos/R_S_yt-I9uf7kAccFA_229.mp4	0.0	278.19391989707947	
76	212.2320601940155	movie	1		301.0	74.0	2.5	/experiments/knapen_aot/videos/R_S_yt-I9uf7kAccFA_229.mp4	0.0	278.2020649909973	2.5082738399505615
76	214.74033403396606	fix_post	2		12.0	74.0	2.5	/experiments/knapen_aot/videos/R_S_yt-I9uf7kAccFA_229.mp4	0.0	280.7103388309479	0.10003209114074707
77	214.8403661251068	fix_pre	0		17.0	75.0	2.5	blank	1.0	280.8103709220886	0.14172887802124023
77	214.9738690853119	response	0	2		75.0	2.5	blank	1.0	280.9438738822937	
77	214.98209500312805	movie	1		301.0	75.0	2.5	blank	1.0	280.95209980010986	2.5083069801330566
77	217.4904019832611	fix_post	2		12.0	75.0	2.5	blank	1.0	283.4604067802429	0.09999513626098633
78	217.5903971195221	fix_pre	0		129.0	76.0	2.5	/experiments/knapen_aot/videos/S_yt-4qU-6TEW06E_38.mp4	0.0	283.5604019165039	1.0749449729919434
78	218.65717697143555	response	0	2		76.0	2.5	/experiments/knapen_aot/videos/S_yt-4qU-6TEW06E_38.mp4	0.0	284.62718176841736	
78	218.66534209251404	movie	1		301.0	76.0	2.5	/experiments/knapen_aot/videos/S_yt-4qU-6TEW06E_38.mp4	0.0	284.63534688949585	2.5083670616149902
78	221.17370915412903	fix_post	2		12.0	76.0	2.5	/experiments/knapen_aot/videos/S_yt-4qU-6TEW06E_38.mp4	0.0	287.14371395111084	0.09999299049377441
79	221.2737021446228	fix_pre	0		411.0	77.0	2.5	/experiments/knapen_aot/videos/R_S_yt-JG2OY_7B-gI_537.mp4	0.0	287.2437069416046	3.424931049346924
79	224.68295407295227	response	0	2		77.0	2.5	/experiments/knapen_aot/videos/R_S_yt-JG2OY_7B-gI_537.mp4	0.0	290.6529588699341	
79	224.69863319396973	movie	1		301.0	77.0	2.5	/experiments/knapen_aot/videos/R_S_yt-JG2OY_7B-gI_537.mp4	0.0	290.66863799095154	2.508330821990967
79	227.2069640159607	fix_post	2		12.0	77.0	2.5	/experiments/knapen_aot/videos/R_S_yt-JG2OY_7B-gI_537.mp4	0.0	293.1769688129425	0.10002303123474121
80	227.30698704719543	fix_pre	0		12.0	78.0	2.5	/experiments/knapen_aot/videos/R_S_ILSVRC2015_train_00587000.mp4	0.0	293.27699184417725	0.0999600887298584
80	227.39878702163696	response	0	2		78.0	2.5	/experiments/knapen_aot/videos/R_S_ILSVRC2015_train_00587000.mp4	0.0	293.3687918186188	
80	227.4069471359253	movie	1		299.0	78.0	2.5	/experiments/knapen_aot/videos/R_S_ILSVRC2015_train_00587000.mp4	0.0	293.3769519329071	2.5083818435668945
80	229.9153289794922	fix_post	2		12.0	78.0	2.5	/experiments/knapen_aot/videos/R_S_ILSVRC2015_train_00587000.mp4	0.0	295.885333776474	0.10002303123474121
81	230.01535201072693	fix_pre	0		1.0	79.0	2.5	/experiments/knapen_aot/videos/R_S_yt-fymgyhmYnMI_76.mp4	0.0	295.98535680770874	0.008320093154907227
81	230.0170760154724	response	0	2		79.0	2.5	/experiments/knapen_aot/videos/R_S_yt-fymgyhmYnMI_76.mp4	0.0	295.9870808124542	
81	230.02367210388184	movie	1		301.0	79.0	2.5	/experiments/knapen_aot/videos/R_S_yt-fymgyhmYnMI_76.mp4	0.0	295.99367690086365	2.5082380771636963
81	232.53191018104553	fix_post	2		12.0	79.0	2.5	/experiments/knapen_aot/videos/R_S_yt-fymgyhmYnMI_76.mp4	0.0	298.50191497802734	0.10003399848937988
82	232.6319441795349	fix_pre	0		35.0	80.0	2.5	/experiments/knapen_aot/videos/R_S_yt-HMAa2QbfFPI_216.mp4	0.0	298.6019489765167	0.2930028438568115
82	232.9154930114746	response	0	2		80.0	2.5	/experiments/knapen_aot/videos/R_S_yt-HMAa2QbfFPI_216.mp4	0.0	298.8854978084564	
82	232.92494702339172	movie	1		301.0	80.0	2.5	/experiments/knapen_aot/videos/R_S_yt-HMAa2QbfFPI_216.mp4	0.0	298.89495182037354	2.5069761276245117
82	235.43192315101624	fix_post	2		12.0	80.0	2.5	/experiments/knapen_aot/videos/R_S_yt-HMAa2QbfFPI_216.mp4	0.0	301.40192794799805	0.10001897811889648
83	235.53194212913513	fix_pre	0		22.0	81.0	2.5	/experiments/knapen_aot/videos/S_yt-6mRpmfIvdew_1435.mp4	0.0	301.50194692611694	0.1833338737487793
83	235.70697617530823	response	0	2		81.0	2.5	/experiments/knapen_aot/videos/S_yt-6mRpmfIvdew_1435.mp4	0.0	301.67698097229004	
83	235.7152760028839	movie	1		301.0	81.0	2.5	/experiments/knapen_aot/videos/S_yt-6mRpmfIvdew_1435.mp4	0.0	301.6852807998657	2.5083281993865967
83	238.2236042022705	fix_post	2		12.0	81.0	2.5	/experiments/knapen_aot/videos/S_yt-6mRpmfIvdew_1435.mp4	0.0	304.1936089992523	0.09995794296264648
84	238.32356214523315	fix_pre	0		26.0	82.0	2.5	/experiments/knapen_aot/videos/S_ILSVRC2015_train_00323000.mp4	0.0	304.29356694221497	0.21670293807983398
84	238.53200817108154	response	0	2		82.0	2.5	/experiments/knapen_aot/videos/S_ILSVRC2015_train_00323000.mp4	0.0	304.50201296806335	
84	238.540265083313	movie	1		301.0	82.0	2.5	/experiments/knapen_aot/videos/S_ILSVRC2015_train_00323000.mp4	0.0	304.5102698802948	2.508352041244507
84	241.0486171245575	fix_post	2		12.0	82.0	2.5	/experiments/knapen_aot/videos/S_ILSVRC2015_train_00323000.mp4	0.0	307.0186219215393	0.09998393058776855
85	241.14860105514526	fix_pre	0		16.0	83.0	2.5	blank	1.0	307.1186058521271	0.1333320140838623
85	241.27362704277039	response	0	2		83.0	2.5	blank	1.0	307.2436318397522	
85	241.28193306922913	movie	1		301.0	83.0	2.5	blank	1.0	307.25193786621094	2.5083529949188232
85	243.79028606414795	fix_post	2		12.0	83.0	2.5	blank	1.0	309.76029086112976	0.09999203681945801
87	243.8902781009674	stim	0		9.0					309.8602828979492	0.07625699043273926
87	243.96111512184143	response	0	space						309.93111991882324	
