trial_nr	onset	event_type	phase	response	nr_frames	movie_index	movie_duration	movie_file	blank	onset_abs	duration
0	0.1524341106414795	stim	0		12.0					60.089747190475464	0.09748101234436035
0	0.24231314659118652	response	0	space						60.17962622642517	
1	0.24991512298583984	stim	0		121.0					60.187228202819824	1.0086379051208496
1	1.2585530281066895	stim	1		120.0					61.195866107940674	0.9994361400604248
1	1.941460132598877	response	1	space						61.87877321243286	
2	2.2579891681671143	fix_pre	0		37.0	0.0	2.5	/experiments/knapen_aot/videos/S_yt-gaCbT4RR9Tw_191.mp4	0.0	62.1953022480011	0.3082458972930908
2	2.5580451488494873	response	0	space		0.0	2.5	/experiments/knapen_aot/videos/S_yt-gaCbT4RR9Tw_191.mp4	0.0	62.49535822868347	
2	2.566235065460205	movie	1		298.0	0.0	2.5	/experiments/knapen_aot/videos/S_yt-gaCbT4RR9Tw_191.mp4	0.0	62.50354814529419	2.5084080696105957
2	5.074643135070801	fix_post	2		12.0	0.0	2.5	/experiments/knapen_aot/videos/S_yt-gaCbT4RR9Tw_191.mp4	0.0	65.01195621490479	0.09997797012329102
3	5.174621105194092	fix_pre	0		77.0	1.0	2.5	/experiments/knapen_aot/videos/R_S_yt-5fnd__rpWeE_396.mp4	0.0	65.11193418502808	0.6434550285339355
3	5.812319993972778	response	0	2		1.0	2.5	/experiments/knapen_aot/videos/R_S_yt-5fnd__rpWeE_396.mp4	0.0	65.74963307380676	
3	5.818076133728027	movie	1		294.0	1.0	2.5	/experiments/knapen_aot/videos/R_S_yt-5fnd__rpWeE_396.mp4	0.0	65.75538921356201	2.5065019130706787
3	8.324578046798706	fix_post	2		12.0	1.0	2.5	/experiments/knapen_aot/videos/R_S_yt-5fnd__rpWeE_396.mp4	0.0	68.26189112663269	0.09993696212768555
4	8.424515008926392	fix_pre	0		16.0	2.0	2.5	/experiments/knapen_aot/videos/S_yt-MWX0EtpWIs8_286.mp4	0.0	68.36182808876038	0.1334211826324463
4	8.54966115951538	response	0	2		2.0	2.5	/experiments/knapen_aot/videos/S_yt-MWX0EtpWIs8_286.mp4	0.0	68.48697423934937	
4	8.557936191558838	movie	1		301.0	2.0	2.5	/experiments/knapen_aot/videos/S_yt-MWX0EtpWIs8_286.mp4	0.0	68.49524927139282	2.5083627700805664
4	11.066298961639404	fix_post	2		12.0	2.0	2.5	/experiments/knapen_aot/videos/S_yt-MWX0EtpWIs8_286.mp4	0.0	71.00361204147339	0.09988117218017578
5	11.16618013381958	fix_pre	0		27.0	3.0	2.5	/experiments/knapen_aot/videos/S_yt--a-d97T4Gak_75.mp4	0.0	71.10349321365356	0.2250208854675293
5	11.383007049560547	response	0	2		3.0	2.5	/experiments/knapen_aot/videos/S_yt--a-d97T4Gak_75.mp4	0.0	71.32032012939453	
5	11.39120101928711	movie	1		301.0	3.0	2.5	/experiments/knapen_aot/videos/S_yt--a-d97T4Gak_75.mp4	0.0	71.3285140991211	2.5083470344543457
5	13.899548053741455	fix_post	2		12.0	3.0	2.5	/experiments/knapen_aot/videos/S_yt--a-d97T4Gak_75.mp4	0.0	73.83686113357544	0.10001611709594727
6	13.999564170837402	fix_pre	0		35.0	4.0	2.5	/experiments/knapen_aot/videos/R_S_ILSVRC2015_train_00559000.mp4	0.0	73.93687725067139	0.2916538715362549
6	14.282997131347656	response	0	2		4.0	2.5	/experiments/knapen_aot/videos/R_S_ILSVRC2015_train_00559000.mp4	0.0	74.22031021118164	
6	14.291218042373657	movie	1		301.0	4.0	2.5	/experiments/knapen_aot/videos/R_S_ILSVRC2015_train_00559000.mp4	0.0	74.22853112220764	2.508376121520996
6	16.799594163894653	fix_post	2		12.0	4.0	2.5	/experiments/knapen_aot/videos/R_S_ILSVRC2015_train_00559000.mp4	0.0	76.73690724372864	0.09991788864135742
7	16.89951205253601	fix_pre	0		34.0	5.0	2.5	blank	1.0	76.83682513237	0.2833850383758545
7	17.17461895942688	response	0	2		5.0	2.5	blank	1.0	77.11193203926086	
7	17.182897090911865	movie	1		301.0	5.0	2.5	blank	1.0	77.12021017074585	2.5083370208740234
7	19.69123411178589	fix_post	2		12.0	5.0	2.5	blank	1.0	79.62854719161987	0.09996390342712402
8	19.791198015213013	fix_pre	0		41.0	6.0	2.5	/experiments/knapen_aot/videos/R_S_yt-foGMTdxewBI_43.mp4	0.0	79.728511095047	0.3416719436645508
8	20.1170551776886	response	0	2		6.0	2.5	/experiments/knapen_aot/videos/R_S_yt-foGMTdxewBI_43.mp4	0.0	80.05436825752258	
8	20.132869958877563	movie	1		301.0	6.0	2.5	/experiments/knapen_aot/videos/R_S_yt-foGMTdxewBI_43.mp4	0.0	80.07018303871155	2.508312225341797
8	22.64118218421936	fix_post	2		12.0	6.0	2.5	/experiments/knapen_aot/videos/R_S_yt-foGMTdxewBI_43.mp4	0.0	82.57849526405334	0.10044598579406738
9	22.741628170013428	fix_pre	0		35.0	7.0	2.5	/experiments/knapen_aot/videos/S_yt-wEbfIR14zZ8_7.mp4	0.0	82.67894124984741	0.2917029857635498
9	23.017086029052734	response	0	2		7.0	2.5	/experiments/knapen_aot/videos/S_yt-wEbfIR14zZ8_7.mp4	0.0	82.95439910888672	
9	23.033331155776978	movie	1		301.0	7.0	2.5	/experiments/knapen_aot/videos/S_yt-wEbfIR14zZ8_7.mp4	0.0	82.97064423561096	2.5079638957977295
9	25.541295051574707	fix_post	2		12.0	7.0	2.5	/experiments/knapen_aot/videos/S_yt-wEbfIR14zZ8_7.mp4	0.0	85.47860813140869	0.09987211227416992
10	25.641167163848877	fix_pre	0		28.0	8.0	2.5	/experiments/knapen_aot/videos/S_yt--I4Ggi6-QOE_23.mp4	0.0	85.57848024368286	0.23328495025634766
10	25.85883903503418	response	0	2		8.0	2.5	/experiments/knapen_aot/videos/S_yt--I4Ggi6-QOE_23.mp4	0.0	85.79615211486816	
10	25.874452114105225	movie	1		301.0	8.0	2.5	/experiments/knapen_aot/videos/S_yt--I4Ggi6-QOE_23.mp4	0.0	85.81176519393921	2.5085179805755615
10	28.382970094680786	fix_post	2		12.0	8.0	2.5	/experiments/knapen_aot/videos/S_yt--I4Ggi6-QOE_23.mp4	0.0	88.32028317451477	0.09991002082824707
11	28.482880115509033	fix_pre	0		49.0	9.0	2.5	/experiments/knapen_aot/videos/S_yt-0bovQBIUZho_15.mp4	0.0	88.42019319534302	0.40826892852783203
11	28.875452041625977	response	0	2		9.0	2.5	/experiments/knapen_aot/videos/S_yt-0bovQBIUZho_15.mp4	0.0	88.81276512145996	
11	28.891149044036865	movie	1		301.0	9.0	2.5	/experiments/knapen_aot/videos/S_yt-0bovQBIUZho_15.mp4	0.0	88.82846212387085	2.508397102355957
11	31.399546146392822	fix_post	2		12.0	9.0	2.5	/experiments/knapen_aot/videos/S_yt-0bovQBIUZho_15.mp4	0.0	91.3368592262268	0.09987092018127441
12	31.499417066574097	fix_pre	0		35.0	10.0	2.5	/experiments/knapen_aot/videos/S_yt-4i1b6NQ9NKs_5.mp4	0.0	91.43673014640808	0.2916989326477051
12	31.782934188842773	response	0	2		10.0	2.5	/experiments/knapen_aot/videos/S_yt-4i1b6NQ9NKs_5.mp4	0.0	91.72024726867676	
12	31.7911159992218	movie	1		301.0	10.0	2.5	/experiments/knapen_aot/videos/S_yt-4i1b6NQ9NKs_5.mp4	0.0	91.72842907905579	2.508371114730835
12	34.29948711395264	fix_post	2		12.0	10.0	2.5	/experiments/knapen_aot/videos/S_yt-4i1b6NQ9NKs_5.mp4	0.0	94.23680019378662	0.09998798370361328
13	34.39947509765625	fix_pre	0		171.0	11.0	2.5	/experiments/knapen_aot/videos/S_yt-AiXq1oDrEXI_123.mp4	0.0	94.33678817749023	1.425234079360962
13	35.80872297286987	response	0	2		11.0	2.5	/experiments/knapen_aot/videos/S_yt-AiXq1oDrEXI_123.mp4	0.0	95.74603605270386	
13	35.82470917701721	movie	1		301.0	11.0	2.5	/experiments/knapen_aot/videos/S_yt-AiXq1oDrEXI_123.mp4	0.0	95.7620222568512	2.5080978870391846
13	38.3328070640564	fix_post	2		12.0	11.0	2.5	/experiments/knapen_aot/videos/S_yt-AiXq1oDrEXI_123.mp4	0.0	98.27012014389038	0.09998893737792969
14	38.432796001434326	fix_pre	0		69.0	12.0	2.5	/experiments/knapen_aot/videos/R_S_wc-Mf8SQpviaD6D_17.mp4	0.0	98.37010908126831	0.5749061107635498
14	38.999587059020996	response	0	2		12.0	2.5	/experiments/knapen_aot/videos/R_S_wc-Mf8SQpviaD6D_17.mp4	0.0	98.93690013885498	
14	39.007702112197876	movie	1		171.0	12.0	2.5	/experiments/knapen_aot/videos/R_S_wc-Mf8SQpviaD6D_17.mp4	0.0	98.94501519203186	2.5084400177001953
14	41.51614212989807	fix_post	2		12.0	12.0	2.5	/experiments/knapen_aot/videos/R_S_wc-Mf8SQpviaD6D_17.mp4	0.0	101.45345520973206	0.1002650260925293
15	41.6164071559906	fix_pre	0		43.0	13.0	2.5	/experiments/knapen_aot/videos/S_yt-ObT9gF8E_tU_250.mp4	0.0	101.55372023582458	0.35800886154174805
15	41.96622610092163	response	0	2		13.0	2.5	/experiments/knapen_aot/videos/S_yt-ObT9gF8E_tU_250.mp4	0.0	101.90353918075562	
15	41.97441601753235	movie	1		301.0	13.0	2.5	/experiments/knapen_aot/videos/S_yt-ObT9gF8E_tU_250.mp4	0.0	101.91172909736633	2.508420944213867
15	44.482836961746216	fix_post	2		12.0	13.0	2.5	/experiments/knapen_aot/videos/S_yt-ObT9gF8E_tU_250.mp4	0.0	104.4201500415802	0.1000361442565918
16	44.58287310600281	fix_pre	0		44.0	14.0	2.5	blank	1.0	104.52018618583679	0.3668808937072754
16	44.941190004348755	response	0	2		14.0	2.5	blank	1.0	104.87850308418274	
16	44.94975399971008	movie	1		301.0	14.0	2.5	blank	1.0	104.88706707954407	2.5080859661102295
16	47.45783996582031	fix_post	2		12.0	14.0	2.5	blank	1.0	107.3951530456543	0.09994006156921387
17	47.557780027389526	fix_pre	0		51.0	15.0	2.5	/experiments/knapen_aot/videos/S_yt-dESxu60Cl10_24.mp4	0.0	107.49509310722351	0.4248809814453125
17	47.97450304031372	response	0	2		15.0	2.5	/experiments/knapen_aot/videos/S_yt-dESxu60Cl10_24.mp4	0.0	107.9118161201477	
17	47.98266100883484	movie	1		301.0	15.0	2.5	/experiments/knapen_aot/videos/S_yt-dESxu60Cl10_24.mp4	0.0	107.91997408866882	2.50838303565979
17	50.49104404449463	fix_post	2		12.0	15.0	2.5	/experiments/knapen_aot/videos/S_yt-dESxu60Cl10_24.mp4	0.0	110.42835712432861	0.1000370979309082
18	50.59108114242554	fix_pre	0		46.0	16.0	2.5	/experiments/knapen_aot/videos/S_yt-E8EDQCPbBeI_196.mp4	0.0	110.52839422225952	0.3833198547363281
18	50.96614217758179	response	0	2		16.0	2.5	/experiments/knapen_aot/videos/S_yt-E8EDQCPbBeI_196.mp4	0.0	110.90345525741577	
18	50.974400997161865	movie	1		301.0	16.0	2.5	/experiments/knapen_aot/videos/S_yt-E8EDQCPbBeI_196.mp4	0.0	110.91171407699585	2.5083200931549072
18	53.48272109031677	fix_post	2		12.0	16.0	2.5	/experiments/knapen_aot/videos/S_yt-E8EDQCPbBeI_196.mp4	0.0	113.42003417015076	0.10001397132873535
19	53.58273506164551	fix_pre	0		50.0	17.0	2.5	/experiments/knapen_aot/videos/R_S_ILSVRC2015_train_00411000.mp4	0.0	113.52004814147949	0.41673994064331055
19	53.983575105667114	response	0	2		17.0	2.5	/experiments/knapen_aot/videos/R_S_ILSVRC2015_train_00411000.mp4	0.0	113.9208881855011	
19	53.99947500228882	movie	1		301.0	17.0	2.5	/experiments/knapen_aot/videos/R_S_ILSVRC2015_train_00411000.mp4	0.0	113.9367880821228	2.5082311630249023
19	56.50770616531372	fix_post	2		12.0	17.0	2.5	/experiments/knapen_aot/videos/R_S_ILSVRC2015_train_00411000.mp4	0.0	116.4450192451477	0.09995102882385254
20	56.60765719413757	fix_pre	0		35.0	18.0	2.5	/experiments/knapen_aot/videos/S_yt-JtR6WZXT2kU_8.mp4	0.0	116.54497027397156	0.2916147708892822
20	56.891157150268555	response	0	2		18.0	2.5	/experiments/knapen_aot/videos/S_yt-JtR6WZXT2kU_8.mp4	0.0	116.82847023010254	
20	56.899271965026855	movie	1		301.0	18.0	2.5	/experiments/knapen_aot/videos/S_yt-JtR6WZXT2kU_8.mp4	0.0	116.83658504486084	2.5086631774902344
20	59.40793514251709	fix_post	2		12.0	18.0	2.5	/experiments/knapen_aot/videos/S_yt-JtR6WZXT2kU_8.mp4	0.0	119.34524822235107	0.09974884986877441
21	59.507683992385864	fix_pre	0		65.0	19.0	2.5	blank	1.0	119.44499707221985	0.5416841506958008
21	60.04114603996277	response	0	2		19.0	2.5	blank	1.0	119.97845911979675	
21	60.049368143081665	movie	1		301.0	19.0	2.5	blank	1.0	119.98668122291565	2.5083608627319336
21	62.5577290058136	fix_post	2		12.0	19.0	2.5	blank	1.0	122.49504208564758	0.10011506080627441
22	62.65784406661987	fix_pre	0		93.0	20.0	2.5	/experiments/knapen_aot/videos/R_S_yt-fQgLKiz2tuM_14.mp4	0.0	122.59515714645386	0.7747979164123535
22	63.42448711395264	response	0	2		20.0	2.5	/experiments/knapen_aot/videos/R_S_yt-fQgLKiz2tuM_14.mp4	0.0	123.36180019378662	
22	63.43264198303223	movie	1		301.0	20.0	2.5	/experiments/knapen_aot/videos/R_S_yt-fQgLKiz2tuM_14.mp4	0.0	123.36995506286621	2.508333206176758
22	65.94097518920898	fix_post	2		12.0	20.0	2.5	/experiments/knapen_aot/videos/R_S_yt-fQgLKiz2tuM_14.mp4	0.0	125.87828826904297	0.10007476806640625
23	66.04104995727539	fix_pre	0		82.0	21.0	2.5	/experiments/knapen_aot/videos/S_yt-aqrdb6BiFx4_12.mp4	0.0	125.97836303710938	0.6832261085510254
23	66.71611309051514	response	0	2		21.0	2.5	/experiments/knapen_aot/videos/S_yt-aqrdb6BiFx4_12.mp4	0.0	126.65342617034912	
23	66.72427606582642	movie	1		301.0	21.0	2.5	/experiments/knapen_aot/videos/S_yt-aqrdb6BiFx4_12.mp4	0.0	126.6615891456604	2.508301019668579
23	69.232577085495	fix_post	2		12.0	21.0	2.5	/experiments/knapen_aot/videos/S_yt-aqrdb6BiFx4_12.mp4	0.0	129.16989016532898	0.10006403923034668
24	69.33264112472534	fix_pre	0		60.0	22.0	2.5	/experiments/knapen_aot/videos/R_S_yt-WCT9dyz0-gQ_36.mp4	0.0	129.26995420455933	0.49994802474975586
24	69.82447910308838	response	0	2		22.0	2.5	/experiments/knapen_aot/videos/R_S_yt-WCT9dyz0-gQ_36.mp4	0.0	129.76179218292236	
24	69.8325891494751	movie	1		301.0	22.0	2.5	/experiments/knapen_aot/videos/R_S_yt-WCT9dyz0-gQ_36.mp4	0.0	129.76990222930908	2.5083978176116943
24	72.34098696708679	fix_post	2		12.0	22.0	2.5	/experiments/knapen_aot/videos/R_S_yt-WCT9dyz0-gQ_36.mp4	0.0	132.27830004692078	0.10003399848937988
25	72.44102096557617	fix_pre	0		40.0	23.0	2.5	/experiments/knapen_aot/videos/S_comp_GMT026_363A_103NC_E1027_KOREA_JAPAN_NIGHT_v18_SDR_PS_20180907_SDR_2K_AVC.mp4	0.0	132.37833404541016	0.3332500457763672
25	72.76600503921509	response	0	2		23.0	2.5	/experiments/knapen_aot/videos/S_comp_GMT026_363A_103NC_E1027_KOREA_JAPAN_NIGHT_v18_SDR_PS_20180907_SDR_2K_AVC.mp4	0.0	132.70331811904907	
25	72.77427101135254	movie	1		174.0	23.0	2.5	/experiments/knapen_aot/videos/S_comp_GMT026_363A_103NC_E1027_KOREA_JAPAN_NIGHT_v18_SDR_PS_20180907_SDR_2K_AVC.mp4	0.0	132.71158409118652	2.508484125137329
25	75.28275513648987	fix_post	2		12.0	23.0	2.5	/experiments/knapen_aot/videos/S_comp_GMT026_363A_103NC_E1027_KOREA_JAPAN_NIGHT_v18_SDR_PS_20180907_SDR_2K_AVC.mp4	0.0	135.22006821632385	0.0998849868774414
26	75.38264012336731	fix_pre	0		48.0	24.0	2.5	/experiments/knapen_aot/videos/R_S_ILSVRC2015_train_00292005.mp4	0.0	135.3199532032013	0.3999819755554199
26	75.77432298660278	response	0	2		24.0	2.5	/experiments/knapen_aot/videos/R_S_ILSVRC2015_train_00292005.mp4	0.0	135.71163606643677	
26	75.78262209892273	movie	1		301.0	24.0	2.5	/experiments/knapen_aot/videos/R_S_ILSVRC2015_train_00292005.mp4	0.0	135.7199351787567	2.508333921432495
26	78.29095602035522	fix_post	2		12.0	24.0	2.5	/experiments/knapen_aot/videos/R_S_ILSVRC2015_train_00292005.mp4	0.0	138.2282691001892	0.09994912147521973
27	78.39090514183044	fix_pre	0		34.0	25.0	2.5	/experiments/knapen_aot/videos/R_S_DV6V38rplag_215.mp4	0.0	138.32821822166443	0.28337693214416504
27	78.66607403755188	response	0	2		25.0	2.5	/experiments/knapen_aot/videos/R_S_DV6V38rplag_215.mp4	0.0	138.60338711738586	
27	78.67428207397461	movie	1		301.0	25.0	2.5	/experiments/knapen_aot/videos/R_S_DV6V38rplag_215.mp4	0.0	138.6115951538086	2.508312940597534
27	81.18259501457214	fix_post	2		12.0	25.0	2.5	/experiments/knapen_aot/videos/R_S_DV6V38rplag_215.mp4	0.0	141.11990809440613	0.1000680923461914
28	81.28266310691833	fix_pre	0		62.0	26.0	2.5	/experiments/knapen_aot/videos/R_S_yt-LGwEki4ghNw_69.mp4	0.0	141.21997618675232	0.5165128707885742
28	81.7910430431366	response	0	2		26.0	2.5	/experiments/knapen_aot/videos/R_S_yt-LGwEki4ghNw_69.mp4	0.0	141.72835612297058	
28	81.79917597770691	movie	1		301.0	26.0	2.5	/experiments/knapen_aot/videos/R_S_yt-LGwEki4ghNw_69.mp4	0.0	141.7364890575409	2.5084102153778076
28	84.30758619308472	fix_post	2		12.0	26.0	2.5	/experiments/knapen_aot/videos/R_S_yt-LGwEki4ghNw_69.mp4	0.0	144.2448992729187	0.09999489784240723
29	84.40758109092712	fix_pre	0		57.0	27.0	2.5	blank	1.0	144.3448941707611	0.4749789237976074
29	84.87430095672607	response	0	2		27.0	2.5	blank	1.0	144.81161403656006	
29	84.88256001472473	movie	1		301.0	27.0	2.5	blank	1.0	144.81987309455872	2.5084609985351562
29	87.39102101325989	fix_post	2		12.0	27.0	2.5	blank	1.0	147.32833409309387	0.0998849868774414
30	87.49090600013733	fix_pre	0		52.0	28.0	2.5	/experiments/knapen_aot/videos/S_yt-D6fhzH21T_E_26.mp4	0.0	147.4282190799713	0.4332761764526367
30	87.91598796844482	response	0	2		28.0	2.5	/experiments/knapen_aot/videos/S_yt-D6fhzH21T_E_26.mp4	0.0	147.8533010482788	
30	87.92418217658997	movie	1		301.0	28.0	2.5	/experiments/knapen_aot/videos/S_yt-D6fhzH21T_E_26.mp4	0.0	147.86149525642395	2.5084009170532227
30	90.43258309364319	fix_post	2		12.0	28.0	2.5	/experiments/knapen_aot/videos/S_yt-D6fhzH21T_E_26.mp4	0.0	150.36989617347717	0.09998106956481934
31	90.53256416320801	fix_pre	0		65.0	29.0	2.5	/experiments/knapen_aot/videos/R_S_wc-8bTJmWfuVyJ4_8.mp4	0.0	150.469877243042	0.5416238307952881
31	91.06592917442322	response	0	2		29.0	2.5	/experiments/knapen_aot/videos/R_S_wc-8bTJmWfuVyJ4_8.mp4	0.0	151.0032422542572	
31	91.0741879940033	movie	1		166.0	29.0	2.5	/experiments/knapen_aot/videos/R_S_wc-8bTJmWfuVyJ4_8.mp4	0.0	151.01150107383728	2.508474111557007
31	93.5826621055603	fix_post	2		12.0	29.0	2.5	/experiments/knapen_aot/videos/R_S_wc-8bTJmWfuVyJ4_8.mp4	0.0	153.5199751853943	0.09984302520751953
32	93.68250513076782	fix_pre	0		34.0	30.0	2.5	/experiments/knapen_aot/videos/S_ILSVRC2015_train_00708000.mp4	0.0	153.6198182106018	0.28330492973327637
32	93.95764899253845	response	0	2		30.0	2.5	/experiments/knapen_aot/videos/S_ILSVRC2015_train_00708000.mp4	0.0	153.89496207237244	
32	93.9658100605011	movie	1		301.0	30.0	2.5	/experiments/knapen_aot/videos/S_ILSVRC2015_train_00708000.mp4	0.0	153.90312314033508	2.5083789825439453
32	96.47418904304504	fix_post	2		12.0	30.0	2.5	/experiments/knapen_aot/videos/S_ILSVRC2015_train_00708000.mp4	0.0	156.41150212287903	0.10003995895385742
33	96.5742290019989	fix_pre	0		42.0	31.0	2.5	/experiments/knapen_aot/videos/R_S_yt-IigHVUksnw8_7.mp4	0.0	156.51154208183289	0.34995412826538086
33	96.91591596603394	response	0	2		31.0	2.5	/experiments/knapen_aot/videos/R_S_yt-IigHVUksnw8_7.mp4	0.0	156.85322904586792	
33	96.92418313026428	movie	1		301.0	31.0	2.5	/experiments/knapen_aot/videos/R_S_yt-IigHVUksnw8_7.mp4	0.0	156.86149621009827	2.5083260536193848
33	99.43250918388367	fix_post	2		12.0	31.0	2.5	/experiments/knapen_aot/videos/R_S_yt-IigHVUksnw8_7.mp4	0.0	159.36982226371765	0.0999748706817627
34	99.53248405456543	fix_pre	0		168.0	32.0	2.5	/experiments/knapen_aot/videos/S_yt-2cwARrUMj40_67.mp4	0.0	159.4697971343994	1.4000039100646973
34	100.92431807518005	response	0	2		32.0	2.5	/experiments/knapen_aot/videos/S_yt-2cwARrUMj40_67.mp4	0.0	160.86163115501404	
34	100.93248796463013	movie	1		301.0	32.0	2.5	/experiments/knapen_aot/videos/S_yt-2cwARrUMj40_67.mp4	0.0	160.8698010444641	2.508406162261963
34	103.44089412689209	fix_post	2		12.0	32.0	2.5	/experiments/knapen_aot/videos/S_yt-2cwARrUMj40_67.mp4	0.0	163.37820720672607	0.09992599487304688
35	103.54082012176514	fix_pre	0		73.0	33.0	2.5	blank	1.0	163.47813320159912	0.6082570552825928
35	104.1409981250763	response	0	2		33.0	2.5	blank	1.0	164.07831120491028	
35	104.14907717704773	movie	1		301.0	33.0	2.5	blank	1.0	164.0863902568817	2.5085108280181885
35	106.65758800506592	fix_post	2		12.0	33.0	2.5	blank	1.0	166.5949010848999	0.10009312629699707
36	106.75768113136292	fix_pre	0		72.0	34.0	2.5	/experiments/knapen_aot/videos/R_S_yt-wz2opOBqClo_14.mp4	0.0	166.6949942111969	0.6012020111083984
36	107.34926509857178	response	0	2		34.0	2.5	/experiments/knapen_aot/videos/R_S_yt-wz2opOBqClo_14.mp4	0.0	167.28657817840576	
36	107.35888314247131	movie	1		301.0	34.0	2.5	/experiments/knapen_aot/videos/R_S_yt-wz2opOBqClo_14.mp4	0.0	167.2961962223053	2.5070488452911377
36	109.86593198776245	fix_post	2		12.0	34.0	2.5	/experiments/knapen_aot/videos/R_S_yt-wz2opOBqClo_14.mp4	0.0	169.80324506759644	0.09987497329711914
37	109.96580696105957	fix_pre	0		45.0	35.0	2.5	/experiments/knapen_aot/videos/S_P006_C002_UHD_SDR_2K_AVC.mp4	0.0	169.90312004089355	0.37497806549072266
37	110.33258008956909	response	0	2		35.0	2.5	/experiments/knapen_aot/videos/S_P006_C002_UHD_SDR_2K_AVC.mp4	0.0	170.26989316940308	
37	110.3407850265503	movie	1		166.0	35.0	2.5	/experiments/knapen_aot/videos/S_P006_C002_UHD_SDR_2K_AVC.mp4	0.0	170.27809810638428	2.5084760189056396
37	112.84926104545593	fix_post	2		12.0	35.0	2.5	/experiments/knapen_aot/videos/S_P006_C002_UHD_SDR_2K_AVC.mp4	0.0	172.78657412528992	0.09989404678344727
38	112.94915509223938	fix_pre	0		39.0	36.0	2.5	/experiments/knapen_aot/videos/S_yt-a0axt7n0GuQ_19.mp4	0.0	172.88646817207336	0.32494187355041504
38	113.2659170627594	response	0	2		36.0	2.5	/experiments/knapen_aot/videos/S_yt-a0axt7n0GuQ_19.mp4	0.0	173.20323014259338	
38	113.2740969657898	movie	1		301.0	36.0	2.5	/experiments/knapen_aot/videos/S_yt-a0axt7n0GuQ_19.mp4	0.0	173.21141004562378	2.508427143096924
38	115.78252410888672	fix_post	2		12.0	36.0	2.5	/experiments/knapen_aot/videos/S_yt-a0axt7n0GuQ_19.mp4	0.0	175.7198371887207	0.09995889663696289
39	115.88248300552368	fix_pre	0		60.0	37.0	2.5	/experiments/knapen_aot/videos/R_S_yt-cjndulbUtRc_51.mp4	0.0	175.81979608535767	0.4999361038208008
39	116.37419700622559	response	0	2		37.0	2.5	/experiments/knapen_aot/videos/R_S_yt-cjndulbUtRc_51.mp4	0.0	176.31151008605957	
39	116.38241910934448	movie	1		301.0	37.0	2.5	/experiments/knapen_aot/videos/R_S_yt-cjndulbUtRc_51.mp4	0.0	176.31973218917847	2.5083529949188232
39	118.8907721042633	fix_post	2		12.0	37.0	2.5	/experiments/knapen_aot/videos/R_S_yt-cjndulbUtRc_51.mp4	0.0	178.8280851840973	0.09995794296264648
40	118.99073004722595	fix_pre	0		41.0	38.0	2.5	/experiments/knapen_aot/videos/R_S_yt-4i1b6NQ9NKs_5.mp4	0.0	178.92804312705994	0.3416459560394287
40	119.32423496246338	response	0	2		38.0	2.5	/experiments/knapen_aot/videos/R_S_yt-4i1b6NQ9NKs_5.mp4	0.0	179.26154804229736	
40	119.33237600326538	movie	1		301.0	38.0	2.5	/experiments/knapen_aot/videos/R_S_yt-4i1b6NQ9NKs_5.mp4	0.0	179.26968908309937	2.5084030628204346
40	121.84077906608582	fix_post	2		12.0	38.0	2.5	/experiments/knapen_aot/videos/R_S_yt-4i1b6NQ9NKs_5.mp4	0.0	181.7780921459198	0.09996604919433594
41	121.94074511528015	fix_pre	0		39.0	39.0	2.5	/experiments/knapen_aot/videos/R_S_yt-zam74qlzGtQ_122.mp4	0.0	181.87805819511414	0.3250000476837158
41	122.25750803947449	response	0	2		39.0	2.5	/experiments/knapen_aot/videos/R_S_yt-zam74qlzGtQ_122.mp4	0.0	182.19482111930847	
41	122.26574516296387	movie	1		301.0	39.0	2.5	/experiments/knapen_aot/videos/R_S_yt-zam74qlzGtQ_122.mp4	0.0	182.20305824279785	2.508358955383301
41	124.77410411834717	fix_post	2		12.0	39.0	2.5	/experiments/knapen_aot/videos/R_S_yt-zam74qlzGtQ_122.mp4	0.0	184.71141719818115	0.0999610424041748
42	124.87406516075134	fix_pre	0		51.0	40.0	2.5	/experiments/knapen_aot/videos/R_S_pexels-mikhail-nilov-8410063_1.mp4	0.0	184.81137824058533	0.4249849319458008
42	125.28329706192017	response	0	2		40.0	2.5	/experiments/knapen_aot/videos/R_S_pexels-mikhail-nilov-8410063_1.mp4	0.0	185.22061014175415	
42	125.29905009269714	movie	1		167.0	40.0	2.5	/experiments/knapen_aot/videos/R_S_pexels-mikhail-nilov-8410063_1.mp4	0.0	185.23636317253113	2.508344888687134
42	127.80739498138428	fix_post	2		12.0	40.0	2.5	/experiments/knapen_aot/videos/R_S_pexels-mikhail-nilov-8410063_1.mp4	0.0	187.74470806121826	0.1002039909362793
43	127.90759897232056	fix_pre	0		52.0	41.0	2.5	blank	1.0	187.84491205215454	0.43309521675109863
43	128.3325641155243	response	0	2		41.0	2.5	blank	1.0	188.26987719535828	
43	128.34069418907166	movie	1		301.0	41.0	2.5	blank	1.0	188.27800726890564	2.50833797454834
43	130.84903216362	fix_post	2		12.0	41.0	2.5	blank	1.0	190.78634524345398	0.10008502006530762
44	130.9491171836853	fix_pre	0		72.0	42.0	2.5	/experiments/knapen_aot/videos/S_yt-QJHe-CoK4iI_170.mp4	0.0	190.8864302635193	0.5998828411102295
44	131.54082703590393	response	0	2		42.0	2.5	/experiments/knapen_aot/videos/S_yt-QJHe-CoK4iI_170.mp4	0.0	191.47814011573792	
44	131.54900002479553	movie	1		301.0	42.0	2.5	/experiments/knapen_aot/videos/S_yt-QJHe-CoK4iI_170.mp4	0.0	191.48631310462952	2.508368968963623
44	134.05736899375916	fix_post	2		12.0	42.0	2.5	/experiments/knapen_aot/videos/S_yt-QJHe-CoK4iI_170.mp4	0.0	193.99468207359314	0.10001611709594727
45	134.1573851108551	fix_pre	0		49.0	43.0	2.5	/experiments/knapen_aot/videos/S_ILSVRC2015_train_00538001.mp4	0.0	194.0946981906891	0.4082059860229492
45	134.5499050617218	response	0	2		43.0	2.5	/experiments/knapen_aot/videos/S_ILSVRC2015_train_00538001.mp4	0.0	194.4872181415558	
45	134.56559109687805	movie	1		301.0	43.0	2.5	/experiments/knapen_aot/videos/S_ILSVRC2015_train_00538001.mp4	0.0	194.50290417671204	2.5085818767547607
45	137.0741729736328	fix_post	2		12.0	43.0	2.5	/experiments/knapen_aot/videos/S_ILSVRC2015_train_00538001.mp4	0.0	197.0114860534668	0.09987521171569824
46	137.1740481853485	fix_pre	0		74.0	44.0	2.5	/experiments/knapen_aot/videos/R_S_wc-DgBY_btLlgBC_19.mp4	0.0	197.1113612651825	0.616569995880127
46	137.78251910209656	response	0	2		44.0	2.5	/experiments/knapen_aot/videos/R_S_wc-DgBY_btLlgBC_19.mp4	0.0	197.71983218193054	
46	137.79061818122864	movie	1		165.0	44.0	2.5	/experiments/knapen_aot/videos/R_S_wc-DgBY_btLlgBC_19.mp4	0.0	197.72793126106262	2.508612871170044
46	140.29923105239868	fix_post	2		12.0	44.0	2.5	/experiments/knapen_aot/videos/R_S_wc-DgBY_btLlgBC_19.mp4	0.0	200.23654413223267	0.09978795051574707
47	140.39901900291443	fix_pre	0		63.0	45.0	2.5	/experiments/knapen_aot/videos/S_yt-7NjoFHBdP7c_102.mp4	0.0	200.3363320827484	0.5249309539794922
47	140.91574597358704	response	0	2		45.0	2.5	/experiments/knapen_aot/videos/S_yt-7NjoFHBdP7c_102.mp4	0.0	200.85305905342102	
47	140.92394995689392	movie	1		301.0	45.0	2.5	/experiments/knapen_aot/videos/S_yt-7NjoFHBdP7c_102.mp4	0.0	200.8612630367279	2.5083742141723633
47	143.43232417106628	fix_post	2		12.0	45.0	2.5	/experiments/knapen_aot/videos/S_yt-7NjoFHBdP7c_102.mp4	0.0	203.36963725090027	0.10002779960632324
48	143.5323519706726	fix_pre	0		68.0	46.0	2.5	/experiments/knapen_aot/videos/S_production_ID_4101242.mp4	0.0	203.4696650505066	0.5665860176086426
48	144.09079098701477	response	0	2		46.0	2.5	/experiments/knapen_aot/videos/S_production_ID_4101242.mp4	0.0	204.02810406684875	
48	144.09893798828125	movie	1		213.0	46.0	2.5	/experiments/knapen_aot/videos/S_production_ID_4101242.mp4	0.0	204.03625106811523	2.508334159851074
48	146.60727214813232	fix_post	2		12.0	46.0	2.5	/experiments/knapen_aot/videos/S_production_ID_4101242.mp4	0.0	206.5445852279663	0.1000978946685791
49	146.7073700428009	fix_pre	0		52.0	47.0	2.5	/experiments/knapen_aot/videos/R_S_yt-33PKaLVxDC4_2703.mp4	0.0	206.6446831226349	0.433305025100708
49	147.13242197036743	response	0	2		47.0	2.5	/experiments/knapen_aot/videos/R_S_yt-33PKaLVxDC4_2703.mp4	0.0	207.06973505020142	
49	147.1406750679016	movie	1		301.0	47.0	2.5	/experiments/knapen_aot/videos/R_S_yt-33PKaLVxDC4_2703.mp4	0.0	207.0779881477356	2.5083389282226562
49	149.64901399612427	fix_post	2		12.0	47.0	2.5	/experiments/knapen_aot/videos/R_S_yt-33PKaLVxDC4_2703.mp4	0.0	209.58632707595825	0.09999513626098633
50	149.74900913238525	fix_pre	0		43.0	48.0	2.5	/experiments/knapen_aot/videos/R_S_bing-www_break_com_video_like-a-cat-catching-a-fly-3131008_12.mp4	0.0	209.68632221221924	0.358273983001709
50	150.09157609939575	response	0	2		48.0	2.5	/experiments/knapen_aot/videos/R_S_bing-www_break_com_video_like-a-cat-catching-a-fly-3131008_12.mp4	0.0	210.02888917922974	
50	150.10728311538696	movie	1		301.0	48.0	2.5	/experiments/knapen_aot/videos/R_S_bing-www_break_com_video_like-a-cat-catching-a-fly-3131008_12.mp4	0.0	210.04459619522095	2.508396863937378
50	152.61567997932434	fix_post	2		12.0	48.0	2.5	/experiments/knapen_aot/videos/R_S_bing-www_break_com_video_like-a-cat-catching-a-fly-3131008_12.mp4	0.0	212.55299305915833	0.1000680923461914
51	152.71574807167053	fix_pre	0		50.0	49.0	2.5	blank	1.0	212.65306115150452	0.41653990745544434
51	153.12404799461365	response	0	2		49.0	2.5	blank	1.0	213.06136107444763	
51	153.13228797912598	movie	1		301.0	49.0	2.5	blank	1.0	213.06960105895996	2.508357048034668
51	155.64064502716064	fix_post	2		12.0	49.0	2.5	blank	1.0	215.57795810699463	0.09991693496704102
52	155.74056196212769	fix_pre	0		69.0	50.0	2.5	/experiments/knapen_aot/videos/S_yt-SjPYdaUBi7A_37.mp4	0.0	215.67787504196167	0.576026201248169
52	156.3074049949646	response	0	2		50.0	2.5	/experiments/knapen_aot/videos/S_yt-SjPYdaUBi7A_37.mp4	0.0	216.24471807479858	
52	156.31658816337585	movie	1		301.0	50.0	2.5	/experiments/knapen_aot/videos/S_yt-SjPYdaUBi7A_37.mp4	0.0	216.25390124320984	2.5072858333587646
52	158.82387399673462	fix_post	2		12.0	50.0	2.5	/experiments/knapen_aot/videos/S_yt-SjPYdaUBi7A_37.mp4	0.0	218.7611870765686	0.10006308555603027
53	158.92393708229065	fix_pre	0		64.0	51.0	2.5	/experiments/knapen_aot/videos/R_S_ILSVRC2015_train_00551000.mp4	0.0	218.86125016212463	0.5332779884338379
53	159.44906210899353	response	0	2		51.0	2.5	/experiments/knapen_aot/videos/R_S_ILSVRC2015_train_00551000.mp4	0.0	219.38637518882751	
53	159.4572150707245	movie	1		301.0	51.0	2.5	/experiments/knapen_aot/videos/R_S_ILSVRC2015_train_00551000.mp4	0.0	219.39452815055847	2.508730888366699
53	161.9659459590912	fix_post	2		12.0	51.0	2.5	/experiments/knapen_aot/videos/R_S_ILSVRC2015_train_00551000.mp4	0.0	221.90325903892517	0.09958910942077637
54	162.06553506851196	fix_pre	0		73.0	52.0	2.5	/experiments/knapen_aot/videos/R_S_yt-4ouMuGUuPHI_193.mp4	0.0	222.00284814834595	0.6083240509033203
54	162.66569113731384	response	0	2		52.0	2.5	/experiments/knapen_aot/videos/R_S_yt-4ouMuGUuPHI_193.mp4	0.0	222.60300421714783	
54	162.67385911941528	movie	1		301.0	52.0	2.5	/experiments/knapen_aot/videos/R_S_yt-4ouMuGUuPHI_193.mp4	0.0	222.61117219924927	2.508404016494751
54	165.18226313591003	fix_post	2		12.0	52.0	2.5	/experiments/knapen_aot/videos/R_S_yt-4ouMuGUuPHI_193.mp4	0.0	225.11957621574402	0.09997296333312988
55	165.28223609924316	fix_pre	0		57.0	53.0	2.5	/experiments/knapen_aot/videos/S_yt-bTcbsBET7gc_270.mp4	0.0	225.21954917907715	0.4749438762664795
55	165.74901413917542	response	0	2		53.0	2.5	/experiments/knapen_aot/videos/S_yt-bTcbsBET7gc_270.mp4	0.0	225.6863272190094	
55	165.75717997550964	movie	1		301.0	53.0	2.5	/experiments/knapen_aot/videos/S_yt-bTcbsBET7gc_270.mp4	0.0	225.69449305534363	2.508402109146118
55	168.26558208465576	fix_post	2		12.0	53.0	2.5	/experiments/knapen_aot/videos/S_yt-bTcbsBET7gc_270.mp4	0.0	228.20289516448975	0.09996700286865234
56	168.3655490875244	fix_pre	0		51.0	54.0	2.5	/experiments/knapen_aot/videos/R_S_yt-qxtmtMnUfD0_124.mp4	0.0	228.3028621673584	0.4249858856201172
56	168.78227615356445	response	0	2		54.0	2.5	/experiments/knapen_aot/videos/R_S_yt-qxtmtMnUfD0_124.mp4	0.0	228.71958923339844	
56	168.79053497314453	movie	1		301.0	54.0	2.5	/experiments/knapen_aot/videos/R_S_yt-qxtmtMnUfD0_124.mp4	0.0	228.72784805297852	2.5083839893341064
56	171.29891896247864	fix_post	2		12.0	54.0	2.5	/experiments/knapen_aot/videos/R_S_yt-qxtmtMnUfD0_124.mp4	0.0	231.23623204231262	0.09997105598449707
57	171.39889001846313	fix_pre	0		168.0	55.0	2.5	/experiments/knapen_aot/videos/R_S_yt-fja6A_3ys_w_116.mp4	0.0	231.33620309829712	1.3999650478363037
57	172.7907371520996	response	0	2		55.0	2.5	/experiments/knapen_aot/videos/R_S_yt-fja6A_3ys_w_116.mp4	0.0	232.7280502319336	
57	172.79885506629944	movie	1		301.0	55.0	2.5	/experiments/knapen_aot/videos/R_S_yt-fja6A_3ys_w_116.mp4	0.0	232.73616814613342	2.5085880756378174
57	175.30744314193726	fix_post	2		12.0	55.0	2.5	/experiments/knapen_aot/videos/R_S_yt-fja6A_3ys_w_116.mp4	0.0	235.24475622177124	0.0998389720916748
58	175.40728211402893	fix_pre	0		28.0	56.0	2.5	blank	1.0	235.34459519386292	0.23327207565307617
58	175.6323311328888	response	0	2		56.0	2.5	blank	1.0	235.56964421272278	
58	175.640554189682	movie	1		301.0	56.0	2.5	blank	1.0	235.577867269516	2.5082387924194336
58	178.14879298210144	fix_post	2		12.0	56.0	2.5	blank	1.0	238.08610606193542	0.10007214546203613
59	178.24886512756348	fix_pre	0		51.0	57.0	2.5	/experiments/knapen_aot/videos/R_S_yt-MWX0EtpWIs8_286.mp4	0.0	238.18617820739746	0.4249880313873291
59	178.6656391620636	response	0	2		57.0	2.5	/experiments/knapen_aot/videos/R_S_yt-MWX0EtpWIs8_286.mp4	0.0	238.60295224189758	
59	178.6738531589508	movie	1		301.0	57.0	2.5	/experiments/knapen_aot/videos/R_S_yt-MWX0EtpWIs8_286.mp4	0.0	238.6111662387848	2.5086920261383057
59	181.1825451850891	fix_post	2		12.0	57.0	2.5	/experiments/knapen_aot/videos/R_S_yt-MWX0EtpWIs8_286.mp4	0.0	241.1198582649231	0.09966278076171875
60	181.28220796585083	fix_pre	0		46.0	58.0	2.5	/experiments/knapen_aot/videos/R_S_pexels-kampus-production-6022792.mp4	0.0	241.21952104568481	0.38332414627075195
60	181.65734601020813	response	0	2		58.0	2.5	/experiments/knapen_aot/videos/R_S_pexels-kampus-production-6022792.mp4	0.0	241.59465909004211	
60	181.66553211212158	movie	1		174.0	58.0	2.5	/experiments/knapen_aot/videos/R_S_pexels-kampus-production-6022792.mp4	0.0	241.60284519195557	2.508357048034668
60	184.17388916015625	fix_post	2		12.0	58.0	2.5	/experiments/knapen_aot/videos/R_S_pexels-kampus-production-6022792.mp4	0.0	244.11120223999023	0.10001802444458008
61	184.27390718460083	fix_pre	0		66.0	59.0	2.5	/experiments/knapen_aot/videos/S_yt-tneuR3EtSZE_72.mp4	0.0	244.21122026443481	0.5498969554901123
61	184.81559300422668	response	0	2		59.0	2.5	/experiments/knapen_aot/videos/S_yt-tneuR3EtSZE_72.mp4	0.0	244.75290608406067	
61	184.82380414009094	movie	1		301.0	59.0	2.5	/experiments/knapen_aot/videos/S_yt-tneuR3EtSZE_72.mp4	0.0	244.76111721992493	2.5085530281066895
61	187.33235716819763	fix_post	2		12.0	59.0	2.5	/experiments/knapen_aot/videos/S_yt-tneuR3EtSZE_72.mp4	0.0	247.26967024803162	0.09977889060974121
62	187.43213605880737	fix_pre	0		54.0	60.0	2.5	/experiments/knapen_aot/videos/S_yt-JDHApyT5ngs_128.mp4	0.0	247.36944913864136	0.45000696182250977
62	187.87392902374268	response	0	2		60.0	2.5	/experiments/knapen_aot/videos/S_yt-JDHApyT5ngs_128.mp4	0.0	247.81124210357666	
62	187.88214302062988	movie	1		301.0	60.0	2.5	/experiments/knapen_aot/videos/S_yt-JDHApyT5ngs_128.mp4	0.0	247.81945610046387	2.50832200050354
62	190.39046502113342	fix_post	2		12.0	60.0	2.5	/experiments/knapen_aot/videos/S_yt-JDHApyT5ngs_128.mp4	0.0	250.3277781009674	0.09998202323913574
63	190.49044704437256	fix_pre	0		46.0	61.0	2.5	/experiments/knapen_aot/videos/R_S_yt--wYgjXsc1XQ_106.mp4	0.0	250.42776012420654	0.3835010528564453
63	190.86566996574402	response	0	2		61.0	2.5	/experiments/knapen_aot/videos/R_S_yt--wYgjXsc1XQ_106.mp4	0.0	250.802983045578	
63	190.873948097229	movie	1		301.0	61.0	2.5	/experiments/knapen_aot/videos/R_S_yt--wYgjXsc1XQ_106.mp4	0.0	250.811261177063	2.508239984512329
63	193.38218808174133	fix_post	2		12.0	61.0	2.5	/experiments/knapen_aot/videos/R_S_yt--wYgjXsc1XQ_106.mp4	0.0	253.31950116157532	0.10077810287475586
64	193.4829661846161	fix_pre	0		50.0	62.0	2.5	blank	1.0	253.42027926445007	0.4166748523712158
64	193.89059901237488	response	0	2		62.0	2.5	blank	1.0	253.82791209220886	
64	193.8996410369873	movie	1		301.0	62.0	2.5	blank	1.0	253.8369541168213	2.5074970722198486
64	196.40713810920715	fix_post	2		12.0	62.0	2.5	blank	1.0	256.34445118904114	0.09999704360961914
65	196.50713515281677	fix_pre	0		56.0	63.0	2.5	/experiments/knapen_aot/videos/S_ILSVRC2015_train_00415007.mp4	0.0	256.44444823265076	0.46665501594543457
65	196.9655179977417	response	0	2		63.0	2.5	/experiments/knapen_aot/videos/S_ILSVRC2015_train_00415007.mp4	0.0	256.9028310775757	
65	196.9737901687622	movie	1		301.0	63.0	2.5	/experiments/knapen_aot/videos/S_ILSVRC2015_train_00415007.mp4	0.0	256.9111032485962	2.5084128379821777
65	199.48220300674438	fix_post	2		12.0	63.0	2.5	/experiments/knapen_aot/videos/S_ILSVRC2015_train_00415007.mp4	0.0	259.41951608657837	0.09994196891784668
66	199.58214497566223	fix_pre	0		35.0	64.0	2.5	/experiments/knapen_aot/videos/R_S_production_ID_4057155.mp4	0.0	259.5194580554962	0.2915680408477783
66	199.86553597450256	response	0	2		64.0	2.5	/experiments/knapen_aot/videos/R_S_production_ID_4057155.mp4	0.0	259.80284905433655	
66	199.87371301651	movie	1		204.0	64.0	2.5	/experiments/knapen_aot/videos/R_S_production_ID_4057155.mp4	0.0	259.811026096344	2.508437156677246
66	202.38215017318726	fix_post	2		12.0	64.0	2.5	/experiments/knapen_aot/videos/R_S_production_ID_4057155.mp4	0.0	262.31946325302124	0.09992194175720215
67	202.48207211494446	fix_pre	0		26.0	65.0	2.5	/experiments/knapen_aot/videos/S_yt-Ndwek2tpIOA_169.mp4	0.0	262.41938519477844	0.2166290283203125
67	202.69052696228027	response	0	2		65.0	2.5	/experiments/knapen_aot/videos/S_yt-Ndwek2tpIOA_169.mp4	0.0	262.62784004211426	
67	202.69870114326477	movie	1		301.0	65.0	2.5	/experiments/knapen_aot/videos/S_yt-Ndwek2tpIOA_169.mp4	0.0	262.63601422309875	2.508370876312256
67	205.20707201957703	fix_post	2		12.0	65.0	2.5	/experiments/knapen_aot/videos/S_yt-Ndwek2tpIOA_169.mp4	0.0	265.144385099411	0.10000300407409668
68	205.30707502365112	fix_pre	0		67.0	66.0	2.5	/experiments/knapen_aot/videos/R_S_PA_A010_C007_SDR_20190717_SDR_2K_AVC.mp4	0.0	265.2443881034851	0.5582880973815918
68	205.85732197761536	response	0	2		66.0	2.5	/experiments/knapen_aot/videos/R_S_PA_A010_C007_SDR_20190717_SDR_2K_AVC.mp4	0.0	265.79463505744934	
68	205.86536312103271	movie	1		169.0	66.0	2.5	/experiments/knapen_aot/videos/R_S_PA_A010_C007_SDR_20190717_SDR_2K_AVC.mp4	0.0	265.8026762008667	2.50834584236145
68	208.37370896339417	fix_post	2		12.0	66.0	2.5	/experiments/knapen_aot/videos/R_S_PA_A010_C007_SDR_20190717_SDR_2K_AVC.mp4	0.0	268.31102204322815	0.10021805763244629
69	208.4739270210266	fix_pre	0		36.0	67.0	2.5	/experiments/knapen_aot/videos/R_S_wc-AyT9mzwZsu0T_14.mp4	0.0	268.4112401008606	0.30051302909851074
69	208.76554203033447	response	0	2		67.0	2.5	/experiments/knapen_aot/videos/R_S_wc-AyT9mzwZsu0T_14.mp4	0.0	268.70285511016846	
69	208.77444005012512	movie	1		167.0	67.0	2.5	/experiments/knapen_aot/videos/R_S_wc-AyT9mzwZsu0T_14.mp4	0.0	268.7117531299591	2.507636070251465
69	211.2820761203766	fix_post	2		12.0	67.0	2.5	/experiments/knapen_aot/videos/R_S_wc-AyT9mzwZsu0T_14.mp4	0.0	271.21938920021057	0.10002994537353516
70	211.38210606575012	fix_pre	0		105.0	68.0	2.5	/experiments/knapen_aot/videos/R_S_comp_N008_C009_PS_v01_SDR_PS_20180925_SDR_2K_AVC.mp4	0.0	271.3194191455841	0.8749511241912842
70	212.24881196022034	response	0	2		68.0	2.5	/experiments/knapen_aot/videos/R_S_comp_N008_C009_PS_v01_SDR_PS_20180925_SDR_2K_AVC.mp4	0.0	272.1861250400543	
70	212.2570571899414	movie	1		172.0	68.0	2.5	/experiments/knapen_aot/videos/R_S_comp_N008_C009_PS_v01_SDR_PS_20180925_SDR_2K_AVC.mp4	0.0	272.1943702697754	2.5083189010620117
70	214.76537609100342	fix_post	2		12.0	68.0	2.5	/experiments/knapen_aot/videos/R_S_comp_N008_C009_PS_v01_SDR_PS_20180925_SDR_2K_AVC.mp4	0.0	274.7026891708374	0.10009193420410156
71	214.86546802520752	fix_pre	0		39.0	69.0	2.5	blank	1.0	274.8027811050415	0.3255910873413086
71	215.1821689605713	response	0	2		69.0	2.5	blank	1.0	275.1194820404053	
71	215.19105911254883	movie	1		301.0	69.0	2.5	blank	1.0	275.1283721923828	2.507580041885376
71	217.6986391544342	fix_post	2		12.0	69.0	2.5	blank	1.0	277.6359522342682	0.1001889705657959
72	217.798828125	fix_pre	0		44.0	70.0	2.5	/experiments/knapen_aot/videos/R_S_yt-9NV8zv2Sdq4_30.mp4	0.0	277.736141204834	0.3664219379425049
72	218.15708208084106	response	0	2		70.0	2.5	/experiments/knapen_aot/videos/R_S_yt-9NV8zv2Sdq4_30.mp4	0.0	278.09439516067505	
72	218.1652500629425	movie	1		301.0	70.0	2.5	/experiments/knapen_aot/videos/R_S_yt-9NV8zv2Sdq4_30.mp4	0.0	278.1025631427765	2.5084049701690674
72	220.67365503311157	fix_post	2		12.0	70.0	2.5	/experiments/knapen_aot/videos/R_S_yt-9NV8zv2Sdq4_30.mp4	0.0	280.61096811294556	0.1000070571899414
73	220.7736620903015	fix_pre	0		42.0	71.0	2.5	/experiments/knapen_aot/videos/R_S_yt-kP7VNn9QIo4_53.mp4	0.0	280.7109751701355	0.34993791580200195
73	221.1154010295868	response	0	2		71.0	2.5	/experiments/knapen_aot/videos/R_S_yt-kP7VNn9QIo4_53.mp4	0.0	281.0527141094208	
73	221.12360000610352	movie	1		301.0	71.0	2.5	/experiments/knapen_aot/videos/R_S_yt-kP7VNn9QIo4_53.mp4	0.0	281.0609130859375	2.5084030628204346
73	223.63200306892395	fix_post	2		12.0	71.0	2.5	/experiments/knapen_aot/videos/R_S_yt-kP7VNn9QIo4_53.mp4	0.0	283.56931614875793	0.10024189949035645
74	223.7322449684143	fix_pre	0		60.0	72.0	2.5	/experiments/knapen_aot/videos/R_S_yt-zam74qlzGtQ_122.mp4	0.0	283.6695580482483	0.5004861354827881
74	224.22378015518188	response	0	2		72.0	2.5	/experiments/knapen_aot/videos/R_S_yt-zam74qlzGtQ_122.mp4	0.0	284.16109323501587	
74	224.2327311038971	movie	1		301.0	72.0	2.5	/experiments/knapen_aot/videos/R_S_yt-zam74qlzGtQ_122.mp4	0.0	284.1700441837311	2.507528066635132
74	226.74025917053223	fix_post	2		12.0	72.0	2.5	/experiments/knapen_aot/videos/R_S_yt-zam74qlzGtQ_122.mp4	0.0	286.6775722503662	0.10004496574401855
75	226.84030413627625	fix_pre	0		47.0	73.0	2.5	/experiments/knapen_aot/videos/S_video_inspire_oregon_lone-ranch-beach_00015.1080-h264.mp4	0.0	286.77761721611023	0.3924069404602051
75	227.2237570285797	response	0	2		73.0	2.5	/experiments/knapen_aot/videos/S_video_inspire_oregon_lone-ranch-beach_00015.1080-h264.mp4	0.0	287.1610701084137	
75	227.23271107673645	movie	1		170.0	73.0	2.5	/experiments/knapen_aot/videos/S_video_inspire_oregon_lone-ranch-beach_00015.1080-h264.mp4	0.0	287.17002415657043	2.5075700283050537
75	229.7402811050415	fix_post	2		12.0	73.0	2.5	/experiments/knapen_aot/videos/S_video_inspire_oregon_lone-ranch-beach_00015.1080-h264.mp4	0.0	289.6775941848755	0.09990406036376953
76	229.84018516540527	fix_pre	0		175.0	74.0	2.5	/experiments/knapen_aot/videos/S_yt-4wYTkhggZNM_90.mp4	0.0	289.77749824523926	1.4584248065948486
76	231.29036402702332	response	0	2		74.0	2.5	/experiments/knapen_aot/videos/S_yt-4wYTkhggZNM_90.mp4	0.0	291.2276771068573	
76	231.29860997200012	movie	1		301.0	74.0	2.5	/experiments/knapen_aot/videos/S_yt-4wYTkhggZNM_90.mp4	0.0	291.2359230518341	2.5083911418914795
76	233.8070011138916	fix_post	2		12.0	74.0	2.5	/experiments/knapen_aot/videos/S_yt-4wYTkhggZNM_90.mp4	0.0	293.7443141937256	0.0999898910522461
77	233.90699100494385	fix_pre	0		34.0	75.0	2.5	/experiments/knapen_aot/videos/S_yt-oT4Bq8zYN4E_42.mp4	0.0	293.84430408477783	0.28389406204223633
77	234.1820421218872	response	0	2		75.0	2.5	/experiments/knapen_aot/videos/S_yt-oT4Bq8zYN4E_42.mp4	0.0	294.1193552017212	
77	234.19088506698608	movie	1		301.0	75.0	2.5	/experiments/knapen_aot/videos/S_yt-oT4Bq8zYN4E_42.mp4	0.0	294.12819814682007	2.507715940475464
77	236.69860100746155	fix_post	2		12.0	75.0	2.5	/experiments/knapen_aot/videos/S_yt-oT4Bq8zYN4E_42.mp4	0.0	296.63591408729553	0.09987902641296387
78	236.7984800338745	fix_pre	0		45.0	76.0	2.5	/experiments/knapen_aot/videos/R_S_BO_A014_C023_SDR_20190717_F240F3709_SDR_2K_AVC.mp4	0.0	296.7357931137085	0.3750491142272949
78	237.16523814201355	response	0	2		76.0	2.5	/experiments/knapen_aot/videos/R_S_BO_A014_C023_SDR_20190717_F240F3709_SDR_2K_AVC.mp4	0.0	297.10255122184753	
78	237.1735291481018	movie	1		173.0	76.0	2.5	/experiments/knapen_aot/videos/R_S_BO_A014_C023_SDR_20190717_F240F3709_SDR_2K_AVC.mp4	0.0	297.1108422279358	2.508405923843384
78	239.6819350719452	fix_post	2		12.0	76.0	2.5	/experiments/knapen_aot/videos/R_S_BO_A014_C023_SDR_20190717_F240F3709_SDR_2K_AVC.mp4	0.0	299.6192481517792	0.10002589225769043
79	239.78196096420288	fix_pre	0		58.0	77.0	2.5	blank	1.0	299.71927404403687	0.4833090305328369
79	240.2571361064911	response	0	2		77.0	2.5	blank	1.0	300.1944491863251	
79	240.26526999473572	movie	1		301.0	77.0	2.5	blank	1.0	300.2025830745697	2.50828218460083
79	242.77355217933655	fix_post	2		12.0	77.0	2.5	blank	1.0	302.71086525917053	0.10000896453857422
80	242.87356114387512	fix_pre	0		42.0	78.0	2.5	/experiments/knapen_aot/videos/R_S_yt-IT741UWKVzg_34.mp4	0.0	302.8108742237091	0.3500068187713623
80	243.21537518501282	response	0	2		78.0	2.5	/experiments/knapen_aot/videos/R_S_yt-IT741UWKVzg_34.mp4	0.0	303.1526882648468	
80	243.22356796264648	movie	1		301.0	78.0	2.5	/experiments/knapen_aot/videos/R_S_yt-IT741UWKVzg_34.mp4	0.0	303.16088104248047	2.5086522102355957
80	245.73222017288208	fix_post	2		12.0	78.0	2.5	/experiments/knapen_aot/videos/R_S_yt-IT741UWKVzg_34.mp4	0.0	305.66953325271606	0.09960579872131348
81	245.8318259716034	fix_pre	0		39.0	79.0	2.5	/experiments/knapen_aot/videos/S_yt-GLK6LniTOK0_69.mp4	0.0	305.7691390514374	0.32509803771972656
81	246.14867496490479	response	0	2		79.0	2.5	/experiments/knapen_aot/videos/S_yt-GLK6LniTOK0_69.mp4	0.0	306.08598804473877	
81	246.15692400932312	movie	1		301.0	79.0	2.5	/experiments/knapen_aot/videos/S_yt-GLK6LniTOK0_69.mp4	0.0	306.0942370891571	2.5082931518554688
81	248.6652171611786	fix_post	2		12.0	79.0	2.5	/experiments/knapen_aot/videos/S_yt-GLK6LniTOK0_69.mp4	0.0	308.6025302410126	0.10001301765441895
82	248.765230178833	fix_pre	0		80.0	80.0	2.5	/experiments/knapen_aot/videos/S_video_inspire_california_vineyard_sierra-mar_sunrise_110.1080-h264.mp4	0.0	308.702543258667	0.6666178703308105
82	249.42367911338806	response	0	2		80.0	2.5	/experiments/knapen_aot/videos/S_video_inspire_california_vineyard_sierra-mar_sunrise_110.1080-h264.mp4	0.0	309.36099219322205	
82	249.43184804916382	movie	1		169.0	80.0	2.5	/experiments/knapen_aot/videos/S_video_inspire_california_vineyard_sierra-mar_sunrise_110.1080-h264.mp4	0.0	309.3691611289978	2.5087389945983887
82	251.9405870437622	fix_post	2		12.0	80.0	2.5	/experiments/knapen_aot/videos/S_video_inspire_california_vineyard_sierra-mar_sunrise_110.1080-h264.mp4	0.0	311.8779001235962	0.09981799125671387
83	252.04040503501892	fix_pre	0		71.0	81.0	2.5	/experiments/knapen_aot/videos/R_S_wc-auTIuWLTxxkn_5.mp4	0.0	311.9777181148529	0.5913989543914795
83	252.62364411354065	response	0	2		81.0	2.5	/experiments/knapen_aot/videos/R_S_wc-auTIuWLTxxkn_5.mp4	0.0	312.56095719337463	
83	252.6318039894104	movie	1		190.0	81.0	2.5	/experiments/knapen_aot/videos/R_S_wc-auTIuWLTxxkn_5.mp4	0.0	312.5691170692444	2.5084331035614014
83	255.1402370929718	fix_post	2		12.0	81.0	2.5	/experiments/knapen_aot/videos/R_S_wc-auTIuWLTxxkn_5.mp4	0.0	315.0775501728058	0.1000680923461914
84	255.240305185318	fix_pre	0		41.0	82.0	2.5	/experiments/knapen_aot/videos/S_yt-v66td-1WO7w_44.mp4	0.0	315.177618265152	0.34146690368652344
84	255.57364416122437	response	0	2		82.0	2.5	/experiments/knapen_aot/videos/S_yt-v66td-1WO7w_44.mp4	0.0	315.51095724105835	
84	255.58177208900452	movie	1		301.0	82.0	2.5	/experiments/knapen_aot/videos/S_yt-v66td-1WO7w_44.mp4	0.0	315.5190851688385	2.5084049701690674
84	258.0901770591736	fix_post	2		12.0	82.0	2.5	/experiments/knapen_aot/videos/S_yt-v66td-1WO7w_44.mp4	0.0	318.02749013900757	0.10019993782043457
85	258.190376996994	fix_pre	0		40.0	83.0	2.5	blank	1.0	318.127690076828	0.3336501121520996
85	258.5152699947357	response	0	2		83.0	2.5	blank	1.0	318.4525830745697	
85	258.5240271091461	movie	1		301.0	83.0	2.5	blank	1.0	318.4613401889801	2.507819890975952
85	261.03184700012207	fix_post	2		12.0	83.0	2.5	blank	1.0	320.96916007995605	0.09992408752441406
87	261.1317710876465	stim	0		289.0					321.06908416748047	2.4083869457244873
87	263.5288190841675	response	0	space						323.46613216400146	
