trial_nr	onset	event_type	phase	response	nr_frames	movie_index	movie_duration	movie_file	blank	onset_abs	duration
0	0.159959077835083	stim	0		25.0					62.99668502807617	0.2083299160003662
0	0.3584139347076416	response	0	space						63.19513988494873	
1	0.3682889938354492	stim	0		121.0					63.20501494407654	1.0066449642181396
1	1.3749339580535889	stim	1		120.0					64.21165990829468	0.9999270439147949
1	1.8831589221954346	response	1	space						64.71988487243652	
1	2.0712809562683105	response	1	4						64.9080069065094	
2	2.374861001968384	fix_pre	0		66.0	0.0	2.5	/experiments/knapen_aot/videos/S_yt-CZ2qiY-kS7Y_105.mp4	0.0	65.21158695220947	0.5497250556945801
2	2.9186179637908936	response	0	space		0.0	2.5	/experiments/knapen_aot/videos/S_yt-CZ2qiY-kS7Y_105.mp4	0.0	65.75534391403198	
2	2.924586057662964	movie	1		301.0	0.0	2.5	/experiments/knapen_aot/videos/S_yt-CZ2qiY-kS7Y_105.mp4	0.0	65.76131200790405	2.5083320140838623
2	5.432918071746826	fix_post	2		12.0	0.0	2.5	/experiments/knapen_aot/videos/S_yt-CZ2qiY-kS7Y_105.mp4	0.0	68.26964402198792	0.1000218391418457
3	5.532939910888672	fix_pre	0		14.0	1.0	2.5	/experiments/knapen_aot/videos/R_S_nvbAwZOKBS8_23.mp4	0.0	68.36966586112976	0.11965513229370117
3	5.645638942718506	response	0	4		1.0	2.5	/experiments/knapen_aot/videos/R_S_nvbAwZOKBS8_23.mp4	0.0	68.4823648929596	
3	5.652595043182373	movie	1		296.0	1.0	2.5	/experiments/knapen_aot/videos/R_S_nvbAwZOKBS8_23.mp4	0.0	68.48932099342346	2.5052549839019775
3	8.15785002708435	fix_post	2		12.0	1.0	2.5	/experiments/knapen_aot/videos/R_S_nvbAwZOKBS8_23.mp4	0.0	70.99457597732544	0.10000801086425781
4	8.257858037948608	fix_pre	0		33.0	2.0	2.5	/experiments/knapen_aot/videos/S_yt-cokedWwwYYs_136.mp4	0.0	71.0945839881897	0.2750580310821533
4	8.524652004241943	response	0	4		2.0	2.5	/experiments/knapen_aot/videos/S_yt-cokedWwwYYs_136.mp4	0.0	71.36137795448303	
4	8.532916069030762	movie	1		301.0	2.0	2.5	/experiments/knapen_aot/videos/S_yt-cokedWwwYYs_136.mp4	0.0	71.36964201927185	2.508349895477295
4	11.041265964508057	fix_post	2		12.0	2.0	2.5	/experiments/knapen_aot/videos/S_yt-cokedWwwYYs_136.mp4	0.0	73.87799191474915	0.09995913505554199
5	11.141225099563599	fix_pre	0		26.0	3.0	2.5	/experiments/knapen_aot/videos/S_yt-Tt_LkR4iAt4_11.mp4	0.0	73.97795104980469	0.21668481826782227
5	11.349768877029419	response	0	4		3.0	2.5	/experiments/knapen_aot/videos/S_yt-Tt_LkR4iAt4_11.mp4	0.0	74.18649482727051	
5	11.357909917831421	movie	1		301.0	3.0	2.5	/experiments/knapen_aot/videos/S_yt-Tt_LkR4iAt4_11.mp4	0.0	74.19463586807251	2.5083260536193848
5	13.866235971450806	fix_post	2		12.0	3.0	2.5	/experiments/knapen_aot/videos/S_yt-Tt_LkR4iAt4_11.mp4	0.0	76.7029619216919	0.09999513626098633
6	13.966231107711792	fix_pre	0		12.0	4.0	2.5	/experiments/knapen_aot/videos/S_MEX_A006_C008_SDR_20190923_SDR_2K_AVC.mp4	0.0	76.80295705795288	0.10001492500305176
6	14.057974100112915	response	0	4		4.0	2.5	/experiments/knapen_aot/videos/S_MEX_A006_C008_SDR_20190923_SDR_2K_AVC.mp4	0.0	76.894700050354	
6	14.066246032714844	movie	1		163.0	4.0	2.5	/experiments/knapen_aot/videos/S_MEX_A006_C008_SDR_20190923_SDR_2K_AVC.mp4	0.0	76.90297198295593	2.5083770751953125
6	16.574623107910156	fix_post	2		12.0	4.0	2.5	/experiments/knapen_aot/videos/S_MEX_A006_C008_SDR_20190923_SDR_2K_AVC.mp4	0.0	79.41134905815125	0.09999489784240723
7	16.674618005752563	fix_pre	0		14.0	5.0	2.5	blank	1.0	79.51134395599365	0.11676907539367676
7	16.78296995162964	response	0	4		5.0	2.5	blank	1.0	79.61969590187073	
7	16.79138708114624	movie	1		301.0	5.0	2.5	blank	1.0	79.62811303138733	2.508121967315674
7	19.299509048461914	fix_post	2		12.0	5.0	2.5	blank	1.0	82.136234998703	0.10000205039978027
8	19.399511098861694	fix_pre	0		180.0	6.0	2.5	/experiments/knapen_aot/videos/S_ILSVRC2015_train_00507000.mp4	0.0	82.23623704910278	1.4999699592590332
8	20.891278982162476	response	0	4		6.0	2.5	/experiments/knapen_aot/videos/S_ILSVRC2015_train_00507000.mp4	0.0	83.72800493240356	
8	20.899481058120728	movie	1		301.0	6.0	2.5	/experiments/knapen_aot/videos/S_ILSVRC2015_train_00507000.mp4	0.0	83.73620700836182	2.5084149837493896
8	23.407896041870117	fix_post	2		12.0	6.0	2.5	/experiments/knapen_aot/videos/S_ILSVRC2015_train_00507000.mp4	0.0	86.2446219921112	0.10000491142272949
9	23.507900953292847	fix_pre	0		34.0	7.0	2.5	/experiments/knapen_aot/videos/S_MEX_A006_C008_SDR_20190923_SDR_2K_AVC.mp4	0.0	86.34462690353394	0.2833859920501709
9	23.78293204307556	response	0	2		7.0	2.5	/experiments/knapen_aot/videos/S_MEX_A006_C008_SDR_20190923_SDR_2K_AVC.mp4	0.0	86.61965799331665	
9	23.791286945343018	movie	1		163.0	7.0	2.5	/experiments/knapen_aot/videos/S_MEX_A006_C008_SDR_20190923_SDR_2K_AVC.mp4	0.0	86.6280128955841	2.508168935775757
9	26.299455881118774	fix_post	2		12.0	7.0	2.5	/experiments/knapen_aot/videos/S_MEX_A006_C008_SDR_20190923_SDR_2K_AVC.mp4	0.0	89.13618183135986	0.0999910831451416
10	26.399446964263916	fix_pre	0		16.0	8.0	2.5	/experiments/knapen_aot/videos/S_ILSVRC2015_train_00725000.mp4	0.0	89.236172914505	0.13329291343688965
10	26.524605989456177	response	0	2		8.0	2.5	/experiments/knapen_aot/videos/S_ILSVRC2015_train_00725000.mp4	0.0	89.36133193969727	
10	26.532739877700806	movie	1		301.0	8.0	2.5	/experiments/knapen_aot/videos/S_ILSVRC2015_train_00725000.mp4	0.0	89.3694658279419	2.508524179458618
10	29.041264057159424	fix_post	2		12.0	8.0	2.5	/experiments/knapen_aot/videos/S_ILSVRC2015_train_00725000.mp4	0.0	91.87799000740051	0.09987688064575195
11	29.141140937805176	fix_pre	0		44.0	9.0	2.5	/experiments/knapen_aot/videos/S_pexels-rodnae-productions-5993237.mp4	0.0	91.97786688804626	0.36667704582214355
11	29.499635934829712	response	0	2		9.0	2.5	/experiments/knapen_aot/videos/S_pexels-rodnae-productions-5993237.mp4	0.0	92.3363618850708	
11	29.50781798362732	movie	1		163.0	9.0	2.5	/experiments/knapen_aot/videos/S_pexels-rodnae-productions-5993237.mp4	0.0	92.34454393386841	2.5082669258117676
11	32.01608490943909	fix_post	2		12.0	9.0	2.5	/experiments/knapen_aot/videos/S_pexels-rodnae-productions-5993237.mp4	0.0	94.85281085968018	0.1000831127166748
12	32.11616802215576	fix_pre	0		31.0	10.0	2.5	/experiments/knapen_aot/videos/S_yt-CZ2qiY-kS7Y_105.mp4	0.0	94.95289397239685	0.2584099769592285
12	32.366219997406006	response	0	2		10.0	2.5	/experiments/knapen_aot/videos/S_yt-CZ2qiY-kS7Y_105.mp4	0.0	95.2029459476471	
12	32.37457799911499	movie	1		301.0	10.0	2.5	/experiments/knapen_aot/videos/S_yt-CZ2qiY-kS7Y_105.mp4	0.0	95.21130394935608	2.508168935775757
12	34.579248905181885	response	1	2		10.0	2.5	/experiments/knapen_aot/videos/S_yt-CZ2qiY-kS7Y_105.mp4	0.0	97.41597485542297	
12	34.88274693489075	fix_post	2		12.0	10.0	2.5	/experiments/knapen_aot/videos/S_yt-CZ2qiY-kS7Y_105.mp4	0.0	97.71947288513184	0.10004901885986328
13	34.98279595375061	fix_pre	0		37.0	11.0	2.5	/experiments/knapen_aot/videos/R_S_yt-4x2eUikn9rw_212.mp4	0.0	97.8195219039917	0.30843615531921387
13	35.282936096191406	response	0	2		11.0	2.5	/experiments/knapen_aot/videos/R_S_yt-4x2eUikn9rw_212.mp4	0.0	98.1196620464325	
13	35.291232109069824	movie	1		301.0	11.0	2.5	/experiments/knapen_aot/videos/R_S_yt-4x2eUikn9rw_212.mp4	0.0	98.12795805931091	2.5082058906555176
13	37.79943799972534	fix_post	2		12.0	11.0	2.5	/experiments/knapen_aot/videos/R_S_yt-4x2eUikn9rw_212.mp4	0.0	100.63616394996643	0.10003995895385742
14	37.8994779586792	fix_pre	0		101.0	12.0	2.5	/experiments/knapen_aot/videos/R_S_ILSVRC2015_train_00599000.mp4	0.0	100.73620390892029	0.841620922088623
14	38.732929944992065	response	0	2		12.0	2.5	/experiments/knapen_aot/videos/R_S_ILSVRC2015_train_00599000.mp4	0.0	101.56965589523315	
14	38.74109888076782	movie	1		301.0	12.0	2.5	/experiments/knapen_aot/videos/R_S_ILSVRC2015_train_00599000.mp4	0.0	101.57782483100891	2.5083861351013184
14	41.24948501586914	fix_post	2		12.0	12.0	2.5	/experiments/knapen_aot/videos/R_S_ILSVRC2015_train_00599000.mp4	0.0	104.08621096611023	0.09997701644897461
15	41.349462032318115	fix_pre	0		157.0	13.0	2.5	/experiments/knapen_aot/videos/S_yt-r4st6Mt4EE8_85.mp4	0.0	104.1861879825592	1.3082990646362305
15	42.64957404136658	response	0	2		13.0	2.5	/experiments/knapen_aot/videos/S_yt-r4st6Mt4EE8_85.mp4	0.0	105.48629999160767	
15	42.657761096954346	movie	1		301.0	13.0	2.5	/experiments/knapen_aot/videos/S_yt-r4st6Mt4EE8_85.mp4	0.0	105.49448704719543	2.508420944213867
15	45.16618204116821	fix_post	2		12.0	13.0	2.5	/experiments/knapen_aot/videos/S_yt-r4st6Mt4EE8_85.mp4	0.0	108.0029079914093	0.09993100166320801
16	45.26611304283142	fix_pre	0		44.0	14.0	2.5	blank	1.0	108.10283899307251	0.36664485931396484
16	45.624589920043945	response	0	2		14.0	2.5	blank	1.0	108.46131587028503	
16	45.632757902145386	movie	1		301.0	14.0	2.5	blank	1.0	108.46948385238647	2.508329153060913
16	48.1410870552063	fix_post	2		12.0	14.0	2.5	blank	1.0	110.97781300544739	0.1000528335571289
17	48.24113988876343	fix_pre	0		28.0	15.0	2.5	/experiments/knapen_aot/videos/R_S_yt-zKnjBBYWe90_369.mp4	0.0	111.07786583900452	0.23324108123779297
17	48.466257095336914	response	0	2		15.0	2.5	/experiments/knapen_aot/videos/R_S_yt-zKnjBBYWe90_369.mp4	0.0	111.302983045578	
17	48.47438097000122	movie	1		300.0	15.0	2.5	/experiments/knapen_aot/videos/R_S_yt-zKnjBBYWe90_369.mp4	0.0	111.31110692024231	2.5083489418029785
17	50.9827299118042	fix_post	2		12.0	15.0	2.5	/experiments/knapen_aot/videos/R_S_yt-zKnjBBYWe90_369.mp4	0.0	113.81945586204529	0.100006103515625
18	51.082736015319824	fix_pre	0		35.0	16.0	2.5	/experiments/knapen_aot/videos/S_yt-cvwUZbYSd4Q_35.mp4	0.0	113.91946196556091	0.2916300296783447
18	51.36612606048584	response	0	2		16.0	2.5	/experiments/knapen_aot/videos/S_yt-cvwUZbYSd4Q_35.mp4	0.0	114.20285201072693	
18	51.37436604499817	movie	1		301.0	16.0	2.5	/experiments/knapen_aot/videos/S_yt-cvwUZbYSd4Q_35.mp4	0.0	114.21109199523926	2.5083718299865723
18	53.88273787498474	fix_post	2		12.0	16.0	2.5	/experiments/knapen_aot/videos/S_yt-cvwUZbYSd4Q_35.mp4	0.0	116.71946382522583	0.09997701644897461
19	53.982714891433716	fix_pre	0		18.0	17.0	2.5	/experiments/knapen_aot/videos/S_yt-tMP5WhHMtWE_55.mp4	0.0	116.8194408416748	0.14991116523742676
19	54.12452507019043	response	0	2		17.0	2.5	/experiments/knapen_aot/videos/S_yt-tMP5WhHMtWE_55.mp4	0.0	116.96125102043152	
19	54.13262605667114	movie	1		301.0	17.0	2.5	/experiments/knapen_aot/videos/S_yt-tMP5WhHMtWE_55.mp4	0.0	116.96935200691223	2.5083630084991455
19	56.64098906517029	fix_post	2		12.0	17.0	2.5	/experiments/knapen_aot/videos/S_yt-tMP5WhHMtWE_55.mp4	0.0	119.47771501541138	0.1000368595123291
20	56.74102592468262	fix_pre	0		140.0	18.0	2.5	/experiments/knapen_aot/videos/S_yt-wIZprsJwxBM_298.mp4	0.0	119.5777518749237	1.1666760444641113
20	57.89950394630432	response	0	2		18.0	2.5	/experiments/knapen_aot/videos/S_yt-wIZprsJwxBM_298.mp4	0.0	120.73622989654541	
20	57.90770196914673	movie	1		301.0	18.0	2.5	/experiments/knapen_aot/videos/S_yt-wIZprsJwxBM_298.mp4	0.0	120.74442791938782	2.5082790851593018
20	60.41598105430603	fix_post	2		12.0	18.0	2.5	/experiments/knapen_aot/videos/S_yt-wIZprsJwxBM_298.mp4	0.0	123.25270700454712	0.10008382797241211
21	60.51606488227844	fix_pre	0		61.0	19.0	2.5	blank	1.0	123.35279083251953	0.5083401203155518
21	61.01605796813965	response	0	2		19.0	2.5	blank	1.0	123.85278391838074	
21	61.024405002593994	movie	1		301.0	19.0	2.5	blank	1.0	123.86113095283508	2.5082080364227295
21	63.532613039016724	fix_post	2		12.0	19.0	2.5	blank	1.0	126.36933898925781	0.1000669002532959
22	63.63267993927002	fix_pre	0		25.0	20.0	2.5	/experiments/knapen_aot/videos/R_S_yt-zlbtESb7Fcw_28.mp4	0.0	126.46940588951111	0.20831799507141113
22	63.83280396461487	response	0	2		20.0	2.5	/experiments/knapen_aot/videos/R_S_yt-zlbtESb7Fcw_28.mp4	0.0	126.66952991485596	
22	63.84099793434143	movie	1		301.0	20.0	2.5	/experiments/knapen_aot/videos/R_S_yt-zlbtESb7Fcw_28.mp4	0.0	126.67772388458252	2.5083911418914795
22	66.34938907623291	fix_post	2		12.0	20.0	2.5	/experiments/knapen_aot/videos/R_S_yt-zlbtESb7Fcw_28.mp4	0.0	129.186115026474	0.09988880157470703
23	66.44927787780762	fix_pre	0		24.0	21.0	2.5	/experiments/knapen_aot/videos/R_S_comp_LA_A006_C008_PSNK_ALL_LOGOS_v10_SDR_PS_FINAL_20180801_SDR_2K_AVC.mp4	0.0	129.2860038280487	0.1999671459197998
23	66.64113306999207	response	0	2		21.0	2.5	/experiments/knapen_aot/videos/R_S_comp_LA_A006_C008_PSNK_ALL_LOGOS_v10_SDR_PS_FINAL_20180801_SDR_2K_AVC.mp4	0.0	129.47785902023315	
23	66.64924502372742	movie	1		171.0	21.0	2.5	/experiments/knapen_aot/videos/R_S_comp_LA_A006_C008_PSNK_ALL_LOGOS_v10_SDR_PS_FINAL_20180801_SDR_2K_AVC.mp4	0.0	129.4859709739685	2.5084939002990723
23	69.15773892402649	fix_post	2		12.0	21.0	2.5	/experiments/knapen_aot/videos/R_S_comp_LA_A006_C008_PSNK_ALL_LOGOS_v10_SDR_PS_FINAL_20180801_SDR_2K_AVC.mp4	0.0	131.99446487426758	0.09990215301513672
24	69.25764107704163	fix_pre	0		93.0	22.0	2.5	/experiments/knapen_aot/videos/S_yt-wE0cEswyaaM_53.mp4	0.0	132.09436702728271	0.776296854019165
24	70.02443289756775	response	0	2		22.0	2.5	/experiments/knapen_aot/videos/S_yt-wE0cEswyaaM_53.mp4	0.0	132.86115884780884	
24	70.03393793106079	movie	1		300.0	22.0	2.5	/experiments/knapen_aot/videos/S_yt-wE0cEswyaaM_53.mp4	0.0	132.87066388130188	2.507056951522827
24	72.54099488258362	fix_post	2		12.0	22.0	2.5	/experiments/knapen_aot/videos/S_yt-wE0cEswyaaM_53.mp4	0.0	135.3777208328247	0.09991121292114258
25	72.64090609550476	fix_pre	0		70.0	23.0	2.5	/experiments/knapen_aot/videos/S_yt-2IN85w8ptmM_51.mp4	0.0	135.47763204574585	0.5833168029785156
25	73.21612691879272	response	0	2		23.0	2.5	/experiments/knapen_aot/videos/S_yt-2IN85w8ptmM_51.mp4	0.0	136.0528528690338	
25	73.22422289848328	movie	1		301.0	23.0	2.5	/experiments/knapen_aot/videos/S_yt-2IN85w8ptmM_51.mp4	0.0	136.06094884872437	2.5084362030029297
25	75.7326591014862	fix_post	2		12.0	23.0	2.5	/experiments/knapen_aot/videos/S_yt-2IN85w8ptmM_51.mp4	0.0	138.5693850517273	0.09999489784240723
26	75.83265399932861	fix_pre	0		92.0	24.0	2.5	/experiments/knapen_aot/videos/R_S_9smWynsk6sI_158.mp4	0.0	138.6693799495697	0.7665920257568359
26	76.59106802940369	response	0	2		24.0	2.5	/experiments/knapen_aot/videos/R_S_9smWynsk6sI_158.mp4	0.0	139.42779397964478	
26	76.59924602508545	movie	1		299.0	24.0	2.5	/experiments/knapen_aot/videos/R_S_9smWynsk6sI_158.mp4	0.0	139.43597197532654	2.508347988128662
26	79.10759401321411	fix_post	2		12.0	24.0	2.5	/experiments/knapen_aot/videos/R_S_9smWynsk6sI_158.mp4	0.0	141.9443199634552	0.10000300407409668
27	79.20759701728821	fix_pre	0		28.0	25.0	2.5	/experiments/knapen_aot/videos/R_S_yt-UPgF4YAHBQY_33.mp4	0.0	142.0443229675293	0.2333378791809082
27	79.43277597427368	response	0	2		25.0	2.5	/experiments/knapen_aot/videos/R_S_yt-UPgF4YAHBQY_33.mp4	0.0	142.26950192451477	
27	79.44093489646912	movie	1		301.0	25.0	2.5	/experiments/knapen_aot/videos/R_S_yt-UPgF4YAHBQY_33.mp4	0.0	142.2776608467102	2.5083110332489014
27	81.94924592971802	fix_post	2		12.0	25.0	2.5	/experiments/knapen_aot/videos/R_S_yt-UPgF4YAHBQY_33.mp4	0.0	144.7859718799591	0.09999608993530273
28	82.04924201965332	fix_pre	0		22.0	26.0	2.5	blank	1.0	144.8859679698944	0.18337607383728027
28	82.22439789772034	response	0	2		26.0	2.5	blank	1.0	145.06112384796143	
28	82.2326180934906	movie	1		301.0	26.0	2.5	blank	1.0	145.0693440437317	2.508316993713379
28	84.74093508720398	fix_post	2		12.0	26.0	2.5	blank	1.0	147.57766103744507	0.09998393058776855
29	84.84091901779175	fix_pre	0		27.0	27.0	2.5	/experiments/knapen_aot/videos/R_S_ILSVRC2015_train_00017007.mp4	0.0	147.67764496803284	0.22496485710144043
29	85.05770802497864	response	0	2		27.0	2.5	/experiments/knapen_aot/videos/R_S_ILSVRC2015_train_00017007.mp4	0.0	147.89443397521973	
29	85.06588387489319	movie	1		301.0	27.0	2.5	/experiments/knapen_aot/videos/R_S_ILSVRC2015_train_00017007.mp4	0.0	147.90260982513428	2.5083460807800293
29	87.57422995567322	fix_post	2		12.0	27.0	2.5	/experiments/knapen_aot/videos/R_S_ILSVRC2015_train_00017007.mp4	0.0	150.4109559059143	0.10003304481506348
30	87.67426300048828	fix_pre	0		18.0	28.0	2.5	/experiments/knapen_aot/videos/R_S_yt-D_f3_HIXG2g_87.mp4	0.0	150.51098895072937	0.14999794960021973
30	87.8159909248352	response	0	2		28.0	2.5	/experiments/knapen_aot/videos/R_S_yt-D_f3_HIXG2g_87.mp4	0.0	150.6527168750763	
30	87.8242609500885	movie	1		301.0	28.0	2.5	/experiments/knapen_aot/videos/R_S_yt-D_f3_HIXG2g_87.mp4	0.0	150.6609869003296	2.5083069801330566
30	90.33256793022156	fix_post	2		12.0	28.0	2.5	/experiments/knapen_aot/videos/R_S_yt-D_f3_HIXG2g_87.mp4	0.0	153.16929388046265	0.10002398490905762
31	90.43259191513062	fix_pre	0		32.0	29.0	2.5	/experiments/knapen_aot/videos/R_S_yt-2kPrGwVmRfE_169.mp4	0.0	153.2693178653717	0.26661205291748047
31	90.6834979057312	response	0	2		29.0	2.5	/experiments/knapen_aot/videos/R_S_yt-2kPrGwVmRfE_169.mp4	0.0	153.5202238559723	
31	90.6992039680481	movie	1		298.0	29.0	2.5	/experiments/knapen_aot/videos/R_S_yt-2kPrGwVmRfE_169.mp4	0.0	153.53592991828918	2.508415937423706
31	93.2076199054718	fix_post	2		12.0	29.0	2.5	/experiments/knapen_aot/videos/R_S_yt-2kPrGwVmRfE_169.mp4	0.0	156.0443458557129	0.09993100166320801
32	93.30755090713501	fix_pre	0		94.0	30.0	2.5	/experiments/knapen_aot/videos/R_S_yt-zgimmOcW5Mc_127.mp4	0.0	156.1442768573761	0.7832469940185547
32	94.08268308639526	response	0	2		30.0	2.5	/experiments/knapen_aot/videos/R_S_yt-zgimmOcW5Mc_127.mp4	0.0	156.91940903663635	
32	94.09079790115356	movie	1		301.0	30.0	2.5	/experiments/knapen_aot/videos/R_S_yt-zgimmOcW5Mc_127.mp4	0.0	156.92752385139465	2.5083351135253906
32	96.59913301467896	fix_post	2		12.0	30.0	2.5	/experiments/knapen_aot/videos/R_S_yt-zgimmOcW5Mc_127.mp4	0.0	159.43585896492004	0.10007500648498535
33	96.69920802116394	fix_pre	0		41.0	31.0	2.5	/experiments/knapen_aot/videos/R_S_ILSVRC2015_train_00507000.mp4	0.0	159.53593397140503	0.3415689468383789
33	97.03268003463745	response	0	2		31.0	2.5	/experiments/knapen_aot/videos/R_S_ILSVRC2015_train_00507000.mp4	0.0	159.86940598487854	
33	97.04077696800232	movie	1		301.0	31.0	2.5	/experiments/knapen_aot/videos/R_S_ILSVRC2015_train_00507000.mp4	0.0	159.8775029182434	2.5083630084991455
33	99.54913997650146	fix_post	2		12.0	31.0	2.5	/experiments/knapen_aot/videos/R_S_ILSVRC2015_train_00507000.mp4	0.0	162.38586592674255	0.10008811950683594
34	99.6492280960083	fix_pre	0		239.0	32.0	2.5	/experiments/knapen_aot/videos/R_S_yt-s-J3C6e5A3Q_18.mp4	0.0	162.4859540462494	1.9916188716888428
34	101.63273191452026	response	0	2		32.0	2.5	/experiments/knapen_aot/videos/R_S_yt-s-J3C6e5A3Q_18.mp4	0.0	164.46945786476135	
34	101.64084696769714	movie	1		301.0	32.0	2.5	/experiments/knapen_aot/videos/R_S_yt-s-J3C6e5A3Q_18.mp4	0.0	164.47757291793823	2.5083401203155518
34	104.1491870880127	fix_post	2		12.0	32.0	2.5	/experiments/knapen_aot/videos/R_S_yt-s-J3C6e5A3Q_18.mp4	0.0	166.98591303825378	0.09999585151672363
35	104.24918293952942	fix_pre	0		38.0	33.0	2.5	blank	1.0	167.0859088897705	0.3166079521179199
35	104.55761194229126	response	0	2		33.0	2.5	blank	1.0	167.39433789253235	
35	104.56579089164734	movie	1		301.0	33.0	2.5	blank	1.0	167.40251684188843	2.508355140686035
35	107.07414603233337	fix_post	2		12.0	33.0	2.5	blank	1.0	169.91087198257446	0.09999585151672363
36	107.1741418838501	fix_pre	0		238.0	34.0	2.5	/experiments/knapen_aot/videos/R_S_yt-2i53vKte7SA_117.mp4	0.0	170.0108678340912	1.9844541549682617
36	109.1492428779602	response	0	2		34.0	2.5	/experiments/knapen_aot/videos/R_S_yt-2i53vKte7SA_117.mp4	0.0	171.9859688282013	
36	109.15859603881836	movie	1		301.0	34.0	2.5	/experiments/knapen_aot/videos/R_S_yt-2i53vKte7SA_117.mp4	0.0	171.99532198905945	2.507227897644043
36	111.6658239364624	fix_post	2		12.0	34.0	2.5	/experiments/knapen_aot/videos/R_S_yt-2i53vKte7SA_117.mp4	0.0	174.5025498867035	0.10002613067626953
37	111.76585006713867	fix_pre	0		42.0	35.0	2.5	/experiments/knapen_aot/videos/S_pexels-koolshooters-7327412_1.mp4	0.0	174.60257601737976	0.3510429859161377
37	112.10760593414307	response	0	2		35.0	2.5	/experiments/knapen_aot/videos/S_pexels-koolshooters-7327412_1.mp4	0.0	174.94433188438416	
37	112.11689305305481	movie	1		174.0	35.0	2.5	/experiments/knapen_aot/videos/S_pexels-koolshooters-7327412_1.mp4	0.0	174.9536190032959	2.5072598457336426
37	114.62415289878845	fix_post	2		12.0	35.0	2.5	/experiments/knapen_aot/videos/S_pexels-koolshooters-7327412_1.mp4	0.0	177.46087884902954	0.09991908073425293
38	114.7240719795227	fix_pre	0		125.0	36.0	2.5	/experiments/knapen_aot/videos/S_yt-z16pdVTZK1o_3.mp4	0.0	177.5607979297638	1.041666030883789
38	115.75754499435425	response	0	2		36.0	2.5	/experiments/knapen_aot/videos/S_yt-z16pdVTZK1o_3.mp4	0.0	178.59427094459534	
38	115.7657380104065	movie	1		301.0	36.0	2.5	/experiments/knapen_aot/videos/S_yt-z16pdVTZK1o_3.mp4	0.0	178.60246396064758	2.5083940029144287
38	118.27413201332092	fix_post	2		12.0	36.0	2.5	/experiments/knapen_aot/videos/S_yt-z16pdVTZK1o_3.mp4	0.0	181.110857963562	0.09998607635498047
39	118.3741180896759	fix_pre	0		46.0	37.0	2.5	/experiments/knapen_aot/videos/S_yt-xqHrTtvFFIs_3.mp4	0.0	181.210844039917	0.38327789306640625
39	118.74916911125183	response	0	2		37.0	2.5	/experiments/knapen_aot/videos/S_yt-xqHrTtvFFIs_3.mp4	0.0	181.58589506149292	
39	118.75739598274231	movie	1		301.0	37.0	2.5	/experiments/knapen_aot/videos/S_yt-xqHrTtvFFIs_3.mp4	0.0	181.5941219329834	2.508394956588745
39	121.26579093933105	fix_post	2		12.0	37.0	2.5	/experiments/knapen_aot/videos/S_yt-xqHrTtvFFIs_3.mp4	0.0	184.10251688957214	0.10000205039978027
40	121.36579298973083	fix_pre	0		52.0	38.0	2.5	/experiments/knapen_aot/videos/S_yt-D_f3_HIXG2g_87.mp4	0.0	184.20251893997192	0.43320798873901367
40	121.79086494445801	response	0	2		38.0	2.5	/experiments/knapen_aot/videos/S_yt-D_f3_HIXG2g_87.mp4	0.0	184.6275908946991	
40	121.79900097846985	movie	1		301.0	38.0	2.5	/experiments/knapen_aot/videos/S_yt-D_f3_HIXG2g_87.mp4	0.0	184.63572692871094	2.5083329677581787
40	124.30733394622803	fix_post	2		12.0	38.0	2.5	/experiments/knapen_aot/videos/S_yt-D_f3_HIXG2g_87.mp4	0.0	187.14405989646912	0.10008716583251953
41	124.40742111206055	fix_pre	0		146.0	39.0	2.5	/experiments/knapen_aot/videos/S_yt-xNKgc8sFYvU_35.mp4	0.0	187.24414706230164	1.2166719436645508
41	125.61590504646301	response	0	2		39.0	2.5	/experiments/knapen_aot/videos/S_yt-xNKgc8sFYvU_35.mp4	0.0	188.4526309967041	
41	125.6240930557251	movie	1		301.0	39.0	2.5	/experiments/knapen_aot/videos/S_yt-xNKgc8sFYvU_35.mp4	0.0	188.4608190059662	2.508359909057617
41	128.13245296478271	fix_post	2		12.0	39.0	2.5	/experiments/knapen_aot/videos/S_yt-xNKgc8sFYvU_35.mp4	0.0	190.9691789150238	0.09995794296264648
42	128.23241090774536	fix_pre	0		94.0	40.0	2.5	/experiments/knapen_aot/videos/R_S_ILSVRC2015_train_00373001.mp4	0.0	191.06913685798645	0.7833251953125
42	129.00760293006897	response	0	2		40.0	2.5	/experiments/knapen_aot/videos/R_S_ILSVRC2015_train_00373001.mp4	0.0	191.84432888031006	
42	129.01573610305786	movie	1		301.0	40.0	2.5	/experiments/knapen_aot/videos/R_S_ILSVRC2015_train_00373001.mp4	0.0	191.85246205329895	2.5082719326019287
42	131.5240080356598	fix_post	2		12.0	40.0	2.5	/experiments/knapen_aot/videos/R_S_ILSVRC2015_train_00373001.mp4	0.0	194.36073398590088	0.10000205039978027
43	131.62401008605957	fix_pre	0		10.0	41.0	2.5	/experiments/knapen_aot/videos/S_production_ID_5146014.mp4	0.0	194.46073603630066	0.08332586288452148
43	131.69917392730713	response	0	2		41.0	2.5	/experiments/knapen_aot/videos/S_production_ID_5146014.mp4	0.0	194.53589987754822	
43	131.7073359489441	movie	1		166.0	41.0	2.5	/experiments/knapen_aot/videos/S_production_ID_5146014.mp4	0.0	194.54406189918518	2.508366107940674
43	134.21570205688477	fix_post	2		12.0	41.0	2.5	/experiments/knapen_aot/videos/S_production_ID_5146014.mp4	0.0	197.05242800712585	0.0999460220336914
44	134.31564807891846	fix_pre	0		15.0	42.0	2.5	blank	1.0	197.15237402915955	0.12507987022399902
44	134.43248510360718	response	0	2		42.0	2.5	blank	1.0	197.26921105384827	
44	134.44072794914246	movie	1		301.0	42.0	2.5	blank	1.0	197.27745389938354	2.5083560943603516
44	136.9490840435028	fix_post	2		12.0	42.0	2.5	blank	1.0	199.7858099937439	0.09997892379760742
45	137.04906296730042	fix_pre	0		47.0	43.0	2.5	/experiments/knapen_aot/videos/S_yt-tOOaOzYvtKE_79.mp4	0.0	199.8857889175415	0.39160799980163574
45	137.43245887756348	response	0	2		43.0	2.5	/experiments/knapen_aot/videos/S_yt-tOOaOzYvtKE_79.mp4	0.0	200.26918482780457	
45	137.44067096710205	movie	1		301.0	43.0	2.5	/experiments/knapen_aot/videos/S_yt-tOOaOzYvtKE_79.mp4	0.0	200.27739691734314	2.5083370208740234
45	139.94900798797607	fix_post	2		12.0	43.0	2.5	/experiments/knapen_aot/videos/S_yt-tOOaOzYvtKE_79.mp4	0.0	202.78573393821716	0.09995388984680176
46	140.04896187782288	fix_pre	0		34.0	44.0	2.5	/experiments/knapen_aot/videos/R_S_yt-xqHrTtvFFIs_3.mp4	0.0	202.88568782806396	0.2833380699157715
46	140.31658601760864	response	0	2		44.0	2.5	/experiments/knapen_aot/videos/R_S_yt-xqHrTtvFFIs_3.mp4	0.0	203.15331196784973	
46	140.33229994773865	movie	1		301.0	44.0	2.5	/experiments/knapen_aot/videos/R_S_yt-xqHrTtvFFIs_3.mp4	0.0	203.16902589797974	2.508424997329712
46	142.84072494506836	fix_post	2		12.0	44.0	2.5	/experiments/knapen_aot/videos/R_S_yt-xqHrTtvFFIs_3.mp4	0.0	205.67745089530945	0.09984302520751953
47	142.94056797027588	fix_pre	0		48.0	45.0	2.5	/experiments/knapen_aot/videos/S_pexels-mart-production-8435081.mp4	0.0	205.77729392051697	0.4000539779663086
47	143.33241891860962	response	0	2		45.0	2.5	/experiments/knapen_aot/videos/S_pexels-mart-production-8435081.mp4	0.0	206.1691448688507	
47	143.3406219482422	movie	1		193.0	45.0	2.5	/experiments/knapen_aot/videos/S_pexels-mart-production-8435081.mp4	0.0	206.17734789848328	2.508397102355957
47	145.84901905059814	fix_post	2		12.0	45.0	2.5	/experiments/knapen_aot/videos/S_pexels-mart-production-8435081.mp4	0.0	208.68574500083923	0.09993791580200195
48	145.94895696640015	fix_pre	0		128.0	46.0	2.5	/experiments/knapen_aot/videos/R_S_ILSVRC2015_train_00001009.mp4	0.0	208.78568291664124	1.0666499137878418
48	147.00744605064392	response	0	2		46.0	2.5	/experiments/knapen_aot/videos/R_S_ILSVRC2015_train_00001009.mp4	0.0	209.844172000885	
48	147.015606880188	movie	1		300.0	46.0	2.5	/experiments/knapen_aot/videos/R_S_ILSVRC2015_train_00001009.mp4	0.0	209.85233283042908	2.508364200592041
48	149.52397108078003	fix_post	2		12.0	46.0	2.5	/experiments/knapen_aot/videos/R_S_ILSVRC2015_train_00001009.mp4	0.0	212.36069703102112	0.10001087188720703
49	149.62398195266724	fix_pre	0		97.0	47.0	2.5	/experiments/knapen_aot/videos/S_wc-AyT9mzwZsu0T_14.mp4	0.0	212.46070790290833	0.8083491325378418
49	150.424134016037	response	0	2		47.0	2.5	/experiments/knapen_aot/videos/S_wc-AyT9mzwZsu0T_14.mp4	0.0	213.26085996627808	
49	150.43233108520508	movie	1		161.0	47.0	2.5	/experiments/knapen_aot/videos/S_wc-AyT9mzwZsu0T_14.mp4	0.0	213.26905703544617	2.508281946182251
49	152.94061303138733	fix_post	2		12.0	47.0	2.5	/experiments/knapen_aot/videos/S_wc-AyT9mzwZsu0T_14.mp4	0.0	215.77733898162842	0.09999895095825195
50	153.04061198234558	fix_pre	0		26.0	48.0	2.5	/experiments/knapen_aot/videos/S_yt-cvwUZbYSd4Q_35.mp4	0.0	215.87733793258667	0.21665596961975098
50	153.24911403656006	response	0	2		48.0	2.5	/experiments/knapen_aot/videos/S_yt-cvwUZbYSd4Q_35.mp4	0.0	216.08583998680115	
50	153.25726795196533	movie	1		301.0	48.0	2.5	/experiments/knapen_aot/videos/S_yt-cvwUZbYSd4Q_35.mp4	0.0	216.09399390220642	2.5083370208740234
50	155.76560497283936	fix_post	2		12.0	48.0	2.5	/experiments/knapen_aot/videos/S_yt-cvwUZbYSd4Q_35.mp4	0.0	218.60233092308044	0.09995198249816895
51	155.86555695533752	fix_pre	0		40.0	49.0	2.5	blank	1.0	218.7022829055786	0.33425307273864746
51	156.19078493118286	response	0	2		49.0	2.5	blank	1.0	219.02751088142395	
51	156.19981002807617	movie	1		301.0	49.0	2.5	blank	1.0	219.03653597831726	2.5074470043182373
51	158.7072570323944	fix_post	2		12.0	49.0	2.5	blank	1.0	221.5439829826355	0.09999799728393555
52	158.80725502967834	fix_pre	0		270.0	50.0	2.5	/experiments/knapen_aot/videos/R_S_yt-0d5TkclKWVA_146.mp4	0.0	221.64398097991943	2.250105857849121
52	161.04910802841187	response	0	2		50.0	2.5	/experiments/knapen_aot/videos/R_S_yt-0d5TkclKWVA_146.mp4	0.0	223.88583397865295	
52	161.05736088752747	movie	1		299.0	50.0	2.5	/experiments/knapen_aot/videos/R_S_yt-0d5TkclKWVA_146.mp4	0.0	223.89408683776855	2.508254051208496
52	163.56561493873596	fix_post	2		12.0	50.0	2.5	/experiments/knapen_aot/videos/R_S_yt-0d5TkclKWVA_146.mp4	0.0	226.40234088897705	0.09995913505554199
53	163.6655740737915	fix_pre	0		34.0	51.0	2.5	/experiments/knapen_aot/videos/S_yt-2OoHcgS8sss_7.mp4	0.0	226.5023000240326	0.2841358184814453
53	163.94077396392822	response	0	2		51.0	2.5	/experiments/knapen_aot/videos/S_yt-2OoHcgS8sss_7.mp4	0.0	226.7774999141693	
53	163.94970989227295	movie	1		301.0	51.0	2.5	/experiments/knapen_aot/videos/S_yt-2OoHcgS8sss_7.mp4	0.0	226.78643584251404	2.5075130462646484
53	166.4572229385376	fix_post	2		12.0	51.0	2.5	/experiments/knapen_aot/videos/S_yt-2OoHcgS8sss_7.mp4	0.0	229.2939488887787	0.09992814064025879
54	166.55715107917786	fix_pre	0		17.0	52.0	2.5	/experiments/knapen_aot/videos/S_yt-tMP5WhHMtWE_55.mp4	0.0	229.39387702941895	0.14272189140319824
54	166.69071888923645	response	0	2		52.0	2.5	/experiments/knapen_aot/videos/S_yt-tMP5WhHMtWE_55.mp4	0.0	229.52744483947754	
54	166.69987297058105	movie	1		301.0	52.0	2.5	/experiments/knapen_aot/videos/S_yt-tMP5WhHMtWE_55.mp4	0.0	229.53659892082214	2.5073750019073486
54	169.2072479724884	fix_post	2		12.0	52.0	2.5	/experiments/knapen_aot/videos/S_yt-tMP5WhHMtWE_55.mp4	0.0	232.0439739227295	0.09999513626098633
55	169.3072431087494	fix_pre	0		27.0	53.0	2.5	/experiments/knapen_aot/videos/R_S_9smWynsk6sI_158.mp4	0.0	232.14396905899048	0.22571778297424316
55	169.52398705482483	response	0	2		53.0	2.5	/experiments/knapen_aot/videos/R_S_9smWynsk6sI_158.mp4	0.0	232.36071300506592	
55	169.53296089172363	movie	1		301.0	53.0	2.5	/experiments/knapen_aot/videos/R_S_9smWynsk6sI_158.mp4	0.0	232.36968684196472	2.5075840950012207
55	172.04054498672485	fix_post	2		12.0	53.0	2.5	/experiments/knapen_aot/videos/R_S_9smWynsk6sI_158.mp4	0.0	234.87727093696594	0.0999910831451416
56	172.14053606987	fix_pre	0		206.0	54.0	2.5	/experiments/knapen_aot/videos/R_S_yt-xNITUMXoU0g_9.mp4	0.0	234.97726202011108	1.7166669368743896
56	173.8489809036255	response	0	2		54.0	2.5	/experiments/knapen_aot/videos/R_S_yt-xNITUMXoU0g_9.mp4	0.0	236.68570685386658	
56	173.85720300674438	movie	1		301.0	54.0	2.5	/experiments/knapen_aot/videos/R_S_yt-xNITUMXoU0g_9.mp4	0.0	236.69392895698547	2.5083580017089844
56	176.36556100845337	fix_post	2		12.0	54.0	2.5	/experiments/knapen_aot/videos/R_S_yt-xNITUMXoU0g_9.mp4	0.0	239.20228695869446	0.09996390342712402
57	176.4655249118805	fix_pre	0		91.0	55.0	2.5	/experiments/knapen_aot/videos/S_yt-YTQXM5ZjRgg_116.mp4	0.0	239.30225086212158	0.7583050727844238
57	177.21569395065308	response	0	2		55.0	2.5	/experiments/knapen_aot/videos/S_yt-YTQXM5ZjRgg_116.mp4	0.0	240.05241990089417	
57	177.22382998466492	movie	1		301.0	55.0	2.5	/experiments/knapen_aot/videos/S_yt-YTQXM5ZjRgg_116.mp4	0.0	240.060555934906	2.5083820819854736
57	179.7322120666504	fix_post	2		12.0	55.0	2.5	/experiments/knapen_aot/videos/S_yt-YTQXM5ZjRgg_116.mp4	0.0	242.56893801689148	0.10002899169921875
58	179.8322410583496	fix_pre	0		24.0	56.0	2.5	blank	1.0	242.6689670085907	0.20070791244506836
58	180.02398204803467	response	0	2		56.0	2.5	blank	1.0	242.86070799827576	
58	180.03294897079468	movie	1		301.0	56.0	2.5	blank	1.0	242.86967492103577	2.50754714012146
58	182.54049611091614	fix_post	2		12.0	56.0	2.5	blank	1.0	245.37722206115723	0.09993481636047363
59	182.6404309272766	fix_pre	0		140.0	57.0	2.5	/experiments/knapen_aot/videos/R_S_Pexels_Videos_2795731.mp4	0.0	245.4771568775177	1.1666970252990723
59	183.79898405075073	response	0	2		57.0	2.5	/experiments/knapen_aot/videos/R_S_Pexels_Videos_2795731.mp4	0.0	246.63571000099182	
59	183.80712795257568	movie	1		163.0	57.0	2.5	/experiments/knapen_aot/videos/R_S_Pexels_Videos_2795731.mp4	0.0	246.64385390281677	2.5086491107940674
59	186.31577706336975	fix_post	2		12.0	57.0	2.5	/experiments/knapen_aot/videos/R_S_Pexels_Videos_2795731.mp4	0.0	249.15250301361084	0.09969282150268555
60	186.41546988487244	fix_pre	0		56.0	58.0	2.5	/experiments/knapen_aot/videos/S_ILSVRC2015_train_00292005.mp4	0.0	249.25219583511353	0.46665215492248535
60	186.86647510528564	response	0	2		58.0	2.5	/experiments/knapen_aot/videos/S_ILSVRC2015_train_00292005.mp4	0.0	249.70320105552673	
60	186.88212203979492	movie	1		301.0	58.0	2.5	/experiments/knapen_aot/videos/S_ILSVRC2015_train_00292005.mp4	0.0	249.718847990036	2.50833797454834
60	189.39046001434326	fix_post	2		12.0	58.0	2.5	/experiments/knapen_aot/videos/S_ILSVRC2015_train_00292005.mp4	0.0	252.22718596458435	0.09994792938232422
61	189.4904079437256	fix_pre	0		103.0	59.0	2.5	/experiments/knapen_aot/videos/R_S_ILSVRC2015_train_00373001.mp4	0.0	252.32713389396667	0.8584041595458984
61	190.34058809280396	response	0	2		59.0	2.5	/experiments/knapen_aot/videos/R_S_ILSVRC2015_train_00373001.mp4	0.0	253.17731404304504	
61	190.34881210327148	movie	1		299.0	59.0	2.5	/experiments/knapen_aot/videos/R_S_ILSVRC2015_train_00373001.mp4	0.0	253.18553805351257	2.5083699226379395
61	192.35935592651367	response	1	2		59.0	2.5	/experiments/knapen_aot/videos/R_S_ILSVRC2015_train_00373001.mp4	0.0	255.19608187675476	
61	192.85718202590942	fix_post	2		12.0	59.0	2.5	/experiments/knapen_aot/videos/R_S_ILSVRC2015_train_00373001.mp4	0.0	255.6939079761505	0.10000801086425781
62	192.95719003677368	fix_pre	0		43.0	60.0	2.5	/experiments/knapen_aot/videos/R_S_production_ID_5146014.mp4	0.0	255.79391598701477	0.35829806327819824
62	193.2996859550476	response	0	2		60.0	2.5	/experiments/knapen_aot/videos/R_S_production_ID_5146014.mp4	0.0	256.1364119052887	
62	193.31548810005188	movie	1		164.0	60.0	2.5	/experiments/knapen_aot/videos/R_S_production_ID_5146014.mp4	0.0	256.15221405029297	2.50827693939209
62	195.82376503944397	fix_post	2		12.0	60.0	2.5	/experiments/knapen_aot/videos/R_S_production_ID_5146014.mp4	0.0	258.66049098968506	0.09995794296264648
63	195.92372298240662	fix_pre	0		23.0	61.0	2.5	/experiments/knapen_aot/videos/S_ILSVRC2015_train_00274003.mp4	0.0	258.7604489326477	0.1923389434814453
63	196.10722398757935	response	0	2		61.0	2.5	/experiments/knapen_aot/videos/S_ILSVRC2015_train_00274003.mp4	0.0	258.94394993782043	
63	196.11606192588806	movie	1		301.0	61.0	2.5	/experiments/knapen_aot/videos/S_ILSVRC2015_train_00274003.mp4	0.0	258.95278787612915	2.507683038711548
63	198.6237449645996	fix_post	2		12.0	61.0	2.5	/experiments/knapen_aot/videos/S_ILSVRC2015_train_00274003.mp4	0.0	261.4604709148407	0.09998512268066406
64	198.72373008728027	fix_pre	0		129.0	62.0	2.5	/experiments/knapen_aot/videos/R_S_8lrGQK4UBj8_38.mp4	0.0	261.56045603752136	1.0749928951263428
64	199.79048490524292	response	0	2		62.0	2.5	/experiments/knapen_aot/videos/R_S_8lrGQK4UBj8_38.mp4	0.0	262.627210855484	
64	199.79872298240662	movie	1		301.0	62.0	2.5	/experiments/knapen_aot/videos/R_S_8lrGQK4UBj8_38.mp4	0.0	262.6354489326477	2.5084009170532227
64	202.30712389945984	fix_post	2		12.0	62.0	2.5	/experiments/knapen_aot/videos/R_S_8lrGQK4UBj8_38.mp4	0.0	265.1438498497009	0.09998106956481934
65	202.40710496902466	fix_pre	0		37.0	63.0	2.5	blank	1.0	265.24383091926575	0.30832409858703613
65	202.70719408988953	response	0	2		63.0	2.5	blank	1.0	265.5439200401306	
65	202.7154290676117	movie	1		301.0	63.0	2.5	blank	1.0	265.5521550178528	2.508297920227051
65	205.22372698783875	fix_post	2		12.0	63.0	2.5	blank	1.0	268.06045293807983	0.10002803802490234
66	205.32375502586365	fix_pre	0		37.0	64.0	2.5	/experiments/knapen_aot/videos/S_yt-5AI_SyK5sg8_112.mp4	0.0	268.16048097610474	0.3082308769226074
66	205.62387108802795	response	0	2		64.0	2.5	/experiments/knapen_aot/videos/S_yt-5AI_SyK5sg8_112.mp4	0.0	268.46059703826904	
66	205.63198590278625	movie	1		301.0	64.0	2.5	/experiments/knapen_aot/videos/S_yt-5AI_SyK5sg8_112.mp4	0.0	268.46871185302734	2.5084171295166016
66	208.14040303230286	fix_post	2		12.0	64.0	2.5	/experiments/knapen_aot/videos/S_yt-5AI_SyK5sg8_112.mp4	0.0	270.97712898254395	0.09993600845336914
67	208.24033904075623	fix_pre	0		122.0	65.0	2.5	/experiments/knapen_aot/videos/S_yt-s-J3C6e5A3Q_18.mp4	0.0	271.0770649909973	1.0166749954223633
67	209.2488899230957	response	0	2		65.0	2.5	/experiments/knapen_aot/videos/S_yt-s-J3C6e5A3Q_18.mp4	0.0	272.0856158733368	
67	209.2570140361786	movie	1		299.0	65.0	2.5	/experiments/knapen_aot/videos/S_yt-s-J3C6e5A3Q_18.mp4	0.0	272.0937399864197	2.508450984954834
67	211.76546502113342	fix_post	2		12.0	65.0	2.5	/experiments/knapen_aot/videos/S_yt-s-J3C6e5A3Q_18.mp4	0.0	274.6021909713745	0.09988188743591309
68	211.86534690856934	fix_pre	0		18.0	66.0	2.5	/experiments/knapen_aot/videos/S_8lrGQK4UBj8_38.mp4	0.0	274.7020728588104	0.1499931812286377
68	211.99972891807556	response	0	2		66.0	2.5	/experiments/knapen_aot/videos/S_8lrGQK4UBj8_38.mp4	0.0	274.83645486831665	
68	212.01534008979797	movie	1		301.0	66.0	2.5	/experiments/knapen_aot/videos/S_8lrGQK4UBj8_38.mp4	0.0	274.85206604003906	2.508330821990967
68	214.52367091178894	fix_post	2		12.0	66.0	2.5	/experiments/knapen_aot/videos/S_8lrGQK4UBj8_38.mp4	0.0	277.36039686203003	0.10001397132873535
69	214.62368488311768	fix_pre	0		108.0	67.0	2.5	/experiments/knapen_aot/videos/R_S_ILSVRC2015_train_00292005.mp4	0.0	277.46041083335876	0.8999180793762207
69	215.5154800415039	response	0	2		67.0	2.5	/experiments/knapen_aot/videos/R_S_ILSVRC2015_train_00292005.mp4	0.0	278.352205991745	
69	215.5236029624939	movie	1		301.0	67.0	2.5	/experiments/knapen_aot/videos/R_S_ILSVRC2015_train_00292005.mp4	0.0	278.360328912735	2.508352041244507
69	218.0319550037384	fix_post	2		12.0	67.0	2.5	/experiments/knapen_aot/videos/R_S_ILSVRC2015_train_00292005.mp4	0.0	280.8686809539795	0.10004687309265137
70	218.13200187683105	fix_pre	0		22.0	68.0	2.5	/experiments/knapen_aot/videos/S_yt-xWCPbUQc-vg_7.mp4	0.0	280.96872782707214	0.18332815170288086
70	218.3071219921112	response	0	2		68.0	2.5	/experiments/knapen_aot/videos/S_yt-xWCPbUQc-vg_7.mp4	0.0	281.1438479423523	
70	218.31533002853394	movie	1		301.0	68.0	2.5	/experiments/knapen_aot/videos/S_yt-xWCPbUQc-vg_7.mp4	0.0	281.152055978775	2.508316993713379
70	220.82364702224731	fix_post	2		12.0	68.0	2.5	/experiments/knapen_aot/videos/S_yt-xWCPbUQc-vg_7.mp4	0.0	283.6603729724884	0.10009193420410156
71	220.92373895645142	fix_pre	0		168.0	69.0	2.5	blank	1.0	283.7604649066925	1.4004480838775635
71	222.3156340122223	response	0	2		69.0	2.5	blank	1.0	285.1523599624634	
71	222.32418704032898	movie	1		301.0	69.0	2.5	blank	1.0	285.16091299057007	2.5077638626098633
71	224.83195090293884	fix_post	2		12.0	69.0	2.5	blank	1.0	287.66867685317993	0.10008907318115234
72	224.93203997612	fix_pre	0		56.0	70.0	2.5	/experiments/knapen_aot/videos/R_S_yt-qxtmtMnUfD0_124.mp4	0.0	287.7687659263611	0.4665219783782959
72	225.39042901992798	response	0	2		70.0	2.5	/experiments/knapen_aot/videos/R_S_yt-qxtmtMnUfD0_124.mp4	0.0	288.22715497016907	
72	225.3985619544983	movie	1		301.0	70.0	2.5	/experiments/knapen_aot/videos/R_S_yt-qxtmtMnUfD0_124.mp4	0.0	288.2352879047394	2.5083539485931396
72	227.90691590309143	fix_post	2		12.0	70.0	2.5	/experiments/knapen_aot/videos/R_S_yt-qxtmtMnUfD0_124.mp4	0.0	290.7436418533325	0.1000661849975586
73	228.006982088089	fix_pre	0		88.0	71.0	2.5	/experiments/knapen_aot/videos/S_yt-4x2eUikn9rw_212.mp4	0.0	290.8437080383301	0.7337818145751953
73	228.73208594322205	response	0	2		71.0	2.5	/experiments/knapen_aot/videos/S_yt-4x2eUikn9rw_212.mp4	0.0	291.56881189346313	
73	228.74076390266418	movie	1		301.0	71.0	2.5	/experiments/knapen_aot/videos/S_yt-4x2eUikn9rw_212.mp4	0.0	291.5774898529053	2.5078392028808594
73	231.24860310554504	fix_post	2		12.0	71.0	2.5	/experiments/knapen_aot/videos/S_yt-4x2eUikn9rw_212.mp4	0.0	294.08532905578613	0.10007977485656738
74	231.3486828804016	fix_pre	0		96.0	72.0	2.5	/experiments/knapen_aot/videos/S_yt-RVoC19C420Y_27.mp4	0.0	294.1854088306427	0.7999310493469238
74	232.14040398597717	response	0	2		72.0	2.5	/experiments/knapen_aot/videos/S_yt-RVoC19C420Y_27.mp4	0.0	294.97712993621826	
74	232.14861392974854	movie	1		301.0	72.0	2.5	/experiments/knapen_aot/videos/S_yt-RVoC19C420Y_27.mp4	0.0	294.9853398799896	2.508305072784424
74	234.65691900253296	fix_post	2		12.0	72.0	2.5	/experiments/knapen_aot/videos/S_yt-RVoC19C420Y_27.mp4	0.0	297.49364495277405	0.09997987747192383
75	234.75689888000488	fix_pre	0		35.0	73.0	2.5	/experiments/knapen_aot/videos/S_ILSVRC2015_train_00599000.mp4	0.0	297.593624830246	0.29169511795043945
75	235.04042601585388	response	0	2		73.0	2.5	/experiments/knapen_aot/videos/S_ILSVRC2015_train_00599000.mp4	0.0	297.87715196609497	
75	235.04859399795532	movie	1		300.0	73.0	2.5	/experiments/knapen_aot/videos/S_ILSVRC2015_train_00599000.mp4	0.0	297.8853199481964	2.508352041244507
75	237.55694603919983	fix_post	2		12.0	73.0	2.5	/experiments/knapen_aot/videos/S_ILSVRC2015_train_00599000.mp4	0.0	300.3936719894409	0.09993791580200195
76	237.65688395500183	fix_pre	0		22.0	74.0	2.5	/experiments/knapen_aot/videos/S_Pexels_Videos_2795731.mp4	0.0	300.4936099052429	0.1833350658416748
76	237.83205795288086	response	0	2		74.0	2.5	/experiments/knapen_aot/videos/S_Pexels_Videos_2795731.mp4	0.0	300.66878390312195	
76	237.8402190208435	movie	1		164.0	74.0	2.5	/experiments/knapen_aot/videos/S_Pexels_Videos_2795731.mp4	0.0	300.6769449710846	2.5082719326019287
76	240.34849095344543	fix_post	2		12.0	74.0	2.5	/experiments/knapen_aot/videos/S_Pexels_Videos_2795731.mp4	0.0	303.1852169036865	0.10007095336914062
77	240.44856190681458	fix_pre	0		110.0	75.0	2.5	blank	1.0	303.28528785705566	0.9249820709228516
77	241.36542510986328	response	0	2		75.0	2.5	blank	1.0	304.20215106010437	
77	241.37354397773743	movie	1		301.0	75.0	2.5	blank	1.0	304.2102699279785	2.508258104324341
77	243.88180208206177	fix_post	2		12.0	75.0	2.5	blank	1.0	306.71852803230286	0.10010981559753418
78	243.9819118976593	fix_pre	0		42.0	76.0	2.5	/experiments/knapen_aot/videos/S_yt-cgwHIb9LAFc_336.mp4	0.0	306.8186378479004	0.35002803802490234
78	244.3236129283905	response	0	2		76.0	2.5	/experiments/knapen_aot/videos/S_yt-cgwHIb9LAFc_336.mp4	0.0	307.1603388786316	
78	244.3319399356842	movie	1		301.0	76.0	2.5	/experiments/knapen_aot/videos/S_yt-cgwHIb9LAFc_336.mp4	0.0	307.1686658859253	2.508281946182251
78	246.84022188186646	fix_post	2		12.0	76.0	2.5	/experiments/knapen_aot/videos/S_yt-cgwHIb9LAFc_336.mp4	0.0	309.67694783210754	0.10000419616699219
79	246.94022607803345	fix_pre	0		82.0	77.0	2.5	/experiments/knapen_aot/videos/R_S_yt-N4tt7ZhANDg_21.mp4	0.0	309.77695202827454	0.6833019256591797
79	247.61532187461853	response	0	2		77.0	2.5	/experiments/knapen_aot/videos/R_S_yt-N4tt7ZhANDg_21.mp4	0.0	310.4520478248596	
79	247.62352800369263	movie	1		301.0	77.0	2.5	/experiments/knapen_aot/videos/R_S_yt-N4tt7ZhANDg_21.mp4	0.0	310.4602539539337	2.508366107940674
79	250.1318941116333	fix_post	2		12.0	77.0	2.5	/experiments/knapen_aot/videos/R_S_yt-N4tt7ZhANDg_21.mp4	0.0	312.9686200618744	0.10000991821289062
80	250.2319040298462	fix_pre	0		157.0	78.0	2.5	/experiments/knapen_aot/videos/S_ILSVRC2015_train_00165009.mp4	0.0	313.0686299800873	1.3082809448242188
80	251.53200793266296	response	0	2		78.0	2.5	/experiments/knapen_aot/videos/S_ILSVRC2015_train_00165009.mp4	0.0	314.36873388290405	
80	251.5401849746704	movie	1		301.0	78.0	2.5	/experiments/knapen_aot/videos/S_ILSVRC2015_train_00165009.mp4	0.0	314.3769109249115	2.508358955383301
80	254.0485439300537	fix_post	2		12.0	78.0	2.5	/experiments/knapen_aot/videos/S_ILSVRC2015_train_00165009.mp4	0.0	316.8852698802948	0.10001802444458008
81	254.1485619544983	fix_pre	0		98.0	79.0	2.5	/experiments/knapen_aot/videos/S_yt-XbigWWtnGL4_75.mp4	0.0	316.9852879047394	0.8166239261627197
81	254.95696091651917	response	0	2		79.0	2.5	/experiments/knapen_aot/videos/S_yt-XbigWWtnGL4_75.mp4	0.0	317.79368686676025	
81	254.965185880661	movie	1		301.0	79.0	2.5	/experiments/knapen_aot/videos/S_yt-XbigWWtnGL4_75.mp4	0.0	317.8019118309021	2.508338212966919
81	257.47352409362793	fix_post	2		12.0	79.0	2.5	/experiments/knapen_aot/videos/S_yt-XbigWWtnGL4_75.mp4	0.0	320.310250043869	0.10003399848937988
82	257.5735580921173	fix_pre	0		24.0	80.0	2.5	/experiments/knapen_aot/videos/S_yt--v_iMUMMX6g_39.mp4	0.0	320.4102840423584	0.19993185997009277
82	257.7652699947357	response	0	2		80.0	2.5	/experiments/knapen_aot/videos/S_yt--v_iMUMMX6g_39.mp4	0.0	320.6019959449768	
82	257.7734899520874	movie	1		301.0	80.0	2.5	/experiments/knapen_aot/videos/S_yt--v_iMUMMX6g_39.mp4	0.0	320.6102159023285	2.5083560943603516
82	260.28184604644775	fix_post	2		12.0	80.0	2.5	/experiments/knapen_aot/videos/S_yt--v_iMUMMX6g_39.mp4	0.0	323.11857199668884	0.10000801086425781
83	260.381854057312	fix_pre	0		74.0	81.0	2.5	/experiments/knapen_aot/videos/R_S_yt-B8Sy53C6Pxw_8.mp4	0.0	323.2185800075531	0.6165978908538818
83	260.9903268814087	response	0	2		81.0	2.5	/experiments/knapen_aot/videos/R_S_yt-B8Sy53C6Pxw_8.mp4	0.0	323.8270528316498	
83	260.9984519481659	movie	1		301.0	81.0	2.5	/experiments/knapen_aot/videos/R_S_yt-B8Sy53C6Pxw_8.mp4	0.0	323.835177898407	2.5083580017089844
83	263.5068099498749	fix_post	2		12.0	81.0	2.5	/experiments/knapen_aot/videos/R_S_yt-B8Sy53C6Pxw_8.mp4	0.0	326.34353590011597	0.09997010231018066
84	263.60678005218506	fix_pre	0		68.0	82.0	2.5	/experiments/knapen_aot/videos/R_S_ILSVRC2015_train_00165009.mp4	0.0	326.44350600242615	0.5666580200195312
84	264.16531109809875	response	0	2		82.0	2.5	/experiments/knapen_aot/videos/R_S_ILSVRC2015_train_00165009.mp4	0.0	327.00203704833984	
84	264.1734380722046	movie	1		301.0	82.0	2.5	/experiments/knapen_aot/videos/R_S_ILSVRC2015_train_00165009.mp4	0.0	327.0101640224457	2.5084288120269775
84	266.68186688423157	fix_post	2		12.0	82.0	2.5	/experiments/knapen_aot/videos/R_S_ILSVRC2015_train_00165009.mp4	0.0	329.51859283447266	0.10023617744445801
85	266.782103061676	fix_pre	0		22.0	83.0	2.5	blank	1.0	329.6188290119171	0.1830439567565918
85	266.94943404197693	response	0	2		83.0	2.5	blank	1.0	329.786159992218	
85	266.9651470184326	movie	1		301.0	83.0	2.5	blank	1.0	329.8018729686737	2.508302927017212
85	269.47344994544983	fix_post	2		12.0	83.0	2.5	blank	1.0	332.3101758956909	0.10036706924438477
87	269.5738170146942	stim	0		212.0					332.4105429649353	1.7708070278167725
87	271.33544301986694	response	0	space						334.17216897010803	
