trial_nr	onset	event_type	phase	response	nr_frames	movie_index	movie_duration	movie_file	blank	onset_abs	duration
0	0.13557982444763184	stim	0		120.0					95.39348888397217	0.9998321533203125
0	1.125119924545288	response	0	space						96.38302898406982	
1	1.1354119777679443	stim	0		121.0					96.39332103729248	1.0058119297027588
1	2.141223907470703	stim	1		119.0					97.39913296699524	0.9999840259552002
2	3.1412079334259033	fix_pre	0		143.0	0.0	2.5	/experiments/knapen_aot/videos/S_yt-Ub5Xx5BqIOk_74.mp4	0.0	98.39911699295044	1.1916940212249756
2	4.317181825637817	response	0	space		0.0	2.5	/experiments/knapen_aot/videos/S_yt-Ub5Xx5BqIOk_74.mp4	0.0	99.57509088516235	
2	4.332901954650879	movie	1		301.0	0.0	2.5	/experiments/knapen_aot/videos/S_yt-Ub5Xx5BqIOk_74.mp4	0.0	99.59081101417542	2.508265972137451
2	6.84116792678833	fix_post	2		12.0	0.0	2.5	/experiments/knapen_aot/videos/S_yt-Ub5Xx5BqIOk_74.mp4	0.0	102.09907698631287	0.10010290145874023
3	6.94127082824707	fix_pre	0		50.0	1.0	2.5	/experiments/knapen_aot/videos/R_S_yt-mmvWYAttrIw_2.mp4	0.0	102.1991798877716	0.4166569709777832
3	7.352324962615967	response	0	2		1.0	2.5	/experiments/knapen_aot/videos/R_S_yt-mmvWYAttrIw_2.mp4	0.0	102.6102340221405	
3	7.3579277992248535	movie	1		294.0	1.0	2.5	/experiments/knapen_aot/videos/R_S_yt-mmvWYAttrIw_2.mp4	0.0	102.61583685874939	2.5083210468292236
3	9.866248846054077	fix_post	2		12.0	1.0	2.5	/experiments/knapen_aot/videos/R_S_yt-mmvWYAttrIw_2.mp4	0.0	105.12415790557861	0.09997010231018066
4	9.966218948364258	fix_pre	0		25.0	2.0	2.5	/experiments/knapen_aot/videos/S_yt-Ilr77XzakaY_95.mp4	0.0	105.2241280078888	0.20834088325500488
4	10.158949851989746	response	0	2		2.0	2.5	/experiments/knapen_aot/videos/S_yt-Ilr77XzakaY_95.mp4	0.0	105.41685891151428	
4	10.174559831619263	movie	1		301.0	2.0	2.5	/experiments/knapen_aot/videos/S_yt-Ilr77XzakaY_95.mp4	0.0	105.4324688911438	2.5082831382751465
4	12.68284296989441	fix_post	2		12.0	2.0	2.5	/experiments/knapen_aot/videos/S_yt-Ilr77XzakaY_95.mp4	0.0	107.94075202941895	0.10005784034729004
5	12.7829008102417	fix_pre	0		22.0	3.0	2.5	/experiments/knapen_aot/videos/R_S_yt-N7ztk2fa3Ls_137.mp4	0.0	108.04080986976624	0.18327713012695312
5	12.957984924316406	response	0	2		3.0	2.5	/experiments/knapen_aot/videos/R_S_yt-N7ztk2fa3Ls_137.mp4	0.0	108.21589398384094	
5	12.966177940368652	movie	1		301.0	3.0	2.5	/experiments/knapen_aot/videos/R_S_yt-N7ztk2fa3Ls_137.mp4	0.0	108.22408699989319	2.5083529949188232
5	15.474530935287476	fix_post	2		12.0	3.0	2.5	/experiments/knapen_aot/videos/R_S_yt-N7ztk2fa3Ls_137.mp4	0.0	110.73243999481201	0.09999394416809082
6	15.574524879455566	fix_pre	0		10.0	4.0	2.5	/experiments/knapen_aot/videos/R_S_yt-xNKgc8sFYvU_35.mp4	0.0	110.8324339389801	0.0833590030670166
6	15.649544954299927	response	0	2		4.0	2.5	/experiments/knapen_aot/videos/R_S_yt-xNKgc8sFYvU_35.mp4	0.0	110.90745401382446	
6	15.657883882522583	movie	1		300.0	4.0	2.5	/experiments/knapen_aot/videos/R_S_yt-xNKgc8sFYvU_35.mp4	0.0	110.91579294204712	2.5082781314849854
6	18.16616201400757	fix_post	2		12.0	4.0	2.5	/experiments/knapen_aot/videos/R_S_yt-xNKgc8sFYvU_35.mp4	0.0	113.4240710735321	0.10080790519714355
7	18.266969919204712	fix_pre	0		14.0	5.0	2.5	blank	1.0	113.52487897872925	0.11594009399414062
7	18.367127895355225	response	0	2		5.0	2.5	blank	1.0	113.62503695487976	
7	18.382910013198853	movie	1		301.0	5.0	2.5	blank	1.0	113.64081907272339	2.508265972137451
7	20.891175985336304	fix_post	2		12.0	5.0	2.5	blank	1.0	116.14908504486084	0.10000300407409668
8	20.9911789894104	fix_pre	0		71.0	6.0	2.5	/experiments/knapen_aot/videos/S_yt-yQrDeFlFmfM_138.mp4	0.0	116.24908804893494	0.5916018486022949
8	21.57486391067505	response	0	2		6.0	2.5	/experiments/knapen_aot/videos/S_yt-yQrDeFlFmfM_138.mp4	0.0	116.83277297019958	
8	21.582780838012695	movie	1		301.0	6.0	2.5	/experiments/knapen_aot/videos/S_yt-yQrDeFlFmfM_138.mp4	0.0	116.84068989753723	2.5084121227264404
8	24.091192960739136	fix_post	2		12.0	6.0	2.5	/experiments/knapen_aot/videos/S_yt-yQrDeFlFmfM_138.mp4	0.0	119.34910202026367	0.0999460220336914
9	24.191138982772827	fix_pre	0		22.0	7.0	2.5	/experiments/knapen_aot/videos/R_S_yt-3JApfnMu5cU_378.mp4	0.0	119.44904804229736	0.18333983421325684
9	24.366220951080322	response	0	2		7.0	2.5	/experiments/knapen_aot/videos/R_S_yt-3JApfnMu5cU_378.mp4	0.0	119.62413001060486	
9	24.374478816986084	movie	1		301.0	7.0	2.5	/experiments/knapen_aot/videos/R_S_yt-3JApfnMu5cU_378.mp4	0.0	119.63238787651062	2.5083911418914795
9	26.882869958877563	fix_post	2		12.0	7.0	2.5	/experiments/knapen_aot/videos/R_S_yt-3JApfnMu5cU_378.mp4	0.0	122.1407790184021	0.09993290901184082
10	26.982802867889404	fix_pre	0		81.0	8.0	2.5	/experiments/knapen_aot/videos/S_production_ID_5144824.mp4	0.0	122.24071192741394	0.6748931407928467
10	27.64963984489441	response	0	2		8.0	2.5	/experiments/knapen_aot/videos/S_production_ID_5144824.mp4	0.0	122.90754890441895	
10	27.65769600868225	movie	1		161.0	8.0	2.5	/experiments/knapen_aot/videos/S_production_ID_5144824.mp4	0.0	122.91560506820679	2.5084288120269775
10	30.16612482070923	fix_post	2		12.0	8.0	2.5	/experiments/knapen_aot/videos/S_production_ID_5144824.mp4	0.0	125.42403388023376	0.10003209114074707
11	30.266156911849976	fix_pre	0		23.0	9.0	2.5	/experiments/knapen_aot/videos/S_yt-_WFwhcmbXXY_51.mp4	0.0	125.52406597137451	0.1916179656982422
11	30.44210386276245	response	0	2		9.0	2.5	/experiments/knapen_aot/videos/S_yt-_WFwhcmbXXY_51.mp4	0.0	125.70001292228699	
11	30.457774877548218	movie	1		301.0	9.0	2.5	/experiments/knapen_aot/videos/S_yt-_WFwhcmbXXY_51.mp4	0.0	125.71568393707275	2.5083930492401123
11	32.96616792678833	fix_post	2		12.0	9.0	2.5	/experiments/knapen_aot/videos/S_yt-_WFwhcmbXXY_51.mp4	0.0	128.22407698631287	0.10003900527954102
11	32.967827796936035	response	2	2		9.0	2.5	/experiments/knapen_aot/videos/S_yt-_WFwhcmbXXY_51.mp4	0.0	128.22573685646057	
12	33.06620693206787	fix_pre	0		49.0	10.0	2.5	/experiments/knapen_aot/videos/R_S_comp_LW_L001_C006_PSNK_DENOISE_v02_SDR_PS_FINAL_20180709_SDR_2K_AVC.mp4	0.0	128.3241159915924	0.4089338779449463
12	33.46629786491394	response	0	2		10.0	2.5	/experiments/knapen_aot/videos/R_S_comp_LW_L001_C006_PSNK_DENOISE_v02_SDR_PS_FINAL_20180709_SDR_2K_AVC.mp4	0.0	128.72420692443848	
12	33.47514081001282	movie	1		167.0	10.0	2.5	/experiments/knapen_aot/videos/R_S_comp_LW_L001_C006_PSNK_DENOISE_v02_SDR_PS_FINAL_20180709_SDR_2K_AVC.mp4	0.0	128.73304986953735	2.5075931549072266
12	35.982733964920044	fix_post	2		12.0	10.0	2.5	/experiments/knapen_aot/videos/R_S_comp_LW_L001_C006_PSNK_DENOISE_v02_SDR_PS_FINAL_20180709_SDR_2K_AVC.mp4	0.0	131.24064302444458	0.10007500648498535
13	36.08280897140503	fix_pre	0		21.0	11.0	2.5	/experiments/knapen_aot/videos/S_yt-SyePE8wOlxs_321.mp4	0.0	131.34071803092957	0.17489981651306152
13	36.24200797080994	response	0	2		11.0	2.5	/experiments/knapen_aot/videos/S_yt-SyePE8wOlxs_321.mp4	0.0	131.49991703033447	
13	36.25770878791809	movie	1		301.0	11.0	2.5	/experiments/knapen_aot/videos/S_yt-SyePE8wOlxs_321.mp4	0.0	131.51561784744263	2.508315086364746
13	38.76602387428284	fix_post	2		12.0	11.0	2.5	/experiments/knapen_aot/videos/S_yt-SyePE8wOlxs_321.mp4	0.0	134.02393293380737	0.10009908676147461
14	38.86612296104431	fix_pre	0		25.0	12.0	2.5	blank	1.0	134.12403202056885	0.20829987525939941
14	39.06623888015747	response	0	2		12.0	2.5	blank	1.0	134.324147939682	
14	39.07442283630371	movie	1		301.0	12.0	2.5	blank	1.0	134.33233189582825	2.5083911418914795
14	41.58281397819519	fix_post	2		12.0	12.0	2.5	blank	1.0	136.84072303771973	0.09994196891784668
15	41.68275594711304	fix_pre	0		28.0	13.0	2.5	/experiments/knapen_aot/videos/R_S_wc-q23aBNJMZbnZ_27.mp4	0.0	136.94066500663757	0.23334193229675293
15	41.90793800354004	response	0	2		13.0	2.5	/experiments/knapen_aot/videos/R_S_wc-q23aBNJMZbnZ_27.mp4	0.0	137.16584706306458	
15	41.91609787940979	movie	1		162.0	13.0	2.5	/experiments/knapen_aot/videos/R_S_wc-q23aBNJMZbnZ_27.mp4	0.0	137.17400693893433	2.508328914642334
15	44.424426794052124	fix_post	2		12.0	13.0	2.5	/experiments/knapen_aot/videos/R_S_wc-q23aBNJMZbnZ_27.mp4	0.0	139.68233585357666	0.1000211238861084
16	44.52444791793823	fix_pre	0		13.0	14.0	2.5	/experiments/knapen_aot/videos/R_S_yt-OrTpetjDNKs_31.mp4	0.0	139.78235697746277	0.10828995704650879
16	44.62453293800354	response	0	2		14.0	2.5	/experiments/knapen_aot/videos/R_S_yt-OrTpetjDNKs_31.mp4	0.0	139.88244199752808	
16	44.63273787498474	movie	1		301.0	14.0	2.5	/experiments/knapen_aot/videos/R_S_yt-OrTpetjDNKs_31.mp4	0.0	139.89064693450928	2.508270025253296
16	47.14100790023804	fix_post	2		12.0	14.0	2.5	/experiments/knapen_aot/videos/R_S_yt-OrTpetjDNKs_31.mp4	0.0	142.39891695976257	0.1000978946685791
17	47.241105794906616	fix_pre	0		38.0	15.0	2.5	/experiments/knapen_aot/videos/R_S_b5-3.mp4	0.0	142.49901485443115	0.3172271251678467
17	47.54955697059631	response	0	2		15.0	2.5	/experiments/knapen_aot/videos/R_S_b5-3.mp4	0.0	142.80746603012085	
17	47.55833292007446	movie	1		165.0	15.0	2.5	/experiments/knapen_aot/videos/R_S_b5-3.mp4	0.0	142.816241979599	2.5077340602874756
17	50.06606698036194	fix_post	2		12.0	15.0	2.5	/experiments/knapen_aot/videos/R_S_b5-3.mp4	0.0	145.32397603988647	0.09991288185119629
18	50.165979862213135	fix_pre	0		35.0	16.0	2.5	/experiments/knapen_aot/videos/R_S_comp_A114_C001_0305OT_v10_SDR_FINAL_22062018_SDR_2K_AVC.mp4	0.0	145.42388892173767	0.29166603088378906
18	50.44957184791565	response	0	2		16.0	2.5	/experiments/knapen_aot/videos/R_S_comp_A114_C001_0305OT_v10_SDR_FINAL_22062018_SDR_2K_AVC.mp4	0.0	145.70748090744019	
18	50.457645893096924	movie	1		177.0	16.0	2.5	/experiments/knapen_aot/videos/R_S_comp_A114_C001_0305OT_v10_SDR_FINAL_22062018_SDR_2K_AVC.mp4	0.0	145.71555495262146	2.508430004119873
18	52.9660758972168	fix_post	2		12.0	16.0	2.5	/experiments/knapen_aot/videos/R_S_comp_A114_C001_0305OT_v10_SDR_FINAL_22062018_SDR_2K_AVC.mp4	0.0	148.22398495674133	0.099945068359375
19	53.06602096557617	fix_pre	0		1.0	17.0	2.5	/experiments/knapen_aot/videos/R_S_SE_A016_C009_SDR_20190717_SDR_2K_AVC.mp4	0.0	148.3239300251007	0.008383989334106445
19	53.06768083572388	response	0	2		17.0	2.5	/experiments/knapen_aot/videos/R_S_SE_A016_C009_SDR_20190717_SDR_2K_AVC.mp4	0.0	148.3255898952484	
19	53.07440495491028	movie	1		172.0	17.0	2.5	/experiments/knapen_aot/videos/R_S_SE_A016_C009_SDR_20190717_SDR_2K_AVC.mp4	0.0	148.33231401443481	2.508347988128662
19	55.58275294303894	fix_post	2		12.0	17.0	2.5	/experiments/knapen_aot/videos/R_S_SE_A016_C009_SDR_20190717_SDR_2K_AVC.mp4	0.0	150.84066200256348	0.09999704360961914
20	55.68274998664856	fix_pre	0		7.0	18.0	2.5	/experiments/knapen_aot/videos/R_S_pexels-anastasia-shuraeva-6014070.mp4	0.0	150.9406590461731	0.05842280387878418
20	55.73299288749695	response	0	2		18.0	2.5	/experiments/knapen_aot/videos/R_S_pexels-anastasia-shuraeva-6014070.mp4	0.0	150.99090194702148	
20	55.741172790527344	movie	1		203.0	18.0	2.5	/experiments/knapen_aot/videos/R_S_pexels-anastasia-shuraeva-6014070.mp4	0.0	150.99908185005188	2.50816011428833
20	58.249332904815674	fix_post	2		12.0	18.0	2.5	/experiments/knapen_aot/videos/R_S_pexels-anastasia-shuraeva-6014070.mp4	0.0	153.5072419643402	0.10002994537353516
21	58.34936285018921	fix_pre	0		5.0	19.0	2.5	/experiments/knapen_aot/videos/S_comp_L007_C007_PS_v01_SDR_PS_20180925_SDR_2K_AVC.mp4	0.0	153.60727190971375	0.04235410690307617
21	58.382800817489624	response	0	2		19.0	2.5	/experiments/knapen_aot/videos/S_comp_L007_C007_PS_v01_SDR_PS_20180925_SDR_2K_AVC.mp4	0.0	153.64070987701416	
21	58.391716957092285	movie	1		169.0	19.0	2.5	/experiments/knapen_aot/videos/S_comp_L007_C007_PS_v01_SDR_PS_20180925_SDR_2K_AVC.mp4	0.0	153.64962601661682	2.507652997970581
21	60.899369955062866	fix_post	2		12.0	19.0	2.5	/experiments/knapen_aot/videos/S_comp_L007_C007_PS_v01_SDR_PS_20180925_SDR_2K_AVC.mp4	0.0	156.1572790145874	0.10003900527954102
22	60.99940896034241	fix_pre	0		23.0	20.0	2.5	/experiments/knapen_aot/videos/S_pexels-roman-odintsov-8231493.mp4	0.0	156.25731801986694	0.19163084030151367
22	61.182825803756714	response	0	2		20.0	2.5	/experiments/knapen_aot/videos/S_pexels-roman-odintsov-8231493.mp4	0.0	156.44073486328125	
22	61.19103980064392	movie	1		186.0	20.0	2.5	/experiments/knapen_aot/videos/S_pexels-roman-odintsov-8231493.mp4	0.0	156.44894886016846	2.5083301067352295
22	63.69936990737915	fix_post	2		12.0	20.0	2.5	/experiments/knapen_aot/videos/S_pexels-roman-odintsov-8231493.mp4	0.0	158.9572789669037	0.09995698928833008
23	63.79932689666748	fix_pre	0		21.0	21.0	2.5	blank	1.0	159.05723595619202	0.17554306983947754
23	63.966131925582886	response	0	2		21.0	2.5	blank	1.0	159.22404098510742	
23	63.97486996650696	movie	1		301.0	21.0	2.5	blank	1.0	159.2327790260315	2.507746934890747
23	66.4826169013977	fix_post	2		12.0	21.0	2.5	blank	1.0	161.74052596092224	0.1000370979309082
24	66.58265399932861	fix_pre	0		34.0	22.0	2.5	/experiments/knapen_aot/videos/R_S_yt-mWlx1SIXl5M_850.mp4	0.0	161.84056305885315	0.2833077907562256
24	66.85779881477356	response	0	2		22.0	2.5	/experiments/knapen_aot/videos/R_S_yt-mWlx1SIXl5M_850.mp4	0.0	162.1157078742981	
24	66.86596179008484	movie	1		301.0	22.0	2.5	/experiments/knapen_aot/videos/R_S_yt-mWlx1SIXl5M_850.mp4	0.0	162.12387084960938	2.5082831382751465
24	69.37424492835999	fix_post	2		12.0	22.0	2.5	/experiments/knapen_aot/videos/R_S_yt-mWlx1SIXl5M_850.mp4	0.0	164.63215398788452	0.10004806518554688
25	69.47429299354553	fix_pre	0		23.0	23.0	2.5	/experiments/knapen_aot/videos/S_production_ID_5144823.mp4	0.0	164.73220205307007	0.19174480438232422
25	69.65780091285706	response	0	2		23.0	2.5	/experiments/knapen_aot/videos/S_production_ID_5144823.mp4	0.0	164.9157099723816	
25	69.66603779792786	movie	1		167.0	23.0	2.5	/experiments/knapen_aot/videos/S_production_ID_5144823.mp4	0.0	164.9239468574524	2.508350133895874
25	72.17438793182373	fix_post	2		12.0	23.0	2.5	/experiments/knapen_aot/videos/S_production_ID_5144823.mp4	0.0	167.43229699134827	0.09992694854736328
26	72.2743148803711	fix_pre	0		24.0	24.0	2.5	/experiments/knapen_aot/videos/S_ILSVRC2015_train_00743002.mp4	0.0	167.53222393989563	0.2084050178527832
26	72.47444081306458	response	0	2		24.0	2.5	/experiments/knapen_aot/videos/S_ILSVRC2015_train_00743002.mp4	0.0	167.7323498725891	
26	72.48271989822388	movie	1		301.0	24.0	2.5	/experiments/knapen_aot/videos/S_ILSVRC2015_train_00743002.mp4	0.0	167.7406289577484	2.5082828998565674
26	74.99100279808044	fix_post	2		12.0	24.0	2.5	/experiments/knapen_aot/videos/S_ILSVRC2015_train_00743002.mp4	0.0	170.24891185760498	0.09999203681945801
27	75.0909948348999	fix_pre	0		28.0	25.0	2.5	/experiments/knapen_aot/videos/R_S_yt-2l6VKd94eAI_151.mp4	0.0	170.34890389442444	0.24169611930847168
27	75.31615495681763	response	0	2		25.0	2.5	/experiments/knapen_aot/videos/R_S_yt-2l6VKd94eAI_151.mp4	0.0	170.57406401634216	
27	75.33269095420837	movie	1		300.0	25.0	2.5	/experiments/knapen_aot/videos/R_S_yt-2l6VKd94eAI_151.mp4	0.0	170.5906000137329	2.5000529289245605
27	77.83274388313293	fix_post	2		12.0	25.0	2.5	/experiments/knapen_aot/videos/R_S_yt-2l6VKd94eAI_151.mp4	0.0	173.09065294265747	0.1003561019897461
28	77.93309998512268	fix_pre	0		11.0	26.0	2.5	blank	1.0	173.19100904464722	0.0912330150604248
28	78.01615190505981	response	0	2		26.0	2.5	blank	1.0	173.27406096458435	
28	78.0243330001831	movie	1		301.0	26.0	2.5	blank	1.0	173.28224205970764	2.508347988128662
28	80.53268098831177	fix_post	2		12.0	26.0	2.5	blank	1.0	175.7905900478363	0.09998488426208496
29	80.63266587257385	fix_pre	0		39.0	27.0	2.5	/experiments/knapen_aot/videos/S_ILSVRC2015_train_00371010.mp4	0.0	175.8905749320984	0.3249781131744385
29	80.94937491416931	response	0	2		27.0	2.5	/experiments/knapen_aot/videos/S_ILSVRC2015_train_00371010.mp4	0.0	176.20728397369385	
29	80.95764398574829	movie	1		301.0	27.0	2.5	/experiments/knapen_aot/videos/S_ILSVRC2015_train_00371010.mp4	0.0	176.21555304527283	2.5083370208740234
29	82.14473080635071	response	1	4		27.0	2.5	/experiments/knapen_aot/videos/S_ILSVRC2015_train_00371010.mp4	0.0	177.40263986587524	
29	83.46598100662231	fix_post	2		12.0	27.0	2.5	/experiments/knapen_aot/videos/S_ILSVRC2015_train_00371010.mp4	0.0	178.72389006614685	0.09998893737792969
30	83.56596994400024	fix_pre	0		43.0	28.0	2.5	/experiments/knapen_aot/videos/R_S_ILSVRC2015_train_00610000.mp4	0.0	178.82387900352478	0.35829997062683105
30	83.91612482070923	response	0	4		28.0	2.5	/experiments/knapen_aot/videos/R_S_ILSVRC2015_train_00610000.mp4	0.0	179.17403388023376	
30	83.92426991462708	movie	1		301.0	28.0	2.5	/experiments/knapen_aot/videos/R_S_ILSVRC2015_train_00610000.mp4	0.0	179.1821789741516	2.508362054824829
30	86.4326319694519	fix_post	2		12.0	28.0	2.5	/experiments/knapen_aot/videos/R_S_ILSVRC2015_train_00610000.mp4	0.0	181.69054102897644	0.10000896453857422
31	86.53264093399048	fix_pre	0		6.0	29.0	2.5	/experiments/knapen_aot/videos/R_S_production_ID_4101242.mp4	0.0	181.79054999351501	0.04999804496765137
31	86.57458782196045	response	0	2		29.0	2.5	/experiments/knapen_aot/videos/R_S_production_ID_4101242.mp4	0.0	181.83249688148499	
31	86.58263897895813	movie	1		194.0	29.0	2.5	/experiments/knapen_aot/videos/R_S_production_ID_4101242.mp4	0.0	181.84054803848267	2.5083138942718506
31	89.09095287322998	fix_post	2		12.0	29.0	2.5	/experiments/knapen_aot/videos/R_S_production_ID_4101242.mp4	0.0	184.34886193275452	0.10000109672546387
32	89.19095396995544	fix_pre	0		5.0	30.0	2.5	/experiments/knapen_aot/videos/S_yt-146gReE6xKw_379.mp4	0.0	184.44886302947998	0.04164290428161621
32	89.22503089904785	response	0	4		30.0	2.5	/experiments/knapen_aot/videos/S_yt-146gReE6xKw_379.mp4	0.0	184.4829399585724	
32	89.23259687423706	movie	1		301.0	30.0	2.5	/experiments/knapen_aot/videos/S_yt-146gReE6xKw_379.mp4	0.0	184.4905059337616	2.508204936981201
32	91.74080181121826	fix_post	2		12.0	30.0	2.5	/experiments/knapen_aot/videos/S_yt-146gReE6xKw_379.mp4	0.0	186.9987108707428	0.10013413429260254
33	91.84093594551086	fix_pre	0		25.0	31.0	2.5	/experiments/knapen_aot/videos/S_ga8dBJH_qK8_765.mp4	0.0	187.0988450050354	0.208298921585083
33	92.04097890853882	response	0	2		31.0	2.5	/experiments/knapen_aot/videos/S_ga8dBJH_qK8_765.mp4	0.0	187.29888796806335	
33	92.04923486709595	movie	1		301.0	31.0	2.5	/experiments/knapen_aot/videos/S_ga8dBJH_qK8_765.mp4	0.0	187.30714392662048	2.508352041244507
33	94.55758690834045	fix_post	2		12.0	31.0	2.5	/experiments/knapen_aot/videos/S_ga8dBJH_qK8_765.mp4	0.0	189.815495967865	0.09997797012329102
34	94.65756487846375	fix_pre	0		26.0	32.0	2.5	/experiments/knapen_aot/videos/R_S_pexels-cottonbro-6844209.mp4	0.0	189.91547393798828	0.21660995483398438
34	94.8660089969635	response	0	2		32.0	2.5	/experiments/knapen_aot/videos/R_S_pexels-cottonbro-6844209.mp4	0.0	190.12391805648804	
34	94.87417483329773	movie	1		200.0	32.0	2.5	/experiments/knapen_aot/videos/R_S_pexels-cottonbro-6844209.mp4	0.0	190.13208389282227	2.5083119869232178
34	97.38248682022095	fix_post	2		12.0	32.0	2.5	/experiments/knapen_aot/videos/R_S_pexels-cottonbro-6844209.mp4	0.0	192.64039587974548	0.1000361442565918
35	97.48252296447754	fix_pre	0		59.0	33.0	2.5	blank	1.0	192.74043202400208	0.4920330047607422
35	97.96600794792175	response	0	2		33.0	2.5	blank	1.0	193.2239170074463	
35	97.97455596923828	movie	1		301.0	33.0	2.5	blank	1.0	193.23246502876282	2.507936954498291
35	100.48249292373657	fix_post	2		12.0	33.0	2.5	blank	1.0	195.7404019832611	0.10004305839538574
36	100.58253598213196	fix_pre	0		58.0	34.0	2.5	/experiments/knapen_aot/videos/S_ILSVRC2015_train_00610000.mp4	0.0	195.8404450416565	0.4832420349121094
36	101.05767393112183	response	0	2		34.0	2.5	/experiments/knapen_aot/videos/S_ILSVRC2015_train_00610000.mp4	0.0	196.31558299064636	
36	101.06577801704407	movie	1		301.0	34.0	2.5	/experiments/knapen_aot/videos/S_ILSVRC2015_train_00610000.mp4	0.0	196.3236870765686	2.5084049701690674
36	103.57418298721313	fix_post	2		12.0	34.0	2.5	/experiments/knapen_aot/videos/S_ILSVRC2015_train_00610000.mp4	0.0	198.83209204673767	0.09996891021728516
37	103.67415189743042	fix_pre	0		124.0	35.0	2.5	/experiments/knapen_aot/videos/R_S_yt-tX3slAQb9yY_13.mp4	0.0	198.93206095695496	1.0333271026611328
37	104.69925785064697	response	0	4		35.0	2.5	/experiments/knapen_aot/videos/R_S_yt-tX3slAQb9yY_13.mp4	0.0	199.9571669101715	
37	104.70747900009155	movie	1		298.0	35.0	2.5	/experiments/knapen_aot/videos/R_S_yt-tX3slAQb9yY_13.mp4	0.0	199.9653880596161	2.508387804031372
37	107.21586680412292	fix_post	2		12.0	35.0	2.5	/experiments/knapen_aot/videos/R_S_yt-tX3slAQb9yY_13.mp4	0.0	202.47377586364746	0.0999760627746582
37	107.30778288841248	response	2	2		35.0	2.5	/experiments/knapen_aot/videos/R_S_yt-tX3slAQb9yY_13.mp4	0.0	202.565691947937	
38	107.31584286689758	fix_pre	0		55.0	36.0	2.5	/experiments/knapen_aot/videos/R_S_production_ID_5139371.mp4	0.0	202.57375192642212	0.45830607414245605
38	107.76611399650574	response	0	2		36.0	2.5	/experiments/knapen_aot/videos/R_S_production_ID_5139371.mp4	0.0	203.02402305603027	
38	107.77414894104004	movie	1		163.0	36.0	2.5	/experiments/knapen_aot/videos/R_S_production_ID_5139371.mp4	0.0	203.03205800056458	2.508333921432495
38	110.28248286247253	fix_post	2		12.0	36.0	2.5	/experiments/knapen_aot/videos/R_S_production_ID_5139371.mp4	0.0	205.54039192199707	0.10006093978881836
39	110.38254380226135	fix_pre	0		32.0	37.0	2.5	/experiments/knapen_aot/videos/R_S_yt-FhnT_42bV7M_11.mp4	0.0	205.6404528617859	0.2666041851043701
39	110.641037940979	response	0	2		37.0	2.5	/experiments/knapen_aot/videos/R_S_yt-FhnT_42bV7M_11.mp4	0.0	205.89894700050354	
39	110.64914798736572	movie	1		301.0	37.0	2.5	/experiments/knapen_aot/videos/R_S_yt-FhnT_42bV7M_11.mp4	0.0	205.90705704689026	2.508373975753784
39	113.1575219631195	fix_post	2		12.0	37.0	2.5	/experiments/knapen_aot/videos/R_S_yt-FhnT_42bV7M_11.mp4	0.0	208.41543102264404	0.09999704360961914
40	113.25751900672913	fix_pre	0		35.0	38.0	2.5	/experiments/knapen_aot/videos/R_S_ga8dBJH_qK8_765.mp4	0.0	208.51542806625366	0.2916538715362549
40	113.5410099029541	response	0	2		38.0	2.5	/experiments/knapen_aot/videos/R_S_ga8dBJH_qK8_765.mp4	0.0	208.79891896247864	
40	113.54917287826538	movie	1		300.0	38.0	2.5	/experiments/knapen_aot/videos/R_S_ga8dBJH_qK8_765.mp4	0.0	208.80708193778992	2.5085790157318115
40	116.05775189399719	fix_post	2		12.0	38.0	2.5	/experiments/knapen_aot/videos/R_S_ga8dBJH_qK8_765.mp4	0.0	211.31566095352173	0.09976506233215332
41	116.15751695632935	fix_pre	0		35.0	39.0	2.5	/experiments/knapen_aot/videos/S_yt--UhwpukdyBg_51.mp4	0.0	211.41542601585388	0.2916710376739502
41	116.44098281860352	response	0	4		39.0	2.5	/experiments/knapen_aot/videos/S_yt--UhwpukdyBg_51.mp4	0.0	211.69889187812805	
41	116.4491879940033	movie	1		301.0	39.0	2.5	/experiments/knapen_aot/videos/S_yt--UhwpukdyBg_51.mp4	0.0	211.70709705352783	2.508323907852173
41	118.95751190185547	fix_post	2		12.0	39.0	2.5	/experiments/knapen_aot/videos/S_yt--UhwpukdyBg_51.mp4	0.0	214.21542096138	0.1002199649810791
42	119.05773186683655	fix_pre	0		15.0	40.0	2.5	/experiments/knapen_aot/videos/R_S_comp_LW_L001_C006_PSNK_DENOISE_v02_SDR_PS_FINAL_20180709_SDR_2K_AVC.mp4	0.0	214.31564092636108	0.1249089241027832
42	119.17428278923035	response	0	2		40.0	2.5	/experiments/knapen_aot/videos/R_S_comp_LW_L001_C006_PSNK_DENOISE_v02_SDR_PS_FINAL_20180709_SDR_2K_AVC.mp4	0.0	214.43219184875488	
42	119.18264079093933	movie	1		166.0	40.0	2.5	/experiments/knapen_aot/videos/R_S_comp_LW_L001_C006_PSNK_DENOISE_v02_SDR_PS_FINAL_20180709_SDR_2K_AVC.mp4	0.0	214.44054985046387	2.5082550048828125
42	119.30654191970825	response	1	2		40.0	2.5	/experiments/knapen_aot/videos/R_S_comp_LW_L001_C006_PSNK_DENOISE_v02_SDR_PS_FINAL_20180709_SDR_2K_AVC.mp4	0.0	214.5644509792328	
42	119.4233968257904	response	1	2		40.0	2.5	/experiments/knapen_aot/videos/R_S_comp_LW_L001_C006_PSNK_DENOISE_v02_SDR_PS_FINAL_20180709_SDR_2K_AVC.mp4	0.0	214.68130588531494	
42	119.63263392448425	response	1	2		40.0	2.5	/experiments/knapen_aot/videos/R_S_comp_LW_L001_C006_PSNK_DENOISE_v02_SDR_PS_FINAL_20180709_SDR_2K_AVC.mp4	0.0	214.8905429840088	
42	119.73979187011719	response	1	2		40.0	2.5	/experiments/knapen_aot/videos/R_S_comp_LW_L001_C006_PSNK_DENOISE_v02_SDR_PS_FINAL_20180709_SDR_2K_AVC.mp4	0.0	214.99770092964172	
42	119.82375884056091	response	1	2		40.0	2.5	/experiments/knapen_aot/videos/R_S_comp_LW_L001_C006_PSNK_DENOISE_v02_SDR_PS_FINAL_20180709_SDR_2K_AVC.mp4	0.0	215.08166790008545	
42	119.96597290039062	response	1	2		40.0	2.5	/experiments/knapen_aot/videos/R_S_comp_LW_L001_C006_PSNK_DENOISE_v02_SDR_PS_FINAL_20180709_SDR_2K_AVC.mp4	0.0	215.22388195991516	
42	120.03264498710632	response	1	2		40.0	2.5	/experiments/knapen_aot/videos/R_S_comp_LW_L001_C006_PSNK_DENOISE_v02_SDR_PS_FINAL_20180709_SDR_2K_AVC.mp4	0.0	215.29055404663086	
42	120.15685701370239	response	1	2		40.0	2.5	/experiments/knapen_aot/videos/R_S_comp_LW_L001_C006_PSNK_DENOISE_v02_SDR_PS_FINAL_20180709_SDR_2K_AVC.mp4	0.0	215.41476607322693	
42	120.25647783279419	response	1	2		40.0	2.5	/experiments/knapen_aot/videos/R_S_comp_LW_L001_C006_PSNK_DENOISE_v02_SDR_PS_FINAL_20180709_SDR_2K_AVC.mp4	0.0	215.51438689231873	
42	121.32291984558105	response	1	2		40.0	2.5	/experiments/knapen_aot/videos/R_S_comp_LW_L001_C006_PSNK_DENOISE_v02_SDR_PS_FINAL_20180709_SDR_2K_AVC.mp4	0.0	216.5808289051056	
42	121.67422699928284	response	1	2		40.0	2.5	/experiments/knapen_aot/videos/R_S_comp_LW_L001_C006_PSNK_DENOISE_v02_SDR_PS_FINAL_20180709_SDR_2K_AVC.mp4	0.0	216.93213605880737	
42	121.69089579582214	fix_post	2		12.0	40.0	2.5	/experiments/knapen_aot/videos/R_S_comp_LW_L001_C006_PSNK_DENOISE_v02_SDR_PS_FINAL_20180709_SDR_2K_AVC.mp4	0.0	216.94880485534668	0.09993910789489746
43	121.79083490371704	fix_pre	0		55.0	41.0	2.5	/experiments/knapen_aot/videos/R_S_ILSVRC2015_train_00697001.mp4	0.0	217.04874396324158	0.4582819938659668
43	122.23333382606506	response	0	2		41.0	2.5	/experiments/knapen_aot/videos/R_S_ILSVRC2015_train_00697001.mp4	0.0	217.4912428855896	
43	122.24911689758301	movie	1		301.0	41.0	2.5	/experiments/knapen_aot/videos/R_S_ILSVRC2015_train_00697001.mp4	0.0	217.50702595710754	2.5083670616149902
43	124.757483959198	fix_post	2		12.0	41.0	2.5	/experiments/knapen_aot/videos/R_S_ILSVRC2015_train_00697001.mp4	0.0	220.01539301872253	0.10002303123474121
44	124.85750699043274	fix_pre	0		48.0	42.0	2.5	blank	1.0	220.11541604995728	0.3999748229980469
44	125.24931597709656	response	0	2		42.0	2.5	blank	1.0	220.5072250366211	
44	125.25748181343079	movie	1		301.0	42.0	2.5	blank	1.0	220.51539087295532	2.508493185043335
44	127.76597499847412	fix_post	2		12.0	42.0	2.5	blank	1.0	223.02388405799866	0.09978079795837402
45	127.8657557964325	fix_pre	0		73.0	43.0	2.5	/experiments/knapen_aot/videos/S_yt-8QCcmqaEMPI_16.mp4	0.0	223.12366485595703	0.608504056930542
45	128.46589398384094	response	0	4		43.0	2.5	/experiments/knapen_aot/videos/S_yt-8QCcmqaEMPI_16.mp4	0.0	223.72380304336548	
45	128.47425985336304	movie	1		299.0	43.0	2.5	/experiments/knapen_aot/videos/S_yt-8QCcmqaEMPI_16.mp4	0.0	223.73216891288757	2.5081989765167236
45	130.98245882987976	fix_post	2		12.0	43.0	2.5	/experiments/knapen_aot/videos/S_yt-8QCcmqaEMPI_16.mp4	0.0	226.2403678894043	0.09999704360961914
46	131.08245587348938	fix_pre	0		54.0	44.0	2.5	/experiments/knapen_aot/videos/S_yt-zSSnQYeO_DE_338.mp4	0.0	226.34036493301392	0.44995808601379395
46	131.5243217945099	response	0	2		44.0	2.5	/experiments/knapen_aot/videos/S_yt-zSSnQYeO_DE_338.mp4	0.0	226.78223085403442	
46	131.53241395950317	movie	1		301.0	44.0	2.5	/experiments/knapen_aot/videos/S_yt-zSSnQYeO_DE_338.mp4	0.0	226.7903230190277	2.5083539485931396
46	134.0407679080963	fix_post	2		12.0	44.0	2.5	/experiments/knapen_aot/videos/S_yt-zSSnQYeO_DE_338.mp4	0.0	229.29867696762085	0.10013198852539062
47	134.1408998966217	fix_pre	0		25.0	45.0	2.5	/experiments/knapen_aot/videos/R_S_pexels-artem-podrez-5457692.mp4	0.0	229.39880895614624	0.2082500457763672
47	134.34094285964966	response	0	4		45.0	2.5	/experiments/knapen_aot/videos/R_S_pexels-artem-podrez-5457692.mp4	0.0	229.5988519191742	
47	134.34914994239807	movie	1		163.0	45.0	2.5	/experiments/knapen_aot/videos/R_S_pexels-artem-podrez-5457692.mp4	0.0	229.6070590019226	2.508281946182251
47	136.85743188858032	fix_post	2		12.0	45.0	2.5	/experiments/knapen_aot/videos/R_S_pexels-artem-podrez-5457692.mp4	0.0	232.11534094810486	0.09999704360961914
48	136.95742893218994	fix_pre	0		35.0	46.0	2.5	/experiments/knapen_aot/videos/R_S_yt-0Ut9QANGX20_35.mp4	0.0	232.21533799171448	0.2916388511657715
48	137.24096989631653	response	0	2		46.0	2.5	/experiments/knapen_aot/videos/R_S_yt-0Ut9QANGX20_35.mp4	0.0	232.49887895584106	
48	137.2490677833557	movie	1		298.0	46.0	2.5	/experiments/knapen_aot/videos/R_S_yt-0Ut9QANGX20_35.mp4	0.0	232.50697684288025	2.5083320140838623
48	139.75739979743958	fix_post	2		12.0	46.0	2.5	/experiments/knapen_aot/videos/R_S_yt-0Ut9QANGX20_35.mp4	0.0	235.0153088569641	0.10003900527954102
49	139.85743880271912	fix_pre	0		1.0	47.0	2.5	/experiments/knapen_aot/videos/S_yt-rZA9zXR-A6s_426.mp4	0.0	235.11534786224365	0.008269071578979492
49	139.8503270149231	response	0	4		47.0	2.5	/experiments/knapen_aot/videos/S_yt-rZA9zXR-A6s_426.mp4	0.0	235.10823607444763	
49	139.8657078742981	movie	1		301.0	47.0	2.5	/experiments/knapen_aot/videos/S_yt-rZA9zXR-A6s_426.mp4	0.0	235.12361693382263	2.5083439350128174
49	142.3740518093109	fix_post	2		12.0	47.0	2.5	/experiments/knapen_aot/videos/S_yt-rZA9zXR-A6s_426.mp4	0.0	237.63196086883545	0.10010910034179688
50	142.4741609096527	fix_pre	0		79.0	48.0	2.5	/experiments/knapen_aot/videos/R_S_yt-4r-oovk9JWg_85.mp4	0.0	237.73206996917725	0.6596980094909668
50	143.12417888641357	response	0	2		48.0	2.5	/experiments/knapen_aot/videos/R_S_yt-4r-oovk9JWg_85.mp4	0.0	238.3820879459381	
50	143.13385891914368	movie	1		301.0	48.0	2.5	/experiments/knapen_aot/videos/R_S_yt-4r-oovk9JWg_85.mp4	0.0	238.3917679786682	2.506937026977539
50	145.64079594612122	fix_post	2		12.0	48.0	2.5	/experiments/knapen_aot/videos/R_S_yt-4r-oovk9JWg_85.mp4	0.0	240.89870500564575	0.09995198249816895
51	145.74074792861938	fix_pre	0		36.0	49.0	2.5	blank	1.0	240.99865698814392	0.299968957901001
51	146.03255987167358	response	0	2		49.0	2.5	blank	1.0	241.29046893119812	
51	146.04071688652039	movie	1		301.0	49.0	2.5	blank	1.0	241.29862594604492	2.508342981338501
51	148.5490598678589	fix_post	2		12.0	49.0	2.5	blank	1.0	243.80696892738342	0.09997701644897461
52	148.64903688430786	fix_pre	0		49.0	50.0	2.5	/experiments/knapen_aot/videos/S_yt-4oT-2eGhmUo_102.mp4	0.0	243.9069459438324	0.4083690643310547
52	149.04917192459106	response	0	2		50.0	2.5	/experiments/knapen_aot/videos/S_yt-4oT-2eGhmUo_102.mp4	0.0	244.3070809841156	
52	149.05740594863892	movie	1		301.0	50.0	2.5	/experiments/knapen_aot/videos/S_yt-4oT-2eGhmUo_102.mp4	0.0	244.31531500816345	2.508249044418335
52	151.56565499305725	fix_post	2		12.0	50.0	2.5	/experiments/knapen_aot/videos/S_yt-4oT-2eGhmUo_102.mp4	0.0	246.8235640525818	0.10002493858337402
53	151.66567993164062	fix_pre	0		27.0	51.0	2.5	/experiments/knapen_aot/videos/S_pexels-mart-production-7277934.mp4	0.0	246.92358899116516	0.22503304481506348
53	151.88244795799255	response	0	2		51.0	2.5	/experiments/knapen_aot/videos/S_pexels-mart-production-7277934.mp4	0.0	247.1403570175171	
53	151.8907129764557	movie	1		163.0	51.0	2.5	/experiments/knapen_aot/videos/S_pexels-mart-production-7277934.mp4	0.0	247.14862203598022	2.5083019733428955
53	154.39901494979858	fix_post	2		12.0	51.0	2.5	/experiments/knapen_aot/videos/S_pexels-mart-production-7277934.mp4	0.0	249.65692400932312	0.09995698928833008
54	154.4989719390869	fix_pre	0		13.0	52.0	2.5	/experiments/knapen_aot/videos/S_yt-3TF_RGo9cLs_541.mp4	0.0	249.75688099861145	0.10838603973388672
54	154.59154987335205	response	0	2		52.0	2.5	/experiments/knapen_aot/videos/S_yt-3TF_RGo9cLs_541.mp4	0.0	249.8494589328766	
54	154.6073579788208	movie	1		301.0	52.0	2.5	/experiments/knapen_aot/videos/S_yt-3TF_RGo9cLs_541.mp4	0.0	249.86526703834534	2.5083048343658447
54	157.11566281318665	fix_post	2		12.0	52.0	2.5	/experiments/knapen_aot/videos/S_yt-3TF_RGo9cLs_541.mp4	0.0	252.37357187271118	0.10001611709594727
55	157.2156789302826	fix_pre	0		25.0	53.0	2.5	/experiments/knapen_aot/videos/R_S_Y009_C015_SDR_2K_AVC.mp4	0.0	252.47358798980713	0.2083420753479004
55	157.4158070087433	response	0	2		53.0	2.5	/experiments/knapen_aot/videos/R_S_Y009_C015_SDR_2K_AVC.mp4	0.0	252.67371606826782	
55	157.4240210056305	movie	1		174.0	53.0	2.5	/experiments/knapen_aot/videos/R_S_Y009_C015_SDR_2K_AVC.mp4	0.0	252.68193006515503	2.5082437992095947
55	159.9322648048401	fix_post	2		12.0	53.0	2.5	/experiments/knapen_aot/videos/R_S_Y009_C015_SDR_2K_AVC.mp4	0.0	255.19017386436462	0.09995818138122559
55	159.99074578285217	response	2	2		53.0	2.5	/experiments/knapen_aot/videos/R_S_Y009_C015_SDR_2K_AVC.mp4	0.0	255.2486548423767	
56	160.0322229862213	fix_pre	0		47.0	54.0	2.5	blank	1.0	255.29013204574585	0.39175891876220703
56	160.40816593170166	response	0	2		54.0	2.5	blank	1.0	255.6660749912262	
56	160.42398190498352	movie	1		301.0	54.0	2.5	blank	1.0	255.68189096450806	2.50826096534729
56	162.69071698188782	response	1	2		54.0	2.5	blank	1.0	257.94862604141235	
56	162.9322428703308	fix_post	2		12.0	54.0	2.5	blank	1.0	258.19015192985535	0.10002613067626953
57	163.03226900100708	fix_pre	0		3.0	55.0	2.5	/experiments/knapen_aot/videos/R_S_yt-RO4mhuXBVrY_67.mp4	0.0	258.2901780605316	0.024956941604614258
57	163.04906702041626	response	0	2		55.0	2.5	/experiments/knapen_aot/videos/R_S_yt-RO4mhuXBVrY_67.mp4	0.0	258.3069760799408	
57	163.0572259426117	movie	1		301.0	55.0	2.5	/experiments/knapen_aot/videos/R_S_yt-RO4mhuXBVrY_67.mp4	0.0	258.31513500213623	2.508331060409546
57	165.56555700302124	fix_post	2		12.0	55.0	2.5	/experiments/knapen_aot/videos/R_S_yt-RO4mhuXBVrY_67.mp4	0.0	260.8234660625458	0.10004782676696777
58	165.6656048297882	fix_pre	0		29.0	56.0	2.5	/experiments/knapen_aot/videos/R_S_P006_C002_UHD_SDR_2K_AVC.mp4	0.0	260.92351388931274	0.24165010452270508
58	165.89904880523682	response	0	2		56.0	2.5	/experiments/knapen_aot/videos/R_S_P006_C002_UHD_SDR_2K_AVC.mp4	0.0	261.15695786476135	
58	165.9072549343109	movie	1		170.0	56.0	2.5	/experiments/knapen_aot/videos/R_S_P006_C002_UHD_SDR_2K_AVC.mp4	0.0	261.16516399383545	2.508347988128662
58	168.41560292243958	fix_post	2		12.0	56.0	2.5	/experiments/knapen_aot/videos/R_S_P006_C002_UHD_SDR_2K_AVC.mp4	0.0	263.6735119819641	0.09998202323913574
59	168.5155849456787	fix_pre	0		7.0	57.0	2.5	/experiments/knapen_aot/videos/S__9v_wUywaAA_35.mp4	0.0	263.77349400520325	0.0584108829498291
59	168.56594586372375	response	0	2		57.0	2.5	/experiments/knapen_aot/videos/S__9v_wUywaAA_35.mp4	0.0	263.8238549232483	
59	168.57399582862854	movie	1		301.0	57.0	2.5	/experiments/knapen_aot/videos/S__9v_wUywaAA_35.mp4	0.0	263.8319048881531	2.508319139480591
59	171.08231496810913	fix_post	2		12.0	57.0	2.5	/experiments/knapen_aot/videos/S__9v_wUywaAA_35.mp4	0.0	266.34022402763367	0.09993386268615723
60	171.1822488307953	fix_pre	0		12.0	58.0	2.5	/experiments/knapen_aot/videos/S_yt-FsXOl6JjzSY_15.mp4	0.0	266.4401578903198	0.09995007514953613
60	171.27404689788818	response	0	2		58.0	2.5	/experiments/knapen_aot/videos/S_yt-FsXOl6JjzSY_15.mp4	0.0	266.5319559574127	
60	171.28219890594482	movie	1		301.0	58.0	2.5	/experiments/knapen_aot/videos/S_yt-FsXOl6JjzSY_15.mp4	0.0	266.54010796546936	2.5083470344543457
60	173.79054594039917	fix_post	2		12.0	58.0	2.5	/experiments/knapen_aot/videos/S_yt-FsXOl6JjzSY_15.mp4	0.0	269.0484549999237	0.10004091262817383
61	173.89058685302734	fix_pre	0		99.0	59.0	2.5	/experiments/knapen_aot/videos/S_pexels-c-technical-5771610.mp4	0.0	269.1484959125519	0.8262810707092285
61	174.7073938846588	response	0	2		59.0	2.5	/experiments/knapen_aot/videos/S_pexels-c-technical-5771610.mp4	0.0	269.96530294418335	
61	174.71686792373657	movie	1		185.0	59.0	2.5	/experiments/knapen_aot/videos/S_pexels-c-technical-5771610.mp4	0.0	269.9747769832611	2.5069899559020996
61	177.22385787963867	fix_post	2		12.0	59.0	2.5	/experiments/knapen_aot/videos/S_pexels-c-technical-5771610.mp4	0.0	272.4817669391632	0.10003995895385742
62	177.32389783859253	fix_pre	0		103.0	60.0	2.5	/experiments/knapen_aot/videos/R_S_ga8dBJH_qK8_765.mp4	0.0	272.58180689811707	0.858253002166748
62	178.17397594451904	response	0	2		60.0	2.5	/experiments/knapen_aot/videos/R_S_ga8dBJH_qK8_765.mp4	0.0	273.4318850040436	
62	178.18215084075928	movie	1		301.0	60.0	2.5	/experiments/knapen_aot/videos/R_S_ga8dBJH_qK8_765.mp4	0.0	273.4400599002838	2.5084030628204346
62	180.6905539035797	fix_post	2		12.0	60.0	2.5	/experiments/knapen_aot/videos/R_S_ga8dBJH_qK8_765.mp4	0.0	275.94846296310425	0.09999489784240723
63	180.79054880142212	fix_pre	0		31.0	61.0	2.5	/experiments/knapen_aot/videos/R_S_yt-y6JsUW0eSW8_32.mp4	0.0	276.04845786094666	0.25954604148864746
63	181.04068684577942	response	0	2		61.0	2.5	/experiments/knapen_aot/videos/R_S_yt-y6JsUW0eSW8_32.mp4	0.0	276.29859590530396	
63	181.05009484291077	movie	1		301.0	61.0	2.5	/experiments/knapen_aot/videos/R_S_yt-y6JsUW0eSW8_32.mp4	0.0	276.3080039024353	2.5071020126342773
63	183.55719685554504	fix_post	2		12.0	61.0	2.5	/experiments/knapen_aot/videos/R_S_yt-y6JsUW0eSW8_32.mp4	0.0	278.8151059150696	0.09995794296264648
64	183.6571547985077	fix_pre	0		39.0	62.0	2.5	blank	1.0	278.9150638580322	0.3249361515045166
64	183.97397994995117	response	0	2		62.0	2.5	blank	1.0	279.2318890094757	
64	183.9820909500122	movie	1		301.0	62.0	2.5	blank	1.0	279.24000000953674	2.5084848403930664
64	186.49057579040527	fix_post	2		12.0	62.0	2.5	blank	1.0	281.7484848499298	0.09992408752441406
65	186.5904998779297	fix_pre	0		53.0	63.0	2.5	/experiments/knapen_aot/videos/S_ILSVRC2015_train_00465000.mp4	0.0	281.8484089374542	0.4416780471801758
65	187.02393698692322	response	0	2		63.0	2.5	/experiments/knapen_aot/videos/S_ILSVRC2015_train_00465000.mp4	0.0	282.28184604644775	
65	187.03217792510986	movie	1		301.0	63.0	2.5	/experiments/knapen_aot/videos/S_ILSVRC2015_train_00465000.mp4	0.0	282.2900869846344	2.5083649158477783
65	189.54054284095764	fix_post	2		12.0	63.0	2.5	/experiments/knapen_aot/videos/S_ILSVRC2015_train_00465000.mp4	0.0	284.7984519004822	0.10003113746643066
66	189.64057397842407	fix_pre	0		31.0	64.0	2.5	/experiments/knapen_aot/videos/S_pexels-artem-podrez-5457692.mp4	0.0	284.8984830379486	0.2582719326019287
66	189.8831238746643	response	0	2		64.0	2.5	/experiments/knapen_aot/videos/S_pexels-artem-podrez-5457692.mp4	0.0	285.14103293418884	
66	189.898845911026	movie	1		162.0	64.0	2.5	/experiments/knapen_aot/videos/S_pexels-artem-podrez-5457692.mp4	0.0	285.15675497055054	2.508362054824829
66	192.40720796585083	fix_post	2		12.0	64.0	2.5	/experiments/knapen_aot/videos/S_pexels-artem-podrez-5457692.mp4	0.0	287.66511702537537	0.09997701644897461
67	192.5071849822998	fix_pre	0		258.0	65.0	2.5	/experiments/knapen_aot/videos/S_BO_A012_C031_SDR_20190726_SDR_2K_AVC.mp4	0.0	287.76509404182434	2.150164842605591
67	194.64147186279297	response	0	2		65.0	2.5	/experiments/knapen_aot/videos/S_BO_A012_C031_SDR_20190726_SDR_2K_AVC.mp4	0.0	289.8993809223175	
67	194.6573498249054	movie	1		164.0	65.0	2.5	/experiments/knapen_aot/videos/S_BO_A012_C031_SDR_20190726_SDR_2K_AVC.mp4	0.0	289.91525888442993	2.5081610679626465
67	197.16551089286804	fix_post	2		12.0	65.0	2.5	/experiments/knapen_aot/videos/S_BO_A012_C031_SDR_20190726_SDR_2K_AVC.mp4	0.0	292.4234199523926	0.09995889663696289
68	197.265469789505	fix_pre	0		425.0	66.0	2.5	/experiments/knapen_aot/videos/R_S_nTA7B2uHaCQ_1.mp4	0.0	292.52337884902954	3.5416510105133057
68	200.7990598678589	response	0	2		66.0	2.5	/experiments/knapen_aot/videos/R_S_nTA7B2uHaCQ_1.mp4	0.0	296.0569689273834	
68	200.8071208000183	movie	1		301.0	66.0	2.5	/experiments/knapen_aot/videos/R_S_nTA7B2uHaCQ_1.mp4	0.0	296.06502985954285	2.5083141326904297
68	203.31543493270874	fix_post	2		12.0	66.0	2.5	/experiments/knapen_aot/videos/R_S_nTA7B2uHaCQ_1.mp4	0.0	298.5733439922333	0.10000991821289062
69	203.41544485092163	fix_pre	0		42.0	67.0	2.5	/experiments/knapen_aot/videos/R_S_yt-xNKgc8sFYvU_35.mp4	0.0	298.67335391044617	0.3499760627746582
69	203.75723695755005	response	0	2		67.0	2.5	/experiments/knapen_aot/videos/R_S_yt-xNKgc8sFYvU_35.mp4	0.0	299.0151460170746	
69	203.7654209136963	movie	1		301.0	67.0	2.5	/experiments/knapen_aot/videos/R_S_yt-xNKgc8sFYvU_35.mp4	0.0	299.0233299732208	2.5083460807800293
69	206.27376699447632	fix_post	2		12.0	67.0	2.5	/experiments/knapen_aot/videos/R_S_yt-xNKgc8sFYvU_35.mp4	0.0	301.53167605400085	0.09996795654296875
70	206.3737349510193	fix_pre	0		31.0	68.0	2.5	/experiments/knapen_aot/videos/R_S_yt-Ja7d2a6e5xE_279.mp4	0.0	301.6316440105438	0.25946903228759766
70	206.623920917511	response	0	2		68.0	2.5	/experiments/knapen_aot/videos/R_S_yt-Ja7d2a6e5xE_279.mp4	0.0	301.8818299770355	
70	206.63320398330688	movie	1		298.0	68.0	2.5	/experiments/knapen_aot/videos/R_S_yt-Ja7d2a6e5xE_279.mp4	0.0	301.8911130428314	2.507232904434204
70	209.1404368877411	fix_post	2		12.0	68.0	2.5	/experiments/knapen_aot/videos/R_S_yt-Ja7d2a6e5xE_279.mp4	0.0	304.3983459472656	0.10004305839538574
71	209.24047994613647	fix_pre	0		28.0	69.0	2.5	/experiments/knapen_aot/videos/R_S_comp_LA_A006_C004_v01_SDR_FINAL_PS_20180730_SDR_2K_AVC.mp4	0.0	304.498389005661	0.23329591751098633
71	209.45802092552185	response	0	2		69.0	2.5	/experiments/knapen_aot/videos/R_S_comp_LA_A006_C004_v01_SDR_FINAL_PS_20180730_SDR_2K_AVC.mp4	0.0	304.7159299850464	
71	209.47377586364746	movie	1		168.0	69.0	2.5	/experiments/knapen_aot/videos/R_S_comp_LA_A006_C004_v01_SDR_FINAL_PS_20180730_SDR_2K_AVC.mp4	0.0	304.731684923172	2.5082521438598633
71	211.98202800750732	fix_post	2		12.0	69.0	2.5	/experiments/knapen_aot/videos/R_S_comp_LA_A006_C004_v01_SDR_FINAL_PS_20180730_SDR_2K_AVC.mp4	0.0	307.23993706703186	0.10001087188720703
72	212.08203887939453	fix_pre	0		17.0	70.0	2.5	blank	1.0	307.33994793891907	0.14169907569885254
72	212.21545600891113	response	0	2		70.0	2.5	blank	1.0	307.47336506843567	
72	212.22373795509338	movie	1		301.0	70.0	2.5	blank	1.0	307.4816470146179	2.508347988128662
72	214.73208594322205	fix_post	2		12.0	70.0	2.5	blank	1.0	309.9899950027466	0.09990286827087402
73	214.83198881149292	fix_pre	0		84.0	71.0	2.5	/experiments/knapen_aot/videos/R_S_yt-3TF_RGo9cLs_541.mp4	0.0	310.08989787101746	0.7000110149383545
73	215.5239269733429	response	0	2		71.0	2.5	/experiments/knapen_aot/videos/R_S_yt-3TF_RGo9cLs_541.mp4	0.0	310.78183603286743	
73	215.53199982643127	movie	1		300.0	71.0	2.5	/experiments/knapen_aot/videos/R_S_yt-3TF_RGo9cLs_541.mp4	0.0	310.7899088859558	2.5084149837493896
73	218.04041481018066	fix_post	2		12.0	71.0	2.5	/experiments/knapen_aot/videos/R_S_yt-3TF_RGo9cLs_541.mp4	0.0	313.2983238697052	0.10004615783691406
74	218.14046096801758	fix_pre	0		17.0	72.0	2.5	/experiments/knapen_aot/videos/R_S_yt-zSSnQYeO_DE_338.mp4	0.0	313.3983700275421	0.1416008472442627
74	218.27390098571777	response	0	2		72.0	2.5	/experiments/knapen_aot/videos/R_S_yt-zSSnQYeO_DE_338.mp4	0.0	313.5318100452423	
74	218.28206181526184	movie	1		301.0	72.0	2.5	/experiments/knapen_aot/videos/R_S_yt-zSSnQYeO_DE_338.mp4	0.0	313.5399708747864	2.5083460807800293
74	220.79040789604187	fix_post	2		12.0	72.0	2.5	/experiments/knapen_aot/videos/R_S_yt-zSSnQYeO_DE_338.mp4	0.0	316.0483169555664	0.10000205039978027
75	220.89040994644165	fix_pre	0		31.0	73.0	2.5	/experiments/knapen_aot/videos/S_nTA7B2uHaCQ_1.mp4	0.0	316.1483190059662	0.25830793380737305
75	221.13295984268188	response	0	2		73.0	2.5	/experiments/knapen_aot/videos/S_nTA7B2uHaCQ_1.mp4	0.0	316.3908689022064	
75	221.14871788024902	movie	1		301.0	73.0	2.5	/experiments/knapen_aot/videos/S_nTA7B2uHaCQ_1.mp4	0.0	316.40662693977356	2.508291006088257
75	223.65700888633728	fix_post	2		12.0	73.0	2.5	/experiments/knapen_aot/videos/S_nTA7B2uHaCQ_1.mp4	0.0	318.9149179458618	0.10007691383361816
76	223.7570858001709	fix_pre	0		16.0	74.0	2.5	/experiments/knapen_aot/videos/S_yt-4sSV4iIs8gQ_55.mp4	0.0	319.01499485969543	0.13332700729370117
76	223.87469696998596	response	0	2		74.0	2.5	/experiments/knapen_aot/videos/S_yt-4sSV4iIs8gQ_55.mp4	0.0	319.1326060295105	
76	223.8904128074646	movie	1		300.0	74.0	2.5	/experiments/knapen_aot/videos/S_yt-4sSV4iIs8gQ_55.mp4	0.0	319.14832186698914	2.5083260536193848
76	226.39873886108398	fix_post	2		12.0	74.0	2.5	/experiments/knapen_aot/videos/S_yt-4sSV4iIs8gQ_55.mp4	0.0	321.6566479206085	0.1000070571899414
77	226.49874591827393	fix_pre	0		23.0	75.0	2.5	/experiments/knapen_aot/videos/S_yt-2CWrK9nbhTk_211.mp4	0.0	321.75665497779846	0.19159603118896484
77	226.68217587471008	response	0	2		75.0	2.5	/experiments/knapen_aot/videos/S_yt-2CWrK9nbhTk_211.mp4	0.0	321.9400849342346	
77	226.6903419494629	movie	1		301.0	75.0	2.5	/experiments/knapen_aot/videos/S_yt-2CWrK9nbhTk_211.mp4	0.0	321.9482510089874	2.508362054824829
77	229.19870400428772	fix_post	2		12.0	75.0	2.5	/experiments/knapen_aot/videos/S_yt-2CWrK9nbhTk_211.mp4	0.0	324.45661306381226	0.09995198249816895
78	229.2986559867859	fix_pre	0		15.0	76.0	2.5	blank	1.0	324.5565650463104	0.12501788139343262
78	229.41545581817627	response	0	2		76.0	2.5	blank	1.0	324.6733648777008	
78	229.42367386817932	movie	1		300.0	76.0	2.5	blank	1.0	324.68158292770386	2.5010221004486084
78	230.59870100021362	response	1	2		76.0	2.5	blank	1.0	325.85661005973816	
78	231.915433883667	response	1	2		76.0	2.5	blank	1.0	327.1733429431915	
78	231.92469596862793	fix_post	2		13.0	76.0	2.5	blank	1.0	327.18260502815247	0.10724997520446777
79	232.0319459438324	fix_pre	0		33.0	77.0	2.5	/experiments/knapen_aot/videos/S_ILSVRC2015_train_00697001.mp4	0.0	327.28985500335693	0.2749910354614258
79	232.29877495765686	response	0	2		77.0	2.5	/experiments/knapen_aot/videos/S_ILSVRC2015_train_00697001.mp4	0.0	327.5566840171814	
79	232.30693697929382	movie	1		298.0	77.0	2.5	/experiments/knapen_aot/videos/S_ILSVRC2015_train_00697001.mp4	0.0	327.56484603881836	2.508391857147217
79	234.68209099769592	response	1	2		77.0	2.5	/experiments/knapen_aot/videos/S_ILSVRC2015_train_00697001.mp4	0.0	329.94000005722046	
79	234.81532883644104	fix_post	2		12.0	77.0	2.5	/experiments/knapen_aot/videos/S_ILSVRC2015_train_00697001.mp4	0.0	330.0732378959656	0.09994006156921387
80	234.91526889801025	fix_pre	0		26.0	78.0	2.5	/experiments/knapen_aot/videos/R_S_yt-Ilr77XzakaY_95.mp4	0.0	330.1731779575348	0.2177140712738037
80	235.12372398376465	response	0	2		78.0	2.5	/experiments/knapen_aot/videos/R_S_yt-Ilr77XzakaY_95.mp4	0.0	330.3816330432892	
80	235.13298296928406	movie	1		301.0	78.0	2.5	/experiments/knapen_aot/videos/R_S_yt-Ilr77XzakaY_95.mp4	0.0	330.3908920288086	2.5073399543762207
80	237.64032292366028	fix_post	2		12.0	78.0	2.5	/experiments/knapen_aot/videos/R_S_yt-Ilr77XzakaY_95.mp4	0.0	332.8982319831848	0.09985995292663574
81	237.7401828765869	fix_pre	0		14.0	79.0	2.5	/experiments/knapen_aot/videos/S_yt-146gReE6xKw_379.mp4	0.0	332.99809193611145	0.1168050765991211
81	237.848730802536	response	0	2		79.0	2.5	/experiments/knapen_aot/videos/S_yt-146gReE6xKw_379.mp4	0.0	333.10663986206055	
81	237.85698795318604	movie	1		301.0	79.0	2.5	/experiments/knapen_aot/videos/S_yt-146gReE6xKw_379.mp4	0.0	333.11489701271057	2.508254051208496
81	240.36524200439453	fix_post	2		12.0	79.0	2.5	/experiments/knapen_aot/videos/S_yt-146gReE6xKw_379.mp4	0.0	335.62315106391907	0.10001277923583984
82	240.46525478363037	fix_pre	0		22.0	80.0	2.5	/experiments/knapen_aot/videos/S_video_inspire_texas_pecos_foggy-landscape_00018.1080-h264.mp4	0.0	335.7231638431549	0.18337512016296387
82	240.6404128074646	response	0	2		80.0	2.5	/experiments/knapen_aot/videos/S_video_inspire_texas_pecos_foggy-landscape_00018.1080-h264.mp4	0.0	335.89832186698914	
82	240.64862990379333	movie	1		165.0	80.0	2.5	/experiments/knapen_aot/videos/S_video_inspire_texas_pecos_foggy-landscape_00018.1080-h264.mp4	0.0	335.90653896331787	2.508354902267456
82	243.1569848060608	fix_post	2		12.0	80.0	2.5	/experiments/knapen_aot/videos/S_video_inspire_texas_pecos_foggy-landscape_00018.1080-h264.mp4	0.0	338.4148938655853	0.1000211238861084
83	243.2570059299469	fix_pre	0		2.0	81.0	2.5	/experiments/knapen_aot/videos/R_S_production_ID_4101309.mp4	0.0	338.51491498947144	0.01665186882019043
83	243.26543593406677	response	0	2		81.0	2.5	/experiments/knapen_aot/videos/R_S_production_ID_4101309.mp4	0.0	338.5233449935913	
83	243.2736577987671	movie	1		195.0	81.0	2.5	/experiments/knapen_aot/videos/R_S_production_ID_4101309.mp4	0.0	338.5315668582916	2.508496046066284
83	245.78215384483337	fix_post	2		12.0	81.0	2.5	/experiments/knapen_aot/videos/R_S_production_ID_4101309.mp4	0.0	341.0400629043579	0.09978604316711426
84	245.8819398880005	fix_pre	0		5.0	82.0	2.5	blank	1.0	341.139848947525	0.04269599914550781
84	245.90794897079468	response	0	2		82.0	2.5	blank	1.0	341.1658580303192	
84	245.924635887146	movie	1		301.0	82.0	2.5	blank	1.0	341.18254494667053	2.5072970390319824
84	248.43193292617798	fix_post	2		12.0	82.0	2.5	blank	1.0	343.6898419857025	0.10001707077026367
85	248.53194999694824	fix_pre	0		87.0	83.0	2.5	/experiments/knapen_aot/videos/R_S_yt-3TF_RGo9cLs_541.mp4	0.0	343.7898590564728	0.7258768081665039
85	249.24863696098328	response	0	2		83.0	2.5	/experiments/knapen_aot/videos/R_S_yt-3TF_RGo9cLs_541.mp4	0.0	344.5065460205078	
85	249.25782680511475	movie	1		301.0	83.0	2.5	/experiments/knapen_aot/videos/R_S_yt-3TF_RGo9cLs_541.mp4	0.0	344.5157358646393	2.5073561668395996
85	251.76518297195435	fix_post	2		12.0	83.0	2.5	/experiments/knapen_aot/videos/R_S_yt-3TF_RGo9cLs_541.mp4	0.0	347.0230920314789	0.09997987747192383
87	251.86516284942627	stim	0		508.0					347.1230719089508	4.23340916633606
87	252.1904079914093	response	0	2						347.44831705093384	
87	253.48531699180603	response	0	return						348.74322605133057	
87	255.30697083473206	response	0	return						350.5648798942566	
87	256.0903129577637	response	0	space						351.3482220172882	
