trial_nr	onset	event_type	phase	response	nr_frames	movie_index	movie_duration	movie_file	blank	onset_abs	duration
0	0.1634840965270996	stim	0		62.0					71.9713761806488	0.5171210765838623
0	0.664884090423584	response	0	space						72.47277617454529	
1	0.6806051731109619	stim	0		121.0					72.48849725723267	1.0076029300689697
1	1.6216280460357666	response	0	space						73.42952013015747	
1	1.6882081031799316	stim	1		120.0					73.49610018730164	0.9999949932098389
1	1.777420997619629	response	1	2						73.58531308174133	
1	2.0052411556243896	response	1	space						73.8131332397461	
2	2.6882030963897705	fix_pre	0		2.0	0.0	2.5	/experiments/knapen_aot/oldvideos/R_S_ILSVRC2015_train_00538001.mp4	0.0	74.49609518051147	0.016640901565551758
2	2.6965811252593994	response	0	space		0.0	2.5	/experiments/knapen_aot/oldvideos/R_S_ILSVRC2015_train_00538001.mp4	0.0	74.5044732093811	
2	2.7048439979553223	movie	1		301.0	0.0	2.5	/experiments/knapen_aot/oldvideos/R_S_ILSVRC2015_train_00538001.mp4	0.0	74.51273608207703	2.508355140686035
2	5.213199138641357	fix_post	2		12.0	0.0	2.5	/experiments/knapen_aot/oldvideos/R_S_ILSVRC2015_train_00538001.mp4	0.0	77.02109122276306	0.10001897811889648
3	5.313218116760254	fix_pre	0		80.0	1.0	2.5	/experiments/knapen_aot/oldvideos/S_ILSVRC2015_train_00768000.mp4	0.0	77.12111020088196	0.6665608882904053
3	5.9754509925842285	response	0	4		1.0	2.5	/experiments/knapen_aot/oldvideos/S_ILSVRC2015_train_00768000.mp4	0.0	77.78334307670593	
3	5.979779005050659	movie	1		297.0	1.0	2.5	/experiments/knapen_aot/oldvideos/S_ILSVRC2015_train_00768000.mp4	0.0	77.78767108917236	2.5083611011505127
3	8.488140106201172	fix_post	2		12.0	1.0	2.5	/experiments/knapen_aot/oldvideos/S_ILSVRC2015_train_00768000.mp4	0.0	80.29603219032288	0.10005784034729004
4	8.588197946548462	fix_pre	0		12.0	2.0	2.5	/experiments/knapen_aot/oldvideos/R_S_yt-GfPep7IhZIU_47.mp4	0.0	80.39609003067017	0.09998321533203125
4	8.679972171783447	response	0	2		2.0	2.5	/experiments/knapen_aot/oldvideos/R_S_yt-GfPep7IhZIU_47.mp4	0.0	80.48786425590515	
4	8.688181161880493	movie	1		301.0	2.0	2.5	/experiments/knapen_aot/oldvideos/R_S_yt-GfPep7IhZIU_47.mp4	0.0	80.4960732460022	2.5083818435668945
4	11.196563005447388	fix_post	2		12.0	2.0	2.5	/experiments/knapen_aot/oldvideos/R_S_yt-GfPep7IhZIU_47.mp4	0.0	83.00445508956909	0.10008907318115234
5	11.29665207862854	fix_pre	0		7.0	3.0	2.5	/experiments/knapen_aot/oldvideos/R_S_pexels-anastasia-shuraeva-6014070.mp4	0.0	83.10454416275024	0.05817103385925293
5	11.346543073654175	response	0	4		3.0	2.5	/experiments/knapen_aot/oldvideos/R_S_pexels-anastasia-shuraeva-6014070.mp4	0.0	83.15443515777588	
5	11.354823112487793	movie	1		199.0	3.0	2.5	/experiments/knapen_aot/oldvideos/R_S_pexels-anastasia-shuraeva-6014070.mp4	0.0	83.1627151966095	2.5083959102630615
5	13.863219022750854	fix_post	2		12.0	3.0	2.5	/experiments/knapen_aot/oldvideos/R_S_pexels-anastasia-shuraeva-6014070.mp4	0.0	85.67111110687256	0.09993815422058105
5	13.879892110824585	response	2	4		3.0	2.5	/experiments/knapen_aot/oldvideos/R_S_pexels-anastasia-shuraeva-6014070.mp4	0.0	85.68778419494629	
6	13.963157176971436	fix_pre	0		19.0	4.0	2.5	/experiments/knapen_aot/oldvideos/S_production_ID_4101309.mp4	0.0	85.77104926109314	0.15827488899230957
6	14.113403081893921	response	0	4		4.0	2.5	/experiments/knapen_aot/oldvideos/S_production_ID_4101309.mp4	0.0	85.92129516601562	
6	14.121432065963745	movie	1		192.0	4.0	2.5	/experiments/knapen_aot/oldvideos/S_production_ID_4101309.mp4	0.0	85.92932415008545	2.508368968963623
6	16.629801034927368	fix_post	2		12.0	4.0	2.5	/experiments/knapen_aot/oldvideos/S_production_ID_4101309.mp4	0.0	88.43769311904907	0.10006594657897949
7	16.729866981506348	fix_pre	0		6.0	5.0	2.5	/experiments/knapen_aot/oldvideos/S_ILSVRC2015_train_00768000.mp4	0.0	88.53775906562805	0.0499119758605957
7	16.77160406112671	response	0	4		5.0	2.5	/experiments/knapen_aot/oldvideos/S_ILSVRC2015_train_00768000.mp4	0.0	88.57949614524841	
7	16.779778957366943	movie	1		301.0	5.0	2.5	/experiments/knapen_aot/oldvideos/S_ILSVRC2015_train_00768000.mp4	0.0	88.58767104148865	2.5083541870117188
7	19.288133144378662	fix_post	2		12.0	5.0	2.5	/experiments/knapen_aot/oldvideos/S_ILSVRC2015_train_00768000.mp4	0.0	91.09602522850037	0.10022592544555664
8	19.38835906982422	fix_pre	0		2.0	6.0	2.5	blank	1.0	91.19625115394592	0.01639389991760254
8	19.39659309387207	response	0	4		6.0	2.5	blank	1.0	91.20448517799377	
8	19.40475296974182	movie	1		301.0	6.0	2.5	blank	1.0	91.21264505386353	2.5084080696105957
8	21.913161039352417	fix_post	2		12.0	6.0	2.5	blank	1.0	93.72105312347412	0.10015010833740234
9	22.01331114768982	fix_pre	0		27.0	7.0	2.5	/experiments/knapen_aot/oldvideos/S_yt-RMjo2PPEPEA_112.mp4	0.0	93.82120323181152	0.22476983070373535
9	22.22986102104187	response	0	4		7.0	2.5	/experiments/knapen_aot/oldvideos/S_yt-RMjo2PPEPEA_112.mp4	0.0	94.03775310516357	
9	22.238080978393555	movie	1		301.0	7.0	2.5	/experiments/knapen_aot/oldvideos/S_yt-RMjo2PPEPEA_112.mp4	0.0	94.04597306251526	2.5083861351013184
9	24.746467113494873	fix_post	2		12.0	7.0	2.5	/experiments/knapen_aot/oldvideos/S_yt-RMjo2PPEPEA_112.mp4	0.0	96.55435919761658	0.1001439094543457
10	24.84661102294922	fix_pre	0		15.0	8.0	2.5	/experiments/knapen_aot/oldvideos/R_S_Y004_C015_SDR_2K_AVC.mp4	0.0	96.65450310707092	0.12487602233886719
10	24.963189125061035	response	0	4		8.0	2.5	/experiments/knapen_aot/oldvideos/R_S_Y004_C015_SDR_2K_AVC.mp4	0.0	96.77108120918274	
10	24.971487045288086	movie	1		167.0	8.0	2.5	/experiments/knapen_aot/oldvideos/R_S_Y004_C015_SDR_2K_AVC.mp4	0.0	96.77937912940979	2.5082859992980957
10	27.47977304458618	fix_post	2		12.0	8.0	2.5	/experiments/knapen_aot/oldvideos/R_S_Y004_C015_SDR_2K_AVC.mp4	0.0	99.28766512870789	0.1001749038696289
10	27.49649405479431	response	2	4		8.0	2.5	/experiments/knapen_aot/oldvideos/R_S_Y004_C015_SDR_2K_AVC.mp4	0.0	99.30438613891602	
11	27.57994794845581	fix_pre	0		22.0	9.0	2.5	/experiments/knapen_aot/oldvideos/S_production_ID_3735542.mp4	0.0	99.38784003257751	0.18322300910949707
11	27.75485396385193	response	0	4		9.0	2.5	/experiments/knapen_aot/oldvideos/S_production_ID_3735542.mp4	0.0	99.56274604797363	
11	27.763170957565308	movie	1		163.0	9.0	2.5	/experiments/knapen_aot/oldvideos/S_production_ID_3735542.mp4	0.0	99.57106304168701	2.508291006088257
11	30.271461963653564	fix_post	2		12.0	9.0	2.5	/experiments/knapen_aot/oldvideos/S_production_ID_3735542.mp4	0.0	102.07935404777527	0.09996914863586426
12	30.37143111228943	fix_pre	0		3.0	10.0	2.5	/experiments/knapen_aot/oldvideos/R_S_zr0tzAC2XHk_334.mp4	0.0	102.17932319641113	0.024942874908447266
12	30.388703107833862	response	0	4		10.0	2.5	/experiments/knapen_aot/oldvideos/R_S_zr0tzAC2XHk_334.mp4	0.0	102.19659519195557	
12	30.396373987197876	movie	1		301.0	10.0	2.5	/experiments/knapen_aot/oldvideos/R_S_zr0tzAC2XHk_334.mp4	0.0	102.20426607131958	2.5083889961242676
12	32.904762983322144	fix_post	2		12.0	10.0	2.5	/experiments/knapen_aot/oldvideos/R_S_zr0tzAC2XHk_334.mp4	0.0	104.71265506744385	0.09992599487304688
13	33.00468897819519	fix_pre	0		7.0	11.0	2.5	/experiments/knapen_aot/oldvideos/R_S_yt-0xzYSBvVfYM_197.mp4	0.0	104.8125810623169	0.05834197998046875
13	33.05483412742615	response	0	4		11.0	2.5	/experiments/knapen_aot/oldvideos/R_S_yt-0xzYSBvVfYM_197.mp4	0.0	104.86272621154785	
13	33.06303095817566	movie	1		301.0	11.0	2.5	/experiments/knapen_aot/oldvideos/R_S_yt-0xzYSBvVfYM_197.mp4	0.0	104.87092304229736	2.5083680152893066
13	35.11317205429077	response	1	4		11.0	2.5	/experiments/knapen_aot/oldvideos/R_S_yt-0xzYSBvVfYM_197.mp4	0.0	106.92106413841248	
13	35.571398973464966	fix_post	2		12.0	11.0	2.5	/experiments/knapen_aot/oldvideos/R_S_yt-0xzYSBvVfYM_197.mp4	0.0	107.37929105758667	0.10030913352966309
14	35.67170810699463	fix_pre	0		8.0	12.0	2.5	/experiments/knapen_aot/oldvideos/S_yt-0xzYSBvVfYM_197.mp4	0.0	107.47960019111633	0.06633186340332031
14	35.72231316566467	response	0	4		12.0	2.5	/experiments/knapen_aot/oldvideos/S_yt-0xzYSBvVfYM_197.mp4	0.0	107.53020524978638	
14	35.73803997039795	movie	1		301.0	12.0	2.5	/experiments/knapen_aot/oldvideos/S_yt-0xzYSBvVfYM_197.mp4	0.0	107.54593205451965	2.5082859992980957
14	38.246325969696045	fix_post	2		12.0	12.0	2.5	/experiments/knapen_aot/oldvideos/S_yt-0xzYSBvVfYM_197.mp4	0.0	110.05421805381775	0.10016918182373047
15	38.346495151519775	fix_pre	0		12.0	13.0	2.5	blank	1.0	110.15438723564148	0.09978795051574707
15	38.43813705444336	response	0	4		13.0	2.5	blank	1.0	110.24602913856506	
15	38.44628310203552	movie	1		301.0	13.0	2.5	blank	1.0	110.25417518615723	2.508570909500122
15	40.954854011535645	fix_post	2		12.0	13.0	2.5	blank	1.0	112.76274609565735	0.09997200965881348
16	41.05482602119446	fix_pre	0		19.0	14.0	2.5	/experiments/knapen_aot/oldvideos/S_pexels-anastasia-shuraeva-6014070.mp4	0.0	112.86271810531616	0.15967702865600586
16	41.19734716415405	response	0	4		14.0	2.5	/experiments/knapen_aot/oldvideos/S_pexels-anastasia-shuraeva-6014070.mp4	0.0	113.00523924827576	
16	41.214503049850464	movie	1		201.0	14.0	2.5	/experiments/knapen_aot/oldvideos/S_pexels-anastasia-shuraeva-6014070.mp4	0.0	113.02239513397217	2.5069780349731445
16	43.72148108482361	fix_post	2		12.0	14.0	2.5	/experiments/knapen_aot/oldvideos/S_pexels-anastasia-shuraeva-6014070.mp4	0.0	115.52937316894531	0.09987497329711914
17	43.82135605812073	fix_pre	0		5.0	15.0	2.5	/experiments/knapen_aot/oldvideos/S_yt-STL3ejY9u_Q_73.mp4	0.0	115.62924814224243	0.04167795181274414
17	43.85488414764404	response	0	4		15.0	2.5	/experiments/knapen_aot/oldvideos/S_yt-STL3ejY9u_Q_73.mp4	0.0	115.66277623176575	
17	43.86303400993347	movie	1		301.0	15.0	2.5	/experiments/knapen_aot/oldvideos/S_yt-STL3ejY9u_Q_73.mp4	0.0	115.67092609405518	2.5083019733428955
17	46.37133598327637	fix_post	2		12.0	15.0	2.5	/experiments/knapen_aot/oldvideos/S_yt-STL3ejY9u_Q_73.mp4	0.0	118.17922806739807	0.10010504722595215
18	46.47144103050232	fix_pre	0		27.0	16.0	2.5	/experiments/knapen_aot/oldvideos/R_S_ILSVRC2015_train_00457000.mp4	0.0	118.27933311462402	0.22502803802490234
18	46.688191175460815	response	0	4		16.0	2.5	/experiments/knapen_aot/oldvideos/R_S_ILSVRC2015_train_00457000.mp4	0.0	118.49608325958252	
18	46.69646906852722	movie	1		301.0	16.0	2.5	/experiments/knapen_aot/oldvideos/R_S_ILSVRC2015_train_00457000.mp4	0.0	118.50436115264893	2.508213996887207
18	48.88823699951172	response	1	4		16.0	2.5	/experiments/knapen_aot/oldvideos/R_S_ILSVRC2015_train_00457000.mp4	0.0	120.69612908363342	
18	49.20468306541443	fix_post	2		12.0	16.0	2.5	/experiments/knapen_aot/oldvideos/R_S_ILSVRC2015_train_00457000.mp4	0.0	121.01257514953613	0.10008502006530762
19	49.304768085479736	fix_pre	0		5.0	17.0	2.5	/experiments/knapen_aot/oldvideos/S_yt-thmqgEV-sYY_91.mp4	0.0	121.11266016960144	0.04156088829040527
19	49.33810806274414	response	0	4		17.0	2.5	/experiments/knapen_aot/oldvideos/S_yt-thmqgEV-sYY_91.mp4	0.0	121.14600014686584	
19	49.34632897377014	movie	1		301.0	17.0	2.5	/experiments/knapen_aot/oldvideos/S_yt-thmqgEV-sYY_91.mp4	0.0	121.15422105789185	2.508561134338379
19	51.85489010810852	fix_post	2		12.0	17.0	2.5	/experiments/knapen_aot/oldvideos/S_yt-thmqgEV-sYY_91.mp4	0.0	123.66278219223022	0.09972500801086426
20	51.954615116119385	fix_pre	0		11.0	18.0	2.5	/experiments/knapen_aot/oldvideos/R_S_yt-fqbi4rGc9dk_65.mp4	0.0	123.76250720024109	0.09177303314208984
20	52.03810405731201	response	0	4		18.0	2.5	/experiments/knapen_aot/oldvideos/R_S_yt-fqbi4rGc9dk_65.mp4	0.0	123.84599614143372	
20	52.046388149261475	movie	1		301.0	18.0	2.5	/experiments/knapen_aot/oldvideos/R_S_yt-fqbi4rGc9dk_65.mp4	0.0	123.85428023338318	2.508288860321045
20	54.55467700958252	fix_post	2		12.0	18.0	2.5	/experiments/knapen_aot/oldvideos/R_S_yt-fqbi4rGc9dk_65.mp4	0.0	126.36256909370422	0.09990596771240234
21	54.65458297729492	fix_pre	0		9.0	19.0	2.5	/experiments/knapen_aot/oldvideos/S_production_ID_4820325.mp4	0.0	126.46247506141663	0.07506418228149414
21	54.721429109573364	response	0	4		19.0	2.5	/experiments/knapen_aot/oldvideos/S_production_ID_4820325.mp4	0.0	126.52932119369507	
21	54.729647159576416	movie	1		165.0	19.0	2.5	/experiments/knapen_aot/oldvideos/S_production_ID_4820325.mp4	0.0	126.53753924369812	2.508319854736328
21	57.237967014312744	fix_post	2		12.0	19.0	2.5	/experiments/knapen_aot/oldvideos/S_production_ID_4820325.mp4	0.0	129.04585909843445	0.1000821590423584
22	57.3380491733551	fix_pre	0		7.0	20.0	2.5	/experiments/knapen_aot/oldvideos/R_S_yt-MWX0EtpWIs8_286.mp4	0.0	129.1459412574768	0.05819988250732422
22	57.38802409172058	response	0	4		20.0	2.5	/experiments/knapen_aot/oldvideos/R_S_yt-MWX0EtpWIs8_286.mp4	0.0	129.19591617584229	
22	57.39624905586243	movie	1		301.0	20.0	2.5	/experiments/knapen_aot/oldvideos/R_S_yt-MWX0EtpWIs8_286.mp4	0.0	129.20414113998413	2.5083670616149902
22	59.90461611747742	fix_post	2		12.0	20.0	2.5	/experiments/knapen_aot/oldvideos/R_S_yt-MWX0EtpWIs8_286.mp4	0.0	131.71250820159912	0.09999704360961914
23	60.004613161087036	fix_pre	0		16.0	21.0	2.5	blank	1.0	131.81250524520874	0.13332080841064453
23	60.12983298301697	response	0	4		21.0	2.5	blank	1.0	131.93772506713867	
23	60.13793396949768	movie	1		301.0	21.0	2.5	blank	1.0	131.94582605361938	2.508352041244507
23	62.64628601074219	fix_post	2		12.0	21.0	2.5	blank	1.0	134.4541780948639	0.100006103515625
24	62.74629211425781	fix_pre	0		18.0	22.0	2.5	/experiments/knapen_aot/oldvideos/R_S_yt-VQtbKGzI9SE_431.mp4	0.0	134.55418419837952	0.14997005462646484
24	62.888028144836426	response	0	4		22.0	2.5	/experiments/knapen_aot/oldvideos/R_S_yt-VQtbKGzI9SE_431.mp4	0.0	134.69592022895813	
24	62.89626216888428	movie	1		301.0	22.0	2.5	/experiments/knapen_aot/oldvideos/R_S_yt-VQtbKGzI9SE_431.mp4	0.0	134.70415425300598	2.5085039138793945
24	65.40476608276367	fix_post	2		12.0	22.0	2.5	/experiments/knapen_aot/oldvideos/R_S_yt-VQtbKGzI9SE_431.mp4	0.0	137.21265816688538	0.09983992576599121
25	65.50460600852966	fix_pre	0		10.0	23.0	2.5	/experiments/knapen_aot/oldvideos/S_yt-UBqUhu-GEVg_6.mp4	0.0	137.31249809265137	0.0833139419555664
25	65.57972002029419	response	0	4		23.0	2.5	/experiments/knapen_aot/oldvideos/S_yt-UBqUhu-GEVg_6.mp4	0.0	137.3876121044159	
25	65.58791995048523	movie	1		300.0	23.0	2.5	/experiments/knapen_aot/oldvideos/S_yt-UBqUhu-GEVg_6.mp4	0.0	137.39581203460693	2.5084030628204346
25	68.09632301330566	fix_post	2		12.0	23.0	2.5	/experiments/knapen_aot/oldvideos/S_yt-UBqUhu-GEVg_6.mp4	0.0	139.90421509742737	0.09995412826538086
26	68.19627714157104	fix_pre	0		8.0	24.0	2.5	/experiments/knapen_aot/oldvideos/R_S_Xq0a2BWE3zA_53.mp4	0.0	140.00416922569275	0.06676793098449707
26	68.25472116470337	response	0	4		24.0	2.5	/experiments/knapen_aot/oldvideos/R_S_Xq0a2BWE3zA_53.mp4	0.0	140.06261324882507	
26	68.26304507255554	movie	1		301.0	24.0	2.5	/experiments/knapen_aot/oldvideos/R_S_Xq0a2BWE3zA_53.mp4	0.0	140.07093715667725	2.5082459449768066
26	70.77129101753235	fix_post	2		12.0	24.0	2.5	/experiments/knapen_aot/oldvideos/R_S_Xq0a2BWE3zA_53.mp4	0.0	142.57918310165405	0.09995412826538086
27	70.87124514579773	fix_pre	0		19.0	25.0	2.5	/experiments/knapen_aot/oldvideos/R_S_yt-t8NfuFA7OlM_26.mp4	0.0	142.67913722991943	0.15836787223815918
27	71.0214421749115	response	0	4		25.0	2.5	/experiments/knapen_aot/oldvideos/R_S_yt-t8NfuFA7OlM_26.mp4	0.0	142.8293342590332	
27	71.02961301803589	movie	1		301.0	25.0	2.5	/experiments/knapen_aot/oldvideos/R_S_yt-t8NfuFA7OlM_26.mp4	0.0	142.8375051021576	2.508419990539551
27	73.53803300857544	fix_post	2		12.0	25.0	2.5	/experiments/knapen_aot/oldvideos/R_S_yt-t8NfuFA7OlM_26.mp4	0.0	145.34592509269714	0.09986209869384766
28	73.63789510726929	fix_pre	0		12.0	26.0	2.5	/experiments/knapen_aot/oldvideos/R_S_yt-jQrMcUCmAaM_44.mp4	0.0	145.445787191391	0.10004305839538574
28	73.72966694831848	response	0	4		26.0	2.5	/experiments/knapen_aot/oldvideos/R_S_yt-jQrMcUCmAaM_44.mp4	0.0	145.53755903244019	
28	73.73793816566467	movie	1		301.0	26.0	2.5	/experiments/knapen_aot/oldvideos/R_S_yt-jQrMcUCmAaM_44.mp4	0.0	145.54583024978638	2.5083138942718506
28	76.24625205993652	fix_post	2		12.0	26.0	2.5	/experiments/knapen_aot/oldvideos/R_S_yt-jQrMcUCmAaM_44.mp4	0.0	148.05414414405823	0.10001397132873535
29	76.34626603126526	fix_pre	0		17.0	27.0	2.5	blank	1.0	148.15415811538696	0.14166593551635742
29	76.47970509529114	response	0	4		27.0	2.5	blank	1.0	148.28759717941284	
29	76.48793196678162	movie	1		301.0	27.0	2.5	blank	1.0	148.29582405090332	2.5083141326904297
29	78.93799996376038	response	1	4		27.0	2.5	blank	1.0	150.74589204788208	
29	78.99624609947205	fix_post	2		12.0	27.0	2.5	blank	1.0	150.80413818359375	0.10014891624450684
30	79.09639501571655	fix_pre	0		8.0	28.0	2.5	/experiments/knapen_aot/oldvideos/S_production_ID_4101309.mp4	0.0	150.90428709983826	0.06669807434082031
30	79.15468096733093	response	0	4		28.0	2.5	/experiments/knapen_aot/oldvideos/S_production_ID_4101309.mp4	0.0	150.96257305145264	
30	79.16309309005737	movie	1		190.0	28.0	2.5	/experiments/knapen_aot/oldvideos/S_production_ID_4101309.mp4	0.0	150.97098517417908	2.5081260204315186
30	81.67121911048889	fix_post	2		12.0	28.0	2.5	/experiments/knapen_aot/oldvideos/S_production_ID_4101309.mp4	0.0	153.4791111946106	0.09997105598449707
31	81.77119016647339	fix_pre	0		11.0	29.0	2.5	/experiments/knapen_aot/oldvideos/R_S_yt-W4Shvmb1JYs_258.mp4	0.0	153.5790822505951	0.09164595603942871
31	81.85463094711304	response	0	4		29.0	2.5	/experiments/knapen_aot/oldvideos/R_S_yt-W4Shvmb1JYs_258.mp4	0.0	153.66252303123474	
31	81.86283612251282	movie	1		301.0	29.0	2.5	/experiments/knapen_aot/oldvideos/R_S_yt-W4Shvmb1JYs_258.mp4	0.0	153.67072820663452	2.508452892303467
31	84.37128901481628	fix_post	2		12.0	29.0	2.5	/experiments/knapen_aot/oldvideos/R_S_yt-W4Shvmb1JYs_258.mp4	0.0	156.179181098938	0.09993600845336914
32	84.47122502326965	fix_pre	0		7.0	30.0	2.5	/experiments/knapen_aot/oldvideos/R_S_comp_N008_C003_PS_v01_SDR_PS_20180925_SDR_2K_AVC.mp4	0.0	156.27911710739136	0.058218955993652344
32	84.52125000953674	response	0	4		30.0	2.5	/experiments/knapen_aot/oldvideos/R_S_comp_N008_C003_PS_v01_SDR_PS_20180925_SDR_2K_AVC.mp4	0.0	156.32914209365845	
32	84.5294439792633	movie	1		163.0	30.0	2.5	/experiments/knapen_aot/oldvideos/R_S_comp_N008_C003_PS_v01_SDR_PS_20180925_SDR_2K_AVC.mp4	0.0	156.337336063385	2.5085361003875732
32	86.9463701248169	response	1	4		30.0	2.5	/experiments/knapen_aot/oldvideos/R_S_comp_N008_C003_PS_v01_SDR_PS_20180925_SDR_2K_AVC.mp4	0.0	158.7542622089386	
32	87.03798007965088	fix_post	2		12.0	30.0	2.5	/experiments/knapen_aot/oldvideos/R_S_comp_N008_C003_PS_v01_SDR_PS_20180925_SDR_2K_AVC.mp4	0.0	158.84587216377258	0.0999460220336914
32	87.12962698936462	response	2	4		30.0	2.5	/experiments/knapen_aot/oldvideos/R_S_comp_N008_C003_PS_v01_SDR_PS_20180925_SDR_2K_AVC.mp4	0.0	158.93751907348633	
33	87.13792610168457	fix_pre	0		47.0	31.0	2.5	/experiments/knapen_aot/oldvideos/R_S_yt-QFGyhhr1KSQ_9.mp4	0.0	158.94581818580627	0.39159488677978516
33	87.52129817008972	response	0	4		31.0	2.5	/experiments/knapen_aot/oldvideos/R_S_yt-QFGyhhr1KSQ_9.mp4	0.0	159.32919025421143	
33	87.52952098846436	movie	1		301.0	31.0	2.5	/experiments/knapen_aot/oldvideos/R_S_yt-QFGyhhr1KSQ_9.mp4	0.0	159.33741307258606	2.5083091259002686
33	90.03783011436462	fix_post	2		12.0	31.0	2.5	/experiments/knapen_aot/oldvideos/R_S_yt-QFGyhhr1KSQ_9.mp4	0.0	161.84572219848633	0.10007905960083008
34	90.13790917396545	fix_pre	0		13.0	32.0	2.5	/experiments/knapen_aot/oldvideos/S_yt-NOnR6C2sjpI_97.mp4	0.0	161.94580125808716	0.10826992988586426
34	90.23799014091492	response	0	4		32.0	2.5	/experiments/knapen_aot/oldvideos/S_yt-NOnR6C2sjpI_97.mp4	0.0	162.04588222503662	
34	90.24617910385132	movie	1		301.0	32.0	2.5	/experiments/knapen_aot/oldvideos/S_yt-NOnR6C2sjpI_97.mp4	0.0	162.05407118797302	2.5083489418029785
34	92.7545280456543	fix_post	2		12.0	32.0	2.5	/experiments/knapen_aot/oldvideos/S_yt-NOnR6C2sjpI_97.mp4	0.0	164.562420129776	0.09998202323913574
35	92.85451006889343	fix_pre	0		1.0	33.0	2.5	blank	1.0	164.66240215301514	0.008343935012817383
35	92.85610699653625	response	0	4		33.0	2.5	blank	1.0	164.66399908065796	
35	92.86285400390625	movie	1		301.0	33.0	2.5	blank	1.0	164.67074608802795	2.5083811283111572
35	95.37123513221741	fix_post	2		12.0	33.0	2.5	blank	1.0	167.1791272163391	0.09997701644897461
35	95.42961096763611	response	2	4		33.0	2.5	blank	1.0	167.2375030517578	
36	95.47121214866638	fix_pre	0		18.0	34.0	2.5	/experiments/knapen_aot/oldvideos/S_ILSVRC2015_train_00682003.mp4	0.0	167.2791042327881	0.14994287490844727
36	95.61291599273682	response	0	4		34.0	2.5	/experiments/knapen_aot/oldvideos/S_ILSVRC2015_train_00682003.mp4	0.0	167.42080807685852	
36	95.62115502357483	movie	1		301.0	34.0	2.5	/experiments/knapen_aot/oldvideos/S_ILSVRC2015_train_00682003.mp4	0.0	167.42904710769653	2.5083720684051514
36	97.98972415924072	response	1	4		34.0	2.5	/experiments/knapen_aot/oldvideos/S_ILSVRC2015_train_00682003.mp4	0.0	169.79761624336243	
36	98.12952709197998	fix_post	2		12.0	34.0	2.5	/experiments/knapen_aot/oldvideos/S_ILSVRC2015_train_00682003.mp4	0.0	169.93741917610168	0.10009598731994629
36	98.20459604263306	response	2	4		34.0	2.5	/experiments/knapen_aot/oldvideos/S_ILSVRC2015_train_00682003.mp4	0.0	170.01248812675476	
37	98.22962307929993	fix_pre	0		41.0	35.0	2.5	/experiments/knapen_aot/oldvideos/S_yt-Tt_LkR4iAt4_11.mp4	0.0	170.03751516342163	0.34151601791381836
37	98.56290602684021	response	0	4		35.0	2.5	/experiments/knapen_aot/oldvideos/S_yt-Tt_LkR4iAt4_11.mp4	0.0	170.3707981109619	
37	98.57113909721375	movie	1		301.0	35.0	2.5	/experiments/knapen_aot/oldvideos/S_yt-Tt_LkR4iAt4_11.mp4	0.0	170.37903118133545	2.5084738731384277
37	101.07961297035217	fix_post	2		12.0	35.0	2.5	/experiments/knapen_aot/oldvideos/S_yt-Tt_LkR4iAt4_11.mp4	0.0	172.88750505447388	0.09987497329711914
38	101.17948794364929	fix_pre	0		16.0	36.0	2.5	/experiments/knapen_aot/oldvideos/R_S_ILSVRC2015_train_00743005.mp4	0.0	172.987380027771	0.13331222534179688
38	101.30456900596619	response	0	4		36.0	2.5	/experiments/knapen_aot/oldvideos/R_S_ILSVRC2015_train_00743005.mp4	0.0	173.1124610900879	
38	101.31280016899109	movie	1		301.0	36.0	2.5	/experiments/knapen_aot/oldvideos/R_S_ILSVRC2015_train_00743005.mp4	0.0	173.1206922531128	2.5083398818969727
38	103.77957797050476	response	1	4		36.0	2.5	/experiments/knapen_aot/oldvideos/R_S_ILSVRC2015_train_00743005.mp4	0.0	175.58747005462646	
38	103.82114005088806	fix_post	2		12.0	36.0	2.5	/experiments/knapen_aot/oldvideos/R_S_ILSVRC2015_train_00743005.mp4	0.0	175.62903213500977	0.09997296333312988
39	103.92111301422119	fix_pre	0		11.0	37.0	2.5	/experiments/knapen_aot/oldvideos/R_S_yt-xqjVM0Vj4mI_161.mp4	0.0	175.7290050983429	0.09163308143615723
39	104.0047459602356	response	0	4		37.0	2.5	/experiments/knapen_aot/oldvideos/R_S_yt-xqjVM0Vj4mI_161.mp4	0.0	175.8126380443573	
39	104.01274609565735	movie	1		301.0	37.0	2.5	/experiments/knapen_aot/oldvideos/R_S_yt-xqjVM0Vj4mI_161.mp4	0.0	175.82063817977905	2.5084869861602783
39	106.52123308181763	fix_post	2		12.0	37.0	2.5	/experiments/knapen_aot/oldvideos/R_S_yt-xqjVM0Vj4mI_161.mp4	0.0	178.32912516593933	0.09992003440856934
40	106.6211531162262	fix_pre	0		14.0	38.0	2.5	/experiments/knapen_aot/oldvideos/R_S_production_ID_4540332.mp4	0.0	178.4290452003479	0.11662888526916504
40	106.72958397865295	response	0	4		38.0	2.5	/experiments/knapen_aot/oldvideos/R_S_production_ID_4540332.mp4	0.0	178.53747606277466	
40	106.73778200149536	movie	1		165.0	38.0	2.5	/experiments/knapen_aot/oldvideos/R_S_production_ID_4540332.mp4	0.0	178.54567408561707	2.5083770751953125
40	109.24615907669067	fix_post	2		12.0	38.0	2.5	/experiments/knapen_aot/oldvideos/R_S_production_ID_4540332.mp4	0.0	181.05405116081238	0.09993410110473633
40	109.32957410812378	response	2	4		38.0	2.5	/experiments/knapen_aot/oldvideos/R_S_production_ID_4540332.mp4	0.0	181.13746619224548	
41	109.34609317779541	fix_pre	0		31.0	39.0	2.5	/experiments/knapen_aot/oldvideos/S_yt-PltpRRYmQQk_62.mp4	0.0	181.15398526191711	0.2583279609680176
41	109.59619903564453	response	0	4		39.0	2.5	/experiments/knapen_aot/oldvideos/S_yt-PltpRRYmQQk_62.mp4	0.0	181.40409111976624	
41	109.60442113876343	movie	1		301.0	39.0	2.5	/experiments/knapen_aot/oldvideos/S_yt-PltpRRYmQQk_62.mp4	0.0	181.41231322288513	2.508387804031372
41	111.97119998931885	response	1	4		39.0	2.5	/experiments/knapen_aot/oldvideos/S_yt-PltpRRYmQQk_62.mp4	0.0	183.77909207344055	
41	112.1128089427948	fix_post	2		12.0	39.0	2.5	/experiments/knapen_aot/oldvideos/S_yt-PltpRRYmQQk_62.mp4	0.0	183.9207010269165	0.10109210014343262
41	112.20449209213257	response	2	4		39.0	2.5	/experiments/knapen_aot/oldvideos/S_yt-PltpRRYmQQk_62.mp4	0.0	184.01238417625427	
42	112.21390104293823	fix_pre	0		30.0	40.0	2.5	/experiments/knapen_aot/oldvideos/R_S_yt-gOoDjhfSPj0_162.mp4	0.0	184.02179312705994	0.2499089241027832
42	112.45457005500793	response	0	4		40.0	2.5	/experiments/knapen_aot/oldvideos/R_S_yt-gOoDjhfSPj0_162.mp4	0.0	184.26246213912964	
42	112.46380996704102	movie	1		301.0	40.0	2.5	/experiments/knapen_aot/oldvideos/R_S_yt-gOoDjhfSPj0_162.mp4	0.0	184.27170205116272	2.5072920322418213
42	114.97110199928284	fix_post	2		12.0	40.0	2.5	/experiments/knapen_aot/oldvideos/R_S_yt-gOoDjhfSPj0_162.mp4	0.0	186.77899408340454	0.10000109672546387
43	115.0711030960083	fix_pre	0		6.0	41.0	2.5	/experiments/knapen_aot/oldvideos/R_S_yt-Zn0YwrsCFOQ_44.mp4	0.0	186.87899518013	0.049965858459472656
43	115.11288094520569	response	0	4		41.0	2.5	/experiments/knapen_aot/oldvideos/R_S_yt-Zn0YwrsCFOQ_44.mp4	0.0	186.9207730293274	
43	115.12106895446777	movie	1		301.0	41.0	2.5	/experiments/knapen_aot/oldvideos/R_S_yt-Zn0YwrsCFOQ_44.mp4	0.0	186.92896103858948	2.5083980560302734
43	117.62946701049805	fix_post	2		12.0	41.0	2.5	/experiments/knapen_aot/oldvideos/R_S_yt-Zn0YwrsCFOQ_44.mp4	0.0	189.43735909461975	0.09998893737792969
44	117.72945594787598	fix_pre	0		8.0	42.0	2.5	blank	1.0	189.53734803199768	0.06666922569274902
44	117.78787517547607	response	0	4		42.0	2.5	blank	1.0	189.59576725959778	
44	117.79612517356873	movie	1		301.0	42.0	2.5	blank	1.0	189.60401725769043	2.50830078125
44	120.30442595481873	fix_post	2		12.0	42.0	2.5	blank	1.0	192.11231803894043	0.10002708435058594
45	120.40445303916931	fix_pre	0		24.0	43.0	2.5	/experiments/knapen_aot/oldvideos/S_yt-l_ioasf6yHg_44.mp4	0.0	192.21234512329102	0.19989991188049316
45	120.58862495422363	response	0	4		43.0	2.5	/experiments/knapen_aot/oldvideos/S_yt-l_ioasf6yHg_44.mp4	0.0	192.39651703834534	
45	120.6043529510498	movie	1		301.0	43.0	2.5	/experiments/knapen_aot/oldvideos/S_yt-l_ioasf6yHg_44.mp4	0.0	192.4122450351715	2.5083651542663574
45	123.11271810531616	fix_post	2		12.0	43.0	2.5	/experiments/knapen_aot/oldvideos/S_yt-l_ioasf6yHg_44.mp4	0.0	194.92061018943787	0.10007190704345703
46	123.21279001235962	fix_pre	0		10.0	44.0	2.5	/experiments/knapen_aot/oldvideos/S_yt-EApB0DJ3ECg_66.mp4	0.0	195.02068209648132	0.0842130184173584
46	123.28785109519958	response	0	4		44.0	2.5	/experiments/knapen_aot/oldvideos/S_yt-EApB0DJ3ECg_66.mp4	0.0	195.0957431793213	
46	123.29700303077698	movie	1		301.0	44.0	2.5	/experiments/knapen_aot/oldvideos/S_yt-EApB0DJ3ECg_66.mp4	0.0	195.10489511489868	2.5072829723358154
46	125.8042860031128	fix_post	2		12.0	44.0	2.5	/experiments/knapen_aot/oldvideos/S_yt-EApB0DJ3ECg_66.mp4	0.0	197.6121780872345	0.10005497932434082
47	125.90434098243713	fix_pre	0		13.0	45.0	2.5	/experiments/knapen_aot/oldvideos/S_yt-2y6A9DJPsDU_65.mp4	0.0	197.71223306655884	0.10831212997436523
47	126.00443410873413	response	0	4		45.0	2.5	/experiments/knapen_aot/oldvideos/S_yt-2y6A9DJPsDU_65.mp4	0.0	197.81232619285583	
47	126.0126531124115	movie	1		301.0	45.0	2.5	/experiments/knapen_aot/oldvideos/S_yt-2y6A9DJPsDU_65.mp4	0.0	197.8205451965332	2.508404016494751
47	128.52105712890625	fix_post	2		12.0	45.0	2.5	/experiments/knapen_aot/oldvideos/S_yt-2y6A9DJPsDU_65.mp4	0.0	200.32894921302795	0.09993982315063477
48	128.62099695205688	fix_pre	0		29.0	46.0	2.5	/experiments/knapen_aot/oldvideos/R_S_wc-oyG6AjP_W2EL_15.mp4	0.0	200.4288890361786	0.24164915084838867
48	128.85445404052734	response	0	4		46.0	2.5	/experiments/knapen_aot/oldvideos/R_S_wc-oyG6AjP_W2EL_15.mp4	0.0	200.66234612464905	
48	128.86264610290527	movie	1		301.0	46.0	2.5	/experiments/knapen_aot/oldvideos/R_S_wc-oyG6AjP_W2EL_15.mp4	0.0	200.67053818702698	2.50834584236145
48	131.37099194526672	fix_post	2		12.0	46.0	2.5	/experiments/knapen_aot/oldvideos/R_S_wc-oyG6AjP_W2EL_15.mp4	0.0	203.17888402938843	0.1000051498413086
49	131.47099709510803	fix_pre	0		34.0	47.0	2.5	/experiments/knapen_aot/oldvideos/S_yt-BW6jWEVbxxk_4.mp4	0.0	203.27888917922974	0.2844250202178955
49	131.7461221218109	response	0	4		47.0	2.5	/experiments/knapen_aot/oldvideos/S_yt-BW6jWEVbxxk_4.mp4	0.0	203.55401420593262	
49	131.75542211532593	movie	1		301.0	47.0	2.5	/experiments/knapen_aot/oldvideos/S_yt-BW6jWEVbxxk_4.mp4	0.0	203.56331419944763	2.5072100162506104
49	134.26263213157654	fix_post	2		12.0	47.0	2.5	/experiments/knapen_aot/oldvideos/S_yt-BW6jWEVbxxk_4.mp4	0.0	206.07052421569824	0.09998083114624023
50	134.36261296272278	fix_pre	0		24.0	48.0	2.5	blank	1.0	206.17050504684448	0.20002317428588867
50	134.55446100234985	response	0	4		48.0	2.5	blank	1.0	206.36235308647156	
50	134.56263613700867	movie	1		301.0	48.0	2.5	blank	1.0	206.37052822113037	2.5083248615264893
50	137.07096099853516	fix_post	2		12.0	48.0	2.5	blank	1.0	208.87885308265686	0.09999299049377441
51	137.17095398902893	fix_pre	0		13.0	49.0	2.5	/experiments/knapen_aot/oldvideos/R_S_yt-Wf-RauSbVgA_56.mp4	0.0	208.97884607315063	0.10832405090332031
51	137.27097606658936	response	0	4		49.0	2.5	/experiments/knapen_aot/oldvideos/R_S_yt-Wf-RauSbVgA_56.mp4	0.0	209.07886815071106	
51	137.27927803993225	movie	1		301.0	49.0	2.5	/experiments/knapen_aot/oldvideos/R_S_yt-Wf-RauSbVgA_56.mp4	0.0	209.08717012405396	2.5083861351013184
51	139.78766417503357	fix_post	2		12.0	49.0	2.5	/experiments/knapen_aot/oldvideos/R_S_yt-Wf-RauSbVgA_56.mp4	0.0	211.59555625915527	0.0999908447265625
52	139.88765501976013	fix_pre	0		10.0	50.0	2.5	/experiments/knapen_aot/oldvideos/S_yt-l_ioasf6yHg_44.mp4	0.0	211.69554710388184	0.08328413963317871
52	139.95520615577698	response	0	4		50.0	2.5	/experiments/knapen_aot/oldvideos/S_yt-l_ioasf6yHg_44.mp4	0.0	211.76309823989868	
52	139.9709391593933	movie	1		301.0	50.0	2.5	/experiments/knapen_aot/oldvideos/S_yt-l_ioasf6yHg_44.mp4	0.0	211.77883124351501	2.5083508491516113
52	142.47929000854492	fix_post	2		12.0	50.0	2.5	/experiments/knapen_aot/oldvideos/S_yt-l_ioasf6yHg_44.mp4	0.0	214.28718209266663	0.10007309913635254
53	142.57936310768127	fix_pre	0		12.0	51.0	2.5	/experiments/knapen_aot/oldvideos/S_yt-urJgH6tpfkU_204.mp4	0.0	214.38725519180298	0.09990787506103516
53	142.6711230278015	response	0	4		51.0	2.5	/experiments/knapen_aot/oldvideos/S_yt-urJgH6tpfkU_204.mp4	0.0	214.47901511192322	
53	142.6792709827423	movie	1		301.0	51.0	2.5	/experiments/knapen_aot/oldvideos/S_yt-urJgH6tpfkU_204.mp4	0.0	214.487163066864	2.5083320140838623
53	145.18760299682617	fix_post	2		12.0	51.0	2.5	/experiments/knapen_aot/oldvideos/S_yt-urJgH6tpfkU_204.mp4	0.0	216.99549508094788	0.10004115104675293
54	145.28764414787292	fix_pre	0		34.0	52.0	2.5	/experiments/knapen_aot/oldvideos/R_S_pexels-mart-production-7698911_1.mp4	0.0	217.09553623199463	0.28327393531799316
54	145.56273317337036	response	0	4		52.0	2.5	/experiments/knapen_aot/oldvideos/R_S_pexels-mart-production-7698911_1.mp4	0.0	217.37062525749207	
54	145.57091808319092	movie	1		180.0	52.0	2.5	/experiments/knapen_aot/oldvideos/R_S_pexels-mart-production-7698911_1.mp4	0.0	217.37881016731262	2.50832200050354
54	148.07924008369446	fix_post	2		12.0	52.0	2.5	/experiments/knapen_aot/oldvideos/R_S_pexels-mart-production-7698911_1.mp4	0.0	219.88713216781616	0.10000109672546387
55	148.17924118041992	fix_pre	0		12.0	53.0	2.5	/experiments/knapen_aot/oldvideos/S_ILSVRC2015_train_00165011.mp4	0.0	219.98713326454163	0.09998583793640137
55	148.26351118087769	response	0	4		53.0	2.5	/experiments/knapen_aot/oldvideos/S_ILSVRC2015_train_00165011.mp4	0.0	220.0714032649994	
55	148.27922701835632	movie	1		301.0	53.0	2.5	/experiments/knapen_aot/oldvideos/S_ILSVRC2015_train_00165011.mp4	0.0	220.08711910247803	2.508345127105713
55	150.78757214546204	fix_post	2		12.0	53.0	2.5	/experiments/knapen_aot/oldvideos/S_ILSVRC2015_train_00165011.mp4	0.0	222.59546422958374	0.10002493858337402
56	150.8875970840454	fix_pre	0		30.0	54.0	2.5	/experiments/knapen_aot/oldvideos/R_S_yt-_BvMLZo0MG0_1226.mp4	0.0	222.69548916816711	0.2499690055847168
56	151.12932205200195	response	0	4		54.0	2.5	/experiments/knapen_aot/oldvideos/R_S_yt-_BvMLZo0MG0_1226.mp4	0.0	222.93721413612366	
56	151.13756608963013	movie	1		301.0	54.0	2.5	/experiments/knapen_aot/oldvideos/R_S_yt-_BvMLZo0MG0_1226.mp4	0.0	222.94545817375183	2.508481025695801
56	153.64604711532593	fix_post	2		12.0	54.0	2.5	/experiments/knapen_aot/oldvideos/R_S_yt-_BvMLZo0MG0_1226.mp4	0.0	225.45393919944763	0.09986686706542969
57	153.74591398239136	fix_pre	0		11.0	55.0	2.5	blank	1.0	225.55380606651306	0.09254312515258789
57	153.8293240070343	response	0	4		55.0	2.5	blank	1.0	225.637216091156	
57	153.83845710754395	movie	1		301.0	55.0	2.5	blank	1.0	225.64634919166565	2.5074238777160645
57	156.34588098526	fix_post	2		12.0	55.0	2.5	blank	1.0	228.1537730693817	0.09996199607849121
58	156.4458429813385	fix_pre	0		23.0	56.0	2.5	/experiments/knapen_aot/oldvideos/R_S_production_ID_4101242.mp4	0.0	228.2537350654602	0.19163298606872559
58	156.62936210632324	response	0	4		56.0	2.5	/experiments/knapen_aot/oldvideos/R_S_production_ID_4101242.mp4	0.0	228.43725419044495	
58	156.63747596740723	movie	1		182.0	56.0	2.5	/experiments/knapen_aot/oldvideos/R_S_production_ID_4101242.mp4	0.0	228.44536805152893	2.5084550380706787
58	159.1459310054779	fix_post	2		12.0	56.0	2.5	/experiments/knapen_aot/oldvideos/R_S_production_ID_4101242.mp4	0.0	230.9538230895996	0.10001397132873535
59	159.24594497680664	fix_pre	0		7.0	57.0	2.5	/experiments/knapen_aot/oldvideos/S_yt-XtzmBXKYEWk_60.mp4	0.0	231.05383706092834	0.05826616287231445
59	159.2960000038147	response	0	4		57.0	2.5	/experiments/knapen_aot/oldvideos/S_yt-XtzmBXKYEWk_60.mp4	0.0	231.1038920879364	
59	159.30421113967896	movie	1		301.0	57.0	2.5	/experiments/knapen_aot/oldvideos/S_yt-XtzmBXKYEWk_60.mp4	0.0	231.11210322380066	2.508359909057617
59	161.81257104873657	fix_post	2		12.0	57.0	2.5	/experiments/knapen_aot/oldvideos/S_yt-XtzmBXKYEWk_60.mp4	0.0	233.62046313285828	0.1000070571899414
60	161.9125781059265	fix_pre	0		22.0	58.0	2.5	/experiments/knapen_aot/oldvideos/S_yt-83nimFMNhrM_131.mp4	0.0	233.72047019004822	0.18327593803405762
60	162.08767414093018	response	0	4		58.0	2.5	/experiments/knapen_aot/oldvideos/S_yt-83nimFMNhrM_131.mp4	0.0	233.89556622505188	
60	162.09585404396057	movie	1		301.0	58.0	2.5	/experiments/knapen_aot/oldvideos/S_yt-83nimFMNhrM_131.mp4	0.0	233.90374612808228	2.5084400177001953
60	164.60429406166077	fix_post	2		12.0	58.0	2.5	/experiments/knapen_aot/oldvideos/S_yt-83nimFMNhrM_131.mp4	0.0	236.41218614578247	0.10002303123474121
61	164.7043170928955	fix_pre	0		21.0	59.0	2.5	/experiments/knapen_aot/oldvideos/S_ILSVRC2015_train_00521000.mp4	0.0	236.5122091770172	0.17571806907653809
61	164.8710479736328	response	0	4		59.0	2.5	/experiments/knapen_aot/oldvideos/S_ILSVRC2015_train_00521000.mp4	0.0	236.67894005775452	
61	164.88003516197205	movie	1		301.0	59.0	2.5	/experiments/knapen_aot/oldvideos/S_ILSVRC2015_train_00521000.mp4	0.0	236.68792724609375	2.507537841796875
61	167.38757300376892	fix_post	2		12.0	59.0	2.5	/experiments/knapen_aot/oldvideos/S_ILSVRC2015_train_00521000.mp4	0.0	239.19546508789062	0.09992694854736328
62	167.48749995231628	fix_pre	0		10.0	60.0	2.5	/experiments/knapen_aot/oldvideos/R_S_yt-Dj42sI_Z-kQ_38.mp4	0.0	239.295392036438	0.08330416679382324
62	167.56262803077698	response	0	4		60.0	2.5	/experiments/knapen_aot/oldvideos/R_S_yt-Dj42sI_Z-kQ_38.mp4	0.0	239.37052011489868	
62	167.5708041191101	movie	1		301.0	60.0	2.5	/experiments/knapen_aot/oldvideos/R_S_yt-Dj42sI_Z-kQ_38.mp4	0.0	239.3786962032318	2.508286952972412
62	170.07909107208252	fix_post	2		12.0	60.0	2.5	/experiments/knapen_aot/oldvideos/R_S_yt-Dj42sI_Z-kQ_38.mp4	0.0	241.88698315620422	0.10004591941833496
63	170.17913699150085	fix_pre	0		10.0	61.0	2.5	/experiments/knapen_aot/oldvideos/S_ILSVRC2015_train_00569006.mp4	0.0	241.98702907562256	0.08328413963317871
63	170.2543079853058	response	0	4		61.0	2.5	/experiments/knapen_aot/oldvideos/S_ILSVRC2015_train_00569006.mp4	0.0	242.0622000694275	
63	170.26242113113403	movie	1		301.0	61.0	2.5	/experiments/knapen_aot/oldvideos/S_ILSVRC2015_train_00569006.mp4	0.0	242.07031321525574	2.508404016494751
63	172.6876449584961	response	1	4		61.0	2.5	/experiments/knapen_aot/oldvideos/S_ILSVRC2015_train_00569006.mp4	0.0	244.4955370426178	
63	172.77082514762878	fix_post	2		12.0	61.0	2.5	/experiments/knapen_aot/oldvideos/S_ILSVRC2015_train_00569006.mp4	0.0	244.5787172317505	0.10001182556152344
64	172.8708369731903	fix_pre	0		4.0	62.0	2.5	blank	1.0	244.678729057312	0.03324007987976074
64	172.89593195915222	response	0	4		62.0	2.5	blank	1.0	244.70382404327393	
64	172.90407705307007	movie	1		301.0	62.0	2.5	blank	1.0	244.71196913719177	2.5083200931549072
64	175.0542540550232	response	1	4		62.0	2.5	blank	1.0	246.8621461391449	
64	175.24577808380127	response	1	4		62.0	2.5	blank	1.0	247.05367016792297	
64	175.41239714622498	fix_post	2		12.0	62.0	2.5	blank	1.0	247.22028923034668	0.10026288032531738
64	175.42923712730408	response	2	4		62.0	2.5	blank	1.0	247.23712921142578	
65	175.5126600265503	fix_pre	0		13.0	63.0	2.5	/experiments/knapen_aot/oldvideos/S_Pexels_Videos_2795171.mp4	0.0	247.320552110672	0.10810995101928711
65	175.6124370098114	response	0	4		63.0	2.5	/experiments/knapen_aot/oldvideos/S_Pexels_Videos_2795171.mp4	0.0	247.4203290939331	
65	175.62076997756958	movie	1		165.0	63.0	2.5	/experiments/knapen_aot/oldvideos/S_Pexels_Videos_2795171.mp4	0.0	247.42866206169128	2.5083701610565186
65	177.72859811782837	response	1	4		63.0	2.5	/experiments/knapen_aot/oldvideos/S_Pexels_Videos_2795171.mp4	0.0	249.53649020195007	
65	177.94197511672974	response	1	4		63.0	2.5	/experiments/knapen_aot/oldvideos/S_Pexels_Videos_2795171.mp4	0.0	249.74986720085144	
65	178.1291401386261	fix_post	2		12.0	63.0	2.5	/experiments/knapen_aot/oldvideos/S_Pexels_Videos_2795171.mp4	0.0	249.9370322227478	0.10001897811889648
65	178.1458010673523	response	2	4		63.0	2.5	/experiments/knapen_aot/oldvideos/S_Pexels_Videos_2795171.mp4	0.0	249.953693151474	
66	178.229159116745	fix_pre	0		15.0	64.0	2.5	/experiments/knapen_aot/oldvideos/R_S_yt-Tt_LkR4iAt4_11.mp4	0.0	250.0370512008667	0.12494397163391113
66	178.34577298164368	response	0	4		64.0	2.5	/experiments/knapen_aot/oldvideos/R_S_yt-Tt_LkR4iAt4_11.mp4	0.0	250.15366506576538	
66	178.3541030883789	movie	1		301.0	64.0	2.5	/experiments/knapen_aot/oldvideos/R_S_yt-Tt_LkR4iAt4_11.mp4	0.0	250.1619951725006	2.5083329677581787
66	180.73753714561462	response	1	4		64.0	2.5	/experiments/knapen_aot/oldvideos/R_S_yt-Tt_LkR4iAt4_11.mp4	0.0	252.54542922973633	
66	180.86243605613708	fix_post	2		12.0	64.0	2.5	/experiments/knapen_aot/oldvideos/R_S_yt-Tt_LkR4iAt4_11.mp4	0.0	252.6703281402588	0.10002303123474121
67	180.96245908737183	fix_pre	0		3.0	65.0	2.5	/experiments/knapen_aot/oldvideos/S_yt-gOoDjhfSPj0_162.mp4	0.0	252.77035117149353	0.024930953979492188
67	180.97925806045532	response	0	4		65.0	2.5	/experiments/knapen_aot/oldvideos/S_yt-gOoDjhfSPj0_162.mp4	0.0	252.78715014457703	
67	180.98739004135132	movie	1		301.0	65.0	2.5	/experiments/knapen_aot/oldvideos/S_yt-gOoDjhfSPj0_162.mp4	0.0	252.79528212547302	2.508327007293701
67	183.49571704864502	fix_post	2		12.0	65.0	2.5	/experiments/knapen_aot/oldvideos/S_yt-gOoDjhfSPj0_162.mp4	0.0	255.30360913276672	0.10005402565002441
68	183.59577107429504	fix_pre	0		7.0	66.0	2.5	/experiments/knapen_aot/oldvideos/S_yt-CeOZeB1LXwE_79.mp4	0.0	255.40366315841675	0.05832505226135254
68	183.6458580493927	response	0	4		66.0	2.5	/experiments/knapen_aot/oldvideos/S_yt-CeOZeB1LXwE_79.mp4	0.0	255.4537501335144	
68	183.6540961265564	movie	1		301.0	66.0	2.5	/experiments/knapen_aot/oldvideos/S_yt-CeOZeB1LXwE_79.mp4	0.0	255.4619882106781	2.508457899093628
68	186.16255402565002	fix_post	2		12.0	66.0	2.5	/experiments/knapen_aot/oldvideos/S_yt-CeOZeB1LXwE_79.mp4	0.0	257.97044610977173	0.09980106353759766
69	186.26235508918762	fix_pre	0		57.0	67.0	2.5	/experiments/knapen_aot/oldvideos/R_S_ILSVRC2015_train_00460000.mp4	0.0	258.0702471733093	0.47499895095825195
69	186.7292251586914	response	0	4		67.0	2.5	/experiments/knapen_aot/oldvideos/R_S_ILSVRC2015_train_00460000.mp4	0.0	258.5371172428131	
69	186.73735404014587	movie	1		301.0	67.0	2.5	/experiments/knapen_aot/oldvideos/R_S_ILSVRC2015_train_00460000.mp4	0.0	258.5452461242676	2.508388042449951
69	189.24574208259583	fix_post	2		12.0	67.0	2.5	/experiments/knapen_aot/oldvideos/R_S_ILSVRC2015_train_00460000.mp4	0.0	261.05363416671753	0.10008597373962402
70	189.34582805633545	fix_pre	0		45.0	68.0	2.5	/experiments/knapen_aot/oldvideos/S_yt-qiPhBL4lBr0_44.mp4	0.0	261.15372014045715	0.3748469352722168
70	189.71249914169312	response	0	4		68.0	2.5	/experiments/knapen_aot/oldvideos/S_yt-qiPhBL4lBr0_44.mp4	0.0	261.5203912258148	
70	189.72067499160767	movie	1		301.0	68.0	2.5	/experiments/knapen_aot/oldvideos/S_yt-qiPhBL4lBr0_44.mp4	0.0	261.52856707572937	2.508445978164673
70	192.22912096977234	fix_post	2		12.0	68.0	2.5	/experiments/knapen_aot/oldvideos/S_yt-qiPhBL4lBr0_44.mp4	0.0	264.03701305389404	0.09990906715393066
71	192.32903003692627	fix_pre	0		36.0	69.0	2.5	/experiments/knapen_aot/oldvideos/S_yt-6DJulOrg2-8_122.mp4	0.0	264.136922121048	0.3007349967956543
71	192.61329317092896	response	0	4		69.0	2.5	/experiments/knapen_aot/oldvideos/S_yt-6DJulOrg2-8_122.mp4	0.0	264.42118525505066	
71	192.62976503372192	movie	1		301.0	69.0	2.5	/experiments/knapen_aot/oldvideos/S_yt-6DJulOrg2-8_122.mp4	0.0	264.4376571178436	2.5076191425323486
71	195.13738417625427	fix_post	2		12.0	69.0	2.5	/experiments/knapen_aot/oldvideos/S_yt-6DJulOrg2-8_122.mp4	0.0	266.945276260376	0.1000528335571289
72	195.2374370098114	fix_pre	0		12.0	70.0	2.5	blank	1.0	267.0453290939331	0.10064315795898438
72	195.3291630744934	response	0	4		70.0	2.5	blank	1.0	267.1370551586151	
72	195.33808016777039	movie	1		301.0	70.0	2.5	blank	1.0	267.1459722518921	2.507624864578247
72	197.84570503234863	fix_post	2		12.0	70.0	2.5	blank	1.0	269.65359711647034	0.10018801689147949
73	197.9458930492401	fix_pre	0		73.0	71.0	2.5	/experiments/knapen_aot/oldvideos/R_S_yt-DmlSN7mzczI_62.mp4	0.0	269.7537851333618	0.6080970764160156
73	198.5458209514618	response	0	4		71.0	2.5	/experiments/knapen_aot/oldvideos/R_S_yt-DmlSN7mzczI_62.mp4	0.0	270.3537130355835	
73	198.55399012565613	movie	1		301.0	71.0	2.5	/experiments/knapen_aot/oldvideos/R_S_yt-DmlSN7mzczI_62.mp4	0.0	270.36188220977783	2.508368968963623
73	201.06235909461975	fix_post	2		12.0	71.0	2.5	/experiments/knapen_aot/oldvideos/R_S_yt-DmlSN7mzczI_62.mp4	0.0	272.87025117874146	0.09992599487304688
74	201.1622850894928	fix_pre	0		29.0	72.0	2.5	/experiments/knapen_aot/oldvideos/S_pexels-anastasia-shuraeva-6014070.mp4	0.0	272.9701771736145	0.24170398712158203
74	201.39584612846375	response	0	4		72.0	2.5	/experiments/knapen_aot/oldvideos/S_pexels-anastasia-shuraeva-6014070.mp4	0.0	273.20373821258545	
74	201.40398907661438	movie	1		189.0	72.0	2.5	/experiments/knapen_aot/oldvideos/S_pexels-anastasia-shuraeva-6014070.mp4	0.0	273.2118811607361	2.508342981338501
74	203.91233205795288	fix_post	2		12.0	72.0	2.5	/experiments/knapen_aot/oldvideos/S_pexels-anastasia-shuraeva-6014070.mp4	0.0	275.7202241420746	0.10003495216369629
75	204.01236701011658	fix_pre	0		23.0	73.0	2.5	/experiments/knapen_aot/oldvideos/R_S_yt-6DJulOrg2-8_122.mp4	0.0	275.8202590942383	0.19163203239440918
75	204.19577407836914	response	0	4		73.0	2.5	/experiments/knapen_aot/oldvideos/R_S_yt-6DJulOrg2-8_122.mp4	0.0	276.00366616249084	
75	204.203999042511	movie	1		301.0	73.0	2.5	/experiments/knapen_aot/oldvideos/R_S_yt-6DJulOrg2-8_122.mp4	0.0	276.0118911266327	2.5083980560302734
75	206.71239709854126	fix_post	2		12.0	73.0	2.5	/experiments/knapen_aot/oldvideos/R_S_yt-6DJulOrg2-8_122.mp4	0.0	278.52028918266296	0.10013890266418457
76	206.81253600120544	fix_pre	0		22.0	74.0	2.5	/experiments/knapen_aot/oldvideos/R_S_pexels-cottonbro-10639398.mp4	0.0	278.62042808532715	0.18315815925598145
76	206.97992515563965	response	0	4		74.0	2.5	/experiments/knapen_aot/oldvideos/R_S_pexels-cottonbro-10639398.mp4	0.0	278.78781723976135	
76	206.99569416046143	movie	1		197.0	74.0	2.5	/experiments/knapen_aot/oldvideos/R_S_pexels-cottonbro-10639398.mp4	0.0	278.80358624458313	2.508366823196411
76	209.50406098365784	fix_post	2		12.0	74.0	2.5	/experiments/knapen_aot/oldvideos/R_S_pexels-cottonbro-10639398.mp4	0.0	281.31195306777954	0.10005617141723633
77	209.60411715507507	fix_pre	0		17.0	75.0	2.5	/experiments/knapen_aot/oldvideos/S_ILSVRC2015_train_00363000.mp4	0.0	281.4120092391968	0.14159083366394043
77	209.72999596595764	response	0	4		75.0	2.5	/experiments/knapen_aot/oldvideos/S_ILSVRC2015_train_00363000.mp4	0.0	281.53788805007935	
77	209.745707988739	movie	1		301.0	75.0	2.5	/experiments/knapen_aot/oldvideos/S_ILSVRC2015_train_00363000.mp4	0.0	281.5536000728607	2.5082390308380127
77	212.25394701957703	fix_post	2		12.0	75.0	2.5	/experiments/knapen_aot/oldvideos/S_ILSVRC2015_train_00363000.mp4	0.0	284.06183910369873	0.10002899169921875
78	212.35397601127625	fix_pre	0		16.0	76.0	2.5	/experiments/knapen_aot/oldvideos/S_yt-6DJulOrg2-8_122.mp4	0.0	284.16186809539795	0.1333169937133789
78	212.47905111312866	response	0	4		76.0	2.5	/experiments/knapen_aot/oldvideos/S_yt-6DJulOrg2-8_122.mp4	0.0	284.28694319725037	
78	212.48729300498962	movie	1		301.0	76.0	2.5	/experiments/knapen_aot/oldvideos/S_yt-6DJulOrg2-8_122.mp4	0.0	284.2951850891113	2.508357048034668
78	214.9956500530243	fix_post	2		12.0	76.0	2.5	/experiments/knapen_aot/oldvideos/S_yt-6DJulOrg2-8_122.mp4	0.0	286.803542137146	0.09996795654296875
79	215.09561800956726	fix_pre	0		19.0	77.0	2.5	blank	1.0	286.90351009368896	0.1589200496673584
79	215.23821115493774	response	0	4		77.0	2.5	blank	1.0	287.04610323905945	
79	215.25453805923462	movie	1		301.0	77.0	2.5	blank	1.0	287.0624301433563	2.50777006149292
79	217.76230812072754	fix_post	2		12.0	77.0	2.5	blank	1.0	289.57020020484924	0.09993600845336914
80	217.8622441291809	fix_pre	0		44.0	78.0	2.5	/experiments/knapen_aot/oldvideos/R_S_yt-1H8sfkZGZK8_3.mp4	0.0	289.6701362133026	0.3666088581085205
80	218.22069716453552	response	0	4		78.0	2.5	/experiments/knapen_aot/oldvideos/R_S_yt-1H8sfkZGZK8_3.mp4	0.0	290.0285892486572	
80	218.22885298728943	movie	1		301.0	78.0	2.5	/experiments/knapen_aot/oldvideos/R_S_yt-1H8sfkZGZK8_3.mp4	0.0	290.03674507141113	2.508404016494751
80	220.73725700378418	fix_post	2		12.0	78.0	2.5	/experiments/knapen_aot/oldvideos/R_S_yt-1H8sfkZGZK8_3.mp4	0.0	292.5451490879059	0.10001516342163086
81	220.8372721672058	fix_pre	0		29.0	79.0	2.5	/experiments/knapen_aot/oldvideos/R_S_comp_N008_C009_PS_v01_SDR_PS_20180925_SDR_2K_AVC.mp4	0.0	292.6451642513275	0.24176788330078125
81	221.0631501674652	response	0	4		79.0	2.5	/experiments/knapen_aot/oldvideos/R_S_comp_N008_C009_PS_v01_SDR_PS_20180925_SDR_2K_AVC.mp4	0.0	292.8710422515869	
81	221.0790400505066	movie	1		169.0	79.0	2.5	/experiments/knapen_aot/oldvideos/R_S_comp_N008_C009_PS_v01_SDR_PS_20180925_SDR_2K_AVC.mp4	0.0	292.8869321346283	2.5082309246063232
81	223.58727097511292	fix_post	2		12.0	79.0	2.5	/experiments/knapen_aot/oldvideos/R_S_comp_N008_C009_PS_v01_SDR_PS_20180925_SDR_2K_AVC.mp4	0.0	295.3951630592346	0.10008907318115234
82	223.68736004829407	fix_pre	0		31.0	80.0	2.5	/experiments/knapen_aot/oldvideos/R_S_yt-GfPep7IhZIU_47.mp4	0.0	295.49525213241577	0.25817012786865234
82	223.93740010261536	response	0	4		80.0	2.5	/experiments/knapen_aot/oldvideos/R_S_yt-GfPep7IhZIU_47.mp4	0.0	295.74529218673706	
82	223.94553017616272	movie	1		301.0	80.0	2.5	/experiments/knapen_aot/oldvideos/R_S_yt-GfPep7IhZIU_47.mp4	0.0	295.7534222602844	2.5084168910980225
82	226.45394706726074	fix_post	2		12.0	80.0	2.5	/experiments/knapen_aot/oldvideos/R_S_yt-GfPep7IhZIU_47.mp4	0.0	298.26183915138245	0.10016703605651855
83	226.55411410331726	fix_pre	0		24.0	81.0	2.5	/experiments/knapen_aot/oldvideos/R_S_yt-2pRKCSgdXXU_30.mp4	0.0	298.36200618743896	0.20041799545288086
83	226.74568796157837	response	0	4		81.0	2.5	/experiments/knapen_aot/oldvideos/R_S_yt-2pRKCSgdXXU_30.mp4	0.0	298.5535800457001	
83	226.75453209877014	movie	1		301.0	81.0	2.5	/experiments/knapen_aot/oldvideos/R_S_yt-2pRKCSgdXXU_30.mp4	0.0	298.56242418289185	2.5077500343322754
83	229.26228213310242	fix_post	2		12.0	81.0	2.5	/experiments/knapen_aot/oldvideos/R_S_yt-2pRKCSgdXXU_30.mp4	0.0	301.0701742172241	0.09995198249816895
84	229.3622341156006	fix_pre	0		22.0	82.0	2.5	blank	1.0	301.1701261997223	0.18387889862060547
84	229.53734397888184	response	0	4		82.0	2.5	blank	1.0	301.34523606300354	
84	229.5461130142212	movie	1		301.0	82.0	2.5	blank	1.0	301.3540050983429	2.508193016052246
84	232.05430603027344	fix_post	2		12.0	82.0	2.5	blank	1.0	303.86219811439514	0.09969496726989746
85	232.15400099754333	fix_pre	0		37.0	83.0	2.5	/experiments/knapen_aot/oldvideos/S_yt-t8NfuFA7OlM_26.mp4	0.0	303.96189308166504	0.30879712104797363
85	232.45392608642578	response	0	4		83.0	2.5	/experiments/knapen_aot/oldvideos/S_yt-t8NfuFA7OlM_26.mp4	0.0	304.2618181705475	
85	232.4627981185913	movie	1		301.0	83.0	2.5	/experiments/knapen_aot/oldvideos/S_yt-t8NfuFA7OlM_26.mp4	0.0	304.270690202713	2.5078048706054688
85	234.97060298919678	fix_post	2		12.0	83.0	2.5	/experiments/knapen_aot/oldvideos/S_yt-t8NfuFA7OlM_26.mp4	0.0	306.7784950733185	0.09993910789489746
87	235.07054209709167	stim	0		202.0					306.8784341812134	1.6837458610534668
87	235.43740010261536	response	0	4						307.24529218673706	
87	236.74947214126587	response	0	space						308.5573642253876	
