trial_nr	onset	event_type	phase	response	nr_frames	movie_index	movie_duration	movie_file	blank	onset_abs	duration
0	0.1334209442138672	stim	0		50.0					67.98327302932739	0.41653013229370117
0	0.5418679714202881	response	0	space						68.39172005653381	
1	0.5499510765075684	stim	0		121.0					68.3998031616211	1.008410930633545
1	1.5583620071411133	stim	1		120.0					69.40821409225464	0.9996378421783447
1	1.9496960639953613	response	1	space						69.79954814910889	
2	2.557999849319458	fix_pre	0		53.0	0.0	2.5	/experiments/knapen_aot/videos/R_S_yt-oxUpc8I5wWQ_238.mp4	0.0	70.40785193443298	0.44178009033203125
2	2.9914698600769043	response	0	space		0.0	2.5	/experiments/knapen_aot/videos/R_S_yt-oxUpc8I5wWQ_238.mp4	0.0	70.84132194519043	
2	2.9997799396514893	movie	1		300.0	0.0	2.5	/experiments/knapen_aot/videos/R_S_yt-oxUpc8I5wWQ_238.mp4	0.0	70.84963202476501	2.5082039833068848
2	5.507983922958374	fix_post	2		12.0	0.0	2.5	/experiments/knapen_aot/videos/R_S_yt-oxUpc8I5wWQ_238.mp4	0.0	73.3578360080719	0.09994101524353027
3	5.607924938201904	fix_pre	0		78.0	1.0	2.5	/experiments/knapen_aot/videos/R_S_yt-T9Vwt7wFvPk_100.mp4	0.0	73.45777702331543	0.6500189304351807
3	6.250349044799805	response	0	2		1.0	2.5	/experiments/knapen_aot/videos/R_S_yt-T9Vwt7wFvPk_100.mp4	0.0	74.10020112991333	
3	6.257943868637085	movie	1		301.0	1.0	2.5	/experiments/knapen_aot/videos/R_S_yt-T9Vwt7wFvPk_100.mp4	0.0	74.10779595375061	2.5084660053253174
3	8.766409873962402	fix_post	2		12.0	1.0	2.5	/experiments/knapen_aot/videos/R_S_yt-T9Vwt7wFvPk_100.mp4	0.0	76.61626195907593	0.09988117218017578
4	8.866291046142578	fix_pre	0		4.0	2.0	2.5	/experiments/knapen_aot/videos/S_yt-EApB0DJ3ECg_66.mp4	0.0	76.7161431312561	0.035758018493652344
4	8.883936882019043	response	0	2		2.0	2.5	/experiments/knapen_aot/videos/S_yt-EApB0DJ3ECg_66.mp4	0.0	76.73378896713257	
4	8.90204906463623	movie	1		301.0	2.0	2.5	/experiments/knapen_aot/videos/S_yt-EApB0DJ3ECg_66.mp4	0.0	76.75190114974976	2.50586199760437
4	11.4079110622406	fix_post	2		12.0	2.0	2.5	/experiments/knapen_aot/videos/S_yt-EApB0DJ3ECg_66.mp4	0.0	79.25776314735413	0.1000528335571289
5	11.50796389579773	fix_pre	0		10.0	3.0	2.5	/experiments/knapen_aot/videos/R_S_ILSVRC2015_train_00538000.mp4	0.0	79.35781598091125	0.08323407173156738
5	11.583049058914185	response	0	2		3.0	2.5	/experiments/knapen_aot/videos/R_S_ILSVRC2015_train_00538000.mp4	0.0	79.43290114402771	
5	11.591197967529297	movie	1		301.0	3.0	2.5	/experiments/knapen_aot/videos/R_S_ILSVRC2015_train_00538000.mp4	0.0	79.44105005264282	2.5083439350128174
5	14.099541902542114	fix_post	2		12.0	3.0	2.5	/experiments/knapen_aot/videos/R_S_ILSVRC2015_train_00538000.mp4	0.0	81.94939398765564	0.10005307197570801
6	14.199594974517822	fix_pre	0		23.0	4.0	2.5	/experiments/knapen_aot/videos/R_S_yt-ObT9gF8E_tU_250.mp4	0.0	82.04944705963135	0.19166088104248047
6	14.383084058761597	response	0	2		4.0	2.5	/experiments/knapen_aot/videos/R_S_yt-ObT9gF8E_tU_250.mp4	0.0	82.23293614387512	
6	14.391255855560303	movie	1		301.0	4.0	2.5	/experiments/knapen_aot/videos/R_S_yt-ObT9gF8E_tU_250.mp4	0.0	82.24110794067383	2.508333206176758
6	16.89958906173706	fix_post	2		12.0	4.0	2.5	/experiments/knapen_aot/videos/R_S_yt-ObT9gF8E_tU_250.mp4	0.0	84.74944114685059	0.09997987747192383
7	16.999568939208984	fix_pre	0		4.0	5.0	2.5	blank	1.0	84.84942102432251	0.034403085708618164
7	17.02476692199707	response	0	2		5.0	2.5	blank	1.0	84.8746190071106	
7	17.033972024917603	movie	1		301.0	5.0	2.5	blank	1.0	84.88382411003113	2.507197856903076
7	19.416250944137573	response	1	2		5.0	2.5	blank	1.0	87.2661030292511	
7	19.54116988182068	fix_post	2		12.0	5.0	2.5	blank	1.0	87.3910219669342	0.10011100769042969
8	19.64128088951111	fix_pre	0		24.0	6.0	2.5	/experiments/knapen_aot/videos/S_Pexels_Videos_278654_1.mp4	0.0	87.49113297462463	0.20000815391540527
8	19.833157062530518	response	0	2		6.0	2.5	/experiments/knapen_aot/videos/S_Pexels_Videos_278654_1.mp4	0.0	87.68300914764404	
8	19.841289043426514	movie	1		164.0	6.0	2.5	/experiments/knapen_aot/videos/S_Pexels_Videos_278654_1.mp4	0.0	87.69114112854004	2.508316993713379
8	22.349606037139893	fix_post	2		12.0	6.0	2.5	/experiments/knapen_aot/videos/S_Pexels_Videos_278654_1.mp4	0.0	90.19945812225342	0.10003280639648438
9	22.449638843536377	fix_pre	0		12.0	7.0	2.5	/experiments/knapen_aot/videos/R_S_yt-BFA07F4L4S0_22.mp4	0.0	90.2994909286499	0.09990715980529785
9	22.53383493423462	response	0	2		7.0	2.5	/experiments/knapen_aot/videos/R_S_yt-BFA07F4L4S0_22.mp4	0.0	90.38368701934814	
9	22.549546003341675	movie	1		299.0	7.0	2.5	/experiments/knapen_aot/videos/R_S_yt-BFA07F4L4S0_22.mp4	0.0	90.3993980884552	2.5083248615264893
9	25.057870864868164	fix_post	2		12.0	7.0	2.5	/experiments/knapen_aot/videos/R_S_yt-BFA07F4L4S0_22.mp4	0.0	92.90772294998169	0.1000661849975586
10	25.157937049865723	fix_pre	0		160.0	8.0	2.5	/experiments/knapen_aot/videos/S_1y-EvnfGO9Y_70.mp4	0.0	93.00778913497925	1.3341867923736572
10	26.482990980148315	response	0	2		8.0	2.5	/experiments/knapen_aot/videos/S_1y-EvnfGO9Y_70.mp4	0.0	94.33284306526184	
10	26.49212384223938	movie	1		301.0	8.0	2.5	/experiments/knapen_aot/videos/S_1y-EvnfGO9Y_70.mp4	0.0	94.3419759273529	2.507387161254883
10	28.999511003494263	fix_post	2		12.0	8.0	2.5	/experiments/knapen_aot/videos/S_1y-EvnfGO9Y_70.mp4	0.0	96.84936308860779	0.1000208854675293
11	29.099531888961792	fix_pre	0		17.0	9.0	2.5	/experiments/knapen_aot/videos/R_S_ILSVRC2015_train_00001011.mp4	0.0	96.94938397407532	0.1425471305847168
11	29.232975006103516	response	0	2		9.0	2.5	/experiments/knapen_aot/videos/R_S_ILSVRC2015_train_00001011.mp4	0.0	97.08282709121704	
11	29.24207901954651	movie	1		301.0	9.0	2.5	/experiments/knapen_aot/videos/R_S_ILSVRC2015_train_00001011.mp4	0.0	97.09193110466003	2.5074520111083984
11	31.749531030654907	fix_post	2		12.0	9.0	2.5	/experiments/knapen_aot/videos/R_S_ILSVRC2015_train_00001011.mp4	0.0	99.59938311576843	0.10006093978881836
12	31.849591970443726	fix_pre	0		30.0	10.0	2.5	/experiments/knapen_aot/videos/R_S_S005_C015_SDR_2K_AVC.mp4	0.0	99.69944405555725	0.24994301795959473
12	32.09120798110962	response	0	2		10.0	2.5	/experiments/knapen_aot/videos/R_S_S005_C015_SDR_2K_AVC.mp4	0.0	99.94106006622314	
12	32.09953498840332	movie	1		166.0	10.0	2.5	/experiments/knapen_aot/videos/R_S_S005_C015_SDR_2K_AVC.mp4	0.0	99.94938707351685	2.5083789825439453
12	34.607913970947266	fix_post	2		12.0	10.0	2.5	/experiments/knapen_aot/videos/R_S_S005_C015_SDR_2K_AVC.mp4	0.0	102.45776605606079	0.10000991821289062
13	34.707923889160156	fix_pre	0		206.0	11.0	2.5	/experiments/knapen_aot/videos/S_comp_A009_C001_010181A_v09_SDR_PS_FINAL_20180725_SDR_2K_AVC.mp4	0.0	102.55777597427368	1.7166199684143066
13	36.416324853897095	response	0	2		11.0	2.5	/experiments/knapen_aot/videos/S_comp_A009_C001_010181A_v09_SDR_PS_FINAL_20180725_SDR_2K_AVC.mp4	0.0	104.26617693901062	
13	36.42454385757446	movie	1		163.0	11.0	2.5	/experiments/knapen_aot/videos/S_comp_A009_C001_010181A_v09_SDR_PS_FINAL_20180725_SDR_2K_AVC.mp4	0.0	104.27439594268799	2.508341073989868
13	38.93288493156433	fix_post	2		12.0	11.0	2.5	/experiments/knapen_aot/videos/S_comp_A009_C001_010181A_v09_SDR_PS_FINAL_20180725_SDR_2K_AVC.mp4	0.0	106.78273701667786	0.09999394416809082
14	39.03287887573242	fix_pre	0		13.0	12.0	2.5	/experiments/knapen_aot/videos/R_S_yt-BFA07F4L4S0_22.mp4	0.0	106.88273096084595	0.10831308364868164
14	39.1329710483551	response	0	2		12.0	2.5	/experiments/knapen_aot/videos/R_S_yt-BFA07F4L4S0_22.mp4	0.0	106.98282313346863	
14	39.1411919593811	movie	1		301.0	12.0	2.5	/experiments/knapen_aot/videos/R_S_yt-BFA07F4L4S0_22.mp4	0.0	106.99104404449463	2.5083999633789062
14	41.64959192276001	fix_post	2		12.0	12.0	2.5	/experiments/knapen_aot/videos/R_S_yt-BFA07F4L4S0_22.mp4	0.0	109.49944400787354	0.09998512268066406
15	41.749577045440674	fix_pre	0		16.0	13.0	2.5	blank	1.0	109.5994291305542	0.13328194618225098
15	41.87465000152588	response	0	2		13.0	2.5	blank	1.0	109.7245020866394	
15	41.882858991622925	movie	1		301.0	13.0	2.5	blank	1.0	109.73271107673645	2.508312940597534
15	44.39117193222046	fix_post	2		12.0	13.0	2.5	blank	1.0	112.24102401733398	0.10001897811889648
16	44.491190910339355	fix_pre	0		19.0	14.0	2.5	/experiments/knapen_aot/videos/S_ILSVRC2015_train_00067005.mp4	0.0	112.34104299545288	0.1583240032196045
16	44.633771896362305	response	0	2		14.0	2.5	/experiments/knapen_aot/videos/S_ILSVRC2015_train_00067005.mp4	0.0	112.48362398147583	
16	44.64951491355896	movie	1		301.0	14.0	2.5	/experiments/knapen_aot/videos/S_ILSVRC2015_train_00067005.mp4	0.0	112.49936699867249	2.5083420276641846
16	47.157856941223145	fix_post	2		12.0	14.0	2.5	/experiments/knapen_aot/videos/S_ILSVRC2015_train_00067005.mp4	0.0	115.00770902633667	0.09997892379760742
17	47.25783586502075	fix_pre	0		20.0	15.0	2.5	/experiments/knapen_aot/videos/R_S_comp_A001_C001_120530_v04_SDR_FINAL_20180706_SDR_2K_AVC.mp4	0.0	115.10768795013428	0.16663599014282227
17	47.41630697250366	response	0	2		15.0	2.5	/experiments/knapen_aot/videos/R_S_comp_A001_C001_120530_v04_SDR_FINAL_20180706_SDR_2K_AVC.mp4	0.0	115.26615905761719	
17	47.424471855163574	movie	1		166.0	15.0	2.5	/experiments/knapen_aot/videos/R_S_comp_A001_C001_120530_v04_SDR_FINAL_20180706_SDR_2K_AVC.mp4	0.0	115.2743239402771	2.5083870887756348
17	49.93285894393921	fix_post	2		12.0	15.0	2.5	/experiments/knapen_aot/videos/R_S_comp_A001_C001_120530_v04_SDR_FINAL_20180706_SDR_2K_AVC.mp4	0.0	117.78271102905273	0.09997701644897461
18	50.032835960388184	fix_pre	0		18.0	16.0	2.5	/experiments/knapen_aot/videos/R_S_yt-Ojy5TMPX8_Q_165.mp4	0.0	117.88268804550171	0.14997506141662598
18	50.17458200454712	response	0	2		16.0	2.5	/experiments/knapen_aot/videos/R_S_yt-Ojy5TMPX8_Q_165.mp4	0.0	118.02443408966064	
18	50.18281102180481	movie	1		299.0	16.0	2.5	/experiments/knapen_aot/videos/R_S_yt-Ojy5TMPX8_Q_165.mp4	0.0	118.03266310691833	2.5083539485931396
18	52.69116497039795	fix_post	2		11.0	16.0	2.5	/experiments/knapen_aot/videos/R_S_yt-Ojy5TMPX8_Q_165.mp4	0.0	120.54101705551147	0.0924379825592041
18	52.774648904800415	response	2	2		16.0	2.5	/experiments/knapen_aot/videos/R_S_yt-Ojy5TMPX8_Q_165.mp4	0.0	120.62450098991394	
19	52.78360295295715	fix_pre	0		44.0	17.0	2.5	/experiments/knapen_aot/videos/S_yt-c-H45QS0CF4_147.mp4	0.0	120.63345503807068	0.3658480644226074
19	53.14122700691223	response	0	2		17.0	2.5	/experiments/knapen_aot/videos/S_yt-c-H45QS0CF4_147.mp4	0.0	120.99107909202576	
19	53.14945101737976	movie	1		301.0	17.0	2.5	/experiments/knapen_aot/videos/S_yt-c-H45QS0CF4_147.mp4	0.0	120.99930310249329	2.5083398818969727
19	55.65779089927673	fix_post	2		12.0	17.0	2.5	/experiments/knapen_aot/videos/S_yt-c-H45QS0CF4_147.mp4	0.0	123.50764298439026	0.09993195533752441
20	55.75772285461426	fix_pre	0		14.0	18.0	2.5	/experiments/knapen_aot/videos/S_pexels-cottonbro-5780808.mp4	0.0	123.60757493972778	0.11661410331726074
20	55.86627006530762	response	0	2		18.0	2.5	/experiments/knapen_aot/videos/S_pexels-cottonbro-5780808.mp4	0.0	123.71612215042114	
20	55.87433695793152	movie	1		163.0	18.0	2.5	/experiments/knapen_aot/videos/S_pexels-cottonbro-5780808.mp4	0.0	123.72418904304504	2.5084478855133057
20	58.382784843444824	fix_post	2		12.0	18.0	2.5	/experiments/knapen_aot/videos/S_pexels-cottonbro-5780808.mp4	0.0	126.23263692855835	0.100006103515625
21	58.48279094696045	fix_pre	0		30.0	19.0	2.5	blank	1.0	126.33264303207397	0.24994111061096191
21	58.724623918533325	response	0	2		19.0	2.5	blank	1.0	126.57447600364685	
21	58.73273205757141	movie	1		301.0	19.0	2.5	blank	1.0	126.58258414268494	2.508312940597534
21	61.241044998168945	fix_post	2		12.0	19.0	2.5	blank	1.0	129.09089708328247	0.10007500648498535
22	61.34112000465393	fix_pre	0		23.0	20.0	2.5	/experiments/knapen_aot/videos/S_video_inspire_california_catalina_avalon_00053.1080-h264.mp4	0.0	129.19097208976746	0.19233989715576172
22	61.52452492713928	response	0	2		20.0	2.5	/experiments/knapen_aot/videos/S_video_inspire_california_catalina_avalon_00053.1080-h264.mp4	0.0	129.3743770122528	
22	61.53345990180969	movie	1		168.0	20.0	2.5	/experiments/knapen_aot/videos/S_video_inspire_california_catalina_avalon_00053.1080-h264.mp4	0.0	129.38331198692322	2.5075600147247314
22	64.04101991653442	fix_post	2		12.0	20.0	2.5	/experiments/knapen_aot/videos/S_video_inspire_california_catalina_avalon_00053.1080-h264.mp4	0.0	131.89087200164795	0.10001611709594727
22	64.1078269481659	response	2	2		20.0	2.5	/experiments/knapen_aot/videos/S_video_inspire_california_catalina_avalon_00053.1080-h264.mp4	0.0	131.95767903327942	
23	64.14103603363037	fix_pre	0		41.0	21.0	2.5	/experiments/knapen_aot/videos/S_yt-fk-z6WCvjjA_3.mp4	0.0	131.9908881187439	0.34163904190063477
23	64.47449207305908	response	0	2		21.0	2.5	/experiments/knapen_aot/videos/S_yt-fk-z6WCvjjA_3.mp4	0.0	132.3243441581726	
23	64.482675075531	movie	1		301.0	21.0	2.5	/experiments/knapen_aot/videos/S_yt-fk-z6WCvjjA_3.mp4	0.0	132.33252716064453	2.508403778076172
23	66.99107885360718	fix_post	2		12.0	21.0	2.5	/experiments/knapen_aot/videos/S_yt-fk-z6WCvjjA_3.mp4	0.0	134.8409309387207	0.09995818138122559
24	67.0910370349884	fix_pre	0		10.0	22.0	2.5	/experiments/knapen_aot/videos/S_yt-ZTAaH5XbtfE_3.mp4	0.0	134.94088912010193	0.0833439826965332
24	67.16611695289612	response	0	2		22.0	2.5	/experiments/knapen_aot/videos/S_yt-ZTAaH5XbtfE_3.mp4	0.0	135.01596903800964	
24	67.17438101768494	movie	1		301.0	22.0	2.5	/experiments/knapen_aot/videos/S_yt-ZTAaH5XbtfE_3.mp4	0.0	135.02423310279846	2.5083868503570557
24	69.68276786804199	fix_post	2		12.0	22.0	2.5	/experiments/knapen_aot/videos/S_yt-ZTAaH5XbtfE_3.mp4	0.0	137.53261995315552	0.10066509246826172
25	69.78343296051025	fix_pre	0		24.0	23.0	2.5	/experiments/knapen_aot/videos/R_S_yt-ObT9gF8E_tU_250.mp4	0.0	137.63328504562378	0.1993100643157959
25	69.97454690933228	response	0	2		23.0	2.5	/experiments/knapen_aot/videos/R_S_yt-ObT9gF8E_tU_250.mp4	0.0	137.8243989944458	
25	69.98274302482605	movie	1		300.0	23.0	2.5	/experiments/knapen_aot/videos/R_S_yt-ObT9gF8E_tU_250.mp4	0.0	137.83259510993958	2.5082788467407227
25	72.49102187156677	fix_post	2		12.0	23.0	2.5	/experiments/knapen_aot/videos/R_S_yt-ObT9gF8E_tU_250.mp4	0.0	140.3408739566803	0.10003900527954102
26	72.59106087684631	fix_pre	0		182.0	24.0	2.5	/experiments/knapen_aot/videos/S_S005_C015_SDR_2K_AVC.mp4	0.0	140.44091296195984	1.516638994216919
26	74.09953689575195	response	0	2		24.0	2.5	/experiments/knapen_aot/videos/S_S005_C015_SDR_2K_AVC.mp4	0.0	141.94938898086548	
26	74.10769987106323	movie	1		166.0	24.0	2.5	/experiments/knapen_aot/videos/S_S005_C015_SDR_2K_AVC.mp4	0.0	141.95755195617676	2.508345127105713
26	76.61604499816895	fix_post	2		12.0	24.0	2.5	/experiments/knapen_aot/videos/S_S005_C015_SDR_2K_AVC.mp4	0.0	144.46589708328247	0.1000359058380127
27	76.71608090400696	fix_pre	0		12.0	25.0	2.5	/experiments/knapen_aot/videos/S_b2-2.mp4	0.0	144.56593298912048	0.0999610424041748
27	76.80789995193481	response	0	2		25.0	2.5	/experiments/knapen_aot/videos/S_b2-2.mp4	0.0	144.65775203704834	
27	76.81604194641113	movie	1		165.0	25.0	2.5	/experiments/knapen_aot/videos/S_b2-2.mp4	0.0	144.66589403152466	2.508345127105713
27	79.32438707351685	fix_post	2		12.0	25.0	2.5	/experiments/knapen_aot/videos/S_b2-2.mp4	0.0	147.17423915863037	0.09998297691345215
28	79.4243700504303	fix_pre	0		12.0	26.0	2.5	/experiments/knapen_aot/videos/S_production_ID_4765899.mp4	0.0	147.27422213554382	0.09997081756591797
28	79.5162000656128	response	0	2		26.0	2.5	/experiments/knapen_aot/videos/S_production_ID_4765899.mp4	0.0	147.36605215072632	
28	79.52434086799622	movie	1		167.0	26.0	2.5	/experiments/knapen_aot/videos/S_production_ID_4765899.mp4	0.0	147.37419295310974	2.50833797454834
28	82.03267884254456	fix_post	2		12.0	26.0	2.5	/experiments/knapen_aot/videos/S_production_ID_4765899.mp4	0.0	149.88253092765808	0.09996414184570312
29	82.13264298439026	fix_pre	0		16.0	27.0	2.5	/experiments/knapen_aot/videos/R_S_video.mp4	0.0	149.98249506950378	0.1333630084991455
29	82.25776100158691	response	0	2		27.0	2.5	/experiments/knapen_aot/videos/R_S_video.mp4	0.0	150.10761308670044	
29	82.2660059928894	movie	1		167.0	27.0	2.5	/experiments/knapen_aot/videos/R_S_video.mp4	0.0	150.11585807800293	2.508310079574585
29	84.77431607246399	fix_post	2		12.0	27.0	2.5	/experiments/knapen_aot/videos/R_S_video.mp4	0.0	152.62416815757751	0.10000777244567871
30	84.87432384490967	fix_pre	0		126.0	28.0	2.5	blank	1.0	152.7241759300232	1.0499510765075684
30	85.91608905792236	response	0	2		28.0	2.5	blank	1.0	153.7659411430359	
30	85.92427492141724	movie	1		301.0	28.0	2.5	blank	1.0	153.77412700653076	2.508329153060913
30	88.43260407447815	fix_post	2		12.0	28.0	2.5	blank	1.0	156.28245615959167	0.1000218391418457
31	88.53262591362	fix_pre	0		80.0	29.0	2.5	/experiments/knapen_aot/videos/R_S_pexels-koolshooters-7327412.mp4	0.0	156.38247799873352	0.6672070026397705
31	89.19111704826355	response	0	2		29.0	2.5	/experiments/knapen_aot/videos/R_S_pexels-koolshooters-7327412.mp4	0.0	157.04096913337708	
31	89.19983291625977	movie	1		161.0	29.0	2.5	/experiments/knapen_aot/videos/R_S_pexels-koolshooters-7327412.mp4	0.0	157.0496850013733	2.5077850818634033
31	91.70761799812317	fix_post	2		12.0	29.0	2.5	/experiments/knapen_aot/videos/R_S_pexels-koolshooters-7327412.mp4	0.0	159.5574700832367	0.09999704360961914
32	91.80761504173279	fix_pre	0		29.0	30.0	2.5	/experiments/knapen_aot/videos/S_ILSVRC2015_train_00369004.mp4	0.0	159.6574671268463	0.24158191680908203
32	92.04106187820435	response	0	2		30.0	2.5	/experiments/knapen_aot/videos/S_ILSVRC2015_train_00369004.mp4	0.0	159.89091396331787	
32	92.04919695854187	movie	1		300.0	30.0	2.5	/experiments/knapen_aot/videos/S_ILSVRC2015_train_00369004.mp4	0.0	159.8990490436554	2.5083389282226562
32	94.55753588676453	fix_post	2		12.0	30.0	2.5	/experiments/knapen_aot/videos/S_ILSVRC2015_train_00369004.mp4	0.0	162.40738797187805	0.1000370979309082
33	94.65757298469543	fix_pre	0		30.0	31.0	2.5	/experiments/knapen_aot/videos/S_yt-lADkWM79teI_18.mp4	0.0	162.50742506980896	0.2505500316619873
33	94.89939093589783	response	0	2		31.0	2.5	/experiments/knapen_aot/videos/S_yt-lADkWM79teI_18.mp4	0.0	162.74924302101135	
33	94.90812301635742	movie	1		301.0	31.0	2.5	/experiments/knapen_aot/videos/S_yt-lADkWM79teI_18.mp4	0.0	162.75797510147095	2.5077428817749023
33	97.41586589813232	fix_post	2		12.0	31.0	2.5	/experiments/knapen_aot/videos/S_yt-lADkWM79teI_18.mp4	0.0	165.26571798324585	0.10000014305114746
34	97.51586604118347	fix_pre	0		33.0	32.0	2.5	/experiments/knapen_aot/videos/S_yt-Ozx_f0a0ZDI_32.mp4	0.0	165.365718126297	0.2750208377838135
34	97.78271985054016	response	0	2		32.0	2.5	/experiments/knapen_aot/videos/S_yt-Ozx_f0a0ZDI_32.mp4	0.0	165.6325719356537	
34	97.79088687896729	movie	1		301.0	32.0	2.5	/experiments/knapen_aot/videos/S_yt-Ozx_f0a0ZDI_32.mp4	0.0	165.6407389640808	2.508316993713379
34	99.73467087745667	response	1	2		32.0	2.5	/experiments/knapen_aot/videos/S_yt-Ozx_f0a0ZDI_32.mp4	0.0	167.5845229625702	
34	100.22436094284058	response	1	2		32.0	2.5	/experiments/knapen_aot/videos/S_yt-Ozx_f0a0ZDI_32.mp4	0.0	168.0742130279541	
34	100.29920387268066	fix_post	2		12.0	32.0	2.5	/experiments/knapen_aot/videos/S_yt-Ozx_f0a0ZDI_32.mp4	0.0	168.1490559577942	0.09993100166320801
35	100.39913487434387	fix_pre	0		36.0	33.0	2.5	blank	1.0	168.2489869594574	0.3006410598754883
35	100.69092798233032	response	0	2		33.0	2.5	blank	1.0	168.54078006744385	
35	100.69977593421936	movie	1		301.0	33.0	2.5	blank	1.0	168.54962801933289	2.5077669620513916
35	103.20754289627075	fix_post	2		12.0	33.0	2.5	blank	1.0	171.05739498138428	0.0999441146850586
36	103.30748701095581	fix_pre	0		19.0	34.0	2.5	/experiments/knapen_aot/videos/R_S_yt-t-wpKypNysg_27.mp4	0.0	171.15733909606934	0.15842604637145996
36	103.45770502090454	response	0	2		34.0	2.5	/experiments/knapen_aot/videos/R_S_yt-t-wpKypNysg_27.mp4	0.0	171.30755710601807	
36	103.46591305732727	movie	1		301.0	34.0	2.5	/experiments/knapen_aot/videos/R_S_yt-t-wpKypNysg_27.mp4	0.0	171.3157651424408	2.508335828781128
36	105.9742488861084	fix_post	2		12.0	34.0	2.5	/experiments/knapen_aot/videos/R_S_yt-t-wpKypNysg_27.mp4	0.0	173.82410097122192	0.10048198699951172
37	106.07473087310791	fix_pre	0		10.0	35.0	2.5	/experiments/knapen_aot/videos/S_yt-jcuaf9iSEkI_169.mp4	0.0	173.92458295822144	0.0833280086517334
37	106.1495590209961	response	0	2		35.0	2.5	/experiments/knapen_aot/videos/S_yt-jcuaf9iSEkI_169.mp4	0.0	173.99941110610962	
37	106.15805888175964	movie	1		301.0	35.0	2.5	/experiments/knapen_aot/videos/S_yt-jcuaf9iSEkI_169.mp4	0.0	174.00791096687317	2.5078201293945312
37	108.66587901115417	fix_post	2		12.0	35.0	2.5	/experiments/knapen_aot/videos/S_yt-jcuaf9iSEkI_169.mp4	0.0	176.5157310962677	0.09999585151672363
38	108.7658748626709	fix_pre	0		42.0	36.0	2.5	/experiments/knapen_aot/videos/R_S_yt-tX3slAQb9yY_13.mp4	0.0	176.61572694778442	0.3504810333251953
38	109.10010886192322	response	0	2		36.0	2.5	/experiments/knapen_aot/videos/R_S_yt-tX3slAQb9yY_13.mp4	0.0	176.94996094703674	
38	109.1163558959961	movie	1		301.0	36.0	2.5	/experiments/knapen_aot/videos/R_S_yt-tX3slAQb9yY_13.mp4	0.0	176.96620798110962	2.5078201293945312
38	111.62417602539062	fix_post	2		12.0	36.0	2.5	/experiments/knapen_aot/videos/R_S_yt-tX3slAQb9yY_13.mp4	0.0	179.47402811050415	0.09998703002929688
39	111.72416305541992	fix_pre	0		8.0	37.0	2.5	/experiments/knapen_aot/videos/S_yt-RqWnxg1wT-0_41.mp4	0.0	179.57401514053345	0.0667269229888916
39	111.78261089324951	response	0	2		37.0	2.5	/experiments/knapen_aot/videos/S_yt-RqWnxg1wT-0_41.mp4	0.0	179.63246297836304	
39	111.79088997840881	movie	1		301.0	37.0	2.5	/experiments/knapen_aot/videos/S_yt-RqWnxg1wT-0_41.mp4	0.0	179.64074206352234	2.5083229541778564
39	114.29921293258667	fix_post	2		12.0	37.0	2.5	/experiments/knapen_aot/videos/S_yt-RqWnxg1wT-0_41.mp4	0.0	182.1490650177002	0.09995698928833008
40	114.399169921875	fix_pre	0		17.0	38.0	2.5	/experiments/knapen_aot/videos/R_S_production_ID_4802716.mp4	0.0	182.24902200698853	0.14169692993164062
40	114.52506399154663	response	0	2		38.0	2.5	/experiments/knapen_aot/videos/R_S_production_ID_4802716.mp4	0.0	182.37491607666016	
40	114.54086685180664	movie	1		162.0	38.0	2.5	/experiments/knapen_aot/videos/R_S_production_ID_4802716.mp4	0.0	182.39071893692017	2.5083000659942627
40	117.0491669178009	fix_post	2		12.0	38.0	2.5	/experiments/knapen_aot/videos/R_S_production_ID_4802716.mp4	0.0	184.89901900291443	0.09992408752441406
41	117.14909100532532	fix_pre	0		6.0	39.0	2.5	/experiments/knapen_aot/videos/S_pexels-cottonbro-5780808.mp4	0.0	184.99894309043884	0.05093693733215332
41	117.19109988212585	response	0	2		39.0	2.5	/experiments/knapen_aot/videos/S_pexels-cottonbro-5780808.mp4	0.0	185.04095196723938	
41	117.20002794265747	movie	1		163.0	39.0	2.5	/experiments/knapen_aot/videos/S_pexels-cottonbro-5780808.mp4	0.0	185.049880027771	2.507451057434082
41	119.70747900009155	fix_post	2		12.0	39.0	2.5	/experiments/knapen_aot/videos/S_pexels-cottonbro-5780808.mp4	0.0	187.55733108520508	0.09993600845336914
42	119.80741500854492	fix_pre	0		16.0	40.0	2.5	/experiments/knapen_aot/videos/S_yt-2CWrK9nbhTk_211.mp4	0.0	187.65726709365845	0.1334090232849121
42	119.93266105651855	response	0	2		40.0	2.5	/experiments/knapen_aot/videos/S_yt-2CWrK9nbhTk_211.mp4	0.0	187.78251314163208	
42	119.94082403182983	movie	1		301.0	40.0	2.5	/experiments/knapen_aot/videos/S_yt-2CWrK9nbhTk_211.mp4	0.0	187.79067611694336	2.508370876312256
42	122.44919490814209	fix_post	2		12.0	40.0	2.5	/experiments/knapen_aot/videos/S_yt-2CWrK9nbhTk_211.mp4	0.0	190.29904699325562	0.09996509552001953
43	122.54916000366211	fix_pre	0		106.0	41.0	2.5	blank	1.0	190.39901208877563	0.8833298683166504
43	123.42432403564453	response	0	2		41.0	2.5	blank	1.0	191.27417612075806	
43	123.43248987197876	movie	1		301.0	41.0	2.5	blank	1.0	191.28234195709229	2.5083069801330566
43	125.94079685211182	fix_post	2		12.0	41.0	2.5	blank	1.0	193.79064893722534	0.10005307197570801
44	126.04084992408752	fix_pre	0		13.0	42.0	2.5	/experiments/knapen_aot/videos/S_yt-BG-G7m5wLZ4_94.mp4	0.0	193.89070200920105	0.1082911491394043
44	126.13342595100403	response	0	2		42.0	2.5	/experiments/knapen_aot/videos/S_yt-BG-G7m5wLZ4_94.mp4	0.0	193.98327803611755	
44	126.14914107322693	movie	1		301.0	42.0	2.5	/experiments/knapen_aot/videos/S_yt-BG-G7m5wLZ4_94.mp4	0.0	193.99899315834045	2.508291006088257
44	128.65743207931519	fix_post	2		12.0	42.0	2.5	/experiments/knapen_aot/videos/S_yt-BG-G7m5wLZ4_94.mp4	0.0	196.5072841644287	0.10001683235168457
45	128.75744891166687	fix_pre	0		20.0	43.0	2.5	/experiments/knapen_aot/videos/S_ILSVRC2015_train_00324001.mp4	0.0	196.6073009967804	0.16657304763793945
45	128.9159219264984	response	0	2		43.0	2.5	/experiments/knapen_aot/videos/S_ILSVRC2015_train_00324001.mp4	0.0	196.76577401161194	
45	128.9240219593048	movie	1		300.0	43.0	2.5	/experiments/knapen_aot/videos/S_ILSVRC2015_train_00324001.mp4	0.0	196.77387404441833	2.5083539485931396
45	131.43237590789795	fix_post	2		12.0	43.0	2.5	/experiments/knapen_aot/videos/S_ILSVRC2015_train_00324001.mp4	0.0	199.28222799301147	0.10008502006530762
46	131.53246092796326	fix_pre	0		90.0	44.0	2.5	/experiments/knapen_aot/videos/R_S_ILSVRC2015_train_00425000.mp4	0.0	199.38231301307678	0.7503130435943604
46	132.27415895462036	response	0	2		44.0	2.5	/experiments/knapen_aot/videos/R_S_ILSVRC2015_train_00425000.mp4	0.0	200.1240110397339	
46	132.28277397155762	movie	1		301.0	44.0	2.5	/experiments/knapen_aot/videos/R_S_ILSVRC2015_train_00425000.mp4	0.0	200.13262605667114	2.5079829692840576
46	134.79075694084167	fix_post	2		12.0	44.0	2.5	/experiments/knapen_aot/videos/R_S_ILSVRC2015_train_00425000.mp4	0.0	202.6406090259552	0.0999460220336914
47	134.89070296287537	fix_pre	0		109.0	45.0	2.5	/experiments/knapen_aot/videos/R_S_ILSVRC2015_train_00549001.mp4	0.0	202.7405550479889	0.908350944519043
47	135.7908899784088	response	0	2		45.0	2.5	/experiments/knapen_aot/videos/R_S_ILSVRC2015_train_00549001.mp4	0.0	203.64074206352234	
47	135.7990539073944	movie	1		301.0	45.0	2.5	/experiments/knapen_aot/videos/R_S_ILSVRC2015_train_00549001.mp4	0.0	203.64890599250793	2.508384943008423
47	138.30743885040283	fix_post	2		12.0	45.0	2.5	/experiments/knapen_aot/videos/R_S_ILSVRC2015_train_00549001.mp4	0.0	206.15729093551636	0.09998607635498047
48	138.4074249267578	fix_pre	0		25.0	46.0	2.5	/experiments/knapen_aot/videos/R_S_pexels-cottonbro-5780808.mp4	0.0	206.25727701187134	0.2085580825805664
48	138.60758686065674	response	0	2		46.0	2.5	/experiments/knapen_aot/videos/R_S_pexels-cottonbro-5780808.mp4	0.0	206.45743894577026	
48	138.61598300933838	movie	1		163.0	46.0	2.5	/experiments/knapen_aot/videos/R_S_pexels-cottonbro-5780808.mp4	0.0	206.4658350944519	2.508107900619507
48	141.12409090995789	fix_post	2		12.0	46.0	2.5	/experiments/knapen_aot/videos/R_S_pexels-cottonbro-5780808.mp4	0.0	208.9739429950714	0.09993815422058105
49	141.22402906417847	fix_pre	0		85.0	47.0	2.5	/experiments/knapen_aot/videos/R_S_yt-XUnZ7FbBtvk_162.mp4	0.0	209.073881149292	0.7082579135894775
49	141.92419600486755	response	0	2		47.0	2.5	/experiments/knapen_aot/videos/R_S_yt-XUnZ7FbBtvk_162.mp4	0.0	209.77404808998108	
49	141.93228697776794	movie	1		301.0	47.0	2.5	/experiments/knapen_aot/videos/R_S_yt-XUnZ7FbBtvk_162.mp4	0.0	209.78213906288147	2.5083560943603516
49	144.4406430721283	fix_post	2		12.0	47.0	2.5	/experiments/knapen_aot/videos/R_S_yt-XUnZ7FbBtvk_162.mp4	0.0	212.29049515724182	0.10008883476257324
50	144.54073190689087	fix_pre	0		168.0	48.0	2.5	blank	1.0	212.3905839920044	1.3999791145324707
50	145.932541847229	response	0	2		48.0	2.5	blank	1.0	213.78239393234253	
50	145.94071102142334	movie	1		301.0	48.0	2.5	blank	1.0	213.79056310653687	2.5082879066467285
50	148.44899892807007	fix_post	2		12.0	48.0	2.5	blank	1.0	216.2988510131836	0.10002493858337402
51	148.54902386665344	fix_pre	0		51.0	49.0	2.5	/experiments/knapen_aot/videos/S_yt-_6j2NXrB-zE_28.mp4	0.0	216.39887595176697	0.4249839782714844
51	148.96583795547485	response	0	2		49.0	2.5	/experiments/knapen_aot/videos/S_yt-_6j2NXrB-zE_28.mp4	0.0	216.81569004058838	
51	148.97400784492493	movie	1		301.0	49.0	2.5	/experiments/knapen_aot/videos/S_yt-_6j2NXrB-zE_28.mp4	0.0	216.82385993003845	2.5084140300750732
51	151.482421875	fix_post	2		12.0	49.0	2.5	/experiments/knapen_aot/videos/S_yt-_6j2NXrB-zE_28.mp4	0.0	219.33227396011353	0.0999290943145752
52	151.58235096931458	fix_pre	0		34.0	50.0	2.5	/experiments/knapen_aot/videos/R_S_yt-2y6A9DJPsDU_65.mp4	0.0	219.4322030544281	0.2836120128631592
52	151.85742688179016	response	0	2		50.0	2.5	/experiments/knapen_aot/videos/R_S_yt-2y6A9DJPsDU_65.mp4	0.0	219.7072789669037	
52	151.86596298217773	movie	1		301.0	50.0	2.5	/experiments/knapen_aot/videos/R_S_yt-2y6A9DJPsDU_65.mp4	0.0	219.71581506729126	2.5080699920654297
52	154.37403297424316	fix_post	2		12.0	50.0	2.5	/experiments/knapen_aot/videos/R_S_yt-2y6A9DJPsDU_65.mp4	0.0	222.2238850593567	0.09999895095825195
53	154.47403192520142	fix_pre	0		96.0	51.0	2.5	/experiments/knapen_aot/videos/S_yt--a-d97T4Gak_75.mp4	0.0	222.32388401031494	0.7999279499053955
53	155.26579904556274	response	0	2		51.0	2.5	/experiments/knapen_aot/videos/S_yt--a-d97T4Gak_75.mp4	0.0	223.11565113067627	
53	155.2739598751068	movie	1		301.0	51.0	2.5	/experiments/knapen_aot/videos/S_yt--a-d97T4Gak_75.mp4	0.0	223.12381196022034	2.508599042892456
53	157.78255891799927	fix_post	2		12.0	51.0	2.5	/experiments/knapen_aot/videos/S_yt--a-d97T4Gak_75.mp4	0.0	225.6324110031128	0.09971308708190918
54	157.88227200508118	fix_pre	0		13.0	52.0	2.5	/experiments/knapen_aot/videos/S_yt-xqHrTtvFFIs_3.mp4	0.0	225.7321240901947	0.10859799385070801
54	157.9824149608612	response	0	2		52.0	2.5	/experiments/knapen_aot/videos/S_yt-xqHrTtvFFIs_3.mp4	0.0	225.83226704597473	
54	157.99086999893188	movie	1		301.0	52.0	2.5	/experiments/knapen_aot/videos/S_yt-xqHrTtvFFIs_3.mp4	0.0	225.8407220840454	2.50809907913208
54	160.49896907806396	fix_post	2		12.0	52.0	2.5	/experiments/knapen_aot/videos/S_yt-xqHrTtvFFIs_3.mp4	0.0	228.3488211631775	0.10001683235168457
55	160.59898591041565	fix_pre	0		19.0	53.0	2.5	/experiments/knapen_aot/videos/S_yt-9NV8zv2Sdq4_30.mp4	0.0	228.44883799552917	0.15833306312561035
55	160.74912405014038	response	0	2		53.0	2.5	/experiments/knapen_aot/videos/S_yt-9NV8zv2Sdq4_30.mp4	0.0	228.5989761352539	
55	160.75731897354126	movie	1		301.0	53.0	2.5	/experiments/knapen_aot/videos/S_yt-9NV8zv2Sdq4_30.mp4	0.0	228.60717105865479	2.5083210468292236
55	163.26564002037048	fix_post	2		12.0	53.0	2.5	/experiments/knapen_aot/videos/S_yt-9NV8zv2Sdq4_30.mp4	0.0	231.115492105484	0.10020899772644043
56	163.36584901809692	fix_pre	0		19.0	54.0	2.5	/experiments/knapen_aot/videos/S_yt-mHLTJkMrkZI_143.mp4	0.0	231.21570110321045	0.15809297561645508
56	163.51573204994202	response	0	2		54.0	2.5	/experiments/knapen_aot/videos/S_yt-mHLTJkMrkZI_143.mp4	0.0	231.36558413505554	
56	163.52394199371338	movie	1		301.0	54.0	2.5	/experiments/knapen_aot/videos/S_yt-mHLTJkMrkZI_143.mp4	0.0	231.3737940788269	2.5085339546203613
56	166.03247594833374	fix_post	2		12.0	54.0	2.5	/experiments/knapen_aot/videos/S_yt-mHLTJkMrkZI_143.mp4	0.0	233.88232803344727	0.09980201721191406
57	166.13227796554565	fix_pre	0		110.0	55.0	2.5	/experiments/knapen_aot/videos/S_wc-8bTJmWfuVyJ4_8.mp4	0.0	233.98213005065918	0.9166600704193115
57	167.04069805145264	response	0	2		55.0	2.5	/experiments/knapen_aot/videos/S_wc-8bTJmWfuVyJ4_8.mp4	0.0	234.89055013656616	
57	167.04893803596497	movie	1		165.0	55.0	2.5	/experiments/knapen_aot/videos/S_wc-8bTJmWfuVyJ4_8.mp4	0.0	234.8987901210785	2.508286952972412
57	169.55722498893738	fix_post	2		12.0	55.0	2.5	/experiments/knapen_aot/videos/S_wc-8bTJmWfuVyJ4_8.mp4	0.0	237.4070770740509	0.10019803047180176
58	169.65742301940918	fix_pre	0		31.0	56.0	2.5	blank	1.0	237.5072751045227	0.25817394256591797
58	169.90735507011414	response	0	2		56.0	2.5	blank	1.0	237.75720715522766	
58	169.9155969619751	movie	1		301.0	56.0	2.5	blank	1.0	237.76544904708862	2.5083229541778564
58	172.42391991615295	fix_post	2		12.0	56.0	2.5	blank	1.0	240.27377200126648	0.09999799728393555
59	172.5239179134369	fix_pre	0		17.0	57.0	2.5	/experiments/knapen_aot/videos/S_video_inspire_oregon_lone-ranch-beach_00015.1080-h264.mp4	0.0	240.37376999855042	0.14172101020812988
59	172.65732192993164	response	0	2		57.0	2.5	/experiments/knapen_aot/videos/S_video_inspire_oregon_lone-ranch-beach_00015.1080-h264.mp4	0.0	240.50717401504517	
59	172.66563892364502	movie	1		166.0	57.0	2.5	/experiments/knapen_aot/videos/S_video_inspire_oregon_lone-ranch-beach_00015.1080-h264.mp4	0.0	240.51549100875854	2.5082430839538574
59	175.17388200759888	fix_post	2		11.0	57.0	2.5	/experiments/knapen_aot/videos/S_video_inspire_oregon_lone-ranch-beach_00015.1080-h264.mp4	0.0	243.0237340927124	0.10004091262817383
60	175.27392292022705	fix_pre	0		21.0	58.0	2.5	/experiments/knapen_aot/videos/R_S_pexels-mart-production-7698693.mp4	0.0	243.12377500534058	0.1751251220703125
60	175.44068384170532	response	0	2		58.0	2.5	/experiments/knapen_aot/videos/R_S_pexels-mart-production-7698693.mp4	0.0	243.29053592681885	
60	175.44904804229736	movie	1		177.0	58.0	2.5	/experiments/knapen_aot/videos/R_S_pexels-mart-production-7698693.mp4	0.0	243.2989001274109	2.5081379413604736
60	177.95718598365784	fix_post	2		12.0	58.0	2.5	/experiments/knapen_aot/videos/R_S_pexels-mart-production-7698693.mp4	0.0	245.80703806877136	0.10001087188720703
61	178.05719685554504	fix_pre	0		14.0	59.0	2.5	/experiments/knapen_aot/videos/R_S_comp_CH_C002_C005_PSNK_v05_SDR_PS_FINAL_20180709_SDR_2K_AVC.mp4	0.0	245.90704894065857	0.11674213409423828
61	178.1656699180603	response	0	2		59.0	2.5	/experiments/knapen_aot/videos/R_S_comp_CH_C002_C005_PSNK_v05_SDR_PS_FINAL_20180709_SDR_2K_AVC.mp4	0.0	246.01552200317383	
61	178.17393898963928	movie	1		173.0	59.0	2.5	/experiments/knapen_aot/videos/R_S_comp_CH_C002_C005_PSNK_v05_SDR_PS_FINAL_20180709_SDR_2K_AVC.mp4	0.0	246.0237910747528	2.508234977722168
61	180.68217396736145	fix_post	2		12.0	59.0	2.5	/experiments/knapen_aot/videos/R_S_comp_CH_C002_C005_PSNK_v05_SDR_PS_FINAL_20180709_SDR_2K_AVC.mp4	0.0	248.53202605247498	0.10016298294067383
62	180.78233695030212	fix_pre	0		7.0	60.0	2.5	/experiments/knapen_aot/videos/S_ILSVRC2015_train_00473000.mp4	0.0	248.63218903541565	0.058175086975097656
62	180.8323528766632	response	0	2		60.0	2.5	/experiments/knapen_aot/videos/S_ILSVRC2015_train_00473000.mp4	0.0	248.68220496177673	
62	180.84051203727722	movie	1		301.0	60.0	2.5	/experiments/knapen_aot/videos/S_ILSVRC2015_train_00473000.mp4	0.0	248.69036412239075	2.5083959102630615
62	183.34890794754028	fix_post	2		12.0	60.0	2.5	/experiments/knapen_aot/videos/S_ILSVRC2015_train_00473000.mp4	0.0	251.1987600326538	0.10009312629699707
63	183.44900107383728	fix_pre	0		9.0	61.0	2.5	/experiments/knapen_aot/videos/R_S_yt-n2PnABmSpxI_115.mp4	0.0	251.2988531589508	0.07489180564880371
63	183.51558685302734	response	0	2		61.0	2.5	/experiments/knapen_aot/videos/R_S_yt-n2PnABmSpxI_115.mp4	0.0	251.36543893814087	
63	183.52389287948608	movie	1		301.0	61.0	2.5	/experiments/knapen_aot/videos/R_S_yt-n2PnABmSpxI_115.mp4	0.0	251.3737449645996	2.508439064025879
63	186.03233194351196	fix_post	2		12.0	61.0	2.5	/experiments/knapen_aot/videos/R_S_yt-n2PnABmSpxI_115.mp4	0.0	253.8821840286255	0.09995913505554199
64	186.1322910785675	fix_pre	0		36.0	62.0	2.5	/experiments/knapen_aot/videos/S_yt-zgkJCgcT1s4_300.mp4	0.0	253.98214316368103	0.29990291595458984
64	186.42404198646545	response	0	2		62.0	2.5	/experiments/knapen_aot/videos/S_yt-zgkJCgcT1s4_300.mp4	0.0	254.27389407157898	
64	186.4321939945221	movie	1		301.0	62.0	2.5	/experiments/knapen_aot/videos/S_yt-zgkJCgcT1s4_300.mp4	0.0	254.28204607963562	2.508262872695923
64	188.94045686721802	fix_post	2		12.0	62.0	2.5	/experiments/knapen_aot/videos/S_yt-zgkJCgcT1s4_300.mp4	0.0	256.79030895233154	0.10004901885986328
65	189.04050588607788	fix_pre	0		17.0	63.0	2.5	blank	1.0	256.8903579711914	0.1416311264038086
65	189.17419004440308	response	0	2		63.0	2.5	blank	1.0	257.0240421295166	
65	189.1821370124817	movie	1		301.0	63.0	2.5	blank	1.0	257.0319890975952	2.5083420276641846
65	191.69047904014587	fix_post	2		12.0	63.0	2.5	blank	1.0	259.5403311252594	0.1000518798828125
66	191.7905309200287	fix_pre	0		30.0	64.0	2.5	/experiments/knapen_aot/videos/S_comp_CH_C002_C005_PSNK_v05_SDR_PS_FINAL_20180709_SDR_2K_AVC.mp4	0.0	259.6403830051422	0.24994802474975586
66	192.03225803375244	response	0	2		64.0	2.5	/experiments/knapen_aot/videos/S_comp_CH_C002_C005_PSNK_v05_SDR_PS_FINAL_20180709_SDR_2K_AVC.mp4	0.0	259.88211011886597	
66	192.04047894477844	movie	1		168.0	64.0	2.5	/experiments/knapen_aot/videos/S_comp_CH_C002_C005_PSNK_v05_SDR_PS_FINAL_20180709_SDR_2K_AVC.mp4	0.0	259.89033102989197	2.5082991123199463
66	194.5487780570984	fix_post	2		12.0	64.0	2.5	/experiments/knapen_aot/videos/S_comp_CH_C002_C005_PSNK_v05_SDR_PS_FINAL_20180709_SDR_2K_AVC.mp4	0.0	262.3986301422119	0.10008692741394043
67	194.64886498451233	fix_pre	0		19.0	65.0	2.5	/experiments/knapen_aot/videos/R_S_yt-gzjV6YoK6X0_3.mp4	0.0	262.49871706962585	0.15823698043823242
67	194.7990288734436	response	0	2		65.0	2.5	/experiments/knapen_aot/videos/R_S_yt-gzjV6YoK6X0_3.mp4	0.0	262.64888095855713	
67	194.80710196495056	movie	1		301.0	65.0	2.5	/experiments/knapen_aot/videos/R_S_yt-gzjV6YoK6X0_3.mp4	0.0	262.6569540500641	2.5083200931549072
67	197.0604178905487	response	1	2		65.0	2.5	/experiments/knapen_aot/videos/R_S_yt-gzjV6YoK6X0_3.mp4	0.0	264.91026997566223	
67	197.31542205810547	fix_post	2		12.0	65.0	2.5	/experiments/knapen_aot/videos/R_S_yt-gzjV6YoK6X0_3.mp4	0.0	265.165274143219	0.10008001327514648
68	197.41550207138062	fix_pre	0		43.0	66.0	2.5	/experiments/knapen_aot/videos/S_yt-4Qz0m5IYh10_167.mp4	0.0	265.26535415649414	0.35822081565856934
68	197.7656328678131	response	0	2		66.0	2.5	/experiments/knapen_aot/videos/S_yt-4Qz0m5IYh10_167.mp4	0.0	265.61548495292664	
68	197.77372288703918	movie	1		301.0	66.0	2.5	/experiments/knapen_aot/videos/S_yt-4Qz0m5IYh10_167.mp4	0.0	265.6235749721527	2.508470058441162
68	200.28219294548035	fix_post	2		12.0	66.0	2.5	/experiments/knapen_aot/videos/S_yt-4Qz0m5IYh10_167.mp4	0.0	268.1320450305939	0.09993696212768555
69	200.38212990760803	fix_pre	0		18.0	67.0	2.5	/experiments/knapen_aot/videos/S_yt-9NV8zv2Sdq4_30.mp4	0.0	268.23198199272156	0.14999914169311523
69	200.5239679813385	response	0	2		67.0	2.5	/experiments/knapen_aot/videos/S_yt-9NV8zv2Sdq4_30.mp4	0.0	268.373820066452	
69	200.53212904930115	movie	1		301.0	67.0	2.5	/experiments/knapen_aot/videos/S_yt-9NV8zv2Sdq4_30.mp4	0.0	268.3819811344147	2.508330821990967
69	203.04045987129211	fix_post	2		12.0	67.0	2.5	/experiments/knapen_aot/videos/S_yt-9NV8zv2Sdq4_30.mp4	0.0	270.89031195640564	0.09995007514953613
70	203.14040994644165	fix_pre	0		19.0	68.0	2.5	/experiments/knapen_aot/videos/R_S_pexels-mart-production-8435081.mp4	0.0	270.9902620315552	0.1583850383758545
70	203.290629863739	response	0	2		68.0	2.5	/experiments/knapen_aot/videos/R_S_pexels-mart-production-8435081.mp4	0.0	271.14048194885254	
70	203.2987949848175	movie	1		197.0	68.0	2.5	/experiments/knapen_aot/videos/R_S_pexels-mart-production-8435081.mp4	0.0	271.14864706993103	2.5083420276641846
70	205.8071370124817	fix_post	2		12.0	68.0	2.5	/experiments/knapen_aot/videos/R_S_pexels-mart-production-8435081.mp4	0.0	273.6569890975952	0.09997987747192383
71	205.9071168899536	fix_pre	0		1.0	69.0	2.5	blank	1.0	273.75696897506714	0.00838613510131836
71	205.90875387191772	response	0	2		69.0	2.5	blank	1.0	273.75860595703125	
71	205.91550302505493	movie	1		301.0	69.0	2.5	blank	1.0	273.76535511016846	2.508298873901367
71	208.4238018989563	fix_post	2		12.0	69.0	2.5	blank	1.0	276.2736539840698	0.09991812705993652
72	208.52372002601624	fix_pre	0		29.0	70.0	2.5	/experiments/knapen_aot/videos/S_yt-lADkWM79teI_18.mp4	0.0	276.37357211112976	0.24169683456420898
72	208.7572078704834	response	0	2		70.0	2.5	/experiments/knapen_aot/videos/S_yt-lADkWM79teI_18.mp4	0.0	276.6070599555969	
72	208.76541686058044	movie	1		301.0	70.0	2.5	/experiments/knapen_aot/videos/S_yt-lADkWM79teI_18.mp4	0.0	276.61526894569397	2.508287191390991
72	211.27370405197144	fix_post	2		12.0	70.0	2.5	/experiments/knapen_aot/videos/S_yt-lADkWM79teI_18.mp4	0.0	279.12355613708496	0.10008883476257324
73	211.373792886734	fix_pre	0		10.0	71.0	2.5	/experiments/knapen_aot/videos/S_ILSVRC2015_train_00563000.mp4	0.0	279.22364497184753	0.08323097229003906
73	211.44887399673462	response	0	2		71.0	2.5	/experiments/knapen_aot/videos/S_ILSVRC2015_train_00563000.mp4	0.0	279.29872608184814	
73	211.45702385902405	movie	1		301.0	71.0	2.5	/experiments/knapen_aot/videos/S_ILSVRC2015_train_00563000.mp4	0.0	279.3068759441376	2.5083529949188232
73	213.96537685394287	fix_post	2		12.0	71.0	2.5	/experiments/knapen_aot/videos/S_ILSVRC2015_train_00563000.mp4	0.0	281.8152289390564	0.1000370979309082
74	214.06541395187378	fix_pre	0		12.0	72.0	2.5	/experiments/knapen_aot/videos/R_S_yt-Wf-RauSbVgA_56.mp4	0.0	281.9152660369873	0.09998202323913574
74	214.1496229171753	response	0	2		72.0	2.5	/experiments/knapen_aot/videos/R_S_yt-Wf-RauSbVgA_56.mp4	0.0	281.9994750022888	
74	214.16539597511292	movie	1		301.0	72.0	2.5	/experiments/knapen_aot/videos/R_S_yt-Wf-RauSbVgA_56.mp4	0.0	282.01524806022644	2.5083529949188232
74	216.67374897003174	fix_post	2		12.0	72.0	2.5	/experiments/knapen_aot/videos/R_S_yt-Wf-RauSbVgA_56.mp4	0.0	284.52360105514526	0.09998393058776855
75	216.7737329006195	fix_pre	0		24.0	73.0	2.5	/experiments/knapen_aot/videos/S_yt-lCb_efvJcdE_5.mp4	0.0	284.62358498573303	0.19999408721923828
75	216.9656150341034	response	0	2		73.0	2.5	/experiments/knapen_aot/videos/S_yt-lCb_efvJcdE_5.mp4	0.0	284.8154671192169	
75	216.97372698783875	movie	1		301.0	73.0	2.5	/experiments/knapen_aot/videos/S_yt-lCb_efvJcdE_5.mp4	0.0	284.82357907295227	2.5082950592041016
75	219.48202204704285	fix_post	2		12.0	73.0	2.5	/experiments/knapen_aot/videos/S_yt-lCb_efvJcdE_5.mp4	0.0	287.3318741321564	0.10000395774841309
76	219.58202600479126	fix_pre	0		33.0	74.0	2.5	/experiments/knapen_aot/videos/S_production_ID_3943334.mp4	0.0	287.4318780899048	0.27504396438598633
76	219.84879207611084	response	0	2		74.0	2.5	/experiments/knapen_aot/videos/S_production_ID_3943334.mp4	0.0	287.69864416122437	
76	219.85706996917725	movie	1		191.0	74.0	2.5	/experiments/knapen_aot/videos/S_production_ID_3943334.mp4	0.0	287.70692205429077	2.5083260536193848
76	222.36539602279663	fix_post	2		12.0	74.0	2.5	/experiments/knapen_aot/videos/S_production_ID_3943334.mp4	0.0	290.21524810791016	0.1000828742980957
77	222.46547889709473	fix_pre	0		15.0	75.0	2.5	/experiments/knapen_aot/videos/R_S_yt-fk-z6WCvjjA_3.mp4	0.0	290.31533098220825	0.12505006790161133
77	222.5821840763092	response	0	2		75.0	2.5	/experiments/knapen_aot/videos/R_S_yt-fk-z6WCvjjA_3.mp4	0.0	290.43203616142273	
77	222.59052896499634	movie	1		301.0	75.0	2.5	/experiments/knapen_aot/videos/R_S_yt-fk-z6WCvjjA_3.mp4	0.0	290.44038105010986	2.5082290172576904
77	225.09875798225403	fix_post	2		12.0	75.0	2.5	/experiments/knapen_aot/videos/R_S_yt-fk-z6WCvjjA_3.mp4	0.0	292.94861006736755	0.09995889663696289
78	225.198716878891	fix_pre	0		18.0	76.0	2.5	blank	1.0	293.0485689640045	0.15003108978271484
78	225.3405420780182	response	0	2		76.0	2.5	blank	1.0	293.1903941631317	
78	225.3487479686737	movie	1		301.0	76.0	2.5	blank	1.0	293.19860005378723	2.5082669258117676
78	227.85701489448547	fix_post	2		12.0	76.0	2.5	blank	1.0	295.706866979599	0.10004305839538574
79	227.95705795288086	fix_pre	0		36.0	77.0	2.5	/experiments/knapen_aot/videos/S_ILSVRC2015_train_00323000.mp4	0.0	295.8069100379944	0.299954891204834
79	228.24881505966187	response	0	2		77.0	2.5	/experiments/knapen_aot/videos/S_ILSVRC2015_train_00323000.mp4	0.0	296.0986671447754	
79	228.2570128440857	movie	1		300.0	77.0	2.5	/experiments/knapen_aot/videos/S_ILSVRC2015_train_00323000.mp4	0.0	296.1068649291992	2.508263111114502
79	230.7652759552002	fix_post	2		12.0	77.0	2.5	/experiments/knapen_aot/videos/S_ILSVRC2015_train_00323000.mp4	0.0	298.6151280403137	0.10004591941833496
80	230.86532187461853	fix_pre	0		28.0	78.0	2.5	/experiments/knapen_aot/videos/S_yt-mJzkLd3Mr_c_35.mp4	0.0	298.71517395973206	0.23333120346069336
80	231.0903880596161	response	0	2		78.0	2.5	/experiments/knapen_aot/videos/S_yt-mJzkLd3Mr_c_35.mp4	0.0	298.9402401447296	
80	231.09865307807922	movie	1		301.0	78.0	2.5	/experiments/knapen_aot/videos/S_yt-mJzkLd3Mr_c_35.mp4	0.0	298.94850516319275	2.508298873901367
80	233.6069519519806	fix_post	2		12.0	78.0	2.5	/experiments/knapen_aot/videos/S_yt-mJzkLd3Mr_c_35.mp4	0.0	301.4568040370941	0.09999895095825195
81	233.70695090293884	fix_pre	0		32.0	79.0	2.5	/experiments/knapen_aot/videos/R_S_yt-mJzkLd3Mr_c_35.mp4	0.0	301.55680298805237	0.2667090892791748
81	233.95790696144104	response	0	2		79.0	2.5	/experiments/knapen_aot/videos/R_S_yt-mJzkLd3Mr_c_35.mp4	0.0	301.80775904655457	
81	233.97365999221802	movie	1		301.0	79.0	2.5	/experiments/knapen_aot/videos/R_S_yt-mJzkLd3Mr_c_35.mp4	0.0	301.82351207733154	2.5082600116729736
81	236.481920003891	fix_post	2		12.0	79.0	2.5	/experiments/knapen_aot/videos/R_S_yt-mJzkLd3Mr_c_35.mp4	0.0	304.3317720890045	0.10010099411010742
82	236.5820209980011	fix_pre	0		15.0	80.0	2.5	/experiments/knapen_aot/videos/S_ILSVRC2015_train_00469000.mp4	0.0	304.4318730831146	0.12496304512023926
82	236.69881105422974	response	0	2		80.0	2.5	/experiments/knapen_aot/videos/S_ILSVRC2015_train_00469000.mp4	0.0	304.54866313934326	
82	236.70698404312134	movie	1		301.0	80.0	2.5	/experiments/knapen_aot/videos/S_ILSVRC2015_train_00469000.mp4	0.0	304.55683612823486	2.5083398818969727
82	239.2153239250183	fix_post	2		12.0	80.0	2.5	/experiments/knapen_aot/videos/S_ILSVRC2015_train_00469000.mp4	0.0	307.06517601013184	0.09998607635498047
83	239.3153100013733	fix_pre	0		49.0	81.0	2.5	/experiments/knapen_aot/videos/S_production_ID_4510883.mp4	0.0	307.1651620864868	0.408336877822876
83	239.71555495262146	response	0	2		81.0	2.5	/experiments/knapen_aot/videos/S_production_ID_4510883.mp4	0.0	307.565407037735	
83	239.72364687919617	movie	1		163.0	81.0	2.5	/experiments/knapen_aot/videos/S_production_ID_4510883.mp4	0.0	307.5734989643097	2.508388042449951
83	242.23203492164612	fix_post	2		12.0	81.0	2.5	/experiments/knapen_aot/videos/S_production_ID_4510883.mp4	0.0	310.08188700675964	0.09995603561401367
84	242.33199095726013	fix_pre	0		85.0	82.0	2.5	/experiments/knapen_aot/videos/R_S_ILSVRC2015_train_00079001.mp4	0.0	310.18184304237366	0.7082009315490723
84	243.032075881958	response	0	2		82.0	2.5	/experiments/knapen_aot/videos/R_S_ILSVRC2015_train_00079001.mp4	0.0	310.88192796707153	
84	243.0401918888092	movie	1		300.0	82.0	2.5	/experiments/knapen_aot/videos/R_S_ILSVRC2015_train_00079001.mp4	0.0	310.89004397392273	2.508409023284912
84	245.54860091209412	fix_post	2		12.0	82.0	2.5	/experiments/knapen_aot/videos/R_S_ILSVRC2015_train_00079001.mp4	0.0	313.39845299720764	0.10003304481506348
85	245.64863395690918	fix_pre	0		171.0	83.0	2.5	blank	1.0	313.4984860420227	1.4249260425567627
85	247.06544995307922	response	0	2		83.0	2.5	blank	1.0	314.91530203819275	
85	247.07355999946594	movie	1		301.0	83.0	2.5	blank	1.0	314.92341208457947	2.5083529949188232
85	249.58191299438477	fix_post	2		12.0	83.0	2.5	blank	1.0	317.4317650794983	0.1000368595123291
87	249.6819498538971	stim	0		179.0					317.5318019390106	1.4916841983795166
87	249.9737310409546	response	0	2						317.8235831260681	
87	251.16610598564148	response	0	space						319.015958070755	
