trial_nr	onset	event_type	phase	response	nr_frames	movie_index	movie_duration	movie_file	blank	onset_abs	duration
0	0.1249380111694336	stim	0		55.0					83.43593001365662	0.45844602584838867
0	0.5760011672973633	response	0	space						83.88699316978455	
1	0.5833840370178223	stim	0		121.0					83.894376039505	1.00819993019104
1	1.5915839672088623	stim	1		120.0					84.90257596969604	0.9995641708374023
1	2.449676036834717	response	1	space						85.7606680393219	
2	2.5911481380462646	fix_pre	0		114.0	0.0	2.5	/experiments/knapen_aot/videos/R_S_yt-YlA-FPDylDE_100.mp4	0.0	85.90214014053345	0.9500248432159424
2	3.533008098602295	response	0	space		0.0	2.5	/experiments/knapen_aot/videos/R_S_yt-YlA-FPDylDE_100.mp4	0.0	86.84400010108948	
2	3.541172981262207	movie	1		300.0	0.0	2.5	/experiments/knapen_aot/videos/R_S_yt-YlA-FPDylDE_100.mp4	0.0	86.85216498374939	2.5083820819854736
2	3.8684520721435547	response	1	2		0.0	2.5	/experiments/knapen_aot/videos/R_S_yt-YlA-FPDylDE_100.mp4	0.0	87.17944407463074	
2	6.049555063247681	fix_post	2		12.0	0.0	2.5	/experiments/knapen_aot/videos/R_S_yt-YlA-FPDylDE_100.mp4	0.0	89.36054706573486	0.09994792938232422
3	6.149502992630005	fix_pre	0		30.0	1.0	2.5	/experiments/knapen_aot/videos/R_S_yt-XtzmBXKYEWk_60.mp4	0.0	89.46049499511719	0.25239014625549316
3	6.38417911529541	response	0	2		1.0	2.5	/experiments/knapen_aot/videos/R_S_yt-XtzmBXKYEWk_60.mp4	0.0	89.69517111778259	
3	6.401893138885498	movie	1		301.0	1.0	2.5	/experiments/knapen_aot/videos/R_S_yt-XtzmBXKYEWk_60.mp4	0.0	89.71288514137268	2.505988836288452
3	8.90788197517395	fix_post	2		12.0	1.0	2.5	/experiments/knapen_aot/videos/R_S_yt-XtzmBXKYEWk_60.mp4	0.0	92.21887397766113	0.09995508193969727
4	9.007837057113647	fix_pre	0		16.0	2.0	2.5	/experiments/knapen_aot/videos/S_yt-146gReE6xKw_379.mp4	0.0	92.31882905960083	0.13335800170898438
4	9.125378131866455	response	0	2		2.0	2.5	/experiments/knapen_aot/videos/S_yt-146gReE6xKw_379.mp4	0.0	92.43637013435364	
4	9.141195058822632	movie	1		301.0	2.0	2.5	/experiments/knapen_aot/videos/S_yt-146gReE6xKw_379.mp4	0.0	92.45218706130981	2.5083510875701904
4	11.649546146392822	fix_post	2		12.0	2.0	2.5	/experiments/knapen_aot/videos/S_yt-146gReE6xKw_379.mp4	0.0	94.96053814888	0.09997797012329102
5	11.749524116516113	fix_pre	0		21.0	3.0	2.5	/experiments/knapen_aot/videos/S_production_ID_3709168.mp4	0.0	95.0605161190033	0.17498207092285156
5	11.916321039199829	response	0	2		3.0	2.5	/experiments/knapen_aot/videos/S_production_ID_3709168.mp4	0.0	95.22731304168701	
5	11.924506187438965	movie	1		206.0	3.0	2.5	/experiments/knapen_aot/videos/S_production_ID_3709168.mp4	0.0	95.23549818992615	2.508335828781128
5	14.432842016220093	fix_post	2		12.0	3.0	2.5	/experiments/knapen_aot/videos/S_production_ID_3709168.mp4	0.0	97.74383401870728	0.10001611709594727
6	14.53285813331604	fix_pre	0		21.0	4.0	2.5	/experiments/knapen_aot/videos/S_WO9z7lBUvOs_151.mp4	0.0	97.84385013580322	0.1749589443206787
6	14.699592113494873	response	0	2		4.0	2.5	/experiments/knapen_aot/videos/S_WO9z7lBUvOs_151.mp4	0.0	98.01058411598206	
6	14.707817077636719	movie	1		301.0	4.0	2.5	/experiments/knapen_aot/videos/S_WO9z7lBUvOs_151.mp4	0.0	98.0188090801239	2.508363962173462
6	17.21618103981018	fix_post	2		12.0	4.0	2.5	/experiments/knapen_aot/videos/S_WO9z7lBUvOs_151.mp4	0.0	100.52717304229736	0.09996294975280762
7	17.31614398956299	fix_pre	0		11.0	5.0	2.5	blank	1.0	100.62713599205017	0.09170317649841309
7	17.392215967178345	response	0	2		5.0	2.5	blank	1.0	100.70320796966553	
7	17.4078471660614	movie	1		301.0	5.0	2.5	blank	1.0	100.71883916854858	2.5083258152008057
7	19.916172981262207	fix_post	2		12.0	5.0	2.5	blank	1.0	103.22716498374939	0.09993100166320801
8	20.016103982925415	fix_pre	0		32.0	6.0	2.5	/experiments/knapen_aot/videos/R_S_yt-aSEKRE_FNaI_62.mp4	0.0	103.3270959854126	0.26752305030822754
8	20.27459406852722	response	0	2		6.0	2.5	/experiments/knapen_aot/videos/R_S_yt-aSEKRE_FNaI_62.mp4	0.0	103.5855860710144	
8	20.283627033233643	movie	1		301.0	6.0	2.5	/experiments/knapen_aot/videos/R_S_yt-aSEKRE_FNaI_62.mp4	0.0	103.59461903572083	2.5075390338897705
8	22.791166067123413	fix_post	2		12.0	6.0	2.5	/experiments/knapen_aot/videos/R_S_yt-aSEKRE_FNaI_62.mp4	0.0	106.1021580696106	0.09993600845336914
9	22.891102075576782	fix_pre	0		14.0	7.0	2.5	/experiments/knapen_aot/videos/R_S_ILSVRC2015_train_00538001.mp4	0.0	106.20209407806396	0.11669397354125977
9	22.999562978744507	response	0	2		7.0	2.5	/experiments/knapen_aot/videos/R_S_ILSVRC2015_train_00538001.mp4	0.0	106.31055498123169	
9	23.007796049118042	movie	1		301.0	7.0	2.5	/experiments/knapen_aot/videos/R_S_ILSVRC2015_train_00538001.mp4	0.0	106.31878805160522	2.508345127105713
9	25.516141176223755	fix_post	2		12.0	7.0	2.5	/experiments/knapen_aot/videos/R_S_ILSVRC2015_train_00538001.mp4	0.0	108.82713317871094	0.09999489784240723
10	25.616136074066162	fix_pre	0		17.0	8.0	2.5	/experiments/knapen_aot/videos/S_comp_H012_C009_PS_v01_SDR_PS_20180925_SDR_2K_AVC.mp4	0.0	108.92712807655334	0.14165711402893066
10	25.749526977539062	response	0	2		8.0	2.5	/experiments/knapen_aot/videos/S_comp_H012_C009_PS_v01_SDR_PS_20180925_SDR_2K_AVC.mp4	0.0	109.06051898002625	
10	25.757793188095093	movie	1		163.0	8.0	2.5	/experiments/knapen_aot/videos/S_comp_H012_C009_PS_v01_SDR_PS_20180925_SDR_2K_AVC.mp4	0.0	109.06878519058228	2.5083138942718506
10	28.266107082366943	fix_post	2		12.0	8.0	2.5	/experiments/knapen_aot/videos/S_comp_H012_C009_PS_v01_SDR_PS_20180925_SDR_2K_AVC.mp4	0.0	111.57709908485413	0.10002493858337402
11	28.366132020950317	fix_pre	0		7.0	9.0	2.5	/experiments/knapen_aot/videos/S_g201_CA_A016_C002_SDR_20191114_SDR_2K_AVC.mp4	0.0	111.6771240234375	0.05828714370727539
11	28.409772157669067	response	0	2		9.0	2.5	/experiments/knapen_aot/videos/S_g201_CA_A016_C002_SDR_20191114_SDR_2K_AVC.mp4	0.0	111.72076416015625	
11	28.424419164657593	movie	1		166.0	9.0	2.5	/experiments/knapen_aot/videos/S_g201_CA_A016_C002_SDR_20191114_SDR_2K_AVC.mp4	0.0	111.73541116714478	2.50839900970459
11	30.932818174362183	fix_post	2		12.0	9.0	2.5	/experiments/knapen_aot/videos/S_g201_CA_A016_C002_SDR_20191114_SDR_2K_AVC.mp4	0.0	114.24381017684937	0.09995388984680176
12	31.032772064208984	fix_pre	0		3.0	10.0	2.5	/experiments/knapen_aot/videos/S_ILSVRC2015_train_00165011.mp4	0.0	114.34376406669617	0.025053024291992188
12	31.049605131149292	response	0	4		10.0	2.5	/experiments/knapen_aot/videos/S_ILSVRC2015_train_00165011.mp4	0.0	114.36059713363647	
12	31.057825088500977	movie	1		301.0	10.0	2.5	/experiments/knapen_aot/videos/S_ILSVRC2015_train_00165011.mp4	0.0	114.36881709098816	2.5083138942718506
12	33.56613898277283	fix_post	2		12.0	10.0	2.5	/experiments/knapen_aot/videos/S_ILSVRC2015_train_00165011.mp4	0.0	116.87713098526001	0.10000801086425781
12	33.63287901878357	response	2	2		10.0	2.5	/experiments/knapen_aot/videos/S_ILSVRC2015_train_00165011.mp4	0.0	116.94387102127075	
13	33.666146993637085	fix_pre	0		61.0	11.0	2.5	/experiments/knapen_aot/videos/R_S_yt-iHmshS63rBc_329.mp4	0.0	116.97713899612427	0.5083260536193848
13	34.166232109069824	response	0	2		11.0	2.5	/experiments/knapen_aot/videos/R_S_yt-iHmshS63rBc_329.mp4	0.0	117.477224111557	
13	34.17447304725647	movie	1		298.0	11.0	2.5	/experiments/knapen_aot/videos/R_S_yt-iHmshS63rBc_329.mp4	0.0	117.48546504974365	2.508280038833618
13	36.68275308609009	fix_post	2		12.0	11.0	2.5	/experiments/knapen_aot/videos/R_S_yt-iHmshS63rBc_329.mp4	0.0	119.99374508857727	0.099945068359375
14	36.78269815444946	fix_pre	0		26.0	12.0	2.5	/experiments/knapen_aot/videos/S_yt-y2RUPYKfBZs_12.mp4	0.0	120.09369015693665	0.2166898250579834
14	36.98365306854248	response	0	4		12.0	2.5	/experiments/knapen_aot/videos/S_yt-y2RUPYKfBZs_12.mp4	0.0	120.29464507102966	
14	36.999387979507446	movie	1		301.0	12.0	2.5	/experiments/knapen_aot/videos/S_yt-y2RUPYKfBZs_12.mp4	0.0	120.31037998199463	2.508324146270752
14	39.5077121257782	fix_post	2		12.0	12.0	2.5	/experiments/knapen_aot/videos/S_yt-y2RUPYKfBZs_12.mp4	0.0	122.81870412826538	0.1000208854675293
15	39.60773301124573	fix_pre	0		5.0	13.0	2.5	/experiments/knapen_aot/videos/R_S_yt-sWJc_Do8EaI_32.mp4	0.0	122.91872501373291	0.04167294502258301
15	39.63396215438843	response	0	2		13.0	2.5	/experiments/knapen_aot/videos/R_S_yt-sWJc_Do8EaI_32.mp4	0.0	122.94495415687561	
15	39.64940595626831	movie	1		301.0	13.0	2.5	/experiments/knapen_aot/videos/R_S_yt-sWJc_Do8EaI_32.mp4	0.0	122.9603979587555	2.5083420276641846
15	42.157747983932495	fix_post	2		12.0	13.0	2.5	/experiments/knapen_aot/videos/R_S_yt-sWJc_Do8EaI_32.mp4	0.0	125.46873998641968	0.0999290943145752
16	42.25767707824707	fix_pre	0		20.0	14.0	2.5	blank	1.0	125.56866908073425	0.1667180061340332
16	42.41612100601196	response	0	4		14.0	2.5	blank	1.0	125.72711300849915	
16	42.4243950843811	movie	1		301.0	14.0	2.5	blank	1.0	125.73538708686829	2.508233070373535
16	44.93262815475464	fix_post	2		12.0	14.0	2.5	blank	1.0	128.24362015724182	0.10080480575561523
17	45.033432960510254	fix_pre	0		29.0	15.0	2.5	/experiments/knapen_aot/videos/S_yt-ieA3XwoSko4_98.mp4	0.0	128.34442496299744	0.24092411994934082
17	45.26617908477783	response	0	2		15.0	2.5	/experiments/knapen_aot/videos/S_yt-ieA3XwoSko4_98.mp4	0.0	128.57717108726501	
17	45.274357080459595	movie	1		301.0	15.0	2.5	/experiments/knapen_aot/videos/S_yt-ieA3XwoSko4_98.mp4	0.0	128.58534908294678	2.5083909034729004
17	47.782747983932495	fix_post	2		12.0	15.0	2.5	/experiments/knapen_aot/videos/S_yt-ieA3XwoSko4_98.mp4	0.0	131.09373998641968	0.09997010231018066
18	47.882718086242676	fix_pre	0		4.0	16.0	2.5	/experiments/knapen_aot/videos/S_ILSVRC2015_train_00303008.mp4	0.0	131.19371008872986	0.03336906433105469
18	47.907910108566284	response	0	2		16.0	2.5	/experiments/knapen_aot/videos/S_ILSVRC2015_train_00303008.mp4	0.0	131.21890211105347	
18	47.91608715057373	movie	1		301.0	16.0	2.5	/experiments/knapen_aot/videos/S_ILSVRC2015_train_00303008.mp4	0.0	131.2270791530609	2.508312940597534
18	50.424400091171265	fix_post	2		12.0	16.0	2.5	/experiments/knapen_aot/videos/S_ILSVRC2015_train_00303008.mp4	0.0	133.73539209365845	0.1000058650970459
19	50.52440595626831	fix_pre	0		20.0	17.0	2.5	/experiments/knapen_aot/videos/R_S_yt-aSEKRE_FNaI_62.mp4	0.0	133.8353979587555	0.1666421890258789
19	50.68284606933594	response	0	2		17.0	2.5	/experiments/knapen_aot/videos/R_S_yt-aSEKRE_FNaI_62.mp4	0.0	133.99383807182312	
19	50.69104814529419	movie	1		301.0	17.0	2.5	/experiments/knapen_aot/videos/R_S_yt-aSEKRE_FNaI_62.mp4	0.0	134.00204014778137	2.5082859992980957
19	53.199334144592285	fix_post	2		12.0	17.0	2.5	/experiments/knapen_aot/videos/R_S_yt-aSEKRE_FNaI_62.mp4	0.0	136.51032614707947	0.09999299049377441
20	53.29932713508606	fix_pre	0		12.0	18.0	2.5	/experiments/knapen_aot/videos/R_S_yt-9qXwehMoX7o_50.mp4	0.0	136.61031913757324	0.09997892379760742
20	53.39108610153198	response	0	4		18.0	2.5	/experiments/knapen_aot/videos/R_S_yt-9qXwehMoX7o_50.mp4	0.0	136.70207810401917	
20	53.39930605888367	movie	1		300.0	18.0	2.5	/experiments/knapen_aot/videos/R_S_yt-9qXwehMoX7o_50.mp4	0.0	136.71029806137085	2.5083160400390625
20	55.90762209892273	fix_post	2		12.0	18.0	2.5	/experiments/knapen_aot/videos/R_S_yt-9qXwehMoX7o_50.mp4	0.0	139.2186141014099	0.1000368595123291
21	56.00765895843506	fix_pre	0		22.0	19.0	2.5	/experiments/knapen_aot/videos/R_S_yt-ujdFTAUE8rc_34.mp4	0.0	139.31865096092224	0.1833040714263916
21	56.18273401260376	response	0	2		19.0	2.5	/experiments/knapen_aot/videos/R_S_yt-ujdFTAUE8rc_34.mp4	0.0	139.49372601509094	
21	56.19096302986145	movie	1		301.0	19.0	2.5	/experiments/knapen_aot/videos/R_S_yt-ujdFTAUE8rc_34.mp4	0.0	139.50195503234863	2.5083489418029785
21	58.69931197166443	fix_post	2		12.0	19.0	2.5	/experiments/knapen_aot/videos/R_S_yt-ujdFTAUE8rc_34.mp4	0.0	142.0103039741516	0.1000051498413086
22	58.79931712150574	fix_pre	0		28.0	20.0	2.5	blank	1.0	142.11030912399292	0.23397588729858398
22	59.02447509765625	response	0	2		20.0	2.5	blank	1.0	142.33546710014343	
22	59.03329300880432	movie	1		301.0	20.0	2.5	blank	1.0	142.3442850112915	2.507629156112671
22	61.54092216491699	fix_post	2		12.0	20.0	2.5	blank	1.0	144.85191416740417	0.09998488426208496
23	61.64090704917908	fix_pre	0		19.0	21.0	2.5	/experiments/knapen_aot/videos/R_S_bing-vimeo_com_161378598_22.mp4	0.0	144.95189905166626	0.15839695930480957
23	61.791085958480835	response	0	4		21.0	2.5	/experiments/knapen_aot/videos/R_S_bing-vimeo_com_161378598_22.mp4	0.0	145.10207796096802	
23	61.79930400848389	movie	1		167.0	21.0	2.5	/experiments/knapen_aot/videos/R_S_bing-vimeo_com_161378598_22.mp4	0.0	145.11029601097107	2.508371114730835
23	64.30767512321472	fix_post	2		12.0	21.0	2.5	/experiments/knapen_aot/videos/R_S_bing-vimeo_com_161378598_22.mp4	0.0	147.6186671257019	0.10054683685302734
24	64.40822196006775	fix_pre	0		17.0	22.0	2.5	/experiments/knapen_aot/videos/R_S_ILSVRC2015_train_00425000.mp4	0.0	147.71921396255493	0.14104318618774414
24	64.5411159992218	response	0	2		22.0	2.5	/experiments/knapen_aot/videos/R_S_ILSVRC2015_train_00425000.mp4	0.0	147.85210800170898	
24	64.5492651462555	movie	1		301.0	22.0	2.5	/experiments/knapen_aot/videos/R_S_ILSVRC2015_train_00425000.mp4	0.0	147.86025714874268	2.5083348751068115
24	67.0576000213623	fix_post	2		12.0	22.0	2.5	/experiments/knapen_aot/videos/R_S_ILSVRC2015_train_00425000.mp4	0.0	150.3685920238495	0.10002398490905762
25	67.15762400627136	fix_pre	0		35.0	23.0	2.5	/experiments/knapen_aot/videos/S_yt_R-JarqKC4X8nM_4.mp4	0.0	150.46861600875854	0.2922370433807373
25	67.43352603912354	response	0	2		23.0	2.5	/experiments/knapen_aot/videos/S_yt_R-JarqKC4X8nM_4.mp4	0.0	150.74451804161072	
25	67.4498610496521	movie	1		298.0	23.0	2.5	/experiments/knapen_aot/videos/S_yt_R-JarqKC4X8nM_4.mp4	0.0	150.76085305213928	2.5077779293060303
25	69.95763897895813	fix_post	2		12.0	23.0	2.5	/experiments/knapen_aot/videos/S_yt_R-JarqKC4X8nM_4.mp4	0.0	153.2686309814453	0.09999799728393555
26	70.05763697624207	fix_pre	0		12.0	24.0	2.5	/experiments/knapen_aot/videos/R_S_yt-kiEFK7bDssE_14.mp4	0.0	153.36862897872925	0.10051107406616211
26	70.14936017990112	response	0	4		24.0	2.5	/experiments/knapen_aot/videos/R_S_yt-kiEFK7bDssE_14.mp4	0.0	153.4603521823883	
26	70.15814805030823	movie	1		301.0	24.0	2.5	/experiments/knapen_aot/videos/R_S_yt-kiEFK7bDssE_14.mp4	0.0	153.4691400527954	2.507735013961792
26	72.66588306427002	fix_post	2		12.0	24.0	2.5	/experiments/knapen_aot/videos/R_S_yt-kiEFK7bDssE_14.mp4	0.0	155.9768750667572	0.09998106956481934
27	72.76586413383484	fix_pre	0		6.0	25.0	2.5	/experiments/knapen_aot/videos/S_yt-GLK6LniTOK0_69.mp4	0.0	156.07685613632202	0.05204296112060547
27	72.80106902122498	response	0	2		25.0	2.5	/experiments/knapen_aot/videos/S_yt-GLK6LniTOK0_69.mp4	0.0	156.11206102371216	
27	72.81790709495544	movie	1		301.0	25.0	2.5	/experiments/knapen_aot/videos/S_yt-GLK6LniTOK0_69.mp4	0.0	156.12889909744263	2.5063869953155518
27	75.324294090271	fix_post	2		12.0	25.0	2.5	/experiments/knapen_aot/videos/S_yt-GLK6LniTOK0_69.mp4	0.0	158.63528609275818	0.09997701644897461
28	75.42427110671997	fix_pre	0		39.0	26.0	2.5	/experiments/knapen_aot/videos/S_yt-ibDaDIEazxg_3.mp4	0.0	158.73526310920715	0.32495903968811035
28	75.74105095863342	response	0	4		26.0	2.5	/experiments/knapen_aot/videos/S_yt-ibDaDIEazxg_3.mp4	0.0	159.0520429611206	
28	75.74923014640808	movie	1		301.0	26.0	2.5	/experiments/knapen_aot/videos/S_yt-ibDaDIEazxg_3.mp4	0.0	159.06022214889526	2.508354902267456
28	78.25758504867554	fix_post	2		12.0	26.0	2.5	/experiments/knapen_aot/videos/S_yt-ibDaDIEazxg_3.mp4	0.0	161.56857705116272	0.09999299049377441
28	78.28365802764893	response	2	2		26.0	2.5	/experiments/knapen_aot/videos/S_yt-ibDaDIEazxg_3.mp4	0.0	161.5946500301361	
29	78.35757803916931	fix_pre	0		38.0	27.0	2.5	/experiments/knapen_aot/videos/R_S_AK_A004_C012_SDR_20191217_SDR_2K_AVC.mp4	0.0	161.6685700416565	0.3166630268096924
29	78.65856719017029	response	0	2		27.0	2.5	/experiments/knapen_aot/videos/R_S_AK_A004_C012_SDR_20191217_SDR_2K_AVC.mp4	0.0	161.96955919265747	
29	78.674241065979	movie	1		164.0	27.0	2.5	/experiments/knapen_aot/videos/R_S_AK_A004_C012_SDR_20191217_SDR_2K_AVC.mp4	0.0	161.9852330684662	2.508327007293701
29	81.1825680732727	fix_post	2		12.0	27.0	2.5	/experiments/knapen_aot/videos/R_S_AK_A004_C012_SDR_20191217_SDR_2K_AVC.mp4	0.0	164.4935600757599	0.10002589225769043
30	81.2825939655304	fix_pre	0		9.0	28.0	2.5	blank	1.0	164.59358596801758	0.07494807243347168
30	81.34935712814331	response	0	2		28.0	2.5	blank	1.0	164.6603491306305	
30	81.35754203796387	movie	1		301.0	28.0	2.5	blank	1.0	164.66853404045105	2.508286952972412
30	83.86582899093628	fix_post	2		12.0	28.0	2.5	blank	1.0	167.17682099342346	0.1000211238861084
30	83.95769715309143	response	2	4		28.0	2.5	blank	1.0	167.2686891555786	
31	83.96585011482239	fix_pre	0		38.0	29.0	2.5	/experiments/knapen_aot/videos/S_pexels-mikhail-nilov-8410063.mp4	0.0	167.27684211730957	0.3171360492706299
31	84.26675796508789	response	0	4		29.0	2.5	/experiments/knapen_aot/videos/S_pexels-mikhail-nilov-8410063.mp4	0.0	167.57774996757507	
31	84.28298616409302	movie	1		165.0	29.0	2.5	/experiments/knapen_aot/videos/S_pexels-mikhail-nilov-8410063.mp4	0.0	167.5939781665802	2.5077807903289795
31	86.790766954422	fix_post	2		12.0	29.0	2.5	/experiments/knapen_aot/videos/S_pexels-mikhail-nilov-8410063.mp4	0.0	170.10175895690918	0.1001272201538086
32	86.8908941745758	fix_pre	0		1.0	30.0	2.5	/experiments/knapen_aot/videos/S_ILSVRC2015_train_00324000.mp4	0.0	170.201886177063	0.010634899139404297
32	86.89253616333008	response	0	2		30.0	2.5	/experiments/knapen_aot/videos/S_ILSVRC2015_train_00324000.mp4	0.0	170.20352816581726	
32	86.90152907371521	movie	1		301.0	30.0	2.5	/experiments/knapen_aot/videos/S_ILSVRC2015_train_00324000.mp4	0.0	170.2125210762024	2.5059010982513428
32	89.40743017196655	fix_post	2		12.0	30.0	2.5	/experiments/knapen_aot/videos/S_ILSVRC2015_train_00324000.mp4	0.0	172.71842217445374	0.10008883476257324
33	89.50751900672913	fix_pre	0		111.0	31.0	2.5	/experiments/knapen_aot/videos/S_production_ID_4820868.mp4	0.0	172.8185110092163	0.9250590801239014
33	90.42438507080078	response	0	4		31.0	2.5	/experiments/knapen_aot/videos/S_production_ID_4820868.mp4	0.0	173.73537707328796	
33	90.43257808685303	movie	1		170.0	31.0	2.5	/experiments/knapen_aot/videos/S_production_ID_4820868.mp4	0.0	173.7435700893402	2.508297920227051
33	92.94087600708008	fix_post	2		12.0	31.0	2.5	/experiments/knapen_aot/videos/S_production_ID_4820868.mp4	0.0	176.25186800956726	0.10000109672546387
34	93.04087710380554	fix_pre	0		7.0	32.0	2.5	/experiments/knapen_aot/videos/S_production_ID_4720614.mp4	0.0	176.35186910629272	0.058316946029663086
34	93.09101700782776	response	0	2		32.0	2.5	/experiments/knapen_aot/videos/S_production_ID_4720614.mp4	0.0	176.40200901031494	
34	93.0991940498352	movie	1		193.0	32.0	2.5	/experiments/knapen_aot/videos/S_production_ID_4720614.mp4	0.0	176.4101860523224	2.5082499980926514
34	95.60744404792786	fix_post	2		12.0	32.0	2.5	/experiments/knapen_aot/videos/S_production_ID_4720614.mp4	0.0	178.91843605041504	0.10002613067626953
35	95.70747017860413	fix_pre	0		18.0	33.0	2.5	/experiments/knapen_aot/videos/S_ILSVRC2015_train_00569006.mp4	0.0	179.0184621810913	0.1499929428100586
35	95.84930205345154	response	0	4		33.0	2.5	/experiments/knapen_aot/videos/S_ILSVRC2015_train_00569006.mp4	0.0	179.16029405593872	
35	95.85746312141418	movie	1		301.0	33.0	2.5	/experiments/knapen_aot/videos/S_ILSVRC2015_train_00569006.mp4	0.0	179.16845512390137	2.5083260536193848
35	98.36578917503357	fix_post	2		12.0	33.0	2.5	/experiments/knapen_aot/videos/S_ILSVRC2015_train_00569006.mp4	0.0	181.67678117752075	0.10003399848937988
36	98.46582317352295	fix_pre	0		6.0	34.0	2.5	blank	1.0	181.77681517601013	0.049980878829956055
36	98.50765109062195	response	0	2		34.0	2.5	blank	1.0	181.81864309310913	
36	98.5158040523529	movie	1		301.0	34.0	2.5	blank	1.0	181.8267960548401	2.508389949798584
36	101.02419400215149	fix_post	2		12.0	34.0	2.5	blank	1.0	184.33518600463867	0.09998512268066406
37	101.12417912483215	fix_pre	0		30.0	35.0	2.5	/experiments/knapen_aot/videos/R_S_yt--5ls65Ue1RA_52.mp4	0.0	184.43517112731934	0.24992895126342773
37	101.36591506004333	response	0	4		35.0	2.5	/experiments/knapen_aot/videos/R_S_yt--5ls65Ue1RA_52.mp4	0.0	184.67690706253052	
37	101.37410807609558	movie	1		301.0	35.0	2.5	/experiments/knapen_aot/videos/R_S_yt--5ls65Ue1RA_52.mp4	0.0	184.68510007858276	2.5083870887756348
37	103.88249516487122	fix_post	2		12.0	35.0	2.5	/experiments/knapen_aot/videos/R_S_yt--5ls65Ue1RA_52.mp4	0.0	187.1934871673584	0.09990382194519043
38	103.9823989868164	fix_pre	0		4.0	36.0	2.5	/experiments/knapen_aot/videos/R_S_yt-aD-EAuBdpUo_163.mp4	0.0	187.2933909893036	0.033358097076416016
38	104.00770902633667	response	0	2		36.0	2.5	/experiments/knapen_aot/videos/R_S_yt-aD-EAuBdpUo_163.mp4	0.0	187.31870102882385	
38	104.01575708389282	movie	1		301.0	36.0	2.5	/experiments/knapen_aot/videos/R_S_yt-aD-EAuBdpUo_163.mp4	0.0	187.32674908638	2.508312940597534
38	106.52407002449036	fix_post	2		12.0	36.0	2.5	/experiments/knapen_aot/videos/R_S_yt-aD-EAuBdpUo_163.mp4	0.0	189.83506202697754	0.10007596015930176
39	106.62414598464966	fix_pre	0		34.0	37.0	2.5	/experiments/knapen_aot/videos/S_ILSVRC2015_train_00373000.mp4	0.0	189.93513798713684	0.2836430072784424
39	106.89923000335693	response	0	2		37.0	2.5	/experiments/knapen_aot/videos/S_ILSVRC2015_train_00373000.mp4	0.0	190.21022200584412	
39	106.9077889919281	movie	1		301.0	37.0	2.5	/experiments/knapen_aot/videos/S_ILSVRC2015_train_00373000.mp4	0.0	190.21878099441528	2.5080180168151855
39	109.41580700874329	fix_post	2		12.0	37.0	2.5	/experiments/knapen_aot/videos/S_ILSVRC2015_train_00373000.mp4	0.0	192.72679901123047	0.09995913505554199
40	109.51576614379883	fix_pre	0		39.0	38.0	2.5	/experiments/knapen_aot/videos/R_S_g201_CA_A016_C002_SDR_20191114_SDR_2K_AVC.mp4	0.0	192.826758146286	0.32495903968811035
40	109.83258700370789	response	0	2		38.0	2.5	/experiments/knapen_aot/videos/R_S_g201_CA_A016_C002_SDR_20191114_SDR_2K_AVC.mp4	0.0	193.14357900619507	
40	109.84072518348694	movie	1		167.0	38.0	2.5	/experiments/knapen_aot/videos/R_S_g201_CA_A016_C002_SDR_20191114_SDR_2K_AVC.mp4	0.0	193.15171718597412	2.5084049701690674
40	112.349130153656	fix_post	2		12.0	38.0	2.5	/experiments/knapen_aot/videos/R_S_g201_CA_A016_C002_SDR_20191114_SDR_2K_AVC.mp4	0.0	195.6601221561432	0.10036587715148926
41	112.4494960308075	fix_pre	0		20.0	39.0	2.5	/experiments/knapen_aot/videos/S_yt-6MwA-jx56AQ_612.mp4	0.0	195.76048803329468	0.16660094261169434
41	112.60758709907532	response	0	2		39.0	2.5	/experiments/knapen_aot/videos/S_yt-6MwA-jx56AQ_612.mp4	0.0	195.9185791015625	
41	112.61609697341919	movie	1		301.0	39.0	2.5	/experiments/knapen_aot/videos/S_yt-6MwA-jx56AQ_612.mp4	0.0	195.92708897590637	2.5079760551452637
41	115.12407302856445	fix_post	2		12.0	39.0	2.5	/experiments/knapen_aot/videos/S_yt-6MwA-jx56AQ_612.mp4	0.0	198.43506503105164	0.10006904602050781
42	115.22414207458496	fix_pre	0		19.0	40.0	2.5	/experiments/knapen_aot/videos/R_S_m-aeoYPMqfg_185.mp4	0.0	198.53513407707214	0.15823602676391602
42	115.3741660118103	response	0	2		40.0	2.5	/experiments/knapen_aot/videos/R_S_m-aeoYPMqfg_185.mp4	0.0	198.68515801429749	
42	115.38237810134888	movie	1		301.0	40.0	2.5	/experiments/knapen_aot/videos/R_S_m-aeoYPMqfg_185.mp4	0.0	198.69337010383606	2.5083959102630615
42	117.89077401161194	fix_post	2		12.0	40.0	2.5	/experiments/knapen_aot/videos/R_S_m-aeoYPMqfg_185.mp4	0.0	201.20176601409912	0.09999608993530273
42	117.9658830165863	response	2	2		40.0	2.5	/experiments/knapen_aot/videos/R_S_m-aeoYPMqfg_185.mp4	0.0	201.2768750190735	
43	117.99077010154724	fix_pre	0		42.0	41.0	2.5	blank	1.0	201.30176210403442	0.34999799728393555
43	118.33251810073853	response	0	2		41.0	2.5	blank	1.0	201.6435101032257	
43	118.34076809883118	movie	1		301.0	41.0	2.5	blank	1.0	201.65176010131836	2.508357048034668
43	120.84912514686584	fix_post	2		12.0	41.0	2.5	blank	1.0	204.16011714935303	0.10025382041931152
44	120.94937896728516	fix_pre	0		41.0	42.0	2.5	/experiments/knapen_aot/videos/S_yt-EZCX42e_bkc_78.mp4	0.0	204.26037096977234	0.3413271903991699
44	121.28255200386047	response	0	2		42.0	2.5	/experiments/knapen_aot/videos/S_yt-EZCX42e_bkc_78.mp4	0.0	204.59354400634766	
44	121.29070615768433	movie	1		298.0	42.0	2.5	/experiments/knapen_aot/videos/S_yt-EZCX42e_bkc_78.mp4	0.0	204.6016981601715	2.5083069801330566
44	123.79901313781738	fix_post	2		12.0	42.0	2.5	/experiments/knapen_aot/videos/S_yt-EZCX42e_bkc_78.mp4	0.0	207.11000514030457	0.09996891021728516
45	123.89898204803467	fix_pre	0		22.0	43.0	2.5	/experiments/knapen_aot/videos/S_yt-jbvXEFk2Gyw_12.mp4	0.0	207.20997405052185	0.18331408500671387
45	124.07414317131042	response	0	2		43.0	2.5	/experiments/knapen_aot/videos/S_yt-jbvXEFk2Gyw_12.mp4	0.0	207.3851351737976	
45	124.08229613304138	movie	1		301.0	43.0	2.5	/experiments/knapen_aot/videos/S_yt-jbvXEFk2Gyw_12.mp4	0.0	207.39328813552856	2.5083839893341064
45	126.59068012237549	fix_post	2		12.0	43.0	2.5	/experiments/knapen_aot/videos/S_yt-jbvXEFk2Gyw_12.mp4	0.0	209.90167212486267	0.1000669002532959
46	126.69074702262878	fix_pre	0		42.0	44.0	2.5	/experiments/knapen_aot/videos/R_S_yt-P001x88adE4_427.mp4	0.0	210.00173902511597	0.34990596771240234
46	127.0324330329895	response	0	2		44.0	2.5	/experiments/knapen_aot/videos/R_S_yt-P001x88adE4_427.mp4	0.0	210.34342503547668	
46	127.04065299034119	movie	1		301.0	44.0	2.5	/experiments/knapen_aot/videos/R_S_yt-P001x88adE4_427.mp4	0.0	210.35164499282837	2.508376121520996
46	129.54902911186218	fix_post	2		12.0	44.0	2.5	/experiments/knapen_aot/videos/R_S_yt-P001x88adE4_427.mp4	0.0	212.86002111434937	0.09988903999328613
47	129.64891815185547	fix_pre	0		10.0	45.0	2.5	/experiments/knapen_aot/videos/S_production_ID_4820868.mp4	0.0	212.95991015434265	0.08345794677734375
47	129.72413897514343	response	0	4		45.0	2.5	/experiments/knapen_aot/videos/S_production_ID_4820868.mp4	0.0	213.03513097763062	
47	129.7323760986328	movie	1		165.0	45.0	2.5	/experiments/knapen_aot/videos/S_production_ID_4820868.mp4	0.0	213.04336810112	2.50833797454834
47	131.98410201072693	response	1	2		45.0	2.5	/experiments/knapen_aot/videos/S_production_ID_4820868.mp4	0.0	215.2950940132141	
47	132.24071407318115	fix_post	2		12.0	45.0	2.5	/experiments/knapen_aot/videos/S_production_ID_4820868.mp4	0.0	215.55170607566833	0.09999608993530273
48	132.34071016311646	fix_pre	0		18.0	46.0	2.5	/experiments/knapen_aot/videos/S_yt-JpOBXV46TLE_124.mp4	0.0	215.65170216560364	0.15016984939575195
48	132.48247718811035	response	0	2		46.0	2.5	/experiments/knapen_aot/videos/S_yt-JpOBXV46TLE_124.mp4	0.0	215.79346919059753	
48	132.4908800125122	movie	1		301.0	46.0	2.5	/experiments/knapen_aot/videos/S_yt-JpOBXV46TLE_124.mp4	0.0	215.8018720149994	2.5081679821014404
48	134.99904799461365	fix_post	2		12.0	46.0	2.5	/experiments/knapen_aot/videos/S_yt-JpOBXV46TLE_124.mp4	0.0	218.31003999710083	0.10000109672546387
49	135.0990490913391	fix_pre	0		16.0	47.0	2.5	/experiments/knapen_aot/videos/R_S_ILSVRC2015_train_00460000.mp4	0.0	218.4100410938263	0.13329291343688965
49	135.22414898872375	response	0	4		47.0	2.5	/experiments/knapen_aot/videos/R_S_ILSVRC2015_train_00460000.mp4	0.0	218.53514099121094	
49	135.232342004776	movie	1		301.0	47.0	2.5	/experiments/knapen_aot/videos/R_S_ILSVRC2015_train_00460000.mp4	0.0	218.54333400726318	2.508538007736206
49	137.7408800125122	fix_post	2		12.0	47.0	2.5	/experiments/knapen_aot/videos/R_S_ILSVRC2015_train_00460000.mp4	0.0	221.0518720149994	0.09970903396606445
50	137.84058904647827	fix_pre	0		5.0	48.0	2.5	/experiments/knapen_aot/videos/R_S_yt-z68VLDDCFdw_93.mp4	0.0	221.15158104896545	0.04172992706298828
50	137.8741970062256	response	0	2		48.0	2.5	/experiments/knapen_aot/videos/R_S_yt-z68VLDDCFdw_93.mp4	0.0	221.18518900871277	
50	137.88231897354126	movie	1		301.0	48.0	2.5	/experiments/knapen_aot/videos/R_S_yt-z68VLDDCFdw_93.mp4	0.0	221.19331097602844	2.5083601474761963
50	140.39067912101746	fix_post	2		12.0	48.0	2.5	/experiments/knapen_aot/videos/R_S_yt-z68VLDDCFdw_93.mp4	0.0	223.70167112350464	0.1002509593963623
51	140.49093008041382	fix_pre	0		18.0	49.0	2.5	blank	1.0	223.801922082901	0.1497499942779541
51	140.63249015808105	response	0	2		49.0	2.5	blank	1.0	223.94348216056824	
51	140.64068007469177	movie	1		301.0	49.0	2.5	blank	1.0	223.95167207717896	2.508336067199707
51	142.80748105049133	response	1	4		49.0	2.5	blank	1.0	226.11847305297852	
51	143.14901614189148	fix_post	2		12.0	49.0	2.5	blank	1.0	226.46000814437866	0.10002589225769043
52	143.24904203414917	fix_pre	0		11.0	50.0	2.5	/experiments/knapen_aot/videos/R_S_comp_HK_H004_C013_t9_6M_HB_tag0.mp4	0.0	226.56003403663635	0.0915989875793457
52	143.33247017860413	response	0	4		50.0	2.5	/experiments/knapen_aot/videos/R_S_comp_HK_H004_C013_t9_6M_HB_tag0.mp4	0.0	226.6434621810913	
52	143.34064102172852	movie	1		176.0	50.0	2.5	/experiments/knapen_aot/videos/R_S_comp_HK_H004_C013_t9_6M_HB_tag0.mp4	0.0	226.6516330242157	2.5083019733428955
52	145.8489429950714	fix_post	2		12.0	50.0	2.5	/experiments/knapen_aot/videos/R_S_comp_HK_H004_C013_t9_6M_HB_tag0.mp4	0.0	229.1599349975586	0.10021305084228516
53	145.9491560459137	fix_pre	0		9.0	51.0	2.5	/experiments/knapen_aot/videos/R_S_ILSVRC2015_train_00479001.mp4	0.0	229.26014804840088	0.07484006881713867
53	146.01581597328186	response	0	2		51.0	2.5	/experiments/knapen_aot/videos/R_S_ILSVRC2015_train_00479001.mp4	0.0	229.32680797576904	
53	146.02399611473083	movie	1		301.0	51.0	2.5	/experiments/knapen_aot/videos/R_S_ILSVRC2015_train_00479001.mp4	0.0	229.33498811721802	2.508297920227051
53	148.53229403495789	fix_post	2		12.0	51.0	2.5	/experiments/knapen_aot/videos/R_S_ILSVRC2015_train_00479001.mp4	0.0	231.84328603744507	0.09994912147521973
54	148.6322431564331	fix_pre	0		30.0	52.0	2.5	/experiments/knapen_aot/videos/S_yt-ybH6uAiFbjc_273.mp4	0.0	231.9432351589203	0.24998903274536133
54	148.87395215034485	response	0	4		52.0	2.5	/experiments/knapen_aot/videos/S_yt-ybH6uAiFbjc_273.mp4	0.0	232.18494415283203	
54	148.88223218917847	movie	1		301.0	52.0	2.5	/experiments/knapen_aot/videos/S_yt-ybH6uAiFbjc_273.mp4	0.0	232.19322419166565	2.5083417892456055
54	151.39057397842407	fix_post	2		12.0	52.0	2.5	/experiments/knapen_aot/videos/S_yt-ybH6uAiFbjc_273.mp4	0.0	234.70156598091125	0.10017514228820801
55	151.49074912071228	fix_pre	0		15.0	53.0	2.5	/experiments/knapen_aot/videos/R_S_comp_HK_H004_C013_t9_6M_HB_tag0.mp4	0.0	234.80174112319946	0.1250460147857666
55	151.6073591709137	response	0	2		53.0	2.5	/experiments/knapen_aot/videos/R_S_comp_HK_H004_C013_t9_6M_HB_tag0.mp4	0.0	234.91835117340088	
55	151.61579513549805	movie	1		175.0	53.0	2.5	/experiments/knapen_aot/videos/R_S_comp_HK_H004_C013_t9_6M_HB_tag0.mp4	0.0	234.92678713798523	2.508141040802002
55	154.12393617630005	fix_post	2		12.0	53.0	2.5	/experiments/knapen_aot/videos/R_S_comp_HK_H004_C013_t9_6M_HB_tag0.mp4	0.0	237.43492817878723	0.09994387626647949
56	154.22388005256653	fix_pre	0		26.0	54.0	2.5	/experiments/knapen_aot/videos/R_S_production_ID_5139371.mp4	0.0	237.5348720550537	0.2165849208831787
56	154.43239402770996	response	0	4		54.0	2.5	/experiments/knapen_aot/videos/R_S_production_ID_5139371.mp4	0.0	237.74338603019714	
56	154.4404649734497	movie	1		168.0	54.0	2.5	/experiments/knapen_aot/videos/R_S_production_ID_5139371.mp4	0.0	237.7514569759369	2.508416175842285
56	156.948881149292	fix_post	2		12.0	54.0	2.5	/experiments/knapen_aot/videos/R_S_production_ID_5139371.mp4	0.0	240.25987315177917	0.10004401206970215
57	157.0489251613617	fix_pre	0		10.0	55.0	2.5	blank	1.0	240.35991716384888	0.08332300186157227
57	157.12391805648804	response	0	2		55.0	2.5	blank	1.0	240.43491005897522	
57	157.13224816322327	movie	1		301.0	55.0	2.5	blank	1.0	240.44324016571045	2.5083680152893066
57	159.64061617851257	fix_post	2		12.0	55.0	2.5	blank	1.0	242.95160818099976	0.10002493858337402
58	159.74064111709595	fix_pre	0		47.0	56.0	2.5	/experiments/knapen_aot/videos/R_S_8amznWxLS04_212.mp4	0.0	243.05163311958313	0.39162206649780273
58	160.11657404899597	response	0	4		56.0	2.5	/experiments/knapen_aot/videos/R_S_8amznWxLS04_212.mp4	0.0	243.42756605148315	
58	160.13226318359375	movie	1		301.0	56.0	2.5	/experiments/knapen_aot/videos/R_S_8amznWxLS04_212.mp4	0.0	243.44325518608093	2.5083069801330566
58	162.6405701637268	fix_post	2		12.0	56.0	2.5	/experiments/knapen_aot/videos/R_S_8amznWxLS04_212.mp4	0.0	245.951562166214	0.10006499290466309
59	162.74063515663147	fix_pre	0		27.0	57.0	2.5	/experiments/knapen_aot/videos/S_yt-RO4mhuXBVrY_67.mp4	0.0	246.05162715911865	0.22482991218566895
59	162.95735812187195	response	0	2		57.0	2.5	/experiments/knapen_aot/videos/S_yt-RO4mhuXBVrY_67.mp4	0.0	246.26835012435913	
59	162.96546506881714	movie	1		298.0	57.0	2.5	/experiments/knapen_aot/videos/S_yt-RO4mhuXBVrY_67.mp4	0.0	246.27645707130432	2.508363962173462
59	165.4738290309906	fix_post	2		12.0	57.0	2.5	/experiments/knapen_aot/videos/S_yt-RO4mhuXBVrY_67.mp4	0.0	248.78482103347778	0.10009598731994629
60	165.57392501831055	fix_pre	0		19.0	58.0	2.5	/experiments/knapen_aot/videos/R_S_yt-9yxWUrtQJnw_11.mp4	0.0	248.88491702079773	0.15825700759887695
60	165.7239830493927	response	0	4		58.0	2.5	/experiments/knapen_aot/videos/R_S_yt-9yxWUrtQJnw_11.mp4	0.0	249.03497505187988	
60	165.73218202590942	movie	1		301.0	58.0	2.5	/experiments/knapen_aot/videos/R_S_yt-9yxWUrtQJnw_11.mp4	0.0	249.0431740283966	2.5085160732269287
60	168.24069809913635	fix_post	2		12.0	58.0	2.5	/experiments/knapen_aot/videos/R_S_yt-9yxWUrtQJnw_11.mp4	0.0	251.55169010162354	0.09984493255615234
61	168.3405430316925	fix_pre	0		46.0	59.0	2.5	/experiments/knapen_aot/videos/S_production_ID_3735542.mp4	0.0	251.6515350341797	0.38323497772216797
61	168.7156581878662	response	0	2		59.0	2.5	/experiments/knapen_aot/videos/S_production_ID_3735542.mp4	0.0	252.0266501903534	
61	168.72377800941467	movie	1		169.0	59.0	2.5	/experiments/knapen_aot/videos/S_production_ID_3735542.mp4	0.0	252.03477001190186	2.508416175842285
61	171.23219418525696	fix_post	2		12.0	59.0	2.5	/experiments/knapen_aot/videos/S_production_ID_3735542.mp4	0.0	254.54318618774414	0.09998893737792969
62	171.3321831226349	fix_pre	0		54.0	60.0	2.5	/experiments/knapen_aot/videos/R_S_ILSVRC2015_train_00165011.mp4	0.0	254.64317512512207	0.45003485679626465
62	171.77399706840515	response	0	4		60.0	2.5	/experiments/knapen_aot/videos/R_S_ILSVRC2015_train_00165011.mp4	0.0	255.08498907089233	
62	171.78221797943115	movie	1		300.0	60.0	2.5	/experiments/knapen_aot/videos/R_S_ILSVRC2015_train_00165011.mp4	0.0	255.09320998191833	2.5083119869232178
62	174.29052996635437	fix_post	2		12.0	60.0	2.5	/experiments/knapen_aot/videos/R_S_ILSVRC2015_train_00165011.mp4	0.0	257.60152196884155	0.09998011589050293
63	174.39051008224487	fix_pre	0		58.0	61.0	2.5	blank	1.0	257.70150208473206	0.4832789897918701
63	174.86560201644897	response	0	4		61.0	2.5	blank	1.0	258.17659401893616	
63	174.87378907203674	movie	1		301.0	61.0	2.5	blank	1.0	258.1847810745239	2.5083789825439453
63	177.3821680545807	fix_post	2		12.0	61.0	2.5	blank	1.0	260.69316005706787	0.09997797012329102
64	177.48214602470398	fix_pre	0		30.0	62.0	2.5	/experiments/knapen_aot/videos/R_S_ILSVRC2015_train_00165011.mp4	0.0	260.79313802719116	0.2501060962677002
64	177.72392416000366	response	0	2		62.0	2.5	/experiments/knapen_aot/videos/R_S_ILSVRC2015_train_00165011.mp4	0.0	261.03491616249084	
64	177.73225212097168	movie	1		301.0	62.0	2.5	/experiments/knapen_aot/videos/R_S_ILSVRC2015_train_00165011.mp4	0.0	261.04324412345886	2.508280038833618
64	180.2405321598053	fix_post	2		12.0	62.0	2.5	/experiments/knapen_aot/videos/R_S_ILSVRC2015_train_00165011.mp4	0.0	263.5515241622925	0.0999898910522461
65	180.34052205085754	fix_pre	0		75.0	63.0	2.5	/experiments/knapen_aot/videos/S_yt-Rqwi-Fk9IJQ_114.mp4	0.0	263.6515140533447	0.6249840259552002
65	180.95732808113098	response	0	2		63.0	2.5	/experiments/knapen_aot/videos/S_yt-Rqwi-Fk9IJQ_114.mp4	0.0	264.26832008361816	
65	180.96550607681274	movie	1		301.0	63.0	2.5	/experiments/knapen_aot/videos/S_yt-Rqwi-Fk9IJQ_114.mp4	0.0	264.2764980792999	2.508327007293701
65	183.47383308410645	fix_post	2		12.0	63.0	2.5	/experiments/knapen_aot/videos/S_yt-Rqwi-Fk9IJQ_114.mp4	0.0	266.7848250865936	0.10006093978881836
66	183.57389402389526	fix_pre	0		22.0	64.0	2.5	/experiments/knapen_aot/videos/S_yt-JGKdBO2Ldzo_93.mp4	0.0	266.88488602638245	0.1832411289215088
66	183.74893307685852	response	0	2		64.0	2.5	/experiments/knapen_aot/videos/S_yt-JGKdBO2Ldzo_93.mp4	0.0	267.0599250793457	
66	183.75713515281677	movie	1		301.0	64.0	2.5	/experiments/knapen_aot/videos/S_yt-JGKdBO2Ldzo_93.mp4	0.0	267.06812715530396	2.5083389282226562
66	185.96043801307678	response	1	2		64.0	2.5	/experiments/knapen_aot/videos/S_yt-JGKdBO2Ldzo_93.mp4	0.0	269.27143001556396	
66	186.26547408103943	fix_post	2		12.0	64.0	2.5	/experiments/knapen_aot/videos/S_yt-JGKdBO2Ldzo_93.mp4	0.0	269.5764660835266	0.10004401206970215
67	186.36551809310913	fix_pre	0		26.0	65.0	2.5	/experiments/knapen_aot/videos/R_S_yt-EZCX42e_bkc_78.mp4	0.0	269.6765100955963	0.2166450023651123
67	186.57393097877502	response	0	2		65.0	2.5	/experiments/knapen_aot/videos/R_S_yt-EZCX42e_bkc_78.mp4	0.0	269.8849229812622	
67	186.58216309547424	movie	1		298.0	65.0	2.5	/experiments/knapen_aot/videos/R_S_yt-EZCX42e_bkc_78.mp4	0.0	269.8931550979614	2.5083060264587402
67	189.09046912193298	fix_post	2		12.0	65.0	2.5	/experiments/knapen_aot/videos/R_S_yt-EZCX42e_bkc_78.mp4	0.0	272.40146112442017	0.09995198249816895
68	189.19042110443115	fix_pre	0		15.0	66.0	2.5	/experiments/knapen_aot/videos/S_yt-GBt59U0KUR0_6.mp4	0.0	272.50141310691833	0.1249229907989502
68	189.30725717544556	response	0	2		66.0	2.5	/experiments/knapen_aot/videos/S_yt-GBt59U0KUR0_6.mp4	0.0	272.61824917793274	
68	189.3153440952301	movie	1		301.0	66.0	2.5	/experiments/knapen_aot/videos/S_yt-GBt59U0KUR0_6.mp4	0.0	272.6263360977173	2.508384943008423
68	191.82372903823853	fix_post	2		12.0	66.0	2.5	/experiments/knapen_aot/videos/S_yt-GBt59U0KUR0_6.mp4	0.0	275.1347210407257	0.10006904602050781
69	191.92379808425903	fix_pre	0		23.0	67.0	2.5	/experiments/knapen_aot/videos/R_S_yt-GbL63AmOIss_116.mp4	0.0	275.2347900867462	0.19158005714416504
69	192.10726308822632	response	0	2		67.0	2.5	/experiments/knapen_aot/videos/R_S_yt-GbL63AmOIss_116.mp4	0.0	275.4182550907135	
69	192.1153781414032	movie	1		301.0	67.0	2.5	/experiments/knapen_aot/videos/R_S_yt-GbL63AmOIss_116.mp4	0.0	275.4263701438904	2.50848388671875
69	194.62386202812195	fix_post	2		12.0	67.0	2.5	/experiments/knapen_aot/videos/R_S_yt-GbL63AmOIss_116.mp4	0.0	277.93485403060913	0.09990501403808594
70	194.72376704216003	fix_pre	0		23.0	68.0	2.5	blank	1.0	278.0347590446472	0.19166898727416992
70	194.90721702575684	response	0	2		68.0	2.5	blank	1.0	278.218209028244	
70	194.9154360294342	movie	1		301.0	68.0	2.5	blank	1.0	278.2264280319214	2.5084519386291504
70	197.42388796806335	fix_post	2		12.0	68.0	2.5	blank	1.0	280.73487997055054	0.09988212585449219
71	197.52377009391785	fix_pre	0		30.0	69.0	2.5	/experiments/knapen_aot/videos/S_m-aeoYPMqfg_185.mp4	0.0	280.83476209640503	0.25130295753479004
71	197.76548099517822	response	0	2		69.0	2.5	/experiments/knapen_aot/videos/S_m-aeoYPMqfg_185.mp4	0.0	281.0764729976654	
71	197.77507305145264	movie	1		301.0	69.0	2.5	/experiments/knapen_aot/videos/S_m-aeoYPMqfg_185.mp4	0.0	281.0860650539398	2.5070409774780273
71	200.28211402893066	fix_post	2		12.0	69.0	2.5	/experiments/knapen_aot/videos/S_m-aeoYPMqfg_185.mp4	0.0	283.59310603141785	0.09992098808288574
72	200.38203501701355	fix_pre	0		24.0	70.0	2.5	/experiments/knapen_aot/videos/S_ILSVRC2015_train_00323000.mp4	0.0	283.69302701950073	0.2000870704650879
72	200.5662820339203	response	0	2		70.0	2.5	/experiments/knapen_aot/videos/S_ILSVRC2015_train_00323000.mp4	0.0	283.87727403640747	
72	200.58212208747864	movie	1		301.0	70.0	2.5	/experiments/knapen_aot/videos/S_ILSVRC2015_train_00323000.mp4	0.0	283.8931140899658	2.508349895477295
72	203.09047198295593	fix_post	2		12.0	70.0	2.5	/experiments/knapen_aot/videos/S_ILSVRC2015_train_00323000.mp4	0.0	286.4014639854431	0.09991002082824707
73	203.19038200378418	fix_pre	0		19.0	71.0	2.5	/experiments/knapen_aot/videos/S_pexels-mikhail-nilov-8410063.mp4	0.0	286.50137400627136	0.15831708908081055
73	203.3330581188202	response	0	2		71.0	2.5	/experiments/knapen_aot/videos/S_pexels-mikhail-nilov-8410063.mp4	0.0	286.6440501213074	
73	203.348699092865	movie	1		166.0	71.0	2.5	/experiments/knapen_aot/videos/S_pexels-mikhail-nilov-8410063.mp4	0.0	286.6596910953522	2.5083460807800293
73	205.85704517364502	fix_post	2		12.0	71.0	2.5	/experiments/knapen_aot/videos/S_pexels-mikhail-nilov-8410063.mp4	0.0	289.1680371761322	0.09995698928833008
74	205.95700216293335	fix_pre	0		64.0	72.0	2.5	/experiments/knapen_aot/videos/R_S_yt-etF_WUW5D68_3.mp4	0.0	289.26799416542053	0.5333209037780762
74	206.48220705986023	response	0	2		72.0	2.5	/experiments/knapen_aot/videos/R_S_yt-etF_WUW5D68_3.mp4	0.0	289.7931990623474	
74	206.49032306671143	movie	1		301.0	72.0	2.5	/experiments/knapen_aot/videos/R_S_yt-etF_WUW5D68_3.mp4	0.0	289.8013150691986	2.5083839893341064
74	208.99870705604553	fix_post	2		12.0	72.0	2.5	/experiments/knapen_aot/videos/R_S_yt-etF_WUW5D68_3.mp4	0.0	292.3096990585327	0.10000205039978027
75	209.0987091064453	fix_pre	0		19.0	73.0	2.5	/experiments/knapen_aot/videos/S_ILSVRC2015_train_00460000.mp4	0.0	292.4097011089325	0.15828990936279297
75	209.24886202812195	response	0	2		73.0	2.5	/experiments/knapen_aot/videos/S_ILSVRC2015_train_00460000.mp4	0.0	292.55985403060913	
75	209.2569990158081	movie	1		301.0	73.0	2.5	/experiments/knapen_aot/videos/S_ILSVRC2015_train_00460000.mp4	0.0	292.5679910182953	2.5083820819854736
75	211.76538109779358	fix_post	2		12.0	73.0	2.5	/experiments/knapen_aot/videos/S_ILSVRC2015_train_00460000.mp4	0.0	295.07637310028076	0.10000085830688477
76	211.86538195610046	fix_pre	0		32.0	74.0	2.5	/experiments/knapen_aot/videos/S_yt-GLK6LniTOK0_69.mp4	0.0	295.17637395858765	0.26657819747924805
76	212.11622595787048	response	0	2		74.0	2.5	/experiments/knapen_aot/videos/S_yt-GLK6LniTOK0_69.mp4	0.0	295.42721796035767	
76	212.1319601535797	movie	1		301.0	74.0	2.5	/experiments/knapen_aot/videos/S_yt-GLK6LniTOK0_69.mp4	0.0	295.4429521560669	2.5084288120269775
76	214.6403889656067	fix_post	2		12.0	74.0	2.5	/experiments/knapen_aot/videos/S_yt-GLK6LniTOK0_69.mp4	0.0	297.9513809680939	0.10001802444458008
77	214.74040699005127	fix_pre	0		45.0	75.0	2.5	/experiments/knapen_aot/videos/R_S_Y011_C001_SDR_2K_AVC.mp4	0.0	298.05139899253845	0.37496113777160645
77	215.10715007781982	response	0	2		75.0	2.5	/experiments/knapen_aot/videos/R_S_Y011_C001_SDR_2K_AVC.mp4	0.0	298.418142080307	
77	215.11536812782288	movie	1		175.0	75.0	2.5	/experiments/knapen_aot/videos/R_S_Y011_C001_SDR_2K_AVC.mp4	0.0	298.42636013031006	2.508296012878418
77	217.6236641407013	fix_post	2		12.0	75.0	2.5	/experiments/knapen_aot/videos/R_S_Y011_C001_SDR_2K_AVC.mp4	0.0	300.9346561431885	0.10004591941833496
78	217.72371006011963	fix_pre	0		5.0	76.0	2.5	blank	1.0	301.0347020626068	0.04171109199523926
78	217.75718903541565	response	0	2		76.0	2.5	blank	1.0	301.06818103790283	
78	217.76542115211487	movie	1		301.0	76.0	2.5	blank	1.0	301.07641315460205	2.508262872695923
78	220.2736840248108	fix_post	2		12.0	76.0	2.5	blank	1.0	303.584676027298	0.10000205039978027
79	220.37368607521057	fix_pre	0		40.0	77.0	2.5	/experiments/knapen_aot/videos/S_yt-146gReE6xKw_379.mp4	0.0	303.68467807769775	0.333345890045166
79	220.6987841129303	response	0	2		77.0	2.5	/experiments/knapen_aot/videos/S_yt-146gReE6xKw_379.mp4	0.0	304.0097761154175	
79	220.70703196525574	movie	1		301.0	77.0	2.5	/experiments/knapen_aot/videos/S_yt-146gReE6xKw_379.mp4	0.0	304.0180239677429	2.50832200050354
79	223.21535396575928	fix_post	2		12.0	77.0	2.5	/experiments/knapen_aot/videos/S_yt-146gReE6xKw_379.mp4	0.0	306.52634596824646	0.09997320175170898
80	223.315327167511	fix_pre	0		28.0	78.0	2.5	/experiments/knapen_aot/videos/S_ILSVRC2015_train_00408000.mp4	0.0	306.62631916999817	0.2333359718322754
80	223.54047513008118	response	0	4		78.0	2.5	/experiments/knapen_aot/videos/S_ILSVRC2015_train_00408000.mp4	0.0	306.85146713256836	
80	223.54866313934326	movie	1		301.0	78.0	2.5	/experiments/knapen_aot/videos/S_ILSVRC2015_train_00408000.mp4	0.0	306.85965514183044	2.5083258152008057
80	226.05698895454407	fix_post	2		12.0	78.0	2.5	/experiments/knapen_aot/videos/S_ILSVRC2015_train_00408000.mp4	0.0	309.36798095703125	0.09998011589050293
81	226.15696907043457	fix_pre	0		26.0	79.0	2.5	/experiments/knapen_aot/videos/S_yt-5MyvZYFlc9g_125.mp4	0.0	309.46796107292175	0.21667909622192383
81	226.3654990196228	response	0	2		79.0	2.5	/experiments/knapen_aot/videos/S_yt-5MyvZYFlc9g_125.mp4	0.0	309.67649102211	
81	226.3736481666565	movie	1		301.0	79.0	2.5	/experiments/knapen_aot/videos/S_yt-5MyvZYFlc9g_125.mp4	0.0	309.6846401691437	2.5083320140838623
81	228.88198018074036	fix_post	2		12.0	79.0	2.5	/experiments/knapen_aot/videos/S_yt-5MyvZYFlc9g_125.mp4	0.0	312.19297218322754	0.09999489784240723
82	228.98197507858276	fix_pre	0		51.0	80.0	2.5	/experiments/knapen_aot/videos/R_S_pexels-koolshooters-7327401_1.mp4	0.0	312.29296708106995	0.4250059127807617
82	229.39122104644775	response	0	2		80.0	2.5	/experiments/knapen_aot/videos/R_S_pexels-koolshooters-7327401_1.mp4	0.0	312.70221304893494	
82	229.40698099136353	movie	1		172.0	80.0	2.5	/experiments/knapen_aot/videos/R_S_pexels-koolshooters-7327401_1.mp4	0.0	312.7179729938507	2.5082521438598633
82	231.9152331352234	fix_post	2		12.0	80.0	2.5	/experiments/knapen_aot/videos/R_S_pexels-koolshooters-7327401_1.mp4	0.0	315.22622513771057	0.10004591941833496
83	232.01527905464172	fix_pre	0		13.0	81.0	2.5	/experiments/knapen_aot/videos/S_video_inspire_uk_edinburgh_arthursseat_010.1080-h264.mp4	0.0	315.3262710571289	0.10833096504211426
83	232.1153371334076	response	0	2		81.0	2.5	/experiments/knapen_aot/videos/S_video_inspire_uk_edinburgh_arthursseat_010.1080-h264.mp4	0.0	315.4263291358948	
83	232.12361001968384	movie	1		172.0	81.0	2.5	/experiments/knapen_aot/videos/S_video_inspire_uk_edinburgh_arthursseat_010.1080-h264.mp4	0.0	315.434602022171	2.5082640647888184
83	234.63187408447266	fix_post	2		12.0	81.0	2.5	/experiments/knapen_aot/videos/S_video_inspire_uk_edinburgh_arthursseat_010.1080-h264.mp4	0.0	317.94286608695984	0.10008406639099121
84	234.73195815086365	fix_pre	0		32.0	82.0	2.5	blank	1.0	318.04295015335083	0.26660680770874023
84	234.99046802520752	response	0	4		82.0	2.5	blank	1.0	318.3014600276947	
84	234.9985649585724	movie	1		301.0	82.0	2.5	blank	1.0	318.30955696105957	2.5082900524139404
84	237.50685501098633	fix_post	2		12.0	82.0	2.5	blank	1.0	320.8178470134735	0.100006103515625
85	237.60686111450195	fix_pre	0		27.0	83.0	2.5	/experiments/knapen_aot/videos/S_yt-0Zze3Ff12Ys_58.mp4	0.0	320.91785311698914	0.2250359058380127
85	237.8237509727478	response	0	2		83.0	2.5	/experiments/knapen_aot/videos/S_yt-0Zze3Ff12Ys_58.mp4	0.0	321.134742975235	
85	237.83189702033997	movie	1		301.0	83.0	2.5	/experiments/knapen_aot/videos/S_yt-0Zze3Ff12Ys_58.mp4	0.0	321.14288902282715	2.5083529949188232
85	240.3402500152588	fix_post	2		12.0	83.0	2.5	/experiments/knapen_aot/videos/S_yt-0Zze3Ff12Ys_58.mp4	0.0	323.651242017746	0.09999608993530273
87	240.4402461051941	stim	0		114.0					323.7512381076813	0.9524750709533691
87	240.60703206062317	response	0	4						323.91802406311035	
87	241.38602709770203	response	0	space						324.6970191001892	
