trial_nr	onset	event_type	phase	response	nr_frames	movie_index	movie_duration	movie_file	blank	onset_abs	duration
0	0.12796306610107422	stim	0		64.0					131.96214485168457	0.5302610397338867
0	0.6499640941619873	response	0	space						132.48414587974548	
1	0.6582241058349609	stim	0		121.0					132.49240589141846	1.0083329677581787
1	1.4999480247497559	response	0	space						133.33412981033325	
1	1.6665570735931396	stim	1		120.0					133.50073885917664	0.9996249675750732
1	1.783390998840332	response	1	space						133.61757278442383	
1	1.9832050800323486	response	1	space						133.81738686561584	
1	2.2078959941864014	response	1	space						134.0420777797699	
1	2.3996219635009766	response	1	space						134.23380374908447	
1	2.6495399475097656	response	1	space						134.48372173309326	
2	2.666182041168213	fix_pre	0		33.0	0.0	2.5	/experiments/knapen_aot/videos/R_S_yt-aqrdb6BiFx4_12.mp4	0.0	134.5003638267517	0.27500104904174805
2	2.9254250526428223	response	0	space		0.0	2.5	/experiments/knapen_aot/videos/R_S_yt-aqrdb6BiFx4_12.mp4	0.0	134.75960683822632	
2	2.941183090209961	movie	1		301.0	0.0	2.5	/experiments/knapen_aot/videos/R_S_yt-aqrdb6BiFx4_12.mp4	0.0	134.77536487579346	2.508455991744995
2	5.449639081954956	fix_post	2		12.0	0.0	2.5	/experiments/knapen_aot/videos/R_S_yt-aqrdb6BiFx4_12.mp4	0.0	137.28382086753845	0.09993791580200195
3	5.549576997756958	fix_pre	0		12.0	1.0	2.5	/experiments/knapen_aot/videos/S_yt-GFcuvjHJmS4_86.mp4	0.0	137.38375878334045	0.09997916221618652
3	5.6388421058654785	response	0	2		1.0	2.5	/experiments/knapen_aot/videos/S_yt-GFcuvjHJmS4_86.mp4	0.0	137.47302389144897	
3	5.6495561599731445	movie	1		301.0	1.0	2.5	/experiments/knapen_aot/videos/S_yt-GFcuvjHJmS4_86.mp4	0.0	137.48373794555664	2.508380889892578
3	8.157937049865723	fix_post	2		12.0	1.0	2.5	/experiments/knapen_aot/videos/S_yt-GFcuvjHJmS4_86.mp4	0.0	139.99211883544922	0.10004591941833496
4	8.257982969284058	fix_pre	0		8.0	2.0	2.5	/experiments/knapen_aot/videos/R_S_yt-lazG9z4VQAw_99.mp4	0.0	140.09216475486755	0.06654596328735352
4	8.30882215499878	response	0	2		2.0	2.5	/experiments/knapen_aot/videos/R_S_yt-lazG9z4VQAw_99.mp4	0.0	140.14300394058228	
4	8.324528932571411	movie	1		301.0	2.0	2.5	/experiments/knapen_aot/videos/R_S_yt-lazG9z4VQAw_99.mp4	0.0	140.1587107181549	2.508350133895874
4	10.832879066467285	fix_post	2		12.0	2.0	2.5	/experiments/knapen_aot/videos/R_S_yt-lazG9z4VQAw_99.mp4	0.0	142.66706085205078	0.10021686553955078
5	10.933095932006836	fix_pre	0		10.0	3.0	2.5	/experiments/knapen_aot/videos/R_S_yt-YTQXM5ZjRgg_116.mp4	0.0	142.76727771759033	0.08341813087463379
5	11.007941007614136	response	0	2		3.0	2.5	/experiments/knapen_aot/videos/R_S_yt-YTQXM5ZjRgg_116.mp4	0.0	142.84212279319763	
5	11.01651406288147	movie	1		301.0	3.0	2.5	/experiments/knapen_aot/videos/R_S_yt-YTQXM5ZjRgg_116.mp4	0.0	142.85069584846497	2.508028984069824
5	13.524543046951294	fix_post	2		12.0	3.0	2.5	/experiments/knapen_aot/videos/R_S_yt-YTQXM5ZjRgg_116.mp4	0.0	145.3587248325348	0.09990596771240234
6	13.624449014663696	fix_pre	0		16.0	4.0	2.5	/experiments/knapen_aot/videos/R_S_yt-lADkWM79teI_18.mp4	0.0	145.4586308002472	0.13341307640075684
6	13.742162942886353	response	0	2		4.0	2.5	/experiments/knapen_aot/videos/R_S_yt-lADkWM79teI_18.mp4	0.0	145.57634472846985	
6	13.757862091064453	movie	1		301.0	4.0	2.5	/experiments/knapen_aot/videos/R_S_yt-lADkWM79teI_18.mp4	0.0	145.59204387664795	2.508570909500122
6	16.266433000564575	fix_post	2		12.0	4.0	2.5	/experiments/knapen_aot/videos/R_S_yt-lADkWM79teI_18.mp4	0.0	148.10061478614807	0.09982705116271973
7	16.366260051727295	fix_pre	0		14.0	5.0	2.5	blank	1.0	148.2004418373108	0.1164710521697998
7	16.47462797164917	response	0	2		5.0	2.5	blank	1.0	148.30880975723267	
7	16.482731103897095	movie	1		301.0	5.0	2.5	blank	1.0	148.3169128894806	2.5085408687591553
7	18.99127197265625	fix_post	2		12.0	5.0	2.5	blank	1.0	150.82545375823975	0.09989118576049805
8	19.091163158416748	fix_pre	0		16.0	6.0	2.5	/experiments/knapen_aot/videos/R_S_yt-GaJaxp546lc_22.mp4	0.0	150.92534494400024	0.1334209442138672
8	19.21626901626587	response	0	2		6.0	2.5	/experiments/knapen_aot/videos/R_S_yt-GaJaxp546lc_22.mp4	0.0	151.05045080184937	
8	19.224584102630615	movie	1		301.0	6.0	2.5	/experiments/knapen_aot/videos/R_S_yt-GaJaxp546lc_22.mp4	0.0	151.0587658882141	2.5087058544158936
8	21.73328995704651	fix_post	2		12.0	6.0	2.5	/experiments/knapen_aot/videos/R_S_yt-GaJaxp546lc_22.mp4	0.0	153.56747174263	0.09956502914428711
9	21.832854986190796	fix_pre	0		1.0	7.0	2.5	/experiments/knapen_aot/videos/R_S_yt-PK-Eip9wFr0_24.mp4	0.0	153.6670367717743	0.010015010833740234
9	21.834429025650024	response	0	2		7.0	2.5	/experiments/knapen_aot/videos/R_S_yt-PK-Eip9wFr0_24.mp4	0.0	153.66861081123352	
9	21.842869997024536	movie	1		301.0	7.0	2.5	/experiments/knapen_aot/videos/R_S_yt-PK-Eip9wFr0_24.mp4	0.0	153.67705178260803	2.506744146347046
9	24.349614143371582	fix_post	2		12.0	7.0	2.5	/experiments/knapen_aot/videos/R_S_yt-PK-Eip9wFr0_24.mp4	0.0	156.18379592895508	0.0998389720916748
10	24.449453115463257	fix_pre	0		15.0	8.0	2.5	/experiments/knapen_aot/videos/S_production_ID_5139371.mp4	0.0	156.28363490104675	0.12505102157592773
10	24.56623101234436	response	0	2		8.0	2.5	/experiments/knapen_aot/videos/S_production_ID_5139371.mp4	0.0	156.40041279792786	
10	24.574504137039185	movie	1		168.0	8.0	2.5	/experiments/knapen_aot/videos/S_production_ID_5139371.mp4	0.0	156.40868592262268	2.5083818435668945
10	27.08288598060608	fix_post	2		12.0	8.0	2.5	/experiments/knapen_aot/videos/S_production_ID_5139371.mp4	0.0	158.91706776618958	0.1000971794128418
11	27.18298316001892	fix_pre	0		8.0	9.0	2.5	/experiments/knapen_aot/videos/R_S_yt-gaCbT4RR9Tw_191.mp4	0.0	159.01716494560242	0.0664358139038086
11	27.24115800857544	response	0	2		9.0	2.5	/experiments/knapen_aot/videos/R_S_yt-gaCbT4RR9Tw_191.mp4	0.0	159.07533979415894	
11	27.24941897392273	movie	1		301.0	9.0	2.5	/experiments/knapen_aot/videos/R_S_yt-gaCbT4RR9Tw_191.mp4	0.0	159.08360075950623	2.5083889961242676
11	29.757807970046997	fix_post	2		12.0	9.0	2.5	/experiments/knapen_aot/videos/R_S_yt-gaCbT4RR9Tw_191.mp4	0.0	161.5919897556305	0.09996414184570312
12	29.8577721118927	fix_pre	0		5.0	10.0	2.5	/experiments/knapen_aot/videos/R_S_yt-z16pdVTZK1o_3.mp4	0.0	161.6919538974762	0.04163384437561035
12	29.89171814918518	response	0	2		10.0	2.5	/experiments/knapen_aot/videos/R_S_yt-z16pdVTZK1o_3.mp4	0.0	161.72589993476868	
12	29.89940595626831	movie	1		301.0	10.0	2.5	/experiments/knapen_aot/videos/R_S_yt-z16pdVTZK1o_3.mp4	0.0	161.7335877418518	2.5083231925964355
12	32.407729148864746	fix_post	2		12.0	10.0	2.5	/experiments/knapen_aot/videos/R_S_yt-z16pdVTZK1o_3.mp4	0.0	164.24191093444824	0.10002899169921875
13	32.507758140563965	fix_pre	0		23.0	11.0	2.5	/experiments/knapen_aot/videos/S_production_ID_5102663.mp4	0.0	164.34193992614746	0.19159793853759766
13	32.69119310379028	response	0	2		11.0	2.5	/experiments/knapen_aot/videos/S_production_ID_5102663.mp4	0.0	164.52537488937378	
13	32.69935607910156	movie	1		209.0	11.0	2.5	/experiments/knapen_aot/videos/S_production_ID_5102663.mp4	0.0	164.53353786468506	2.508441925048828
13	35.20779800415039	fix_post	2		12.0	11.0	2.5	/experiments/knapen_aot/videos/S_production_ID_5102663.mp4	0.0	167.0419797897339	0.10007905960083008
14	35.30787706375122	fix_pre	0		17.0	12.0	2.5	/experiments/knapen_aot/videos/R_S_yt-b7JAHOeiTqU_44.mp4	0.0	167.14205884933472	0.1415259838104248
14	35.44114303588867	response	0	2		12.0	2.5	/experiments/knapen_aot/videos/R_S_yt-b7JAHOeiTqU_44.mp4	0.0	167.27532482147217	
14	35.449403047561646	movie	1		301.0	12.0	2.5	/experiments/knapen_aot/videos/R_S_yt-b7JAHOeiTqU_44.mp4	0.0	167.28358483314514	2.508363962173462
14	37.95776700973511	fix_post	2		12.0	12.0	2.5	/experiments/knapen_aot/videos/R_S_yt-b7JAHOeiTqU_44.mp4	0.0	169.7919487953186	0.10004997253417969
15	38.05781698226929	fix_pre	0		11.0	13.0	2.5	/experiments/knapen_aot/videos/R_S_yt-44ip3uFe4YM_30.mp4	0.0	169.89199876785278	0.0916140079498291
15	38.13363003730774	response	0	2		13.0	2.5	/experiments/knapen_aot/videos/R_S_yt-44ip3uFe4YM_30.mp4	0.0	169.96781182289124	
15	38.149430990219116	movie	1		301.0	13.0	2.5	/experiments/knapen_aot/videos/R_S_yt-44ip3uFe4YM_30.mp4	0.0	169.9836127758026	2.5084519386291504
15	40.65788292884827	fix_post	2		12.0	13.0	2.5	/experiments/knapen_aot/videos/R_S_yt-44ip3uFe4YM_30.mp4	0.0	172.49206471443176	0.09987711906433105
16	40.7577600479126	fix_pre	0		18.0	14.0	2.5	blank	1.0	172.5919418334961	0.14997291564941406
16	40.89200210571289	response	0	2		14.0	2.5	blank	1.0	172.7261838912964	
16	40.90773296356201	movie	1		301.0	14.0	2.5	blank	1.0	172.7419147491455	2.5083391666412354
16	43.41607213020325	fix_post	2		12.0	14.0	2.5	blank	1.0	175.25025391578674	0.10006093978881836
17	43.516133069992065	fix_pre	0		20.0	15.0	2.5	/experiments/knapen_aot/videos/R_S_ILSVRC2015_train_00495000.mp4	0.0	175.35031485557556	0.16665291786193848
17	43.67445707321167	response	0	2		15.0	2.5	/experiments/knapen_aot/videos/R_S_ILSVRC2015_train_00495000.mp4	0.0	175.50863885879517	
17	43.682785987854004	movie	1		301.0	15.0	2.5	/experiments/knapen_aot/videos/R_S_ILSVRC2015_train_00495000.mp4	0.0	175.5169677734375	2.5082271099090576
17	46.19101309776306	fix_post	2		12.0	15.0	2.5	/experiments/knapen_aot/videos/R_S_ILSVRC2015_train_00495000.mp4	0.0	178.02519488334656	0.10008096694946289
18	46.291094064712524	fix_pre	0		14.0	16.0	2.5	/experiments/knapen_aot/videos/S_ILSVRC2015_train_00495000.mp4	0.0	178.12527585029602	0.11657404899597168
18	46.39942407608032	response	0	2		16.0	2.5	/experiments/knapen_aot/videos/S_ILSVRC2015_train_00495000.mp4	0.0	178.23360586166382	
18	46.407668113708496	movie	1		301.0	16.0	2.5	/experiments/knapen_aot/videos/S_ILSVRC2015_train_00495000.mp4	0.0	178.241849899292	2.5084638595581055
18	48.9161319732666	fix_post	2		12.0	16.0	2.5	/experiments/knapen_aot/videos/S_ILSVRC2015_train_00495000.mp4	0.0	180.7503137588501	0.09992313385009766
19	49.0160551071167	fix_pre	0		11.0	17.0	2.5	/experiments/knapen_aot/videos/R_S_comp_GL_G004_C010_PSNK_v04_SDR_PS_FINAL_20180709_SDR_2K_AVC.mp4	0.0	180.8502368927002	0.09161901473999023
19	49.09950113296509	response	0	2		17.0	2.5	/experiments/knapen_aot/videos/R_S_comp_GL_G004_C010_PSNK_v04_SDR_PS_FINAL_20180709_SDR_2K_AVC.mp4	0.0	180.93368291854858	
19	49.10767412185669	movie	1		168.0	17.0	2.5	/experiments/knapen_aot/videos/R_S_comp_GL_G004_C010_PSNK_v04_SDR_PS_FINAL_20180709_SDR_2K_AVC.mp4	0.0	180.94185590744019	2.5083470344543457
19	51.616021156311035	fix_post	2		12.0	17.0	2.5	/experiments/knapen_aot/videos/R_S_comp_GL_G004_C010_PSNK_v04_SDR_PS_FINAL_20180709_SDR_2K_AVC.mp4	0.0	183.45020294189453	0.1000058650970459
20	51.71602702140808	fix_pre	0		3.0	18.0	2.5	/experiments/knapen_aot/videos/R_S_ILSVRC2015_train_00425000.mp4	0.0	183.55020880699158	0.025031089782714844
20	51.732715129852295	response	0	2		18.0	2.5	/experiments/knapen_aot/videos/R_S_ILSVRC2015_train_00425000.mp4	0.0	183.5668969154358	
20	51.741058111190796	movie	1		301.0	18.0	2.5	/experiments/knapen_aot/videos/R_S_ILSVRC2015_train_00425000.mp4	0.0	183.5752398967743	2.508291006088257
20	54.24934911727905	fix_post	2		12.0	18.0	2.5	/experiments/knapen_aot/videos/R_S_ILSVRC2015_train_00425000.mp4	0.0	186.08353090286255	0.09998202323913574
21	54.34933114051819	fix_pre	0		18.0	19.0	2.5	blank	1.0	186.18351292610168	0.14998793601989746
21	54.49109601974487	response	0	2		19.0	2.5	blank	1.0	186.32527780532837	
21	54.499319076538086	movie	1		301.0	19.0	2.5	blank	1.0	186.33350086212158	2.508323907852173
21	57.00764298439026	fix_post	2		12.0	19.0	2.5	blank	1.0	188.84182476997375	0.1000211238861084
22	57.10766410827637	fix_pre	0		24.0	20.0	2.5	/experiments/knapen_aot/videos/R_S_ILSVRC2015_train_00155004.mp4	0.0	188.94184589385986	0.20000481605529785
22	57.29942607879639	response	0	2		20.0	2.5	/experiments/knapen_aot/videos/R_S_ILSVRC2015_train_00155004.mp4	0.0	189.13360786437988	
22	57.307668924331665	movie	1		301.0	20.0	2.5	/experiments/knapen_aot/videos/R_S_ILSVRC2015_train_00155004.mp4	0.0	189.14185070991516	2.508336067199707
22	59.81600499153137	fix_post	2		12.0	20.0	2.5	/experiments/knapen_aot/videos/R_S_ILSVRC2015_train_00155004.mp4	0.0	191.65018677711487	0.0999610424041748
23	59.91596603393555	fix_pre	0		14.0	21.0	2.5	/experiments/knapen_aot/videos/R_S_pexels-yaroslav-shuraev-8091356.mp4	0.0	191.75014781951904	0.11667609214782715
23	60.02440309524536	response	0	2		21.0	2.5	/experiments/knapen_aot/videos/R_S_pexels-yaroslav-shuraev-8091356.mp4	0.0	191.85858488082886	
23	60.032642126083374	movie	1		193.0	21.0	2.5	/experiments/knapen_aot/videos/R_S_pexels-yaroslav-shuraev-8091356.mp4	0.0	191.86682391166687	2.508335828781128
23	62.5409779548645	fix_post	2		12.0	21.0	2.5	/experiments/knapen_aot/videos/R_S_pexels-yaroslav-shuraev-8091356.mp4	0.0	194.375159740448	0.10014009475708008
24	62.64111804962158	fix_pre	0		6.0	22.0	2.5	/experiments/knapen_aot/videos/S_wc-sd8_iKx0t7s7_9.mp4	0.0	194.47529983520508	0.04981708526611328
24	62.68273401260376	response	0	2		22.0	2.5	/experiments/knapen_aot/videos/S_wc-sd8_iKx0t7s7_9.mp4	0.0	194.51691579818726	
24	62.690935134887695	movie	1		165.0	22.0	2.5	/experiments/knapen_aot/videos/S_wc-sd8_iKx0t7s7_9.mp4	0.0	194.5251169204712	2.5083208084106445
24	65.19925594329834	fix_post	2		12.0	22.0	2.5	/experiments/knapen_aot/videos/S_wc-sd8_iKx0t7s7_9.mp4	0.0	197.03343772888184	0.10022211074829102
25	65.29947805404663	fix_pre	0		28.0	23.0	2.5	/experiments/knapen_aot/videos/S_yt-TxU1H5A6BaQ_52.mp4	0.0	197.13365983963013	0.2331070899963379
25	65.52439594268799	response	0	2		23.0	2.5	/experiments/knapen_aot/videos/S_yt-TxU1H5A6BaQ_52.mp4	0.0	197.35857772827148	
25	65.53258514404297	movie	1		301.0	23.0	2.5	/experiments/knapen_aot/videos/S_yt-TxU1H5A6BaQ_52.mp4	0.0	197.36676692962646	2.508330821990967
25	68.04091596603394	fix_post	2		12.0	23.0	2.5	/experiments/knapen_aot/videos/S_yt-TxU1H5A6BaQ_52.mp4	0.0	199.87509775161743	0.10005998611450195
26	68.14097595214844	fix_pre	0		26.0	24.0	2.5	/experiments/knapen_aot/videos/R_S_yt-O_4DgW-XKvA_35.mp4	0.0	199.97515773773193	0.21659612655639648
26	68.34940910339355	response	0	2		24.0	2.5	/experiments/knapen_aot/videos/R_S_yt-O_4DgW-XKvA_35.mp4	0.0	200.18359088897705	
26	68.35757207870483	movie	1		301.0	24.0	2.5	/experiments/knapen_aot/videos/R_S_yt-O_4DgW-XKvA_35.mp4	0.0	200.19175386428833	2.508328914642334
26	70.86590099334717	fix_post	2		12.0	24.0	2.5	/experiments/knapen_aot/videos/R_S_yt-O_4DgW-XKvA_35.mp4	0.0	202.70008277893066	0.1000521183013916
27	70.96595311164856	fix_pre	0		19.0	25.0	2.5	/experiments/knapen_aot/videos/R_S_yt-m8HxO_-RRq0_127.mp4	0.0	202.80013489723206	0.15832090377807617
27	71.11598515510559	response	0	2		25.0	2.5	/experiments/knapen_aot/videos/R_S_yt-m8HxO_-RRq0_127.mp4	0.0	202.9501669406891	
27	71.12427401542664	movie	1		301.0	25.0	2.5	/experiments/knapen_aot/videos/R_S_yt-m8HxO_-RRq0_127.mp4	0.0	202.95845580101013	2.5083210468292236
27	73.63259506225586	fix_post	2		12.0	25.0	2.5	/experiments/knapen_aot/videos/R_S_yt-m8HxO_-RRq0_127.mp4	0.0	205.46677684783936	0.10001397132873535
28	73.7326090335846	fix_pre	0		3.0	26.0	2.5	/experiments/knapen_aot/videos/S_yt-GyMWMiWvuiA_237.mp4	0.0	205.5667908191681	0.026217937469482422
28	73.74943399429321	response	0	2		26.0	2.5	/experiments/knapen_aot/videos/S_yt-GyMWMiWvuiA_237.mp4	0.0	205.5836157798767	
28	73.75882697105408	movie	1		301.0	26.0	2.5	/experiments/knapen_aot/videos/S_yt-GyMWMiWvuiA_237.mp4	0.0	205.59300875663757	2.5070900917053223
28	76.2659170627594	fix_post	2		12.0	26.0	2.5	/experiments/knapen_aot/videos/S_yt-GyMWMiWvuiA_237.mp4	0.0	208.1000988483429	0.1000208854675293
29	76.36593794822693	fix_pre	0		13.0	27.0	2.5	blank	1.0	208.20011973381042	0.10844111442565918
29	76.46594905853271	response	0	2		27.0	2.5	blank	1.0	208.3001308441162	
29	76.47437906265259	movie	1		301.0	27.0	2.5	blank	1.0	208.30856084823608	2.5081920623779297
29	78.98257112503052	fix_post	2		12.0	27.0	2.5	blank	1.0	210.816752910614	0.10002994537353516
30	79.08260107040405	fix_pre	0		12.0	28.0	2.5	/experiments/knapen_aot/videos/S_yt-Wr5pSPApQDw_235.mp4	0.0	210.91678285598755	0.09996199607849121
30	79.17433404922485	response	0	2		28.0	2.5	/experiments/knapen_aot/videos/S_yt-Wr5pSPApQDw_235.mp4	0.0	211.00851583480835	
30	79.18256306648254	movie	1		301.0	28.0	2.5	/experiments/knapen_aot/videos/S_yt-Wr5pSPApQDw_235.mp4	0.0	211.01674485206604	2.508445978164673
30	81.69100904464722	fix_post	2		12.0	28.0	2.5	/experiments/knapen_aot/videos/S_yt-Wr5pSPApQDw_235.mp4	0.0	213.5251908302307	0.09995889663696289
31	81.79096794128418	fix_pre	0		11.0	29.0	2.5	/experiments/knapen_aot/videos/S_yt-a0axt7n0GuQ_19.mp4	0.0	213.62514972686768	0.09309601783752441
31	81.8743200302124	response	0	2		29.0	2.5	/experiments/knapen_aot/videos/S_yt-a0axt7n0GuQ_19.mp4	0.0	213.7085018157959	
31	81.8840639591217	movie	1		301.0	29.0	2.5	/experiments/knapen_aot/videos/S_yt-a0axt7n0GuQ_19.mp4	0.0	213.7182457447052	2.5068390369415283
31	84.39090299606323	fix_post	2		12.0	29.0	2.5	/experiments/knapen_aot/videos/S_yt-a0axt7n0GuQ_19.mp4	0.0	216.22508478164673	0.09990715980529785
32	84.49081015586853	fix_pre	0		14.0	30.0	2.5	/experiments/knapen_aot/videos/R_S_yt-SHTeTAnZgho_43.mp4	0.0	216.32499194145203	0.1167149543762207
32	84.59929513931274	response	0	2		30.0	2.5	/experiments/knapen_aot/videos/R_S_yt-SHTeTAnZgho_43.mp4	0.0	216.43347692489624	
32	84.60752511024475	movie	1		301.0	30.0	2.5	/experiments/knapen_aot/videos/R_S_yt-SHTeTAnZgho_43.mp4	0.0	216.44170689582825	2.5083959102630615
32	87.11592102050781	fix_post	2		12.0	30.0	2.5	/experiments/knapen_aot/videos/R_S_yt-SHTeTAnZgho_43.mp4	0.0	218.9501028060913	0.10025906562805176
33	87.21618008613586	fix_pre	0		21.0	31.0	2.5	/experiments/knapen_aot/videos/S_video_inspire_texas_austin_oct2019_evening_00085.1080-h264.mp4	0.0	219.05036187171936	0.17473793029785156
33	87.38265705108643	response	0	2		31.0	2.5	/experiments/knapen_aot/videos/S_video_inspire_texas_austin_oct2019_evening_00085.1080-h264.mp4	0.0	219.21683883666992	
33	87.39091801643372	movie	1		168.0	31.0	2.5	/experiments/knapen_aot/videos/S_video_inspire_texas_austin_oct2019_evening_00085.1080-h264.mp4	0.0	219.2250998020172	2.508471965789795
33	89.89938998222351	fix_post	2		12.0	31.0	2.5	/experiments/knapen_aot/videos/S_video_inspire_texas_austin_oct2019_evening_00085.1080-h264.mp4	0.0	221.733571767807	0.09979104995727539
34	89.99918103218079	fix_pre	0		10.0	32.0	2.5	/experiments/knapen_aot/videos/R_S_pexels-rodnae-productions-5993654.mp4	0.0	221.83336281776428	0.08329892158508301
34	90.07425904273987	response	0	2		32.0	2.5	/experiments/knapen_aot/videos/R_S_pexels-rodnae-productions-5993654.mp4	0.0	221.90844082832336	
34	90.08247995376587	movie	1		163.0	32.0	2.5	/experiments/knapen_aot/videos/R_S_pexels-rodnae-productions-5993654.mp4	0.0	221.91666173934937	2.5084240436553955
34	90.266037940979	response	1	2		32.0	2.5	/experiments/knapen_aot/videos/R_S_pexels-rodnae-productions-5993654.mp4	0.0	222.1002197265625	
34	92.59090399742126	fix_post	2		12.0	32.0	2.5	/experiments/knapen_aot/videos/R_S_pexels-rodnae-productions-5993654.mp4	0.0	224.42508578300476	0.09998607635498047
35	92.69089007377625	fix_pre	0		3.0	33.0	2.5	/experiments/knapen_aot/videos/R_S_yt-FE5srhxadno_73.mp4	0.0	224.52507185935974	0.026118993759155273
35	92.70766615867615	response	0	2		33.0	2.5	/experiments/knapen_aot/videos/R_S_yt-FE5srhxadno_73.mp4	0.0	224.54184794425964	
35	92.7170090675354	movie	1		301.0	33.0	2.5	/experiments/knapen_aot/videos/R_S_yt-FE5srhxadno_73.mp4	0.0	224.5511908531189	2.507150888442993
35	95.2241599559784	fix_post	2		12.0	33.0	2.5	/experiments/knapen_aot/videos/R_S_yt-FE5srhxadno_73.mp4	0.0	227.0583417415619	0.10002803802490234
36	95.3241879940033	fix_pre	0		26.0	34.0	2.5	blank	1.0	227.1583697795868	0.21654915809631348
36	95.5326280593872	response	0	2		34.0	2.5	blank	1.0	227.3668098449707	
36	95.54073715209961	movie	1		301.0	34.0	2.5	blank	1.0	227.3749189376831	2.508455991744995
36	98.0491931438446	fix_post	2		12.0	34.0	2.5	blank	1.0	229.8833749294281	0.09997892379760742
37	98.14917206764221	fix_pre	0		67.0	35.0	2.5	/experiments/knapen_aot/videos/S_comp_A009_C001_010181A_v09_SDR_PS_FINAL_20180725_SDR_2K_AVC.mp4	0.0	229.9833538532257	0.558305025100708
37	98.69921898841858	response	0	2		35.0	2.5	/experiments/knapen_aot/videos/S_comp_A009_C001_010181A_v09_SDR_PS_FINAL_20180725_SDR_2K_AVC.mp4	0.0	230.53340077400208	
37	98.70747709274292	movie	1		165.0	35.0	2.5	/experiments/knapen_aot/videos/S_comp_A009_C001_010181A_v09_SDR_PS_FINAL_20180725_SDR_2K_AVC.mp4	0.0	230.54165887832642	2.5083940029144287
37	101.21587109565735	fix_post	2		11.0	35.0	2.5	/experiments/knapen_aot/videos/S_comp_A009_C001_010181A_v09_SDR_PS_FINAL_20180725_SDR_2K_AVC.mp4	0.0	233.05005288124084	0.09163403511047363
37	101.29925799369812	response	2	2		35.0	2.5	/experiments/knapen_aot/videos/S_comp_A009_C001_010181A_v09_SDR_PS_FINAL_20180725_SDR_2K_AVC.mp4	0.0	233.13343977928162	
38	101.30750513076782	fix_pre	0		33.0	36.0	2.5	/experiments/knapen_aot/videos/R_S_cST9H3zu3zQ_126.mp4	0.0	233.14168691635132	0.27498483657836914
38	101.5742449760437	response	0	2		36.0	2.5	/experiments/knapen_aot/videos/R_S_cST9H3zu3zQ_126.mp4	0.0	233.4084267616272	
38	101.58248996734619	movie	1		301.0	36.0	2.5	/experiments/knapen_aot/videos/R_S_cST9H3zu3zQ_126.mp4	0.0	233.4166717529297	2.5083460807800293
38	104.09083604812622	fix_post	2		12.0	36.0	2.5	/experiments/knapen_aot/videos/R_S_cST9H3zu3zQ_126.mp4	0.0	235.92501783370972	0.10003995895385742
39	104.19087600708008	fix_pre	0		3.0	37.0	2.5	/experiments/knapen_aot/videos/R_S_S005_C015_SDR_2K_AVC.mp4	0.0	236.02505779266357	0.026016950607299805
39	104.20768308639526	response	0	2		37.0	2.5	/experiments/knapen_aot/videos/R_S_S005_C015_SDR_2K_AVC.mp4	0.0	236.04186487197876	
39	104.21689295768738	movie	1		176.0	37.0	2.5	/experiments/knapen_aot/videos/R_S_S005_C015_SDR_2K_AVC.mp4	0.0	236.05107474327087	2.507189989089966
39	106.70747709274292	response	1	2		37.0	2.5	/experiments/knapen_aot/videos/R_S_S005_C015_SDR_2K_AVC.mp4	0.0	238.54165887832642	
39	106.72408294677734	fix_post	2		12.0	37.0	2.5	/experiments/knapen_aot/videos/R_S_S005_C015_SDR_2K_AVC.mp4	0.0	238.55826473236084	0.10002613067626953
40	106.82410907745361	fix_pre	0		26.0	38.0	2.5	/experiments/knapen_aot/videos/R_S_yt-T1mMDOVjvrE_83.mp4	0.0	238.6582908630371	0.21667885780334473
40	107.03250098228455	response	0	2		38.0	2.5	/experiments/knapen_aot/videos/R_S_yt-T1mMDOVjvrE_83.mp4	0.0	238.86668276786804	
40	107.04078793525696	movie	1		301.0	38.0	2.5	/experiments/knapen_aot/videos/R_S_yt-T1mMDOVjvrE_83.mp4	0.0	238.87496972084045	2.5083560943603516
40	109.54914402961731	fix_post	2		12.0	38.0	2.5	/experiments/knapen_aot/videos/R_S_yt-T1mMDOVjvrE_83.mp4	0.0	241.3833258152008	0.09998893737792969
41	109.64913296699524	fix_pre	0		5.0	39.0	2.5	/experiments/knapen_aot/videos/R_S_yt-Q9fI2ar05IE_77.mp4	0.0	241.48331475257874	0.041635990142822266
41	109.6825840473175	response	0	2		39.0	2.5	/experiments/knapen_aot/videos/R_S_yt-Q9fI2ar05IE_77.mp4	0.0	241.516765832901	
41	109.69076895713806	movie	1		301.0	39.0	2.5	/experiments/knapen_aot/videos/R_S_yt-Q9fI2ar05IE_77.mp4	0.0	241.52495074272156	2.5083301067352295
41	112.19909906387329	fix_post	2		12.0	39.0	2.5	/experiments/knapen_aot/videos/R_S_yt-Q9fI2ar05IE_77.mp4	0.0	244.0332808494568	0.10013890266418457
42	112.29923796653748	fix_pre	0		16.0	40.0	2.5	blank	1.0	244.13341975212097	0.1332850456237793
42	112.42424011230469	response	0	2		40.0	2.5	blank	1.0	244.25842189788818	
42	112.43252301216125	movie	1		301.0	40.0	2.5	blank	1.0	244.26670479774475	2.5082650184631348
42	114.94078803062439	fix_post	2		12.0	40.0	2.5	blank	1.0	246.77496981620789	0.09990501403808594
43	115.04069304466248	fix_pre	0		15.0	41.0	2.5	/experiments/knapen_aot/videos/R_S_yt-fq7m668hqZo_39.mp4	0.0	246.87487483024597	0.1250760555267334
43	115.15751314163208	response	0	2		41.0	2.5	/experiments/knapen_aot/videos/R_S_yt-fq7m668hqZo_39.mp4	0.0	246.99169492721558	
43	115.16576910018921	movie	1		301.0	41.0	2.5	/experiments/knapen_aot/videos/R_S_yt-fq7m668hqZo_39.mp4	0.0	246.9999508857727	2.50834584236145
43	117.67411494255066	fix_post	2		12.0	41.0	2.5	/experiments/knapen_aot/videos/R_S_yt-fq7m668hqZo_39.mp4	0.0	249.50829672813416	0.09999513626098633
44	117.77411007881165	fix_pre	0		12.0	42.0	2.5	/experiments/knapen_aot/videos/S_production_ID_3735542.mp4	0.0	249.60829186439514	0.09992194175720215
44	117.86589813232422	response	0	2		42.0	2.5	/experiments/knapen_aot/videos/S_production_ID_3735542.mp4	0.0	249.70007991790771	
44	117.87403202056885	movie	1		165.0	42.0	2.5	/experiments/knapen_aot/videos/S_production_ID_3735542.mp4	0.0	249.70821380615234	2.5084099769592285
44	120.38244199752808	fix_post	2		12.0	42.0	2.5	/experiments/knapen_aot/videos/S_production_ID_3735542.mp4	0.0	252.21662378311157	0.09989404678344727
45	120.48233604431152	fix_pre	0		15.0	43.0	2.5	/experiments/knapen_aot/videos/S_yt-XPRNMelf5Fs_235.mp4	0.0	252.31651782989502	0.12505698204040527
45	120.59922313690186	response	0	2		43.0	2.5	/experiments/knapen_aot/videos/S_yt-XPRNMelf5Fs_235.mp4	0.0	252.43340492248535	
45	120.60739302635193	movie	1		301.0	43.0	2.5	/experiments/knapen_aot/videos/S_yt-XPRNMelf5Fs_235.mp4	0.0	252.44157481193542	2.508742094039917
45	123.11613512039185	fix_post	2		12.0	43.0	2.5	/experiments/knapen_aot/videos/S_yt-XPRNMelf5Fs_235.mp4	0.0	254.95031690597534	0.09961581230163574
46	123.21575093269348	fix_pre	0		26.0	44.0	2.5	/experiments/knapen_aot/videos/S_ILSVRC2015_train_00652001.mp4	0.0	255.04993271827698	0.21662211418151855
46	123.42425799369812	response	0	2		44.0	2.5	/experiments/knapen_aot/videos/S_ILSVRC2015_train_00652001.mp4	0.0	255.25843977928162	
46	123.432373046875	movie	1		301.0	44.0	2.5	/experiments/knapen_aot/videos/S_ILSVRC2015_train_00652001.mp4	0.0	255.2665548324585	2.508310079574585
46	125.94068312644958	fix_post	2		12.0	44.0	2.5	/experiments/knapen_aot/videos/S_ILSVRC2015_train_00652001.mp4	0.0	257.7748649120331	0.1000218391418457
47	126.04070496559143	fix_pre	0		28.0	45.0	2.5	/experiments/knapen_aot/videos/R_S_yt-I9uf7kAccFA_229.mp4	0.0	257.8748867511749	0.2333230972290039
47	126.2658269405365	response	0	2		45.0	2.5	/experiments/knapen_aot/videos/R_S_yt-I9uf7kAccFA_229.mp4	0.0	258.10000872612	
47	126.27402806282043	movie	1		301.0	45.0	2.5	/experiments/knapen_aot/videos/R_S_yt-I9uf7kAccFA_229.mp4	0.0	258.10820984840393	2.508543014526367
47	128.7825710773468	fix_post	2		12.0	45.0	2.5	/experiments/knapen_aot/videos/R_S_yt-I9uf7kAccFA_229.mp4	0.0	260.6167528629303	0.09993195533752441
48	128.88250303268433	fix_pre	0		17.0	46.0	2.5	/experiments/knapen_aot/videos/R_S_flickr-reginahart-31964450591_23.mp4	0.0	260.7166848182678	0.141495943069458
48	129.01570796966553	response	0	2		46.0	2.5	/experiments/knapen_aot/videos/R_S_flickr-reginahart-31964450591_23.mp4	0.0	260.849889755249	
48	129.02399897575378	movie	1		176.0	46.0	2.5	/experiments/knapen_aot/videos/R_S_flickr-reginahart-31964450591_23.mp4	0.0	260.8581807613373	2.5083491802215576
48	131.53234815597534	fix_post	2		12.0	46.0	2.5	/experiments/knapen_aot/videos/R_S_flickr-reginahart-31964450591_23.mp4	0.0	263.36652994155884	0.10000991821289062
49	131.63235807418823	fix_pre	0		3.0	47.0	2.5	blank	1.0	263.46653985977173	0.024992942810058594
49	131.6491711139679	response	0	2		47.0	2.5	blank	1.0	263.4833528995514	
49	131.6573510169983	movie	1		301.0	47.0	2.5	blank	1.0	263.4915328025818	2.50838303565979
49	134.16573405265808	fix_post	2		12.0	47.0	2.5	blank	1.0	265.9999158382416	0.09993791580200195
50	134.26567196846008	fix_pre	0		14.0	48.0	2.5	/experiments/knapen_aot/videos/R_S_ILSVRC2015_train_00318000.mp4	0.0	266.0998537540436	0.11767816543579102
50	134.3741331100464	response	0	2		48.0	2.5	/experiments/knapen_aot/videos/R_S_ILSVRC2015_train_00318000.mp4	0.0	266.2083148956299	
50	134.38335013389587	movie	1		301.0	48.0	2.5	/experiments/knapen_aot/videos/R_S_ILSVRC2015_train_00318000.mp4	0.0	266.21753191947937	2.50770902633667
50	136.89105916023254	fix_post	2		12.0	48.0	2.5	/experiments/knapen_aot/videos/R_S_ILSVRC2015_train_00318000.mp4	0.0	268.72524094581604	0.09977293014526367
51	136.9908320903778	fix_pre	0		7.0	49.0	2.5	/experiments/knapen_aot/videos/R_S_video-11.mp4	0.0	268.8250138759613	0.05911993980407715
51	137.04082107543945	response	0	2		49.0	2.5	/experiments/knapen_aot/videos/R_S_video-11.mp4	0.0	268.87500286102295	
51	137.04995203018188	movie	1		164.0	49.0	2.5	/experiments/knapen_aot/videos/R_S_video-11.mp4	0.0	268.8841338157654	2.5073490142822266
51	139.5573010444641	fix_post	2		12.0	49.0	2.5	/experiments/knapen_aot/videos/R_S_video-11.mp4	0.0	271.3914828300476	0.10002803802490234
52	139.657329082489	fix_pre	0		1.0	50.0	2.5	/experiments/knapen_aot/videos/S_yt-lGQ3wMI5-Yg_140.mp4	0.0	271.4915108680725	0.010650873184204102
52	139.65937495231628	response	0	2		50.0	2.5	/experiments/knapen_aot/videos/S_yt-lGQ3wMI5-Yg_140.mp4	0.0	271.4935567378998	
52	139.66797995567322	movie	1		301.0	50.0	2.5	/experiments/knapen_aot/videos/S_yt-lGQ3wMI5-Yg_140.mp4	0.0	271.5021617412567	2.506049156188965
52	142.17402911186218	fix_post	2		12.0	50.0	2.5	/experiments/knapen_aot/videos/S_yt-lGQ3wMI5-Yg_140.mp4	0.0	274.0082108974457	0.10017204284667969
53	142.27420115470886	fix_pre	0		10.0	51.0	2.5	/experiments/knapen_aot/videos/S_I005_C008_CROP_SDR_2K_AVC.mp4	0.0	274.10838294029236	0.08314895629882812
53	142.3490309715271	response	0	2		51.0	2.5	/experiments/knapen_aot/videos/S_I005_C008_CROP_SDR_2K_AVC.mp4	0.0	274.1832127571106	
53	142.3573501110077	movie	1		171.0	51.0	2.5	/experiments/knapen_aot/videos/S_I005_C008_CROP_SDR_2K_AVC.mp4	0.0	274.1915318965912	2.5083048343658447
53	144.86565494537354	fix_post	2		12.0	51.0	2.5	/experiments/knapen_aot/videos/S_I005_C008_CROP_SDR_2K_AVC.mp4	0.0	276.69983673095703	0.10000920295715332
54	144.9656641483307	fix_pre	0		1.0	52.0	2.5	/experiments/knapen_aot/videos/R_S_yt-ieA3XwoSko4_98.mp4	0.0	276.7998459339142	0.008266925811767578
54	144.95857501029968	response	0	2		52.0	2.5	/experiments/knapen_aot/videos/R_S_yt-ieA3XwoSko4_98.mp4	0.0	276.7927567958832	
54	144.97393107414246	movie	1		301.0	52.0	2.5	/experiments/knapen_aot/videos/R_S_yt-ieA3XwoSko4_98.mp4	0.0	276.80811285972595	2.5084118843078613
54	147.48234295845032	fix_post	2		12.0	52.0	2.5	/experiments/knapen_aot/videos/R_S_yt-ieA3XwoSko4_98.mp4	0.0	279.3165247440338	0.0999910831451416
55	147.58233404159546	fix_pre	0		3.0	53.0	2.5	/experiments/knapen_aot/videos/R_S_yt-LdHRVIb4nIE_6.mp4	0.0	279.41651582717896	0.024986982345581055
55	147.59915900230408	response	0	2		53.0	2.5	/experiments/knapen_aot/videos/R_S_yt-LdHRVIb4nIE_6.mp4	0.0	279.4333407878876	
55	147.60732102394104	movie	1		301.0	53.0	2.5	/experiments/knapen_aot/videos/R_S_yt-LdHRVIb4nIE_6.mp4	0.0	279.44150280952454	2.5083160400390625
55	150.1156370639801	fix_post	2		12.0	53.0	2.5	/experiments/knapen_aot/videos/R_S_yt-LdHRVIb4nIE_6.mp4	0.0	281.9498188495636	0.09997701644897461
56	150.21561408042908	fix_pre	0		10.0	54.0	2.5	/experiments/knapen_aot/videos/R_S_comp_GMT307_136NC_134K_8277_NY_NIGHT_01_v25_SDR_PS_20180907_SDR_2K_AVC.mp4	0.0	282.0497958660126	0.0841989517211914
56	150.29077005386353	response	0	2		54.0	2.5	/experiments/knapen_aot/videos/R_S_comp_GMT307_136NC_134K_8277_NY_NIGHT_01_v25_SDR_PS_20180907_SDR_2K_AVC.mp4	0.0	282.124951839447	
56	150.29981303215027	movie	1		165.0	54.0	2.5	/experiments/knapen_aot/videos/R_S_comp_GMT307_136NC_134K_8277_NY_NIGHT_01_v25_SDR_PS_20180907_SDR_2K_AVC.mp4	0.0	282.13399481773376	2.5075409412384033
56	152.80735397338867	fix_post	2		12.0	54.0	2.5	/experiments/knapen_aot/videos/R_S_comp_GMT307_136NC_134K_8277_NY_NIGHT_01_v25_SDR_PS_20180907_SDR_2K_AVC.mp4	0.0	284.64153575897217	0.0999300479888916
57	152.90728402137756	fix_pre	0		5.0	55.0	2.5	blank	1.0	284.74146580696106	0.0416719913482666
57	152.94069910049438	response	0	2		55.0	2.5	blank	1.0	284.7748808860779	
57	152.94895601272583	movie	1		301.0	55.0	2.5	blank	1.0	284.7831377983093	2.508294105529785
57	155.45725011825562	fix_post	2		12.0	55.0	2.5	blank	1.0	287.2914319038391	0.09994697570800781
58	155.55719709396362	fix_pre	0		28.0	56.0	2.5	/experiments/knapen_aot/videos/S_pexels-cottonbro-9063801.mp4	0.0	287.3913788795471	0.23337006568908691
58	155.78230094909668	response	0	2		56.0	2.5	/experiments/knapen_aot/videos/S_pexels-cottonbro-9063801.mp4	0.0	287.6164827346802	
58	155.7905671596527	movie	1		204.0	56.0	2.5	/experiments/knapen_aot/videos/S_pexels-cottonbro-9063801.mp4	0.0	287.6247489452362	2.5083789825439453
58	158.29894614219666	fix_post	2		12.0	56.0	2.5	/experiments/knapen_aot/videos/S_pexels-cottonbro-9063801.mp4	0.0	290.13312792778015	0.09997081756591797
59	158.39891695976257	fix_pre	0		10.0	57.0	2.5	/experiments/knapen_aot/videos/R_S_yt-C0iWlRWU21o_5.mp4	0.0	290.23309874534607	0.08330607414245605
59	158.46643710136414	response	0	2		57.0	2.5	/experiments/knapen_aot/videos/R_S_yt-C0iWlRWU21o_5.mp4	0.0	290.30061888694763	
59	158.48222303390503	movie	1		301.0	57.0	2.5	/experiments/knapen_aot/videos/R_S_yt-C0iWlRWU21o_5.mp4	0.0	290.3164048194885	2.50833797454834
59	160.99056100845337	fix_post	2		12.0	57.0	2.5	/experiments/knapen_aot/videos/R_S_yt-C0iWlRWU21o_5.mp4	0.0	292.82474279403687	0.09996199607849121
60	161.09052300453186	fix_pre	0		12.0	58.0	2.5	/experiments/knapen_aot/videos/S_pexels-vlada-karpovich-8044792.mp4	0.0	292.92470479011536	0.10001993179321289
60	161.18225693702698	response	0	2		58.0	2.5	/experiments/knapen_aot/videos/S_pexels-vlada-karpovich-8044792.mp4	0.0	293.0164387226105	
60	161.19054293632507	movie	1		166.0	58.0	2.5	/experiments/knapen_aot/videos/S_pexels-vlada-karpovich-8044792.mp4	0.0	293.02472472190857	2.508347988128662
60	163.69889092445374	fix_post	2		12.0	58.0	2.5	/experiments/knapen_aot/videos/S_pexels-vlada-karpovich-8044792.mp4	0.0	295.53307271003723	0.10022807121276855
61	163.7991189956665	fix_pre	0		6.0	59.0	2.5	/experiments/knapen_aot/videos/R_S_yt-ET5YTz1laWo_108.mp4	0.0	295.63330078125	0.04976010322570801
61	163.84070110321045	response	0	2		59.0	2.5	/experiments/knapen_aot/videos/R_S_yt-ET5YTz1laWo_108.mp4	0.0	295.67488288879395	
61	163.8488790988922	movie	1		301.0	59.0	2.5	/experiments/knapen_aot/videos/R_S_yt-ET5YTz1laWo_108.mp4	0.0	295.6830608844757	2.508596897125244
61	166.35747599601746	fix_post	2		12.0	59.0	2.5	/experiments/knapen_aot/videos/R_S_yt-ET5YTz1laWo_108.mp4	0.0	298.19165778160095	0.10000205039978027
62	166.45747804641724	fix_pre	0		30.0	60.0	2.5	/experiments/knapen_aot/videos/R_S_ILSVRC2015_train_00303005.mp4	0.0	298.29165983200073	0.24971389770507812
62	166.6989209651947	response	0	2		60.0	2.5	/experiments/knapen_aot/videos/R_S_ILSVRC2015_train_00303005.mp4	0.0	298.5331027507782	
62	166.70719194412231	movie	1		301.0	60.0	2.5	/experiments/knapen_aot/videos/R_S_ILSVRC2015_train_00303005.mp4	0.0	298.5413737297058	2.5083930492401123
62	169.21558499336243	fix_post	2		12.0	60.0	2.5	/experiments/knapen_aot/videos/R_S_ILSVRC2015_train_00303005.mp4	0.0	301.0497667789459	0.09999203681945801
63	169.31557703018188	fix_pre	0		15.0	61.0	2.5	blank	1.0	301.1497588157654	0.12500500679016113
63	169.42477893829346	response	0	2		61.0	2.5	blank	1.0	301.25896072387695	
63	169.44058203697205	movie	1		301.0	61.0	2.5	blank	1.0	301.27476382255554	2.508362054824829
63	171.94894409179688	fix_post	2		12.0	61.0	2.5	blank	1.0	303.78312587738037	0.09987187385559082
64	172.04881596565247	fix_pre	0		13.0	62.0	2.5	/experiments/knapen_aot/videos/R_S_video_inspire_oregon_portland_00064.1080-h264.mp4	0.0	303.88299775123596	0.10832810401916504
64	172.14141011238098	response	0	2		62.0	2.5	/experiments/knapen_aot/videos/R_S_video_inspire_oregon_portland_00064.1080-h264.mp4	0.0	303.9755918979645	
64	172.15714406967163	movie	1		169.0	62.0	2.5	/experiments/knapen_aot/videos/R_S_video_inspire_oregon_portland_00064.1080-h264.mp4	0.0	303.9913258552551	2.5083730220794678
64	174.6655170917511	fix_post	2		12.0	62.0	2.5	/experiments/knapen_aot/videos/R_S_video_inspire_oregon_portland_00064.1080-h264.mp4	0.0	306.4996988773346	0.09997296333312988
65	174.76549005508423	fix_pre	0		14.0	63.0	2.5	/experiments/knapen_aot/videos/R_S_yt-SRcIvTQcmOk_62.mp4	0.0	306.5996718406677	0.11741995811462402
65	174.87389016151428	response	0	2		63.0	2.5	/experiments/knapen_aot/videos/R_S_yt-SRcIvTQcmOk_62.mp4	0.0	306.7080719470978	
65	174.88291001319885	movie	1		301.0	63.0	2.5	/experiments/knapen_aot/videos/R_S_yt-SRcIvTQcmOk_62.mp4	0.0	306.71709179878235	2.5076019763946533
65	177.3905119895935	fix_post	2		12.0	63.0	2.5	/experiments/knapen_aot/videos/R_S_yt-SRcIvTQcmOk_62.mp4	0.0	309.224693775177	0.09987998008728027
66	177.4903919696808	fix_pre	0		11.0	64.0	2.5	/experiments/knapen_aot/videos/R_S_yt-xCh0LI9VKeI_28.mp4	0.0	309.3245737552643	0.09174203872680664
66	177.57390093803406	response	0	2		64.0	2.5	/experiments/knapen_aot/videos/R_S_yt-xCh0LI9VKeI_28.mp4	0.0	309.40808272361755	
66	177.5821340084076	movie	1		301.0	64.0	2.5	/experiments/knapen_aot/videos/R_S_yt-xCh0LI9VKeI_28.mp4	0.0	309.4163157939911	2.5087311267852783
66	180.09086513519287	fix_post	2		12.0	64.0	2.5	/experiments/knapen_aot/videos/R_S_yt-xCh0LI9VKeI_28.mp4	0.0	311.92504692077637	0.09982991218566895
67	180.19069504737854	fix_pre	0		14.0	65.0	2.5	/experiments/knapen_aot/videos/R_S_yt-dESxu60Cl10_24.mp4	0.0	312.02487683296204	0.1164250373840332
67	180.29888010025024	response	0	2		65.0	2.5	/experiments/knapen_aot/videos/R_S_yt-dESxu60Cl10_24.mp4	0.0	312.13306188583374	
67	180.30712008476257	movie	1		301.0	65.0	2.5	/experiments/knapen_aot/videos/R_S_yt-dESxu60Cl10_24.mp4	0.0	312.14130187034607	2.5083999633789062
67	182.81552004814148	fix_post	2		12.0	65.0	2.5	/experiments/knapen_aot/videos/R_S_yt-dESxu60Cl10_24.mp4	0.0	314.649701833725	0.09993505477905273
68	182.91545510292053	fix_pre	0		39.0	66.0	2.5	/experiments/knapen_aot/videos/R_S_g201_CA_A016_C002_SDR_20191114_SDR_2K_AVC.mp4	0.0	314.749636888504	0.32498598098754883
68	183.2322211265564	response	0	2		66.0	2.5	/experiments/knapen_aot/videos/R_S_g201_CA_A016_C002_SDR_20191114_SDR_2K_AVC.mp4	0.0	315.0664029121399	
68	183.24044108390808	movie	1		169.0	66.0	2.5	/experiments/knapen_aot/videos/R_S_g201_CA_A016_C002_SDR_20191114_SDR_2K_AVC.mp4	0.0	315.0746228694916	2.5084939002990723
68	185.74893498420715	fix_post	2		12.0	66.0	2.5	/experiments/knapen_aot/videos/R_S_g201_CA_A016_C002_SDR_20191114_SDR_2K_AVC.mp4	0.0	317.58311676979065	0.09985709190368652
69	185.84879207611084	fix_pre	0		12.0	67.0	2.5	/experiments/knapen_aot/videos/R_S_yt-mMnlzv6cfH4_134.mp4	0.0	317.68297386169434	0.09997892379760742
69	185.93298411369324	response	0	2		67.0	2.5	/experiments/knapen_aot/videos/R_S_yt-mMnlzv6cfH4_134.mp4	0.0	317.76716589927673	
69	185.94877099990845	movie	1		301.0	67.0	2.5	/experiments/knapen_aot/videos/R_S_yt-mMnlzv6cfH4_134.mp4	0.0	317.78295278549194	2.508358955383301
69	188.45712995529175	fix_post	2		12.0	67.0	2.5	/experiments/knapen_aot/videos/R_S_yt-mMnlzv6cfH4_134.mp4	0.0	320.29131174087524	0.09997415542602539
70	188.55710411071777	fix_pre	0		30.0	68.0	2.5	blank	1.0	320.39128589630127	0.2501189708709717
70	188.7988519668579	response	0	2		68.0	2.5	blank	1.0	320.6330337524414	
70	188.80722308158875	movie	1		301.0	68.0	2.5	blank	1.0	320.64140486717224	2.508246898651123
70	191.31546998023987	fix_post	2		12.0	68.0	2.5	blank	1.0	323.14965176582336	0.09996914863586426
71	191.41543912887573	fix_pre	0		22.0	69.0	2.5	/experiments/knapen_aot/videos/S_yt-44ip3uFe4YM_30.mp4	0.0	323.24962091445923	0.18332600593566895
71	191.59055614471436	response	0	2		69.0	2.5	/experiments/knapen_aot/videos/S_yt-44ip3uFe4YM_30.mp4	0.0	323.42473793029785	
71	191.5987651348114	movie	1		301.0	69.0	2.5	/experiments/knapen_aot/videos/S_yt-44ip3uFe4YM_30.mp4	0.0	323.4329469203949	2.508356809616089
71	194.1071219444275	fix_post	2		12.0	69.0	2.5	/experiments/knapen_aot/videos/S_yt-44ip3uFe4YM_30.mp4	0.0	325.941303730011	0.10001206398010254
72	194.2071340084076	fix_pre	0		22.0	70.0	2.5	/experiments/knapen_aot/videos/S_ILSVRC2015_train_00682003.mp4	0.0	326.0413157939911	0.18329906463623047
72	194.38221311569214	response	0	2		70.0	2.5	/experiments/knapen_aot/videos/S_ILSVRC2015_train_00682003.mp4	0.0	326.21639490127563	
72	194.39043307304382	movie	1		301.0	70.0	2.5	/experiments/knapen_aot/videos/S_ILSVRC2015_train_00682003.mp4	0.0	326.2246148586273	2.508312940597534
72	196.89874601364136	fix_post	2		12.0	70.0	2.5	/experiments/knapen_aot/videos/S_ILSVRC2015_train_00682003.mp4	0.0	328.73292779922485	0.1000361442565918
73	196.99878215789795	fix_pre	0		29.0	71.0	2.5	/experiments/knapen_aot/videos/R_S_-IkGMlLHrOI_108.mp4	0.0	328.83296394348145	0.24162888526916504
73	197.23216605186462	response	0	2		71.0	2.5	/experiments/knapen_aot/videos/R_S_-IkGMlLHrOI_108.mp4	0.0	329.0663478374481	
73	197.24041104316711	movie	1		301.0	71.0	2.5	/experiments/knapen_aot/videos/R_S_-IkGMlLHrOI_108.mp4	0.0	329.0745928287506	2.5083398818969727
73	199.7487509250641	fix_post	2		12.0	71.0	2.5	/experiments/knapen_aot/videos/R_S_-IkGMlLHrOI_108.mp4	0.0	331.5829327106476	0.09996318817138672
74	199.84871411323547	fix_pre	0		17.0	72.0	2.5	/experiments/knapen_aot/videos/S_yt-mdxs8FCKLFc_232.mp4	0.0	331.68289589881897	0.14178991317749023
74	199.98217296600342	response	0	2		72.0	2.5	/experiments/knapen_aot/videos/S_yt-mdxs8FCKLFc_232.mp4	0.0	331.8163547515869	
74	199.99050402641296	movie	1		301.0	72.0	2.5	/experiments/knapen_aot/videos/S_yt-mdxs8FCKLFc_232.mp4	0.0	331.82468581199646	2.5082221031188965
74	202.49872612953186	fix_post	2		12.0	72.0	2.5	/experiments/knapen_aot/videos/S_yt-mdxs8FCKLFc_232.mp4	0.0	334.33290791511536	0.10001397132873535
75	202.5987401008606	fix_pre	0		17.0	73.0	2.5	/experiments/knapen_aot/videos/S_production_ID_5102663.mp4	0.0	334.4329218864441	0.1416490077972412
75	202.7321081161499	response	0	2		73.0	2.5	/experiments/knapen_aot/videos/S_production_ID_5102663.mp4	0.0	334.5662899017334	
75	202.74038910865784	movie	1		200.0	73.0	2.5	/experiments/knapen_aot/videos/S_production_ID_5102663.mp4	0.0	334.57457089424133	2.5083580017089844
75	205.24874711036682	fix_post	2		12.0	73.0	2.5	/experiments/knapen_aot/videos/S_production_ID_5102663.mp4	0.0	337.0829288959503	0.09998393058776855
76	205.3487310409546	fix_pre	0		8.0	74.0	2.5	/experiments/knapen_aot/videos/S_Y004_C015_SDR_2K_AVC.mp4	0.0	337.1829128265381	0.06657910346984863
76	205.4070770740509	response	0	2		74.0	2.5	/experiments/knapen_aot/videos/S_Y004_C015_SDR_2K_AVC.mp4	0.0	337.2412588596344	
76	205.41531014442444	movie	1		168.0	74.0	2.5	/experiments/knapen_aot/videos/S_Y004_C015_SDR_2K_AVC.mp4	0.0	337.24949193000793	2.508405923843384
76	207.92371606826782	fix_post	2		12.0	74.0	2.5	/experiments/knapen_aot/videos/S_Y004_C015_SDR_2K_AVC.mp4	0.0	339.7578978538513	0.09998297691345215
77	208.02369904518127	fix_pre	0		3.0	75.0	2.5	/experiments/knapen_aot/videos/S_yt-O_4DgW-XKvA_35.mp4	0.0	339.85788083076477	0.025664091110229492
77	208.04045796394348	response	0	2		75.0	2.5	/experiments/knapen_aot/videos/S_yt-O_4DgW-XKvA_35.mp4	0.0	339.874639749527	
77	208.0493631362915	movie	1		301.0	75.0	2.5	/experiments/knapen_aot/videos/S_yt-O_4DgW-XKvA_35.mp4	0.0	339.883544921875	2.507643938064575
77	210.55700707435608	fix_post	2		12.0	75.0	2.5	/experiments/knapen_aot/videos/S_yt-O_4DgW-XKvA_35.mp4	0.0	342.3911888599396	0.09999704360961914
78	210.6570041179657	fix_pre	0		7.0	76.0	2.5	/experiments/knapen_aot/videos/S_ILSVRC2015_train_00743006.mp4	0.0	342.4911859035492	0.05890202522277832
78	210.70708799362183	response	0	2		76.0	2.5	/experiments/knapen_aot/videos/S_ILSVRC2015_train_00743006.mp4	0.0	342.5412697792053	
78	210.71590614318848	movie	1		301.0	76.0	2.5	/experiments/knapen_aot/videos/S_ILSVRC2015_train_00743006.mp4	0.0	342.550087928772	2.5077309608459473
78	213.22363710403442	fix_post	2		12.0	76.0	2.5	/experiments/knapen_aot/videos/S_ILSVRC2015_train_00743006.mp4	0.0	345.0578188896179	0.10013699531555176
79	213.32377409934998	fix_pre	0		20.0	77.0	2.5	blank	1.0	345.1579558849335	0.16658782958984375
79	213.48205494880676	response	0	2		77.0	2.5	blank	1.0	345.31623673439026	
79	213.49036192893982	movie	1		301.0	77.0	2.5	blank	1.0	345.3245437145233	2.5083141326904297
79	215.99867606163025	fix_post	2		12.0	77.0	2.5	blank	1.0	347.83285784721375	0.0999760627746582
80	216.0986521244049	fix_pre	0		21.0	78.0	2.5	/experiments/knapen_aot/videos/S_yt-mMnlzv6cfH4_134.mp4	0.0	347.9328339099884	0.17501401901245117
80	216.2579550743103	response	0	2		78.0	2.5	/experiments/knapen_aot/videos/S_yt-mMnlzv6cfH4_134.mp4	0.0	348.0921368598938	
80	216.27366614341736	movie	1		301.0	78.0	2.5	/experiments/knapen_aot/videos/S_yt-mMnlzv6cfH4_134.mp4	0.0	348.10784792900085	2.50836181640625
80	218.7820279598236	fix_post	2		12.0	78.0	2.5	/experiments/knapen_aot/videos/S_yt-mMnlzv6cfH4_134.mp4	0.0	350.6162097454071	0.09995007514953613
81	218.88197803497314	fix_pre	0		7.0	79.0	2.5	/experiments/knapen_aot/videos/R_S_yt-PK-Eip9wFr0_24.mp4	0.0	350.71615982055664	0.05835294723510742
81	218.93211603164673	response	0	2		79.0	2.5	/experiments/knapen_aot/videos/R_S_yt-PK-Eip9wFr0_24.mp4	0.0	350.7662978172302	
81	218.94033098220825	movie	1		299.0	79.0	2.5	/experiments/knapen_aot/videos/R_S_yt-PK-Eip9wFr0_24.mp4	0.0	350.77451276779175	2.5083041191101074
81	221.44863510131836	fix_post	2		12.0	79.0	2.5	/experiments/knapen_aot/videos/R_S_yt-PK-Eip9wFr0_24.mp4	0.0	353.28281688690186	0.10020899772644043
82	221.5488440990448	fix_pre	0		6.0	80.0	2.5	/experiments/knapen_aot/videos/R_S_yt-PaxmJhMoP3w_87.mp4	0.0	353.3830258846283	0.049783945083618164
82	221.59042716026306	response	0	2		80.0	2.5	/experiments/knapen_aot/videos/R_S_yt-PaxmJhMoP3w_87.mp4	0.0	353.42460894584656	
82	221.59862804412842	movie	1		301.0	80.0	2.5	/experiments/knapen_aot/videos/R_S_yt-PaxmJhMoP3w_87.mp4	0.0	353.4328098297119	2.5083870887756348
82	224.10701513290405	fix_post	2		12.0	80.0	2.5	/experiments/knapen_aot/videos/R_S_yt-PaxmJhMoP3w_87.mp4	0.0	355.94119691848755	0.10003495216369629
83	224.20705008506775	fix_pre	0		7.0	81.0	2.5	/experiments/knapen_aot/videos/R_S_pexels-marcus-aurelius-6785014.mp4	0.0	356.04123187065125	0.05815005302429199
83	224.2571041584015	response	0	2		81.0	2.5	/experiments/knapen_aot/videos/R_S_pexels-marcus-aurelius-6785014.mp4	0.0	356.091285943985	
83	224.26520013809204	movie	1		169.0	81.0	2.5	/experiments/knapen_aot/videos/R_S_pexels-marcus-aurelius-6785014.mp4	0.0	356.09938192367554	2.5084149837493896
83	226.77361512184143	fix_post	2		12.0	81.0	2.5	/experiments/knapen_aot/videos/R_S_pexels-marcus-aurelius-6785014.mp4	0.0	358.6077969074249	0.09993386268615723
84	226.8735489845276	fix_pre	0		6.0	82.0	2.5	blank	1.0	358.7077307701111	0.050672054290771484
84	226.91533398628235	response	0	2		82.0	2.5	blank	1.0	358.74951577186584	
84	226.92422103881836	movie	1		301.0	82.0	2.5	blank	1.0	358.75840282440186	2.5077109336853027
84	229.43193197250366	fix_post	2		12.0	82.0	2.5	blank	1.0	361.26611375808716	0.09997010231018066
85	229.53190207481384	fix_pre	0		10.0	83.0	2.5	/experiments/knapen_aot/videos/S_yt-aqrdb6BiFx4_12.mp4	0.0	361.36608386039734	0.08333492279052734
85	229.60705995559692	response	0	2		83.0	2.5	/experiments/knapen_aot/videos/S_yt-aqrdb6BiFx4_12.mp4	0.0	361.4412417411804	
85	229.61523699760437	movie	1		301.0	83.0	2.5	/experiments/knapen_aot/videos/S_yt-aqrdb6BiFx4_12.mp4	0.0	361.44941878318787	2.5087730884552
85	232.12401008605957	fix_post	2		12.0	83.0	2.5	/experiments/knapen_aot/videos/S_yt-aqrdb6BiFx4_12.mp4	0.0	363.95819187164307	0.09961986541748047
87	232.22362995147705	stim	0		313.0					364.05781173706055	2.6100311279296875
87	232.34038710594177	response	0	2						364.17456889152527	
87	234.821270942688	response	0	space						366.6554527282715	
