trial_nr	onset	event_type	phase	response	nr_frames	movie_index	movie_duration	movie_file	blank	onset_abs	duration
0	0.13197112083435059	stim	0		50.0					64.23109912872314	0.4167180061340332
0	0.5380349159240723	response	0	space						64.63716292381287	
1	0.5486891269683838	stim	0		121.0					64.64781713485718	1.005551815032959
1	1.5209951400756836	response	0	space						65.62012314796448	
1	1.5542409420013428	stim	1		120.0					65.65336894989014	0.9999401569366455
1	2.0792369842529297	response	1	space						66.17836499214172	
2	2.5541810989379883	fix_pre	0		26.0	0.0	2.5	/experiments/knapen_aot/videos/S_yt-2y6A9DJPsDU_65.mp4	0.0	66.65330910682678	0.21665382385253906
2	2.762622117996216	response	0	space		0.0	2.5	/experiments/knapen_aot/videos/S_yt-2y6A9DJPsDU_65.mp4	0.0	66.86175012588501	
2	2.7708349227905273	movie	1		297.0	0.0	2.5	/experiments/knapen_aot/videos/S_yt-2y6A9DJPsDU_65.mp4	0.0	66.86996293067932	2.5083651542663574
2	5.279200077056885	fix_post	2		12.0	0.0	2.5	/experiments/knapen_aot/videos/S_yt-2y6A9DJPsDU_65.mp4	0.0	69.37832808494568	0.09993886947631836
3	5.379138946533203	fix_pre	0		73.0	1.0	2.5	/experiments/knapen_aot/videos/R_S_comp_A050_C004_1027V8_v16_SDR_FINAL_20180706_SDR_2K_AVC.mp4	0.0	69.478266954422	0.608389139175415
3	5.979660987854004	response	0	2		1.0	2.5	/experiments/knapen_aot/videos/R_S_comp_A050_C004_1027V8_v16_SDR_FINAL_20180706_SDR_2K_AVC.mp4	0.0	70.0787889957428	
3	5.987528085708618	movie	1		177.0	1.0	2.5	/experiments/knapen_aot/videos/R_S_comp_A050_C004_1027V8_v16_SDR_FINAL_20180706_SDR_2K_AVC.mp4	0.0	70.08665609359741	2.508354902267456
3	8.495882987976074	fix_post	2		12.0	1.0	2.5	/experiments/knapen_aot/videos/R_S_comp_A050_C004_1027V8_v16_SDR_FINAL_20180706_SDR_2K_AVC.mp4	0.0	72.59501099586487	0.1000220775604248
4	8.595905065536499	fix_pre	0		19.0	2.0	2.5	/experiments/knapen_aot/videos/S_X-D3lUv-atE_376.mp4	0.0	72.6950330734253	0.15831589698791504
4	8.746035099029541	response	0	2		2.0	2.5	/experiments/knapen_aot/videos/S_X-D3lUv-atE_376.mp4	0.0	72.84516310691833	
4	8.754220962524414	movie	1		301.0	2.0	2.5	/experiments/knapen_aot/videos/S_X-D3lUv-atE_376.mp4	0.0	72.85334897041321	2.5083250999450684
4	11.262546062469482	fix_post	2		12.0	2.0	2.5	/experiments/knapen_aot/videos/S_X-D3lUv-atE_376.mp4	0.0	75.36167407035828	0.09999704360961914
5	11.362543106079102	fix_pre	0		57.0	3.0	2.5	/experiments/knapen_aot/videos/S_yt-_BvMLZo0MG0_1226.mp4	0.0	75.4616711139679	0.474992036819458
5	11.829370975494385	response	0	2		3.0	2.5	/experiments/knapen_aot/videos/S_yt-_BvMLZo0MG0_1226.mp4	0.0	75.92849898338318	
5	11.83753514289856	movie	1		301.0	3.0	2.5	/experiments/knapen_aot/videos/S_yt-_BvMLZo0MG0_1226.mp4	0.0	75.93666315078735	2.5083529949188232
5	14.345888137817383	fix_post	2		12.0	3.0	2.5	/experiments/knapen_aot/videos/S_yt-_BvMLZo0MG0_1226.mp4	0.0	78.44501614570618	0.09993600845336914
6	14.445824146270752	fix_pre	0		90.0	4.0	2.5	/experiments/knapen_aot/videos/R_S_yt-cgYmOmMzn98_103.mp4	0.0	78.54495215415955	0.7500109672546387
6	15.187556982040405	response	0	2		4.0	2.5	/experiments/knapen_aot/videos/R_S_yt-cgYmOmMzn98_103.mp4	0.0	79.2866849899292	
6	15.19583511352539	movie	1		301.0	4.0	2.5	/experiments/knapen_aot/videos/R_S_yt-cgYmOmMzn98_103.mp4	0.0	79.29496312141418	2.5084140300750732
6	17.704249143600464	fix_post	2		12.0	4.0	2.5	/experiments/knapen_aot/videos/R_S_yt-cgYmOmMzn98_103.mp4	0.0	81.80337715148926	0.09996795654296875
7	17.804217100143433	fix_pre	0		12.0	5.0	2.5	/experiments/knapen_aot/videos/R_S_production_ID_3927047.mp4	0.0	81.90334510803223	0.1000058650970459
7	17.8959641456604	response	0	2		5.0	2.5	/experiments/knapen_aot/videos/R_S_production_ID_3927047.mp4	0.0	81.9950921535492	
7	17.90422296524048	movie	1		184.0	5.0	2.5	/experiments/knapen_aot/videos/R_S_production_ID_3927047.mp4	0.0	82.00335097312927	2.50829815864563
7	20.41252112388611	fix_post	2		12.0	5.0	2.5	/experiments/knapen_aot/videos/R_S_production_ID_3927047.mp4	0.0	84.5116491317749	0.09996390342712402
8	20.512485027313232	fix_pre	0		40.0	6.0	2.5	blank	1.0	84.61161303520203	0.3342568874359131
8	20.837589025497437	response	0	2		6.0	2.5	blank	1.0	84.93671703338623	
8	20.846741914749146	movie	1		301.0	6.0	2.5	blank	1.0	84.94586992263794	2.5073280334472656
8	23.35406994819641	fix_post	2		12.0	6.0	2.5	blank	1.0	87.4531979560852	0.10005807876586914
9	23.45412802696228	fix_pre	0		27.0	7.0	2.5	/experiments/knapen_aot/videos/R_S_pexels-c-technical-6763571.mp4	0.0	87.55325603485107	0.2258739471435547
9	23.670938968658447	response	0	2		7.0	2.5	/experiments/knapen_aot/videos/R_S_pexels-c-technical-6763571.mp4	0.0	87.77006697654724	
9	23.680001974105835	movie	1		206.0	7.0	2.5	/experiments/knapen_aot/videos/R_S_pexels-c-technical-6763571.mp4	0.0	87.77912998199463	2.507405996322632
9	26.187407970428467	fix_post	2		12.0	7.0	2.5	/experiments/knapen_aot/videos/R_S_pexels-c-technical-6763571.mp4	0.0	90.28653597831726	0.10002303123474121
10	26.287431001663208	fix_pre	0		26.0	8.0	2.5	/experiments/knapen_aot/videos/R_S_wc-NzEeGIXLxvwp_19.mp4	0.0	90.386559009552	0.21667695045471191
10	26.495891094207764	response	0	2		8.0	2.5	/experiments/knapen_aot/videos/R_S_wc-NzEeGIXLxvwp_19.mp4	0.0	90.59501910209656	
10	26.50410795211792	movie	1		163.0	8.0	2.5	/experiments/knapen_aot/videos/R_S_wc-NzEeGIXLxvwp_19.mp4	0.0	90.60323596000671	2.5082950592041016
10	29.01240301132202	fix_post	2		12.0	8.0	2.5	/experiments/knapen_aot/videos/R_S_wc-NzEeGIXLxvwp_19.mp4	0.0	93.11153101921082	0.09992003440856934
11	29.11232304573059	fix_pre	0		28.0	9.0	2.5	/experiments/knapen_aot/videos/R_S_yt-JDHApyT5ngs_128.mp4	0.0	93.21145105361938	0.23433709144592285
11	29.337541103363037	response	0	2		9.0	2.5	/experiments/knapen_aot/videos/R_S_yt-JDHApyT5ngs_128.mp4	0.0	93.43666911125183	
11	29.346660137176514	movie	1		301.0	9.0	2.5	/experiments/knapen_aot/videos/R_S_yt-JDHApyT5ngs_128.mp4	0.0	93.44578814506531	2.507416009902954
11	31.854076147079468	fix_post	2		12.0	9.0	2.5	/experiments/knapen_aot/videos/R_S_yt-JDHApyT5ngs_128.mp4	0.0	95.95320415496826	0.09997987747192383
12	31.95405602455139	fix_pre	0		30.0	10.0	2.5	/experiments/knapen_aot/videos/R_S_yt-26009GpQuUg_3.mp4	0.0	96.05318403244019	0.2500190734863281
12	32.19585204124451	response	0	2		10.0	2.5	/experiments/knapen_aot/videos/R_S_yt-26009GpQuUg_3.mp4	0.0	96.2949800491333	
12	32.20407509803772	movie	1		301.0	10.0	2.5	/experiments/knapen_aot/videos/R_S_yt-26009GpQuUg_3.mp4	0.0	96.30320310592651	2.50832200050354
12	34.71239709854126	fix_post	2		12.0	10.0	2.5	/experiments/knapen_aot/videos/R_S_yt-26009GpQuUg_3.mp4	0.0	98.81152510643005	0.10000085830688477
13	34.812397956848145	fix_pre	0		147.0	11.0	2.5	/experiments/knapen_aot/videos/S_yt-hyZEDFkh49w_196.mp4	0.0	98.91152596473694	1.2249951362609863
13	36.02923393249512	response	0	2		11.0	2.5	/experiments/knapen_aot/videos/S_yt-hyZEDFkh49w_196.mp4	0.0	100.12836194038391	
13	36.03739309310913	movie	1		301.0	11.0	2.5	/experiments/knapen_aot/videos/S_yt-hyZEDFkh49w_196.mp4	0.0	100.13652110099792	2.5082478523254395
13	38.54564094543457	fix_post	2		12.0	11.0	2.5	/experiments/knapen_aot/videos/S_yt-hyZEDFkh49w_196.mp4	0.0	102.64476895332336	0.10009503364562988
14	38.6457359790802	fix_pre	0		73.0	12.0	2.5	blank	1.0	102.744863986969	0.6083331108093262
14	39.24583292007446	response	0	2		12.0	2.5	blank	1.0	103.34496092796326	
14	39.254069089889526	movie	1		301.0	12.0	2.5	blank	1.0	103.35319709777832	2.5082850456237793
14	41.762354135513306	fix_post	2		12.0	12.0	2.5	blank	1.0	105.8614821434021	0.10001778602600098
15	41.86237192153931	fix_pre	0		24.0	13.0	2.5	/experiments/knapen_aot/videos/R_S_yt-FLMdajcbjcg_35.mp4	0.0	105.9614999294281	0.19998908042907715
15	42.05423092842102	response	0	2		13.0	2.5	/experiments/knapen_aot/videos/R_S_yt-FLMdajcbjcg_35.mp4	0.0	106.15335893630981	
15	42.062361001968384	movie	1		301.0	13.0	2.5	/experiments/knapen_aot/videos/R_S_yt-FLMdajcbjcg_35.mp4	0.0	106.16148900985718	2.508242130279541
15	44.570603132247925	fix_post	2		12.0	13.0	2.5	/experiments/knapen_aot/videos/R_S_yt-FLMdajcbjcg_35.mp4	0.0	108.66973114013672	0.10007596015930176
16	44.67067909240723	fix_pre	0		14.0	14.0	2.5	/experiments/knapen_aot/videos/S_yt-uXDyvrm0Tw0_17.mp4	0.0	108.76980710029602	0.11662888526916504
16	44.779155015945435	response	0	2		14.0	2.5	/experiments/knapen_aot/videos/S_yt-uXDyvrm0Tw0_17.mp4	0.0	108.87828302383423	
16	44.78730797767639	movie	1		301.0	14.0	2.5	/experiments/knapen_aot/videos/S_yt-uXDyvrm0Tw0_17.mp4	0.0	108.88643598556519	2.508347988128662
16	47.295655965805054	fix_post	2		12.0	14.0	2.5	/experiments/knapen_aot/videos/S_yt-uXDyvrm0Tw0_17.mp4	0.0	111.39478397369385	0.10003018379211426
17	47.39568614959717	fix_pre	0		36.0	15.0	2.5	/experiments/knapen_aot/videos/S_yt-hyZEDFkh49w_196.mp4	0.0	111.49481415748596	0.2999849319458008
17	47.687456130981445	response	0	2		15.0	2.5	/experiments/knapen_aot/videos/S_yt-hyZEDFkh49w_196.mp4	0.0	111.78658413887024	
17	47.69567108154297	movie	1		301.0	15.0	2.5	/experiments/knapen_aot/videos/S_yt-hyZEDFkh49w_196.mp4	0.0	111.79479908943176	2.508368968963623
17	50.20404005050659	fix_post	2		12.0	15.0	2.5	/experiments/knapen_aot/videos/S_yt-hyZEDFkh49w_196.mp4	0.0	114.30316805839539	0.10000801086425781
18	50.30404806137085	fix_pre	0		78.0	16.0	2.5	/experiments/knapen_aot/videos/R_S_pexels-mart-production-8435081.mp4	0.0	114.40317606925964	0.6500048637390137
18	50.938180923461914	response	0	2		16.0	2.5	/experiments/knapen_aot/videos/R_S_pexels-mart-production-8435081.mp4	0.0	115.03730893135071	
18	50.95405292510986	movie	1		189.0	16.0	2.5	/experiments/knapen_aot/videos/R_S_pexels-mart-production-8435081.mp4	0.0	115.05318093299866	2.5082530975341797
18	53.46230602264404	fix_post	2		12.0	16.0	2.5	/experiments/knapen_aot/videos/R_S_pexels-mart-production-8435081.mp4	0.0	117.56143403053284	0.10005593299865723
19	53.5623619556427	fix_pre	0		65.0	17.0	2.5	/experiments/knapen_aot/videos/S_ILSVRC2015_train_00613000.mp4	0.0	117.6614899635315	0.5415980815887451
19	54.09580206871033	response	0	2		17.0	2.5	/experiments/knapen_aot/videos/S_ILSVRC2015_train_00613000.mp4	0.0	118.19493007659912	
19	54.103960037231445	movie	1		301.0	17.0	2.5	/experiments/knapen_aot/videos/S_ILSVRC2015_train_00613000.mp4	0.0	118.20308804512024	2.508349895477295
19	56.61230993270874	fix_post	2		12.0	17.0	2.5	/experiments/knapen_aot/videos/S_ILSVRC2015_train_00613000.mp4	0.0	120.71143794059753	0.10002017021179199
20	56.71233010292053	fix_pre	0		32.0	18.0	2.5	/experiments/knapen_aot/videos/R_S_yt-q9kT_c9QjbQ_34.mp4	0.0	120.81145811080933	0.26662588119506836
20	56.970787048339844	response	0	2		18.0	2.5	/experiments/knapen_aot/videos/R_S_yt-q9kT_c9QjbQ_34.mp4	0.0	121.06991505622864	
20	56.9789559841156	movie	1		301.0	18.0	2.5	/experiments/knapen_aot/videos/R_S_yt-q9kT_c9QjbQ_34.mp4	0.0	121.0780839920044	2.5082709789276123
20	59.48722696304321	fix_post	2		12.0	18.0	2.5	/experiments/knapen_aot/videos/R_S_yt-q9kT_c9QjbQ_34.mp4	0.0	123.586354970932	0.10003304481506348
21	59.587260007858276	fix_pre	0		92.0	19.0	2.5	/experiments/knapen_aot/videos/S_yt-Pinnv3-3GFU_452.mp4	0.0	123.68638801574707	0.7666771411895752
21	60.34580206871033	response	0	2		19.0	2.5	/experiments/knapen_aot/videos/S_yt-Pinnv3-3GFU_452.mp4	0.0	124.44493007659912	
21	60.35393714904785	movie	1		301.0	19.0	2.5	/experiments/knapen_aot/videos/S_yt-Pinnv3-3GFU_452.mp4	0.0	124.45306515693665	2.5083518028259277
21	62.86228895187378	fix_post	2		12.0	19.0	2.5	/experiments/knapen_aot/videos/S_yt-Pinnv3-3GFU_452.mp4	0.0	126.96141695976257	0.09998011589050293
22	62.96226906776428	fix_pre	0		35.0	20.0	2.5	/experiments/knapen_aot/videos/R_S_production_ID_5020953.mp4	0.0	127.06139707565308	0.29165101051330566
22	63.245753049850464	response	0	2		20.0	2.5	/experiments/knapen_aot/videos/R_S_production_ID_5020953.mp4	0.0	127.34488105773926	
22	63.25392007827759	movie	1		202.0	20.0	2.5	/experiments/knapen_aot/videos/R_S_production_ID_5020953.mp4	0.0	127.35304808616638	2.5083398818969727
22	65.76225996017456	fix_post	2		12.0	20.0	2.5	/experiments/knapen_aot/videos/R_S_production_ID_5020953.mp4	0.0	129.86138796806335	0.09992504119873047
23	65.86218500137329	fix_pre	0		19.0	21.0	2.5	blank	1.0	129.96131300926208	0.1584770679473877
23	66.01247596740723	response	0	2		21.0	2.5	blank	1.0	130.11160397529602	
23	66.02066206932068	movie	1		301.0	21.0	2.5	blank	1.0	130.11979007720947	2.508229970932007
23	68.52889204025269	fix_post	2		12.0	21.0	2.5	blank	1.0	132.62802004814148	0.10001897811889648
24	68.62891101837158	fix_pre	0		16.0	22.0	2.5	/experiments/knapen_aot/videos/R_S_yt-kA0ybjmoiMc_284.mp4	0.0	132.72803902626038	0.13397002220153809
24	68.75396299362183	response	0	2		22.0	2.5	/experiments/knapen_aot/videos/R_S_yt-kA0ybjmoiMc_284.mp4	0.0	132.85309100151062	
24	68.76288104057312	movie	1		301.0	22.0	2.5	/experiments/knapen_aot/videos/R_S_yt-kA0ybjmoiMc_284.mp4	0.0	132.8620090484619	2.507699966430664
24	71.27058100700378	fix_post	2		12.0	22.0	2.5	/experiments/knapen_aot/videos/R_S_yt-kA0ybjmoiMc_284.mp4	0.0	135.36970901489258	0.1000220775604248
25	71.37060308456421	fix_pre	0		18.0	23.0	2.5	/experiments/knapen_aot/videos/R_S_yt--DXkjCUzThU_413.mp4	0.0	135.469731092453	0.15841197967529297
25	71.512540102005	response	0	2		23.0	2.5	/experiments/knapen_aot/videos/R_S_yt--DXkjCUzThU_413.mp4	0.0	135.6116681098938	
25	71.5290150642395	movie	1		300.0	23.0	2.5	/experiments/knapen_aot/videos/R_S_yt--DXkjCUzThU_413.mp4	0.0	135.6281430721283	2.499876022338867
25	74.02889108657837	fix_post	2		12.0	23.0	2.5	/experiments/knapen_aot/videos/R_S_yt--DXkjCUzThU_413.mp4	0.0	138.12801909446716	0.1000208854675293
26	74.1289119720459	fix_pre	0		51.0	24.0	2.5	/experiments/knapen_aot/videos/S_yt-q9kT_c9QjbQ_34.mp4	0.0	138.2280399799347	0.4256110191345215
26	74.54566192626953	response	0	2		24.0	2.5	/experiments/knapen_aot/videos/S_yt-q9kT_c9QjbQ_34.mp4	0.0	138.64478993415833	
26	74.55452299118042	movie	1		301.0	24.0	2.5	/experiments/knapen_aot/videos/S_yt-q9kT_c9QjbQ_34.mp4	0.0	138.6536509990692	2.507723093032837
26	77.06224608421326	fix_post	2		12.0	24.0	2.5	/experiments/knapen_aot/videos/S_yt-q9kT_c9QjbQ_34.mp4	0.0	141.16137409210205	0.09996700286865234
27	77.16221308708191	fix_pre	0		99.0	25.0	2.5	/experiments/knapen_aot/videos/S_pexels-cottonbro-9499408.mp4	0.0	141.2613410949707	0.8249669075012207
27	77.97161293029785	response	0	2		25.0	2.5	/experiments/knapen_aot/videos/S_pexels-cottonbro-9499408.mp4	0.0	142.07074093818665	
27	77.98717999458313	movie	1		204.0	25.0	2.5	/experiments/knapen_aot/videos/S_pexels-cottonbro-9499408.mp4	0.0	142.08630800247192	2.5083329677581787
27	80.49551296234131	fix_post	2		12.0	25.0	2.5	/experiments/knapen_aot/videos/S_pexels-cottonbro-9499408.mp4	0.0	144.5946409702301	0.1000661849975586
28	80.59557914733887	fix_pre	0		71.0	26.0	2.5	blank	1.0	144.69470715522766	0.5916249752044678
28	81.17907094955444	response	0	2		26.0	2.5	blank	1.0	145.27819895744324	
28	81.18720412254333	movie	1		301.0	26.0	2.5	blank	1.0	145.28633213043213	2.508342981338501
28	83.69554710388184	fix_post	2		12.0	26.0	2.5	blank	1.0	147.79467511177063	0.09998202323913574
29	83.79552912712097	fix_pre	0		24.0	27.0	2.5	/experiments/knapen_aot/videos/S_comp_A105_C003_0212CT_FLARE_v10_SDR_PS_FINAL_20180711_SDR_2K_AVC.mp4	0.0	147.89465713500977	0.19991278648376465
29	83.98732995986938	response	0	2		27.0	2.5	/experiments/knapen_aot/videos/S_comp_A105_C003_0212CT_FLARE_v10_SDR_PS_FINAL_20180711_SDR_2K_AVC.mp4	0.0	148.08645796775818	
29	83.99544191360474	movie	1		162.0	27.0	2.5	/experiments/knapen_aot/videos/S_comp_A105_C003_0212CT_FLARE_v10_SDR_PS_FINAL_20180711_SDR_2K_AVC.mp4	0.0	148.09456992149353	2.508500099182129
29	86.50394201278687	fix_post	2		12.0	27.0	2.5	/experiments/knapen_aot/videos/S_comp_A105_C003_0212CT_FLARE_v10_SDR_PS_FINAL_20180711_SDR_2K_AVC.mp4	0.0	150.60307002067566	0.09995603561401367
30	86.60389804840088	fix_pre	0		10.0	28.0	2.5	/experiments/knapen_aot/videos/S_IrGYVLkWeQs_9.mp4	0.0	150.70302605628967	0.08330488204956055
30	86.67902898788452	response	0	2		28.0	2.5	/experiments/knapen_aot/videos/S_IrGYVLkWeQs_9.mp4	0.0	150.77815699577332	
30	86.68720293045044	movie	1		301.0	28.0	2.5	/experiments/knapen_aot/videos/S_IrGYVLkWeQs_9.mp4	0.0	150.78633093833923	2.508362054824829
30	89.19556498527527	fix_post	2		12.0	28.0	2.5	/experiments/knapen_aot/videos/S_IrGYVLkWeQs_9.mp4	0.0	153.29469299316406	0.10000109672546387
31	89.29556608200073	fix_pre	0		54.0	29.0	2.5	/experiments/knapen_aot/videos/R_S_yt-Ndwek2tpIOA_169.mp4	0.0	153.39469408988953	0.4500570297241211
31	89.73735308647156	response	0	2		29.0	2.5	/experiments/knapen_aot/videos/R_S_yt-Ndwek2tpIOA_169.mp4	0.0	153.83648109436035	
31	89.74562311172485	movie	1		301.0	29.0	2.5	/experiments/knapen_aot/videos/R_S_yt-Ndwek2tpIOA_169.mp4	0.0	153.84475111961365	2.5082509517669678
31	92.25387406349182	fix_post	2		12.0	29.0	2.5	/experiments/knapen_aot/videos/R_S_yt-Ndwek2tpIOA_169.mp4	0.0	156.35300207138062	0.09996795654296875
32	92.35384202003479	fix_pre	0		119.0	30.0	2.5	/experiments/knapen_aot/videos/R_S_yt-4oT-2eGhmUo_102.mp4	0.0	156.45297002792358	0.9921660423278809
32	93.32972002029419	response	0	2		30.0	2.5	/experiments/knapen_aot/videos/R_S_yt-4oT-2eGhmUo_102.mp4	0.0	157.42884802818298	
32	93.34600806236267	movie	1		301.0	30.0	2.5	/experiments/knapen_aot/videos/R_S_yt-4oT-2eGhmUo_102.mp4	0.0	157.44513607025146	2.5078470706939697
32	95.85385513305664	fix_post	2		12.0	30.0	2.5	/experiments/knapen_aot/videos/R_S_yt-4oT-2eGhmUo_102.mp4	0.0	159.95298314094543	0.10001587867736816
33	95.95387101173401	fix_pre	0		76.0	31.0	2.5	/experiments/knapen_aot/videos/R_S_yt-CR86bVrRwfo_13.mp4	0.0	160.0529990196228	0.6332690715789795
33	96.57909607887268	response	0	2		31.0	2.5	/experiments/knapen_aot/videos/R_S_yt-CR86bVrRwfo_13.mp4	0.0	160.67822408676147	
33	96.58714008331299	movie	1		301.0	31.0	2.5	/experiments/knapen_aot/videos/R_S_yt-CR86bVrRwfo_13.mp4	0.0	160.68626809120178	2.508291006088257
33	99.09543108940125	fix_post	2		12.0	31.0	2.5	/experiments/knapen_aot/videos/R_S_yt-CR86bVrRwfo_13.mp4	0.0	163.19455909729004	0.10003805160522461
34	99.19546914100647	fix_pre	0		92.0	32.0	2.5	/experiments/knapen_aot/videos/R_S_video_inspire_alabama_montgomery_countryside_00007.1080-h264.mp4	0.0	163.29459714889526	0.7666349411010742
34	99.95392608642578	response	0	2		32.0	2.5	/experiments/knapen_aot/videos/R_S_video_inspire_alabama_montgomery_countryside_00007.1080-h264.mp4	0.0	164.05305409431458	
34	99.96210408210754	movie	1		169.0	32.0	2.5	/experiments/knapen_aot/videos/R_S_video_inspire_alabama_montgomery_countryside_00007.1080-h264.mp4	0.0	164.06123208999634	2.508368968963623
34	102.47047305107117	fix_post	2		12.0	32.0	2.5	/experiments/knapen_aot/videos/R_S_video_inspire_alabama_montgomery_countryside_00007.1080-h264.mp4	0.0	166.56960105895996	0.1001439094543457
35	102.57061696052551	fix_pre	0		35.0	33.0	2.5	blank	1.0	166.6697449684143	0.29151201248168945
35	102.84634208679199	response	0	2		33.0	2.5	blank	1.0	166.9454700946808	
35	102.8621289730072	movie	1		301.0	33.0	2.5	blank	1.0	166.961256980896	2.5083441734313965
35	105.3704731464386	fix_post	2		12.0	33.0	2.5	blank	1.0	169.4696011543274	0.09990477561950684
36	105.4703779220581	fix_pre	0		81.0	34.0	2.5	/experiments/knapen_aot/videos/R_S_comp_A050_C004_1027V8_v16_SDR_FINAL_20180706_SDR_2K_AVC.mp4	0.0	169.5695059299469	0.6750540733337402
36	106.13727498054504	response	0	2		34.0	2.5	/experiments/knapen_aot/videos/R_S_comp_A050_C004_1027V8_v16_SDR_FINAL_20180706_SDR_2K_AVC.mp4	0.0	170.23640298843384	
36	106.14543199539185	movie	1		169.0	34.0	2.5	/experiments/knapen_aot/videos/R_S_comp_A050_C004_1027V8_v16_SDR_FINAL_20180706_SDR_2K_AVC.mp4	0.0	170.24456000328064	2.5083799362182617
36	108.65381193161011	fix_post	2		12.0	34.0	2.5	/experiments/knapen_aot/videos/R_S_comp_A050_C004_1027V8_v16_SDR_FINAL_20180706_SDR_2K_AVC.mp4	0.0	172.7529399394989	0.09999203681945801
37	108.75380396842957	fix_pre	0		65.0	35.0	2.5	/experiments/knapen_aot/videos/S_yt-0qfEA1ZFWjA_123.mp4	0.0	172.85293197631836	0.5417301654815674
37	109.27970910072327	response	0	2		35.0	2.5	/experiments/knapen_aot/videos/S_yt-0qfEA1ZFWjA_123.mp4	0.0	173.37883710861206	
37	109.29553413391113	movie	1		301.0	35.0	2.5	/experiments/knapen_aot/videos/S_yt-0qfEA1ZFWjA_123.mp4	0.0	173.39466214179993	2.5082759857177734
37	111.8038101196289	fix_post	2		12.0	35.0	2.5	/experiments/knapen_aot/videos/S_yt-0qfEA1ZFWjA_123.mp4	0.0	175.9029381275177	0.09996891021728516
38	111.90377902984619	fix_pre	0		43.0	36.0	2.5	/experiments/knapen_aot/videos/S_production_ID_4101244.mp4	0.0	176.00290703773499	0.3588590621948242
38	112.24637198448181	response	0	2		36.0	2.5	/experiments/knapen_aot/videos/S_production_ID_4101244.mp4	0.0	176.3454999923706	
38	112.26263809204102	movie	1		188.0	36.0	2.5	/experiments/knapen_aot/videos/S_production_ID_4101244.mp4	0.0	176.3617660999298	2.5077528953552246
38	114.77039098739624	fix_post	2		12.0	36.0	2.5	/experiments/knapen_aot/videos/S_production_ID_4101244.mp4	0.0	178.86951899528503	0.09990596771240234
39	114.87029695510864	fix_pre	0		63.0	37.0	2.5	/experiments/knapen_aot/videos/S_yt-q9kT_c9QjbQ_34.mp4	0.0	178.96942496299744	0.5251560211181641
39	115.38721895217896	response	0	2		37.0	2.5	/experiments/knapen_aot/videos/S_yt-q9kT_c9QjbQ_34.mp4	0.0	179.48634696006775	
39	115.3954529762268	movie	1		301.0	37.0	2.5	/experiments/knapen_aot/videos/S_yt-q9kT_c9QjbQ_34.mp4	0.0	179.4945809841156	2.5082900524139404
39	117.90374302864075	fix_post	2		12.0	37.0	2.5	/experiments/knapen_aot/videos/S_yt-q9kT_c9QjbQ_34.mp4	0.0	182.00287103652954	0.09993696212768555
40	118.00367999076843	fix_pre	0		66.0	38.0	2.5	/experiments/knapen_aot/videos/S_ILSVRC2015_train_00661001.mp4	0.0	182.10280799865723	0.5503621101379395
40	118.54551100730896	response	0	2		38.0	2.5	/experiments/knapen_aot/videos/S_ILSVRC2015_train_00661001.mp4	0.0	182.64463901519775	
40	118.55404210090637	movie	1		301.0	38.0	2.5	/experiments/knapen_aot/videos/S_ILSVRC2015_train_00661001.mp4	0.0	182.65317010879517	2.5080158710479736
40	121.06205797195435	fix_post	2		12.0	38.0	2.5	/experiments/knapen_aot/videos/S_ILSVRC2015_train_00661001.mp4	0.0	185.16118597984314	0.10001397132873535
41	121.16207194328308	fix_pre	0		20.0	39.0	2.5	/experiments/knapen_aot/videos/R_S_yt-ayx4rU9bJrU_179.mp4	0.0	185.26119995117188	0.16663217544555664
41	121.32048892974854	response	0	2		39.0	2.5	/experiments/knapen_aot/videos/R_S_yt-ayx4rU9bJrU_179.mp4	0.0	185.41961693763733	
41	121.32870411872864	movie	1		301.0	39.0	2.5	/experiments/knapen_aot/videos/R_S_yt-ayx4rU9bJrU_179.mp4	0.0	185.42783212661743	2.5083420276641846
41	123.83704614639282	fix_post	2		12.0	39.0	2.5	/experiments/knapen_aot/videos/R_S_yt-ayx4rU9bJrU_179.mp4	0.0	187.93617415428162	0.09994983673095703
42	123.93699598312378	fix_pre	0		39.0	40.0	2.5	/experiments/knapen_aot/videos/S_yt-t-wpKypNysg_27.mp4	0.0	188.03612399101257	0.3254280090332031
42	124.2538571357727	response	0	2		40.0	2.5	/experiments/knapen_aot/videos/S_yt-t-wpKypNysg_27.mp4	0.0	188.3529851436615	
42	124.26242399215698	movie	1		301.0	40.0	2.5	/experiments/knapen_aot/videos/S_yt-t-wpKypNysg_27.mp4	0.0	188.36155200004578	2.5079400539398193
42	126.7703640460968	fix_post	2		12.0	40.0	2.5	/experiments/knapen_aot/videos/S_yt-t-wpKypNysg_27.mp4	0.0	190.8694920539856	0.0999600887298584
43	126.87032413482666	fix_pre	0		28.0	41.0	2.5	blank	1.0	190.96945214271545	0.23340797424316406
43	127.09553408622742	response	0	2		41.0	2.5	blank	1.0	191.1946620941162	
43	127.10373210906982	movie	1		301.0	41.0	2.5	blank	1.0	191.20286011695862	2.508312940597534
43	129.61204504966736	fix_post	2		12.0	41.0	2.5	blank	1.0	193.71117305755615	0.10000109672546387
44	129.71204614639282	fix_pre	0		103.0	42.0	2.5	/experiments/knapen_aot/videos/S_pexels-c-technical-6763571.mp4	0.0	193.81117415428162	0.8581998348236084
44	130.56219911575317	response	0	2		42.0	2.5	/experiments/knapen_aot/videos/S_pexels-c-technical-6763571.mp4	0.0	194.66132712364197	
44	130.57024598121643	movie	1		190.0	42.0	2.5	/experiments/knapen_aot/videos/S_pexels-c-technical-6763571.mp4	0.0	194.66937398910522	2.5083980560302734
44	133.0786440372467	fix_post	2		12.0	42.0	2.5	/experiments/knapen_aot/videos/S_pexels-c-technical-6763571.mp4	0.0	197.1777720451355	0.10003304481506348
45	133.17867708206177	fix_pre	0		163.0	43.0	2.5	/experiments/knapen_aot/videos/R_S_pexels-cottonbro-9499408.mp4	0.0	197.27780508995056	1.358299970626831
45	134.5287959575653	response	0	2		43.0	2.5	/experiments/knapen_aot/videos/R_S_pexels-cottonbro-9499408.mp4	0.0	198.6279239654541	
45	134.5369770526886	movie	1		196.0	43.0	2.5	/experiments/knapen_aot/videos/R_S_pexels-cottonbro-9499408.mp4	0.0	198.6361050605774	2.508401870727539
45	137.04537892341614	fix_post	2		12.0	43.0	2.5	/experiments/knapen_aot/videos/R_S_pexels-cottonbro-9499408.mp4	0.0	201.14450693130493	0.09998917579650879
46	137.14536809921265	fix_pre	0		30.0	44.0	2.5	/experiments/knapen_aot/videos/R_S_wc-hmW1OnCPF_xn_37.mp4	0.0	201.24449610710144	0.24997782707214355
46	137.38713192939758	response	0	2		44.0	2.5	/experiments/knapen_aot/videos/R_S_wc-hmW1OnCPF_xn_37.mp4	0.0	201.48625993728638	
46	137.3953459262848	movie	1		171.0	44.0	2.5	/experiments/knapen_aot/videos/R_S_wc-hmW1OnCPF_xn_37.mp4	0.0	201.49447393417358	2.5083529949188232
46	139.9036989212036	fix_post	2		12.0	44.0	2.5	/experiments/knapen_aot/videos/R_S_wc-hmW1OnCPF_xn_37.mp4	0.0	204.0028269290924	0.09997320175170898
47	140.00367212295532	fix_pre	0		15.0	45.0	2.5	/experiments/knapen_aot/videos/S_yt-Ndwek2tpIOA_169.mp4	0.0	204.10280013084412	0.12497091293334961
47	140.1204059123993	response	0	2		45.0	2.5	/experiments/knapen_aot/videos/S_yt-Ndwek2tpIOA_169.mp4	0.0	204.2195339202881	
47	140.12864303588867	movie	1		301.0	45.0	2.5	/experiments/knapen_aot/videos/S_yt-Ndwek2tpIOA_169.mp4	0.0	204.22777104377747	2.5083370208740234
47	142.6369800567627	fix_post	2		12.0	45.0	2.5	/experiments/knapen_aot/videos/S_yt-Ndwek2tpIOA_169.mp4	0.0	206.7361080646515	0.09995603561401367
48	142.7369360923767	fix_pre	0		35.0	46.0	2.5	/experiments/knapen_aot/videos/R_S_yt-KVB49z48sZU_55.mp4	0.0	206.8360641002655	0.2916748523712158
48	143.02035307884216	response	0	2		46.0	2.5	/experiments/knapen_aot/videos/R_S_yt-KVB49z48sZU_55.mp4	0.0	207.11948108673096	
48	143.02861094474792	movie	1		301.0	46.0	2.5	/experiments/knapen_aot/videos/R_S_yt-KVB49z48sZU_55.mp4	0.0	207.12773895263672	2.508261203765869
48	145.5368721485138	fix_post	2		12.0	46.0	2.5	/experiments/knapen_aot/videos/R_S_yt-KVB49z48sZU_55.mp4	0.0	209.6360001564026	0.10030293464660645
49	145.6371750831604	fix_pre	0		112.0	47.0	2.5	blank	1.0	209.7363030910492	0.9330399036407471
49	146.56201910972595	response	0	2		47.0	2.5	blank	1.0	210.66114711761475	
49	146.57021498680115	movie	1		301.0	47.0	2.5	blank	1.0	210.66934299468994	2.5083961486816406
49	149.0786111354828	fix_post	2		12.0	47.0	2.5	blank	1.0	213.17773914337158	0.1002049446105957
50	149.17881608009338	fix_pre	0		16.0	48.0	2.5	/experiments/knapen_aot/videos/R_S_ILSVRC2015_train_00594000.mp4	0.0	213.27794408798218	0.13305187225341797
50	149.30378794670105	response	0	2		48.0	2.5	/experiments/knapen_aot/videos/R_S_ILSVRC2015_train_00594000.mp4	0.0	213.40291595458984	
50	149.3118679523468	movie	1		301.0	48.0	2.5	/experiments/knapen_aot/videos/R_S_ILSVRC2015_train_00594000.mp4	0.0	213.4109959602356	2.5084149837493896
50	151.8202829360962	fix_post	2		12.0	48.0	2.5	/experiments/knapen_aot/videos/R_S_ILSVRC2015_train_00594000.mp4	0.0	215.91941094398499	0.09994912147521973
51	151.9202320575714	fix_pre	0		37.0	49.0	2.5	/experiments/knapen_aot/videos/R_S_wc-hmW1OnCPF_xn_37.mp4	0.0	216.0193600654602	0.3083009719848633
51	152.22039914131165	response	0	2		49.0	2.5	/experiments/knapen_aot/videos/R_S_wc-hmW1OnCPF_xn_37.mp4	0.0	216.31952714920044	
51	152.22853302955627	movie	1		169.0	49.0	2.5	/experiments/knapen_aot/videos/R_S_wc-hmW1OnCPF_xn_37.mp4	0.0	216.32766103744507	2.5083439350128174
51	154.7368769645691	fix_post	2		12.0	49.0	2.5	/experiments/knapen_aot/videos/R_S_wc-hmW1OnCPF_xn_37.mp4	0.0	218.83600497245789	0.10002613067626953
52	154.83690309524536	fix_pre	0		29.0	50.0	2.5	/experiments/knapen_aot/videos/R_S_yt-kawmL3oVw8c_2.mp4	0.0	218.93603110313416	0.24164199829101562
52	155.07028603553772	response	0	2		50.0	2.5	/experiments/knapen_aot/videos/R_S_yt-kawmL3oVw8c_2.mp4	0.0	219.1694140434265	
52	155.07854509353638	movie	1		301.0	50.0	2.5	/experiments/knapen_aot/videos/R_S_yt-kawmL3oVw8c_2.mp4	0.0	219.17767310142517	2.508389949798584
52	157.58693504333496	fix_post	2		12.0	50.0	2.5	/experiments/knapen_aot/videos/R_S_yt-kawmL3oVw8c_2.mp4	0.0	221.68606305122375	0.09999895095825195
53	157.6869339942932	fix_pre	0		37.0	51.0	2.5	/experiments/knapen_aot/videos/S_production_ID_4325516.mp4	0.0	221.786062002182	0.3083310127258301
53	157.97947311401367	response	0	2		51.0	2.5	/experiments/knapen_aot/videos/S_production_ID_4325516.mp4	0.0	222.07860112190247	
53	157.99526500701904	movie	1		212.0	51.0	2.5	/experiments/knapen_aot/videos/S_production_ID_4325516.mp4	0.0	222.09439301490784	2.50826096534729
53	160.50352597236633	fix_post	2		12.0	51.0	2.5	/experiments/knapen_aot/videos/S_production_ID_4325516.mp4	0.0	224.60265398025513	0.0999460220336914
54	160.60347199440002	fix_pre	0		106.0	52.0	2.5	/experiments/knapen_aot/videos/S_yt-7XDVHp75fu4_93.mp4	0.0	224.70260000228882	0.8833699226379395
54	161.47118306159973	response	0	2		52.0	2.5	/experiments/knapen_aot/videos/S_yt-7XDVHp75fu4_93.mp4	0.0	225.57031106948853	
54	161.48684191703796	movie	1		301.0	52.0	2.5	/experiments/knapen_aot/videos/S_yt-7XDVHp75fu4_93.mp4	0.0	225.58596992492676	2.5083701610565186
54	163.99521207809448	fix_post	2		12.0	52.0	2.5	/experiments/knapen_aot/videos/S_yt-7XDVHp75fu4_93.mp4	0.0	228.09434008598328	0.10012006759643555
55	164.09533214569092	fix_pre	0		41.0	53.0	2.5	/experiments/knapen_aot/videos/R_S_zAKvYNtmhuc_772.mp4	0.0	228.1944601535797	0.3414919376373291
55	164.42864203453064	response	0	2		53.0	2.5	/experiments/knapen_aot/videos/R_S_zAKvYNtmhuc_772.mp4	0.0	228.52777004241943	
55	164.43682408332825	movie	1		301.0	53.0	2.5	/experiments/knapen_aot/videos/R_S_zAKvYNtmhuc_772.mp4	0.0	228.53595209121704	2.5083789825439453
55	166.9452030658722	fix_post	2		12.0	53.0	2.5	/experiments/knapen_aot/videos/R_S_zAKvYNtmhuc_772.mp4	0.0	231.044331073761	0.10001993179321289
56	167.0452229976654	fix_pre	0		24.0	54.0	2.5	/experiments/knapen_aot/videos/R_S_yt--vHa85DHvLU_31.mp4	0.0	231.1443510055542	0.1999499797821045
56	167.2368769645691	response	0	2		54.0	2.5	/experiments/knapen_aot/videos/R_S_yt--vHa85DHvLU_31.mp4	0.0	231.33600497245789	
56	167.2451729774475	movie	1		301.0	54.0	2.5	/experiments/knapen_aot/videos/R_S_yt--vHa85DHvLU_31.mp4	0.0	231.3443009853363	2.5083370208740234
56	169.75350999832153	fix_post	2		12.0	54.0	2.5	/experiments/knapen_aot/videos/R_S_yt--vHa85DHvLU_31.mp4	0.0	233.85263800621033	0.09993910789489746
57	169.85344910621643	fix_pre	0		75.0	55.0	2.5	/experiments/knapen_aot/videos/S_59eT4XDXNno_25.mp4	0.0	233.95257711410522	0.6249969005584717
57	170.47032809257507	response	0	2		55.0	2.5	/experiments/knapen_aot/videos/S_59eT4XDXNno_25.mp4	0.0	234.56945610046387	
57	170.4784460067749	movie	1		300.0	55.0	2.5	/experiments/knapen_aot/videos/S_59eT4XDXNno_25.mp4	0.0	234.5775740146637	2.50827693939209
57	172.986722946167	fix_post	2		12.0	55.0	2.5	/experiments/knapen_aot/videos/S_59eT4XDXNno_25.mp4	0.0	237.0858509540558	0.10009503364562988
58	173.08681797981262	fix_pre	0		60.0	56.0	2.5	blank	1.0	237.18594598770142	0.5000009536743164
58	173.5786349773407	response	0	2		56.0	2.5	blank	1.0	237.6777629852295	
58	173.58681893348694	movie	1		301.0	56.0	2.5	blank	1.0	237.68594694137573	2.5084331035614014
58	176.09525203704834	fix_post	2		12.0	56.0	2.5	blank	1.0	240.19438004493713	0.09985089302062988
59	176.19510293006897	fix_pre	0		21.0	57.0	2.5	/experiments/knapen_aot/videos/S_yt-t-wpKypNysg_27.mp4	0.0	240.29423093795776	0.17507004737854004
59	176.36190700531006	response	0	2		57.0	2.5	/experiments/knapen_aot/videos/S_yt-t-wpKypNysg_27.mp4	0.0	240.46103501319885	
59	176.3701729774475	movie	1		301.0	57.0	2.5	/experiments/knapen_aot/videos/S_yt-t-wpKypNysg_27.mp4	0.0	240.4693009853363	2.508310079574585
59	178.8784830570221	fix_post	2		12.0	57.0	2.5	/experiments/knapen_aot/videos/S_yt-t-wpKypNysg_27.mp4	0.0	242.9776110649109	0.09996294975280762
60	178.9784460067749	fix_pre	0		77.0	58.0	2.5	/experiments/knapen_aot/videos/S_yt-y6zr69M0yHI_76.mp4	0.0	243.0775740146637	0.6416571140289307
60	179.6119430065155	response	0	2		58.0	2.5	/experiments/knapen_aot/videos/S_yt-y6zr69M0yHI_76.mp4	0.0	243.7110710144043	
60	179.62010312080383	movie	1		301.0	58.0	2.5	/experiments/knapen_aot/videos/S_yt-y6zr69M0yHI_76.mp4	0.0	243.71923112869263	2.508307933807373
60	182.1284110546112	fix_post	2		12.0	58.0	2.5	/experiments/knapen_aot/videos/S_yt-y6zr69M0yHI_76.mp4	0.0	246.2275390625	0.10002899169921875
61	182.22844004631042	fix_pre	0		29.0	59.0	2.5	/experiments/knapen_aot/videos/S_zAKvYNtmhuc_772.mp4	0.0	246.32756805419922	0.2418820858001709
61	182.45436692237854	response	0	2		59.0	2.5	/experiments/knapen_aot/videos/S_zAKvYNtmhuc_772.mp4	0.0	246.55349493026733	
61	182.4703221321106	movie	1		301.0	59.0	2.5	/experiments/knapen_aot/videos/S_zAKvYNtmhuc_772.mp4	0.0	246.5694501399994	2.5081470012664795
61	184.97846913337708	fix_post	2		12.0	59.0	2.5	/experiments/knapen_aot/videos/S_zAKvYNtmhuc_772.mp4	0.0	249.07759714126587	0.09992480278015137
62	185.07839393615723	fix_pre	0		87.0	60.0	2.5	/experiments/knapen_aot/videos/R_S_comp_GMT329_113NC_396B_1105_ITALY_v03_SDR_FINAL_20180706_SDR_2K_AVC.mp4	0.0	249.17752194404602	0.7251222133636475
62	185.7952160835266	response	0	2		60.0	2.5	/experiments/knapen_aot/videos/R_S_comp_GMT329_113NC_396B_1105_ITALY_v03_SDR_FINAL_20180706_SDR_2K_AVC.mp4	0.0	249.8943440914154	
62	185.80351614952087	movie	1		165.0	60.0	2.5	/experiments/knapen_aot/videos/R_S_comp_GMT329_113NC_396B_1105_ITALY_v03_SDR_FINAL_20180706_SDR_2K_AVC.mp4	0.0	249.90264415740967	2.5082709789276123
62	188.3117871284485	fix_post	2		12.0	60.0	2.5	/experiments/knapen_aot/videos/R_S_comp_GMT329_113NC_396B_1105_ITALY_v03_SDR_FINAL_20180706_SDR_2K_AVC.mp4	0.0	252.41091513633728	0.09997081756591797
63	188.4117579460144	fix_pre	0		25.0	61.0	2.5	/experiments/knapen_aot/videos/S_production_ID_4325516.mp4	0.0	252.5108859539032	0.20828700065612793
63	188.61189794540405	response	0	2		61.0	2.5	/experiments/knapen_aot/videos/S_production_ID_4325516.mp4	0.0	252.71102595329285	
63	188.62004494667053	movie	1		202.0	61.0	2.5	/experiments/knapen_aot/videos/S_production_ID_4325516.mp4	0.0	252.71917295455933	2.5083110332489014
63	191.12835597991943	fix_post	2		12.0	61.0	2.5	/experiments/knapen_aot/videos/S_production_ID_4325516.mp4	0.0	255.22748398780823	0.10005807876586914
64	191.2284140586853	fix_pre	0		42.0	62.0	2.5	/experiments/knapen_aot/videos/R_S_yt-XA6RBioito4_18.mp4	0.0	255.3275420665741	0.3499789237976074
64	191.57023406028748	response	0	2		62.0	2.5	/experiments/knapen_aot/videos/R_S_yt-XA6RBioito4_18.mp4	0.0	255.66936206817627	
64	191.5783929824829	movie	1		301.0	62.0	2.5	/experiments/knapen_aot/videos/R_S_yt-XA6RBioito4_18.mp4	0.0	255.6775209903717	2.5082950592041016
64	194.086688041687	fix_post	2		12.0	62.0	2.5	/experiments/knapen_aot/videos/R_S_yt-XA6RBioito4_18.mp4	0.0	258.1858160495758	0.1000208854675293
65	194.18670892715454	fix_pre	0		11.0	63.0	2.5	blank	1.0	258.28583693504333	0.09166908264160156
65	194.2701930999756	response	0	2		63.0	2.5	blank	1.0	258.3693211078644	
65	194.27837800979614	movie	1		301.0	63.0	2.5	blank	1.0	258.37750601768494	2.5083041191101074
65	196.78668212890625	fix_post	2		12.0	63.0	2.5	blank	1.0	260.88581013679504	0.10006189346313477
66	196.88674402236938	fix_pre	0		32.0	64.0	2.5	/experiments/knapen_aot/videos/S_yt-xNKgc8sFYvU_35.mp4	0.0	260.9858720302582	0.2665879726409912
66	197.1451690196991	response	0	2		64.0	2.5	/experiments/knapen_aot/videos/S_yt-xNKgc8sFYvU_35.mp4	0.0	261.2442970275879	
66	197.15333199501038	movie	1		301.0	64.0	2.5	/experiments/knapen_aot/videos/S_yt-xNKgc8sFYvU_35.mp4	0.0	261.25246000289917	2.5084140300750732
66	199.66174602508545	fix_post	2		12.0	64.0	2.5	/experiments/knapen_aot/videos/S_yt-xNKgc8sFYvU_35.mp4	0.0	263.76087403297424	0.09996199607849121
67	199.76170802116394	fix_pre	0		46.0	65.0	2.5	/experiments/knapen_aot/videos/R_S_yt-Z0nfPTEEOLo_85.mp4	0.0	263.86083602905273	0.38332104682922363
67	200.13685512542725	response	0	2		65.0	2.5	/experiments/knapen_aot/videos/R_S_yt-Z0nfPTEEOLo_85.mp4	0.0	264.23598313331604	
67	200.14502906799316	movie	1		301.0	65.0	2.5	/experiments/knapen_aot/videos/R_S_yt-Z0nfPTEEOLo_85.mp4	0.0	264.24415707588196	2.5083439350128174
67	202.65337300300598	fix_post	2		12.0	65.0	2.5	/experiments/knapen_aot/videos/R_S_yt-Z0nfPTEEOLo_85.mp4	0.0	266.7525010108948	0.0999751091003418
68	202.75334811210632	fix_pre	0		93.0	66.0	2.5	/experiments/knapen_aot/videos/S_yt-D_f3_HIXG2g_87.mp4	0.0	266.8524761199951	0.7749710083007812
68	203.5201759338379	response	0	2		66.0	2.5	/experiments/knapen_aot/videos/S_yt-D_f3_HIXG2g_87.mp4	0.0	267.6193039417267	
68	203.5283191204071	movie	1		301.0	66.0	2.5	/experiments/knapen_aot/videos/S_yt-D_f3_HIXG2g_87.mp4	0.0	267.6274471282959	2.508349895477295
68	206.0366690158844	fix_post	2		12.0	66.0	2.5	/experiments/knapen_aot/videos/S_yt-D_f3_HIXG2g_87.mp4	0.0	270.1357970237732	0.10005307197570801
69	206.1367220878601	fix_pre	0		30.0	67.0	2.5	/experiments/knapen_aot/videos/R_S_yt-1uk2k3PnTNw_37.0.mp4	0.0	270.2358500957489	0.2498788833618164
69	206.37846398353577	response	0	2		67.0	2.5	/experiments/knapen_aot/videos/R_S_yt-1uk2k3PnTNw_37.0.mp4	0.0	270.47759199142456	
69	206.38660097122192	movie	1		301.0	67.0	2.5	/experiments/knapen_aot/videos/R_S_yt-1uk2k3PnTNw_37.0.mp4	0.0	270.4857289791107	2.50832200050354
69	208.89492297172546	fix_post	2		12.0	67.0	2.5	/experiments/knapen_aot/videos/R_S_yt-1uk2k3PnTNw_37.0.mp4	0.0	272.99405097961426	0.10008001327514648
70	208.9950029850006	fix_pre	0		22.0	68.0	2.5	blank	1.0	273.0941309928894	0.18329906463623047
70	209.170068025589	response	0	2		68.0	2.5	blank	1.0	273.2691960334778	
70	209.17830204963684	movie	1		301.0	68.0	2.5	blank	1.0	273.27743005752563	2.508373975753784
70	211.68667602539062	fix_post	2		12.0	68.0	2.5	blank	1.0	275.7858040332794	0.10004901885986328
71	211.7867250442505	fix_pre	0		22.0	69.0	2.5	/experiments/knapen_aot/videos/R_S_yt-XA6RBioito4_18.mp4	0.0	275.8858530521393	0.18321800231933594
71	211.9617519378662	response	0	2		69.0	2.5	/experiments/knapen_aot/videos/R_S_yt-XA6RBioito4_18.mp4	0.0	276.060879945755	
71	211.96994304656982	movie	1		301.0	69.0	2.5	/experiments/knapen_aot/videos/R_S_yt-XA6RBioito4_18.mp4	0.0	276.0690710544586	2.5083630084991455
71	214.47830605506897	fix_post	2		12.0	69.0	2.5	/experiments/knapen_aot/videos/R_S_yt-XA6RBioito4_18.mp4	0.0	278.57743406295776	0.09999489784240723
72	214.57830095291138	fix_pre	0		25.0	70.0	2.5	/experiments/knapen_aot/videos/S_yt-VJ65ukWmdxQ_193.mp4	0.0	278.67742896080017	0.20830202102661133
72	214.77840614318848	response	0	2		70.0	2.5	/experiments/knapen_aot/videos/S_yt-VJ65ukWmdxQ_193.mp4	0.0	278.87753415107727	
72	214.786602973938	movie	1		301.0	70.0	2.5	/experiments/knapen_aot/videos/S_yt-VJ65ukWmdxQ_193.mp4	0.0	278.8857309818268	2.5083980560302734
72	217.29500102996826	fix_post	2		12.0	70.0	2.5	/experiments/knapen_aot/videos/S_yt-VJ65ukWmdxQ_193.mp4	0.0	281.39412903785706	0.09992408752441406
73	217.39492511749268	fix_pre	0		36.0	71.0	2.5	/experiments/knapen_aot/videos/S_yt-SyePE8wOlxs_321.mp4	0.0	281.49405312538147	0.3000679016113281
73	217.6868691444397	response	0	2		71.0	2.5	/experiments/knapen_aot/videos/S_yt-SyePE8wOlxs_321.mp4	0.0	281.7859971523285	
73	217.694993019104	movie	1		301.0	71.0	2.5	/experiments/knapen_aot/videos/S_yt-SyePE8wOlxs_321.mp4	0.0	281.7941210269928	2.5082919597625732
73	220.20328497886658	fix_post	2		11.0	71.0	2.5	/experiments/knapen_aot/videos/S_yt-SyePE8wOlxs_321.mp4	0.0	284.30241298675537	0.10010695457458496
74	220.30339193344116	fix_pre	0		23.0	72.0	2.5	/experiments/knapen_aot/videos/R_S_yt-Xs-YKSogfak_24.mp4	0.0	284.40251994132996	0.1915760040283203
74	220.486741065979	response	0	2		72.0	2.5	/experiments/knapen_aot/videos/R_S_yt-Xs-YKSogfak_24.mp4	0.0	284.5858690738678	
74	220.49496793746948	movie	1		301.0	72.0	2.5	/experiments/knapen_aot/videos/R_S_yt-Xs-YKSogfak_24.mp4	0.0	284.5940959453583	2.5082499980926514
74	223.00321793556213	fix_post	2		12.0	72.0	2.5	/experiments/knapen_aot/videos/R_S_yt-Xs-YKSogfak_24.mp4	0.0	287.1023459434509	0.1000680923461914
75	223.10328602790833	fix_pre	0		117.0	73.0	2.5	/experiments/knapen_aot/videos/R_S_yt-IX6uxR5DSKk_2.mp4	0.0	287.2024140357971	0.9749670028686523
75	224.07012104988098	response	0	2		73.0	2.5	/experiments/knapen_aot/videos/R_S_yt-IX6uxR5DSKk_2.mp4	0.0	288.1692490577698	
75	224.07825303077698	movie	1		301.0	73.0	2.5	/experiments/knapen_aot/videos/R_S_yt-IX6uxR5DSKk_2.mp4	0.0	288.17738103866577	2.50832200050354
75	226.58657503128052	fix_post	2		12.0	73.0	2.5	/experiments/knapen_aot/videos/R_S_yt-IX6uxR5DSKk_2.mp4	0.0	290.6857030391693	0.0999600887298584
76	226.68653512001038	fix_pre	0		35.0	74.0	2.5	/experiments/knapen_aot/videos/R_S_yt-rPYBHkUEwwc_10.mp4	0.0	290.78566312789917	0.2916238307952881
76	226.97004294395447	response	0	2		74.0	2.5	/experiments/knapen_aot/videos/R_S_yt-rPYBHkUEwwc_10.mp4	0.0	291.06917095184326	
76	226.97815895080566	movie	1		301.0	74.0	2.5	/experiments/knapen_aot/videos/R_S_yt-rPYBHkUEwwc_10.mp4	0.0	291.07728695869446	2.508471965789795
76	229.48663091659546	fix_post	2		12.0	74.0	2.5	/experiments/knapen_aot/videos/R_S_yt-rPYBHkUEwwc_10.mp4	0.0	293.58575892448425	0.10002303123474121
77	229.5866539478302	fix_pre	0		98.0	75.0	2.5	blank	1.0	293.685781955719	0.8164830207824707
77	230.3950219154358	response	0	2		75.0	2.5	blank	1.0	294.4941499233246	
77	230.40313696861267	movie	1		301.0	75.0	2.5	blank	1.0	294.50226497650146	2.508427143096924
77	232.9115641117096	fix_post	2		12.0	75.0	2.5	blank	1.0	297.0106921195984	0.1000678539276123
78	233.0116319656372	fix_pre	0		29.0	76.0	2.5	/experiments/knapen_aot/videos/R_S_ILSVRC2015_train_00613000.mp4	0.0	297.110759973526	0.24283218383789062
78	233.24505805969238	response	0	2		76.0	2.5	/experiments/knapen_aot/videos/R_S_ILSVRC2015_train_00613000.mp4	0.0	297.3441860675812	
78	233.2544641494751	movie	1		301.0	76.0	2.5	/experiments/knapen_aot/videos/R_S_ILSVRC2015_train_00613000.mp4	0.0	297.3535921573639	2.5071377754211426
78	235.76160192489624	fix_post	2		12.0	76.0	2.5	/experiments/knapen_aot/videos/R_S_ILSVRC2015_train_00613000.mp4	0.0	299.86072993278503	0.09995508193969727
79	235.86155700683594	fix_pre	0		130.0	77.0	2.5	/experiments/knapen_aot/videos/R_S_yt-Pinnv3-3GFU_452.mp4	0.0	299.96068501472473	1.083367109298706
79	236.92917108535767	response	0	2		77.0	2.5	/experiments/knapen_aot/videos/R_S_yt-Pinnv3-3GFU_452.mp4	0.0	301.02829909324646	
79	236.94492411613464	movie	1		301.0	77.0	2.5	/experiments/knapen_aot/videos/R_S_yt-Pinnv3-3GFU_452.mp4	0.0	301.04405212402344	2.5083489418029785
79	239.45327305793762	fix_post	2		12.0	77.0	2.5	/experiments/knapen_aot/videos/R_S_yt-Pinnv3-3GFU_452.mp4	0.0	303.5524010658264	0.09995198249816895
80	239.5532250404358	fix_pre	0		139.0	78.0	2.5	/experiments/knapen_aot/videos/R_S_SE_A016_C009_SDR_20190717_SDR_2K_AVC.mp4	0.0	303.6523530483246	1.1594030857086182
80	240.70329904556274	response	0	2		78.0	2.5	/experiments/knapen_aot/videos/R_S_SE_A016_C009_SDR_20190717_SDR_2K_AVC.mp4	0.0	304.80242705345154	
80	240.7126281261444	movie	1		170.0	78.0	2.5	/experiments/knapen_aot/videos/R_S_SE_A016_C009_SDR_20190717_SDR_2K_AVC.mp4	0.0	304.8117561340332	2.507269859313965
80	243.21989798545837	fix_post	2		12.0	78.0	2.5	/experiments/knapen_aot/videos/R_S_SE_A016_C009_SDR_20190717_SDR_2K_AVC.mp4	0.0	307.31902599334717	0.10000014305114746
81	243.31989812850952	fix_pre	0		69.0	79.0	2.5	/experiments/knapen_aot/videos/R_S_pexels-laker-5793000.mp4	0.0	307.4190261363983	0.5749919414520264
81	243.8791959285736	response	0	2		79.0	2.5	/experiments/knapen_aot/videos/R_S_pexels-laker-5793000.mp4	0.0	307.9783239364624	
81	243.89489006996155	movie	1		167.0	79.0	2.5	/experiments/knapen_aot/videos/R_S_pexels-laker-5793000.mp4	0.0	307.99401807785034	2.508319854736328
81	246.40320992469788	fix_post	2		12.0	79.0	2.5	/experiments/knapen_aot/videos/R_S_pexels-laker-5793000.mp4	0.0	310.50233793258667	0.09991002082824707
82	246.50311994552612	fix_pre	0		105.0	80.0	2.5	/experiments/knapen_aot/videos/S_yt-26009GpQuUg_3.mp4	0.0	310.6022479534149	0.8761560916900635
82	247.36997413635254	response	0	2		80.0	2.5	/experiments/knapen_aot/videos/S_yt-26009GpQuUg_3.mp4	0.0	311.46910214424133	
82	247.3792760372162	movie	1		301.0	80.0	2.5	/experiments/knapen_aot/videos/S_yt-26009GpQuUg_3.mp4	0.0	311.478404045105	2.5072500705718994
82	249.8865261077881	fix_post	2		12.0	80.0	2.5	/experiments/knapen_aot/videos/S_yt-26009GpQuUg_3.mp4	0.0	313.9856541156769	0.09996294975280762
83	249.9864890575409	fix_pre	0		340.0	81.0	2.5	/experiments/knapen_aot/videos/S_ILSVRC2015_train_00278004.mp4	0.0	314.0856170654297	2.8332250118255615
83	252.81153106689453	response	0	2		81.0	2.5	/experiments/knapen_aot/videos/S_ILSVRC2015_train_00278004.mp4	0.0	316.9106590747833	
83	252.81971406936646	movie	1		298.0	81.0	2.5	/experiments/knapen_aot/videos/S_ILSVRC2015_train_00278004.mp4	0.0	316.91884207725525	2.508420944213867
83	255.32813501358032	fix_post	2		12.0	81.0	2.5	/experiments/knapen_aot/videos/S_ILSVRC2015_train_00278004.mp4	0.0	319.4272630214691	0.09998202323913574
84	255.42811703681946	fix_pre	0		46.0	82.0	2.5	/experiments/knapen_aot/videos/R_S_yt-TBY8F6UMnJQ_51.mp4	0.0	319.52724504470825	0.3833749294281006
84	255.79575300216675	response	0	2		82.0	2.5	/experiments/knapen_aot/videos/R_S_yt-TBY8F6UMnJQ_51.mp4	0.0	319.89488101005554	
84	255.81149196624756	movie	1		301.0	82.0	2.5	/experiments/knapen_aot/videos/R_S_yt-TBY8F6UMnJQ_51.mp4	0.0	319.91061997413635	2.5082950592041016
84	258.31978702545166	fix_post	2		12.0	82.0	2.5	/experiments/knapen_aot/videos/R_S_yt-TBY8F6UMnJQ_51.mp4	0.0	322.41891503334045	0.09999203681945801
85	258.4197790622711	fix_pre	0		116.0	83.0	2.5	blank	1.0	322.5189070701599	0.9666769504547119
85	259.37827801704407	response	0	2		83.0	2.5	blank	1.0	323.47740602493286	
85	259.38645601272583	movie	1		301.0	83.0	2.5	blank	1.0	323.4855840206146	2.5083320140838623
85	261.8947880268097	fix_post	2		12.0	83.0	2.5	blank	1.0	325.9939160346985	0.09998512268066406
87	261.99477314949036	stim	0		159.0					326.09390115737915	1.3249258995056152
87	262.2126030921936	response	0	2						326.3117311000824	
87	263.308984041214	response	0	space						327.4081120491028	
