trial_nr	onset	event_type	phase	response	nr_frames	movie_index	movie_duration	movie_file	blank	onset_abs	duration
0	0.1612839698791504	stim	0		97.0					95.68870496749878	0.8174710273742676
0	0.36937785148620605	response	0	escape						95.89679884910583	
0	0.9692800045013428	response	0	space						96.49670100212097	
1	0.978754997253418	stim	0		121.0					96.50617599487305	1.0071098804473877
1	1.9858648777008057	stim	1		120.0					97.51328587532043	1.000007152557373
2	2.9858720302581787	fix_pre	0		65.0	0.0	2.5	/experiments/knapen_aot/videos/R_S_yt-kxWtOXNIsRA_329.mp4	0.0	98.51329302787781	0.5416488647460938
2	3.5193288326263428	response	0	space		0.0	2.5	/experiments/knapen_aot/videos/R_S_yt-kxWtOXNIsRA_329.mp4	0.0	99.04674983024597	
2	3.5275208950042725	movie	1		298.0	0.0	2.5	/experiments/knapen_aot/videos/R_S_yt-kxWtOXNIsRA_329.mp4	0.0	99.0549418926239	2.508358955383301
2	6.035879850387573	fix_post	2		12.0	0.0	2.5	/experiments/knapen_aot/videos/R_S_yt-kxWtOXNIsRA_329.mp4	0.0	101.5633008480072	0.09994196891784668
3	6.13582181930542	fix_pre	0		312.0	1.0	2.5	/experiments/knapen_aot/videos/R_S_yt-uT4MXm0UBJM_64.mp4	0.0	101.66324281692505	2.5999770164489746
3	8.73124098777771	response	0	4		1.0	2.5	/experiments/knapen_aot/videos/R_S_yt-uT4MXm0UBJM_64.mp4	0.0	104.25866198539734	
3	8.735798835754395	movie	1		301.0	1.0	2.5	/experiments/knapen_aot/videos/R_S_yt-uT4MXm0UBJM_64.mp4	0.0	104.26321983337402	2.508606195449829
3	11.244405031204224	fix_post	2		12.0	1.0	2.5	/experiments/knapen_aot/videos/R_S_yt-uT4MXm0UBJM_64.mp4	0.0	106.77182602882385	0.09978795051574707
4	11.34419298171997	fix_pre	0		38.0	2.0	2.5	/experiments/knapen_aot/videos/R_S_yt-NQSCGMpo-p8_118.mp4	0.0	106.8716139793396	0.3166379928588867
4	11.652575969696045	response	0	4		2.0	2.5	/experiments/knapen_aot/videos/R_S_yt-NQSCGMpo-p8_118.mp4	0.0	107.17999696731567	
4	11.660830974578857	movie	1		301.0	2.0	2.5	/experiments/knapen_aot/videos/R_S_yt-NQSCGMpo-p8_118.mp4	0.0	107.18825197219849	2.50839900970459
4	14.169229984283447	fix_post	2		12.0	2.0	2.5	/experiments/knapen_aot/videos/R_S_yt-NQSCGMpo-p8_118.mp4	0.0	109.69665098190308	0.09998083114624023
5	14.269210815429688	fix_pre	0		94.0	3.0	2.5	/experiments/knapen_aot/videos/R_S_fHdEaNT0gA0_35.mp4	0.0	109.79663181304932	0.7832670211791992
5	15.044277906417847	response	0	4		3.0	2.5	/experiments/knapen_aot/videos/R_S_fHdEaNT0gA0_35.mp4	0.0	110.57169890403748	
5	15.052477836608887	movie	1		301.0	3.0	2.5	/experiments/knapen_aot/videos/R_S_fHdEaNT0gA0_35.mp4	0.0	110.57989883422852	2.5083529949188232
5	17.56083083152771	fix_post	2		12.0	3.0	2.5	/experiments/knapen_aot/videos/R_S_fHdEaNT0gA0_35.mp4	0.0	113.08825182914734	0.09999513626098633
6	17.660825967788696	fix_pre	0		51.0	4.0	2.5	/experiments/knapen_aot/videos/R_S_yt-Gam0NeyyG8w_22.mp4	0.0	113.18824696540833	0.4249238967895508
6	18.07764196395874	response	0	4		4.0	2.5	/experiments/knapen_aot/videos/R_S_yt-Gam0NeyyG8w_22.mp4	0.0	113.60506296157837	
6	18.085749864578247	movie	1		301.0	4.0	2.5	/experiments/knapen_aot/videos/R_S_yt-Gam0NeyyG8w_22.mp4	0.0	113.61317086219788	2.5084049701690674
6	20.594154834747314	fix_post	2		12.0	4.0	2.5	/experiments/knapen_aot/videos/R_S_yt-Gam0NeyyG8w_22.mp4	0.0	116.12157583236694	0.10005307197570801
7	20.694207906723022	fix_pre	0		121.0	5.0	2.5	/experiments/knapen_aot/videos/S_ILSVRC2015_train_00415003.mp4	0.0	116.22162890434265	1.0082390308380127
7	21.69420099258423	response	0	4		5.0	2.5	/experiments/knapen_aot/videos/S_ILSVRC2015_train_00415003.mp4	0.0	117.22162199020386	
7	21.702446937561035	movie	1		301.0	5.0	2.5	/experiments/knapen_aot/videos/S_ILSVRC2015_train_00415003.mp4	0.0	117.22986793518066	2.5083088874816895
7	24.210755825042725	fix_post	2		12.0	5.0	2.5	/experiments/knapen_aot/videos/S_ILSVRC2015_train_00415003.mp4	0.0	119.73817682266235	0.10001802444458008
8	24.310773849487305	fix_pre	0		211.0	6.0	2.5	blank	1.0	119.83819484710693	1.7583279609680176
8	26.060904026031494	response	0	4		6.0	2.5	blank	1.0	121.58832502365112	
8	26.069101810455322	movie	1		301.0	6.0	2.5	blank	1.0	121.59652280807495	2.508549213409424
8	28.577651023864746	fix_post	2		12.0	6.0	2.5	blank	1.0	124.10507202148438	0.09990787506103516
9	28.67755889892578	fix_pre	0		106.0	7.0	2.5	/experiments/knapen_aot/videos/S_yt-kNZUFy3cbjQ_9.mp4	0.0	124.20497989654541	0.8842201232910156
9	29.552621841430664	response	0	4		7.0	2.5	/experiments/knapen_aot/videos/S_yt-kNZUFy3cbjQ_9.mp4	0.0	125.0800428390503	
9	29.561779022216797	movie	1		301.0	7.0	2.5	/experiments/knapen_aot/videos/S_yt-kNZUFy3cbjQ_9.mp4	0.0	125.08920001983643	2.507368803024292
9	32.06914782524109	fix_post	2		12.0	7.0	2.5	/experiments/knapen_aot/videos/S_yt-kNZUFy3cbjQ_9.mp4	0.0	127.59656882286072	0.09997010231018066
10	32.16911792755127	fix_pre	0		30.0	8.0	2.5	/experiments/knapen_aot/videos/R_S_yt-iHmshS63rBc_329.mp4	0.0	127.6965389251709	0.24995994567871094
10	32.41089081764221	response	0	4		8.0	2.5	/experiments/knapen_aot/videos/R_S_yt-iHmshS63rBc_329.mp4	0.0	127.93831181526184	
10	32.41907787322998	movie	1		300.0	8.0	2.5	/experiments/knapen_aot/videos/R_S_yt-iHmshS63rBc_329.mp4	0.0	127.94649887084961	2.5083799362182617
10	34.92745780944824	fix_post	2		12.0	8.0	2.5	/experiments/knapen_aot/videos/R_S_yt-iHmshS63rBc_329.mp4	0.0	130.45487880706787	0.0999610424041748
11	35.02741885185242	fix_pre	0		120.0	9.0	2.5	/experiments/knapen_aot/videos/S_yt-TSSPDwAQLXs_158.mp4	0.0	130.55483984947205	0.9999551773071289
11	36.019285917282104	response	0	4		9.0	2.5	/experiments/knapen_aot/videos/S_yt-TSSPDwAQLXs_158.mp4	0.0	131.54670691490173	
11	36.027374029159546	movie	1		301.0	9.0	2.5	/experiments/knapen_aot/videos/S_yt-TSSPDwAQLXs_158.mp4	0.0	131.55479502677917	2.508577823638916
11	38.53595185279846	fix_post	2		12.0	9.0	2.5	/experiments/knapen_aot/videos/S_yt-TSSPDwAQLXs_158.mp4	0.0	134.0633728504181	0.09978914260864258
12	38.635740995407104	fix_pre	0		31.0	10.0	2.5	/experiments/knapen_aot/videos/R_S_yt-9NV8zv2Sdq4_30.mp4	0.0	134.16316199302673	0.2593119144439697
12	38.88586401939392	response	0	4		10.0	2.5	/experiments/knapen_aot/videos/R_S_yt-9NV8zv2Sdq4_30.mp4	0.0	134.41328501701355	
12	38.895052909851074	movie	1		301.0	10.0	2.5	/experiments/knapen_aot/videos/R_S_yt-9NV8zv2Sdq4_30.mp4	0.0	134.4224739074707	2.507469892501831
12	41.402522802352905	fix_post	2		12.0	10.0	2.5	/experiments/knapen_aot/videos/R_S_yt-9NV8zv2Sdq4_30.mp4	0.0	136.92994379997253	0.09976506233215332
13	41.50228786468506	fix_pre	0		127.0	11.0	2.5	/experiments/knapen_aot/videos/R_S_yt-dWF89kq2JIA_13.mp4	0.0	137.0297088623047	1.0593540668487549
13	42.55249881744385	response	0	4		11.0	2.5	/experiments/knapen_aot/videos/R_S_yt-dWF89kq2JIA_13.mp4	0.0	138.07991981506348	
13	42.56164193153381	movie	1		301.0	11.0	2.5	/experiments/knapen_aot/videos/R_S_yt-dWF89kq2JIA_13.mp4	0.0	138.08906292915344	2.5074000358581543
13	45.06904196739197	fix_post	2		12.0	11.0	2.5	/experiments/knapen_aot/videos/R_S_yt-dWF89kq2JIA_13.mp4	0.0	140.5964629650116	0.09999585151672363
14	45.16903781890869	fix_pre	0		53.0	12.0	2.5	blank	1.0	140.69645881652832	0.4416379928588867
14	45.602339029312134	response	0	4		12.0	2.5	blank	1.0	141.12976002693176	
14	45.61067581176758	movie	1		301.0	12.0	2.5	blank	1.0	141.1380968093872	2.5083320140838623
14	48.11900782585144	fix_post	2		12.0	12.0	2.5	blank	1.0	143.64642882347107	0.10831618309020996
15	48.22732400894165	fix_pre	0		26.0	13.0	2.5	/experiments/knapen_aot/videos/R_S_yt-Wr5pSPApQDw_235.mp4	0.0	143.75474500656128	0.21656298637390137
15	48.43573880195618	response	0	4		13.0	2.5	/experiments/knapen_aot/videos/R_S_yt-Wr5pSPApQDw_235.mp4	0.0	143.9631597995758	
15	48.44388699531555	movie	1		301.0	13.0	2.5	/experiments/knapen_aot/videos/R_S_yt-Wr5pSPApQDw_235.mp4	0.0	143.97130799293518	2.5083060264587402
15	50.95219302177429	fix_post	2		12.0	13.0	2.5	/experiments/knapen_aot/videos/R_S_yt-Wr5pSPApQDw_235.mp4	0.0	146.47961401939392	0.10004878044128418
16	51.052241802215576	fix_pre	0		121.0	14.0	2.5	/experiments/knapen_aot/videos/R_S_yt-O6FS0xnF0CU_106.mp4	0.0	146.5796627998352	1.0093131065368652
16	52.05242395401001	response	0	4		14.0	2.5	/experiments/knapen_aot/videos/R_S_yt-O6FS0xnF0CU_106.mp4	0.0	147.57984495162964	
16	52.06155490875244	movie	1		301.0	14.0	2.5	/experiments/knapen_aot/videos/R_S_yt-O6FS0xnF0CU_106.mp4	0.0	147.58897590637207	2.5073800086975098
16	54.56893491744995	fix_post	2		12.0	14.0	2.5	/experiments/knapen_aot/videos/R_S_yt-O6FS0xnF0CU_106.mp4	0.0	150.09635591506958	0.10001707077026367
17	54.668951988220215	fix_pre	0		34.0	15.0	2.5	/experiments/knapen_aot/videos/R_S_yt-9Q7SZR0mgMA_155.mp4	0.0	150.19637298583984	0.28327202796936035
17	54.94404602050781	response	0	4		15.0	2.5	/experiments/knapen_aot/videos/R_S_yt-9Q7SZR0mgMA_155.mp4	0.0	150.47146701812744	
17	54.952224016189575	movie	1		298.0	15.0	2.5	/experiments/knapen_aot/videos/R_S_yt-9Q7SZR0mgMA_155.mp4	0.0	150.4796450138092	2.508419990539551
17	57.460644006729126	fix_post	2		12.0	15.0	2.5	/experiments/knapen_aot/videos/R_S_yt-9Q7SZR0mgMA_155.mp4	0.0	152.98806500434875	0.10089302062988281
18	57.56153702735901	fix_pre	0		43.0	16.0	2.5	/experiments/knapen_aot/videos/S_comp_CH_C007_C004_PSNK_v02_SDR_PS_FINAL_20180709_SDR_2K_AVC.mp4	0.0	153.08895802497864	0.3573729991912842
18	57.91067695617676	response	0	4		16.0	2.5	/experiments/knapen_aot/videos/S_comp_CH_C007_C004_PSNK_v02_SDR_PS_FINAL_20180709_SDR_2K_AVC.mp4	0.0	153.4380979537964	
18	57.91891002655029	movie	1		169.0	16.0	2.5	/experiments/knapen_aot/videos/S_comp_CH_C007_C004_PSNK_v02_SDR_PS_FINAL_20180709_SDR_2K_AVC.mp4	0.0	153.44633102416992	2.5083768367767334
18	60.427286863327026	fix_post	2		12.0	16.0	2.5	/experiments/knapen_aot/videos/S_comp_CH_C007_C004_PSNK_v02_SDR_PS_FINAL_20180709_SDR_2K_AVC.mp4	0.0	155.95470786094666	0.09996795654296875
19	60.527254819869995	fix_pre	0		115.0	17.0	2.5	/experiments/knapen_aot/videos/R_S_yt-I2n2eo2zoZs_112.mp4	0.0	156.05467581748962	0.9582681655883789
19	61.469947814941406	response	0	4		17.0	2.5	/experiments/knapen_aot/videos/R_S_yt-I2n2eo2zoZs_112.mp4	0.0	156.99736881256104	
19	61.485522985458374	movie	1		301.0	17.0	2.5	/experiments/knapen_aot/videos/R_S_yt-I2n2eo2zoZs_112.mp4	0.0	157.012943983078	2.508375883102417
19	63.99389886856079	fix_post	2		12.0	17.0	2.5	/experiments/knapen_aot/videos/R_S_yt-I2n2eo2zoZs_112.mp4	0.0	159.52131986618042	0.10006213188171387
20	64.0939610004425	fix_pre	0		86.0	18.0	2.5	/experiments/knapen_aot/videos/S_yt-5ws2gxbcjs4_381.mp4	0.0	159.62138199806213	0.7249948978424072
20	64.80237698554993	response	0	4		18.0	2.5	/experiments/knapen_aot/videos/S_yt-5ws2gxbcjs4_381.mp4	0.0	160.32979798316956	
20	64.81895589828491	movie	1		300.0	18.0	2.5	/experiments/knapen_aot/videos/S_yt-5ws2gxbcjs4_381.mp4	0.0	160.34637689590454	2.499911069869995
20	67.31886696815491	fix_post	2		12.0	18.0	2.5	/experiments/knapen_aot/videos/S_yt-5ws2gxbcjs4_381.mp4	0.0	162.84628796577454	0.11068487167358398
21	67.42955183982849	fix_pre	0		25.0	19.0	2.5	/experiments/knapen_aot/videos/R_S_yt-BLmwmX-mni8_56.mp4	0.0	162.95697283744812	0.20598816871643066
21	67.62732791900635	response	0	4		19.0	2.5	/experiments/knapen_aot/videos/R_S_yt-BLmwmX-mni8_56.mp4	0.0	163.15474891662598	
21	67.63554000854492	movie	1		301.0	19.0	2.5	/experiments/knapen_aot/videos/R_S_yt-BLmwmX-mni8_56.mp4	0.0	163.16296100616455	2.508323907852173
21	70.1438639163971	fix_post	2		12.0	19.0	2.5	/experiments/knapen_aot/videos/R_S_yt-BLmwmX-mni8_56.mp4	0.0	165.67128491401672	0.10008907318115234
22	70.24395298957825	fix_pre	0		103.0	20.0	2.5	blank	1.0	165.77137398719788	0.858198881149292
22	71.08648991584778	response	0	4		20.0	2.5	blank	1.0	166.6139109134674	
22	71.10215187072754	movie	1		301.0	20.0	2.5	blank	1.0	166.62957286834717	2.5083560943603516
22	73.61050796508789	fix_post	2		12.0	20.0	2.5	blank	1.0	169.13792896270752	0.09994292259216309
23	73.71045088768005	fix_pre	0		32.0	21.0	2.5	/experiments/knapen_aot/videos/S_yt-Dwgpjoikt84_122.mp4	0.0	169.23787188529968	0.2675299644470215
23	73.96895790100098	response	0	4		21.0	2.5	/experiments/knapen_aot/videos/S_yt-Dwgpjoikt84_122.mp4	0.0	169.4963788986206	
23	73.97798085212708	movie	1		300.0	21.0	2.5	/experiments/knapen_aot/videos/S_yt-Dwgpjoikt84_122.mp4	0.0	169.5054018497467	2.5075371265411377
23	76.48551797866821	fix_post	2		12.0	21.0	2.5	/experiments/knapen_aot/videos/S_yt-Dwgpjoikt84_122.mp4	0.0	172.01293897628784	0.10004782676696777
24	76.58556580543518	fix_pre	0		22.0	22.0	2.5	/experiments/knapen_aot/videos/R_S_yt-25xuzTBhwPk_109.mp4	0.0	172.1129868030548	0.1840519905090332
24	76.76058602333069	response	0	4		22.0	2.5	/experiments/knapen_aot/videos/R_S_yt-25xuzTBhwPk_109.mp4	0.0	172.28800702095032	
24	76.76961779594421	movie	1		300.0	22.0	2.5	/experiments/knapen_aot/videos/R_S_yt-25xuzTBhwPk_109.mp4	0.0	172.29703879356384	2.5075700283050537
24	79.27718782424927	fix_post	2		12.0	22.0	2.5	/experiments/knapen_aot/videos/R_S_yt-25xuzTBhwPk_109.mp4	0.0	174.8046088218689	0.09999918937683105
25	79.3771870136261	fix_pre	0		127.0	23.0	2.5	/experiments/knapen_aot/videos/S_yt-y-boY803u9A_12.mp4	0.0	174.90460801124573	1.0590519905090332
25	80.42724895477295	response	0	4		23.0	2.5	/experiments/knapen_aot/videos/S_yt-y-boY803u9A_12.mp4	0.0	175.95466995239258	
25	80.43623900413513	movie	1		300.0	23.0	2.5	/experiments/knapen_aot/videos/S_yt-y-boY803u9A_12.mp4	0.0	175.96366000175476	2.5076467990875244
25	82.94388580322266	fix_post	2		12.0	23.0	2.5	/experiments/knapen_aot/videos/S_yt-y-boY803u9A_12.mp4	0.0	178.47130680084229	0.09992814064025879
26	83.04381394386292	fix_pre	0		43.0	24.0	2.5	/experiments/knapen_aot/videos/S_yt-AOP7QYQntPI_28.mp4	0.0	178.57123494148254	0.3582909107208252
26	83.3939208984375	response	0	4		24.0	2.5	/experiments/knapen_aot/videos/S_yt-AOP7QYQntPI_28.mp4	0.0	178.92134189605713	
26	83.40210485458374	movie	1		300.0	24.0	2.5	/experiments/knapen_aot/videos/S_yt-AOP7QYQntPI_28.mp4	0.0	178.92952585220337	2.508324146270752
26	85.91042900085449	fix_post	2		12.0	24.0	2.5	/experiments/knapen_aot/videos/S_yt-AOP7QYQntPI_28.mp4	0.0	181.43784999847412	0.10004997253417969
27	86.01047897338867	fix_pre	0		371.0	25.0	2.5	/experiments/knapen_aot/videos/R_S_wc-__wCAtivIDG3_93.mp4	0.0	181.5378999710083	3.0923869609832764
27	89.09384799003601	response	0	4		25.0	2.5	/experiments/knapen_aot/videos/R_S_wc-__wCAtivIDG3_93.mp4	0.0	184.62126898765564	
27	89.10286593437195	movie	1		164.0	25.0	2.5	/experiments/knapen_aot/videos/R_S_wc-__wCAtivIDG3_93.mp4	0.0	184.63028693199158	2.5076029300689697
27	91.61046886444092	fix_post	2		12.0	25.0	2.5	/experiments/knapen_aot/videos/R_S_wc-__wCAtivIDG3_93.mp4	0.0	187.13788986206055	0.09997797012329102
28	91.71044683456421	fix_pre	0		85.0	26.0	2.5	blank	1.0	187.23786783218384	0.7082681655883789
28	92.4105498790741	response	0	4		26.0	2.5	blank	1.0	187.93797087669373	
28	92.41871500015259	movie	1		301.0	26.0	2.5	blank	1.0	187.94613599777222	2.5083518028259277
28	94.92706680297852	fix_post	2		12.0	26.0	2.5	blank	1.0	190.45448780059814	0.100006103515625
29	95.02707290649414	fix_pre	0		39.0	27.0	2.5	/experiments/knapen_aot/videos/R_S_yt-zgimmOcW5Mc_127.mp4	0.0	190.55449390411377	0.3256208896636963
29	95.34383702278137	response	0	4		27.0	2.5	/experiments/knapen_aot/videos/R_S_yt-zgimmOcW5Mc_127.mp4	0.0	190.871258020401	
29	95.35269379615784	movie	1		301.0	27.0	2.5	/experiments/knapen_aot/videos/R_S_yt-zgimmOcW5Mc_127.mp4	0.0	190.88011479377747	2.5075721740722656
29	97.8602659702301	fix_post	2		12.0	27.0	2.5	/experiments/knapen_aot/videos/R_S_yt-zgimmOcW5Mc_127.mp4	0.0	193.38768696784973	0.10007286071777344
30	97.96033883094788	fix_pre	0		48.0	28.0	2.5	/experiments/knapen_aot/videos/R_S_yt-zpoIiHGRm5k_296.mp4	0.0	193.4877598285675	0.40000104904174805
30	98.35230779647827	response	0	4		28.0	2.5	/experiments/knapen_aot/videos/R_S_yt-zpoIiHGRm5k_296.mp4	0.0	193.8797287940979	
30	98.36033987998962	movie	1		299.0	28.0	2.5	/experiments/knapen_aot/videos/R_S_yt-zpoIiHGRm5k_296.mp4	0.0	193.88776087760925	2.508423089981079
30	100.8687629699707	fix_post	2		12.0	28.0	2.5	/experiments/knapen_aot/videos/R_S_yt-zpoIiHGRm5k_296.mp4	0.0	196.39618396759033	0.09996700286865234
31	100.96872997283936	fix_pre	0		154.0	29.0	2.5	/experiments/knapen_aot/videos/R_S_wc-PX_MIe5L43_3_16.mp4	0.0	196.49615097045898	1.2833318710327148
31	102.2438440322876	response	0	4		29.0	2.5	/experiments/knapen_aot/videos/R_S_wc-PX_MIe5L43_3_16.mp4	0.0	197.77126502990723	
31	102.25206184387207	movie	1		301.0	29.0	2.5	/experiments/knapen_aot/videos/R_S_wc-PX_MIe5L43_3_16.mp4	0.0	197.7794828414917	2.5084540843963623
31	104.76051592826843	fix_post	2		12.0	29.0	2.5	/experiments/knapen_aot/videos/R_S_wc-PX_MIe5L43_3_16.mp4	0.0	200.28793692588806	0.09981894493103027
32	104.86033487319946	fix_pre	0		51.0	30.0	2.5	/experiments/knapen_aot/videos/R_S_production_ID_4510622.mp4	0.0	200.3877558708191	0.42502713203430176
32	105.2772159576416	response	0	4		30.0	2.5	/experiments/knapen_aot/videos/R_S_production_ID_4510622.mp4	0.0	200.80463695526123	
32	105.28536200523376	movie	1		166.0	30.0	2.5	/experiments/knapen_aot/videos/R_S_production_ID_4510622.mp4	0.0	200.8127830028534	2.508220911026001
32	107.79358291625977	fix_post	2		12.0	30.0	2.5	/experiments/knapen_aot/videos/R_S_production_ID_4510622.mp4	0.0	203.3210039138794	0.10009002685546875
33	107.89367294311523	fix_pre	0		279.0	31.0	2.5	/experiments/knapen_aot/videos/R_S_yt-GytLOB9Qjro_76.mp4	0.0	203.42109394073486	2.324960947036743
33	110.21038389205933	response	0	4		31.0	2.5	/experiments/knapen_aot/videos/R_S_yt-GytLOB9Qjro_76.mp4	0.0	205.73780488967896	
33	110.21863389015198	movie	1		301.0	31.0	2.5	/experiments/knapen_aot/videos/R_S_yt-GytLOB9Qjro_76.mp4	0.0	205.7460548877716	2.5083060264587402
33	112.72693991661072	fix_post	2		12.0	31.0	2.5	/experiments/knapen_aot/videos/R_S_yt-GytLOB9Qjro_76.mp4	0.0	208.25436091423035	0.10002589225769043
34	112.82696580886841	fix_pre	0		248.0	32.0	2.5	/experiments/knapen_aot/videos/S_yt-uT4MXm0UBJM_64.mp4	0.0	208.35438680648804	2.0672030448913574
34	114.87789583206177	response	0	4		32.0	2.5	/experiments/knapen_aot/videos/S_yt-uT4MXm0UBJM_64.mp4	0.0	210.4053168296814	
34	114.89416885375977	movie	1		298.0	32.0	2.5	/experiments/knapen_aot/videos/S_yt-uT4MXm0UBJM_64.mp4	0.0	210.4215898513794	2.5077731609344482
34	117.40194201469421	fix_post	2		12.0	32.0	2.5	/experiments/knapen_aot/videos/S_yt-uT4MXm0UBJM_64.mp4	0.0	212.92936301231384	0.0999608039855957
35	117.50190281867981	fix_pre	0		388.0	33.0	2.5	/experiments/knapen_aot/videos/S_yt-7Ya-rGPO8cM_159.mp4	0.0	213.02932381629944	3.233262062072754
35	120.72701287269592	response	0	4		33.0	2.5	/experiments/knapen_aot/videos/S_yt-7Ya-rGPO8cM_159.mp4	0.0	216.25443387031555	
35	120.73516488075256	movie	1		301.0	33.0	2.5	/experiments/knapen_aot/videos/S_yt-7Ya-rGPO8cM_159.mp4	0.0	216.2625858783722	2.5083889961242676
35	123.24355387687683	fix_post	2		12.0	33.0	2.5	/experiments/knapen_aot/videos/S_yt-7Ya-rGPO8cM_159.mp4	0.0	218.77097487449646	0.10000801086425781
36	123.34356188774109	fix_pre	0		191.0	34.0	2.5	/experiments/knapen_aot/videos/R_S_comp_HK_H004_C008_PSNK_v19_SDR_PS_20180914_SDR_2K_AVC.mp4	0.0	218.87098288536072	1.5921790599822998
36	124.92695689201355	response	0	4		34.0	2.5	/experiments/knapen_aot/videos/R_S_comp_HK_H004_C008_PSNK_v19_SDR_PS_20180914_SDR_2K_AVC.mp4	0.0	220.45437788963318	
36	124.93574094772339	movie	1		165.0	34.0	2.5	/experiments/knapen_aot/videos/R_S_comp_HK_H004_C008_PSNK_v19_SDR_PS_20180914_SDR_2K_AVC.mp4	0.0	220.46316194534302	2.5078370571136475
36	127.44357800483704	fix_post	2		12.0	34.0	2.5	/experiments/knapen_aot/videos/R_S_comp_HK_H004_C008_PSNK_v19_SDR_PS_20180914_SDR_2K_AVC.mp4	0.0	222.97099900245667	0.0999917984008789
37	127.54356980323792	fix_pre	0		64.0	35.0	2.5	blank	1.0	223.07099080085754	0.5333130359649658
37	128.06868982315063	response	0	4		35.0	2.5	blank	1.0	223.59611082077026	
37	128.07688283920288	movie	1		301.0	35.0	2.5	blank	1.0	223.6043038368225	2.508327007293701
37	130.58520984649658	fix_post	2		12.0	35.0	2.5	blank	1.0	226.1126308441162	0.10063409805297852
38	130.68584394454956	fix_pre	0		251.0	36.0	2.5	/experiments/knapen_aot/videos/S_yt-y-boY803u9A_12.mp4	0.0	226.2132649421692	2.0910139083862305
38	132.76868295669556	response	0	4		36.0	2.5	/experiments/knapen_aot/videos/S_yt-y-boY803u9A_12.mp4	0.0	228.29610395431519	
38	132.7768578529358	movie	1		301.0	36.0	2.5	/experiments/knapen_aot/videos/S_yt-y-boY803u9A_12.mp4	0.0	228.30427885055542	2.5083210468292236
38	135.28517889976501	fix_post	2		12.0	36.0	2.5	/experiments/knapen_aot/videos/S_yt-y-boY803u9A_12.mp4	0.0	230.81259989738464	0.10001993179321289
39	135.38519883155823	fix_pre	0		37.0	37.0	2.5	/experiments/knapen_aot/videos/R_S_comp_A114_C001_0305OT_v10_SDR_FINAL_22062018_SDR_2K_AVC.mp4	0.0	230.91261982917786	0.3083031177520752
39	135.68530082702637	response	0	4		37.0	2.5	/experiments/knapen_aot/videos/R_S_comp_A114_C001_0305OT_v10_SDR_FINAL_22062018_SDR_2K_AVC.mp4	0.0	231.212721824646	
39	135.6935019493103	movie	1		168.0	37.0	2.5	/experiments/knapen_aot/videos/R_S_comp_A114_C001_0305OT_v10_SDR_FINAL_22062018_SDR_2K_AVC.mp4	0.0	231.22092294692993	2.508357048034668
39	138.20185899734497	fix_post	2		12.0	37.0	2.5	/experiments/knapen_aot/videos/R_S_comp_A114_C001_0305OT_v10_SDR_FINAL_22062018_SDR_2K_AVC.mp4	0.0	233.7292799949646	0.10004281997680664
40	138.30190181732178	fix_pre	0		44.0	38.0	2.5	/experiments/knapen_aot/videos/R_S_pexels-c-technical-6763571.mp4	0.0	233.8293228149414	0.3665790557861328
40	138.66031002998352	response	0	4		38.0	2.5	/experiments/knapen_aot/videos/R_S_pexels-c-technical-6763571.mp4	0.0	234.18773102760315	
40	138.6684808731079	movie	1		210.0	38.0	2.5	/experiments/knapen_aot/videos/R_S_pexels-c-technical-6763571.mp4	0.0	234.19590187072754	2.5083529949188232
40	141.17683386802673	fix_post	2		12.0	38.0	2.5	/experiments/knapen_aot/videos/R_S_pexels-c-technical-6763571.mp4	0.0	236.70425486564636	0.09996509552001953
41	141.27679896354675	fix_pre	0		101.0	39.0	2.5	/experiments/knapen_aot/videos/R_S_pexels-anastasia-shuraeva-601407_2.mp4	0.0	236.80421996116638	0.8415780067443848
41	142.11029386520386	response	0	4		39.0	2.5	/experiments/knapen_aot/videos/R_S_pexels-anastasia-shuraeva-601407_2.mp4	0.0	237.6377148628235	
41	142.11837697029114	movie	1		203.0	39.0	2.5	/experiments/knapen_aot/videos/R_S_pexels-anastasia-shuraeva-601407_2.mp4	0.0	237.64579796791077	2.50839900970459
41	144.62677597999573	fix_post	2		12.0	39.0	2.5	/experiments/knapen_aot/videos/R_S_pexels-anastasia-shuraeva-601407_2.mp4	0.0	240.15419697761536	0.10047698020935059
42	144.72725296020508	fix_pre	0		38.0	40.0	2.5	blank	1.0	240.2546739578247	0.3161890506744385
42	145.03519701957703	response	0	4		40.0	2.5	blank	1.0	240.56261801719666	
42	145.04344201087952	movie	1		301.0	40.0	2.5	blank	1.0	240.57086300849915	2.50833797454834
42	147.55177998542786	fix_post	2		12.0	40.0	2.5	blank	1.0	243.07920098304749	0.10003185272216797
43	147.65181183815002	fix_pre	0		37.0	41.0	2.5	/experiments/knapen_aot/videos/S_ILSVRC2015_train_00584001.mp4	0.0	243.17923283576965	0.3082561492919922
43	147.9444878101349	response	0	4		41.0	2.5	/experiments/knapen_aot/videos/S_ILSVRC2015_train_00584001.mp4	0.0	243.47190880775452	
43	147.96006798744202	movie	1		301.0	41.0	2.5	/experiments/knapen_aot/videos/S_ILSVRC2015_train_00584001.mp4	0.0	243.48748898506165	2.5083320140838623
43	150.46840000152588	fix_post	2		12.0	41.0	2.5	/experiments/knapen_aot/videos/S_ILSVRC2015_train_00584001.mp4	0.0	245.9958209991455	0.10620689392089844
44	150.57460689544678	fix_pre	0		59.0	42.0	2.5	/experiments/knapen_aot/videos/S_yt-Dj42sI_Z-kQ_38.mp4	0.0	246.1020278930664	0.4937160015106201
44	151.052747964859	response	0	4		42.0	2.5	/experiments/knapen_aot/videos/S_yt-Dj42sI_Z-kQ_38.mp4	0.0	246.58016896247864	
44	151.0683228969574	movie	1		301.0	42.0	2.5	/experiments/knapen_aot/videos/S_yt-Dj42sI_Z-kQ_38.mp4	0.0	246.59574389457703	2.5083839893341064
44	153.5767068862915	fix_post	2		12.0	42.0	2.5	/experiments/knapen_aot/videos/S_yt-Dj42sI_Z-kQ_38.mp4	0.0	249.10412788391113	0.10000014305114746
45	153.67670702934265	fix_pre	0		59.0	43.0	2.5	/experiments/knapen_aot/videos/R_S_ILSVRC2015_train_00682007.mp4	0.0	249.20412802696228	0.49163198471069336
45	154.16013503074646	response	0	4		43.0	2.5	/experiments/knapen_aot/videos/R_S_ILSVRC2015_train_00682007.mp4	0.0	249.6875560283661	
45	154.16833901405334	movie	1		301.0	43.0	2.5	/experiments/knapen_aot/videos/R_S_ILSVRC2015_train_00682007.mp4	0.0	249.69576001167297	2.5083398818969727
45	156.67667889595032	fix_post	2		12.0	43.0	2.5	/experiments/knapen_aot/videos/R_S_ILSVRC2015_train_00682007.mp4	0.0	252.20409989356995	0.10003304481506348
46	156.77671194076538	fix_pre	0		463.0	44.0	2.5	/experiments/knapen_aot/videos/R_S_fHdEaNT0gA0_35.mp4	0.0	252.304132938385	3.8582499027252197
46	160.6267638206482	response	0	4		44.0	2.5	/experiments/knapen_aot/videos/R_S_fHdEaNT0gA0_35.mp4	0.0	256.1541848182678	
46	160.6349618434906	movie	1		301.0	44.0	2.5	/experiments/knapen_aot/videos/R_S_fHdEaNT0gA0_35.mp4	0.0	256.16238284111023	2.5083200931549072
46	163.1432819366455	fix_post	2		12.0	44.0	2.5	/experiments/knapen_aot/videos/R_S_fHdEaNT0gA0_35.mp4	0.0	258.67070293426514	0.09998488426208496
47	163.2432668209076	fix_pre	0		34.0	45.0	2.5	/experiments/knapen_aot/videos/R_S_production_ID_4124475.mp4	0.0	258.7706878185272	0.2833280563354492
47	163.51845002174377	response	0	4		45.0	2.5	/experiments/knapen_aot/videos/R_S_production_ID_4124475.mp4	0.0	259.0458710193634	
47	163.52659487724304	movie	1		171.0	45.0	2.5	/experiments/knapen_aot/videos/R_S_production_ID_4124475.mp4	0.0	259.05401587486267	2.508301019668579
47	166.03489589691162	fix_post	2		12.0	45.0	2.5	/experiments/knapen_aot/videos/R_S_production_ID_4124475.mp4	0.0	261.56231689453125	0.10009407997131348
48	166.13498997688293	fix_pre	0		34.0	46.0	2.5	/experiments/knapen_aot/videos/S_yt-xSGPe0KemD4_384.mp4	0.0	261.66241097450256	0.2832648754119873
48	166.41010785102844	response	0	4		46.0	2.5	/experiments/knapen_aot/videos/S_yt-xSGPe0KemD4_384.mp4	0.0	261.93752884864807	
48	166.41825485229492	movie	1		301.0	46.0	2.5	/experiments/knapen_aot/videos/S_yt-xSGPe0KemD4_384.mp4	0.0	261.94567584991455	2.5083980560302734
48	168.9266529083252	fix_post	2		12.0	46.0	2.5	/experiments/knapen_aot/videos/S_yt-xSGPe0KemD4_384.mp4	0.0	264.4540739059448	0.10016107559204102
49	169.02681398391724	fix_pre	0		118.0	47.0	2.5	/experiments/knapen_aot/videos/S_pexels-cottonbro-10639398.mp4	0.0	264.55423498153687	0.9831390380859375
49	170.00182700157166	response	0	4		47.0	2.5	/experiments/knapen_aot/videos/S_pexels-cottonbro-10639398.mp4	0.0	265.5292479991913	
49	170.00995302200317	movie	1		184.0	47.0	2.5	/experiments/knapen_aot/videos/S_pexels-cottonbro-10639398.mp4	0.0	265.5373740196228	2.508251905441284
49	172.51820492744446	fix_post	2		12.0	47.0	2.5	/experiments/knapen_aot/videos/S_pexels-cottonbro-10639398.mp4	0.0	268.0456259250641	0.10003495216369629
50	172.61823987960815	fix_pre	0		124.0	48.0	2.5	blank	1.0	268.1456608772278	1.0333280563354492
50	173.63589096069336	response	0	4		48.0	2.5	blank	1.0	269.163311958313	
50	173.6515679359436	movie	1		301.0	48.0	2.5	blank	1.0	269.17898893356323	2.5083680152893066
50	176.1599359512329	fix_post	2		12.0	48.0	2.5	blank	1.0	271.68735694885254	0.10006403923034668
51	176.25999999046326	fix_pre	0		36.0	49.0	2.5	/experiments/knapen_aot/videos/R_S_yt-j-ifVbxZePQ_70.mp4	0.0	271.7874209880829	0.30016589164733887
51	176.55164980888367	response	0	4		49.0	2.5	/experiments/knapen_aot/videos/R_S_yt-j-ifVbxZePQ_70.mp4	0.0	272.0790708065033	
51	176.5601658821106	movie	1		301.0	49.0	2.5	/experiments/knapen_aot/videos/R_S_yt-j-ifVbxZePQ_70.mp4	0.0	272.0875868797302	2.5080270767211914
51	179.0681929588318	fix_post	2		12.0	49.0	2.5	/experiments/knapen_aot/videos/R_S_yt-j-ifVbxZePQ_70.mp4	0.0	274.5956139564514	0.10010194778442383
52	179.1682949066162	fix_pre	0		23.0	50.0	2.5	/experiments/knapen_aot/videos/R_S_ILSVRC2015_train_00067003.mp4	0.0	274.69571590423584	0.1915750503540039
52	179.35169196128845	response	0	4		50.0	2.5	/experiments/knapen_aot/videos/R_S_ILSVRC2015_train_00067003.mp4	0.0	274.8791129589081	
52	179.35986995697021	movie	1		301.0	50.0	2.5	/experiments/knapen_aot/videos/R_S_ILSVRC2015_train_00067003.mp4	0.0	274.88729095458984	2.508265972137451
52	181.86813592910767	fix_post	2		12.0	50.0	2.5	/experiments/knapen_aot/videos/R_S_ILSVRC2015_train_00067003.mp4	0.0	277.3955569267273	0.10022187232971191
53	181.96835780143738	fix_pre	0		106.0	51.0	2.5	/experiments/knapen_aot/videos/S_yt-MWX0EtpWIs8_286.mp4	0.0	277.495778799057	0.8834421634674072
53	182.84332489967346	response	0	4		51.0	2.5	/experiments/knapen_aot/videos/S_yt-MWX0EtpWIs8_286.mp4	0.0	278.3707458972931	
53	182.85179996490479	movie	1		301.0	51.0	2.5	/experiments/knapen_aot/videos/S_yt-MWX0EtpWIs8_286.mp4	0.0	278.3792209625244	2.5079760551452637
53	185.35977602005005	fix_post	2		12.0	51.0	2.5	/experiments/knapen_aot/videos/S_yt-MWX0EtpWIs8_286.mp4	0.0	280.8871970176697	0.10005998611450195
54	185.45983600616455	fix_pre	0		92.0	52.0	2.5	/experiments/knapen_aot/videos/R_S_BO_A014_C023_SDR_20190717_F240F3709_SDR_2K_AVC.mp4	0.0	280.9872570037842	0.7669010162353516
54	186.21831798553467	response	0	4		52.0	2.5	/experiments/knapen_aot/videos/R_S_BO_A014_C023_SDR_20190717_F240F3709_SDR_2K_AVC.mp4	0.0	281.7457389831543	
54	186.2267370223999	movie	1		165.0	52.0	2.5	/experiments/knapen_aot/videos/R_S_BO_A014_C023_SDR_20190717_F240F3709_SDR_2K_AVC.mp4	0.0	281.75415802001953	2.5081160068511963
54	188.7348530292511	fix_post	2		12.0	52.0	2.5	/experiments/knapen_aot/videos/R_S_BO_A014_C023_SDR_20190717_F240F3709_SDR_2K_AVC.mp4	0.0	284.2622740268707	0.10003399848937988
55	188.83488702774048	fix_pre	0		17.0	53.0	2.5	/experiments/knapen_aot/videos/R_S_yt-x7TqP8l4lCA_39.mp4	0.0	284.3623080253601	0.14183592796325684
55	188.96828699111938	response	0	4		53.0	2.5	/experiments/knapen_aot/videos/R_S_yt-x7TqP8l4lCA_39.mp4	0.0	284.495707988739	
55	188.97672295570374	movie	1		301.0	53.0	2.5	/experiments/knapen_aot/videos/R_S_yt-x7TqP8l4lCA_39.mp4	0.0	284.50414395332336	2.5080878734588623
55	191.4848108291626	fix_post	2		12.0	53.0	2.5	/experiments/knapen_aot/videos/R_S_yt-x7TqP8l4lCA_39.mp4	0.0	287.0122318267822	0.09990811347961426
56	191.5847189426422	fix_pre	0		45.0	54.0	2.5	/experiments/knapen_aot/videos/R_S_yt-lGQ3wMI5-Yg_140.mp4	0.0	287.11213994026184	0.37508201599121094
56	191.95155787467957	response	0	4		54.0	2.5	/experiments/knapen_aot/videos/R_S_yt-lGQ3wMI5-Yg_140.mp4	0.0	287.4789788722992	
56	191.95980095863342	movie	1		300.0	54.0	2.5	/experiments/knapen_aot/videos/R_S_yt-lGQ3wMI5-Yg_140.mp4	0.0	287.48722195625305	2.508370876312256
56	194.46817183494568	fix_post	2		12.0	54.0	2.5	/experiments/knapen_aot/videos/R_S_yt-lGQ3wMI5-Yg_140.mp4	0.0	289.9955928325653	0.09992814064025879
57	194.56809997558594	fix_pre	0		38.0	55.0	2.5	/experiments/knapen_aot/videos/S_yt-YLcmfyfIokU_64.mp4	0.0	290.09552097320557	0.3167150020599365
57	194.8765459060669	response	0	4		55.0	2.5	/experiments/knapen_aot/videos/S_yt-YLcmfyfIokU_64.mp4	0.0	290.4039669036865	
57	194.88481497764587	movie	1		301.0	55.0	2.5	/experiments/knapen_aot/videos/S_yt-YLcmfyfIokU_64.mp4	0.0	290.4122359752655	2.5085599422454834
57	197.39337491989136	fix_post	2		12.0	55.0	2.5	/experiments/knapen_aot/videos/S_yt-YLcmfyfIokU_64.mp4	0.0	292.920795917511	0.09978103637695312
58	197.4931559562683	fix_pre	0		186.0	56.0	2.5	blank	1.0	293.02057695388794	1.5499770641326904
58	199.03487300872803	response	0	4		56.0	2.5	blank	1.0	294.56229400634766	
58	199.043133020401	movie	1		301.0	56.0	2.5	blank	1.0	294.57055401802063	2.508307933807373
58	201.55144095420837	fix_post	2		12.0	56.0	2.5	blank	1.0	297.078861951828	0.10000896453857422
59	201.65144991874695	fix_pre	0		19.0	57.0	2.5	/experiments/knapen_aot/videos/S_yt-wz2opOBqClo_14.mp4	0.0	297.1788709163666	0.15847110748291016
59	201.79407286643982	response	0	4		57.0	2.5	/experiments/knapen_aot/videos/S_yt-wz2opOBqClo_14.mp4	0.0	297.32149386405945	
59	201.80992102622986	movie	1		301.0	57.0	2.5	/experiments/knapen_aot/videos/S_yt-wz2opOBqClo_14.mp4	0.0	297.3373420238495	2.5081048011779785
59	204.31802582740784	fix_post	2		12.0	57.0	2.5	/experiments/knapen_aot/videos/S_yt-wz2opOBqClo_14.mp4	0.0	299.84544682502747	0.10004019737243652
60	204.41806602478027	fix_pre	0		43.0	58.0	2.5	/experiments/knapen_aot/videos/S_yt-hOtj2y9VWrc_354.mp4	0.0	299.9454870223999	0.3582878112792969
60	204.76819896697998	response	0	4		58.0	2.5	/experiments/knapen_aot/videos/S_yt-hOtj2y9VWrc_354.mp4	0.0	300.2956199645996	
60	204.77635383605957	movie	1		300.0	58.0	2.5	/experiments/knapen_aot/videos/S_yt-hOtj2y9VWrc_354.mp4	0.0	300.3037748336792	2.508397102355957
60	207.28475093841553	fix_post	2		12.0	58.0	2.5	/experiments/knapen_aot/videos/S_yt-hOtj2y9VWrc_354.mp4	0.0	302.81217193603516	0.10004591941833496
61	207.38479685783386	fix_pre	0		158.0	59.0	2.5	/experiments/knapen_aot/videos/S_ILSVRC2015_train_00569007.mp4	0.0	302.9122178554535	1.3165571689605713
61	208.69326090812683	response	0	4		59.0	2.5	/experiments/knapen_aot/videos/S_ILSVRC2015_train_00569007.mp4	0.0	304.22068190574646	
61	208.70135402679443	movie	1		301.0	59.0	2.5	/experiments/knapen_aot/videos/S_ILSVRC2015_train_00569007.mp4	0.0	304.22877502441406	2.508366823196411
61	211.20972084999084	fix_post	2		12.0	59.0	2.5	/experiments/knapen_aot/videos/S_ILSVRC2015_train_00569007.mp4	0.0	306.7371418476105	0.10011601448059082
62	211.30983686447144	fix_pre	0		28.0	60.0	2.5	/experiments/knapen_aot/videos/S_production_ID_5144823.mp4	0.0	306.83725786209106	0.23317503929138184
62	211.53483390808105	response	0	4		60.0	2.5	/experiments/knapen_aot/videos/S_production_ID_5144823.mp4	0.0	307.0622549057007	
62	211.54301190376282	movie	1		166.0	60.0	2.5	/experiments/knapen_aot/videos/S_production_ID_5144823.mp4	0.0	307.07043290138245	2.5082650184631348
62	214.05127692222595	fix_post	2		12.0	60.0	2.5	/experiments/knapen_aot/videos/S_production_ID_5144823.mp4	0.0	309.5786979198456	0.10014891624450684
63	214.15142583847046	fix_pre	0		42.0	61.0	2.5	/experiments/knapen_aot/videos/R_S_ILSVRC2015_train_00515000.mp4	0.0	309.6788468360901	0.34995198249816895
63	214.4931149482727	response	0	4		61.0	2.5	/experiments/knapen_aot/videos/R_S_ILSVRC2015_train_00515000.mp4	0.0	310.02053594589233	
63	214.50137782096863	movie	1		301.0	61.0	2.5	/experiments/knapen_aot/videos/R_S_ILSVRC2015_train_00515000.mp4	0.0	310.02879881858826	2.5082809925079346
63	217.00965881347656	fix_post	2		12.0	61.0	2.5	/experiments/knapen_aot/videos/R_S_ILSVRC2015_train_00515000.mp4	0.0	312.5370798110962	0.10007405281066895
64	217.10973286628723	fix_pre	0		30.0	62.0	2.5	/experiments/knapen_aot/videos/R_S_yt-qF-69JWJX_Y_55.mp4	0.0	312.63715386390686	0.24995112419128418
64	217.35153794288635	response	0	4		62.0	2.5	/experiments/knapen_aot/videos/R_S_yt-qF-69JWJX_Y_55.mp4	0.0	312.878958940506	
64	217.35968399047852	movie	1		301.0	62.0	2.5	/experiments/knapen_aot/videos/R_S_yt-qF-69JWJX_Y_55.mp4	0.0	312.88710498809814	2.5083470344543457
64	219.86803102493286	fix_post	2		12.0	62.0	2.5	/experiments/knapen_aot/videos/R_S_yt-qF-69JWJX_Y_55.mp4	0.0	315.3954520225525	0.09997987747192383
65	219.96801090240479	fix_pre	0		182.0	63.0	2.5	blank	1.0	315.4954319000244	1.5166521072387695
65	221.476459980011	response	0	4		63.0	2.5	blank	1.0	317.0038809776306	
65	221.48466300964355	movie	1		301.0	63.0	2.5	blank	1.0	317.0120840072632	2.5083489418029785
65	223.99301195144653	fix_post	2		12.0	63.0	2.5	blank	1.0	319.52043294906616	0.10144400596618652
66	224.09445595741272	fix_pre	0		53.0	64.0	2.5	/experiments/knapen_aot/videos/S_video-7.mp4	0.0	319.62187695503235	0.440108060836792
66	224.52640199661255	response	0	4		64.0	2.5	/experiments/knapen_aot/videos/S_video-7.mp4	0.0	320.0538229942322	
66	224.5345640182495	movie	1		166.0	64.0	2.5	/experiments/knapen_aot/videos/S_video-7.mp4	0.0	320.06198501586914	2.50837779045105
66	227.04294180870056	fix_post	2		12.0	64.0	2.5	/experiments/knapen_aot/videos/S_video-7.mp4	0.0	322.5703628063202	0.10004520416259766
67	227.14298701286316	fix_pre	0		39.0	65.0	2.5	/experiments/knapen_aot/videos/R_S_yt-uSHBdUi8_V0_24.mp4	0.0	322.6704080104828	0.3249688148498535
67	227.45976281166077	response	0	4		65.0	2.5	/experiments/knapen_aot/videos/R_S_yt-uSHBdUi8_V0_24.mp4	0.0	322.9871838092804	
67	227.467955827713	movie	1		301.0	65.0	2.5	/experiments/knapen_aot/videos/R_S_yt-uSHBdUi8_V0_24.mp4	0.0	322.99537682533264	2.5083930492401123
67	229.97634887695312	fix_post	2		12.0	65.0	2.5	/experiments/knapen_aot/videos/R_S_yt-uSHBdUi8_V0_24.mp4	0.0	325.50376987457275	0.09992313385009766
68	230.07627201080322	fix_pre	0		31.0	66.0	2.5	/experiments/knapen_aot/videos/R_S_pexels-tima-miroshnichenko-8724308.mp4	0.0	325.60369300842285	0.2583119869232178
68	230.32641100883484	response	0	4		66.0	2.5	/experiments/knapen_aot/videos/R_S_pexels-tima-miroshnichenko-8724308.mp4	0.0	325.85383200645447	
68	230.33458399772644	movie	1		201.0	66.0	2.5	/experiments/knapen_aot/videos/R_S_pexels-tima-miroshnichenko-8724308.mp4	0.0	325.86200499534607	2.508401870727539
68	232.84298586845398	fix_post	2		12.0	66.0	2.5	/experiments/knapen_aot/videos/R_S_pexels-tima-miroshnichenko-8724308.mp4	0.0	328.3704068660736	0.1000051498413086
69	232.9429910182953	fix_pre	0		7.0	67.0	2.5	/experiments/knapen_aot/videos/R_S_yt-feTWuKPZA_k_34.mp4	0.0	328.4704120159149	0.05836987495422363
69	232.99323391914368	response	0	4		67.0	2.5	/experiments/knapen_aot/videos/R_S_yt-feTWuKPZA_k_34.mp4	0.0	328.5206549167633	
69	233.0013608932495	movie	1		301.0	67.0	2.5	/experiments/knapen_aot/videos/R_S_yt-feTWuKPZA_k_34.mp4	0.0	328.52878189086914	2.5082859992980957
69	235.5096468925476	fix_post	2		12.0	67.0	2.5	/experiments/knapen_aot/videos/R_S_yt-feTWuKPZA_k_34.mp4	0.0	331.03706789016724	0.10003304481506348
70	235.60967993736267	fix_pre	0		228.0	68.0	2.5	/experiments/knapen_aot/videos/R_S_yt-wIZprsJwxBM_298.mp4	0.0	331.1371009349823	1.8999319076538086
70	237.49390983581543	response	0	4		68.0	2.5	/experiments/knapen_aot/videos/R_S_yt-wIZprsJwxBM_298.mp4	0.0	333.02133083343506	
70	237.50961184501648	movie	1		301.0	68.0	2.5	/experiments/knapen_aot/videos/R_S_yt-wIZprsJwxBM_298.mp4	0.0	333.0370328426361	2.508341073989868
70	240.01795291900635	fix_post	2		12.0	68.0	2.5	/experiments/knapen_aot/videos/R_S_yt-wIZprsJwxBM_298.mp4	0.0	335.545373916626	0.09999394416809082
71	240.11794686317444	fix_pre	0		21.0	69.0	2.5	blank	1.0	335.64536786079407	0.17501497268676758
71	240.28473281860352	response	0	4		69.0	2.5	blank	1.0	335.81215381622314	
71	240.2929618358612	movie	1		301.0	69.0	2.5	blank	1.0	335.82038283348083	2.5083181858062744
71	242.80128002166748	fix_post	2		12.0	69.0	2.5	blank	1.0	338.3287010192871	0.10001397132873535
72	242.90129399299622	fix_pre	0		59.0	70.0	2.5	/experiments/knapen_aot/videos/R_S_yt-I2n2eo2zoZs_112.mp4	0.0	338.42871499061584	0.4916679859161377
72	243.38468194007874	response	0	4		70.0	2.5	/experiments/knapen_aot/videos/R_S_yt-I2n2eo2zoZs_112.mp4	0.0	338.91210293769836	
72	243.39296197891235	movie	1		301.0	70.0	2.5	/experiments/knapen_aot/videos/R_S_yt-I2n2eo2zoZs_112.mp4	0.0	338.920382976532	2.5082998275756836
72	245.90126180648804	fix_post	2		12.0	70.0	2.5	/experiments/knapen_aot/videos/R_S_yt-I2n2eo2zoZs_112.mp4	0.0	341.42868280410767	0.09995317459106445
73	246.0012149810791	fix_pre	0		22.0	71.0	2.5	/experiments/knapen_aot/videos/R_S_yt-oVrkSsEpuvk_118.mp4	0.0	341.52863597869873	0.18331694602966309
73	246.1763780117035	response	0	4		71.0	2.5	/experiments/knapen_aot/videos/R_S_yt-oVrkSsEpuvk_118.mp4	0.0	341.7037990093231	
73	246.18453192710876	movie	1		301.0	71.0	2.5	/experiments/knapen_aot/videos/R_S_yt-oVrkSsEpuvk_118.mp4	0.0	341.7119529247284	2.50833797454834
73	248.6928699016571	fix_post	2		12.0	71.0	2.5	/experiments/knapen_aot/videos/R_S_yt-oVrkSsEpuvk_118.mp4	0.0	344.22029089927673	0.09998703002929688
74	248.7928569316864	fix_pre	0		45.0	72.0	2.5	/experiments/knapen_aot/videos/R_S_pexels-cottonbro-6789231.mp4	0.0	344.32027792930603	0.3749699592590332
74	249.15964794158936	response	0	4		72.0	2.5	/experiments/knapen_aot/videos/R_S_pexels-cottonbro-6789231.mp4	0.0	344.687068939209	
74	249.16782689094543	movie	1		195.0	72.0	2.5	/experiments/knapen_aot/videos/R_S_pexels-cottonbro-6789231.mp4	0.0	344.69524788856506	2.508297920227051
74	251.67612481117249	fix_post	2		12.0	72.0	2.5	/experiments/knapen_aot/videos/R_S_pexels-cottonbro-6789231.mp4	0.0	347.2035458087921	0.10001921653747559
75	251.77614402770996	fix_pre	0		214.0	73.0	2.5	/experiments/knapen_aot/videos/R_S_yt-7VVzNnp36DM_62.mp4	0.0	347.3035650253296	1.7833127975463867
75	253.55123281478882	response	0	4		73.0	2.5	/experiments/knapen_aot/videos/R_S_yt-7VVzNnp36DM_62.mp4	0.0	349.07865381240845	
75	253.55945682525635	movie	1		301.0	73.0	2.5	/experiments/knapen_aot/videos/R_S_yt-7VVzNnp36DM_62.mp4	0.0	349.086877822876	2.508345127105713
75	256.06780195236206	fix_post	2		12.0	73.0	2.5	/experiments/knapen_aot/videos/R_S_yt-7VVzNnp36DM_62.mp4	0.0	351.5952229499817	0.10009884834289551
76	256.16790080070496	fix_pre	0		34.0	74.0	2.5	/experiments/knapen_aot/videos/R_S_ILSVRC2015_train_00074011.mp4	0.0	351.6953217983246	0.28322720527648926
76	256.44300389289856	response	0	4		74.0	2.5	/experiments/knapen_aot/videos/R_S_ILSVRC2015_train_00074011.mp4	0.0	351.9704248905182	
76	256.45112800598145	movie	1		301.0	74.0	2.5	/experiments/knapen_aot/videos/R_S_ILSVRC2015_train_00074011.mp4	0.0	351.9785490036011	2.5083608627319336
76	258.9594888687134	fix_post	2		12.0	74.0	2.5	/experiments/knapen_aot/videos/R_S_ILSVRC2015_train_00074011.mp4	0.0	354.486909866333	0.10001301765441895
77	259.0595018863678	fix_pre	0		45.0	75.0	2.5	/experiments/knapen_aot/videos/S_yt-hZxbKZ1WCVg_24.mp4	0.0	354.5869228839874	0.3749229907989502
77	259.4262578487396	response	0	4		75.0	2.5	/experiments/knapen_aot/videos/S_yt-hZxbKZ1WCVg_24.mp4	0.0	354.95367884635925	
77	259.43442487716675	movie	1		301.0	75.0	2.5	/experiments/knapen_aot/videos/S_yt-hZxbKZ1WCVg_24.mp4	0.0	354.9618458747864	2.508378028869629
77	261.9428029060364	fix_post	2		12.0	75.0	2.5	/experiments/knapen_aot/videos/S_yt-hZxbKZ1WCVg_24.mp4	0.0	357.470223903656	0.10015106201171875
78	262.0429539680481	fix_pre	0		68.0	76.0	2.5	blank	1.0	357.5703749656677	0.5664858818054199
78	262.60123085975647	response	0	4		76.0	2.5	blank	1.0	358.1286518573761	
78	262.6094398498535	movie	1		301.0	76.0	2.5	blank	1.0	358.13686084747314	2.508347988128662
78	265.1177878379822	fix_post	2		12.0	76.0	2.5	blank	1.0	360.6452088356018	0.0999290943145752
79	265.21771693229675	fix_pre	0		27.0	77.0	2.5	/experiments/knapen_aot/videos/R_S_yt-3roniRu6w58_10.mp4	0.0	360.7451379299164	0.2250349521636963
79	265.43459391593933	response	0	4		77.0	2.5	/experiments/knapen_aot/videos/R_S_yt-3roniRu6w58_10.mp4	0.0	360.96201491355896	
79	265.44275188446045	movie	1		301.0	77.0	2.5	/experiments/knapen_aot/videos/R_S_yt-3roniRu6w58_10.mp4	0.0	360.9701728820801	2.50838303565979
79	267.95113492012024	fix_post	2		12.0	77.0	2.5	/experiments/knapen_aot/videos/R_S_yt-3roniRu6w58_10.mp4	0.0	363.47855591773987	0.09994697570800781
80	268.05108189582825	fix_pre	0		42.0	78.0	2.5	/experiments/knapen_aot/videos/S_yt-kQpE9L-fsNE_55.mp4	0.0	363.5785028934479	0.3499569892883301
80	268.39292097091675	response	0	4		78.0	2.5	/experiments/knapen_aot/videos/S_yt-kQpE9L-fsNE_55.mp4	0.0	363.9203419685364	
80	268.4010388851166	movie	1		301.0	78.0	2.5	/experiments/knapen_aot/videos/S_yt-kQpE9L-fsNE_55.mp4	0.0	363.9284598827362	2.5084071159362793
80	270.90944600105286	fix_post	2		12.0	78.0	2.5	/experiments/knapen_aot/videos/S_yt-kQpE9L-fsNE_55.mp4	0.0	366.4368669986725	0.09988784790039062
81	271.00933384895325	fix_pre	0		76.0	79.0	2.5	/experiments/knapen_aot/videos/S_yt-PreGL81PEP4_61.mp4	0.0	366.5367548465729	0.6334130764007568
81	271.63452887535095	response	0	4		79.0	2.5	/experiments/knapen_aot/videos/S_yt-PreGL81PEP4_61.mp4	0.0	367.1619498729706	
81	271.642746925354	movie	1		301.0	79.0	2.5	/experiments/knapen_aot/videos/S_yt-PreGL81PEP4_61.mp4	0.0	367.17016792297363	2.5083069801330566
81	274.15105390548706	fix_post	2		12.0	79.0	2.5	/experiments/knapen_aot/videos/S_yt-PreGL81PEP4_61.mp4	0.0	369.6784749031067	0.10000205039978027
82	274.25105595588684	fix_pre	0		29.0	80.0	2.5	/experiments/knapen_aot/videos/R_S_wc-NzEeGIXLxvwp_19.mp4	0.0	369.77847695350647	0.24176692962646484
82	274.4845960140228	response	0	4		80.0	2.5	/experiments/knapen_aot/videos/R_S_wc-NzEeGIXLxvwp_19.mp4	0.0	370.01201701164246	
82	274.4928228855133	movie	1		162.0	80.0	2.5	/experiments/knapen_aot/videos/R_S_wc-NzEeGIXLxvwp_19.mp4	0.0	370.02024388313293	2.5082149505615234
82	277.00103783607483	fix_post	2		12.0	80.0	2.5	/experiments/knapen_aot/videos/R_S_wc-NzEeGIXLxvwp_19.mp4	0.0	372.52845883369446	0.10007214546203613
83	277.10110998153687	fix_pre	0		83.0	81.0	2.5	/experiments/knapen_aot/videos/R_S_pexels-tima-miroshnichenko-8724308.mp4	0.0	372.6285309791565	0.6916158199310303
83	277.784560918808	response	0	4		81.0	2.5	/experiments/knapen_aot/videos/R_S_pexels-tima-miroshnichenko-8724308.mp4	0.0	373.3119819164276	
83	277.7927258014679	movie	1		189.0	81.0	2.5	/experiments/knapen_aot/videos/R_S_pexels-tima-miroshnichenko-8724308.mp4	0.0	373.3201467990875	2.508249044418335
83	280.30097484588623	fix_post	2		12.0	81.0	2.5	/experiments/knapen_aot/videos/R_S_pexels-tima-miroshnichenko-8724308.mp4	0.0	375.82839584350586	0.1000831127166748
84	280.4010579586029	fix_pre	0		20.0	82.0	2.5	blank	1.0	375.92847895622253	0.16664385795593262
84	280.55947279930115	response	0	4		82.0	2.5	blank	1.0	376.0868937969208	
84	280.56770181655884	movie	1		301.0	82.0	2.5	blank	1.0	376.09512281417847	2.5083301067352295
84	283.07603192329407	fix_post	2		12.0	82.0	2.5	blank	1.0	378.6034529209137	0.09991097450256348
85	283.17594289779663	fix_pre	0		57.0	83.0	2.5	/experiments/knapen_aot/videos/S_yt-Dj42sI_Z-kQ_38.mp4	0.0	378.70336389541626	0.475024938583374
85	283.64279294013977	response	0	4		83.0	2.5	/experiments/knapen_aot/videos/S_yt-Dj42sI_Z-kQ_38.mp4	0.0	379.1702139377594	
85	283.65096783638	movie	1		301.0	83.0	2.5	/experiments/knapen_aot/videos/S_yt-Dj42sI_Z-kQ_38.mp4	0.0	379.17838883399963	2.5083580017089844
85	286.159325838089	fix_post	2		12.0	83.0	2.5	/experiments/knapen_aot/videos/S_yt-Dj42sI_Z-kQ_38.mp4	0.0	381.6867468357086	0.1000070571899414
87	286.25933289527893	stim	0		391.0					381.78675389289856	3.2582359313964844
87	286.4855799674988	response	0	4						382.0130009651184	
87	289.51359581947327	response	0	space						385.0410168170929	
