trial_nr	onset	event_type	phase	response	nr_frames	movie_index	movie_duration	movie_file	blank	onset_abs	duration
0	0.1231238842010498	stim	0		80.0					121.48331880569458	0.668565034866333
0	0.7816629409790039	response	0	space						122.14185786247253	
1	0.7916889190673828	stim	0		121.0					122.15188384056091	1.0061540603637695
1	1.7978429794311523	stim	1		120.0					123.15803790092468	0.9999918937683105
1	2.3480238914489746	response	1	space						123.7082188129425	
2	2.797834873199463	fix_pre	0		81.0	0.0	2.5	/experiments/knapen_aot/videos/S_yt-CZ2qiY-kS7Y_105.mp4	0.0	124.158029794693	0.6749560832977295
2	3.464676856994629	response	0	space		0.0	2.5	/experiments/knapen_aot/videos/S_yt-CZ2qiY-kS7Y_105.mp4	0.0	124.82487177848816	
2	3.4727909564971924	movie	1		300.0	0.0	2.5	/experiments/knapen_aot/videos/S_yt-CZ2qiY-kS7Y_105.mp4	0.0	124.83298587799072	2.5083229541778564
2	5.981113910675049	fix_post	2		12.0	0.0	2.5	/experiments/knapen_aot/videos/S_yt-CZ2qiY-kS7Y_105.mp4	0.0	127.34130883216858	0.1000509262084961
3	6.081164836883545	fix_pre	0		13.0	1.0	2.5	/experiments/knapen_aot/videos/S_yt-JPsTqfqfPIY_319.mp4	0.0	127.44135975837708	0.10831713676452637
3	6.182999849319458	response	0	2		1.0	2.5	/experiments/knapen_aot/videos/S_yt-JPsTqfqfPIY_319.mp4	0.0	127.54319477081299	
3	6.189481973648071	movie	1		301.0	1.0	2.5	/experiments/knapen_aot/videos/S_yt-JPsTqfqfPIY_319.mp4	0.0	127.5496768951416	2.508291006088257
3	8.697772979736328	fix_post	2		12.0	1.0	2.5	/experiments/knapen_aot/videos/S_yt-JPsTqfqfPIY_319.mp4	0.0	130.05796790122986	0.10010004043579102
4	8.79787302017212	fix_pre	0		6.0	2.0	2.5	/experiments/knapen_aot/videos/S_yt-ibDaDIEazxg_3.mp4	0.0	130.15806794166565	0.049932003021240234
4	8.832217931747437	response	0	2		2.0	2.5	/experiments/knapen_aot/videos/S_yt-ibDaDIEazxg_3.mp4	0.0	130.19241285324097	
4	8.84780502319336	movie	1		301.0	2.0	2.5	/experiments/knapen_aot/videos/S_yt-ibDaDIEazxg_3.mp4	0.0	130.2079999446869	2.508316993713379
4	11.356122016906738	fix_post	2		12.0	2.0	2.5	/experiments/knapen_aot/videos/S_yt-ibDaDIEazxg_3.mp4	0.0	132.71631693840027	0.09998393058776855
5	11.456105947494507	fix_pre	0		8.0	3.0	2.5	/experiments/knapen_aot/videos/R_S_yt-sIXdPhfS67U_203.mp4	0.0	132.81630086898804	0.0666360855102539
5	11.514493942260742	response	0	2		3.0	2.5	/experiments/knapen_aot/videos/R_S_yt-sIXdPhfS67U_203.mp4	0.0	132.87468886375427	
5	11.52274203300476	movie	1		299.0	3.0	2.5	/experiments/knapen_aot/videos/R_S_yt-sIXdPhfS67U_203.mp4	0.0	132.8829369544983	2.508363962173462
5	14.031105995178223	fix_post	2		12.0	3.0	2.5	/experiments/knapen_aot/videos/R_S_yt-sIXdPhfS67U_203.mp4	0.0	135.39130091667175	0.09999704360961914
6	14.131103038787842	fix_pre	0		17.0	4.0	2.5	/experiments/knapen_aot/videos/S_yt-VJ65ukWmdxQ_193.mp4	0.0	135.49129796028137	0.14160990715026855
6	14.264464855194092	response	0	2		4.0	2.5	/experiments/knapen_aot/videos/S_yt-VJ65ukWmdxQ_193.mp4	0.0	135.62465977668762	
6	14.27271294593811	movie	1		301.0	4.0	2.5	/experiments/knapen_aot/videos/S_yt-VJ65ukWmdxQ_193.mp4	0.0	135.63290786743164	2.5083539485931396
6	16.592747926712036	response	1	2		4.0	2.5	/experiments/knapen_aot/videos/S_yt-VJ65ukWmdxQ_193.mp4	0.0	137.95294284820557	
6	16.78106689453125	fix_post	2		12.0	4.0	2.5	/experiments/knapen_aot/videos/S_yt-VJ65ukWmdxQ_193.mp4	0.0	138.14126181602478	0.10038113594055176
7	16.8814480304718	fix_pre	0		16.0	5.0	2.5	/experiments/knapen_aot/videos/S_yt-IT741UWKVzg_34.mp4	0.0	138.24164295196533	0.13294100761413574
7	16.998703956604004	response	0	2		5.0	2.5	/experiments/knapen_aot/videos/S_yt-IT741UWKVzg_34.mp4	0.0	138.35889887809753	
7	17.014389038085938	movie	1		301.0	5.0	2.5	/experiments/knapen_aot/videos/S_yt-IT741UWKVzg_34.mp4	0.0	138.37458395957947	2.5083539485931396
7	19.522742986679077	fix_post	2		12.0	5.0	2.5	/experiments/knapen_aot/videos/S_yt-IT741UWKVzg_34.mp4	0.0	140.8829379081726	0.09998297691345215
8	19.62272596359253	fix_pre	0		23.0	6.0	2.5	/experiments/knapen_aot/videos/S_comp_CH_C007_C011_PSNK_v02_SDR_PS_FINAL_20180709_SDR_2K_AVC.mp4	0.0	140.98292088508606	0.191694974899292
8	19.806237936019897	response	0	2		6.0	2.5	/experiments/knapen_aot/videos/S_comp_CH_C007_C011_PSNK_v02_SDR_PS_FINAL_20180709_SDR_2K_AVC.mp4	0.0	141.16643285751343	
8	19.81442093849182	movie	1		170.0	6.0	2.5	/experiments/knapen_aot/videos/S_comp_CH_C007_C011_PSNK_v02_SDR_PS_FINAL_20180709_SDR_2K_AVC.mp4	0.0	141.17461585998535	2.508310079574585
8	22.322731018066406	fix_post	2		12.0	6.0	2.5	/experiments/knapen_aot/videos/S_comp_CH_C007_C011_PSNK_v02_SDR_PS_FINAL_20180709_SDR_2K_AVC.mp4	0.0	143.68292593955994	0.1000368595123291
9	22.422767877578735	fix_pre	0		110.0	7.0	2.5	blank	1.0	143.78296279907227	0.9170451164245605
9	23.331233978271484	response	0	2		7.0	2.5	blank	1.0	144.69142889976501	
9	23.339812994003296	movie	1		301.0	7.0	2.5	blank	1.0	144.70000791549683	2.5079548358917236
9	25.83945083618164	response	1	2		7.0	2.5	blank	1.0	147.19964575767517	
9	25.84776782989502	fix_post	2		12.0	7.0	2.5	blank	1.0	147.20796275138855	0.09993815422058105
10	25.9477059841156	fix_pre	0		48.0	8.0	2.5	/experiments/knapen_aot/videos/R_S_wc-q23aBNJMZbnZ_27.mp4	0.0	147.30790090560913	0.40002894401550293
10	26.339545965194702	response	0	2		8.0	2.5	/experiments/knapen_aot/videos/R_S_wc-q23aBNJMZbnZ_27.mp4	0.0	147.69974088668823	
10	26.347734928131104	movie	1		179.0	8.0	2.5	/experiments/knapen_aot/videos/R_S_wc-q23aBNJMZbnZ_27.mp4	0.0	147.70792984962463	2.5082929134368896
10	28.856027841567993	fix_post	2		12.0	8.0	2.5	/experiments/knapen_aot/videos/R_S_wc-q23aBNJMZbnZ_27.mp4	0.0	150.21622276306152	0.09995007514953613
11	28.95597791671753	fix_pre	0		26.0	9.0	2.5	/experiments/knapen_aot/videos/S_flickr-evananderica-2662125519_8.mp4	0.0	150.31617283821106	0.21705198287963867
11	29.1644229888916	response	0	2		9.0	2.5	/experiments/knapen_aot/videos/S_flickr-evananderica-2662125519_8.mp4	0.0	150.52461791038513	
11	29.173029899597168	movie	1		301.0	9.0	2.5	/experiments/knapen_aot/videos/S_flickr-evananderica-2662125519_8.mp4	0.0	150.5332248210907	2.5080599784851074
11	31.681089878082275	fix_post	2		12.0	9.0	2.5	/experiments/knapen_aot/videos/S_flickr-evananderica-2662125519_8.mp4	0.0	153.0412847995758	0.09995007514953613
12	31.78103995323181	fix_pre	0		209.0	10.0	2.5	/experiments/knapen_aot/videos/S_yt-X6ivH9SqGu8_306.mp4	0.0	153.14123487472534	1.7415969371795654
12	33.50697183609009	response	0	2		10.0	2.5	/experiments/knapen_aot/videos/S_yt-X6ivH9SqGu8_306.mp4	0.0	154.86716675758362	
12	33.52263689041138	movie	1		299.0	10.0	2.5	/experiments/knapen_aot/videos/S_yt-X6ivH9SqGu8_306.mp4	0.0	154.8828318119049	2.5083539485931396
12	36.03099083900452	fix_post	2		12.0	10.0	2.5	/experiments/knapen_aot/videos/S_yt-X6ivH9SqGu8_306.mp4	0.0	157.39118576049805	0.10034704208374023
13	36.13133788108826	fix_pre	0		31.0	11.0	2.5	/experiments/knapen_aot/videos/S_ILSVRC2015_train_00638001.mp4	0.0	157.4915328025818	0.258026123046875
13	36.381139039993286	response	0	2		11.0	2.5	/experiments/knapen_aot/videos/S_ILSVRC2015_train_00638001.mp4	0.0	157.74133396148682	
13	36.38936400413513	movie	1		301.0	11.0	2.5	/experiments/knapen_aot/videos/S_ILSVRC2015_train_00638001.mp4	0.0	157.74955892562866	2.5083439350128174
13	38.89770793914795	fix_post	2		12.0	11.0	2.5	/experiments/knapen_aot/videos/S_ILSVRC2015_train_00638001.mp4	0.0	160.25790286064148	0.0999300479888916
14	38.99763798713684	fix_pre	0		103.0	12.0	2.5	/experiments/knapen_aot/videos/S_yt-n6aLw10f2Yw_317.mp4	0.0	160.35783290863037	0.8583309650421143
14	39.8477840423584	response	0	2		12.0	2.5	/experiments/knapen_aot/videos/S_yt-n6aLw10f2Yw_317.mp4	0.0	161.20797896385193	
14	39.855968952178955	movie	1		301.0	12.0	2.5	/experiments/knapen_aot/videos/S_yt-n6aLw10f2Yw_317.mp4	0.0	161.21616387367249	2.50833797454834
14	42.364306926727295	fix_post	2		12.0	12.0	2.5	/experiments/knapen_aot/videos/S_yt-n6aLw10f2Yw_317.mp4	0.0	163.72450184822083	0.09998202323913574
15	42.46428894996643	fix_pre	0		46.0	13.0	2.5	blank	1.0	163.82448387145996	0.38330602645874023
15	42.832090854644775	response	0	2		13.0	2.5	blank	1.0	164.1922857761383	
15	42.84759497642517	movie	1		301.0	13.0	2.5	blank	1.0	164.2077898979187	2.5083889961242676
15	45.35598397254944	fix_post	2		12.0	13.0	2.5	blank	1.0	166.71617889404297	0.0999748706817627
16	45.4559588432312	fix_pre	0		32.0	14.0	2.5	/experiments/knapen_aot/videos/S_comp_LA_A005_C009_PSNK_ALT_v09_SDR_PS_201809134_SDR_2K_AVC.mp4	0.0	166.81615376472473	0.2666440010070801
16	45.714329957962036	response	0	2		14.0	2.5	/experiments/knapen_aot/videos/S_comp_LA_A005_C009_PSNK_ALT_v09_SDR_PS_201809134_SDR_2K_AVC.mp4	0.0	167.07452487945557	
16	45.72260284423828	movie	1		168.0	14.0	2.5	/experiments/knapen_aot/videos/S_comp_LA_A005_C009_PSNK_ALT_v09_SDR_PS_201809134_SDR_2K_AVC.mp4	0.0	167.0827977657318	2.5083210468292236
16	48.230923891067505	fix_post	2		12.0	14.0	2.5	/experiments/knapen_aot/videos/S_comp_LA_A005_C009_PSNK_ALT_v09_SDR_PS_201809134_SDR_2K_AVC.mp4	0.0	169.59111881256104	0.10164499282836914
16	48.322746992111206	response	2	2		14.0	2.5	/experiments/knapen_aot/videos/S_comp_LA_A005_C009_PSNK_ALT_v09_SDR_PS_201809134_SDR_2K_AVC.mp4	0.0	169.68294191360474	
17	48.332568883895874	fix_pre	0		46.0	15.0	2.5	/experiments/knapen_aot/videos/S_yt-r7PeFd-hIp0_378.mp4	0.0	169.6927638053894	0.3819310665130615
17	48.70600891113281	response	0	2		15.0	2.5	/experiments/knapen_aot/videos/S_yt-r7PeFd-hIp0_378.mp4	0.0	170.06620383262634	
17	48.714499950408936	movie	1		301.0	15.0	2.5	/experiments/knapen_aot/videos/S_yt-r7PeFd-hIp0_378.mp4	0.0	170.07469487190247	2.5080909729003906
17	51.222590923309326	fix_post	2		12.0	15.0	2.5	/experiments/knapen_aot/videos/S_yt-r7PeFd-hIp0_378.mp4	0.0	172.58278584480286	0.09999704360961914
18	51.322587966918945	fix_pre	0		11.0	16.0	2.5	/experiments/knapen_aot/videos/R_S_ILSVRC2015_train_00638001.mp4	0.0	172.68278288841248	0.0915839672088623
18	51.40603184700012	response	0	4		16.0	2.5	/experiments/knapen_aot/videos/R_S_ILSVRC2015_train_00638001.mp4	0.0	172.76622676849365	
18	51.41417193412781	movie	1		300.0	16.0	2.5	/experiments/knapen_aot/videos/R_S_ILSVRC2015_train_00638001.mp4	0.0	172.77436685562134	2.508622884750366
18	53.922794818878174	fix_post	2		12.0	16.0	2.5	/experiments/knapen_aot/videos/R_S_ILSVRC2015_train_00638001.mp4	0.0	175.2829897403717	0.09976005554199219
19	54.022554874420166	fix_pre	0		12.0	17.0	2.5	/experiments/knapen_aot/videos/S_yt-PRqnM7xDsus_24.mp4	0.0	175.3827497959137	0.1000211238861084
19	54.11436486244202	response	0	2		17.0	2.5	/experiments/knapen_aot/videos/S_yt-PRqnM7xDsus_24.mp4	0.0	175.47455978393555	
19	54.122575998306274	movie	1		301.0	17.0	2.5	/experiments/knapen_aot/videos/S_yt-PRqnM7xDsus_24.mp4	0.0	175.4827709197998	2.5085299015045166
19	56.63110589981079	fix_post	2		12.0	17.0	2.5	/experiments/knapen_aot/videos/S_yt-PRqnM7xDsus_24.mp4	0.0	177.99130082130432	0.09974312782287598
20	56.73084902763367	fix_pre	0		28.0	18.0	2.5	/experiments/knapen_aot/videos/S_video-12.mp4	0.0	178.0910439491272	0.23351478576660156
20	56.956050872802734	response	0	4		18.0	2.5	/experiments/knapen_aot/videos/S_video-12.mp4	0.0	178.31624579429626	
20	56.96436381340027	movie	1		164.0	18.0	2.5	/experiments/knapen_aot/videos/S_video-12.mp4	0.0	178.3245587348938	2.5082130432128906
20	59.47257685661316	fix_post	2		12.0	18.0	2.5	/experiments/knapen_aot/videos/S_video-12.mp4	0.0	180.8327717781067	0.0999910831451416
21	59.5725679397583	fix_pre	0		24.0	19.0	2.5	/experiments/knapen_aot/videos/R_S_yt-O6W6CZPXvlA_15.mp4	0.0	180.93276286125183	0.1999039649963379
21	59.764354944229126	response	0	2		19.0	2.5	/experiments/knapen_aot/videos/R_S_yt-O6W6CZPXvlA_15.mp4	0.0	181.12454986572266	
21	59.77247190475464	movie	1		301.0	19.0	2.5	/experiments/knapen_aot/videos/R_S_yt-O6W6CZPXvlA_15.mp4	0.0	181.13266682624817	2.508373975753784
21	62.28084588050842	fix_post	2		12.0	19.0	2.5	/experiments/knapen_aot/videos/R_S_yt-O6W6CZPXvlA_15.mp4	0.0	183.64104080200195	0.10021495819091797
22	62.38106083869934	fix_pre	0		129.0	20.0	2.5	blank	1.0	183.74125576019287	1.0747220516204834
22	63.44769096374512	response	0	4		20.0	2.5	blank	1.0	184.80788588523865	
22	63.455782890319824	movie	1		301.0	20.0	2.5	blank	1.0	184.81597781181335	2.508561134338379
22	65.9643440246582	fix_post	2		12.0	20.0	2.5	blank	1.0	187.32453894615173	0.09989094734191895
23	66.06423497200012	fix_pre	0		15.0	21.0	2.5	/experiments/knapen_aot/videos/R_S_video-12.mp4	0.0	187.42442989349365	0.12495994567871094
23	66.18107295036316	response	0	2		21.0	2.5	/experiments/knapen_aot/videos/R_S_video-12.mp4	0.0	187.5412678718567	
23	66.18919491767883	movie	1		163.0	21.0	2.5	/experiments/knapen_aot/videos/R_S_video-12.mp4	0.0	187.54938983917236	2.508280038833618
23	68.69747495651245	fix_post	2		12.0	21.0	2.5	/experiments/knapen_aot/videos/R_S_video-12.mp4	0.0	190.05766987800598	0.10019803047180176
24	68.79767298698425	fix_pre	0		11.0	22.0	2.5	/experiments/knapen_aot/videos/S_yt-7NjoFHBdP7c_102.mp4	0.0	190.15786790847778	0.09148097038269043
24	68.88095688819885	response	0	4		22.0	2.5	/experiments/knapen_aot/videos/S_yt-7NjoFHBdP7c_102.mp4	0.0	190.24115180969238	
24	68.88915395736694	movie	1		301.0	22.0	2.5	/experiments/knapen_aot/videos/S_yt-7NjoFHBdP7c_102.mp4	0.0	190.24934887886047	2.5083670616149902
24	71.39752101898193	fix_post	2		12.0	22.0	2.5	/experiments/knapen_aot/videos/S_yt-7NjoFHBdP7c_102.mp4	0.0	192.75771594047546	0.10002899169921875
25	71.49755001068115	fix_pre	0		27.0	23.0	2.5	/experiments/knapen_aot/videos/R_S_ILSVRC2015_train_00441000.mp4	0.0	192.85774493217468	0.22486591339111328
25	71.71431803703308	response	0	2		23.0	2.5	/experiments/knapen_aot/videos/R_S_ILSVRC2015_train_00441000.mp4	0.0	193.0745129585266	
25	71.72241592407227	movie	1		301.0	23.0	2.5	/experiments/knapen_aot/videos/R_S_ILSVRC2015_train_00441000.mp4	0.0	193.0826108455658	2.5084400177001953
25	74.23085594177246	fix_post	2		12.0	23.0	2.5	/experiments/knapen_aot/videos/R_S_ILSVRC2015_train_00441000.mp4	0.0	195.591050863266	0.09999895095825195
26	74.33085489273071	fix_pre	0		9.0	24.0	2.5	/experiments/knapen_aot/videos/S_yt-mdLT282PVbE_6.mp4	0.0	195.69104981422424	0.0749819278717041
26	74.39757490158081	response	0	2		24.0	2.5	/experiments/knapen_aot/videos/S_yt-mdLT282PVbE_6.mp4	0.0	195.75776982307434	
26	74.40583682060242	movie	1		301.0	24.0	2.5	/experiments/knapen_aot/videos/S_yt-mdLT282PVbE_6.mp4	0.0	195.76603174209595	2.508334159851074
26	76.91417098045349	fix_post	2		12.0	24.0	2.5	/experiments/knapen_aot/videos/S_yt-mdLT282PVbE_6.mp4	0.0	198.27436590194702	0.10002684593200684
27	77.0141978263855	fix_pre	0		44.0	25.0	2.5	/experiments/knapen_aot/videos/R_S_yt-WFiEvQuOqqg_18.mp4	0.0	198.37439274787903	0.36669015884399414
27	77.37264204025269	response	0	4		25.0	2.5	/experiments/knapen_aot/videos/R_S_yt-WFiEvQuOqqg_18.mp4	0.0	198.73283696174622	
27	77.38088798522949	movie	1		301.0	25.0	2.5	/experiments/knapen_aot/videos/R_S_yt-WFiEvQuOqqg_18.mp4	0.0	198.74108290672302	2.5082619190216064
27	79.8891499042511	fix_post	2		12.0	25.0	2.5	/experiments/knapen_aot/videos/R_S_yt-WFiEvQuOqqg_18.mp4	0.0	201.24934482574463	0.10002803802490234
28	79.989177942276	fix_pre	0		290.0	26.0	2.5	/experiments/knapen_aot/videos/S_yt-QJ2k6vA8aco_12.mp4	0.0	201.34937286376953	2.416630983352661
28	82.39767289161682	response	0	2		26.0	2.5	/experiments/knapen_aot/videos/S_yt-QJ2k6vA8aco_12.mp4	0.0	203.75786781311035	
28	82.40580892562866	movie	1		301.0	26.0	2.5	/experiments/knapen_aot/videos/S_yt-QJ2k6vA8aco_12.mp4	0.0	203.7660038471222	2.50832200050354
28	84.9141309261322	fix_post	2		12.0	26.0	2.5	/experiments/knapen_aot/videos/S_yt-QJ2k6vA8aco_12.mp4	0.0	206.27432584762573	0.10006499290466309
29	85.01419591903687	fix_pre	0		39.0	27.0	2.5	blank	1.0	206.3743908405304	0.3250269889831543
29	85.33094882965088	response	0	2		27.0	2.5	blank	1.0	206.6911437511444	
29	85.33922290802002	movie	1		301.0	27.0	2.5	blank	1.0	206.69941782951355	2.5082340240478516
29	87.84745693206787	fix_post	2		12.0	27.0	2.5	blank	1.0	209.2076518535614	0.10003995895385742
30	87.94749689102173	fix_pre	0		26.0	28.0	2.5	/experiments/knapen_aot/videos/R_S_yt-X6ivH9SqGu8_306.mp4	0.0	209.30769181251526	0.21663999557495117
30	88.15591192245483	response	0	4		28.0	2.5	/experiments/knapen_aot/videos/R_S_yt-X6ivH9SqGu8_306.mp4	0.0	209.51610684394836	
30	88.16413688659668	movie	1		301.0	28.0	2.5	/experiments/knapen_aot/videos/R_S_yt-X6ivH9SqGu8_306.mp4	0.0	209.5243318080902	2.5083160400390625
30	90.67245292663574	fix_post	2		12.0	28.0	2.5	/experiments/knapen_aot/videos/R_S_yt-X6ivH9SqGu8_306.mp4	0.0	212.03264784812927	0.09998202323913574
31	90.77243494987488	fix_pre	0		6.0	29.0	2.5	/experiments/knapen_aot/videos/S_yt-NqyG4Ar2JWo_10.mp4	0.0	212.1326298713684	0.05000591278076172
31	90.81425404548645	response	0	2		29.0	2.5	/experiments/knapen_aot/videos/S_yt-NqyG4Ar2JWo_10.mp4	0.0	212.17444896697998	
31	90.82244086265564	movie	1		300.0	29.0	2.5	/experiments/knapen_aot/videos/S_yt-NqyG4Ar2JWo_10.mp4	0.0	212.18263578414917	2.5083510875701904
31	93.33079195022583	fix_post	2		12.0	29.0	2.5	/experiments/knapen_aot/videos/S_yt-NqyG4Ar2JWo_10.mp4	0.0	214.69098687171936	0.1000220775604248
32	93.43081402778625	fix_pre	0		11.0	30.0	2.5	/experiments/knapen_aot/videos/R_S_video-12.mp4	0.0	214.79100894927979	0.09160184860229492
32	93.51413798332214	response	0	2		30.0	2.5	/experiments/knapen_aot/videos/R_S_video-12.mp4	0.0	214.87433290481567	
32	93.52241587638855	movie	1		167.0	30.0	2.5	/experiments/knapen_aot/videos/R_S_video-12.mp4	0.0	214.88261079788208	2.5083260536193848
32	96.03074193000793	fix_post	2		12.0	30.0	2.5	/experiments/knapen_aot/videos/R_S_video-12.mp4	0.0	217.39093685150146	0.09998703002929688
33	96.13072896003723	fix_pre	0		30.0	31.0	2.5	/experiments/knapen_aot/videos/S_yt-1_xoCNmTn3Y_1.mp4	0.0	217.49092388153076	0.25000691413879395
33	96.37253594398499	response	0	2		31.0	2.5	/experiments/knapen_aot/videos/S_yt-1_xoCNmTn3Y_1.mp4	0.0	217.73273086547852	
33	96.38073587417603	movie	1		301.0	31.0	2.5	/experiments/knapen_aot/videos/S_yt-1_xoCNmTn3Y_1.mp4	0.0	217.74093079566956	2.5083250999450684
33	98.8890609741211	fix_post	2		12.0	31.0	2.5	/experiments/knapen_aot/videos/S_yt-1_xoCNmTn3Y_1.mp4	0.0	220.24925589561462	0.10001897811889648
34	98.98907995223999	fix_pre	0		15.0	32.0	2.5	/experiments/knapen_aot/videos/R_S_yt-3DM_SqT4RII_10.mp4	0.0	220.34927487373352	0.125
34	99.10590100288391	response	0	2		32.0	2.5	/experiments/knapen_aot/videos/R_S_yt-3DM_SqT4RII_10.mp4	0.0	220.46609592437744	
34	99.11407995223999	movie	1		299.0	32.0	2.5	/experiments/knapen_aot/videos/R_S_yt-3DM_SqT4RII_10.mp4	0.0	220.47427487373352	2.5082809925079346
34	101.62236094474792	fix_post	2		12.0	32.0	2.5	/experiments/knapen_aot/videos/R_S_yt-3DM_SqT4RII_10.mp4	0.0	222.98255586624146	0.09997105598449707
35	101.72233200073242	fix_pre	0		17.0	33.0	2.5	/experiments/knapen_aot/videos/R_S_yt-B8Sy53C6Pxw_8.mp4	0.0	223.08252692222595	0.14173293113708496
35	101.85582184791565	response	0	2		33.0	2.5	/experiments/knapen_aot/videos/R_S_yt-B8Sy53C6Pxw_8.mp4	0.0	223.21601676940918	
35	101.8640649318695	movie	1		301.0	33.0	2.5	/experiments/knapen_aot/videos/R_S_yt-B8Sy53C6Pxw_8.mp4	0.0	223.22425985336304	2.5082991123199463
35	104.37236404418945	fix_post	2		12.0	33.0	2.5	/experiments/knapen_aot/videos/R_S_yt-B8Sy53C6Pxw_8.mp4	0.0	225.73255896568298	0.09996390342712402
36	104.47232794761658	fix_pre	0		144.0	34.0	2.5	/experiments/knapen_aot/videos/R_S_yt-ycQy_fHCK-U_8.mp4	0.0	225.8325228691101	1.1999990940093994
36	105.66418194770813	response	0	2		34.0	2.5	/experiments/knapen_aot/videos/R_S_yt-ycQy_fHCK-U_8.mp4	0.0	227.02437686920166	
36	105.67232704162598	movie	1		301.0	34.0	2.5	/experiments/knapen_aot/videos/R_S_yt-ycQy_fHCK-U_8.mp4	0.0	227.0325219631195	2.5083558559417725
36	108.18068289756775	fix_post	2		12.0	34.0	2.5	/experiments/knapen_aot/videos/R_S_yt-ycQy_fHCK-U_8.mp4	0.0	229.54087781906128	0.09997200965881348
37	108.28065490722656	fix_pre	0		165.0	35.0	2.5	blank	1.0	229.6408498287201	1.3749849796295166
37	109.64749002456665	response	0	2		35.0	2.5	blank	1.0	231.00768494606018	
37	109.65563988685608	movie	1		301.0	35.0	2.5	blank	1.0	231.0158348083496	2.508363962173462
37	112.16400384902954	fix_post	2		12.0	35.0	2.5	blank	1.0	233.52419877052307	0.1000211238861084
38	112.26402497291565	fix_pre	0		55.0	36.0	2.5	/experiments/knapen_aot/videos/S_yt-wUqpCtBOFBA_89.mp4	0.0	233.62421989440918	0.4583010673522949
38	112.71416997909546	response	0	2		36.0	2.5	/experiments/knapen_aot/videos/S_yt-wUqpCtBOFBA_89.mp4	0.0	234.074364900589	
38	112.72232604026794	movie	1		301.0	36.0	2.5	/experiments/knapen_aot/videos/S_yt-wUqpCtBOFBA_89.mp4	0.0	234.08252096176147	2.5084049701690674
38	115.23073101043701	fix_post	2		12.0	36.0	2.5	/experiments/knapen_aot/videos/S_yt-wUqpCtBOFBA_89.mp4	0.0	236.59092593193054	0.09992694854736328
39	115.33065795898438	fix_pre	0		35.0	37.0	2.5	/experiments/knapen_aot/videos/R_S_comp_CH_C007_C011_PSNK_v02_SDR_PS_FINAL_20180709_SDR_2K_AVC.mp4	0.0	236.6908528804779	0.29295992851257324
39	115.61418104171753	response	0	2		37.0	2.5	/experiments/knapen_aot/videos/R_S_comp_CH_C007_C011_PSNK_v02_SDR_PS_FINAL_20180709_SDR_2K_AVC.mp4	0.0	236.97437596321106	
39	115.62361788749695	movie	1		172.0	37.0	2.5	/experiments/knapen_aot/videos/R_S_comp_CH_C007_C011_PSNK_v02_SDR_PS_FINAL_20180709_SDR_2K_AVC.mp4	0.0	236.98381280899048	2.5070199966430664
39	118.12239599227905	response	1	2		37.0	2.5	/experiments/knapen_aot/videos/R_S_comp_CH_C007_C011_PSNK_v02_SDR_PS_FINAL_20180709_SDR_2K_AVC.mp4	0.0	239.48259091377258	
39	118.13063788414001	fix_post	2		12.0	37.0	2.5	/experiments/knapen_aot/videos/R_S_comp_CH_C007_C011_PSNK_v02_SDR_PS_FINAL_20180709_SDR_2K_AVC.mp4	0.0	239.49083280563354	0.10003209114074707
40	118.23066997528076	fix_pre	0		41.0	38.0	2.5	/experiments/knapen_aot/videos/S_yt-14tjqjjjAEI_15.mp4	0.0	239.5908648967743	0.3416450023651123
40	118.56410384178162	response	0	2		38.0	2.5	/experiments/knapen_aot/videos/S_yt-14tjqjjjAEI_15.mp4	0.0	239.92429876327515	
40	118.57231497764587	movie	1		301.0	38.0	2.5	/experiments/knapen_aot/videos/S_yt-14tjqjjjAEI_15.mp4	0.0	239.9325098991394	2.508358955383301
40	121.08067393302917	fix_post	2		12.0	38.0	2.5	/experiments/knapen_aot/videos/S_yt-14tjqjjjAEI_15.mp4	0.0	242.4408688545227	0.10001397132873535
41	121.18068790435791	fix_pre	0		22.0	39.0	2.5	/experiments/knapen_aot/videos/R_S_production_ID_4802712.mp4	0.0	242.54088282585144	0.18331313133239746
41	121.34821891784668	response	0	2		39.0	2.5	/experiments/knapen_aot/videos/R_S_production_ID_4802712.mp4	0.0	242.7084138393402	
41	121.36400103569031	movie	1		168.0	39.0	2.5	/experiments/knapen_aot/videos/R_S_production_ID_4802712.mp4	0.0	242.72419595718384	2.508185863494873
41	123.87218689918518	fix_post	2		12.0	39.0	2.5	/experiments/knapen_aot/videos/R_S_production_ID_4802712.mp4	0.0	245.2323818206787	0.10008907318115234
42	123.97227597236633	fix_pre	0		60.0	40.0	2.5	/experiments/knapen_aot/videos/R_S_yt-4W224-RSCnM_15.mp4	0.0	245.33247089385986	0.4999680519104004
42	124.46410584449768	response	0	2		40.0	2.5	/experiments/knapen_aot/videos/R_S_yt-4W224-RSCnM_15.mp4	0.0	245.8243007659912	
42	124.47224402427673	movie	1		301.0	40.0	2.5	/experiments/knapen_aot/videos/R_S_yt-4W224-RSCnM_15.mp4	0.0	245.83243894577026	2.5083539485931396
42	126.98059797286987	fix_post	2		12.0	40.0	2.5	/experiments/knapen_aot/videos/R_S_yt-4W224-RSCnM_15.mp4	0.0	248.3407928943634	0.10001897811889648
43	127.08061695098877	fix_pre	0		23.0	41.0	2.5	blank	1.0	248.4408118724823	0.19167709350585938
43	127.26403498649597	response	0	2		41.0	2.5	blank	1.0	248.6242299079895	
43	127.27229404449463	movie	1		301.0	41.0	2.5	blank	1.0	248.63248896598816	2.50834584236145
43	129.78063988685608	fix_post	2		12.0	41.0	2.5	blank	1.0	251.1408348083496	0.09994292259216309
44	129.88058280944824	fix_pre	0		93.0	42.0	2.5	/experiments/knapen_aot/videos/S_yt-N1ZrWT4xyzc_85.mp4	0.0	251.24077773094177	0.7749660015106201
44	130.6474208831787	response	0	2		42.0	2.5	/experiments/knapen_aot/videos/S_yt-N1ZrWT4xyzc_85.mp4	0.0	252.00761580467224	
44	130.65554881095886	movie	1		299.0	42.0	2.5	/experiments/knapen_aot/videos/S_yt-N1ZrWT4xyzc_85.mp4	0.0	252.0157437324524	2.5083940029144287
44	133.1639428138733	fix_post	2		12.0	42.0	2.5	/experiments/knapen_aot/videos/S_yt-N1ZrWT4xyzc_85.mp4	0.0	254.52413773536682	0.1000211238861084
45	133.2639639377594	fix_pre	0		22.0	43.0	2.5	/experiments/knapen_aot/videos/S_yt-w5lh_rKyKtE_21.mp4	0.0	254.62415885925293	0.18328499794006348
45	133.43901991844177	response	0	2		43.0	2.5	/experiments/knapen_aot/videos/S_yt-w5lh_rKyKtE_21.mp4	0.0	254.7992148399353	
45	133.44724893569946	movie	1		301.0	43.0	2.5	/experiments/knapen_aot/videos/S_yt-w5lh_rKyKtE_21.mp4	0.0	254.807443857193	2.508344888687134
45	135.9555938243866	fix_post	2		12.0	43.0	2.5	/experiments/knapen_aot/videos/S_yt-w5lh_rKyKtE_21.mp4	0.0	257.3157887458801	0.09992718696594238
46	136.05552101135254	fix_pre	0		88.0	44.0	2.5	/experiments/knapen_aot/videos/R_S_yt-JPsTqfqfPIY_319.mp4	0.0	257.41571593284607	0.7345278263092041
46	136.7807319164276	response	0	2		44.0	2.5	/experiments/knapen_aot/videos/R_S_yt-JPsTqfqfPIY_319.mp4	0.0	258.14092683792114	
46	136.79004883766174	movie	1		301.0	44.0	2.5	/experiments/knapen_aot/videos/R_S_yt-JPsTqfqfPIY_319.mp4	0.0	258.1502437591553	2.5071752071380615
46	139.2972240447998	fix_post	2		12.0	44.0	2.5	/experiments/knapen_aot/videos/R_S_yt-JPsTqfqfPIY_319.mp4	0.0	260.65741896629333	0.10001993179321289
47	139.39724397659302	fix_pre	0		268.0	45.0	2.5	/experiments/knapen_aot/videos/R_S_yt-giRwl4yChlw_9.mp4	0.0	260.75743889808655	2.233304023742676
47	141.62242484092712	response	0	2		45.0	2.5	/experiments/knapen_aot/videos/R_S_yt-giRwl4yChlw_9.mp4	0.0	262.98261976242065	
47	141.6305480003357	movie	1		301.0	45.0	2.5	/experiments/knapen_aot/videos/R_S_yt-giRwl4yChlw_9.mp4	0.0	262.9907429218292	2.5083420276641846
47	144.13889002799988	fix_post	2		12.0	45.0	2.5	/experiments/knapen_aot/videos/R_S_yt-giRwl4yChlw_9.mp4	0.0	265.4990849494934	0.1000218391418457
48	144.23891186714172	fix_pre	0		33.0	46.0	2.5	/experiments/knapen_aot/videos/R_S_yt-nlfwzxlwRfk_12.mp4	0.0	265.59910678863525	0.2749300003051758
48	144.50565099716187	response	0	2		46.0	2.5	/experiments/knapen_aot/videos/R_S_yt-nlfwzxlwRfk_12.mp4	0.0	265.8658459186554	
48	144.5138418674469	movie	1		301.0	46.0	2.5	/experiments/knapen_aot/videos/R_S_yt-nlfwzxlwRfk_12.mp4	0.0	265.87403678894043	2.5083670616149902
48	147.0222089290619	fix_post	2		12.0	46.0	2.5	/experiments/knapen_aot/videos/R_S_yt-nlfwzxlwRfk_12.mp4	0.0	268.3824038505554	0.09998011589050293
49	147.1221890449524	fix_pre	0		40.0	47.0	2.5	/experiments/knapen_aot/videos/S_yt-ZE8Af60eNsI_15.mp4	0.0	268.4823839664459	0.3344399929046631
49	147.44749283790588	response	0	2		47.0	2.5	/experiments/knapen_aot/videos/S_yt-ZE8Af60eNsI_15.mp4	0.0	268.8076877593994	
49	147.45662903785706	movie	1		300.0	47.0	2.5	/experiments/knapen_aot/videos/S_yt-ZE8Af60eNsI_15.mp4	0.0	268.8168239593506	2.5071749687194824
49	149.96380400657654	fix_post	2		12.0	47.0	2.5	/experiments/knapen_aot/videos/S_yt-ZE8Af60eNsI_15.mp4	0.0	271.32399892807007	0.10005688667297363
50	150.0638608932495	fix_pre	0		37.0	48.0	2.5	blank	1.0	271.42405581474304	0.3082880973815918
50	150.36398601531982	response	0	2		48.0	2.5	blank	1.0	271.72418093681335	
50	150.3721489906311	movie	1		301.0	48.0	2.5	blank	1.0	271.73234391212463	2.5083718299865723
50	152.88052082061768	fix_post	2		12.0	48.0	2.5	blank	1.0	274.2407157421112	0.10000205039978027
51	152.98052287101746	fix_pre	0		34.0	49.0	2.5	/experiments/knapen_aot/videos/R_S_yt-Ryb0K9lGPrg_5.mp4	0.0	274.340717792511	0.28334593772888184
51	153.25560092926025	response	0	2		49.0	2.5	/experiments/knapen_aot/videos/R_S_yt-Ryb0K9lGPrg_5.mp4	0.0	274.6157958507538	
51	153.26386880874634	movie	1		301.0	49.0	2.5	/experiments/knapen_aot/videos/R_S_yt-Ryb0K9lGPrg_5.mp4	0.0	274.62406373023987	2.508207082748413
51	155.77207589149475	fix_post	2		12.0	49.0	2.5	/experiments/knapen_aot/videos/R_S_yt-Ryb0K9lGPrg_5.mp4	0.0	277.1322708129883	0.10013008117675781
52	155.8722059726715	fix_pre	0		17.0	50.0	2.5	/experiments/knapen_aot/videos/R_S_ILSVRC2015_train_00638001.mp4	0.0	277.23240089416504	0.1416318416595459
52	156.00568890571594	response	0	2		50.0	2.5	/experiments/knapen_aot/videos/R_S_ILSVRC2015_train_00638001.mp4	0.0	277.3658838272095	
52	156.01383781433105	movie	1		301.0	50.0	2.5	/experiments/knapen_aot/videos/R_S_ILSVRC2015_train_00638001.mp4	0.0	277.3740327358246	2.508301019668579
52	158.52213883399963	fix_post	2		12.0	50.0	2.5	/experiments/knapen_aot/videos/R_S_ILSVRC2015_train_00638001.mp4	0.0	279.88233375549316	0.09998416900634766
53	158.62212300300598	fix_pre	0		11.0	51.0	2.5	/experiments/knapen_aot/videos/R_S_yt-mdLT282PVbE_6.mp4	0.0	279.9823179244995	0.09167194366455078
53	158.7055218219757	response	0	2		51.0	2.5	/experiments/knapen_aot/videos/R_S_yt-mdLT282PVbE_6.mp4	0.0	280.06571674346924	
53	158.71379494667053	movie	1		301.0	51.0	2.5	/experiments/knapen_aot/videos/R_S_yt-mdLT282PVbE_6.mp4	0.0	280.07398986816406	2.5083608627319336
53	161.22215580940247	fix_post	2		12.0	51.0	2.5	/experiments/knapen_aot/videos/R_S_yt-mdLT282PVbE_6.mp4	0.0	282.582350730896	0.09996700286865234
54	161.32212281227112	fix_pre	0		5.0	52.0	2.5	/experiments/knapen_aot/videos/R_S_yt-2CWrK9nbhTk_211.mp4	0.0	282.68231773376465	0.04176616668701172
54	161.35565400123596	response	0	2		52.0	2.5	/experiments/knapen_aot/videos/R_S_yt-2CWrK9nbhTk_211.mp4	0.0	282.7158489227295	
54	161.36388897895813	movie	1		301.0	52.0	2.5	/experiments/knapen_aot/videos/R_S_yt-2CWrK9nbhTk_211.mp4	0.0	282.72408390045166	2.508190870285034
54	163.87207984924316	fix_post	2		12.0	52.0	2.5	/experiments/knapen_aot/videos/R_S_yt-2CWrK9nbhTk_211.mp4	0.0	285.2322747707367	0.10007596015930176
55	163.97215580940247	fix_pre	0		15.0	53.0	2.5	/experiments/knapen_aot/videos/R_S_yt-w5lh_rKyKtE_21.mp4	0.0	285.332350730896	0.12495923042297363
55	164.0889389514923	response	0	2		53.0	2.5	/experiments/knapen_aot/videos/R_S_yt-w5lh_rKyKtE_21.mp4	0.0	285.44913387298584	
55	164.09711503982544	movie	1		301.0	53.0	2.5	/experiments/knapen_aot/videos/R_S_yt-w5lh_rKyKtE_21.mp4	0.0	285.45730996131897	2.508312940597534
55	166.60542798042297	fix_post	2		12.0	53.0	2.5	/experiments/knapen_aot/videos/R_S_yt-w5lh_rKyKtE_21.mp4	0.0	287.9656229019165	0.10002684593200684
56	166.70545482635498	fix_pre	0		13.0	54.0	2.5	/experiments/knapen_aot/videos/S_yt-W00vtWnXgIk_73.mp4	0.0	288.0656497478485	0.10842204093933105
56	166.80559992790222	response	0	2		54.0	2.5	/experiments/knapen_aot/videos/S_yt-W00vtWnXgIk_73.mp4	0.0	288.16579484939575	
56	166.8138768672943	movie	1		301.0	54.0	2.5	/experiments/knapen_aot/videos/S_yt-W00vtWnXgIk_73.mp4	0.0	288.17407178878784	2.5082509517669678
56	169.32212781906128	fix_post	2		12.0	54.0	2.5	/experiments/knapen_aot/videos/S_yt-W00vtWnXgIk_73.mp4	0.0	290.6823227405548	0.09986519813537598
57	169.42199301719666	fix_pre	0		20.0	55.0	2.5	/experiments/knapen_aot/videos/S_yt-VJ65ukWmdxQ_193.mp4	0.0	290.7821879386902	0.16676902770996094
57	169.580561876297	response	0	2		55.0	2.5	/experiments/knapen_aot/videos/S_yt-VJ65ukWmdxQ_193.mp4	0.0	290.9407567977905	
57	169.58876204490662	movie	1		301.0	55.0	2.5	/experiments/knapen_aot/videos/S_yt-VJ65ukWmdxQ_193.mp4	0.0	290.94895696640015	2.5082309246063232
57	172.09699296951294	fix_post	2		12.0	55.0	2.5	/experiments/knapen_aot/videos/S_yt-VJ65ukWmdxQ_193.mp4	0.0	293.45718789100647	0.1000819206237793
58	172.19707489013672	fix_pre	0		11.0	56.0	2.5	blank	1.0	293.55726981163025	0.09265804290771484
58	172.27367091178894	response	0	2		56.0	2.5	blank	1.0	293.63386583328247	
58	172.28973293304443	movie	1		301.0	56.0	2.5	blank	1.0	293.64992785453796	2.507288932800293
58	174.79702186584473	fix_post	2		12.0	56.0	2.5	blank	1.0	296.15721678733826	0.09997200965881348
59	174.89699387550354	fix_pre	0		32.0	57.0	2.5	/experiments/knapen_aot/videos/S_yt-e1RAhIW6WAs_535.mp4	0.0	296.25718879699707	0.2677280902862549
59	175.15547490119934	response	0	2		57.0	2.5	/experiments/knapen_aot/videos/S_yt-e1RAhIW6WAs_535.mp4	0.0	296.51566982269287	
59	175.1647219657898	movie	1		301.0	57.0	2.5	/experiments/knapen_aot/videos/S_yt-e1RAhIW6WAs_535.mp4	0.0	296.5249168872833	2.5073280334472656
59	177.67204999923706	fix_post	2		12.0	57.0	2.5	/experiments/knapen_aot/videos/S_yt-e1RAhIW6WAs_535.mp4	0.0	299.0322449207306	0.10000395774841309
60	177.77205395698547	fix_pre	0		30.0	58.0	2.5	/experiments/knapen_aot/videos/R_S_comp_LA_A005_C009_PSNK_ALT_v09_SDR_PS_201809134_SDR_2K_AVC.mp4	0.0	299.132248878479	0.2499699592590332
60	178.01388382911682	response	0	2		58.0	2.5	/experiments/knapen_aot/videos/R_S_comp_LA_A005_C009_PSNK_ALT_v09_SDR_PS_201809134_SDR_2K_AVC.mp4	0.0	299.37407875061035	
60	178.0220239162445	movie	1		169.0	58.0	2.5	/experiments/knapen_aot/videos/R_S_comp_LA_A005_C009_PSNK_ALT_v09_SDR_PS_201809134_SDR_2K_AVC.mp4	0.0	299.38221883773804	2.5083000659942627
60	180.53032398223877	fix_post	2		12.0	58.0	2.5	/experiments/knapen_aot/videos/R_S_comp_LA_A005_C009_PSNK_ALT_v09_SDR_PS_201809134_SDR_2K_AVC.mp4	0.0	301.8905189037323	0.1000518798828125
61	180.63037586212158	fix_pre	0		19.0	59.0	2.5	/experiments/knapen_aot/videos/S_yt-wrfAMDCg93Y_8.mp4	0.0	301.9905707836151	0.15926599502563477
61	180.7804298400879	response	0	2		59.0	2.5	/experiments/knapen_aot/videos/S_yt-wrfAMDCg93Y_8.mp4	0.0	302.1406247615814	
61	180.78964185714722	movie	1		301.0	59.0	2.5	/experiments/knapen_aot/videos/S_yt-wrfAMDCg93Y_8.mp4	0.0	302.14983677864075	2.507495164871216
61	183.29713702201843	fix_post	2		12.0	59.0	2.5	/experiments/knapen_aot/videos/S_yt-wrfAMDCg93Y_8.mp4	0.0	304.65733194351196	0.09990382194519043
62	183.39704084396362	fix_pre	0		36.0	60.0	2.5	/experiments/knapen_aot/videos/R_S_comp_DB_D002_C003_PSNK_v04_SDR_PS_20180914_SDR_2K_AVC.mp4	0.0	304.75723576545715	0.2999720573425293
62	183.688866853714	response	0	2		60.0	2.5	/experiments/knapen_aot/videos/R_S_comp_DB_D002_C003_PSNK_v04_SDR_PS_20180914_SDR_2K_AVC.mp4	0.0	305.0490617752075	
62	183.69701290130615	movie	1		170.0	60.0	2.5	/experiments/knapen_aot/videos/R_S_comp_DB_D002_C003_PSNK_v04_SDR_PS_20180914_SDR_2K_AVC.mp4	0.0	305.0572078227997	2.5083959102630615
62	186.2054088115692	fix_post	2		12.0	60.0	2.5	/experiments/knapen_aot/videos/R_S_comp_DB_D002_C003_PSNK_v04_SDR_PS_20180914_SDR_2K_AVC.mp4	0.0	307.56560373306274	0.09993600845336914
63	186.30534482002258	fix_pre	0		12.0	61.0	2.5	/experiments/knapen_aot/videos/R_S_yt-sWJc_Do8EaI_32.mp4	0.0	307.6655397415161	0.09997010231018066
63	186.39713382720947	response	0	2		61.0	2.5	/experiments/knapen_aot/videos/R_S_yt-sWJc_Do8EaI_32.mp4	0.0	307.757328748703	
63	186.40531492233276	movie	1		299.0	61.0	2.5	/experiments/knapen_aot/videos/R_S_yt-sWJc_Do8EaI_32.mp4	0.0	307.7655098438263	2.5083959102630615
63	188.91371083259583	fix_post	2		12.0	61.0	2.5	/experiments/knapen_aot/videos/R_S_yt-sWJc_Do8EaI_32.mp4	0.0	310.27390575408936	0.09992003440856934
64	189.0136308670044	fix_pre	0		30.0	62.0	2.5	/experiments/knapen_aot/videos/R_S_yt-35i8UeYXjGw_47.mp4	0.0	310.3738257884979	0.2500581741333008
64	189.25549793243408	response	0	2		62.0	2.5	/experiments/knapen_aot/videos/R_S_yt-35i8UeYXjGw_47.mp4	0.0	310.6156928539276	
64	189.2636890411377	movie	1		301.0	62.0	2.5	/experiments/knapen_aot/videos/R_S_yt-35i8UeYXjGw_47.mp4	0.0	310.6238839626312	2.508298873901367
64	191.77198791503906	fix_post	2		12.0	62.0	2.5	/experiments/knapen_aot/videos/R_S_yt-35i8UeYXjGw_47.mp4	0.0	313.1321828365326	0.1000370979309082
65	191.87202501296997	fix_pre	0		221.0	63.0	2.5	blank	1.0	313.2322199344635	1.8416459560394287
65	193.70541095733643	response	0	2		63.0	2.5	blank	1.0	315.06560587882996	
65	193.7136709690094	movie	1		301.0	63.0	2.5	blank	1.0	315.07386589050293	2.508344888687134
65	196.22201585769653	fix_post	2		12.0	63.0	2.5	blank	1.0	317.58221077919006	0.100006103515625
66	196.32202196121216	fix_pre	0		24.0	64.0	2.5	/experiments/knapen_aot/videos/R_S_yt-eF5J5Kjt6oY_23.mp4	0.0	317.6822168827057	0.2000288963317871
66	196.51374697685242	response	0	2		64.0	2.5	/experiments/knapen_aot/videos/R_S_yt-eF5J5Kjt6oY_23.mp4	0.0	317.87394189834595	
66	196.52205085754395	movie	1		298.0	64.0	2.5	/experiments/knapen_aot/videos/R_S_yt-eF5J5Kjt6oY_23.mp4	0.0	317.8822457790375	2.5082030296325684
66	199.0302538871765	fix_post	2		12.0	64.0	2.5	/experiments/knapen_aot/videos/R_S_yt-eF5J5Kjt6oY_23.mp4	0.0	320.39044880867004	0.10004711151123047
67	199.13030099868774	fix_pre	0		17.0	65.0	2.5	/experiments/knapen_aot/videos/S_yt-xnqqB-leeaQ_128.mp4	0.0	320.4904959201813	0.14165592193603516
67	199.2637848854065	response	0	2		65.0	2.5	/experiments/knapen_aot/videos/S_yt-xnqqB-leeaQ_128.mp4	0.0	320.6239798069	
67	199.27195692062378	movie	1		301.0	65.0	2.5	/experiments/knapen_aot/videos/S_yt-xnqqB-leeaQ_128.mp4	0.0	320.6321518421173	2.508384943008423
67	201.7803418636322	fix_post	2		12.0	65.0	2.5	/experiments/knapen_aot/videos/S_yt-xnqqB-leeaQ_128.mp4	0.0	323.14053678512573	0.09990310668945312
68	201.88024497032166	fix_pre	0		20.0	66.0	2.5	/experiments/knapen_aot/videos/R_S_b3TCugtX0h0_108.mp4	0.0	323.2404398918152	0.16666388511657715
68	202.0387179851532	response	0	2		66.0	2.5	/experiments/knapen_aot/videos/R_S_b3TCugtX0h0_108.mp4	0.0	323.39891290664673	
68	202.04690885543823	movie	1		301.0	66.0	2.5	/experiments/knapen_aot/videos/R_S_b3TCugtX0h0_108.mp4	0.0	323.40710377693176	2.5083601474761963
68	204.55526900291443	fix_post	2		12.0	66.0	2.5	/experiments/knapen_aot/videos/R_S_b3TCugtX0h0_108.mp4	0.0	325.91546392440796	0.10001492500305176
69	204.65528392791748	fix_pre	0		29.0	67.0	2.5	/experiments/knapen_aot/videos/R_S_wc-q23aBNJMZbnZ_27.mp4	0.0	326.015478849411	0.24161195755004883
69	204.88872003555298	response	0	2		67.0	2.5	/experiments/knapen_aot/videos/R_S_wc-q23aBNJMZbnZ_27.mp4	0.0	326.2489149570465	
69	204.89689588546753	movie	1		162.0	67.0	2.5	/experiments/knapen_aot/videos/R_S_wc-q23aBNJMZbnZ_27.mp4	0.0	326.25709080696106	2.508376121520996
69	207.40527200698853	fix_post	2		12.0	67.0	2.5	/experiments/knapen_aot/videos/R_S_wc-q23aBNJMZbnZ_27.mp4	0.0	328.76546692848206	0.10000181198120117
70	207.50527381896973	fix_pre	0		66.0	68.0	2.5	/experiments/knapen_aot/videos/S_yt-h8wy6x6oytA_25.mp4	0.0	328.86546874046326	0.5499410629272461
70	208.0470609664917	response	0	2		68.0	2.5	/experiments/knapen_aot/videos/S_yt-h8wy6x6oytA_25.mp4	0.0	329.40725588798523	
70	208.05521488189697	movie	1		300.0	68.0	2.5	/experiments/knapen_aot/videos/S_yt-h8wy6x6oytA_25.mp4	0.0	329.4154098033905	2.50827693939209
70	210.56349182128906	fix_post	2		12.0	68.0	2.5	/experiments/knapen_aot/videos/S_yt-h8wy6x6oytA_25.mp4	0.0	331.9236867427826	0.10006308555603027
71	210.6635549068451	fix_pre	0		148.0	69.0	2.5	blank	1.0	332.0237498283386	1.2333650588989258
71	211.88868689537048	response	0	2		69.0	2.5	blank	1.0	333.248881816864	
71	211.89691996574402	movie	1		301.0	69.0	2.5	blank	1.0	333.25711488723755	2.508305072784424
71	214.40522503852844	fix_post	2		12.0	69.0	2.5	blank	1.0	335.765419960022	0.09996485710144043
72	214.50518989562988	fix_pre	0		53.0	70.0	2.5	/experiments/knapen_aot/videos/R_S_yt-JtR6WZXT2kU_8.mp4	0.0	335.8653848171234	0.4416849613189697
72	214.93872594833374	response	0	2		70.0	2.5	/experiments/knapen_aot/videos/R_S_yt-JtR6WZXT2kU_8.mp4	0.0	336.29892086982727	
72	214.94687485694885	movie	1		298.0	70.0	2.5	/experiments/knapen_aot/videos/R_S_yt-JtR6WZXT2kU_8.mp4	0.0	336.3070697784424	2.5083789825439453
72	217.4552538394928	fix_post	2		12.0	70.0	2.5	/experiments/knapen_aot/videos/R_S_yt-JtR6WZXT2kU_8.mp4	0.0	338.8154487609863	0.1000051498413086
73	217.5552589893341	fix_pre	0		14.0	71.0	2.5	/experiments/knapen_aot/videos/S_yt-etQaTgGOhR4_69.mp4	0.0	338.91545391082764	0.11662793159484863
73	217.66369891166687	response	0	2		71.0	2.5	/experiments/knapen_aot/videos/S_yt-etQaTgGOhR4_69.mp4	0.0	339.0238938331604	
73	217.67188692092896	movie	1		301.0	71.0	2.5	/experiments/knapen_aot/videos/S_yt-etQaTgGOhR4_69.mp4	0.0	339.0320818424225	2.5083789825439453
73	220.1802659034729	fix_post	2		12.0	71.0	2.5	/experiments/knapen_aot/videos/S_yt-etQaTgGOhR4_69.mp4	0.0	341.54046082496643	0.09997701644897461
74	220.28024291992188	fix_pre	0		24.0	72.0	2.5	/experiments/knapen_aot/videos/R_S_comp_HK_H004_C010_PSNK_v08_SDR_PS_20181009_SDR_2K_AVC.mp4	0.0	341.6404378414154	0.20001006126403809
74	220.4645209312439	response	0	2		72.0	2.5	/experiments/knapen_aot/videos/R_S_comp_HK_H004_C010_PSNK_v08_SDR_PS_20181009_SDR_2K_AVC.mp4	0.0	341.8247158527374	
74	220.4802529811859	movie	1		168.0	72.0	2.5	/experiments/knapen_aot/videos/R_S_comp_HK_H004_C010_PSNK_v08_SDR_PS_20181009_SDR_2K_AVC.mp4	0.0	341.84044790267944	2.508296012878418
74	222.98854899406433	fix_post	2		12.0	72.0	2.5	/experiments/knapen_aot/videos/R_S_comp_HK_H004_C010_PSNK_v08_SDR_PS_20181009_SDR_2K_AVC.mp4	0.0	344.34874391555786	0.09997987747192383
75	223.08852887153625	fix_pre	0		10.0	73.0	2.5	/experiments/knapen_aot/videos/S_wc-dwTccI0TNwps_15.mp4	0.0	344.4487237930298	0.08341407775878906
75	223.16397881507874	response	0	2		73.0	2.5	/experiments/knapen_aot/videos/S_wc-dwTccI0TNwps_15.mp4	0.0	344.52417373657227	
75	223.17194294929504	movie	1		301.0	73.0	2.5	/experiments/knapen_aot/videos/S_wc-dwTccI0TNwps_15.mp4	0.0	344.5321378707886	2.5083160400390625
75	225.6802589893341	fix_post	2		12.0	73.0	2.5	/experiments/knapen_aot/videos/S_wc-dwTccI0TNwps_15.mp4	0.0	347.04045391082764	0.09993600845336914
76	225.78019499778748	fix_pre	0		22.0	74.0	2.5	/experiments/knapen_aot/videos/S_yt-35i8UeYXjGw_47.mp4	0.0	347.140389919281	0.183305025100708
76	225.95528101921082	response	0	2		74.0	2.5	/experiments/knapen_aot/videos/S_yt-35i8UeYXjGw_47.mp4	0.0	347.31547594070435	
76	225.96350002288818	movie	1		301.0	74.0	2.5	/experiments/knapen_aot/videos/S_yt-35i8UeYXjGw_47.mp4	0.0	347.3236949443817	2.5083229541778564
76	228.47182297706604	fix_post	2		12.0	74.0	2.5	/experiments/knapen_aot/videos/S_yt-35i8UeYXjGw_47.mp4	0.0	349.83201789855957	0.10005998611450195
77	228.57188296318054	fix_pre	0		23.0	75.0	2.5	blank	1.0	349.9320778846741	0.19152593612670898
77	228.75529885292053	response	0	2		75.0	2.5	blank	1.0	350.11549377441406	
77	228.76340889930725	movie	1		301.0	75.0	2.5	blank	1.0	350.1236038208008	2.5083630084991455
77	231.2717719078064	fix_post	2		12.0	75.0	2.5	blank	1.0	352.6319668292999	0.10004401206970215
78	231.3718159198761	fix_pre	0		47.0	76.0	2.5	/experiments/knapen_aot/videos/R_S_yt-HwGg4-zeWi8_364.mp4	0.0	352.73201084136963	0.3916449546813965
78	231.75527596473694	response	0	2		76.0	2.5	/experiments/knapen_aot/videos/R_S_yt-HwGg4-zeWi8_364.mp4	0.0	353.11547088623047	
78	231.7634608745575	movie	1		301.0	76.0	2.5	/experiments/knapen_aot/videos/R_S_yt-HwGg4-zeWi8_364.mp4	0.0	353.123655796051	2.508352041244507
78	234.271812915802	fix_post	2		12.0	76.0	2.5	/experiments/knapen_aot/videos/R_S_yt-HwGg4-zeWi8_364.mp4	0.0	355.63200783729553	0.1000220775604248
79	234.37183499336243	fix_pre	0		18.0	77.0	2.5	/experiments/knapen_aot/videos/S_yt-NuZy8Rjk4d0_156.mp4	0.0	355.73202991485596	0.14993596076965332
79	234.50607299804688	response	0	2		77.0	2.5	/experiments/knapen_aot/videos/S_yt-NuZy8Rjk4d0_156.mp4	0.0	355.8662679195404	
79	234.52177095413208	movie	1		301.0	77.0	2.5	/experiments/knapen_aot/videos/S_yt-NuZy8Rjk4d0_156.mp4	0.0	355.8819658756256	2.5083510875701904
79	237.03012204170227	fix_post	2		12.0	77.0	2.5	/experiments/knapen_aot/videos/S_yt-NuZy8Rjk4d0_156.mp4	0.0	358.3903169631958	0.10004782676696777
80	237.13016986846924	fix_pre	0		146.0	78.0	2.5	/experiments/knapen_aot/videos/S_yt-4r-oovk9JWg_85.mp4	0.0	358.49036478996277	1.2165939807891846
80	238.33866596221924	response	0	2		78.0	2.5	/experiments/knapen_aot/videos/S_yt-4r-oovk9JWg_85.mp4	0.0	359.69886088371277	
80	238.34676384925842	movie	1		300.0	78.0	2.5	/experiments/knapen_aot/videos/S_yt-4r-oovk9JWg_85.mp4	0.0	359.70695877075195	2.508371114730835
80	240.85513496398926	fix_post	2		12.0	78.0	2.5	/experiments/knapen_aot/videos/S_yt-4r-oovk9JWg_85.mp4	0.0	362.2153298854828	0.10003495216369629
81	240.95516991615295	fix_pre	0		16.0	79.0	2.5	/experiments/knapen_aot/videos/S_yt-JG2OY_7B-gI_537.mp4	0.0	362.3153648376465	0.1333160400390625
81	241.08027601242065	response	0	2		79.0	2.5	/experiments/knapen_aot/videos/S_yt-JG2OY_7B-gI_537.mp4	0.0	362.4404709339142	
81	241.08848595619202	movie	1		301.0	79.0	2.5	/experiments/knapen_aot/videos/S_yt-JG2OY_7B-gI_537.mp4	0.0	362.44868087768555	2.508323907852173
81	243.5968098640442	fix_post	2		12.0	79.0	2.5	/experiments/knapen_aot/videos/S_yt-JG2OY_7B-gI_537.mp4	0.0	364.9570047855377	0.10000205039978027
82	243.69681191444397	fix_pre	0		21.0	80.0	2.5	/experiments/knapen_aot/videos/R_S_yt-MhW2fU45JK8_544.mp4	0.0	365.0570068359375	0.1756129264831543
82	243.8636589050293	response	0	2		80.0	2.5	/experiments/knapen_aot/videos/R_S_yt-MhW2fU45JK8_544.mp4	0.0	365.2238538265228	
82	243.87242484092712	movie	1		301.0	80.0	2.5	/experiments/knapen_aot/videos/R_S_yt-MhW2fU45JK8_544.mp4	0.0	365.23261976242065	2.5077672004699707
82	246.3801920413971	fix_post	2		12.0	80.0	2.5	/experiments/knapen_aot/videos/R_S_yt-MhW2fU45JK8_544.mp4	0.0	367.7403869628906	0.09990286827087402
83	246.48009490966797	fix_pre	0		44.0	81.0	2.5	/experiments/knapen_aot/videos/S_yt-ILARvS15SDQ_741.mp4	0.0	367.8402898311615	0.36663293838500977
83	246.83853197097778	response	0	2		81.0	2.5	/experiments/knapen_aot/videos/S_yt-ILARvS15SDQ_741.mp4	0.0	368.1987268924713	
83	246.84672784805298	movie	1		301.0	81.0	2.5	/experiments/knapen_aot/videos/S_yt-ILARvS15SDQ_741.mp4	0.0	368.2069227695465	2.508310079574585
83	249.35503792762756	fix_post	2		12.0	81.0	2.5	/experiments/knapen_aot/videos/S_yt-ILARvS15SDQ_741.mp4	0.0	370.7152328491211	0.10006403923034668
83	249.38871884346008	response	2	2		81.0	2.5	/experiments/knapen_aot/videos/S_yt-ILARvS15SDQ_741.mp4	0.0	370.7489137649536	
84	249.4551019668579	fix_pre	0		45.0	82.0	2.5	/experiments/knapen_aot/videos/R_S_video_inspire_italy_como_cerano-dintelvi_006.1080-h264.mp4	0.0	370.81529688835144	0.3755359649658203
84	249.82184982299805	response	0	2		82.0	2.5	/experiments/knapen_aot/videos/R_S_video_inspire_italy_como_cerano-dintelvi_006.1080-h264.mp4	0.0	371.1820447444916	
84	249.83063793182373	movie	1		172.0	82.0	2.5	/experiments/knapen_aot/videos/R_S_video_inspire_italy_como_cerano-dintelvi_006.1080-h264.mp4	0.0	371.19083285331726	2.5077970027923584
84	252.3384349346161	fix_post	2		12.0	82.0	2.5	/experiments/knapen_aot/videos/R_S_video_inspire_italy_como_cerano-dintelvi_006.1080-h264.mp4	0.0	373.6986298561096	0.09996294975280762
85	252.4383978843689	fix_pre	0		5.0	83.0	2.5	blank	1.0	373.7985928058624	0.04210710525512695
85	252.4718108177185	response	0	2		83.0	2.5	blank	1.0	373.83200573921204	
85	252.48050498962402	movie	1		301.0	83.0	2.5	blank	1.0	373.84069991111755	2.5078608989715576
85	254.846834897995	response	1	2		83.0	2.5	blank	1.0	376.2070298194885	
85	254.98836588859558	fix_post	2		12.0	83.0	2.5	blank	1.0	376.3485608100891	0.10000109672546387
87	255.08836698532104	stim	0		385.0					376.4485619068146	3.2082948684692383
87	255.23017001152039	response	0	2						376.5903649330139	
87	258.28575897216797	response	0	space						379.6459538936615	
