trial_nr	onset	event_type	phase	response	nr_frames	movie_index	movie_duration	movie_file	blank	onset_abs	duration
0	0.1335430145263672	stim	0		35.0					56.279824018478394	0.2997469902038574
0	0.42502903938293457	response	0	space						56.57131004333496	
1	0.4332900047302246	stim	0		121.0					56.57957100868225	1.0080010890960693
1	1.2830379009246826	response	0	space						57.42931890487671	
1	1.441291093826294	stim	1		120.0					57.58757209777832	0.999884843826294
1	1.7497360706329346	response	1	space						57.89601707458496	
1	2.3838610649108887	response	1	space						58.530142068862915	
2	2.441175937652588	fix_pre	0		78.0	0.0	2.5	/experiments/knapen_aot/videos/S_yt-zQnaVApUPH0_14.mp4	0.0	58.587456941604614	0.6500840187072754
2	3.08296799659729	response	0	space		0.0	2.5	/experiments/knapen_aot/videos/S_yt-zQnaVApUPH0_14.mp4	0.0	59.229249000549316	
2	3.0912599563598633	movie	1		301.0	0.0	2.5	/experiments/knapen_aot/videos/S_yt-zQnaVApUPH0_14.mp4	0.0	59.23754096031189	2.5083630084991455
2	5.599622964859009	fix_post	2		12.0	0.0	2.5	/experiments/knapen_aot/videos/S_yt-zQnaVApUPH0_14.mp4	0.0	61.745903968811035	0.09997010231018066
3	5.6995930671691895	fix_pre	0		17.0	1.0	2.5	/experiments/knapen_aot/videos/S_nTA7B2uHaCQ_1.mp4	0.0	61.845874071121216	0.14166903495788574
3	5.836644887924194	response	0	2		1.0	2.5	/experiments/knapen_aot/videos/S_nTA7B2uHaCQ_1.mp4	0.0	61.98292589187622	
3	5.841262102127075	movie	1		297.0	1.0	2.5	/experiments/knapen_aot/videos/S_nTA7B2uHaCQ_1.mp4	0.0	61.9875431060791	2.50833797454834
3	8.349600076675415	fix_post	2		12.0	1.0	2.5	/experiments/knapen_aot/videos/S_nTA7B2uHaCQ_1.mp4	0.0	64.49588108062744	0.0999898910522461
4	8.449589967727661	fix_pre	0		14.0	2.0	2.5	/experiments/knapen_aot/videos/R_S_comp_LA_A005_C009_PSNK_ALT_v09_SDR_PS_201809134_SDR_2K_AVC.mp4	0.0	64.59587097167969	0.11666297912597656
4	8.550506114959717	response	0	2		2.0	2.5	/experiments/knapen_aot/videos/R_S_comp_LA_A005_C009_PSNK_ALT_v09_SDR_PS_201809134_SDR_2K_AVC.mp4	0.0	64.69678711891174	
4	8.566252946853638	movie	1		167.0	2.0	2.5	/experiments/knapen_aot/videos/R_S_comp_LA_A005_C009_PSNK_ALT_v09_SDR_PS_201809134_SDR_2K_AVC.mp4	0.0	64.71253395080566	2.508455991744995
4	11.074708938598633	fix_post	2		12.0	2.0	2.5	/experiments/knapen_aot/videos/R_S_comp_LA_A005_C009_PSNK_ALT_v09_SDR_PS_201809134_SDR_2K_AVC.mp4	0.0	67.22098994255066	0.09997701644897461
4	11.149669885635376	response	2	2		2.0	2.5	/experiments/knapen_aot/videos/R_S_comp_LA_A005_C009_PSNK_ALT_v09_SDR_PS_201809134_SDR_2K_AVC.mp4	0.0	67.2959508895874	
5	11.174685955047607	fix_pre	0		45.0	3.0	2.5	/experiments/knapen_aot/videos/R_S_ILSVRC2015_train_00471000.mp4	0.0	67.32096695899963	0.3748929500579834
5	11.541346073150635	response	0	2		3.0	2.5	/experiments/knapen_aot/videos/R_S_ILSVRC2015_train_00471000.mp4	0.0	67.68762707710266	
5	11.54957890510559	movie	1		301.0	3.0	2.5	/experiments/knapen_aot/videos/R_S_ILSVRC2015_train_00471000.mp4	0.0	67.69585990905762	2.508364200592041
5	14.057943105697632	fix_post	2		12.0	3.0	2.5	/experiments/knapen_aot/videos/R_S_ILSVRC2015_train_00471000.mp4	0.0	70.20422410964966	0.09997797012329102
6	14.157921075820923	fix_pre	0		7.0	4.0	2.5	/experiments/knapen_aot/videos/R_S_yt-lADkWM79teI_18.mp4	0.0	70.30420207977295	0.058252811431884766
6	14.208041906356812	response	0	2		4.0	2.5	/experiments/knapen_aot/videos/R_S_yt-lADkWM79teI_18.mp4	0.0	70.35432291030884	
6	14.216173887252808	movie	1		301.0	4.0	2.5	/experiments/knapen_aot/videos/R_S_yt-lADkWM79teI_18.mp4	0.0	70.36245489120483	2.508390188217163
6	16.72456407546997	fix_post	2		12.0	4.0	2.5	/experiments/knapen_aot/videos/R_S_yt-lADkWM79teI_18.mp4	0.0	72.870845079422	0.09994792938232422
6	16.80790901184082	response	2	2		4.0	2.5	/experiments/knapen_aot/videos/R_S_yt-lADkWM79teI_18.mp4	0.0	72.95419001579285	
7	16.824512004852295	fix_pre	0		48.0	5.0	2.5	blank	1.0	72.97079300880432	0.40001392364501953
7	17.21627402305603	response	0	2		5.0	2.5	blank	1.0	73.36255502700806	
7	17.224525928497314	movie	1		301.0	5.0	2.5	blank	1.0	73.37080693244934	2.508341073989868
7	19.732867002487183	fix_post	2		12.0	5.0	2.5	blank	1.0	75.87914800643921	0.10001897811889648
8	19.83288598060608	fix_pre	0		107.0	6.0	2.5	/experiments/knapen_aot/videos/S_yt-jcuaf9iSEkI_169.mp4	0.0	75.9791669845581	0.8916370868682861
8	20.71635103225708	response	0	4		6.0	2.5	/experiments/knapen_aot/videos/S_yt-jcuaf9iSEkI_169.mp4	0.0	76.8626320362091	
8	20.724523067474365	movie	1		301.0	6.0	2.5	/experiments/knapen_aot/videos/S_yt-jcuaf9iSEkI_169.mp4	0.0	76.87080407142639	2.5083630084991455
8	20.718300104141235	response	1	2		6.0	2.5	/experiments/knapen_aot/videos/S_yt-jcuaf9iSEkI_169.mp4	0.0	76.86458110809326	
8	23.23288607597351	fix_post	2		12.0	6.0	2.5	/experiments/knapen_aot/videos/S_yt-jcuaf9iSEkI_169.mp4	0.0	79.37916707992554	0.10003995895385742
9	23.332926034927368	fix_pre	0		25.0	7.0	2.5	/experiments/knapen_aot/videos/R_S_yt-pB9w3AA-woE_37.mp4	0.0	79.4792070388794	0.2083430290222168
9	23.533051013946533	response	0	2		7.0	2.5	/experiments/knapen_aot/videos/R_S_yt-pB9w3AA-woE_37.mp4	0.0	79.67933201789856	
9	23.541269063949585	movie	1		301.0	7.0	2.5	/experiments/knapen_aot/videos/R_S_yt-pB9w3AA-woE_37.mp4	0.0	79.68755006790161	2.5084049701690674
9	26.049674034118652	fix_post	2		12.0	7.0	2.5	/experiments/knapen_aot/videos/R_S_yt-pB9w3AA-woE_37.mp4	0.0	82.19595503807068	0.09985899925231934
10	26.14953303337097	fix_pre	0		7.0	8.0	2.5	/experiments/knapen_aot/videos/R_S_yt-kQpE9L-fsNE_55.mp4	0.0	82.295814037323	0.05836892127990723
10	26.1996910572052	response	0	2		8.0	2.5	/experiments/knapen_aot/videos/R_S_yt-kQpE9L-fsNE_55.mp4	0.0	82.34597206115723	
10	26.20790195465088	movie	1		301.0	8.0	2.5	/experiments/knapen_aot/videos/R_S_yt-kQpE9L-fsNE_55.mp4	0.0	82.3541829586029	2.508384943008423
10	28.7162868976593	fix_post	2		12.0	8.0	2.5	/experiments/knapen_aot/videos/R_S_yt-kQpE9L-fsNE_55.mp4	0.0	84.86256790161133	0.0999290943145752
11	28.816215991973877	fix_pre	0		13.0	9.0	2.5	/experiments/knapen_aot/videos/S_ILSVRC2015_train_00471000.mp4	0.0	84.9624969959259	0.1083219051361084
11	28.916306018829346	response	0	2		9.0	2.5	/experiments/knapen_aot/videos/S_ILSVRC2015_train_00471000.mp4	0.0	85.06258702278137	
11	28.924537897109985	movie	1		301.0	9.0	2.5	/experiments/knapen_aot/videos/S_ILSVRC2015_train_00471000.mp4	0.0	85.07081890106201	2.508385181427002
11	31.432923078536987	fix_post	2		12.0	9.0	2.5	/experiments/knapen_aot/videos/S_ILSVRC2015_train_00471000.mp4	0.0	87.57920408248901	0.09986090660095215
12	31.53278398513794	fix_pre	0		15.0	10.0	2.5	/experiments/knapen_aot/videos/S_yt-HwEfWfFJhRo_73.mp4	0.0	87.67906498908997	0.1257030963897705
12	31.64959192276001	response	0	2		10.0	2.5	/experiments/knapen_aot/videos/S_yt-HwEfWfFJhRo_73.mp4	0.0	87.79587292671204	
12	31.65848708152771	movie	1		301.0	10.0	2.5	/experiments/knapen_aot/videos/S_yt-HwEfWfFJhRo_73.mp4	0.0	87.80476808547974	2.5076749324798584
12	34.16616201400757	fix_post	2		12.0	10.0	2.5	/experiments/knapen_aot/videos/S_yt-HwEfWfFJhRo_73.mp4	0.0	90.3124430179596	0.10001492500305176
13	34.26617693901062	fix_pre	0		16.0	11.0	2.5	/experiments/knapen_aot/videos/R_S_yt-2lnxIdOTxog_157.mp4	0.0	90.41245794296265	0.13329315185546875
13	34.39130902290344	response	0	2		11.0	2.5	/experiments/knapen_aot/videos/R_S_yt-2lnxIdOTxog_157.mp4	0.0	90.53759002685547	
13	34.39947009086609	movie	1		301.0	11.0	2.5	/experiments/knapen_aot/videos/R_S_yt-2lnxIdOTxog_157.mp4	0.0	90.54575109481812	2.5083539485931396
13	36.90782403945923	fix_post	2		12.0	11.0	2.5	/experiments/knapen_aot/videos/R_S_yt-2lnxIdOTxog_157.mp4	0.0	93.05410504341125	0.09994101524353027
14	37.00776505470276	fix_pre	0		9.0	12.0	2.5	/experiments/knapen_aot/videos/R_S_ILSVRC2015_train_00599000.mp4	0.0	93.15404605865479	0.07502102851867676
14	37.074573040008545	response	0	2		12.0	2.5	/experiments/knapen_aot/videos/R_S_ILSVRC2015_train_00599000.mp4	0.0	93.22085404396057	
14	37.082786083221436	movie	1		301.0	12.0	2.5	/experiments/knapen_aot/videos/R_S_ILSVRC2015_train_00599000.mp4	0.0	93.22906708717346	2.5083119869232178
14	39.59109807014465	fix_post	2		12.0	12.0	2.5	/experiments/knapen_aot/videos/R_S_ILSVRC2015_train_00599000.mp4	0.0	95.73737907409668	0.1000368595123291
15	39.69113492965698	fix_pre	0		29.0	13.0	2.5	/experiments/knapen_aot/videos/R_S_ILSVRC2015_train_00654000.mp4	0.0	95.83741593360901	0.24162602424621582
15	39.92459797859192	response	0	2		13.0	2.5	/experiments/knapen_aot/videos/R_S_ILSVRC2015_train_00654000.mp4	0.0	96.07087898254395	
15	39.9327609539032	movie	1		301.0	13.0	2.5	/experiments/knapen_aot/videos/R_S_ILSVRC2015_train_00654000.mp4	0.0	96.07904195785522	2.508355140686035
15	42.44111609458923	fix_post	2		12.0	13.0	2.5	/experiments/knapen_aot/videos/R_S_ILSVRC2015_train_00654000.mp4	0.0	98.58739709854126	0.10010981559753418
16	42.54122591018677	fix_pre	0		18.0	14.0	2.5	blank	1.0	98.6875069141388	0.15001606941223145
16	42.67535591125488	response	0	2		14.0	2.5	blank	1.0	98.82163691520691	
16	42.691241979599	movie	1		301.0	14.0	2.5	blank	1.0	98.83752298355103	2.5082080364227295
16	45.19945001602173	fix_post	2		12.0	14.0	2.5	blank	1.0	101.34573101997375	0.10004806518554688
17	45.299498081207275	fix_pre	0		38.0	15.0	2.5	/experiments/knapen_aot/videos/R_S_ILSVRC2015_train_00551000.mp4	0.0	101.4457790851593	0.3171977996826172
17	45.60785102844238	response	0	2		15.0	2.5	/experiments/knapen_aot/videos/R_S_ILSVRC2015_train_00551000.mp4	0.0	101.75413203239441	
17	45.61669588088989	movie	1		301.0	15.0	2.5	/experiments/knapen_aot/videos/R_S_ILSVRC2015_train_00551000.mp4	0.0	101.76297688484192	2.5077550411224365
17	48.12445092201233	fix_post	2		12.0	15.0	2.5	/experiments/knapen_aot/videos/R_S_ILSVRC2015_train_00551000.mp4	0.0	104.27073192596436	0.099945068359375
18	48.224395990371704	fix_pre	0		37.0	16.0	2.5	/experiments/knapen_aot/videos/R_S_yt-TNtO8RPd3iE_25.mp4	0.0	104.37067699432373	0.3088409900665283
18	48.52458095550537	response	0	2		16.0	2.5	/experiments/knapen_aot/videos/R_S_yt-TNtO8RPd3iE_25.mp4	0.0	104.6708619594574	
18	48.53323698043823	movie	1		301.0	16.0	2.5	/experiments/knapen_aot/videos/R_S_yt-TNtO8RPd3iE_25.mp4	0.0	104.67951798439026	2.5078790187835693
18	51.0411159992218	fix_post	2		12.0	16.0	2.5	/experiments/knapen_aot/videos/R_S_yt-TNtO8RPd3iE_25.mp4	0.0	107.18739700317383	0.1000969409942627
19	51.141212940216064	fix_pre	0		86.0	17.0	2.5	/experiments/knapen_aot/videos/S_comp_A105_C003_0212CT_FLARE_v10_SDR_PS_FINAL_20180711_SDR_2K_AVC.mp4	0.0	107.28749394416809	0.7165019512176514
19	51.8494610786438	response	0	2		17.0	2.5	/experiments/knapen_aot/videos/S_comp_A105_C003_0212CT_FLARE_v10_SDR_PS_FINAL_20180711_SDR_2K_AVC.mp4	0.0	107.99574208259583	
19	51.857714891433716	movie	1		162.0	17.0	2.5	/experiments/knapen_aot/videos/S_comp_A105_C003_0212CT_FLARE_v10_SDR_PS_FINAL_20180711_SDR_2K_AVC.mp4	0.0	108.00399589538574	2.5083601474761963
19	54.36607503890991	fix_post	2		12.0	17.0	2.5	/experiments/knapen_aot/videos/S_comp_A105_C003_0212CT_FLARE_v10_SDR_PS_FINAL_20180711_SDR_2K_AVC.mp4	0.0	110.51235604286194	0.09999394416809082
20	54.466068983078	fix_pre	0		24.0	18.0	2.5	/experiments/knapen_aot/videos/S_wc-0SAXOWjdNVGC_8.mp4	0.0	110.61234998703003	0.1999530792236328
20	54.6578369140625	response	0	2		18.0	2.5	/experiments/knapen_aot/videos/S_wc-0SAXOWjdNVGC_8.mp4	0.0	110.80411791801453	
20	54.666022062301636	movie	1		163.0	18.0	2.5	/experiments/knapen_aot/videos/S_wc-0SAXOWjdNVGC_8.mp4	0.0	110.81230306625366	2.5083699226379395
20	57.174391984939575	fix_post	2		12.0	18.0	2.5	/experiments/knapen_aot/videos/S_wc-0SAXOWjdNVGC_8.mp4	0.0	113.3206729888916	0.10002303123474121
21	57.274415016174316	fix_pre	0		24.0	19.0	2.5	/experiments/knapen_aot/videos/S_yt-JPsTqfqfPIY_319.mp4	0.0	113.42069602012634	0.19993090629577637
21	57.46617293357849	response	0	2		19.0	2.5	/experiments/knapen_aot/videos/S_yt-JPsTqfqfPIY_319.mp4	0.0	113.61245393753052	
21	57.47434592247009	movie	1		301.0	19.0	2.5	/experiments/knapen_aot/videos/S_yt-JPsTqfqfPIY_319.mp4	0.0	113.62062692642212	2.5083839893341064
21	59.9827299118042	fix_post	2		12.0	19.0	2.5	/experiments/knapen_aot/videos/S_yt-JPsTqfqfPIY_319.mp4	0.0	116.12901091575623	0.09996318817138672
22	60.082693099975586	fix_pre	0		22.0	20.0	2.5	/experiments/knapen_aot/videos/R_S_yt-o0Hbe7kcPps_70.mp4	0.0	116.22897410392761	0.18330001831054688
22	60.2578399181366	response	0	2		20.0	2.5	/experiments/knapen_aot/videos/R_S_yt-o0Hbe7kcPps_70.mp4	0.0	116.40412092208862	
22	60.26599311828613	movie	1		301.0	20.0	2.5	/experiments/knapen_aot/videos/R_S_yt-o0Hbe7kcPps_70.mp4	0.0	116.41227412223816	2.508544921875
22	62.77453804016113	fix_post	2		12.0	20.0	2.5	/experiments/knapen_aot/videos/R_S_yt-o0Hbe7kcPps_70.mp4	0.0	118.92081904411316	0.09984707832336426
23	62.8743851184845	fix_pre	0		7.0	21.0	2.5	blank	1.0	119.02066612243652	0.05850577354431152
23	62.91782093048096	response	0	2		21.0	2.5	blank	1.0	119.06410193443298	
23	62.93289089202881	movie	1		301.0	21.0	2.5	blank	1.0	119.07917189598083	2.5083281993865967
23	65.4412190914154	fix_post	2		12.0	21.0	2.5	blank	1.0	121.58750009536743	0.09978389739990234
24	65.54100298881531	fix_pre	0		28.0	22.0	2.5	/experiments/knapen_aot/videos/R_S_pexels-rodnae-productions-7467585.mp4	0.0	121.68728399276733	0.2333080768585205
24	65.76614499092102	response	0	2		22.0	2.5	/experiments/knapen_aot/videos/R_S_pexels-rodnae-productions-7467585.mp4	0.0	121.91242599487305	
24	65.77431106567383	movie	1		168.0	22.0	2.5	/experiments/knapen_aot/videos/R_S_pexels-rodnae-productions-7467585.mp4	0.0	121.92059206962585	2.508370876312256
24	68.28268194198608	fix_post	2		12.0	22.0	2.5	/experiments/knapen_aot/videos/R_S_pexels-rodnae-productions-7467585.mp4	0.0	124.42896294593811	0.09994816780090332
25	68.38263010978699	fix_pre	0		177.0	23.0	2.5	/experiments/knapen_aot/videos/S_yt-Ud9uqaeHtY4_302.mp4	0.0	124.52891111373901	1.4750478267669678
25	69.84943008422852	response	0	2		23.0	2.5	/experiments/knapen_aot/videos/S_yt-Ud9uqaeHtY4_302.mp4	0.0	125.99571108818054	
25	69.85767793655396	movie	1		301.0	23.0	2.5	/experiments/knapen_aot/videos/S_yt-Ud9uqaeHtY4_302.mp4	0.0	126.00395894050598	2.5082859992980957
25	72.36596393585205	fix_post	2		12.0	23.0	2.5	/experiments/knapen_aot/videos/S_yt-Ud9uqaeHtY4_302.mp4	0.0	128.51224493980408	0.10012698173522949
26	72.46609091758728	fix_pre	0		27.0	24.0	2.5	/experiments/knapen_aot/videos/R_S_yt-9Z9-RT-ysEE_85.mp4	0.0	128.6123719215393	0.22483110427856445
26	72.68279504776001	response	0	2		24.0	2.5	/experiments/knapen_aot/videos/R_S_yt-9Z9-RT-ysEE_85.mp4	0.0	128.82907605171204	
26	72.69092202186584	movie	1		301.0	24.0	2.5	/experiments/knapen_aot/videos/R_S_yt-9Z9-RT-ysEE_85.mp4	0.0	128.83720302581787	2.508354902267456
26	75.1992769241333	fix_post	2		12.0	24.0	2.5	/experiments/knapen_aot/videos/R_S_yt-9Z9-RT-ysEE_85.mp4	0.0	131.34555792808533	0.10003399848937988
27	75.29931092262268	fix_pre	0		10.0	25.0	2.5	/experiments/knapen_aot/videos/S_yt-o0Hbe7kcPps_70.mp4	0.0	131.4455919265747	0.08340096473693848
27	75.37441992759705	response	0	2		25.0	2.5	/experiments/knapen_aot/videos/S_yt-o0Hbe7kcPps_70.mp4	0.0	131.52070093154907	
27	75.38271188735962	movie	1		301.0	25.0	2.5	/experiments/knapen_aot/videos/S_yt-o0Hbe7kcPps_70.mp4	0.0	131.52899289131165	2.5082600116729736
27	77.89097189903259	fix_post	2		12.0	25.0	2.5	/experiments/knapen_aot/videos/S_yt-o0Hbe7kcPps_70.mp4	0.0	134.03725290298462	0.10001111030578613
27	77.90950393676758	response	2	2		25.0	2.5	/experiments/knapen_aot/videos/S_yt-o0Hbe7kcPps_70.mp4	0.0	134.0557849407196	
28	77.99098300933838	fix_pre	0		35.0	26.0	2.5	/experiments/knapen_aot/videos/S_yt-EKPrSw5xF7k_112.mp4	0.0	134.1372640132904	0.29195189476013184
28	78.27437710762024	response	0	2		26.0	2.5	/experiments/knapen_aot/videos/S_yt-EKPrSw5xF7k_112.mp4	0.0	134.42065811157227	
28	78.28293490409851	movie	1		301.0	26.0	2.5	/experiments/knapen_aot/videos/S_yt-EKPrSw5xF7k_112.mp4	0.0	134.42921590805054	2.5080480575561523
28	80.79098296165466	fix_post	2		12.0	26.0	2.5	/experiments/knapen_aot/videos/S_yt-EKPrSw5xF7k_112.mp4	0.0	136.9372639656067	0.10003495216369629
29	80.89101791381836	fix_pre	0		9.0	27.0	2.5	blank	1.0	137.03729891777039	0.0750741958618164
29	80.95771598815918	response	0	2		27.0	2.5	blank	1.0	137.1039969921112	
29	80.96609210968018	movie	1		301.0	27.0	2.5	blank	1.0	137.1123731136322	2.508150815963745
29	83.47424292564392	fix_post	2		12.0	27.0	2.5	blank	1.0	139.62052392959595	0.10043597221374512
30	83.57467889785767	fix_pre	0		17.0	28.0	2.5	/experiments/knapen_aot/videos/R_S_yt--WPE_4bqQXc_26.mp4	0.0	139.7209599018097	0.14129018783569336
30	83.70774006843567	response	0	2		28.0	2.5	/experiments/knapen_aot/videos/R_S_yt--WPE_4bqQXc_26.mp4	0.0	139.8540210723877	
30	83.71596908569336	movie	1		301.0	28.0	2.5	/experiments/knapen_aot/videos/R_S_yt--WPE_4bqQXc_26.mp4	0.0	139.86225008964539	2.508370876312256
30	86.22433996200562	fix_post	2		12.0	28.0	2.5	/experiments/knapen_aot/videos/R_S_yt--WPE_4bqQXc_26.mp4	0.0	142.37062096595764	0.10033011436462402
31	86.32467007637024	fix_pre	0		18.0	29.0	2.5	/experiments/knapen_aot/videos/S_yt-V_2XgfjJfeQ_67.mp4	0.0	142.47095108032227	0.1495978832244873
31	86.45850896835327	response	0	2		29.0	2.5	/experiments/knapen_aot/videos/S_yt-V_2XgfjJfeQ_67.mp4	0.0	142.6047899723053	
31	86.47426795959473	movie	1		301.0	29.0	2.5	/experiments/knapen_aot/videos/S_yt-V_2XgfjJfeQ_67.mp4	0.0	142.62054896354675	2.508331060409546
31	88.98259902000427	fix_post	2		12.0	29.0	2.5	/experiments/knapen_aot/videos/S_yt-V_2XgfjJfeQ_67.mp4	0.0	145.1288800239563	0.10013604164123535
32	89.08273506164551	fix_pre	0		21.0	30.0	2.5	/experiments/knapen_aot/videos/S_wc-NVeGRb_y_y_5_36.mp4	0.0	145.22901606559753	0.1748509407043457
32	89.24936509132385	response	0	2		30.0	2.5	/experiments/knapen_aot/videos/S_wc-NVeGRb_y_y_5_36.mp4	0.0	145.39564609527588	
32	89.25758600234985	movie	1		166.0	30.0	2.5	/experiments/knapen_aot/videos/S_wc-NVeGRb_y_y_5_36.mp4	0.0	145.40386700630188	2.5083858966827393
32	91.76597189903259	fix_post	2		12.0	30.0	2.5	/experiments/knapen_aot/videos/S_wc-NVeGRb_y_y_5_36.mp4	0.0	147.91225290298462	0.10026407241821289
33	91.8662359714508	fix_pre	0		17.0	31.0	2.5	/experiments/knapen_aot/videos/R_S_comp_A103_C002_0205DG_v12_SDR_FINAL_20180706_SDR_2K_AVC.mp4	0.0	148.01251697540283	0.1414499282836914
33	91.99939393997192	response	0	2		31.0	2.5	/experiments/knapen_aot/videos/R_S_comp_A103_C002_0205DG_v12_SDR_FINAL_20180706_SDR_2K_AVC.mp4	0.0	148.14567494392395	
33	92.0076858997345	movie	1		166.0	31.0	2.5	/experiments/knapen_aot/videos/R_S_comp_A103_C002_0205DG_v12_SDR_FINAL_20180706_SDR_2K_AVC.mp4	0.0	148.15396690368652	2.5083751678466797
33	94.51606106758118	fix_post	2		12.0	31.0	2.5	/experiments/knapen_aot/videos/R_S_comp_A103_C002_0205DG_v12_SDR_FINAL_20180706_SDR_2K_AVC.mp4	0.0	150.6623420715332	0.10013890266418457
34	94.61619997024536	fix_pre	0		14.0	32.0	2.5	/experiments/knapen_aot/videos/S_xTlFOCRvy68_1564.mp4	0.0	150.7624809741974	0.1163020133972168
34	94.72432494163513	response	0	2		32.0	2.5	/experiments/knapen_aot/videos/S_xTlFOCRvy68_1564.mp4	0.0	150.87060594558716	
34	94.73250198364258	movie	1		301.0	32.0	2.5	/experiments/knapen_aot/videos/S_xTlFOCRvy68_1564.mp4	0.0	150.8787829875946	2.5084550380706787
34	95.9876000881195	response	1	2		32.0	2.5	/experiments/knapen_aot/videos/S_xTlFOCRvy68_1564.mp4	0.0	152.13388109207153	
34	97.24095702171326	fix_post	2		12.0	32.0	2.5	/experiments/knapen_aot/videos/S_xTlFOCRvy68_1564.mp4	0.0	153.38723802566528	0.099945068359375
35	97.34090209007263	fix_pre	0		14.0	33.0	2.5	/experiments/knapen_aot/videos/R_S_yt-qBPDvSQD0XY_5.mp4	0.0	153.48718309402466	0.11665487289428711
35	97.44936203956604	response	0	2		33.0	2.5	/experiments/knapen_aot/videos/R_S_yt-qBPDvSQD0XY_5.mp4	0.0	153.59564304351807	
35	97.45755696296692	movie	1		301.0	33.0	2.5	/experiments/knapen_aot/videos/R_S_yt-qBPDvSQD0XY_5.mp4	0.0	153.60383796691895	2.5083839893341064
35	99.96594095230103	fix_post	2		12.0	33.0	2.5	/experiments/knapen_aot/videos/R_S_yt-qBPDvSQD0XY_5.mp4	0.0	156.11222195625305	0.09993410110473633
36	100.06587505340576	fix_pre	0		40.0	34.0	2.5	blank	1.0	156.2121560573578	0.33333587646484375
36	100.39092493057251	response	0	2		34.0	2.5	blank	1.0	156.53720593452454	
36	100.3992109298706	movie	1		301.0	34.0	2.5	blank	1.0	156.54549193382263	2.5083770751953125
36	102.90758800506592	fix_post	2		12.0	34.0	2.5	blank	1.0	159.05386900901794	0.09995102882385254
37	103.00753903388977	fix_pre	0		86.0	35.0	2.5	/experiments/knapen_aot/videos/S_pexels-koolshooters-7327412_1.mp4	0.0	159.1538200378418	0.7166240215301514
37	103.71593594551086	response	0	2		35.0	2.5	/experiments/knapen_aot/videos/S_pexels-koolshooters-7327412_1.mp4	0.0	159.8622169494629	
37	103.72416305541992	movie	1		168.0	35.0	2.5	/experiments/knapen_aot/videos/S_pexels-koolshooters-7327412_1.mp4	0.0	159.87044405937195	2.5084068775177
37	106.23256993293762	fix_post	2		12.0	35.0	2.5	/experiments/knapen_aot/videos/S_pexels-koolshooters-7327412_1.mp4	0.0	162.37885093688965	0.0999760627746582
38	106.33254599571228	fix_pre	0		21.0	36.0	2.5	/experiments/knapen_aot/videos/S_pexels-anthony-shkraba-7569650.mp4	0.0	162.4788269996643	0.1749858856201172
38	106.4992880821228	response	0	2		36.0	2.5	/experiments/knapen_aot/videos/S_pexels-anthony-shkraba-7569650.mp4	0.0	162.64556908607483	
38	106.5075318813324	movie	1		183.0	36.0	2.5	/experiments/knapen_aot/videos/S_pexels-anthony-shkraba-7569650.mp4	0.0	162.65381288528442	2.508333206176758
38	109.01586508750916	fix_post	2		12.0	36.0	2.5	/experiments/knapen_aot/videos/S_pexels-anthony-shkraba-7569650.mp4	0.0	165.16214609146118	0.10022187232971191
39	109.11608695983887	fix_pre	0		19.0	37.0	2.5	/experiments/knapen_aot/videos/R_S_yt-z68VLDDCFdw_93.mp4	0.0	165.2623679637909	0.1580519676208496
39	109.26597595214844	response	0	2		37.0	2.5	/experiments/knapen_aot/videos/R_S_yt-z68VLDDCFdw_93.mp4	0.0	165.41225695610046	
39	109.27413892745972	movie	1		301.0	37.0	2.5	/experiments/knapen_aot/videos/R_S_yt-z68VLDDCFdw_93.mp4	0.0	165.42041993141174	2.508380174636841
39	111.78251910209656	fix_post	2		12.0	37.0	2.5	/experiments/knapen_aot/videos/R_S_yt-z68VLDDCFdw_93.mp4	0.0	167.92880010604858	0.09998393058776855
40	111.88250303268433	fix_pre	0		10.0	38.0	2.5	/experiments/knapen_aot/videos/R_S_comp_A105_C003_0212CT_FLARE_v10_SDR_PS_FINAL_20180711_SDR_2K_AVC.mp4	0.0	168.02878403663635	0.08332300186157227
40	111.95757007598877	response	0	2		38.0	2.5	/experiments/knapen_aot/videos/R_S_comp_A105_C003_0212CT_FLARE_v10_SDR_PS_FINAL_20180711_SDR_2K_AVC.mp4	0.0	168.1038510799408	
40	111.9658260345459	movie	1		164.0	38.0	2.5	/experiments/knapen_aot/videos/R_S_comp_A105_C003_0212CT_FLARE_v10_SDR_PS_FINAL_20180711_SDR_2K_AVC.mp4	0.0	168.11210703849792	2.508344888687134
40	114.47417092323303	fix_post	2		12.0	38.0	2.5	/experiments/knapen_aot/videos/R_S_comp_A105_C003_0212CT_FLARE_v10_SDR_PS_FINAL_20180711_SDR_2K_AVC.mp4	0.0	170.62045192718506	0.10039997100830078
41	114.57457089424133	fix_pre	0		12.0	39.0	2.5	/experiments/knapen_aot/videos/S_ILSVRC2015_train_00292006.mp4	0.0	170.72085189819336	0.09951305389404297
41	114.66596293449402	response	0	2		39.0	2.5	/experiments/knapen_aot/videos/S_ILSVRC2015_train_00292006.mp4	0.0	170.81224393844604	
41	114.67408394813538	movie	1		301.0	39.0	2.5	/experiments/knapen_aot/videos/S_ILSVRC2015_train_00292006.mp4	0.0	170.8203649520874	2.5083930492401123
41	117.18247699737549	fix_post	2		12.0	39.0	2.5	/experiments/knapen_aot/videos/S_ILSVRC2015_train_00292006.mp4	0.0	173.32875800132751	0.10024809837341309
42	117.2827250957489	fix_pre	0		18.0	40.0	2.5	/experiments/knapen_aot/videos/R_S_yt-7VVzNnp36DM_78.mp4	0.0	173.42900609970093	0.14975500106811523
42	117.42428708076477	response	0	2		40.0	2.5	/experiments/knapen_aot/videos/R_S_yt-7VVzNnp36DM_78.mp4	0.0	173.5705680847168	
42	117.43248009681702	movie	1		301.0	40.0	2.5	/experiments/knapen_aot/videos/R_S_yt-7VVzNnp36DM_78.mp4	0.0	173.57876110076904	2.5083999633789062
42	119.94088006019592	fix_post	2		12.0	40.0	2.5	/experiments/knapen_aot/videos/R_S_yt-7VVzNnp36DM_78.mp4	0.0	176.08716106414795	0.09989190101623535
43	120.04077196121216	fix_pre	0		16.0	41.0	2.5	/experiments/knapen_aot/videos/S_yt-lADkWM79teI_18.mp4	0.0	176.18705296516418	0.13332104682922363
43	120.16590309143066	response	0	2		41.0	2.5	/experiments/knapen_aot/videos/S_yt-lADkWM79teI_18.mp4	0.0	176.3121840953827	
43	120.17409300804138	movie	1		301.0	41.0	2.5	/experiments/knapen_aot/videos/S_yt-lADkWM79teI_18.mp4	0.0	176.3203740119934	2.5086050033569336
43	122.68269801139832	fix_post	2		12.0	41.0	2.5	/experiments/knapen_aot/videos/S_yt-lADkWM79teI_18.mp4	0.0	178.82897901535034	0.09997892379760742
44	122.78267693519592	fix_pre	0		14.0	42.0	2.5	blank	1.0	178.92895793914795	0.1163780689239502
44	122.89092302322388	response	0	2		42.0	2.5	blank	1.0	179.0372040271759	
44	122.89905500411987	movie	1		301.0	42.0	2.5	blank	1.0	179.0453360080719	2.5085549354553223
44	125.4076099395752	fix_post	2		12.0	42.0	2.5	blank	1.0	181.55389094352722	0.09987211227416992
45	125.50748205184937	fix_pre	0		35.0	43.0	2.5	/experiments/knapen_aot/videos/R_S_production_ID_4835060.mp4	0.0	181.6537630558014	0.29161596298217773
45	125.79079294204712	response	0	2		43.0	2.5	/experiments/knapen_aot/videos/R_S_production_ID_4835060.mp4	0.0	181.93707394599915	
45	125.79909801483154	movie	1		168.0	43.0	2.5	/experiments/knapen_aot/videos/R_S_production_ID_4835060.mp4	0.0	181.94537901878357	2.5083329677581787
45	128.30743098258972	fix_post	2		12.0	43.0	2.5	/experiments/knapen_aot/videos/R_S_production_ID_4835060.mp4	0.0	184.45371198654175	0.10018301010131836
46	128.40761399269104	fix_pre	0		11.0	44.0	2.5	/experiments/knapen_aot/videos/S_yt-CNq5mTA8oXY_176.mp4	0.0	184.55389499664307	0.09148907661437988
46	128.49089288711548	response	0	2		44.0	2.5	/experiments/knapen_aot/videos/S_yt-CNq5mTA8oXY_176.mp4	0.0	184.6371738910675	
46	128.49910306930542	movie	1		301.0	44.0	2.5	/experiments/knapen_aot/videos/S_yt-CNq5mTA8oXY_176.mp4	0.0	184.64538407325745	2.5083189010620117
46	131.00742197036743	fix_post	2		12.0	44.0	2.5	/experiments/knapen_aot/videos/S_yt-CNq5mTA8oXY_176.mp4	0.0	187.15370297431946	0.10003900527954102
47	131.10746097564697	fix_pre	0		32.0	45.0	2.5	/experiments/knapen_aot/videos/S_ILSVRC2015_train_00444000.mp4	0.0	187.253741979599	0.266603946685791
47	131.3585169315338	response	0	2		45.0	2.5	/experiments/knapen_aot/videos/S_ILSVRC2015_train_00444000.mp4	0.0	187.50479793548584	
47	131.37406492233276	movie	1		301.0	45.0	2.5	/experiments/knapen_aot/videos/S_ILSVRC2015_train_00444000.mp4	0.0	187.5203459262848	2.5083630084991455
47	133.8824279308319	fix_post	2		12.0	45.0	2.5	/experiments/knapen_aot/videos/S_ILSVRC2015_train_00444000.mp4	0.0	190.02870893478394	0.1000220775604248
48	133.98245000839233	fix_pre	0		16.0	46.0	2.5	/experiments/knapen_aot/videos/S_yt-V_2XgfjJfeQ_67.mp4	0.0	190.12873101234436	0.13330292701721191
48	134.10754108428955	response	0	2		46.0	2.5	/experiments/knapen_aot/videos/S_yt-V_2XgfjJfeQ_67.mp4	0.0	190.25382208824158	
48	134.11575293540955	movie	1		301.0	46.0	2.5	/experiments/knapen_aot/videos/S_yt-V_2XgfjJfeQ_67.mp4	0.0	190.26203393936157	2.5083460807800293
48	136.62409901618958	fix_post	2		12.0	46.0	2.5	/experiments/knapen_aot/videos/S_yt-V_2XgfjJfeQ_67.mp4	0.0	192.7703800201416	0.09995007514953613
49	136.7240490913391	fix_pre	0		23.0	47.0	2.5	/experiments/knapen_aot/videos/R_S_yt-NuZy8Rjk4d0_156.mp4	0.0	192.87033009529114	0.19169187545776367
49	136.90754508972168	response	0	2		47.0	2.5	/experiments/knapen_aot/videos/R_S_yt-NuZy8Rjk4d0_156.mp4	0.0	193.0538260936737	
49	136.91574096679688	movie	1		301.0	47.0	2.5	/experiments/knapen_aot/videos/R_S_yt-NuZy8Rjk4d0_156.mp4	0.0	193.0620219707489	2.508502960205078
49	139.42424392700195	fix_post	2		12.0	47.0	2.5	/experiments/knapen_aot/videos/R_S_yt-NuZy8Rjk4d0_156.mp4	0.0	195.57052493095398	0.09982514381408691
50	139.52406907081604	fix_pre	0		13.0	48.0	2.5	/experiments/knapen_aot/videos/R_S_yt-EKPrSw5xF7k_112.mp4	0.0	195.67035007476807	0.10828495025634766
50	139.62412405014038	response	0	2		48.0	2.5	/experiments/knapen_aot/videos/R_S_yt-EKPrSw5xF7k_112.mp4	0.0	195.7704050540924	
50	139.6323540210724	movie	1		301.0	48.0	2.5	/experiments/knapen_aot/videos/R_S_yt-EKPrSw5xF7k_112.mp4	0.0	195.7786350250244	2.508344888687134
50	142.14069890975952	fix_post	2		12.0	48.0	2.5	/experiments/knapen_aot/videos/R_S_yt-EKPrSw5xF7k_112.mp4	0.0	198.28697991371155	0.10033106803894043
51	142.24102997779846	fix_pre	0		9.0	49.0	2.5	blank	1.0	198.3873109817505	0.07465291023254395
51	142.30751299858093	response	0	2		49.0	2.5	blank	1.0	198.45379400253296	
51	142.315682888031	movie	1		301.0	49.0	2.5	blank	1.0	198.46196389198303	2.5085110664367676
51	144.82419395446777	fix_post	2		12.0	49.0	2.5	blank	1.0	200.9704749584198	0.09985804557800293
52	144.92405200004578	fix_pre	0		14.0	50.0	2.5	/experiments/knapen_aot/videos/R_S_ILSVRC2015_train_00017007.mp4	0.0	201.0703330039978	0.11660909652709961
52	145.032408952713	response	0	2		50.0	2.5	/experiments/knapen_aot/videos/R_S_ILSVRC2015_train_00017007.mp4	0.0	201.17868995666504	
52	145.04066109657288	movie	1		301.0	50.0	2.5	/experiments/knapen_aot/videos/R_S_ILSVRC2015_train_00017007.mp4	0.0	201.1869421005249	2.5085599422454834
52	147.46575593948364	response	1	2		50.0	2.5	/experiments/knapen_aot/videos/R_S_ILSVRC2015_train_00017007.mp4	0.0	203.61203694343567	
52	147.54922103881836	fix_post	2		12.0	50.0	2.5	/experiments/knapen_aot/videos/R_S_ILSVRC2015_train_00017007.mp4	0.0	203.69550204277039	0.10018491744995117
53	147.6494059562683	fix_pre	0		30.0	51.0	2.5	/experiments/knapen_aot/videos/R_S_yt-Y3pi1bgUwIg_78.mp4	0.0	203.79568696022034	0.24954915046691895
53	147.89070296287537	response	0	2		51.0	2.5	/experiments/knapen_aot/videos/R_S_yt-Y3pi1bgUwIg_78.mp4	0.0	204.0369839668274	
53	147.89895510673523	movie	1		301.0	51.0	2.5	/experiments/knapen_aot/videos/R_S_yt-Y3pi1bgUwIg_78.mp4	0.0	204.04523611068726	2.5084378719329834
53	150.4073929786682	fix_post	2		12.0	51.0	2.5	/experiments/knapen_aot/videos/R_S_yt-Y3pi1bgUwIg_78.mp4	0.0	206.55367398262024	0.10006594657897949
54	150.5074589252472	fix_pre	0		2.0	52.0	2.5	/experiments/knapen_aot/videos/R_S_yt-b29VtKvlnWE_430.mp4	0.0	206.65373992919922	0.01654195785522461
54	150.51571106910706	response	0	2		52.0	2.5	/experiments/knapen_aot/videos/R_S_yt-b29VtKvlnWE_430.mp4	0.0	206.66199207305908	
54	150.52400088310242	movie	1		301.0	52.0	2.5	/experiments/knapen_aot/videos/R_S_yt-b29VtKvlnWE_430.mp4	0.0	206.67028188705444	2.5085840225219727
54	153.0325849056244	fix_post	2		12.0	52.0	2.5	/experiments/knapen_aot/videos/R_S_yt-b29VtKvlnWE_430.mp4	0.0	209.17886590957642	0.09986019134521484
55	153.1324450969696	fix_pre	0		9.0	53.0	2.5	/experiments/knapen_aot/videos/R_S_flickr-51283549@N02-23064904264_16.mp4	0.0	209.27872610092163	0.07487893104553223
55	153.19920301437378	response	0	2		53.0	2.5	/experiments/knapen_aot/videos/R_S_flickr-51283549@N02-23064904264_16.mp4	0.0	209.3454840183258	
55	153.20732402801514	movie	1		166.0	53.0	2.5	/experiments/knapen_aot/videos/R_S_flickr-51283549@N02-23064904264_16.mp4	0.0	209.35360503196716	2.5083789825439453
55	155.71570301055908	fix_post	2		12.0	53.0	2.5	/experiments/knapen_aot/videos/R_S_flickr-51283549@N02-23064904264_16.mp4	0.0	211.8619840145111	0.10020089149475098
56	155.81590390205383	fix_pre	0		22.0	54.0	2.5	/experiments/knapen_aot/videos/S_comp_GMT329_117NC_401C_1037_IRELAND_TO_ASIA_v48_SDR_PS_FINAL_20180725_F0F6300_SDR_2K_AVC.mp4	0.0	211.96218490600586	0.1831040382385254
56	155.9908471107483	response	0	2		54.0	2.5	/experiments/knapen_aot/videos/S_comp_GMT329_117NC_401C_1037_IRELAND_TO_ASIA_v48_SDR_PS_FINAL_20180725_F0F6300_SDR_2K_AVC.mp4	0.0	212.13712811470032	
56	155.99900794029236	movie	1		164.0	54.0	2.5	/experiments/knapen_aot/videos/S_comp_GMT329_117NC_401C_1037_IRELAND_TO_ASIA_v48_SDR_PS_FINAL_20180725_F0F6300_SDR_2K_AVC.mp4	0.0	212.14528894424438	2.5082340240478516
56	158.5072419643402	fix_post	2		12.0	54.0	2.5	/experiments/knapen_aot/videos/S_comp_GMT329_117NC_401C_1037_IRELAND_TO_ASIA_v48_SDR_PS_FINAL_20180725_F0F6300_SDR_2K_AVC.mp4	0.0	214.65352296829224	0.10007810592651367
57	158.60732007026672	fix_pre	0		12.0	55.0	2.5	blank	1.0	214.75360107421875	0.10001802444458008
57	158.6991240978241	response	0	2		55.0	2.5	blank	1.0	214.84540510177612	
57	158.7073380947113	movie	1		301.0	55.0	2.5	blank	1.0	214.85361909866333	2.508344888687134
57	161.21568298339844	fix_post	2		12.0	55.0	2.5	blank	1.0	217.36196398735046	0.10028791427612305
58	161.31597089767456	fix_pre	0		31.0	56.0	2.5	/experiments/knapen_aot/videos/R_S_pexels-c-technical-6763571.mp4	0.0	217.4622519016266	0.2579801082611084
58	161.56566095352173	response	0	2		56.0	2.5	/experiments/knapen_aot/videos/R_S_pexels-c-technical-6763571.mp4	0.0	217.71194195747375	
58	161.57395100593567	movie	1		196.0	56.0	2.5	/experiments/knapen_aot/videos/R_S_pexels-c-technical-6763571.mp4	0.0	217.7202320098877	2.508327007293701
58	164.08227801322937	fix_post	2		12.0	56.0	2.5	/experiments/knapen_aot/videos/R_S_pexels-c-technical-6763571.mp4	0.0	220.2285590171814	0.10023808479309082
59	164.18251609802246	fix_pre	0		13.0	57.0	2.5	/experiments/knapen_aot/videos/R_S_yt-NqyG4Ar2JWo_10.mp4	0.0	220.3287971019745	0.10810399055480957
59	164.2823839187622	response	0	2		57.0	2.5	/experiments/knapen_aot/videos/R_S_yt-NqyG4Ar2JWo_10.mp4	0.0	220.42866492271423	
59	164.29062008857727	movie	1		301.0	57.0	2.5	/experiments/knapen_aot/videos/R_S_yt-NqyG4Ar2JWo_10.mp4	0.0	220.4369010925293	2.508427858352661
59	166.79904794692993	fix_post	2		12.0	57.0	2.5	/experiments/knapen_aot/videos/R_S_yt-NqyG4Ar2JWo_10.mp4	0.0	222.94532895088196	0.09994697570800781
60	166.89899492263794	fix_pre	0		29.0	58.0	2.5	/experiments/knapen_aot/videos/R_S_EFR8AteY59I_15.mp4	0.0	223.04527592658997	0.24154210090637207
60	167.13237595558167	response	0	2		58.0	2.5	/experiments/knapen_aot/videos/R_S_EFR8AteY59I_15.mp4	0.0	223.2786569595337	
60	167.1405370235443	movie	1		301.0	58.0	2.5	/experiments/knapen_aot/videos/R_S_EFR8AteY59I_15.mp4	0.0	223.28681802749634	2.5084049701690674
60	169.64894199371338	fix_post	2		12.0	58.0	2.5	/experiments/knapen_aot/videos/R_S_EFR8AteY59I_15.mp4	0.0	225.7952229976654	0.10003399848937988
61	169.74897599220276	fix_pre	0		11.0	59.0	2.5	/experiments/knapen_aot/videos/R_S_ILSVRC2015_train_00682009.mp4	0.0	225.89525699615479	0.09168004989624023
61	169.83232593536377	response	0	2		59.0	2.5	/experiments/knapen_aot/videos/R_S_ILSVRC2015_train_00682009.mp4	0.0	225.9786069393158	
61	169.840656042099	movie	1		301.0	59.0	2.5	/experiments/knapen_aot/videos/R_S_ILSVRC2015_train_00682009.mp4	0.0	225.98693704605103	2.5083539485931396
61	172.34900999069214	fix_post	2		12.0	59.0	2.5	/experiments/knapen_aot/videos/R_S_ILSVRC2015_train_00682009.mp4	0.0	228.49529099464417	0.09991097450256348
62	172.4489209651947	fix_pre	0		12.0	60.0	2.5	/experiments/knapen_aot/videos/S_yt-alGXD2Drh_g_19.mp4	0.0	228.59520196914673	0.10007214546203613
62	172.5333058834076	response	0	2		60.0	2.5	/experiments/knapen_aot/videos/S_yt-alGXD2Drh_g_19.mp4	0.0	228.67958688735962	
62	172.54899311065674	movie	1		301.0	60.0	2.5	/experiments/knapen_aot/videos/S_yt-alGXD2Drh_g_19.mp4	0.0	228.69527411460876	2.5082669258117676
62	175.0572600364685	fix_post	2		12.0	60.0	2.5	/experiments/knapen_aot/videos/S_yt-alGXD2Drh_g_19.mp4	0.0	231.20354104042053	0.09997105598449707
63	175.157231092453	fix_pre	0		13.0	61.0	2.5	blank	1.0	231.30351209640503	0.10831093788146973
63	175.25736594200134	response	0	2		61.0	2.5	blank	1.0	231.40364694595337	
63	175.26554203033447	movie	1		301.0	61.0	2.5	blank	1.0	231.4118230342865	2.508359909057617
63	177.7739019393921	fix_post	2		12.0	61.0	2.5	blank	1.0	233.92018294334412	0.10007214546203613
64	177.87397408485413	fix_pre	0		29.0	62.0	2.5	/experiments/knapen_aot/videos/R_S_comp_C001_C005_PS_v01_SDR_PS_20180925_SDR_2K_AVC.mp4	0.0	234.02025508880615	0.24156689643859863
64	178.10731101036072	response	0	2		62.0	2.5	/experiments/knapen_aot/videos/R_S_comp_C001_C005_PS_v01_SDR_PS_20180925_SDR_2K_AVC.mp4	0.0	234.25359201431274	
64	178.11554098129272	movie	1		169.0	62.0	2.5	/experiments/knapen_aot/videos/R_S_comp_C001_C005_PS_v01_SDR_PS_20180925_SDR_2K_AVC.mp4	0.0	234.26182198524475	2.5083670616149902
64	180.62390804290771	fix_post	2		12.0	62.0	2.5	/experiments/knapen_aot/videos/R_S_comp_C001_C005_PS_v01_SDR_PS_20180925_SDR_2K_AVC.mp4	0.0	236.77018904685974	0.10000205039978027
64	180.69059896469116	response	2	2		62.0	2.5	/experiments/knapen_aot/videos/R_S_comp_C001_C005_PS_v01_SDR_PS_20180925_SDR_2K_AVC.mp4	0.0	236.8368799686432	
65	180.7239100933075	fix_pre	0		45.0	63.0	2.5	/experiments/knapen_aot/videos/R_S_yt-mQESmS4uqRU_208.mp4	0.0	236.87019109725952	0.3749549388885498
65	181.09067606925964	response	0	2		63.0	2.5	/experiments/knapen_aot/videos/R_S_yt-mQESmS4uqRU_208.mp4	0.0	237.23695707321167	
65	181.09886503219604	movie	1		301.0	63.0	2.5	/experiments/knapen_aot/videos/R_S_yt-mQESmS4uqRU_208.mp4	0.0	237.24514603614807	2.508341073989868
65	183.6072061061859	fix_post	2		12.0	63.0	2.5	/experiments/knapen_aot/videos/R_S_yt-mQESmS4uqRU_208.mp4	0.0	239.75348711013794	0.10005998611450195
66	183.70726609230042	fix_pre	0		22.0	64.0	2.5	/experiments/knapen_aot/videos/S_yt-HRuCkU_kBoE_239.mp4	0.0	239.85354709625244	0.18335890769958496
66	183.87490797042847	response	0	2		64.0	2.5	/experiments/knapen_aot/videos/S_yt-HRuCkU_kBoE_239.mp4	0.0	240.0211889743805	
66	183.890625	movie	1		301.0	64.0	2.5	/experiments/knapen_aot/videos/S_yt-HRuCkU_kBoE_239.mp4	0.0	240.03690600395203	2.5083909034729004
66	186.3990159034729	fix_post	2		12.0	64.0	2.5	/experiments/knapen_aot/videos/S_yt-HRuCkU_kBoE_239.mp4	0.0	242.54529690742493	0.10006999969482422
67	186.49908590316772	fix_pre	0		58.0	65.0	2.5	/experiments/knapen_aot/videos/R_S_yt-E8EDQCPbBeI_196.mp4	0.0	242.64536690711975	0.4830811023712158
67	186.97392010688782	response	0	2		65.0	2.5	/experiments/knapen_aot/videos/R_S_yt-E8EDQCPbBeI_196.mp4	0.0	243.12020111083984	
67	186.98216700553894	movie	1		301.0	65.0	2.5	/experiments/knapen_aot/videos/R_S_yt-E8EDQCPbBeI_196.mp4	0.0	243.12844800949097	2.5083730220794678
67	189.4905400276184	fix_post	2		12.0	65.0	2.5	/experiments/knapen_aot/videos/R_S_yt-E8EDQCPbBeI_196.mp4	0.0	245.63682103157043	0.10000085830688477
68	189.5905408859253	fix_pre	0		35.0	66.0	2.5	/experiments/knapen_aot/videos/R_S_yt-Y3pi1bgUwIg_78.mp4	0.0	245.73682188987732	0.2916231155395508
68	189.8665690422058	response	0	2		66.0	2.5	/experiments/knapen_aot/videos/R_S_yt-Y3pi1bgUwIg_78.mp4	0.0	246.01285004615784	
68	189.88216400146484	movie	1		301.0	66.0	2.5	/experiments/knapen_aot/videos/R_S_yt-Y3pi1bgUwIg_78.mp4	0.0	246.02844500541687	2.5084168910980225
68	192.34891891479492	response	1	2		66.0	2.5	/experiments/knapen_aot/videos/R_S_yt-Y3pi1bgUwIg_78.mp4	0.0	248.49519991874695	
68	192.39058089256287	fix_post	2		12.0	66.0	2.5	/experiments/knapen_aot/videos/R_S_yt-Y3pi1bgUwIg_78.mp4	0.0	248.5368618965149	0.09988021850585938
69	192.49046111106873	fix_pre	0		45.0	67.0	2.5	/experiments/knapen_aot/videos/S_comp_GL_G004_C010_PSNK_v04_SDR_PS_FINAL_20180709_SDR_2K_AVC.mp4	0.0	248.63674211502075	0.3750309944152832
69	192.85715699195862	response	0	2		67.0	2.5	/experiments/knapen_aot/videos/S_comp_GL_G004_C010_PSNK_v04_SDR_PS_FINAL_20180709_SDR_2K_AVC.mp4	0.0	249.00343799591064	
69	192.865492105484	movie	1		167.0	67.0	2.5	/experiments/knapen_aot/videos/S_comp_GL_G004_C010_PSNK_v04_SDR_PS_FINAL_20180709_SDR_2K_AVC.mp4	0.0	249.01177310943604	2.508314847946167
69	195.2655520439148	response	1	2		67.0	2.5	/experiments/knapen_aot/videos/S_comp_GL_G004_C010_PSNK_v04_SDR_PS_FINAL_20180709_SDR_2K_AVC.mp4	0.0	251.41183304786682	
69	195.37380695343018	fix_post	2		12.0	67.0	2.5	/experiments/knapen_aot/videos/S_comp_GL_G004_C010_PSNK_v04_SDR_PS_FINAL_20180709_SDR_2K_AVC.mp4	0.0	251.5200879573822	0.10029196739196777
70	195.47409892082214	fix_pre	0		31.0	68.0	2.5	blank	1.0	251.62037992477417	0.2580440044403076
70	195.72393894195557	response	0	2		68.0	2.5	blank	1.0	251.8702199459076	
70	195.73214292526245	movie	1		301.0	68.0	2.5	blank	1.0	251.87842392921448	2.5083541870117188
70	198.24049711227417	fix_post	2		12.0	68.0	2.5	blank	1.0	254.3867781162262	0.10002899169921875
71	198.3405261039734	fix_pre	0		28.0	69.0	2.5	/experiments/knapen_aot/videos/S_nTA7B2uHaCQ_1.mp4	0.0	254.48680710792542	0.23322200775146484
71	198.56558394432068	response	0	2		69.0	2.5	/experiments/knapen_aot/videos/S_nTA7B2uHaCQ_1.mp4	0.0	254.7118649482727	
71	198.57374811172485	movie	1		301.0	69.0	2.5	/experiments/knapen_aot/videos/S_nTA7B2uHaCQ_1.mp4	0.0	254.72002911567688	2.508342981338501
71	201.08209109306335	fix_post	2		12.0	69.0	2.5	/experiments/knapen_aot/videos/S_nTA7B2uHaCQ_1.mp4	0.0	257.2283720970154	0.1000819206237793
72	201.18217301368713	fix_pre	0		24.0	70.0	2.5	/experiments/knapen_aot/videos/R_S_yt-qBPDvSQD0XY_5.mp4	0.0	257.32845401763916	0.19988799095153809
72	201.3738739490509	response	0	2		70.0	2.5	/experiments/knapen_aot/videos/R_S_yt-qBPDvSQD0XY_5.mp4	0.0	257.52015495300293	
72	201.38206100463867	movie	1		301.0	70.0	2.5	/experiments/knapen_aot/videos/R_S_yt-qBPDvSQD0XY_5.mp4	0.0	257.5283420085907	2.5083909034729004
72	203.89045190811157	fix_post	2		12.0	70.0	2.5	/experiments/knapen_aot/videos/R_S_yt-qBPDvSQD0XY_5.mp4	0.0	260.0367329120636	0.10000109672546387
73	203.99045300483704	fix_pre	0		45.0	71.0	2.5	/experiments/knapen_aot/videos/R_S_yt-LZS1RrEtTeQ_136.mp4	0.0	260.13673400878906	0.3749809265136719
73	204.35721397399902	response	0	2		71.0	2.5	/experiments/knapen_aot/videos/R_S_yt-LZS1RrEtTeQ_136.mp4	0.0	260.50349497795105	
73	204.3654339313507	movie	1		301.0	71.0	2.5	/experiments/knapen_aot/videos/R_S_yt-LZS1RrEtTeQ_136.mp4	0.0	260.51171493530273	2.5083630084991455
73	206.87379693984985	fix_post	2		12.0	71.0	2.5	/experiments/knapen_aot/videos/R_S_yt-LZS1RrEtTeQ_136.mp4	0.0	263.0200779438019	0.10002708435058594
74	206.97382402420044	fix_pre	0		20.0	72.0	2.5	/experiments/knapen_aot/videos/S_yt-TNtO8RPd3iE_25.mp4	0.0	263.12010502815247	0.16664505004882812
74	207.13220191001892	response	0	2		72.0	2.5	/experiments/knapen_aot/videos/S_yt-TNtO8RPd3iE_25.mp4	0.0	263.27848291397095	
74	207.14046907424927	movie	1		301.0	72.0	2.5	/experiments/knapen_aot/videos/S_yt-TNtO8RPd3iE_25.mp4	0.0	263.2867500782013	2.5083189010620117
74	209.64878797531128	fix_post	2		12.0	72.0	2.5	/experiments/knapen_aot/videos/S_yt-TNtO8RPd3iE_25.mp4	0.0	265.7950689792633	0.10000801086425781
75	209.74879598617554	fix_pre	0		24.0	73.0	2.5	/experiments/knapen_aot/videos/S_yt-ZE8Af60eNsI_15.mp4	0.0	265.89507699012756	0.2000749111175537
75	209.94058799743652	response	0	2		73.0	2.5	/experiments/knapen_aot/videos/S_yt-ZE8Af60eNsI_15.mp4	0.0	266.08686900138855	
75	209.9488708972931	movie	1		301.0	73.0	2.5	/experiments/knapen_aot/videos/S_yt-ZE8Af60eNsI_15.mp4	0.0	266.0951519012451	2.5082831382751465
75	212.45715403556824	fix_post	2		12.0	73.0	2.5	/experiments/knapen_aot/videos/S_yt-ZE8Af60eNsI_15.mp4	0.0	268.60343503952026	0.09987688064575195
76	212.557030916214	fix_pre	0		18.0	74.0	2.5	/experiments/knapen_aot/videos/S_comp_A009_C001_010181A_v09_SDR_PS_FINAL_20180725_SDR_2K_AVC.mp4	0.0	268.703311920166	0.15006303787231445
76	212.69891810417175	response	0	2		74.0	2.5	/experiments/knapen_aot/videos/S_comp_A009_C001_010181A_v09_SDR_PS_FINAL_20180725_SDR_2K_AVC.mp4	0.0	268.8451991081238	
76	212.7070939540863	movie	1		167.0	74.0	2.5	/experiments/knapen_aot/videos/S_comp_A009_C001_010181A_v09_SDR_PS_FINAL_20180725_SDR_2K_AVC.mp4	0.0	268.85337495803833	2.508247137069702
76	215.215341091156	fix_post	2		12.0	74.0	2.5	/experiments/knapen_aot/videos/S_comp_A009_C001_010181A_v09_SDR_PS_FINAL_20180725_SDR_2K_AVC.mp4	0.0	271.36162209510803	0.10026288032531738
77	215.31560397148132	fix_pre	0		8.0	75.0	2.5	blank	1.0	271.46188497543335	0.06642413139343262
77	215.37384009361267	response	0	2		75.0	2.5	blank	1.0	271.5201210975647	
77	215.38202810287476	movie	1		301.0	75.0	2.5	blank	1.0	271.5283091068268	2.508370876312256
77	217.890398979187	fix_post	2		12.0	75.0	2.5	blank	1.0	274.03667998313904	0.10017704963684082
78	217.99057602882385	fix_pre	0		46.0	76.0	2.5	/experiments/knapen_aot/videos/S_wc-ikynRrpJVaWp_12.mp4	0.0	274.1368570327759	0.3832359313964844
78	218.36547708511353	response	0	2		76.0	2.5	/experiments/knapen_aot/videos/S_wc-ikynRrpJVaWp_12.mp4	0.0	274.51175808906555	
78	218.37381196022034	movie	1		164.0	76.0	2.5	/experiments/knapen_aot/videos/S_wc-ikynRrpJVaWp_12.mp4	0.0	274.52009296417236	2.508315086364746
78	220.88212704658508	fix_post	2		12.0	76.0	2.5	/experiments/knapen_aot/videos/S_wc-ikynRrpJVaWp_12.mp4	0.0	277.0284080505371	0.0999760627746582
79	220.98210310935974	fix_pre	0		52.0	77.0	2.5	/experiments/knapen_aot/videos/S_flickr-51283549@N02-23064904264_16.mp4	0.0	277.12838411331177	0.43321895599365234
79	221.39964699745178	response	0	2		77.0	2.5	/experiments/knapen_aot/videos/S_flickr-51283549@N02-23064904264_16.mp4	0.0	277.5459280014038	
79	221.4153220653534	movie	1		163.0	77.0	2.5	/experiments/knapen_aot/videos/S_flickr-51283549@N02-23064904264_16.mp4	0.0	277.5616030693054	2.5084168910980225
79	223.92373895645142	fix_post	2		12.0	77.0	2.5	/experiments/knapen_aot/videos/S_flickr-51283549@N02-23064904264_16.mp4	0.0	280.07001996040344	0.10002803802490234
80	224.02376699447632	fix_pre	0		20.0	78.0	2.5	/experiments/knapen_aot/videos/S_yt-K0CzoUy_uIA_22.mp4	0.0	280.17004799842834	0.16760802268981934
80	224.18207693099976	response	0	2		78.0	2.5	/experiments/knapen_aot/videos/S_yt-K0CzoUy_uIA_22.mp4	0.0	280.3283579349518	
80	224.19137501716614	movie	1		301.0	78.0	2.5	/experiments/knapen_aot/videos/S_yt-K0CzoUy_uIA_22.mp4	0.0	280.33765602111816	2.5073139667510986
80	226.6155140399933	response	1	2		78.0	2.5	/experiments/knapen_aot/videos/S_yt-K0CzoUy_uIA_22.mp4	0.0	282.7617950439453	
80	226.69868898391724	fix_post	2		12.0	78.0	2.5	/experiments/knapen_aot/videos/S_yt-K0CzoUy_uIA_22.mp4	0.0	282.84496998786926	0.09997105598449707
81	226.79866003990173	fix_pre	0		26.0	79.0	2.5	/experiments/knapen_aot/videos/S_yt-LUIvP_NDWAs_45.mp4	0.0	282.94494104385376	0.21663498878479004
81	227.00706601142883	response	0	2		79.0	2.5	/experiments/knapen_aot/videos/S_yt-LUIvP_NDWAs_45.mp4	0.0	283.15334701538086	
81	227.01529502868652	movie	1		301.0	79.0	2.5	/experiments/knapen_aot/videos/S_yt-LUIvP_NDWAs_45.mp4	0.0	283.16157603263855	2.5084168910980225
81	229.52371191978455	fix_post	2		12.0	79.0	2.5	/experiments/knapen_aot/videos/S_yt-LUIvP_NDWAs_45.mp4	0.0	285.6699929237366	0.10001611709594727
82	229.6237280368805	fix_pre	0		10.0	80.0	2.5	/experiments/knapen_aot/videos/R_S_yt-NuZy8Rjk4d0_156.mp4	0.0	285.7700090408325	0.08323407173156738
82	229.6988010406494	response	0	2		80.0	2.5	/experiments/knapen_aot/videos/R_S_yt-NuZy8Rjk4d0_156.mp4	0.0	285.84508204460144	
82	229.70696210861206	movie	1		301.0	80.0	2.5	/experiments/knapen_aot/videos/R_S_yt-NuZy8Rjk4d0_156.mp4	0.0	285.8532431125641	2.5084798336029053
82	232.21544194221497	fix_post	2		12.0	80.0	2.5	/experiments/knapen_aot/videos/R_S_yt-NuZy8Rjk4d0_156.mp4	0.0	288.361722946167	0.0999140739440918
83	232.31535601615906	fix_pre	0		18.0	81.0	2.5	/experiments/knapen_aot/videos/R_S_video_inspire_california_santa-barbara_050.1080-h264.mp4	0.0	288.4616370201111	0.14991497993469238
83	232.45712089538574	response	0	2		81.0	2.5	/experiments/knapen_aot/videos/R_S_video_inspire_california_santa-barbara_050.1080-h264.mp4	0.0	288.60340189933777	
83	232.46527099609375	movie	1		166.0	81.0	2.5	/experiments/knapen_aot/videos/R_S_video_inspire_california_santa-barbara_050.1080-h264.mp4	0.0	288.6115520000458	2.5085439682006836
83	234.97381496429443	fix_post	2		12.0	81.0	2.5	/experiments/knapen_aot/videos/R_S_video_inspire_california_santa-barbara_050.1080-h264.mp4	0.0	291.12009596824646	0.0998690128326416
84	235.07368397712708	fix_pre	0		7.0	82.0	2.5	/experiments/knapen_aot/videos/S_comp_GMT329_117NC_401C_1037_IRELAND_TO_ASIA_v48_SDR_PS_FINAL_20180725_F0F6300_SDR_2K_AVC.mp4	0.0	291.2199649810791	0.05832791328430176
84	235.12376594543457	response	0	2		82.0	2.5	/experiments/knapen_aot/videos/S_comp_GMT329_117NC_401C_1037_IRELAND_TO_ASIA_v48_SDR_PS_FINAL_20180725_F0F6300_SDR_2K_AVC.mp4	0.0	291.2700469493866	
84	235.13201189041138	movie	1		163.0	82.0	2.5	/experiments/knapen_aot/videos/S_comp_GMT329_117NC_401C_1037_IRELAND_TO_ASIA_v48_SDR_PS_FINAL_20180725_F0F6300_SDR_2K_AVC.mp4	0.0	291.2782928943634	2.508350133895874
84	237.64036202430725	fix_post	2		12.0	82.0	2.5	/experiments/knapen_aot/videos/S_comp_GMT329_117NC_401C_1037_IRELAND_TO_ASIA_v48_SDR_PS_FINAL_20180725_F0F6300_SDR_2K_AVC.mp4	0.0	293.7866430282593	0.09997296333312988
85	237.74033498764038	fix_pre	0		40.0	83.0	2.5	blank	1.0	293.8866159915924	0.3332021236419678
85	238.0653738975525	response	0	2		83.0	2.5	blank	1.0	294.2116549015045	
85	238.07353711128235	movie	1		301.0	83.0	2.5	blank	1.0	294.2198181152344	2.508455991744995
85	240.58199310302734	fix_post	2		12.0	83.0	2.5	blank	1.0	296.72827410697937	0.0999917984008789
87	240.68198490142822	stim	0		201.0					296.82826590538025	1.6758520603179932
87	242.3519480228424	response	0	space						298.49822902679443	
