trial_nr	onset	event_type	phase	response	nr_frames	movie_index	movie_duration	movie_file	blank	onset_abs	duration
0	0.12895488739013672	stim	0		161.0					65.60764980316162	1.3429300785064697
0	1.4620568752288818	response	0	space						66.94075179100037	
1	1.4718849658966064	stim	0		121.0					66.95057988166809	1.0065550804138184
1	2.478440046310425	stim	1		120.0					67.95713496208191	1.0003490447998047
2	3.4787890911102295	fix_pre	0		679.0	0.0	2.5	/experiments/knapen_aot/videos/S_ILSVRC2015_train_00563000.mp4	0.0	68.95748400688171	5.657983779907227
2	9.128557920455933	response	0	space		0.0	2.5	/experiments/knapen_aot/videos/S_ILSVRC2015_train_00563000.mp4	0.0	74.60725283622742	
2	9.136772871017456	movie	1		301.0	0.0	2.5	/experiments/knapen_aot/videos/S_ILSVRC2015_train_00563000.mp4	0.0	74.61546778678894	2.5084261894226074
2	11.645199060440063	fix_post	2		12.0	0.0	2.5	/experiments/knapen_aot/videos/S_ILSVRC2015_train_00563000.mp4	0.0	77.12389397621155	0.09996581077575684
3	11.74516487121582	fix_pre	0		37.0	1.0	2.5	/experiments/knapen_aot/videos/R_S_yt-eVAlSjH8E8k_127.mp4	0.0	77.2238597869873	0.30993103981018066
3	12.042548894882202	response	0	2		1.0	2.5	/experiments/knapen_aot/videos/R_S_yt-eVAlSjH8E8k_127.mp4	0.0	77.52124381065369	
3	12.055095911026001	movie	1		294.0	1.0	2.5	/experiments/knapen_aot/videos/R_S_yt-eVAlSjH8E8k_127.mp4	0.0	77.53379082679749	2.5067291259765625
3	14.561825037002563	fix_post	2		12.0	1.0	2.5	/experiments/knapen_aot/videos/R_S_yt-eVAlSjH8E8k_127.mp4	0.0	80.04051995277405	0.09997200965881348
4	14.661797046661377	fix_pre	0		20.0	2.0	2.5	/experiments/knapen_aot/videos/S_yt-SjPYdaUBi7A_37.mp4	0.0	80.14049196243286	0.1665949821472168
4	14.82026195526123	response	0	2		2.0	2.5	/experiments/knapen_aot/videos/S_yt-SjPYdaUBi7A_37.mp4	0.0	80.29895687103271	
4	14.828392028808594	movie	1		299.0	2.0	2.5	/experiments/knapen_aot/videos/S_yt-SjPYdaUBi7A_37.mp4	0.0	80.30708694458008	2.5083279609680176
4	17.33671998977661	fix_post	2		12.0	2.0	2.5	/experiments/knapen_aot/videos/S_yt-SjPYdaUBi7A_37.mp4	0.0	82.8154149055481	0.10027909278869629
5	17.436999082565308	fix_pre	0		22.0	3.0	2.5	/experiments/knapen_aot/videos/R_S_yt-ebylvieB_4g_16.mp4	0.0	82.91569399833679	0.18315601348876953
5	17.61188507080078	response	0	2		3.0	2.5	/experiments/knapen_aot/videos/R_S_yt-ebylvieB_4g_16.mp4	0.0	83.09057998657227	
5	17.620155096054077	movie	1		301.0	3.0	2.5	/experiments/knapen_aot/videos/R_S_yt-ebylvieB_4g_16.mp4	0.0	83.09885001182556	2.5083229541778564
5	20.128478050231934	fix_post	2		12.0	3.0	2.5	/experiments/knapen_aot/videos/R_S_yt-ebylvieB_4g_16.mp4	0.0	85.60717296600342	0.10019302368164062
6	20.228671073913574	fix_pre	0		11.0	4.0	2.5	/experiments/knapen_aot/videos/S_yt-R6a0Jzo_u1Y_254.mp4	0.0	85.70736598968506	0.09154200553894043
6	20.31194496154785	response	0	2		4.0	2.5	/experiments/knapen_aot/videos/S_yt-R6a0Jzo_u1Y_254.mp4	0.0	85.79063987731934	
6	20.320213079452515	movie	1		301.0	4.0	2.5	/experiments/knapen_aot/videos/S_yt-R6a0Jzo_u1Y_254.mp4	0.0	85.798907995224	2.5083489418029785
6	22.828562021255493	fix_post	2		12.0	4.0	2.5	/experiments/knapen_aot/videos/S_yt-R6a0Jzo_u1Y_254.mp4	0.0	88.30725693702698	0.09987902641296387
7	22.928441047668457	fix_pre	0		23.0	5.0	2.5	/experiments/knapen_aot/videos/S_yt-e1RAhIW6WAs_535.mp4	0.0	88.40713596343994	0.19183683395385742
7	23.11196804046631	response	0	2		5.0	2.5	/experiments/knapen_aot/videos/S_yt-e1RAhIW6WAs_535.mp4	0.0	88.5906629562378	
7	23.120277881622314	movie	1		301.0	5.0	2.5	/experiments/knapen_aot/videos/S_yt-e1RAhIW6WAs_535.mp4	0.0	88.5989727973938	2.508150100708008
7	25.628427982330322	fix_post	2		12.0	5.0	2.5	/experiments/knapen_aot/videos/S_yt-e1RAhIW6WAs_535.mp4	0.0	91.1071228981018	0.1000969409942627
8	25.728524923324585	fix_pre	0		158.0	6.0	2.5	blank	1.0	91.20721983909607	1.3164830207824707
8	27.036915063858032	response	0	2		6.0	2.5	blank	1.0	92.51560997962952	
8	27.045007944107056	movie	1		301.0	6.0	2.5	blank	1.0	92.52370285987854	2.5083119869232178
8	29.553319931030273	fix_post	2		12.0	6.0	2.5	blank	1.0	95.03201484680176	0.10010004043579102
9	29.653419971466064	fix_pre	0		71.0	7.0	2.5	/experiments/knapen_aot/videos/R_S_yt-I9uf7kAccFA_229.mp4	0.0	95.13211488723755	0.591655969619751
9	30.236883878707886	response	0	2		7.0	2.5	/experiments/knapen_aot/videos/R_S_yt-I9uf7kAccFA_229.mp4	0.0	95.71557879447937	
9	30.245075941085815	movie	1		301.0	7.0	2.5	/experiments/knapen_aot/videos/R_S_yt-I9uf7kAccFA_229.mp4	0.0	95.7237708568573	2.5082900524139404
9	32.753365993499756	fix_post	2		12.0	7.0	2.5	/experiments/knapen_aot/videos/R_S_yt-I9uf7kAccFA_229.mp4	0.0	98.23206090927124	0.10012698173522949
10	32.853492975234985	fix_pre	0		119.0	8.0	2.5	/experiments/knapen_aot/videos/S_ILSVRC2015_train_00423000.mp4	0.0	98.33218789100647	0.9915359020233154
10	33.83685302734375	response	0	2		8.0	2.5	/experiments/knapen_aot/videos/S_ILSVRC2015_train_00423000.mp4	0.0	99.31554794311523	
10	33.8450288772583	movie	1		301.0	8.0	2.5	/experiments/knapen_aot/videos/S_ILSVRC2015_train_00423000.mp4	0.0	99.32372379302979	2.5084822177886963
10	36.353511095047	fix_post	2		12.0	8.0	2.5	/experiments/knapen_aot/videos/S_ILSVRC2015_train_00423000.mp4	0.0	101.83220601081848	0.09987378120422363
11	36.45338487625122	fix_pre	0		21.0	9.0	2.5	/experiments/knapen_aot/videos/S_comp_A103_C002_0205DG_v12_SDR_FINAL_20180706_SDR_2K_AVC.mp4	0.0	101.9320797920227	0.17496800422668457
11	36.620217084884644	response	0	2		9.0	2.5	/experiments/knapen_aot/videos/S_comp_A103_C002_0205DG_v12_SDR_FINAL_20180706_SDR_2K_AVC.mp4	0.0	102.09891200065613	
11	36.628352880477905	movie	1		175.0	9.0	2.5	/experiments/knapen_aot/videos/S_comp_A103_C002_0205DG_v12_SDR_FINAL_20180706_SDR_2K_AVC.mp4	0.0	102.10704779624939	2.5083940029144287
11	39.136746883392334	fix_post	2		12.0	9.0	2.5	/experiments/knapen_aot/videos/S_comp_A103_C002_0205DG_v12_SDR_FINAL_20180706_SDR_2K_AVC.mp4	0.0	104.61544179916382	0.09999203681945801
12	39.23673892021179	fix_pre	0		89.0	10.0	2.5	/experiments/knapen_aot/videos/S_yt-XRQ_LSGGr3Y_712.mp4	0.0	104.71543383598328	0.7416691780090332
12	39.97019004821777	response	0	2		10.0	2.5	/experiments/knapen_aot/videos/S_yt-XRQ_LSGGr3Y_712.mp4	0.0	105.44888496398926	
12	39.978408098220825	movie	1		301.0	10.0	2.5	/experiments/knapen_aot/videos/S_yt-XRQ_LSGGr3Y_712.mp4	0.0	105.45710301399231	2.5083038806915283
12	42.48671197891235	fix_post	2		12.0	10.0	2.5	/experiments/knapen_aot/videos/S_yt-XRQ_LSGGr3Y_712.mp4	0.0	107.96540689468384	0.0999441146850586
13	42.58665609359741	fix_pre	0		26.0	11.0	2.5	/experiments/knapen_aot/videos/S_wc-q23aBNJMZbnZ_27.mp4	0.0	108.0653510093689	0.21663784980773926
13	42.79513096809387	response	0	2		11.0	2.5	/experiments/knapen_aot/videos/S_wc-q23aBNJMZbnZ_27.mp4	0.0	108.27382588386536	
13	42.80329394340515	movie	1		169.0	11.0	2.5	/experiments/knapen_aot/videos/S_wc-q23aBNJMZbnZ_27.mp4	0.0	108.28198885917664	2.5084259510040283
13	45.31171989440918	fix_post	2		12.0	11.0	2.5	/experiments/knapen_aot/videos/S_wc-q23aBNJMZbnZ_27.mp4	0.0	110.79041481018066	0.09995913505554199
14	45.41167902946472	fix_pre	0		145.0	12.0	2.5	/experiments/knapen_aot/videos/R_S_yt-WRBmpC-RxIc_678.mp4	0.0	110.8903739452362	1.2083439826965332
14	46.611862897872925	response	0	2		12.0	2.5	/experiments/knapen_aot/videos/R_S_yt-WRBmpC-RxIc_678.mp4	0.0	112.09055781364441	
14	46.620023012161255	movie	1		301.0	12.0	2.5	/experiments/knapen_aot/videos/R_S_yt-WRBmpC-RxIc_678.mp4	0.0	112.09871792793274	2.5082640647888184
14	49.12828707695007	fix_post	2		12.0	12.0	2.5	/experiments/knapen_aot/videos/R_S_yt-WRBmpC-RxIc_678.mp4	0.0	114.60698199272156	0.1000528335571289
15	49.2283399105072	fix_pre	0		34.0	13.0	2.5	/experiments/knapen_aot/videos/S_yt-RWN5qOIgqec_25.mp4	0.0	114.70703482627869	0.28468918800354004
15	49.50349402427673	response	0	2		13.0	2.5	/experiments/knapen_aot/videos/S_yt-RWN5qOIgqec_25.mp4	0.0	114.98218894004822	
15	49.51302909851074	movie	1		301.0	13.0	2.5	/experiments/knapen_aot/videos/S_yt-RWN5qOIgqec_25.mp4	0.0	114.99172401428223	2.506929874420166
15	52.01995897293091	fix_post	2		12.0	13.0	2.5	/experiments/knapen_aot/videos/S_yt-RWN5qOIgqec_25.mp4	0.0	117.49865388870239	0.10005497932434082
16	52.12001395225525	fix_pre	0		121.0	14.0	2.5	blank	1.0	117.59870886802673	1.0083000659942627
16	53.12006902694702	response	0	2		14.0	2.5	blank	1.0	118.5987639427185	
16	53.12831401824951	movie	1		301.0	14.0	2.5	blank	1.0	118.607008934021	2.5083398818969727
16	55.636653900146484	fix_post	2		12.0	14.0	2.5	blank	1.0	121.11534881591797	0.10010004043579102
17	55.736753940582275	fix_pre	0		31.0	15.0	2.5	/experiments/knapen_aot/videos/S_wc-ZGCMbPfXQ71L_31.mp4	0.0	121.21544885635376	0.2581939697265625
17	55.98683190345764	response	0	2		15.0	2.5	/experiments/knapen_aot/videos/S_wc-ZGCMbPfXQ71L_31.mp4	0.0	121.46552681922913	
17	55.99494791030884	movie	1		161.0	15.0	2.5	/experiments/knapen_aot/videos/S_wc-ZGCMbPfXQ71L_31.mp4	0.0	121.47364282608032	2.5084099769592285
17	58.503357887268066	fix_post	2		12.0	15.0	2.5	/experiments/knapen_aot/videos/S_wc-ZGCMbPfXQ71L_31.mp4	0.0	123.98205280303955	0.0999751091003418
18	58.60333299636841	fix_pre	0		121.0	16.0	2.5	/experiments/knapen_aot/videos/R_S_yt-M_ApPnq00iE_67.mp4	0.0	124.08202791213989	1.0083038806915283
18	59.60353994369507	response	0	2		16.0	2.5	/experiments/knapen_aot/videos/R_S_yt-M_ApPnq00iE_67.mp4	0.0	125.08223485946655	
18	59.61163687705994	movie	1		301.0	16.0	2.5	/experiments/knapen_aot/videos/R_S_yt-M_ApPnq00iE_67.mp4	0.0	125.09033179283142	2.5082831382751465
18	62.11992001533508	fix_post	2		10.0	16.0	2.5	/experiments/knapen_aot/videos/R_S_yt-M_ApPnq00iE_67.mp4	0.0	127.59861493110657	0.1000518798828125
19	62.219971895217896	fix_pre	0		55.0	17.0	2.5	/experiments/knapen_aot/videos/S_ILSVRC2015_train_00423000.mp4	0.0	127.69866681098938	0.45833420753479004
19	62.67007303237915	response	0	2		17.0	2.5	/experiments/knapen_aot/videos/S_ILSVRC2015_train_00423000.mp4	0.0	128.14876794815063	
19	62.678306102752686	movie	1		301.0	17.0	2.5	/experiments/knapen_aot/videos/S_ILSVRC2015_train_00423000.mp4	0.0	128.15700101852417	2.50836181640625
19	65.18666791915894	fix_post	2		12.0	17.0	2.5	/experiments/knapen_aot/videos/S_ILSVRC2015_train_00423000.mp4	0.0	130.66536283493042	0.10000896453857422
20	65.28667688369751	fix_pre	0		149.0	18.0	2.5	/experiments/knapen_aot/videos/R_S_yt-n6aLw10f2Yw_317.mp4	0.0	130.765371799469	1.241569995880127
20	66.52008104324341	response	0	2		18.0	2.5	/experiments/knapen_aot/videos/R_S_yt-n6aLw10f2Yw_317.mp4	0.0	131.9987759590149	
20	66.52824687957764	movie	1		300.0	18.0	2.5	/experiments/knapen_aot/videos/R_S_yt-n6aLw10f2Yw_317.mp4	0.0	132.00694179534912	2.5083301067352295
20	69.03657698631287	fix_post	2		12.0	18.0	2.5	/experiments/knapen_aot/videos/R_S_yt-n6aLw10f2Yw_317.mp4	0.0	134.51527190208435	0.09991097450256348
21	69.13648796081543	fix_pre	0		35.0	19.0	2.5	blank	1.0	134.6151828765869	0.29170799255371094
21	69.42008399963379	response	0	2		19.0	2.5	blank	1.0	134.89877891540527	
21	69.42819595336914	movie	1		301.0	19.0	2.5	blank	1.0	134.90689086914062	2.508355140686035
21	71.93655109405518	fix_post	2		12.0	19.0	2.5	blank	1.0	137.41524600982666	0.09999394416809082
22	72.03654503822327	fix_pre	0		130.0	20.0	2.5	/experiments/knapen_aot/videos/R_S_yt-FR_Y1Mm8BwQ_53.mp4	0.0	137.51523995399475	1.0833380222320557
22	73.11171507835388	response	0	2		20.0	2.5	/experiments/knapen_aot/videos/R_S_yt-FR_Y1Mm8BwQ_53.mp4	0.0	138.59040999412537	
22	73.11988306045532	movie	1		300.0	20.0	2.5	/experiments/knapen_aot/videos/R_S_yt-FR_Y1Mm8BwQ_53.mp4	0.0	138.5985779762268	2.50834584236145
22	75.62822890281677	fix_post	2		12.0	20.0	2.5	/experiments/knapen_aot/videos/R_S_yt-FR_Y1Mm8BwQ_53.mp4	0.0	141.10692381858826	0.10006213188171387
23	75.72829103469849	fix_pre	0		27.0	21.0	2.5	/experiments/knapen_aot/videos/R_S_yt-W00vtWnXgIk_73.mp4	0.0	141.20698595046997	0.22489690780639648
23	75.9450249671936	response	0	2		21.0	2.5	/experiments/knapen_aot/videos/R_S_yt-W00vtWnXgIk_73.mp4	0.0	141.4237198829651	
23	75.95318794250488	movie	1		301.0	21.0	2.5	/experiments/knapen_aot/videos/R_S_yt-W00vtWnXgIk_73.mp4	0.0	141.43188285827637	2.508324146270752
23	78.46151208877563	fix_post	2		12.0	21.0	2.5	/experiments/knapen_aot/videos/R_S_yt-W00vtWnXgIk_73.mp4	0.0	143.94020700454712	0.10006499290466309
24	78.5615770816803	fix_pre	0		92.0	22.0	2.5	/experiments/knapen_aot/videos/R_S_yt-M_ApPnq00iE_67.mp4	0.0	144.04027199745178	0.7665848731994629
24	79.32000994682312	response	0	2		22.0	2.5	/experiments/knapen_aot/videos/R_S_yt-M_ApPnq00iE_67.mp4	0.0	144.7987048625946	
24	79.32816195487976	movie	1		300.0	22.0	2.5	/experiments/knapen_aot/videos/R_S_yt-M_ApPnq00iE_67.mp4	0.0	144.80685687065125	2.508324146270752
24	81.83648610115051	fix_post	2		12.0	22.0	2.5	/experiments/knapen_aot/videos/R_S_yt-M_ApPnq00iE_67.mp4	0.0	147.315181016922	0.10003280639648438
25	81.936518907547	fix_pre	0		35.0	23.0	2.5	/experiments/knapen_aot/videos/R_S_ILSVRC2015_train_00369002.mp4	0.0	147.41521382331848	0.29165101051330566
25	82.22001099586487	response	0	2		23.0	2.5	/experiments/knapen_aot/videos/R_S_ILSVRC2015_train_00369002.mp4	0.0	147.69870591163635	
25	82.2281699180603	movie	1		301.0	23.0	2.5	/experiments/knapen_aot/videos/R_S_ILSVRC2015_train_00369002.mp4	0.0	147.7068648338318	2.5083141326904297
25	84.73648405075073	fix_post	2		12.0	23.0	2.5	/experiments/knapen_aot/videos/R_S_ILSVRC2015_train_00369002.mp4	0.0	150.21517896652222	0.09994387626647949
26	84.83642792701721	fix_pre	0		113.0	24.0	2.5	/experiments/knapen_aot/videos/R_S_yt-PvWkOmfZuSY_4.mp4	0.0	150.3151228427887	0.941763162612915
26	85.77007794380188	response	0	2		24.0	2.5	/experiments/knapen_aot/videos/R_S_yt-PvWkOmfZuSY_4.mp4	0.0	151.24877285957336	
26	85.77819108963013	movie	1		301.0	24.0	2.5	/experiments/knapen_aot/videos/R_S_yt-PvWkOmfZuSY_4.mp4	0.0	151.2568860054016	2.5083038806915283
26	88.28649497032166	fix_post	2		12.0	24.0	2.5	/experiments/knapen_aot/videos/R_S_yt-PvWkOmfZuSY_4.mp4	0.0	153.76518988609314	0.09998393058776855
27	88.38647890090942	fix_pre	0		28.0	25.0	2.5	/experiments/knapen_aot/videos/R_S_yt-SjPYdaUBi7A_37.mp4	0.0	153.8651738166809	0.2333660125732422
27	88.60415005683899	response	0	2		25.0	2.5	/experiments/knapen_aot/videos/R_S_yt-SjPYdaUBi7A_37.mp4	0.0	154.08284497261047	
27	88.61984491348267	movie	1		301.0	25.0	2.5	/experiments/knapen_aot/videos/R_S_yt-SjPYdaUBi7A_37.mp4	0.0	154.09853982925415	2.5083420276641846
27	91.12818694114685	fix_post	2		12.0	25.0	2.5	/experiments/knapen_aot/videos/R_S_yt-SjPYdaUBi7A_37.mp4	0.0	156.60688185691833	0.09996199607849121
28	91.22814893722534	fix_pre	0		66.0	26.0	2.5	/experiments/knapen_aot/videos/S_ILSVRC2015_train_00303005.mp4	0.0	156.70684385299683	0.5499601364135742
28	91.76999402046204	response	0	2		26.0	2.5	/experiments/knapen_aot/videos/S_ILSVRC2015_train_00303005.mp4	0.0	157.24868893623352	
28	91.77810907363892	movie	1		301.0	26.0	2.5	/experiments/knapen_aot/videos/S_ILSVRC2015_train_00303005.mp4	0.0	157.2568039894104	2.5083580017089844
28	94.2864670753479	fix_post	2		12.0	26.0	2.5	/experiments/knapen_aot/videos/S_ILSVRC2015_train_00303005.mp4	0.0	159.76516199111938	0.09999394416809082
29	94.38646101951599	fix_pre	0		47.0	27.0	2.5	/experiments/knapen_aot/videos/R_S_yt-uY5xsUKn8zU_17.mp4	0.0	159.86515593528748	0.3916950225830078
29	94.76998686790466	response	0	2		27.0	2.5	/experiments/knapen_aot/videos/R_S_yt-uY5xsUKn8zU_17.mp4	0.0	160.24868178367615	
29	94.778156042099	movie	1		301.0	27.0	2.5	/experiments/knapen_aot/videos/R_S_yt-uY5xsUKn8zU_17.mp4	0.0	160.25685095787048	2.5083889961242676
29	97.28654503822327	fix_post	2		12.0	27.0	2.5	/experiments/knapen_aot/videos/R_S_yt-uY5xsUKn8zU_17.mp4	0.0	162.76523995399475	0.09983587265014648
30	97.38638091087341	fix_pre	0		66.0	28.0	2.5	blank	1.0	162.8650758266449	0.5500211715698242
30	97.92827606201172	response	0	2		28.0	2.5	blank	1.0	163.4069709777832	
30	97.93640208244324	movie	1		301.0	28.0	2.5	blank	1.0	163.41509699821472	2.5083229541778564
30	100.4447250366211	fix_post	2		12.0	28.0	2.5	blank	1.0	165.92341995239258	0.10006189346313477
31	100.54478693008423	fix_pre	0		39.0	29.0	2.5	/experiments/knapen_aot/videos/S_yt-4ouMuGUuPHI_193.mp4	0.0	166.0234818458557	0.3249490261077881
31	100.86157202720642	response	0	2		29.0	2.5	/experiments/knapen_aot/videos/S_yt-4ouMuGUuPHI_193.mp4	0.0	166.3402669429779	
31	100.86973595619202	movie	1		299.0	29.0	2.5	/experiments/knapen_aot/videos/S_yt-4ouMuGUuPHI_193.mp4	0.0	166.3484308719635	2.5083820819854736
31	103.37811803817749	fix_post	2		12.0	29.0	2.5	/experiments/knapen_aot/videos/S_yt-4ouMuGUuPHI_193.mp4	0.0	168.85681295394897	0.10001492500305176
32	103.47813296318054	fix_pre	0		16.0	30.0	2.5	/experiments/knapen_aot/videos/R_S_yt-IT741UWKVzg_34.mp4	0.0	168.95682787895203	0.13321208953857422
32	103.60323190689087	response	0	2		30.0	2.5	/experiments/knapen_aot/videos/R_S_yt-IT741UWKVzg_34.mp4	0.0	169.08192682266235	
32	103.61134505271912	movie	1		301.0	30.0	2.5	/experiments/knapen_aot/videos/R_S_yt-IT741UWKVzg_34.mp4	0.0	169.0900399684906	2.5084388256073
32	106.11978387832642	fix_post	2		12.0	30.0	2.5	/experiments/knapen_aot/videos/R_S_yt-IT741UWKVzg_34.mp4	0.0	171.5984787940979	0.09996199607849121
33	106.21974587440491	fix_pre	0		112.0	31.0	2.5	/experiments/knapen_aot/videos/R_S_wc-dwTccI0TNwps_15.mp4	0.0	171.6984407901764	0.9332871437072754
33	107.14489698410034	response	0	2		31.0	2.5	/experiments/knapen_aot/videos/R_S_wc-dwTccI0TNwps_15.mp4	0.0	172.62359189987183	
33	107.15303301811218	movie	1		301.0	31.0	2.5	/experiments/knapen_aot/videos/R_S_wc-dwTccI0TNwps_15.mp4	0.0	172.63172793388367	2.508415937423706
33	109.66144895553589	fix_post	2		12.0	31.0	2.5	/experiments/knapen_aot/videos/R_S_wc-dwTccI0TNwps_15.mp4	0.0	175.14014387130737	0.0999460220336914
34	109.76139497756958	fix_pre	0		42.0	32.0	2.5	/experiments/knapen_aot/videos/S_ILSVRC2015_train_00610000.mp4	0.0	175.24008989334106	0.3499600887298584
34	110.10320591926575	response	0	2		32.0	2.5	/experiments/knapen_aot/videos/S_ILSVRC2015_train_00610000.mp4	0.0	175.58190083503723	
34	110.11135506629944	movie	1		301.0	32.0	2.5	/experiments/knapen_aot/videos/S_ILSVRC2015_train_00610000.mp4	0.0	175.59004998207092	2.5083818435668945
34	112.61973690986633	fix_post	2		12.0	32.0	2.5	/experiments/knapen_aot/videos/S_ILSVRC2015_train_00610000.mp4	0.0	178.09843182563782	0.1000370979309082
35	112.71977400779724	fix_pre	0		17.0	33.0	2.5	blank	1.0	178.19846892356873	0.1415538787841797
35	112.85328602790833	response	0	2		33.0	2.5	blank	1.0	178.3319809436798	
35	112.86132788658142	movie	1		301.0	33.0	2.5	blank	1.0	178.3400228023529	2.5084240436553955
35	115.36975193023682	fix_post	2		12.0	33.0	2.5	blank	1.0	180.8484468460083	0.10004711151123047
36	115.46979904174805	fix_pre	0		37.0	34.0	2.5	/experiments/knapen_aot/videos/S_production_ID_3944248.mp4	0.0	180.94849395751953	0.3082458972930908
36	115.76986503601074	response	0	2		34.0	2.5	/experiments/knapen_aot/videos/S_production_ID_3944248.mp4	0.0	181.24855995178223	
36	115.77804493904114	movie	1		181.0	34.0	2.5	/experiments/knapen_aot/videos/S_production_ID_3944248.mp4	0.0	181.25673985481262	2.508324146270752
36	118.28636908531189	fix_post	2		12.0	34.0	2.5	/experiments/knapen_aot/videos/S_production_ID_3944248.mp4	0.0	183.76506400108337	0.09996390342712402
37	118.38633298873901	fix_pre	0		40.0	35.0	2.5	/experiments/knapen_aot/videos/R_S_yt-35i8UeYXjGw_47.mp4	0.0	183.8650279045105	0.3344109058380127
37	118.71140789985657	response	0	2		35.0	2.5	/experiments/knapen_aot/videos/R_S_yt-35i8UeYXjGw_47.mp4	0.0	184.19010281562805	
37	118.72074389457703	movie	1		301.0	35.0	2.5	/experiments/knapen_aot/videos/R_S_yt-35i8UeYXjGw_47.mp4	0.0	184.1994388103485	2.5073060989379883
37	121.22804999351501	fix_post	2		12.0	35.0	2.5	/experiments/knapen_aot/videos/R_S_yt-35i8UeYXjGw_47.mp4	0.0	186.7067449092865	0.10001206398010254
38	121.32806205749512	fix_pre	0		23.0	36.0	2.5	/experiments/knapen_aot/videos/S_comp_LA_A005_C009_PSNK_ALT_v09_SDR_PS_201809134_SDR_2K_AVC.mp4	0.0	186.8067569732666	0.191633939743042
38	121.51153898239136	response	0	2		36.0	2.5	/experiments/knapen_aot/videos/S_comp_LA_A005_C009_PSNK_ALT_v09_SDR_PS_201809134_SDR_2K_AVC.mp4	0.0	186.99023389816284	
38	121.51969599723816	movie	1		171.0	36.0	2.5	/experiments/knapen_aot/videos/S_comp_LA_A005_C009_PSNK_ALT_v09_SDR_PS_201809134_SDR_2K_AVC.mp4	0.0	186.99839091300964	2.5082550048828125
38	124.02795100212097	fix_post	2		12.0	36.0	2.5	/experiments/knapen_aot/videos/S_comp_LA_A005_C009_PSNK_ALT_v09_SDR_PS_201809134_SDR_2K_AVC.mp4	0.0	189.50664591789246	0.10010194778442383
39	124.1280529499054	fix_pre	0		143.0	37.0	2.5	/experiments/knapen_aot/videos/S_ILSVRC2015_train_00495000.mp4	0.0	189.60674786567688	1.1916239261627197
39	125.31161689758301	response	0	2		37.0	2.5	/experiments/knapen_aot/videos/S_ILSVRC2015_train_00495000.mp4	0.0	190.7903118133545	
39	125.31967687606812	movie	1		301.0	37.0	2.5	/experiments/knapen_aot/videos/S_ILSVRC2015_train_00495000.mp4	0.0	190.7983717918396	2.5082991123199463
39	127.82797598838806	fix_post	2		12.0	37.0	2.5	/experiments/knapen_aot/videos/S_ILSVRC2015_train_00495000.mp4	0.0	193.30667090415955	0.10012602806091309
40	127.92810201644897	fix_pre	0		33.0	38.0	2.5	/experiments/knapen_aot/videos/S_production_ID_4802712.mp4	0.0	193.40679693222046	0.2748849391937256
40	128.19473099708557	response	0	2		38.0	2.5	/experiments/knapen_aot/videos/S_production_ID_4802712.mp4	0.0	193.67342591285706	
40	128.2029869556427	movie	1		168.0	38.0	2.5	/experiments/knapen_aot/videos/S_production_ID_4802712.mp4	0.0	193.68168187141418	2.508362054824829
40	130.71134901046753	fix_post	2		12.0	38.0	2.5	/experiments/knapen_aot/videos/S_production_ID_4802712.mp4	0.0	196.190043926239	0.09995603561401367
41	130.81130504608154	fix_pre	0		29.0	39.0	2.5	/experiments/knapen_aot/videos/S_yt-pOCEuqVE7ro_61.mp4	0.0	196.28999996185303	0.2426619529724121
41	131.04474091529846	response	0	2		39.0	2.5	/experiments/knapen_aot/videos/S_yt-pOCEuqVE7ro_61.mp4	0.0	196.52343583106995	
41	131.05396699905396	movie	1		301.0	39.0	2.5	/experiments/knapen_aot/videos/S_yt-pOCEuqVE7ro_61.mp4	0.0	196.53266191482544	2.507369041442871
41	133.56133604049683	fix_post	2		12.0	39.0	2.5	/experiments/knapen_aot/videos/S_yt-pOCEuqVE7ro_61.mp4	0.0	199.0400309562683	0.09996294975280762
42	133.66129899024963	fix_pre	0		31.0	40.0	2.5	blank	1.0	199.13999390602112	0.2583329677581787
42	133.91141295433044	response	0	2		40.0	2.5	blank	1.0	199.39010787010193	
42	133.9196319580078	movie	1		301.0	40.0	2.5	blank	1.0	199.3983268737793	2.5083119869232178
42	136.42794394493103	fix_post	2		12.0	40.0	2.5	blank	1.0	201.90663886070251	0.09996294975280762
43	136.52790689468384	fix_pre	0		23.0	41.0	2.5	/experiments/knapen_aot/videos/S_yt-s73Xqkcq9Js_285.mp4	0.0	202.00660181045532	0.19269418716430664
43	136.7114200592041	response	0	2		41.0	2.5	/experiments/knapen_aot/videos/S_yt-s73Xqkcq9Js_285.mp4	0.0	202.1901149749756	
43	136.72060108184814	movie	1		301.0	41.0	2.5	/experiments/knapen_aot/videos/S_yt-s73Xqkcq9Js_285.mp4	0.0	202.19929599761963	2.5073699951171875
43	139.22797107696533	fix_post	2		12.0	41.0	2.5	/experiments/knapen_aot/videos/S_yt-s73Xqkcq9Js_285.mp4	0.0	204.70666599273682	0.09987282752990723
44	139.32784390449524	fix_pre	0		32.0	42.0	2.5	/experiments/knapen_aot/videos/R_S_ILSVRC2015_train_00652001.mp4	0.0	204.80653882026672	0.267719030380249
44	139.58634495735168	response	0	2		42.0	2.5	/experiments/knapen_aot/videos/R_S_ILSVRC2015_train_00652001.mp4	0.0	205.06503987312317	
44	139.5955629348755	movie	1		300.0	42.0	2.5	/experiments/knapen_aot/videos/R_S_ILSVRC2015_train_00652001.mp4	0.0	205.07425785064697	2.5074141025543213
44	142.1029770374298	fix_post	2		12.0	42.0	2.5	/experiments/knapen_aot/videos/R_S_ILSVRC2015_train_00652001.mp4	0.0	207.5816719532013	0.09994697570800781
45	142.20292401313782	fix_pre	0		81.0	43.0	2.5	/experiments/knapen_aot/videos/R_S_yt-etQaTgGOhR4_69.mp4	0.0	207.6816189289093	0.6750378608703613
45	142.86973595619202	response	0	2		43.0	2.5	/experiments/knapen_aot/videos/R_S_yt-etQaTgGOhR4_69.mp4	0.0	208.3484308719635	
45	142.87796187400818	movie	1		301.0	43.0	2.5	/experiments/knapen_aot/videos/R_S_yt-etQaTgGOhR4_69.mp4	0.0	208.35665678977966	2.5083281993865967
45	145.38629007339478	fix_post	2		12.0	43.0	2.5	/experiments/knapen_aot/videos/R_S_yt-etQaTgGOhR4_69.mp4	0.0	210.86498498916626	0.09998798370361328
46	145.4862780570984	fix_pre	0		31.0	44.0	2.5	/experiments/knapen_aot/videos/S_yt-M_ApPnq00iE_67.mp4	0.0	210.96497297286987	0.25835585594177246
46	145.73637509346008	response	0	2		44.0	2.5	/experiments/knapen_aot/videos/S_yt-M_ApPnq00iE_67.mp4	0.0	211.21507000923157	
46	145.74463391304016	movie	1		301.0	44.0	2.5	/experiments/knapen_aot/videos/S_yt-M_ApPnq00iE_67.mp4	0.0	211.22332882881165	2.508179187774658
46	148.25281310081482	fix_post	2		12.0	44.0	2.5	/experiments/knapen_aot/videos/S_yt-M_ApPnq00iE_67.mp4	0.0	213.7315080165863	0.10008883476257324
47	148.3529019355774	fix_pre	0		99.0	45.0	2.5	/experiments/knapen_aot/videos/R_S_pexels-cottonbro-10639398.mp4	0.0	213.83159685134888	0.8258581161499023
47	149.16959500312805	response	0	2		45.0	2.5	/experiments/knapen_aot/videos/R_S_pexels-cottonbro-10639398.mp4	0.0	214.64828991889954	
47	149.1787600517273	movie	1		181.0	45.0	2.5	/experiments/knapen_aot/videos/R_S_pexels-cottonbro-10639398.mp4	0.0	214.65745496749878	2.5074210166931152
47	151.6861810684204	fix_post	2		12.0	45.0	2.5	/experiments/knapen_aot/videos/R_S_pexels-cottonbro-10639398.mp4	0.0	217.1648759841919	0.10004401206970215
48	151.7862250804901	fix_pre	0		25.0	46.0	2.5	/experiments/knapen_aot/videos/S_yt-OLDm2slgfA4_3.mp4	0.0	217.2649199962616	0.20828890800476074
48	151.98644709587097	response	0	2		46.0	2.5	/experiments/knapen_aot/videos/S_yt-OLDm2slgfA4_3.mp4	0.0	217.46514201164246	
48	151.99451398849487	movie	1		301.0	46.0	2.5	/experiments/knapen_aot/videos/S_yt-OLDm2slgfA4_3.mp4	0.0	217.47320890426636	2.5083398818969727
48	154.50285387039185	fix_post	2		12.0	46.0	2.5	/experiments/knapen_aot/videos/S_yt-OLDm2slgfA4_3.mp4	0.0	219.98154878616333	0.10005807876586914
49	154.60291194915771	fix_pre	0		21.0	47.0	2.5	/experiments/knapen_aot/videos/R_S_yt-4BAsE47kJNk_88.mp4	0.0	220.0816068649292	0.17495203018188477
49	154.76964688301086	response	0	2		47.0	2.5	/experiments/knapen_aot/videos/R_S_yt-4BAsE47kJNk_88.mp4	0.0	220.24834179878235	
49	154.7778639793396	movie	1		301.0	47.0	2.5	/experiments/knapen_aot/videos/R_S_yt-4BAsE47kJNk_88.mp4	0.0	220.25655889511108	2.508296012878418
49	157.28615999221802	fix_post	2		12.0	47.0	2.5	/experiments/knapen_aot/videos/R_S_yt-4BAsE47kJNk_88.mp4	0.0	222.7648549079895	0.10004997253417969
50	157.3862099647522	fix_pre	0		100.0	48.0	2.5	/experiments/knapen_aot/videos/S_yt-fk-z6WCvjjA_3.mp4	0.0	222.86490488052368	0.8341760635375977
50	158.211364030838	response	0	2		48.0	2.5	/experiments/knapen_aot/videos/S_yt-fk-z6WCvjjA_3.mp4	0.0	223.6900589466095	
50	158.2203860282898	movie	1		301.0	48.0	2.5	/experiments/knapen_aot/videos/S_yt-fk-z6WCvjjA_3.mp4	0.0	223.69908094406128	2.507411003112793
50	160.7277970314026	fix_post	2		12.0	48.0	2.5	/experiments/knapen_aot/videos/S_yt-fk-z6WCvjjA_3.mp4	0.0	226.20649194717407	0.10005903244018555
51	160.82785606384277	fix_pre	0		24.0	49.0	2.5	blank	1.0	226.30655097961426	0.19995999336242676
51	161.01956701278687	response	0	2		49.0	2.5	blank	1.0	226.49826192855835	
51	161.0278160572052	movie	1		301.0	49.0	2.5	blank	1.0	226.50651097297668	2.5083558559417725
51	163.53617191314697	fix_post	2		12.0	49.0	2.5	blank	1.0	229.01486682891846	0.09999203681945801
52	163.63616394996643	fix_pre	0		19.0	50.0	2.5	/experiments/knapen_aot/videos/R_S_yt-w5lh_rKyKtE_21.mp4	0.0	229.11485886573792	0.1583390235900879
52	163.78625297546387	response	0	2		50.0	2.5	/experiments/knapen_aot/videos/R_S_yt-w5lh_rKyKtE_21.mp4	0.0	229.26494789123535	
52	163.79450297355652	movie	1		301.0	50.0	2.5	/experiments/knapen_aot/videos/R_S_yt-w5lh_rKyKtE_21.mp4	0.0	229.273197889328	2.5083649158477783
52	166.3028678894043	fix_post	2		12.0	50.0	2.5	/experiments/knapen_aot/videos/R_S_yt-w5lh_rKyKtE_21.mp4	0.0	231.78156280517578	0.10008621215820312
53	166.4029541015625	fix_pre	0		18.0	51.0	2.5	/experiments/knapen_aot/videos/R_S_pexels-rodnae-productions-5617905.mp4	0.0	231.88164901733398	0.15073800086975098
53	166.54463601112366	response	0	2		51.0	2.5	/experiments/knapen_aot/videos/R_S_pexels-rodnae-productions-5617905.mp4	0.0	232.02333092689514	
53	166.55369210243225	movie	1		163.0	51.0	2.5	/experiments/knapen_aot/videos/R_S_pexels-rodnae-productions-5617905.mp4	0.0	232.03238701820374	2.507485866546631
53	169.06117796897888	fix_post	2		12.0	51.0	2.5	/experiments/knapen_aot/videos/R_S_pexels-rodnae-productions-5617905.mp4	0.0	234.53987288475037	0.09994292259216309
54	169.16112089157104	fix_pre	0		99.0	52.0	2.5	/experiments/knapen_aot/videos/R_S_yt-qsyDLtXcyHc_8.mp4	0.0	234.63981580734253	0.8249390125274658
54	169.97040104866028	response	0	2		52.0	2.5	/experiments/knapen_aot/videos/R_S_yt-qsyDLtXcyHc_8.mp4	0.0	235.44909596443176	
54	169.9860599040985	movie	1		300.0	52.0	2.5	/experiments/knapen_aot/videos/R_S_yt-qsyDLtXcyHc_8.mp4	0.0	235.46475481987	2.508371114730835
54	172.49443101882935	fix_post	2		12.0	52.0	2.5	/experiments/knapen_aot/videos/R_S_yt-qsyDLtXcyHc_8.mp4	0.0	237.97312593460083	0.10083484649658203
55	172.59526586532593	fix_pre	0		10.0	53.0	2.5	/experiments/knapen_aot/videos/R_S_yt-Xkx53mjgj2E_30.mp4	0.0	238.0739607810974	0.08327412605285645
55	172.66957902908325	response	0	2		53.0	2.5	/experiments/knapen_aot/videos/R_S_yt-Xkx53mjgj2E_30.mp4	0.0	238.14827394485474	
55	172.67853999137878	movie	1		301.0	53.0	2.5	/experiments/knapen_aot/videos/R_S_yt-Xkx53mjgj2E_30.mp4	0.0	238.15723490715027	2.5076169967651367
55	175.18615698814392	fix_post	2		12.0	53.0	2.5	/experiments/knapen_aot/videos/R_S_yt-Xkx53mjgj2E_30.mp4	0.0	240.6648519039154	0.09996294975280762
56	175.28611993789673	fix_pre	0		20.0	54.0	2.5	blank	1.0	240.7648148536682	0.16667914390563965
56	175.44450092315674	response	0	2		54.0	2.5	blank	1.0	240.92319583892822	
56	175.45279908180237	movie	1		301.0	54.0	2.5	blank	1.0	240.93149399757385	2.5083518028259277
56	177.9611508846283	fix_post	2		12.0	54.0	2.5	blank	1.0	243.43984580039978	0.0999600887298584
57	178.06111097335815	fix_pre	0		23.0	55.0	2.5	/experiments/knapen_aot/videos/S_yt-eVAlSjH8E8k_127.mp4	0.0	243.53980588912964	0.1916489601135254
57	178.23701405525208	response	0	2		55.0	2.5	/experiments/knapen_aot/videos/S_yt-eVAlSjH8E8k_127.mp4	0.0	243.71570897102356	
57	178.25275993347168	movie	1		301.0	55.0	2.5	/experiments/knapen_aot/videos/S_yt-eVAlSjH8E8k_127.mp4	0.0	243.73145484924316	2.5082590579986572
57	180.76101899147034	fix_post	2		12.0	55.0	2.5	/experiments/knapen_aot/videos/S_yt-eVAlSjH8E8k_127.mp4	0.0	246.23971390724182	0.10007190704345703
58	180.8610908985138	fix_pre	0		15.0	56.0	2.5	/experiments/knapen_aot/videos/S_pexels-rodnae-productions-5617905.mp4	0.0	246.33978581428528	0.12496399879455566
58	180.9778130054474	response	0	2		56.0	2.5	/experiments/knapen_aot/videos/S_pexels-rodnae-productions-5617905.mp4	0.0	246.45650792121887	
58	180.98605489730835	movie	1		166.0	56.0	2.5	/experiments/knapen_aot/videos/S_pexels-rodnae-productions-5617905.mp4	0.0	246.46474981307983	2.5082991123199463
58	183.4943540096283	fix_post	2		12.0	56.0	2.5	/experiments/knapen_aot/videos/S_pexels-rodnae-productions-5617905.mp4	0.0	248.97304892539978	0.10008096694946289
59	183.59443497657776	fix_pre	0		21.0	57.0	2.5	/experiments/knapen_aot/videos/S_yt-OEY9O2MglQM_7.mp4	0.0	249.07312989234924	0.17496204376220703
59	183.76126909255981	response	0	2		57.0	2.5	/experiments/knapen_aot/videos/S_yt-OEY9O2MglQM_7.mp4	0.0	249.2399640083313	
59	183.76939702033997	movie	1		301.0	57.0	2.5	/experiments/knapen_aot/videos/S_yt-OEY9O2MglQM_7.mp4	0.0	249.24809193611145	2.5083060264587402
59	186.2777030467987	fix_post	2		12.0	57.0	2.5	/experiments/knapen_aot/videos/S_yt-OEY9O2MglQM_7.mp4	0.0	251.7563979625702	0.10002493858337402
60	186.37772798538208	fix_pre	0		22.0	58.0	2.5	/experiments/knapen_aot/videos/R_S_yt-p0buJEEKeuI_61.mp4	0.0	251.85642290115356	0.1833479404449463
60	186.55285501480103	response	0	2		58.0	2.5	/experiments/knapen_aot/videos/R_S_yt-p0buJEEKeuI_61.mp4	0.0	252.0315499305725	
60	186.56107592582703	movie	1		301.0	58.0	2.5	/experiments/knapen_aot/videos/R_S_yt-p0buJEEKeuI_61.mp4	0.0	252.0397708415985	2.5083210468292236
60	189.06939697265625	fix_post	2		12.0	58.0	2.5	/experiments/knapen_aot/videos/R_S_yt-p0buJEEKeuI_61.mp4	0.0	254.54809188842773	0.09992599487304688
61	189.1693229675293	fix_pre	0		40.0	59.0	2.5	/experiments/knapen_aot/videos/S_yt-4r-oovk9JWg_85.mp4	0.0	254.64801788330078	0.333359956741333
61	189.4945330619812	response	0	2		59.0	2.5	/experiments/knapen_aot/videos/S_yt-4r-oovk9JWg_85.mp4	0.0	254.97322797775269	
61	189.50268292427063	movie	1		300.0	59.0	2.5	/experiments/knapen_aot/videos/S_yt-4r-oovk9JWg_85.mp4	0.0	254.98137784004211	2.508435010910034
61	192.01111793518066	fix_post	2		12.0	59.0	2.5	/experiments/knapen_aot/videos/S_yt-4r-oovk9JWg_85.mp4	0.0	257.48981285095215	0.0999441146850586
62	192.11106204986572	fix_pre	0		124.0	60.0	2.5	/experiments/knapen_aot/videos/S_ILSVRC2015_train_00652001.mp4	0.0	257.5897569656372	1.0332839488983154
62	193.13625502586365	response	0	2		60.0	2.5	/experiments/knapen_aot/videos/S_ILSVRC2015_train_00652001.mp4	0.0	258.61494994163513	
62	193.14434599876404	movie	1		301.0	60.0	2.5	/experiments/knapen_aot/videos/S_ILSVRC2015_train_00652001.mp4	0.0	258.6230409145355	2.508349895477295
62	195.65269589424133	fix_post	2		12.0	60.0	2.5	/experiments/knapen_aot/videos/S_ILSVRC2015_train_00652001.mp4	0.0	261.1313908100128	0.09998416900634766
63	195.75268006324768	fix_pre	0		19.0	61.0	2.5	/experiments/knapen_aot/videos/S_yt-wUqpCtBOFBA_89.mp4	0.0	261.23137497901917	0.1584169864654541
63	195.90284705162048	response	0	2		61.0	2.5	/experiments/knapen_aot/videos/S_yt-wUqpCtBOFBA_89.mp4	0.0	261.38154196739197	
63	195.91109704971313	movie	1		301.0	61.0	2.5	/experiments/knapen_aot/videos/S_yt-wUqpCtBOFBA_89.mp4	0.0	261.3897919654846	2.508251905441284
63	198.41934895515442	fix_post	2		12.0	61.0	2.5	/experiments/knapen_aot/videos/S_yt-wUqpCtBOFBA_89.mp4	0.0	263.8980438709259	0.09993100166320801
64	198.51927995681763	fix_pre	0		122.0	62.0	2.5	/experiments/knapen_aot/videos/S_yt-TqVe93JCGmM_12.mp4	0.0	263.9979748725891	1.0167179107666016
64	199.5277760028839	response	0	2		62.0	2.5	/experiments/knapen_aot/videos/S_yt-TqVe93JCGmM_12.mp4	0.0	265.0064709186554	
64	199.53599786758423	movie	1		301.0	62.0	2.5	/experiments/knapen_aot/videos/S_yt-TqVe93JCGmM_12.mp4	0.0	265.0146927833557	2.5083701610565186
64	202.04436802864075	fix_post	2		12.0	62.0	2.5	/experiments/knapen_aot/videos/S_yt-TqVe93JCGmM_12.mp4	0.0	267.52306294441223	0.10001707077026367
65	202.144385099411	fix_pre	0		31.0	63.0	2.5	blank	1.0	267.6230800151825	0.25832676887512207
65	202.38699889183044	response	0	2		63.0	2.5	blank	1.0	267.86569380760193	
65	202.40271186828613	movie	1		301.0	63.0	2.5	blank	1.0	267.8814067840576	2.5083260536193848
65	204.91103792190552	fix_post	2		12.0	63.0	2.5	blank	1.0	270.389732837677	0.1000070571899414
66	205.01104497909546	fix_pre	0		28.0	64.0	2.5	/experiments/knapen_aot/videos/S_yt-r7PeFd-hIp0_378.mp4	0.0	270.48973989486694	0.23322796821594238
66	205.22850608825684	response	0	2		64.0	2.5	/experiments/knapen_aot/videos/S_yt-r7PeFd-hIp0_378.mp4	0.0	270.7072010040283	
66	205.2442729473114	movie	1		301.0	64.0	2.5	/experiments/knapen_aot/videos/S_yt-r7PeFd-hIp0_378.mp4	0.0	270.7229678630829	2.508439064025879
66	207.75271201133728	fix_post	2		12.0	64.0	2.5	/experiments/knapen_aot/videos/S_yt-r7PeFd-hIp0_378.mp4	0.0	273.23140692710876	0.09999394416809082
67	207.85270595550537	fix_pre	0		22.0	65.0	2.5	/experiments/knapen_aot/videos/R_S_comp_CH_C002_C005_PSNK_v05_SDR_PS_FINAL_20180709_SDR_2K_AVC.mp4	0.0	273.33140087127686	0.18331193923950195
67	208.02781105041504	response	0	2		65.0	2.5	/experiments/knapen_aot/videos/R_S_comp_CH_C002_C005_PSNK_v05_SDR_PS_FINAL_20180709_SDR_2K_AVC.mp4	0.0	273.5065059661865	
67	208.03601789474487	movie	1		173.0	65.0	2.5	/experiments/knapen_aot/videos/R_S_comp_CH_C002_C005_PSNK_v05_SDR_PS_FINAL_20180709_SDR_2K_AVC.mp4	0.0	273.51471281051636	2.508291006088257
67	210.54430890083313	fix_post	2		12.0	65.0	2.5	/experiments/knapen_aot/videos/R_S_comp_CH_C002_C005_PSNK_v05_SDR_PS_FINAL_20180709_SDR_2K_AVC.mp4	0.0	276.0230038166046	0.100067138671875
68	210.644376039505	fix_pre	0		9.0	66.0	2.5	/experiments/knapen_aot/videos/S_ILSVRC2015_train_00563000.mp4	0.0	276.1230709552765	0.07555603981018066
68	210.71110010147095	response	0	2		66.0	2.5	/experiments/knapen_aot/videos/S_ILSVRC2015_train_00563000.mp4	0.0	276.18979501724243	
68	210.71993207931519	movie	1		301.0	66.0	2.5	/experiments/knapen_aot/videos/S_ILSVRC2015_train_00563000.mp4	0.0	276.19862699508667	2.5077497959136963
68	213.22768187522888	fix_post	2		12.0	66.0	2.5	/experiments/knapen_aot/videos/S_ILSVRC2015_train_00563000.mp4	0.0	278.70637679100037	0.09985613822937012
69	213.32753801345825	fix_pre	0		172.0	67.0	2.5	/experiments/knapen_aot/videos/S_yt-4NjyKFnwHBo_13.mp4	0.0	278.80623292922974	1.433938980102539
69	214.7527539730072	response	0	2		67.0	2.5	/experiments/knapen_aot/videos/S_yt-4NjyKFnwHBo_13.mp4	0.0	280.2314488887787	
69	214.7614769935608	movie	1		301.0	67.0	2.5	/experiments/knapen_aot/videos/S_yt-4NjyKFnwHBo_13.mp4	0.0	280.2401719093323	2.5078539848327637
69	217.26933097839355	fix_post	2		12.0	67.0	2.5	/experiments/knapen_aot/videos/S_yt-4NjyKFnwHBo_13.mp4	0.0	282.74802589416504	0.09999489784240723
70	217.36932587623596	fix_pre	0		28.0	68.0	2.5	/experiments/knapen_aot/videos/S_yt-aiDGx4AN8J0_9.mp4	0.0	282.84802079200745	0.23332619667053223
70	217.59447503089905	response	0	2		68.0	2.5	/experiments/knapen_aot/videos/S_yt-aiDGx4AN8J0_9.mp4	0.0	283.07316994667053	
70	217.6026520729065	movie	1		301.0	68.0	2.5	/experiments/knapen_aot/videos/S_yt-aiDGx4AN8J0_9.mp4	0.0	283.081346988678	2.5082778930664062
70	220.1109299659729	fix_post	2		12.0	68.0	2.5	/experiments/knapen_aot/videos/S_yt-aiDGx4AN8J0_9.mp4	0.0	285.5896248817444	0.1000359058380127
71	220.2109658718109	fix_pre	0		172.0	69.0	2.5	/experiments/knapen_aot/videos/S_ILSVRC2015_train_00292006.mp4	0.0	285.6896607875824	1.4333980083465576
71	221.63614106178284	response	0	2		69.0	2.5	/experiments/knapen_aot/videos/S_ILSVRC2015_train_00292006.mp4	0.0	287.1148359775543	
71	221.64436388015747	movie	1		301.0	69.0	2.5	/experiments/knapen_aot/videos/S_ILSVRC2015_train_00292006.mp4	0.0	287.12305879592896	2.5081779956817627
71	224.15254187583923	fix_post	2		12.0	69.0	2.5	/experiments/knapen_aot/videos/S_ILSVRC2015_train_00292006.mp4	0.0	289.6312367916107	0.10010409355163574
72	224.25264596939087	fix_pre	0		16.0	70.0	2.5	blank	1.0	289.73134088516235	0.13382411003112793
72	224.37766408920288	response	0	2		70.0	2.5	blank	1.0	289.85635900497437	
72	224.386470079422	movie	1		301.0	70.0	2.5	blank	1.0	289.8651649951935	2.507762908935547
72	226.89423298835754	fix_post	2		12.0	70.0	2.5	blank	1.0	292.372927904129	0.10004091262817383
73	226.99427390098572	fix_pre	0		27.0	71.0	2.5	/experiments/knapen_aot/videos/S_video-12.mp4	0.0	292.4729688167572	0.22542500495910645
73	227.21098399162292	response	0	2		71.0	2.5	/experiments/knapen_aot/videos/S_video-12.mp4	0.0	292.6896789073944	
73	227.21969890594482	movie	1		167.0	71.0	2.5	/experiments/knapen_aot/videos/S_video-12.mp4	0.0	292.6983938217163	2.507840156555176
73	229.7275390625	fix_post	2		12.0	71.0	2.5	/experiments/knapen_aot/videos/S_video-12.mp4	0.0	295.2062339782715	0.10002589225769043
74	229.8275649547577	fix_pre	0		177.0	72.0	2.5	/experiments/knapen_aot/videos/R_S_yt-5fnd__rpWeE_396.mp4	0.0	295.3062598705292	1.4754400253295898
74	231.29443407058716	response	0	2		72.0	2.5	/experiments/knapen_aot/videos/R_S_yt-5fnd__rpWeE_396.mp4	0.0	296.77312898635864	
74	231.30300498008728	movie	1		301.0	72.0	2.5	/experiments/knapen_aot/videos/R_S_yt-5fnd__rpWeE_396.mp4	0.0	296.78169989585876	2.5078699588775635
74	233.81087493896484	fix_post	2		11.0	72.0	2.5	/experiments/knapen_aot/videos/R_S_yt-5fnd__rpWeE_396.mp4	0.0	299.2895698547363	0.09994006156921387
75	233.91081500053406	fix_pre	0		38.0	73.0	2.5	/experiments/knapen_aot/videos/R_S_yt-5fnd__rpWeE_396.mp4	0.0	299.38950991630554	0.3166849613189697
75	234.21938705444336	response	0	2		73.0	2.5	/experiments/knapen_aot/videos/R_S_yt-5fnd__rpWeE_396.mp4	0.0	299.69808197021484	
75	234.22749996185303	movie	1		301.0	73.0	2.5	/experiments/knapen_aot/videos/R_S_yt-5fnd__rpWeE_396.mp4	0.0	299.7061948776245	2.508323907852173
75	236.7358238697052	fix_post	2		12.0	73.0	2.5	/experiments/knapen_aot/videos/R_S_yt-5fnd__rpWeE_396.mp4	0.0	302.2145187854767	0.10003519058227539
76	236.83585906028748	fix_pre	0		74.0	74.0	2.5	/experiments/knapen_aot/videos/R_S_yt-sIXdPhfS67U_203.mp4	0.0	302.31455397605896	0.6166439056396484
76	237.4443359375	response	0	2		74.0	2.5	/experiments/knapen_aot/videos/R_S_yt-sIXdPhfS67U_203.mp4	0.0	302.9230308532715	
76	237.45250296592712	movie	1		301.0	74.0	2.5	/experiments/knapen_aot/videos/R_S_yt-sIXdPhfS67U_203.mp4	0.0	302.9311978816986	2.5083720684051514
76	239.96087503433228	fix_post	2		12.0	74.0	2.5	/experiments/knapen_aot/videos/R_S_yt-sIXdPhfS67U_203.mp4	0.0	305.43956995010376	0.09999203681945801
77	240.06086707115173	fix_pre	0		30.0	75.0	2.5	/experiments/knapen_aot/videos/S_yt-W00vtWnXgIk_73.mp4	0.0	305.5395619869232	0.24998092651367188
77	240.30264496803284	response	0	2		75.0	2.5	/experiments/knapen_aot/videos/S_yt-W00vtWnXgIk_73.mp4	0.0	305.7813398838043	
77	240.3108479976654	movie	1		301.0	75.0	2.5	/experiments/knapen_aot/videos/S_yt-W00vtWnXgIk_73.mp4	0.0	305.7895429134369	2.508347988128662
77	242.81919598579407	fix_post	2		12.0	75.0	2.5	/experiments/knapen_aot/videos/S_yt-W00vtWnXgIk_73.mp4	0.0	308.29789090156555	0.10019111633300781
78	242.91938710212708	fix_pre	0		124.0	76.0	2.5	/experiments/knapen_aot/videos/R_S_ILSVRC2015_train_00723001.mp4	0.0	308.39808201789856	1.0330297946929932
78	243.94431591033936	response	0	2		76.0	2.5	/experiments/knapen_aot/videos/R_S_ILSVRC2015_train_00723001.mp4	0.0	309.42301082611084	
78	243.95241689682007	movie	1		301.0	76.0	2.5	/experiments/knapen_aot/videos/R_S_ILSVRC2015_train_00723001.mp4	0.0	309.43111181259155	2.508333206176758
78	246.46075010299683	fix_post	2		12.0	76.0	2.5	/experiments/knapen_aot/videos/R_S_ILSVRC2015_train_00723001.mp4	0.0	311.9394450187683	0.1000828742980957
79	246.56083297729492	fix_pre	0		38.0	77.0	2.5	blank	1.0	312.0395278930664	0.3166079521179199
79	246.86929607391357	response	0	2		77.0	2.5	blank	1.0	312.34799098968506	
79	246.87744092941284	movie	1		301.0	77.0	2.5	blank	1.0	312.3561358451843	2.508358955383301
79	249.38579988479614	fix_post	2		12.0	77.0	2.5	blank	1.0	314.8644948005676	0.10004901885986328
80	249.485848903656	fix_pre	0		22.0	78.0	2.5	/experiments/knapen_aot/videos/R_S_wc-WgOBK5IL7vex_4.mp4	0.0	314.9645438194275	0.1832730770111084
80	249.66090893745422	response	0	2		78.0	2.5	/experiments/knapen_aot/videos/R_S_wc-WgOBK5IL7vex_4.mp4	0.0	315.1396038532257	
80	249.66912198066711	movie	1		172.0	78.0	2.5	/experiments/knapen_aot/videos/R_S_wc-WgOBK5IL7vex_4.mp4	0.0	315.1478168964386	2.5084469318389893
80	252.1775689125061	fix_post	2		12.0	78.0	2.5	/experiments/knapen_aot/videos/R_S_wc-WgOBK5IL7vex_4.mp4	0.0	317.6562638282776	0.09985518455505371
81	252.27742409706116	fix_pre	0		23.0	79.0	2.5	/experiments/knapen_aot/videos/R_S_yt-CeOZeB1LXwE_79.mp4	0.0	317.75611901283264	0.19205594062805176
81	252.4609079360962	response	0	2		79.0	2.5	/experiments/knapen_aot/videos/R_S_yt-CeOZeB1LXwE_79.mp4	0.0	317.9396028518677	
81	252.4694800376892	movie	1		301.0	79.0	2.5	/experiments/knapen_aot/videos/R_S_yt-CeOZeB1LXwE_79.mp4	0.0	317.9481749534607	2.507999897003174
81	254.97747993469238	fix_post	2		12.0	79.0	2.5	/experiments/knapen_aot/videos/R_S_yt-CeOZeB1LXwE_79.mp4	0.0	320.45617485046387	0.09995198249816895
82	255.07743191719055	fix_pre	0		23.0	80.0	2.5	/experiments/knapen_aot/videos/S_video-2.mp4	0.0	320.55612683296204	0.19170904159545898
82	255.2608540058136	response	0	2		80.0	2.5	/experiments/knapen_aot/videos/S_video-2.mp4	0.0	320.7395489215851	
82	255.269140958786	movie	1		164.0	80.0	2.5	/experiments/knapen_aot/videos/S_video-2.mp4	0.0	320.7478358745575	2.5083091259002686
82	257.7774500846863	fix_post	2		12.0	80.0	2.5	/experiments/knapen_aot/videos/S_video-2.mp4	0.0	323.25614500045776	0.10003495216369629
83	257.87748503685	fix_pre	0		28.0	81.0	2.5	/experiments/knapen_aot/videos/S_yt-s73Xqkcq9Js_285.mp4	0.0	323.35617995262146	0.23329687118530273
83	258.10261607170105	response	0	2		81.0	2.5	/experiments/knapen_aot/videos/S_yt-s73Xqkcq9Js_285.mp4	0.0	323.58131098747253	
83	258.1107819080353	movie	1		301.0	81.0	2.5	/experiments/knapen_aot/videos/S_yt-s73Xqkcq9Js_285.mp4	0.0	323.58947682380676	2.5083560943603516
83	260.61913800239563	fix_post	2		12.0	81.0	2.5	/experiments/knapen_aot/videos/S_yt-s73Xqkcq9Js_285.mp4	0.0	326.0978329181671	0.1002950668334961
84	260.7194330692291	fix_pre	0		32.0	82.0	2.5	blank	1.0	326.1981279850006	0.2663588523864746
84	260.9775049686432	response	0	2		82.0	2.5	blank	1.0	326.4561998844147	
84	260.9857919216156	movie	1		301.0	82.0	2.5	blank	1.0	326.4644868373871	2.5083560943603516
84	263.49414801597595	fix_post	2		12.0	82.0	2.5	blank	1.0	328.97284293174744	0.10030388832092285
85	263.5944519042969	fix_pre	0		89.0	83.0	2.5	/experiments/knapen_aot/videos/S_yt-Id-f63kUHsE_20.mp4	0.0	329.07314682006836	0.7413389682769775
85	264.3200509548187	response	0	2		83.0	2.5	/experiments/knapen_aot/videos/S_yt-Id-f63kUHsE_20.mp4	0.0	329.7987458705902	
85	264.33579087257385	movie	1		301.0	83.0	2.5	/experiments/knapen_aot/videos/S_yt-Id-f63kUHsE_20.mp4	0.0	329.81448578834534	2.5082151889801025
85	266.84400606155396	fix_post	2		12.0	83.0	2.5	/experiments/knapen_aot/videos/S_yt-Id-f63kUHsE_20.mp4	0.0	332.32270097732544	0.10005497932434082
87	266.9440610408783	stim	0		201.0					332.4227559566498	1.6781070232391357
87	267.09421706199646	response	0	2						332.57291197776794	
87	268.615385055542	response	0	space						334.0940799713135	
