trial_nr	onset	event_type	phase	response	nr_frames	movie_index	movie_duration	movie_file	blank	onset_abs	duration
0	0.11670517921447754	stim	0		68.0					94.42857313156128	0.5691628456115723
0	0.6753079891204834	response	0	space						94.98717594146729	
1	0.6858680248260498	stim	0		121.0					94.99773597717285	1.0054230690002441
1	1.691291093826294	stim	1		120.0					96.0031590461731	0.9999949932098389
1	1.8913350105285645	response	1	space						96.20320296287537	
2	2.691286087036133	fix_pre	0		16.0	0.0	2.5	/experiments/knapen_aot/videos/S_yt-_HuBzj8EPBc_62.mp4	0.0	97.00315403938293	0.13336396217346191
2	2.8163890838623047	response	0	space		0.0	2.5	/experiments/knapen_aot/videos/S_yt-_HuBzj8EPBc_62.mp4	0.0	97.1282570362091	
2	2.8246500492095947	movie	1		301.0	0.0	2.5	/experiments/knapen_aot/videos/S_yt-_HuBzj8EPBc_62.mp4	0.0	97.1365180015564	2.5083820819854736
2	5.333032131195068	fix_post	2		12.0	0.0	2.5	/experiments/knapen_aot/videos/S_yt-_HuBzj8EPBc_62.mp4	0.0	99.64490008354187	0.09996390342712402
3	5.432996034622192	fix_pre	0		10.0	1.0	2.5	/experiments/knapen_aot/videos/S_yt-8N5UuN5WQcY_72.mp4	0.0	99.744863986969	0.08577704429626465
3	5.511526107788086	response	0	2		1.0	2.5	/experiments/knapen_aot/videos/S_yt-8N5UuN5WQcY_72.mp4	0.0	99.82339406013489	
3	5.518773078918457	movie	1		300.0	1.0	2.5	/experiments/knapen_aot/videos/S_yt-8N5UuN5WQcY_72.mp4	0.0	99.83064103126526	2.506006956100464
3	8.024780035018921	fix_post	2		12.0	1.0	2.5	/experiments/knapen_aot/videos/S_yt-8N5UuN5WQcY_72.mp4	0.0	102.33664798736572	0.09986305236816406
4	8.124643087387085	fix_pre	0		8.0	2.0	2.5	/experiments/knapen_aot/videos/S_video_inspire_nevada_lasvegas_northstrip_021.1080-h264.mp4	0.0	102.43651103973389	0.0677480697631836
4	8.183273077011108	response	0	2		2.0	2.5	/experiments/knapen_aot/videos/S_video_inspire_nevada_lasvegas_northstrip_021.1080-h264.mp4	0.0	102.49514102935791	
4	8.192391157150269	movie	1		167.0	2.0	2.5	/experiments/knapen_aot/videos/S_video_inspire_nevada_lasvegas_northstrip_021.1080-h264.mp4	0.0	102.50425910949707	2.5072989463806152
4	10.699690103530884	fix_post	2		12.0	2.0	2.5	/experiments/knapen_aot/videos/S_video_inspire_nevada_lasvegas_northstrip_021.1080-h264.mp4	0.0	105.01155805587769	0.10000395774841309
5	10.799694061279297	fix_pre	0		2.0	3.0	2.5	/experiments/knapen_aot/videos/S_yt-QJ2k6vA8aco_12.mp4	0.0	105.1115620136261	0.017838001251220703
5	10.810582160949707	response	0	2		3.0	2.5	/experiments/knapen_aot/videos/S_yt-QJ2k6vA8aco_12.mp4	0.0	105.12245011329651	
5	10.817532062530518	movie	1		296.0	3.0	2.5	/experiments/knapen_aot/videos/S_yt-QJ2k6vA8aco_12.mp4	0.0	105.12940001487732	2.5071370601654053
5	13.324669122695923	fix_post	2		12.0	3.0	2.5	/experiments/knapen_aot/videos/S_yt-QJ2k6vA8aco_12.mp4	0.0	107.63653707504272	0.10003399848937988
6	13.424703121185303	fix_pre	0		7.0	4.0	2.5	/experiments/knapen_aot/videos/S_pexels-mikhail-nilov-8410084.mp4	0.0	107.7365710735321	0.05934786796569824
6	13.47474718093872	response	0	2		4.0	2.5	/experiments/knapen_aot/videos/S_pexels-mikhail-nilov-8410084.mp4	0.0	107.78661513328552	
6	13.484050989151001	movie	1		167.0	4.0	2.5	/experiments/knapen_aot/videos/S_pexels-mikhail-nilov-8410084.mp4	0.0	107.7959189414978	2.5072741508483887
6	15.99132513999939	fix_post	2		12.0	4.0	2.5	/experiments/knapen_aot/videos/S_pexels-mikhail-nilov-8410084.mp4	0.0	110.30319309234619	0.09998893737792969
6	16.06640315055847	response	2	2		4.0	2.5	/experiments/knapen_aot/videos/S_pexels-mikhail-nilov-8410084.mp4	0.0	110.37827110290527	
7	16.09131407737732	fix_pre	0		36.0	5.0	2.5	blank	1.0	110.40318202972412	0.2999429702758789
7	16.383053064346313	response	0	2		5.0	2.5	blank	1.0	110.69492101669312	
7	16.3912570476532	movie	1		301.0	5.0	2.5	blank	1.0	110.703125	2.508402109146118
7	18.899659156799316	fix_post	2		12.0	5.0	2.5	blank	1.0	113.21152710914612	0.0999758243560791
8	18.999634981155396	fix_pre	0		17.0	6.0	2.5	/experiments/knapen_aot/videos/R_S_yt-loYSF41PfgI_79.mp4	0.0	113.3115029335022	0.14160418510437012
8	19.133136987686157	response	0	2		6.0	2.5	/experiments/knapen_aot/videos/R_S_yt-loYSF41PfgI_79.mp4	0.0	113.44500494003296	
8	19.141239166259766	movie	1		301.0	6.0	2.5	/experiments/knapen_aot/videos/R_S_yt-loYSF41PfgI_79.mp4	0.0	113.45310711860657	2.5084760189056396
8	21.649715185165405	fix_post	2		12.0	6.0	2.5	/experiments/knapen_aot/videos/R_S_yt-loYSF41PfgI_79.mp4	0.0	115.9615831375122	0.10001993179321289
9	21.749735116958618	fix_pre	0		7.0	7.0	2.5	/experiments/knapen_aot/videos/S_yt-Wr5pSPApQDw_235.mp4	0.0	116.06160306930542	0.05806994438171387
9	21.79974603652954	response	0	2		7.0	2.5	/experiments/knapen_aot/videos/S_yt-Wr5pSPApQDw_235.mp4	0.0	116.11161398887634	
9	21.807805061340332	movie	1		301.0	7.0	2.5	/experiments/knapen_aot/videos/S_yt-Wr5pSPApQDw_235.mp4	0.0	116.11967301368713	2.5085389614105225
9	24.316344022750854	fix_post	2		12.0	7.0	2.5	/experiments/knapen_aot/videos/S_yt-Wr5pSPApQDw_235.mp4	0.0	118.62821197509766	0.09988808631896973
10	24.416232109069824	fix_pre	0		17.0	8.0	2.5	/experiments/knapen_aot/videos/R_S_comp_C004_C003_PS_v01_SDR_PS_20180925_SDR_2K_AVC.mp4	0.0	118.72810006141663	0.14165997505187988
10	24.54966902732849	response	0	2		8.0	2.5	/experiments/knapen_aot/videos/R_S_comp_C004_C003_PS_v01_SDR_PS_20180925_SDR_2K_AVC.mp4	0.0	118.8615369796753	
10	24.557892084121704	movie	1		168.0	8.0	2.5	/experiments/knapen_aot/videos/R_S_comp_C004_C003_PS_v01_SDR_PS_20180925_SDR_2K_AVC.mp4	0.0	118.8697600364685	2.508344888687134
10	27.066236972808838	fix_post	2		12.0	8.0	2.5	/experiments/knapen_aot/videos/R_S_comp_C004_C003_PS_v01_SDR_PS_20180925_SDR_2K_AVC.mp4	0.0	121.37810492515564	0.09995412826538086
11	27.16619110107422	fix_pre	0		10.0	9.0	2.5	/experiments/knapen_aot/videos/S_yt_R-lST38EdfMMQ_5.mp4	0.0	121.47805905342102	0.08346891403198242
11	27.241284132003784	response	0	2		9.0	2.5	/experiments/knapen_aot/videos/S_yt_R-lST38EdfMMQ_5.mp4	0.0	121.55315208435059	
11	27.2496600151062	movie	1		301.0	9.0	2.5	/experiments/knapen_aot/videos/S_yt_R-lST38EdfMMQ_5.mp4	0.0	121.561527967453	2.5082430839538574
11	29.75790309906006	fix_post	2		12.0	9.0	2.5	/experiments/knapen_aot/videos/S_yt_R-lST38EdfMMQ_5.mp4	0.0	124.06977105140686	0.09992599487304688
12	29.857829093933105	fix_pre	0		5.0	10.0	2.5	/experiments/knapen_aot/videos/R_S_-vPHq-7BJ70_15.mp4	0.0	124.16969704627991	0.042669057846069336
12	29.891383171081543	response	0	2		10.0	2.5	/experiments/knapen_aot/videos/R_S_-vPHq-7BJ70_15.mp4	0.0	124.20325112342834	
12	29.900498151779175	movie	1		301.0	10.0	2.5	/experiments/knapen_aot/videos/R_S_-vPHq-7BJ70_15.mp4	0.0	124.21236610412598	2.5072970390319824
12	32.40779519081116	fix_post	2		12.0	10.0	2.5	/experiments/knapen_aot/videos/R_S_-vPHq-7BJ70_15.mp4	0.0	126.71966314315796	0.1001129150390625
13	32.50790810585022	fix_pre	0		3.0	11.0	2.5	/experiments/knapen_aot/videos/R_S_ILSVRC2015_train_00354001.mp4	0.0	126.81977605819702	0.024918079376220703
13	32.52465796470642	response	0	2		11.0	2.5	/experiments/knapen_aot/videos/R_S_ILSVRC2015_train_00354001.mp4	0.0	126.83652591705322	
13	32.53282618522644	movie	1		301.0	11.0	2.5	/experiments/knapen_aot/videos/R_S_ILSVRC2015_train_00354001.mp4	0.0	126.84469413757324	2.508471965789795
13	35.041298151016235	fix_post	2		12.0	11.0	2.5	/experiments/knapen_aot/videos/R_S_ILSVRC2015_train_00354001.mp4	0.0	129.35316610336304	0.09990382194519043
14	35.141201972961426	fix_pre	0		11.0	12.0	2.5	/experiments/knapen_aot/videos/S_yt-7bSTxOajpjc_58.mp4	0.0	129.45306992530823	0.09267520904541016
14	35.22463512420654	response	0	2		12.0	2.5	/experiments/knapen_aot/videos/S_yt-7bSTxOajpjc_58.mp4	0.0	129.53650307655334	
14	35.233877182006836	movie	1		301.0	12.0	2.5	/experiments/knapen_aot/videos/S_yt-7bSTxOajpjc_58.mp4	0.0	129.54574513435364	2.507286787033081
14	37.74116396903992	fix_post	2		12.0	12.0	2.5	/experiments/knapen_aot/videos/S_yt-7bSTxOajpjc_58.mp4	0.0	132.05303192138672	0.09998011589050293
15	37.84114408493042	fix_pre	0		18.0	13.0	2.5	blank	1.0	132.15301203727722	0.15001201629638672
15	37.98293614387512	response	0	2		13.0	2.5	blank	1.0	132.29480409622192	
15	37.99115610122681	movie	1		301.0	13.0	2.5	blank	1.0	132.3030240535736	2.508392095565796
15	40.4995481967926	fix_post	2		12.0	13.0	2.5	blank	1.0	134.8114161491394	0.1000368595123291
16	40.59958505630493	fix_pre	0		18.0	14.0	2.5	/experiments/knapen_aot/videos/S_yt-O6FS0xnF0CU_106.mp4	0.0	134.91145300865173	0.14991211891174316
16	40.741188049316406	response	0	2		14.0	2.5	/experiments/knapen_aot/videos/S_yt-O6FS0xnF0CU_106.mp4	0.0	135.0530560016632	
16	40.749497175216675	movie	1		301.0	14.0	2.5	/experiments/knapen_aot/videos/S_yt-O6FS0xnF0CU_106.mp4	0.0	135.06136512756348	2.508424997329712
16	43.25792217254639	fix_post	2		12.0	14.0	2.5	/experiments/knapen_aot/videos/S_yt-O6FS0xnF0CU_106.mp4	0.0	137.5697901248932	0.09996581077575684
17	43.357887983322144	fix_pre	0		1.0	15.0	2.5	/experiments/knapen_aot/videos/R_S_ILSVRC2015_train_00044004.mp4	0.0	137.66975593566895	0.00829005241394043
17	43.35951113700867	response	0	2		15.0	2.5	/experiments/knapen_aot/videos/R_S_ILSVRC2015_train_00044004.mp4	0.0	137.67137908935547	
17	43.366178035736084	movie	1		301.0	15.0	2.5	/experiments/knapen_aot/videos/R_S_ILSVRC2015_train_00044004.mp4	0.0	137.67804598808289	2.5084049701690674
17	45.87458300590515	fix_post	2		12.0	15.0	2.5	/experiments/knapen_aot/videos/R_S_ILSVRC2015_train_00044004.mp4	0.0	140.18645095825195	0.09991097450256348
17	45.876312017440796	response	2	2		15.0	2.5	/experiments/knapen_aot/videos/R_S_ILSVRC2015_train_00044004.mp4	0.0	140.1881799697876	
18	45.974493980407715	fix_pre	0		25.0	16.0	2.5	/experiments/knapen_aot/videos/R_S_yt-7XDVHp75fu4_93.mp4	0.0	140.28636193275452	0.20832514762878418
18	46.17451000213623	response	0	2		16.0	2.5	/experiments/knapen_aot/videos/R_S_yt-7XDVHp75fu4_93.mp4	0.0	140.48637795448303	
18	46.1828191280365	movie	1		301.0	16.0	2.5	/experiments/knapen_aot/videos/R_S_yt-7XDVHp75fu4_93.mp4	0.0	140.4946870803833	2.508410930633545
18	48.691230058670044	fix_post	2		12.0	16.0	2.5	/experiments/knapen_aot/videos/R_S_yt-7XDVHp75fu4_93.mp4	0.0	143.00309801101685	0.09994912147521973
18	48.76629710197449	response	2	2		16.0	2.5	/experiments/knapen_aot/videos/R_S_yt-7XDVHp75fu4_93.mp4	0.0	143.0781650543213	
19	48.791179180145264	fix_pre	0		33.0	17.0	2.5	/experiments/knapen_aot/videos/R_S_ILSVRC2015_train_00578000.mp4	0.0	143.10304713249207	0.27591490745544434
19	49.05790710449219	response	0	2		17.0	2.5	/experiments/knapen_aot/videos/R_S_ILSVRC2015_train_00578000.mp4	0.0	143.369775056839	
19	49.06709408760071	movie	1		301.0	17.0	2.5	/experiments/knapen_aot/videos/R_S_ILSVRC2015_train_00578000.mp4	0.0	143.3789620399475	2.507507085800171
19	51.57460117340088	fix_post	2		12.0	17.0	2.5	/experiments/knapen_aot/videos/R_S_ILSVRC2015_train_00578000.mp4	0.0	145.88646912574768	0.0998849868774414
20	51.67448616027832	fix_pre	0		6.0	18.0	2.5	/experiments/knapen_aot/videos/R_S_wc-DcFDe419cL3d_17.mp4	0.0	145.98635411262512	0.04997992515563965
20	51.716267108917236	response	0	2		18.0	2.5	/experiments/knapen_aot/videos/R_S_wc-DcFDe419cL3d_17.mp4	0.0	146.02813506126404	
20	51.72446608543396	movie	1		168.0	18.0	2.5	/experiments/knapen_aot/videos/R_S_wc-DcFDe419cL3d_17.mp4	0.0	146.03633403778076	2.508366107940674
20	54.232832193374634	fix_post	2		12.0	18.0	2.5	/experiments/knapen_aot/videos/R_S_wc-DcFDe419cL3d_17.mp4	0.0	148.54470014572144	0.09994983673095703
21	54.33278203010559	fix_pre	0		62.0	19.0	2.5	/experiments/knapen_aot/videos/S_production_ID_3943334.mp4	0.0	148.6446499824524	0.5166471004486084
21	54.84119009971619	response	0	2		19.0	2.5	/experiments/knapen_aot/videos/S_production_ID_3943334.mp4	0.0	149.153058052063	
21	54.8494291305542	movie	1		197.0	19.0	2.5	/experiments/knapen_aot/videos/S_production_ID_3943334.mp4	0.0	149.161297082901	2.508349895477295
21	57.357779026031494	fix_post	2		12.0	19.0	2.5	/experiments/knapen_aot/videos/S_production_ID_3943334.mp4	0.0	151.6696469783783	0.09999513626098633
22	57.45777416229248	fix_pre	0		87.0	20.0	2.5	blank	1.0	151.76964211463928	0.7249429225921631
22	58.17459201812744	response	0	2		20.0	2.5	blank	1.0	152.48645997047424	
22	58.182717084884644	movie	1		301.0	20.0	2.5	blank	1.0	152.49458503723145	2.508394956588745
22	60.69111204147339	fix_post	2		12.0	20.0	2.5	blank	1.0	155.0029799938202	0.10003900527954102
23	60.79115104675293	fix_pre	0		46.0	21.0	2.5	/experiments/knapen_aot/videos/R_S_yt-D9uD7yM6bxQ_269.mp4	0.0	155.10301899909973	0.38316798210144043
23	61.16622996330261	response	0	2		21.0	2.5	/experiments/knapen_aot/videos/R_S_yt-D9uD7yM6bxQ_269.mp4	0.0	155.4780979156494	
23	61.17431902885437	movie	1		301.0	21.0	2.5	/experiments/knapen_aot/videos/R_S_yt-D9uD7yM6bxQ_269.mp4	0.0	155.48618698120117	2.5083930492401123
23	63.68271207809448	fix_post	2		12.0	21.0	2.5	/experiments/knapen_aot/videos/R_S_yt-D9uD7yM6bxQ_269.mp4	0.0	157.99458003044128	0.10007500648498535
24	63.78278708457947	fix_pre	0		12.0	22.0	2.5	/experiments/knapen_aot/videos/R_S_yt-fIEGqReekCM_10.mp4	0.0	158.09465503692627	0.09987688064575195
24	63.87445616722107	response	0	2		22.0	2.5	/experiments/knapen_aot/videos/R_S_yt-fIEGqReekCM_10.mp4	0.0	158.18632411956787	
24	63.88266396522522	movie	1		301.0	22.0	2.5	/experiments/knapen_aot/videos/R_S_yt-fIEGqReekCM_10.mp4	0.0	158.19453191757202	2.5084152221679688
24	66.39107918739319	fix_post	2		12.0	22.0	2.5	/experiments/knapen_aot/videos/R_S_yt-fIEGqReekCM_10.mp4	0.0	160.70294713974	0.1000068187713623
25	66.49108600616455	fix_pre	0		9.0	23.0	2.5	/experiments/knapen_aot/videos/S_yt-GI8BEHw2Lq8_3.mp4	0.0	160.80295395851135	0.0758051872253418
25	66.55783796310425	response	0	2		23.0	2.5	/experiments/knapen_aot/videos/S_yt-GI8BEHw2Lq8_3.mp4	0.0	160.86970591545105	
25	66.56689119338989	movie	1		301.0	23.0	2.5	/experiments/knapen_aot/videos/S_yt-GI8BEHw2Lq8_3.mp4	0.0	160.8787591457367	2.507504940032959
25	69.07439613342285	fix_post	2		12.0	23.0	2.5	/experiments/knapen_aot/videos/S_yt-GI8BEHw2Lq8_3.mp4	0.0	163.38626408576965	0.10007500648498535
26	69.17447113990784	fix_pre	0		13.0	24.0	2.5	/experiments/knapen_aot/videos/S_yt-z16pdVTZK1o_3.mp4	0.0	163.48633909225464	0.10835599899291992
26	69.26706314086914	response	0	2		24.0	2.5	/experiments/knapen_aot/videos/S_yt-z16pdVTZK1o_3.mp4	0.0	163.57893109321594	
26	69.28282713890076	movie	1		301.0	24.0	2.5	/experiments/knapen_aot/videos/S_yt-z16pdVTZK1o_3.mp4	0.0	163.59469509124756	2.5082600116729736
26	71.79108715057373	fix_post	2		12.0	24.0	2.5	/experiments/knapen_aot/videos/S_yt-z16pdVTZK1o_3.mp4	0.0	166.10295510292053	0.09998202323913574
27	71.89106917381287	fix_pre	0		23.0	25.0	2.5	/experiments/knapen_aot/videos/R_S_-IkGMlLHrOI_108.mp4	0.0	166.20293712615967	0.191633939743042
27	72.06691098213196	response	0	2		25.0	2.5	/experiments/knapen_aot/videos/R_S_-IkGMlLHrOI_108.mp4	0.0	166.37877893447876	
27	72.08270311355591	movie	1		301.0	25.0	2.5	/experiments/knapen_aot/videos/R_S_-IkGMlLHrOI_108.mp4	0.0	166.3945710659027	2.5083348751068115
27	74.59103798866272	fix_post	2		12.0	25.0	2.5	/experiments/knapen_aot/videos/R_S_-IkGMlLHrOI_108.mp4	0.0	168.90290594100952	0.10001111030578613
28	74.6910490989685	fix_pre	0		7.0	26.0	2.5	/experiments/knapen_aot/videos/R_S_yt-Uv0dt_-fWJU_40.mp4	0.0	169.0029170513153	0.05833292007446289
28	74.7411241531372	response	0	2		26.0	2.5	/experiments/knapen_aot/videos/R_S_yt-Uv0dt_-fWJU_40.mp4	0.0	169.052992105484	
28	74.74938201904297	movie	1		301.0	26.0	2.5	/experiments/knapen_aot/videos/R_S_yt-Uv0dt_-fWJU_40.mp4	0.0	169.06124997138977	2.5083260536193848
28	77.25770807266235	fix_post	2		12.0	26.0	2.5	/experiments/knapen_aot/videos/R_S_yt-Uv0dt_-fWJU_40.mp4	0.0	171.56957602500916	0.10011601448059082
29	77.35782408714294	fix_pre	0		8.0	27.0	2.5	blank	1.0	171.66969203948975	0.0665440559387207
29	77.41604709625244	response	0	2		27.0	2.5	blank	1.0	171.72791504859924	
29	77.42436814308167	movie	1		301.0	27.0	2.5	blank	1.0	171.73623609542847	2.508297920227051
29	79.93266606330872	fix_post	2		12.0	27.0	2.5	blank	1.0	174.24453401565552	0.10002493858337402
30	80.03269100189209	fix_pre	0		27.0	28.0	2.5	/experiments/knapen_aot/videos/R_S_yt-p0buJEEKeuI_61.mp4	0.0	174.3445589542389	0.22495412826538086
30	80.24944996833801	response	0	2		28.0	2.5	/experiments/knapen_aot/videos/R_S_yt-p0buJEEKeuI_61.mp4	0.0	174.56131792068481	
30	80.25764513015747	movie	1		301.0	28.0	2.5	/experiments/knapen_aot/videos/R_S_yt-p0buJEEKeuI_61.mp4	0.0	174.56951308250427	2.508298873901367
30	82.76594400405884	fix_post	2		12.0	28.0	2.5	/experiments/knapen_aot/videos/R_S_yt-p0buJEEKeuI_61.mp4	0.0	177.07781195640564	0.10007905960083008
31	82.86602306365967	fix_pre	0		24.0	29.0	2.5	/experiments/knapen_aot/videos/S_yt-fnE8kgUHUMI_64.mp4	0.0	177.17789101600647	0.20059895515441895
31	83.05775809288025	response	0	2		29.0	2.5	/experiments/knapen_aot/videos/S_yt-fnE8kgUHUMI_64.mp4	0.0	177.36962604522705	
31	83.06662201881409	movie	1		301.0	29.0	2.5	/experiments/knapen_aot/videos/S_yt-fnE8kgUHUMI_64.mp4	0.0	177.3784899711609	2.507711172103882
31	85.57433319091797	fix_post	2		12.0	29.0	2.5	/experiments/knapen_aot/videos/S_yt-fnE8kgUHUMI_64.mp4	0.0	179.88620114326477	0.10001277923583984
32	85.67434597015381	fix_pre	0		47.0	30.0	2.5	/experiments/knapen_aot/videos/S_yt-FbCVXEJicis_5.mp4	0.0	179.9862139225006	0.3922421932220459
32	86.05026412010193	response	0	2		30.0	2.5	/experiments/knapen_aot/videos/S_yt-FbCVXEJicis_5.mp4	0.0	180.36213207244873	
32	86.06658816337585	movie	1		301.0	30.0	2.5	/experiments/knapen_aot/videos/S_yt-FbCVXEJicis_5.mp4	0.0	180.37845611572266	2.507725954055786
32	88.57431411743164	fix_post	2		12.0	30.0	2.5	/experiments/knapen_aot/videos/S_yt-FbCVXEJicis_5.mp4	0.0	182.88618206977844	0.10006189346313477
33	88.67437601089478	fix_pre	0		32.0	31.0	2.5	/experiments/knapen_aot/videos/S_yt-3TF_RGo9cLs_541.mp4	0.0	182.98624396324158	0.26726508140563965
33	88.93276810646057	response	0	2		31.0	2.5	/experiments/knapen_aot/videos/S_yt-3TF_RGo9cLs_541.mp4	0.0	183.24463605880737	
33	88.94164109230042	movie	1		301.0	31.0	2.5	/experiments/knapen_aot/videos/S_yt-3TF_RGo9cLs_541.mp4	0.0	183.25350904464722	2.507735013961792
33	91.4493761062622	fix_post	2		12.0	31.0	2.5	/experiments/knapen_aot/videos/S_yt-3TF_RGo9cLs_541.mp4	0.0	185.761244058609	0.0999600887298584
34	91.54933619499207	fix_pre	0		30.0	32.0	2.5	/experiments/knapen_aot/videos/S_yt-JDHApyT5ngs_128.mp4	0.0	185.86120414733887	0.24985289573669434
34	91.79110503196716	response	0	2		32.0	2.5	/experiments/knapen_aot/videos/S_yt-JDHApyT5ngs_128.mp4	0.0	186.10297298431396	
34	91.79918909072876	movie	1		301.0	32.0	2.5	/experiments/knapen_aot/videos/S_yt-JDHApyT5ngs_128.mp4	0.0	186.11105704307556	2.5084140300750732
34	94.30760312080383	fix_post	2		12.0	32.0	2.5	/experiments/knapen_aot/videos/S_yt-JDHApyT5ngs_128.mp4	0.0	188.61947107315063	0.10003089904785156
35	94.40763401985168	fix_pre	0		29.0	33.0	2.5	/experiments/knapen_aot/videos/S_production_ID_5146014.mp4	0.0	188.7195019721985	0.2422339916229248
35	94.6410300731659	response	0	2		33.0	2.5	/experiments/knapen_aot/videos/S_production_ID_5146014.mp4	0.0	188.9528980255127	
35	94.64986801147461	movie	1		164.0	33.0	2.5	/experiments/knapen_aot/videos/S_production_ID_5146014.mp4	0.0	188.9617359638214	2.5077290534973145
35	97.15759706497192	fix_post	2		12.0	33.0	2.5	/experiments/knapen_aot/videos/S_production_ID_5146014.mp4	0.0	191.46946501731873	0.09995889663696289
36	97.25755596160889	fix_pre	0		1.0	34.0	2.5	blank	1.0	191.5694239139557	0.010381221771240234
36	97.2594690322876	response	0	2		34.0	2.5	blank	1.0	191.5713369846344	
36	97.26793718338013	movie	1		301.0	34.0	2.5	blank	1.0	191.57980513572693	2.5063369274139404
36	99.77427411079407	fix_post	2		12.0	34.0	2.5	blank	1.0	194.08614206314087	0.10007286071777344
37	99.87434697151184	fix_pre	0		19.0	35.0	2.5	/experiments/knapen_aot/videos/S_yt-loYSF41PfgI_79.mp4	0.0	194.18621492385864	0.15821504592895508
37	100.0243170261383	response	0	2		35.0	2.5	/experiments/knapen_aot/videos/S_yt-loYSF41PfgI_79.mp4	0.0	194.3361849784851	
37	100.0325620174408	movie	1		301.0	35.0	2.5	/experiments/knapen_aot/videos/S_yt-loYSF41PfgI_79.mp4	0.0	194.3444299697876	2.508342981338501
37	102.5409049987793	fix_post	2		12.0	35.0	2.5	/experiments/knapen_aot/videos/S_yt-loYSF41PfgI_79.mp4	0.0	196.8527729511261	0.10003209114074707
38	102.64093708992004	fix_pre	0		21.0	36.0	2.5	/experiments/knapen_aot/videos/S_wc-TAGpcap1KdAS_212.mp4	0.0	196.95280504226685	0.17557001113891602
38	102.80767798423767	response	0	2		36.0	2.5	/experiments/knapen_aot/videos/S_wc-TAGpcap1KdAS_212.mp4	0.0	197.11954593658447	
38	102.81650710105896	movie	1		301.0	36.0	2.5	/experiments/knapen_aot/videos/S_wc-TAGpcap1KdAS_212.mp4	0.0	197.12837505340576	2.5077319145202637
38	105.32423901557922	fix_post	2		12.0	36.0	2.5	/experiments/knapen_aot/videos/S_wc-TAGpcap1KdAS_212.mp4	0.0	199.63610696792603	0.10004997253417969
39	105.4242889881134	fix_pre	0		30.0	37.0	2.5	/experiments/knapen_aot/videos/R_S_yt-PRqnM7xDsus_24.mp4	0.0	199.7361569404602	0.2499990463256836
39	105.66588807106018	response	0	2		37.0	2.5	/experiments/knapen_aot/videos/R_S_yt-PRqnM7xDsus_24.mp4	0.0	199.97775602340698	
39	105.67428803443909	movie	1		301.0	37.0	2.5	/experiments/knapen_aot/videos/R_S_yt-PRqnM7xDsus_24.mp4	0.0	199.9861559867859	2.5082740783691406
39	108.18256211280823	fix_post	2		12.0	37.0	2.5	/experiments/knapen_aot/videos/R_S_yt-PRqnM7xDsus_24.mp4	0.0	202.49443006515503	0.09999799728393555
40	108.28256011009216	fix_pre	0		14.0	38.0	2.5	/experiments/knapen_aot/videos/R_S_yt-GI8BEHw2Lq8_3.mp4	0.0	202.59442806243896	0.11720800399780273
40	108.39102506637573	response	0	2		38.0	2.5	/experiments/knapen_aot/videos/R_S_yt-GI8BEHw2Lq8_3.mp4	0.0	202.70289301872253	
40	108.39976811408997	movie	1		301.0	38.0	2.5	/experiments/knapen_aot/videos/R_S_yt-GI8BEHw2Lq8_3.mp4	0.0	202.71163606643677	2.5077929496765137
40	108.53600096702576	response	1	2		38.0	2.5	/experiments/knapen_aot/videos/R_S_yt-GI8BEHw2Lq8_3.mp4	0.0	202.84786891937256	
40	110.90756106376648	fix_post	2		12.0	38.0	2.5	/experiments/knapen_aot/videos/R_S_yt-GI8BEHw2Lq8_3.mp4	0.0	205.21942901611328	0.10033392906188965
41	111.00789499282837	fix_pre	0		14.0	39.0	2.5	/experiments/knapen_aot/videos/R_S_yt-m8HxO_-RRq0_127.mp4	0.0	205.31976294517517	0.11621999740600586
41	111.11604905128479	response	0	2		39.0	2.5	/experiments/knapen_aot/videos/R_S_yt-m8HxO_-RRq0_127.mp4	0.0	205.4279170036316	
41	111.12411499023438	movie	1		301.0	39.0	2.5	/experiments/knapen_aot/videos/R_S_yt-m8HxO_-RRq0_127.mp4	0.0	205.43598294258118	2.508488178253174
41	113.63260316848755	fix_post	2		12.0	39.0	2.5	/experiments/knapen_aot/videos/R_S_yt-m8HxO_-RRq0_127.mp4	0.0	207.94447112083435	0.09995293617248535
42	113.73255610466003	fix_pre	0		13.0	40.0	2.5	/experiments/knapen_aot/videos/R_S_bing-www_dailymotion_com_video_x64hzm7_8.mp4	0.0	208.04442405700684	0.10827207565307617
42	113.83263206481934	response	0	2		40.0	2.5	/experiments/knapen_aot/videos/R_S_bing-www_dailymotion_com_video_x64hzm7_8.mp4	0.0	208.14450001716614	
42	113.84082818031311	movie	1		166.0	40.0	2.5	/experiments/knapen_aot/videos/R_S_bing-www_dailymotion_com_video_x64hzm7_8.mp4	0.0	208.1526961326599	2.5083718299865723
42	116.34920001029968	fix_post	2		12.0	40.0	2.5	/experiments/knapen_aot/videos/R_S_bing-www_dailymotion_com_video_x64hzm7_8.mp4	0.0	210.66106796264648	0.1000211238861084
43	116.44922113418579	fix_pre	0		16.0	41.0	2.5	blank	1.0	210.7610890865326	0.1332559585571289
43	116.57421207427979	response	0	2		41.0	2.5	blank	1.0	210.8860800266266	
43	116.58247709274292	movie	1		301.0	41.0	2.5	blank	1.0	210.89434504508972	2.5083999633789062
43	119.09087705612183	fix_post	2		12.0	41.0	2.5	blank	1.0	213.40274500846863	0.09998202323913574
44	119.19085907936096	fix_pre	0		13.0	42.0	2.5	/experiments/knapen_aot/videos/R_S_yt-Uv0dt_-fWJU_40.mp4	0.0	213.50272703170776	0.10830497741699219
44	119.2909619808197	response	0	2		42.0	2.5	/experiments/knapen_aot/videos/R_S_yt-Uv0dt_-fWJU_40.mp4	0.0	213.6028299331665	
44	119.29916405677795	movie	1		301.0	42.0	2.5	/experiments/knapen_aot/videos/R_S_yt-Uv0dt_-fWJU_40.mp4	0.0	213.61103200912476	2.5083730220794678
44	121.80753707885742	fix_post	2		12.0	42.0	2.5	/experiments/knapen_aot/videos/R_S_yt-Uv0dt_-fWJU_40.mp4	0.0	216.11940503120422	0.09995102882385254
45	121.90748810768127	fix_pre	0		11.0	43.0	2.5	/experiments/knapen_aot/videos/R_S_yt-tX5U0Lyo6Gs_376.mp4	0.0	216.21935606002808	0.0916130542755127
45	121.99097919464111	response	0	2		43.0	2.5	/experiments/knapen_aot/videos/R_S_yt-tX5U0Lyo6Gs_376.mp4	0.0	216.30284714698792	
45	121.99910116195679	movie	1		301.0	43.0	2.5	/experiments/knapen_aot/videos/R_S_yt-tX5U0Lyo6Gs_376.mp4	0.0	216.3109691143036	2.5083558559417725
45	124.50745701789856	fix_post	2		12.0	43.0	2.5	/experiments/knapen_aot/videos/R_S_yt-tX5U0Lyo6Gs_376.mp4	0.0	218.81932497024536	0.10006999969482422
46	124.60752701759338	fix_pre	0		7.0	44.0	2.5	/experiments/knapen_aot/videos/R_S_yt-LB9LoYfH_EA_15.mp4	0.0	218.91939496994019	0.05829501152038574
46	124.65761613845825	response	0	2		44.0	2.5	/experiments/knapen_aot/videos/R_S_yt-LB9LoYfH_EA_15.mp4	0.0	218.96948409080505	
46	124.66582202911377	movie	1		301.0	44.0	2.5	/experiments/knapen_aot/videos/R_S_yt-LB9LoYfH_EA_15.mp4	0.0	218.97768998146057	2.5083460807800293
46	127.1741681098938	fix_post	2		12.0	44.0	2.5	/experiments/knapen_aot/videos/R_S_yt-LB9LoYfH_EA_15.mp4	0.0	221.4860360622406	0.09989285469055176
47	127.27406096458435	fix_pre	0		6.0	45.0	2.5	/experiments/knapen_aot/videos/S_pexels-sora-shimazaki-5925295.mp4	0.0	221.58592891693115	0.05003714561462402
47	127.31597113609314	response	0	2		45.0	2.5	/experiments/knapen_aot/videos/S_pexels-sora-shimazaki-5925295.mp4	0.0	221.62783908843994	
47	127.32409811019897	movie	1		164.0	45.0	2.5	/experiments/knapen_aot/videos/S_pexels-sora-shimazaki-5925295.mp4	0.0	221.63596606254578	2.5083820819854736
47	129.83248019218445	fix_post	2		12.0	45.0	2.5	/experiments/knapen_aot/videos/S_pexels-sora-shimazaki-5925295.mp4	0.0	224.14434814453125	0.09992194175720215
47	129.8575611114502	response	2	2		45.0	2.5	/experiments/knapen_aot/videos/S_pexels-sora-shimazaki-5925295.mp4	0.0	224.169429063797	
48	129.93240213394165	fix_pre	0		27.0	46.0	2.5	/experiments/knapen_aot/videos/R_S_ILSVRC2015_train_00661001.mp4	0.0	224.24427008628845	0.22504186630249023
48	130.1491780281067	response	0	2		46.0	2.5	/experiments/knapen_aot/videos/R_S_ILSVRC2015_train_00661001.mp4	0.0	224.4610459804535	
48	130.15744400024414	movie	1		301.0	46.0	2.5	/experiments/knapen_aot/videos/R_S_ILSVRC2015_train_00661001.mp4	0.0	224.46931195259094	2.5085630416870117
48	132.66600704193115	fix_post	2		12.0	46.0	2.5	/experiments/knapen_aot/videos/R_S_ILSVRC2015_train_00661001.mp4	0.0	226.97787499427795	0.09978199005126953
49	132.76578903198242	fix_pre	0		2.0	47.0	2.5	blank	1.0	227.07765698432922	0.016664981842041016
49	132.7749011516571	response	0	2		47.0	2.5	blank	1.0	227.0867691040039	
49	132.78245401382446	movie	1		301.0	47.0	2.5	blank	1.0	227.09432196617126	2.508329153060913
49	135.29078316688538	fix_post	2		12.0	47.0	2.5	blank	1.0	229.60265111923218	0.10004281997680664
50	135.39082598686218	fix_pre	0		20.0	48.0	2.5	/experiments/knapen_aot/videos/S_yt-aiWUhl8MCto_71.mp4	0.0	229.70269393920898	0.16650009155273438
50	135.54921197891235	response	0	2		48.0	2.5	/experiments/knapen_aot/videos/S_yt-aiWUhl8MCto_71.mp4	0.0	229.86107993125916	
50	135.55732607841492	movie	1		301.0	48.0	2.5	/experiments/knapen_aot/videos/S_yt-aiWUhl8MCto_71.mp4	0.0	229.86919403076172	2.508514881134033
50	138.06584095954895	fix_post	2		12.0	48.0	2.5	/experiments/knapen_aot/videos/S_yt-aiWUhl8MCto_71.mp4	0.0	232.37770891189575	0.09995222091674805
51	138.1657931804657	fix_pre	0		16.0	49.0	2.5	/experiments/knapen_aot/videos/S_yt-H3EadcgKySM_58.mp4	0.0	232.4776611328125	0.13331389427185059
51	138.29088711738586	response	0	2		49.0	2.5	/experiments/knapen_aot/videos/S_yt-H3EadcgKySM_58.mp4	0.0	232.60275506973267	
51	138.29910707473755	movie	1		301.0	49.0	2.5	/experiments/knapen_aot/videos/S_yt-H3EadcgKySM_58.mp4	0.0	232.61097502708435	2.5084269046783447
51	140.8075339794159	fix_post	2		12.0	49.0	2.5	/experiments/knapen_aot/videos/S_yt-H3EadcgKySM_58.mp4	0.0	235.1194019317627	0.09988617897033691
52	140.90742015838623	fix_pre	0		49.0	50.0	2.5	/experiments/knapen_aot/videos/S_yt-i4kSCZ8rNC0_11.mp4	0.0	235.21928811073303	0.4086170196533203
52	141.29996299743652	response	0	2		50.0	2.5	/experiments/knapen_aot/videos/S_yt-i4kSCZ8rNC0_11.mp4	0.0	235.61183094978333	
52	141.31603717803955	movie	1		301.0	50.0	2.5	/experiments/knapen_aot/videos/S_yt-i4kSCZ8rNC0_11.mp4	0.0	235.62790513038635	2.508065938949585
52	143.82410311698914	fix_post	2		12.0	50.0	2.5	/experiments/knapen_aot/videos/S_yt-i4kSCZ8rNC0_11.mp4	0.0	238.13597106933594	0.09997200965881348
53	143.92407512664795	fix_pre	0		20.0	51.0	2.5	/experiments/knapen_aot/videos/S_yt-Rqwi-Fk9IJQ_114.mp4	0.0	238.23594307899475	0.16664886474609375
53	144.0824601650238	response	0	2		51.0	2.5	/experiments/knapen_aot/videos/S_yt-Rqwi-Fk9IJQ_114.mp4	0.0	238.3943281173706	
53	144.09072399139404	movie	1		301.0	51.0	2.5	/experiments/knapen_aot/videos/S_yt-Rqwi-Fk9IJQ_114.mp4	0.0	238.40259194374084	2.5083301067352295
53	146.59905409812927	fix_post	2		12.0	51.0	2.5	/experiments/knapen_aot/videos/S_yt-Rqwi-Fk9IJQ_114.mp4	0.0	240.91092205047607	0.0999600887298584
54	146.69901418685913	fix_pre	0		33.0	52.0	2.5	/experiments/knapen_aot/videos/R_S_yt-K7viJXt9vX8_143.mp4	0.0	241.01088213920593	0.2750070095062256
54	146.9657940864563	response	0	2		52.0	2.5	/experiments/knapen_aot/videos/R_S_yt-K7viJXt9vX8_143.mp4	0.0	241.2776620388031	
54	146.97402119636536	movie	1		301.0	52.0	2.5	/experiments/knapen_aot/videos/R_S_yt-K7viJXt9vX8_143.mp4	0.0	241.28588914871216	2.508410930633545
54	149.4824321269989	fix_post	2		12.0	52.0	2.5	/experiments/knapen_aot/videos/R_S_yt-K7viJXt9vX8_143.mp4	0.0	243.7943000793457	0.09996604919433594
55	149.58239817619324	fix_pre	0		20.0	53.0	2.5	/experiments/knapen_aot/videos/R_S_yt-Gokv9ZtV6zo_70.mp4	0.0	243.89426612854004	0.16664385795593262
55	149.74076199531555	response	0	2		53.0	2.5	/experiments/knapen_aot/videos/R_S_yt-Gokv9ZtV6zo_70.mp4	0.0	244.05262994766235	
55	149.74904203414917	movie	1		301.0	53.0	2.5	/experiments/knapen_aot/videos/R_S_yt-Gokv9ZtV6zo_70.mp4	0.0	244.06090998649597	2.5083701610565186
55	152.2574121952057	fix_post	2		12.0	53.0	2.5	/experiments/knapen_aot/videos/R_S_yt-Gokv9ZtV6zo_70.mp4	0.0	246.5692801475525	0.10047793388366699
56	152.35789012908936	fix_pre	0		37.0	54.0	2.5	/experiments/knapen_aot/videos/S_ILSVRC2015_train_00574004.mp4	0.0	246.66975808143616	0.30777692794799805
56	152.65738606452942	response	0	2		54.0	2.5	/experiments/knapen_aot/videos/S_ILSVRC2015_train_00574004.mp4	0.0	246.96925401687622	
56	152.66566705703735	movie	1		301.0	54.0	2.5	/experiments/knapen_aot/videos/S_ILSVRC2015_train_00574004.mp4	0.0	246.97753500938416	2.5083930492401123
56	155.17406010627747	fix_post	2		12.0	54.0	2.5	/experiments/knapen_aot/videos/S_ILSVRC2015_train_00574004.mp4	0.0	249.48592805862427	0.10030698776245117
57	155.27436709403992	fix_pre	0		12.0	55.0	2.5	/experiments/knapen_aot/videos/S_yt-urJgH6tpfkU_204.mp4	0.0	249.58623504638672	0.09973907470703125
57	155.36578011512756	response	0	2		55.0	2.5	/experiments/knapen_aot/videos/S_yt-urJgH6tpfkU_204.mp4	0.0	249.67764806747437	
57	155.37410616874695	movie	1		301.0	55.0	2.5	/experiments/knapen_aot/videos/S_yt-urJgH6tpfkU_204.mp4	0.0	249.68597412109375	2.508316993713379
57	157.88242316246033	fix_post	2		12.0	55.0	2.5	/experiments/knapen_aot/videos/S_yt-urJgH6tpfkU_204.mp4	0.0	252.19429111480713	0.10091495513916016
58	157.9833381175995	fix_pre	0		17.0	56.0	2.5	blank	1.0	252.2952060699463	0.14070391654968262
58	158.11576104164124	response	0	2		56.0	2.5	blank	1.0	252.42762899398804	
58	158.12404203414917	movie	1		301.0	56.0	2.5	blank	1.0	252.43590998649597	2.5083250999450684
58	160.63236713409424	fix_post	2		12.0	56.0	2.5	blank	1.0	254.94423508644104	0.10006093978881836
59	160.73242807388306	fix_pre	0		31.0	57.0	2.5	/experiments/knapen_aot/videos/S_yt-4Qz0m5IYh10_167.mp4	0.0	255.04429602622986	0.25814008712768555
59	160.98241019248962	response	0	2		57.0	2.5	/experiments/knapen_aot/videos/S_yt-4Qz0m5IYh10_167.mp4	0.0	255.29427814483643	
59	160.99056816101074	movie	1		301.0	57.0	2.5	/experiments/knapen_aot/videos/S_yt-4Qz0m5IYh10_167.mp4	0.0	255.30243611335754	2.50901198387146
59	163.4995801448822	fix_post	2		12.0	57.0	2.5	/experiments/knapen_aot/videos/S_yt-4Qz0m5IYh10_167.mp4	0.0	257.811448097229	0.09940695762634277
60	163.59898710250854	fix_pre	0		17.0	58.0	2.5	/experiments/knapen_aot/videos/R_S_ILSVRC2015_train_00444000.mp4	0.0	257.91085505485535	0.14165687561035156
60	163.73239398002625	response	0	2		58.0	2.5	/experiments/knapen_aot/videos/R_S_ILSVRC2015_train_00444000.mp4	0.0	258.04426193237305	
60	163.7406439781189	movie	1		301.0	58.0	2.5	/experiments/knapen_aot/videos/R_S_ILSVRC2015_train_00444000.mp4	0.0	258.0525119304657	2.508378028869629
60	166.24902200698853	fix_post	2		12.0	58.0	2.5	/experiments/knapen_aot/videos/R_S_ILSVRC2015_train_00444000.mp4	0.0	260.5608899593353	0.09994316101074219
61	166.34896516799927	fix_pre	0		17.0	59.0	2.5	/experiments/knapen_aot/videos/R_S_video_inspire_texas_austin_oct2019_evening_00085.1080-h264.mp4	0.0	260.66083312034607	0.14160394668579102
61	166.4824321269989	response	0	2		59.0	2.5	/experiments/knapen_aot/videos/R_S_video_inspire_texas_austin_oct2019_evening_00085.1080-h264.mp4	0.0	260.7943000793457	
61	166.49056911468506	movie	1		178.0	59.0	2.5	/experiments/knapen_aot/videos/R_S_video_inspire_texas_austin_oct2019_evening_00085.1080-h264.mp4	0.0	260.80243706703186	2.508415937423706
61	168.99898505210876	fix_post	2		12.0	59.0	2.5	/experiments/knapen_aot/videos/R_S_video_inspire_texas_austin_oct2019_evening_00085.1080-h264.mp4	0.0	263.31085300445557	0.10001111030578613
61	169.0824429988861	response	2	2		59.0	2.5	/experiments/knapen_aot/videos/R_S_video_inspire_texas_austin_oct2019_evening_00085.1080-h264.mp4	0.0	263.3943109512329	
62	169.09899616241455	fix_pre	0		20.0	60.0	2.5	/experiments/knapen_aot/videos/R_S_ILSVRC2015_train_00743000.mp4	0.0	263.41086411476135	0.16662287712097168
62	169.25726509094238	response	0	2		60.0	2.5	/experiments/knapen_aot/videos/R_S_ILSVRC2015_train_00743000.mp4	0.0	263.5691330432892	
62	169.26561903953552	movie	1		301.0	60.0	2.5	/experiments/knapen_aot/videos/R_S_ILSVRC2015_train_00743000.mp4	0.0	263.5774869918823	2.5085880756378174
62	169.4574010372162	response	1	2		60.0	2.5	/experiments/knapen_aot/videos/R_S_ILSVRC2015_train_00743000.mp4	0.0	263.769268989563	
62	171.77420711517334	fix_post	2		12.0	60.0	2.5	/experiments/knapen_aot/videos/R_S_ILSVRC2015_train_00743000.mp4	0.0	266.08607506752014	0.09978199005126953
63	171.8739891052246	fix_pre	0		9.0	61.0	2.5	blank	1.0	266.1858570575714	0.07496094703674316
63	171.94071316719055	response	0	2		61.0	2.5	blank	1.0	266.25258111953735	
63	171.94895005226135	movie	1		301.0	61.0	2.5	blank	1.0	266.26081800460815	2.508258104324341
63	174.4572081565857	fix_post	2		12.0	61.0	2.5	blank	1.0	268.7690761089325	0.10005903244018555
64	174.55726718902588	fix_pre	0		40.0	62.0	2.5	/experiments/knapen_aot/videos/S_m-aeoYPMqfg_185.mp4	0.0	268.8691351413727	0.3333427906036377
64	174.88229703903198	response	0	2		62.0	2.5	/experiments/knapen_aot/videos/S_m-aeoYPMqfg_185.mp4	0.0	269.1941649913788	
64	174.89060997962952	movie	1		301.0	62.0	2.5	/experiments/knapen_aot/videos/S_m-aeoYPMqfg_185.mp4	0.0	269.2024779319763	2.5085601806640625
64	177.39917016029358	fix_post	2		12.0	62.0	2.5	/experiments/knapen_aot/videos/S_m-aeoYPMqfg_185.mp4	0.0	271.7110381126404	0.09989500045776367
65	177.49906516075134	fix_pre	0		24.0	63.0	2.5	/experiments/knapen_aot/videos/S_yt-Y7-umyL036c_507.mp4	0.0	271.81093311309814	0.19986200332641602
65	177.6831340789795	response	0	2		63.0	2.5	/experiments/knapen_aot/videos/S_yt-Y7-umyL036c_507.mp4	0.0	271.9950020313263	
65	177.69892716407776	movie	1		301.0	63.0	2.5	/experiments/knapen_aot/videos/S_yt-Y7-umyL036c_507.mp4	0.0	272.01079511642456	2.5083489418029785
65	180.20727610588074	fix_post	2		12.0	63.0	2.5	/experiments/knapen_aot/videos/S_yt-Y7-umyL036c_507.mp4	0.0	274.51914405822754	0.1001729965209961
66	180.30744910240173	fix_pre	0		52.0	64.0	2.5	/experiments/knapen_aot/videos/S_yt-QiJyOUkuo38_6.mp4	0.0	274.61931705474854	0.4330899715423584
66	180.7248170375824	response	0	2		64.0	2.5	/experiments/knapen_aot/videos/S_yt-QiJyOUkuo38_6.mp4	0.0	275.0366849899292	
66	180.7405390739441	movie	1		301.0	64.0	2.5	/experiments/knapen_aot/videos/S_yt-QiJyOUkuo38_6.mp4	0.0	275.0524070262909	2.5083999633789062
66	183.248939037323	fix_post	2		12.0	64.0	2.5	/experiments/knapen_aot/videos/S_yt-QiJyOUkuo38_6.mp4	0.0	277.5608069896698	0.09995198249816895
67	183.34889101982117	fix_pre	0		49.0	65.0	2.5	/experiments/knapen_aot/videos/R_S_production_ID_3943965.mp4	0.0	277.66075897216797	0.40833616256713867
67	183.74906206130981	response	0	2		65.0	2.5	/experiments/knapen_aot/videos/R_S_production_ID_3943965.mp4	0.0	278.0609300136566	
67	183.7572271823883	movie	1		197.0	65.0	2.5	/experiments/knapen_aot/videos/R_S_production_ID_3943965.mp4	0.0	278.0690951347351	2.5083208084106445
67	186.26554799079895	fix_post	2		12.0	65.0	2.5	/experiments/knapen_aot/videos/R_S_production_ID_3943965.mp4	0.0	280.57741594314575	0.10003018379211426
68	186.36557817459106	fix_pre	0		28.0	66.0	2.5	/experiments/knapen_aot/videos/S_yt-kINZMjys3O4_112.mp4	0.0	280.67744612693787	0.23327898979187012
68	186.5906960964203	response	0	2		66.0	2.5	/experiments/knapen_aot/videos/S_yt-kINZMjys3O4_112.mp4	0.0	280.9025640487671	
68	186.59885716438293	movie	1		301.0	66.0	2.5	/experiments/knapen_aot/videos/S_yt-kINZMjys3O4_112.mp4	0.0	280.91072511672974	2.50849986076355
68	189.10735702514648	fix_post	2		12.0	66.0	2.5	/experiments/knapen_aot/videos/S_yt-kINZMjys3O4_112.mp4	0.0	283.4192249774933	0.09995603561401367
69	189.2073130607605	fix_pre	0		41.0	67.0	2.5	/experiments/knapen_aot/videos/R_S_-vPHq-7BJ70_15.mp4	0.0	283.5191810131073	0.3415400981903076
69	189.54070806503296	response	0	2		67.0	2.5	/experiments/knapen_aot/videos/R_S_-vPHq-7BJ70_15.mp4	0.0	283.85257601737976	
69	189.5488531589508	movie	1		301.0	67.0	2.5	/experiments/knapen_aot/videos/R_S_-vPHq-7BJ70_15.mp4	0.0	283.8607211112976	2.5083348751068115
69	192.05718803405762	fix_post	2		12.0	67.0	2.5	/experiments/knapen_aot/videos/R_S_-vPHq-7BJ70_15.mp4	0.0	286.3690559864044	0.1000211238861084
70	192.15720915794373	fix_pre	0		21.0	68.0	2.5	/experiments/knapen_aot/videos/R_S_yt-PP93D7b7Ni4_10.mp4	0.0	286.4690771102905	0.1748960018157959
70	192.32394003868103	response	0	2		68.0	2.5	/experiments/knapen_aot/videos/R_S_yt-PP93D7b7Ni4_10.mp4	0.0	286.63580799102783	
70	192.33210515975952	movie	1		301.0	68.0	2.5	/experiments/knapen_aot/videos/R_S_yt-PP93D7b7Ni4_10.mp4	0.0	286.6439731121063	2.5084190368652344
70	194.84052419662476	fix_post	2		12.0	68.0	2.5	/experiments/knapen_aot/videos/R_S_yt-PP93D7b7Ni4_10.mp4	0.0	289.15239214897156	0.10013794898986816
71	194.94066214561462	fix_pre	0		14.0	69.0	2.5	blank	1.0	289.2525300979614	0.11651396751403809
71	195.04895305633545	response	0	2		69.0	2.5	blank	1.0	289.36082100868225	
71	195.05717611312866	movie	1		301.0	69.0	2.5	blank	1.0	289.36904406547546	2.508441925048828
71	197.5656180381775	fix_post	2		12.0	69.0	2.5	blank	1.0	291.8774859905243	0.09987497329711914
72	197.6654930114746	fix_pre	0		17.0	70.0	2.5	/experiments/knapen_aot/videos/R_S_yt-fGN7sGPy8BA_13.mp4	0.0	291.9773609638214	0.14166808128356934
72	197.79895615577698	response	0	2		70.0	2.5	/experiments/knapen_aot/videos/R_S_yt-fGN7sGPy8BA_13.mp4	0.0	292.1108241081238	
72	197.80716109275818	movie	1		301.0	70.0	2.5	/experiments/knapen_aot/videos/R_S_yt-fGN7sGPy8BA_13.mp4	0.0	292.119029045105	2.5084829330444336
72	200.3156440258026	fix_post	2		12.0	70.0	2.5	/experiments/knapen_aot/videos/R_S_yt-fGN7sGPy8BA_13.mp4	0.0	294.6275119781494	0.09985804557800293
73	200.41550207138062	fix_pre	0		12.0	71.0	2.5	/experiments/knapen_aot/videos/R_S_comp_CH_C002_C005_PSNK_v05_SDR_PS_FINAL_20180709_SDR_2K_AVC.mp4	0.0	294.7273700237274	0.09997892379760742
73	200.50733613967896	response	0	2		71.0	2.5	/experiments/knapen_aot/videos/R_S_comp_CH_C002_C005_PSNK_v05_SDR_PS_FINAL_20180709_SDR_2K_AVC.mp4	0.0	294.81920409202576	
73	200.51548099517822	movie	1		174.0	71.0	2.5	/experiments/knapen_aot/videos/R_S_comp_CH_C002_C005_PSNK_v05_SDR_PS_FINAL_20180709_SDR_2K_AVC.mp4	0.0	294.827348947525	2.508787155151367
73	203.0242681503296	fix_post	2		12.0	71.0	2.5	/experiments/knapen_aot/videos/R_S_comp_CH_C002_C005_PSNK_v05_SDR_PS_FINAL_20180709_SDR_2K_AVC.mp4	0.0	297.3361361026764	0.0996088981628418
73	203.05725717544556	response	2	2		71.0	2.5	/experiments/knapen_aot/videos/R_S_comp_CH_C002_C005_PSNK_v05_SDR_PS_FINAL_20180709_SDR_2K_AVC.mp4	0.0	297.36912512779236	
74	203.12387704849243	fix_pre	0		37.0	72.0	2.5	/experiments/knapen_aot/videos/S_yt-H3EadcgKySM_58.mp4	0.0	297.43574500083923	0.31101393699645996
74	203.4238681793213	response	0	2		72.0	2.5	/experiments/knapen_aot/videos/S_yt-H3EadcgKySM_58.mp4	0.0	297.7357361316681	
74	203.4348909854889	movie	1		301.0	72.0	2.5	/experiments/knapen_aot/videos/S_yt-H3EadcgKySM_58.mp4	0.0	297.7467589378357	2.5057060718536377
74	205.94059705734253	fix_post	2		12.0	72.0	2.5	/experiments/knapen_aot/videos/S_yt-H3EadcgKySM_58.mp4	0.0	300.25246500968933	0.099884033203125
75	206.04048109054565	fix_pre	0		29.0	73.0	2.5	/experiments/knapen_aot/videos/S_yt-FLMdajcbjcg_35.mp4	0.0	300.35234904289246	0.24157404899597168
75	206.27393913269043	response	0	2		73.0	2.5	/experiments/knapen_aot/videos/S_yt-FLMdajcbjcg_35.mp4	0.0	300.58580708503723	
75	206.28205513954163	movie	1		301.0	73.0	2.5	/experiments/knapen_aot/videos/S_yt-FLMdajcbjcg_35.mp4	0.0	300.5939230918884	2.508474826812744
75	208.79052996635437	fix_post	2		12.0	73.0	2.5	/experiments/knapen_aot/videos/S_yt-FLMdajcbjcg_35.mp4	0.0	303.1023979187012	0.09994721412658691
76	208.89047718048096	fix_pre	0		11.0	74.0	2.5	/experiments/knapen_aot/videos/S_ILSVRC2015_train_00354001.mp4	0.0	303.20234513282776	0.09174180030822754
76	208.97393417358398	response	0	2		74.0	2.5	/experiments/knapen_aot/videos/S_ILSVRC2015_train_00354001.mp4	0.0	303.2858021259308	
76	208.98221898078918	movie	1		301.0	74.0	2.5	/experiments/knapen_aot/videos/S_ILSVRC2015_train_00354001.mp4	0.0	303.294086933136	2.5082571506500244
76	211.4904761314392	fix_post	2		12.0	74.0	2.5	/experiments/knapen_aot/videos/S_ILSVRC2015_train_00354001.mp4	0.0	305.802344083786	0.10039496421813965
77	211.59087109565735	fix_pre	0		36.0	75.0	2.5	blank	1.0	305.90273904800415	0.29962706565856934
77	211.88225317001343	response	0	2		75.0	2.5	blank	1.0	306.19412112236023	
77	211.89049816131592	movie	1		301.0	75.0	2.5	blank	1.0	306.2023661136627	2.508358955383301
77	214.39885711669922	fix_post	2		12.0	75.0	2.5	blank	1.0	308.710725069046	0.09993886947631836
78	214.49879598617554	fix_pre	0		18.0	76.0	2.5	/experiments/knapen_aot/videos/S_yt-K7viJXt9vX8_143.mp4	0.0	308.81066393852234	0.14992499351501465
78	214.64049911499023	response	0	2		76.0	2.5	/experiments/knapen_aot/videos/S_yt-K7viJXt9vX8_143.mp4	0.0	308.95236706733704	
78	214.64872097969055	movie	1		301.0	76.0	2.5	/experiments/knapen_aot/videos/S_yt-K7viJXt9vX8_143.mp4	0.0	308.96058893203735	2.5083889961242676
78	217.15710997581482	fix_post	2		12.0	76.0	2.5	/experiments/knapen_aot/videos/S_yt-K7viJXt9vX8_143.mp4	0.0	311.4689779281616	0.09995818138122559
79	217.25706815719604	fix_pre	0		15.0	77.0	2.5	/experiments/knapen_aot/videos/S_yt-Ub5Xx5BqIOk_74.mp4	0.0	311.56893610954285	0.12503290176391602
79	217.37386918067932	response	0	2		77.0	2.5	/experiments/knapen_aot/videos/S_yt-Ub5Xx5BqIOk_74.mp4	0.0	311.6857371330261	
79	217.38210105895996	movie	1		301.0	77.0	2.5	/experiments/knapen_aot/videos/S_yt-Ub5Xx5BqIOk_74.mp4	0.0	311.69396901130676	2.5083580017089844
79	219.89045906066895	fix_post	2		12.0	77.0	2.5	/experiments/knapen_aot/videos/S_yt-Ub5Xx5BqIOk_74.mp4	0.0	314.20232701301575	0.09991002082824707
80	219.9903690814972	fix_pre	0		36.0	78.0	2.5	/experiments/knapen_aot/videos/S_yt-urJgH6tpfkU_204.mp4	0.0	314.302237033844	0.30022501945495605
80	220.28210496902466	response	0	2		78.0	2.5	/experiments/knapen_aot/videos/S_yt-urJgH6tpfkU_204.mp4	0.0	314.59397292137146	
80	220.29059410095215	movie	1		301.0	78.0	2.5	/experiments/knapen_aot/videos/S_yt-urJgH6tpfkU_204.mp4	0.0	314.60246205329895	2.5081610679626465
80	222.7987551689148	fix_post	2		12.0	78.0	2.5	/experiments/knapen_aot/videos/S_yt-urJgH6tpfkU_204.mp4	0.0	317.1106231212616	0.1000518798828125
81	222.8988070487976	fix_pre	0		25.0	79.0	2.5	/experiments/knapen_aot/videos/R_S_yt-UojTppgtyCE_121.mp4	0.0	317.2106750011444	0.2082209587097168
81	223.0988781452179	response	0	2		79.0	2.5	/experiments/knapen_aot/videos/R_S_yt-UojTppgtyCE_121.mp4	0.0	317.4107460975647	
81	223.10702800750732	movie	1		301.0	79.0	2.5	/experiments/knapen_aot/videos/R_S_yt-UojTppgtyCE_121.mp4	0.0	317.4188959598541	2.5083630084991455
81	225.61539101600647	fix_post	2		12.0	79.0	2.5	/experiments/knapen_aot/videos/R_S_yt-UojTppgtyCE_121.mp4	0.0	319.92725896835327	0.10006999969482422
82	225.7154610157013	fix_pre	0		26.0	80.0	2.5	/experiments/knapen_aot/videos/R_S_ILSVRC2015_train_00574004.mp4	0.0	320.0273289680481	0.2165970802307129
82	225.9238440990448	response	0	2		80.0	2.5	/experiments/knapen_aot/videos/R_S_ILSVRC2015_train_00574004.mp4	0.0	320.2357120513916	
82	225.932058095932	movie	1		301.0	80.0	2.5	/experiments/knapen_aot/videos/R_S_ILSVRC2015_train_00574004.mp4	0.0	320.2439260482788	2.5083940029144287
82	228.44045209884644	fix_post	2		12.0	80.0	2.5	/experiments/knapen_aot/videos/R_S_ILSVRC2015_train_00574004.mp4	0.0	322.75232005119324	0.09988903999328613
83	228.54034113883972	fix_pre	0		9.0	81.0	2.5	/experiments/knapen_aot/videos/R_S_pexels-tima-miroshnichenko-6077718.mp4	0.0	322.8522090911865	0.07497096061706543
83	228.6071400642395	response	0	2		81.0	2.5	/experiments/knapen_aot/videos/R_S_pexels-tima-miroshnichenko-6077718.mp4	0.0	322.9190080165863	
83	228.6153120994568	movie	1		166.0	81.0	2.5	/experiments/knapen_aot/videos/R_S_pexels-tima-miroshnichenko-6077718.mp4	0.0	322.9271800518036	2.5084569454193115
83	231.1237690448761	fix_post	2		12.0	81.0	2.5	/experiments/knapen_aot/videos/R_S_pexels-tima-miroshnichenko-6077718.mp4	0.0	325.4356369972229	0.0999441146850586
84	231.22371315956116	fix_pre	0		3.0	82.0	2.5	blank	1.0	325.53558111190796	0.02500295639038086
84	231.24048614501953	response	0	2		82.0	2.5	blank	1.0	325.55235409736633	
84	231.24871611595154	movie	1		301.0	82.0	2.5	blank	1.0	325.56058406829834	2.5083529949188232
84	233.75706911087036	fix_post	2		12.0	82.0	2.5	blank	1.0	328.06893706321716	0.10013699531555176
85	233.8572061061859	fix_pre	0		19.0	83.0	2.5	/experiments/knapen_aot/videos/S_video-2_copy.mp4	0.0	328.1690740585327	0.15814805030822754
85	234.00710797309875	response	0	2		83.0	2.5	/experiments/knapen_aot/videos/S_video-2_copy.mp4	0.0	328.31897592544556	
85	234.01535415649414	movie	1		165.0	83.0	2.5	/experiments/knapen_aot/videos/S_video-2_copy.mp4	0.0	328.32722210884094	2.5083680152893066
85	236.52372217178345	fix_post	2		12.0	83.0	2.5	/experiments/knapen_aot/videos/S_video-2_copy.mp4	0.0	330.83559012413025	0.1000068187713623
87	236.6237289905548	stim	0		112.0					330.9355969429016	0.9346301555633545
87	236.75709319114685	response	0	2						331.06896114349365	
87	237.55380702018738	response	0	space						331.8656749725342	
