trial_nr	onset	event_type	phase	response	nr_frames	movie_index	movie_duration	movie_file	blank	onset_abs	duration
0	0.1531820297241211	stim	0		32.0					104.12059617042542	0.2666599750518799
0	0.4115440845489502	response	0	space						104.37895822525024	
1	0.419842004776001	stim	0		121.0					104.3872561454773	1.0079128742218018
1	0.8448460102081299	response	0	space						104.81226015090942	
1	1.4277548789978027	stim	1		120.0					105.3951690196991	1.0000240802764893
1	1.5112390518188477	response	1	space						105.47865319252014	
1	2.1278579235076904	response	1	space						106.09527206420898	
2	2.427778959274292	fix_pre	0		22.0	0.0	2.5	/experiments/knapen_aot/oldvideos/R_S_ILSVRC2015_train_00545000.mp4	0.0	106.39519309997559	0.18330597877502441
2	2.6028518676757812	response	0	space		0.0	2.5	/experiments/knapen_aot/oldvideos/R_S_ILSVRC2015_train_00545000.mp4	0.0	106.57026600837708	
2	2.6110849380493164	movie	1		300.0	0.0	2.5	/experiments/knapen_aot/oldvideos/R_S_ILSVRC2015_train_00545000.mp4	0.0	106.57849907875061	2.5083699226379395
2	5.119454860687256	fix_post	2		12.0	0.0	2.5	/experiments/knapen_aot/oldvideos/R_S_ILSVRC2015_train_00545000.mp4	0.0	109.08686900138855	0.09994006156921387
3	5.21939492225647	fix_pre	0		54.0	1.0	2.5	/experiments/knapen_aot/oldvideos/S_yt-D9uD7yM6bxQ_269.mp4	0.0	109.18680906295776	0.45384812355041504
3	5.665519952774048	response	0	4		1.0	2.5	/experiments/knapen_aot/oldvideos/S_yt-D9uD7yM6bxQ_269.mp4	0.0	109.63293409347534	
3	5.673243045806885	movie	1		300.0	1.0	2.5	/experiments/knapen_aot/oldvideos/S_yt-D9uD7yM6bxQ_269.mp4	0.0	109.64065718650818	2.5046069622039795
3	8.177850008010864	fix_post	2		12.0	1.0	2.5	/experiments/knapen_aot/oldvideos/S_yt-D9uD7yM6bxQ_269.mp4	0.0	112.14526414871216	0.0998690128326416
4	8.277719020843506	fix_pre	0		30.0	2.0	2.5	/experiments/knapen_aot/oldvideos/S_yt-e_eOzV7qMZo_374.mp4	0.0	112.2451331615448	0.25002598762512207
4	8.51955795288086	response	0	4		2.0	2.5	/experiments/knapen_aot/oldvideos/S_yt-e_eOzV7qMZo_374.mp4	0.0	112.48697209358215	
4	8.527745008468628	movie	1		301.0	2.0	2.5	/experiments/knapen_aot/oldvideos/S_yt-e_eOzV7qMZo_374.mp4	0.0	112.49515914916992	2.5083959102630615
4	11.03614091873169	fix_post	2		12.0	2.0	2.5	/experiments/knapen_aot/oldvideos/S_yt-e_eOzV7qMZo_374.mp4	0.0	115.00355505943298	0.10001397132873535
5	11.136154890060425	fix_pre	0		50.0	3.0	2.5	/experiments/knapen_aot/oldvideos/S_yt-zam74qlzGtQ_122.mp4	0.0	115.10356903076172	0.4165310859680176
5	11.544497966766357	response	0	4		3.0	2.5	/experiments/knapen_aot/oldvideos/S_yt-zam74qlzGtQ_122.mp4	0.0	115.51191210746765	
5	11.552685976028442	movie	1		301.0	3.0	2.5	/experiments/knapen_aot/oldvideos/S_yt-zam74qlzGtQ_122.mp4	0.0	115.52010011672974	2.5084118843078613
5	14.061097860336304	fix_post	2		12.0	3.0	2.5	/experiments/knapen_aot/oldvideos/S_yt-zam74qlzGtQ_122.mp4	0.0	118.0285120010376	0.0999751091003418
6	14.161072969436646	fix_pre	0		33.0	4.0	2.5	/experiments/knapen_aot/oldvideos/S_yt-tneuR3EtSZE_72.mp4	0.0	118.12848711013794	0.27603793144226074
6	14.427950859069824	response	0	4		4.0	2.5	/experiments/knapen_aot/oldvideos/S_yt-tneuR3EtSZE_72.mp4	0.0	118.39536499977112	
6	14.437110900878906	movie	1		301.0	4.0	2.5	/experiments/knapen_aot/oldvideos/S_yt-tneuR3EtSZE_72.mp4	0.0	118.4045250415802	2.5072271823883057
6	16.944338083267212	fix_post	2		12.0	4.0	2.5	/experiments/knapen_aot/oldvideos/S_yt-tneuR3EtSZE_72.mp4	0.0	120.9117522239685	0.10008692741394043
7	17.044425010681152	fix_pre	0		31.0	5.0	2.5	blank	1.0	121.01183915138245	0.25832390785217285
7	17.29453206062317	response	0	4		5.0	2.5	blank	1.0	121.26194620132446	
7	17.302748918533325	movie	1		301.0	5.0	2.5	blank	1.0	121.27016305923462	2.5083961486816406
7	19.811145067214966	fix_post	2		12.0	5.0	2.5	blank	1.0	123.77855920791626	0.0999000072479248
8	19.91104507446289	fix_pre	0		50.0	6.0	2.5	/experiments/knapen_aot/oldvideos/R_S_pexels-koolshooters-7327412_1.mp4	0.0	123.87845921516418	0.41666579246520996
8	20.319397926330566	response	0	4		6.0	2.5	/experiments/knapen_aot/oldvideos/R_S_pexels-koolshooters-7327412_1.mp4	0.0	124.28681206703186	
8	20.3277108669281	movie	1		163.0	6.0	2.5	/experiments/knapen_aot/oldvideos/R_S_pexels-koolshooters-7327412_1.mp4	0.0	124.2951250076294	2.5083160400390625
8	22.836026906967163	fix_post	2		12.0	6.0	2.5	/experiments/knapen_aot/oldvideos/R_S_pexels-koolshooters-7327412_1.mp4	0.0	126.80344104766846	0.09993410110473633
9	22.9359610080719	fix_pre	0		29.0	7.0	2.5	/experiments/knapen_aot/oldvideos/R_S_yt-NuZy8Rjk4d0_156.mp4	0.0	126.9033751487732	0.2417299747467041
9	23.16949701309204	response	0	4		7.0	2.5	/experiments/knapen_aot/oldvideos/R_S_yt-NuZy8Rjk4d0_156.mp4	0.0	127.13691115379333	
9	23.177690982818604	movie	1		301.0	7.0	2.5	/experiments/knapen_aot/oldvideos/R_S_yt-NuZy8Rjk4d0_156.mp4	0.0	127.1451051235199	2.508312940597534
9	25.686003923416138	fix_post	2		12.0	7.0	2.5	/experiments/knapen_aot/oldvideos/R_S_yt-NuZy8Rjk4d0_156.mp4	0.0	129.65341806411743	0.10000109672546387
10	25.7860050201416	fix_pre	0		242.0	8.0	2.5	/experiments/knapen_aot/oldvideos/S_yt-6xXEMHBQ08A_28.mp4	0.0	129.7534191608429	2.0166170597076416
10	27.794466018676758	response	0	4		8.0	2.5	/experiments/knapen_aot/oldvideos/S_yt-6xXEMHBQ08A_28.mp4	0.0	131.76188015937805	
10	27.802622079849243	movie	1		301.0	8.0	2.5	/experiments/knapen_aot/oldvideos/S_yt-6xXEMHBQ08A_28.mp4	0.0	131.77003622055054	2.508368968963623
10	30.310991048812866	fix_post	2		12.0	8.0	2.5	/experiments/knapen_aot/oldvideos/S_yt-6xXEMHBQ08A_28.mp4	0.0	134.27840518951416	0.09993290901184082
11	30.410923957824707	fix_pre	0		44.0	9.0	2.5	/experiments/knapen_aot/oldvideos/R_S_yt-sGckFFOLO30_164.mp4	0.0	134.378338098526	0.36671996116638184
11	30.769377946853638	response	0	4		9.0	2.5	/experiments/knapen_aot/oldvideos/R_S_yt-sGckFFOLO30_164.mp4	0.0	134.73679208755493	
11	30.77764391899109	movie	1		301.0	9.0	2.5	/experiments/knapen_aot/oldvideos/R_S_yt-sGckFFOLO30_164.mp4	0.0	134.74505805969238	2.5083179473876953
11	33.285961866378784	fix_post	2		12.0	9.0	2.5	/experiments/knapen_aot/oldvideos/R_S_yt-sGckFFOLO30_164.mp4	0.0	137.25337600708008	0.10004305839538574
12	33.38600492477417	fix_pre	0		19.0	10.0	2.5	/experiments/knapen_aot/oldvideos/R_S_video_inspire_oregon_lone-ranch-beach_00001.1080-h264.mp4	0.0	137.35341906547546	0.1582779884338379
12	33.536160945892334	response	0	4		10.0	2.5	/experiments/knapen_aot/oldvideos/R_S_video_inspire_oregon_lone-ranch-beach_00001.1080-h264.mp4	0.0	137.50357508659363	
12	33.54428291320801	movie	1		167.0	10.0	2.5	/experiments/knapen_aot/oldvideos/R_S_video_inspire_oregon_lone-ranch-beach_00001.1080-h264.mp4	0.0	137.5116970539093	2.5083441734313965
12	36.052627086639404	fix_post	2		12.0	10.0	2.5	/experiments/knapen_aot/oldvideos/R_S_video_inspire_oregon_lone-ranch-beach_00001.1080-h264.mp4	0.0	140.0200412273407	0.10004496574401855
13	36.15267205238342	fix_pre	0		197.0	11.0	2.5	/experiments/knapen_aot/oldvideos/R_S_cST9H3zu3zQ_126.mp4	0.0	140.12008619308472	1.6415839195251465
13	37.78611087799072	response	0	4		11.0	2.5	/experiments/knapen_aot/oldvideos/R_S_cST9H3zu3zQ_126.mp4	0.0	141.75352501869202	
13	37.79425597190857	movie	1		301.0	11.0	2.5	/experiments/knapen_aot/oldvideos/R_S_cST9H3zu3zQ_126.mp4	0.0	141.76167011260986	2.50846791267395
13	40.30272388458252	fix_post	2		12.0	11.0	2.5	/experiments/knapen_aot/oldvideos/R_S_cST9H3zu3zQ_126.mp4	0.0	144.2701380252838	0.09999918937683105
14	40.40272307395935	fix_pre	0		57.0	12.0	2.5	/experiments/knapen_aot/oldvideos/R_S_yt-2XRGfGc0q44_37.mp4	0.0	144.37013721466064	0.4748508930206299
14	40.861891984939575	response	0	4		12.0	2.5	/experiments/knapen_aot/oldvideos/R_S_yt-2XRGfGc0q44_37.mp4	0.0	144.82930612564087	
14	40.87757396697998	movie	1		301.0	12.0	2.5	/experiments/knapen_aot/oldvideos/R_S_yt-2XRGfGc0q44_37.mp4	0.0	144.84498810768127	2.508345127105713
14	43.38591909408569	fix_post	2		12.0	12.0	2.5	/experiments/knapen_aot/oldvideos/R_S_yt-2XRGfGc0q44_37.mp4	0.0	147.353333234787	0.10001397132873535
15	43.48593306541443	fix_pre	0		70.0	13.0	2.5	/experiments/knapen_aot/oldvideos/S_bing-www_nbcnews_com_storyline_isis-terror_fall-isis-stronghold-raqqa-will-change-war-extremists-not-end-n808621_86.mp4	0.0	147.45334720611572	0.5833959579467773
15	44.06107497215271	response	0	4		13.0	2.5	/experiments/knapen_aot/oldvideos/S_bing-www_nbcnews_com_storyline_isis-terror_fall-isis-stronghold-raqqa-will-change-war-extremists-not-end-n808621_86.mp4	0.0	148.028489112854	
15	44.069329023361206	movie	1		165.0	13.0	2.5	/experiments/knapen_aot/oldvideos/S_bing-www_nbcnews_com_storyline_isis-terror_fall-isis-stronghold-raqqa-will-change-war-extremists-not-end-n808621_86.mp4	0.0	148.0367431640625	2.508234977722168
15	46.577564001083374	fix_post	2		12.0	13.0	2.5	/experiments/knapen_aot/oldvideos/S_bing-www_nbcnews_com_storyline_isis-terror_fall-isis-stronghold-raqqa-will-change-war-extremists-not-end-n808621_86.mp4	0.0	150.54497814178467	0.10001993179321289
16	46.67758393287659	fix_pre	0		256.0	14.0	2.5	blank	1.0	150.64499807357788	2.134148120880127
16	48.80267000198364	response	0	4		14.0	2.5	blank	1.0	152.77008414268494	
16	48.811732053756714	movie	1		301.0	14.0	2.5	blank	1.0	152.779146194458	2.5075178146362305
16	51.319249868392944	fix_post	2		12.0	14.0	2.5	blank	1.0	155.28666400909424	0.09998917579650879
17	51.41923904418945	fix_pre	0		76.0	15.0	2.5	/experiments/knapen_aot/oldvideos/S_pexels-c-technical-6344801.mp4	0.0	155.38665318489075	0.6332149505615234
17	52.0442910194397	response	0	4		15.0	2.5	/experiments/knapen_aot/oldvideos/S_pexels-c-technical-6344801.mp4	0.0	156.011705160141	
17	52.05245399475098	movie	1		197.0	15.0	2.5	/experiments/knapen_aot/oldvideos/S_pexels-c-technical-6344801.mp4	0.0	156.01986813545227	2.5086259841918945
17	54.56107997894287	fix_post	2		12.0	15.0	2.5	/experiments/knapen_aot/oldvideos/S_pexels-c-technical-6344801.mp4	0.0	158.52849411964417	0.09979009628295898
18	54.66087007522583	fix_pre	0		39.0	16.0	2.5	/experiments/knapen_aot/oldvideos/R_S_ILSVRC2015_train_00460000.mp4	0.0	158.62828421592712	0.32498979568481445
18	54.9701030254364	response	0	4		16.0	2.5	/experiments/knapen_aot/oldvideos/R_S_ILSVRC2015_train_00460000.mp4	0.0	158.9375171661377	
18	54.985859870910645	movie	1		301.0	16.0	2.5	/experiments/knapen_aot/oldvideos/R_S_ILSVRC2015_train_00460000.mp4	0.0	158.95327401161194	2.508352041244507
18	57.49421191215515	fix_post	2		12.0	16.0	2.5	/experiments/knapen_aot/oldvideos/R_S_ILSVRC2015_train_00460000.mp4	0.0	161.46162605285645	0.10001707077026367
19	57.594228982925415	fix_pre	0		19.0	17.0	2.5	/experiments/knapen_aot/oldvideos/S_ILSVRC2015_train_00292006.mp4	0.0	161.5616431236267	0.15827202796936035
19	57.74432706832886	response	0	4		17.0	2.5	/experiments/knapen_aot/oldvideos/S_ILSVRC2015_train_00292006.mp4	0.0	161.71174120903015	
19	57.752501010894775	movie	1		301.0	17.0	2.5	/experiments/knapen_aot/oldvideos/S_ILSVRC2015_train_00292006.mp4	0.0	161.71991515159607	2.5084030628204346
19	60.26090407371521	fix_post	2		12.0	17.0	2.5	/experiments/knapen_aot/oldvideos/S_ILSVRC2015_train_00292006.mp4	0.0	164.2283182144165	0.09996485710144043
20	60.36086893081665	fix_pre	0		59.0	18.0	2.5	/experiments/knapen_aot/oldvideos/S_ILSVRC2015_train_00323000.mp4	0.0	164.32828307151794	0.4925570487976074
20	60.84432101249695	response	0	4		18.0	2.5	/experiments/knapen_aot/oldvideos/S_ILSVRC2015_train_00323000.mp4	0.0	164.81173515319824	
20	60.85342597961426	movie	1		301.0	18.0	2.5	/experiments/knapen_aot/oldvideos/S_ILSVRC2015_train_00323000.mp4	0.0	164.82084012031555	2.507388114929199
20	63.36081409454346	fix_post	2		12.0	18.0	2.5	/experiments/knapen_aot/oldvideos/S_ILSVRC2015_train_00323000.mp4	0.0	167.32822823524475	0.10005784034729004
21	63.46087193489075	fix_pre	0		26.0	19.0	2.5	/experiments/knapen_aot/oldvideos/R_S_yt-4i1b6NQ9NKs_5.mp4	0.0	167.42828607559204	0.2165360450744629
21	63.669272899627686	response	0	4		19.0	2.5	/experiments/knapen_aot/oldvideos/R_S_yt-4i1b6NQ9NKs_5.mp4	0.0	167.63668704032898	
21	63.67740797996521	movie	1		301.0	19.0	2.5	/experiments/knapen_aot/oldvideos/R_S_yt-4i1b6NQ9NKs_5.mp4	0.0	167.6448221206665	2.5083770751953125
21	66.18578505516052	fix_post	2		12.0	19.0	2.5	/experiments/knapen_aot/oldvideos/R_S_yt-4i1b6NQ9NKs_5.mp4	0.0	170.15319919586182	0.10005402565002441
22	66.28583908081055	fix_pre	0		189.0	20.0	2.5	blank	1.0	170.25325322151184	1.5749189853668213
22	67.85258388519287	response	0	4		20.0	2.5	blank	1.0	171.81999802589417	
22	67.86075806617737	movie	1		301.0	20.0	2.5	blank	1.0	171.82817220687866	2.5083730220794678
22	70.36913108825684	fix_post	2		12.0	20.0	2.5	blank	1.0	174.33654522895813	0.10001778602600098
23	70.46914887428284	fix_pre	0		76.0	21.0	2.5	/experiments/knapen_aot/oldvideos/S_comp_A008_C007_011550_CC_v01_SDR_PS_FINAL_20180709_SDR_2K_AVC.mp4	0.0	174.43656301498413	0.6339712142944336
23	71.09425806999207	response	0	4		21.0	2.5	/experiments/knapen_aot/oldvideos/S_comp_A008_C007_011550_CC_v01_SDR_PS_FINAL_20180709_SDR_2K_AVC.mp4	0.0	175.06167221069336	
23	71.10312008857727	movie	1		160.0	21.0	2.5	/experiments/knapen_aot/oldvideos/S_comp_A008_C007_011550_CC_v01_SDR_PS_FINAL_20180709_SDR_2K_AVC.mp4	0.0	175.07053422927856	2.507619857788086
23	73.61073994636536	fix_post	2		12.0	21.0	2.5	/experiments/knapen_aot/oldvideos/S_comp_A008_C007_011550_CC_v01_SDR_PS_FINAL_20180709_SDR_2K_AVC.mp4	0.0	177.57815408706665	0.10003900527954102
24	73.7107789516449	fix_pre	0		25.0	22.0	2.5	/experiments/knapen_aot/oldvideos/S_ILSVRC2015_train_00425000.mp4	0.0	177.6781930923462	0.20827102661132812
24	73.91092205047607	response	0	4		22.0	2.5	/experiments/knapen_aot/oldvideos/S_ILSVRC2015_train_00425000.mp4	0.0	177.87833619117737	
24	73.91904997825623	movie	1		301.0	22.0	2.5	/experiments/knapen_aot/oldvideos/S_ILSVRC2015_train_00425000.mp4	0.0	177.88646411895752	2.5084519386291504
24	76.42750191688538	fix_post	2		12.0	22.0	2.5	/experiments/knapen_aot/oldvideos/S_ILSVRC2015_train_00425000.mp4	0.0	180.39491605758667	0.09993815422058105
25	76.52744007110596	fix_pre	0		201.0	23.0	2.5	/experiments/knapen_aot/oldvideos/S_pexels-koolshooters-7327412_1.mp4	0.0	180.49485421180725	1.6749789714813232
25	78.19426608085632	response	0	4		23.0	2.5	/experiments/knapen_aot/oldvideos/S_pexels-koolshooters-7327412_1.mp4	0.0	182.16168022155762	
25	78.20241904258728	movie	1		164.0	23.0	2.5	/experiments/knapen_aot/oldvideos/S_pexels-koolshooters-7327412_1.mp4	0.0	182.16983318328857	2.508561849594116
25	80.7109808921814	fix_post	2		12.0	23.0	2.5	/experiments/knapen_aot/oldvideos/S_pexels-koolshooters-7327412_1.mp4	0.0	184.6783950328827	0.09974312782287598
26	80.81072402000427	fix_pre	0		38.0	24.0	2.5	/experiments/knapen_aot/oldvideos/R_S_yt-4W224-RSCnM_15.mp4	0.0	184.77813816070557	0.31670498847961426
26	81.11923098564148	response	0	4		24.0	2.5	/experiments/knapen_aot/oldvideos/R_S_yt-4W224-RSCnM_15.mp4	0.0	185.08664512634277	
26	81.12742900848389	movie	1		301.0	24.0	2.5	/experiments/knapen_aot/oldvideos/R_S_yt-4W224-RSCnM_15.mp4	0.0	185.09484314918518	2.508336067199707
26	83.6357650756836	fix_post	2		12.0	24.0	2.5	/experiments/knapen_aot/oldvideos/R_S_yt-4W224-RSCnM_15.mp4	0.0	187.6031792163849	0.09997892379760742
27	83.7357439994812	fix_pre	0		39.0	25.0	2.5	/experiments/knapen_aot/oldvideos/R_S_yt-vDjj0EWFdIU_49.mp4	0.0	187.7031581401825	0.325653076171875
27	84.05257296562195	response	0	4		25.0	2.5	/experiments/knapen_aot/oldvideos/R_S_yt-vDjj0EWFdIU_49.mp4	0.0	188.01998710632324	
27	84.06139707565308	movie	1		301.0	25.0	2.5	/experiments/knapen_aot/oldvideos/R_S_yt-vDjj0EWFdIU_49.mp4	0.0	188.02881121635437	2.507673978805542
27	86.56907105445862	fix_post	2		12.0	25.0	2.5	/experiments/knapen_aot/oldvideos/R_S_yt-vDjj0EWFdIU_49.mp4	0.0	190.5364851951599	0.09999990463256836
28	86.66907095909119	fix_pre	0		154.0	26.0	2.5	blank	1.0	190.63648509979248	1.2832860946655273
28	87.94420003890991	response	0	4		26.0	2.5	blank	1.0	191.9116141796112	
28	87.95235705375671	movie	1		301.0	26.0	2.5	blank	1.0	191.919771194458	2.508384943008423
28	90.46074199676514	fix_post	2		12.0	26.0	2.5	blank	1.0	194.42815613746643	0.09995794296264648
29	90.56069993972778	fix_pre	0		42.0	27.0	2.5	/experiments/knapen_aot/oldvideos/S_ILSVRC2015_train_00292006.mp4	0.0	194.52811408042908	0.34999799728393555
29	90.90250492095947	response	0	4		27.0	2.5	/experiments/knapen_aot/oldvideos/S_ILSVRC2015_train_00292006.mp4	0.0	194.86991906166077	
29	90.91069793701172	movie	1		301.0	27.0	2.5	/experiments/knapen_aot/oldvideos/S_ILSVRC2015_train_00292006.mp4	0.0	194.878112077713	2.5083811283111572
29	93.41907906532288	fix_post	2		12.0	27.0	2.5	/experiments/knapen_aot/oldvideos/S_ILSVRC2015_train_00292006.mp4	0.0	197.38649320602417	0.1008307933807373
30	93.51990985870361	fix_pre	0		31.0	28.0	2.5	/experiments/knapen_aot/oldvideos/S_yt-Xq6uX1jfFRk_21.mp4	0.0	197.4873239994049	0.25753116607666016
30	93.76907992362976	response	0	4		28.0	2.5	/experiments/knapen_aot/oldvideos/S_yt-Xq6uX1jfFRk_21.mp4	0.0	197.73649406433105	
30	93.77744102478027	movie	1		301.0	28.0	2.5	/experiments/knapen_aot/oldvideos/S_yt-Xq6uX1jfFRk_21.mp4	0.0	197.74485516548157	2.508220911026001
30	96.28566193580627	fix_post	2		12.0	28.0	2.5	/experiments/knapen_aot/oldvideos/S_yt-Xq6uX1jfFRk_21.mp4	0.0	200.25307607650757	0.10004401206970215
31	96.38570594787598	fix_pre	0		269.0	29.0	2.5	/experiments/knapen_aot/oldvideos/R_S_yt-2ftSsLqRQnA_84.mp4	0.0	200.35312008857727	2.241594076156616
31	98.61912798881531	response	0	4		29.0	2.5	/experiments/knapen_aot/oldvideos/R_S_yt-2ftSsLqRQnA_84.mp4	0.0	202.5865421295166	
31	98.62730002403259	movie	1		301.0	29.0	2.5	/experiments/knapen_aot/oldvideos/R_S_yt-2ftSsLqRQnA_84.mp4	0.0	202.5947141647339	2.508394956588745
31	101.13569498062134	fix_post	2		12.0	29.0	2.5	/experiments/knapen_aot/oldvideos/R_S_yt-2ftSsLqRQnA_84.mp4	0.0	205.10310912132263	0.10009908676147461
32	101.23579406738281	fix_pre	0		95.0	30.0	2.5	/experiments/knapen_aot/oldvideos/S_wc-WgOBK5IL7vex_4.mp4	0.0	205.2032082080841	0.7914798259735107
32	102.01907992362976	response	0	4		30.0	2.5	/experiments/knapen_aot/oldvideos/S_wc-WgOBK5IL7vex_4.mp4	0.0	205.98649406433105	
32	102.02727389335632	movie	1		162.0	30.0	2.5	/experiments/knapen_aot/oldvideos/S_wc-WgOBK5IL7vex_4.mp4	0.0	205.99468803405762	2.50835919380188
32	104.5356330871582	fix_post	2		12.0	30.0	2.5	/experiments/knapen_aot/oldvideos/S_wc-WgOBK5IL7vex_4.mp4	0.0	208.5030472278595	0.1001129150390625
33	104.63574600219727	fix_pre	0		40.0	31.0	2.5	/experiments/knapen_aot/oldvideos/S_yt-jy7rAnpu0u8_128.mp4	0.0	208.60316014289856	0.3331608772277832
33	104.9608039855957	response	0	4		31.0	2.5	/experiments/knapen_aot/oldvideos/S_yt-jy7rAnpu0u8_128.mp4	0.0	208.928218126297	
33	104.96890687942505	movie	1		301.0	31.0	2.5	/experiments/knapen_aot/oldvideos/S_yt-jy7rAnpu0u8_128.mp4	0.0	208.93632102012634	2.508423089981079
33	107.47732996940613	fix_post	2		12.0	31.0	2.5	/experiments/knapen_aot/oldvideos/S_yt-jy7rAnpu0u8_128.mp4	0.0	211.44474411010742	0.09994912147521973
34	107.57727909088135	fix_pre	0		163.0	32.0	2.5	/experiments/knapen_aot/oldvideos/R_S_yt-35i8UeYXjGw_47.mp4	0.0	211.54469323158264	1.3589727878570557
34	108.92741107940674	response	0	4		32.0	2.5	/experiments/knapen_aot/oldvideos/R_S_yt-35i8UeYXjGw_47.mp4	0.0	212.89482522010803	
34	108.9362518787384	movie	1		301.0	32.0	2.5	/experiments/knapen_aot/oldvideos/R_S_yt-35i8UeYXjGw_47.mp4	0.0	212.9036660194397	2.50770902633667
34	111.44396090507507	fix_post	2		12.0	32.0	2.5	/experiments/knapen_aot/oldvideos/R_S_yt-35i8UeYXjGw_47.mp4	0.0	215.41137504577637	0.09999299049377441
35	111.54395389556885	fix_pre	0		49.0	33.0	2.5	/experiments/knapen_aot/oldvideos/R_S_yt-W00vtWnXgIk_73.mp4	0.0	215.51136803627014	0.4083831310272217
35	111.94410705566406	response	0	4		33.0	2.5	/experiments/knapen_aot/oldvideos/R_S_yt-W00vtWnXgIk_73.mp4	0.0	215.91152119636536	
35	111.95233702659607	movie	1		301.0	33.0	2.5	/experiments/knapen_aot/oldvideos/R_S_yt-W00vtWnXgIk_73.mp4	0.0	215.91975116729736	2.5084409713745117
35	114.46077799797058	fix_post	2		12.0	33.0	2.5	/experiments/knapen_aot/oldvideos/R_S_yt-W00vtWnXgIk_73.mp4	0.0	218.42819213867188	0.09984588623046875
36	114.56062388420105	fix_pre	0		147.0	34.0	2.5	blank	1.0	218.52803802490234	1.2248961925506592
36	115.77732491493225	response	0	4		34.0	2.5	blank	1.0	219.74473905563354	
36	115.78552007675171	movie	1		301.0	34.0	2.5	blank	1.0	219.752934217453	2.508413791656494
36	118.2939338684082	fix_post	2		12.0	34.0	2.5	blank	1.0	222.2613480091095	0.10049200057983398
37	118.39442586898804	fix_pre	0		43.0	35.0	2.5	/experiments/knapen_aot/oldvideos/S_yt-738MRS0yI6g_177.mp4	0.0	222.36184000968933	0.3577601909637451
37	118.74401092529297	response	0	4		35.0	2.5	/experiments/knapen_aot/oldvideos/S_yt-738MRS0yI6g_177.mp4	0.0	222.71142506599426	
37	118.75218605995178	movie	1		301.0	35.0	2.5	/experiments/knapen_aot/oldvideos/S_yt-738MRS0yI6g_177.mp4	0.0	222.71960020065308	2.5084478855133057
37	121.26063394546509	fix_post	2		12.0	35.0	2.5	/experiments/knapen_aot/oldvideos/S_yt-738MRS0yI6g_177.mp4	0.0	225.22804808616638	0.0999460220336914
38	121.36057996749878	fix_pre	0		35.0	36.0	2.5	/experiments/knapen_aot/oldvideos/R_S_yt-EuyfT0PuOoQ_91.mp4	0.0	225.32799410820007	0.2916429042816162
38	121.63646388053894	response	0	4		36.0	2.5	/experiments/knapen_aot/oldvideos/R_S_yt-EuyfT0PuOoQ_91.mp4	0.0	225.60387802124023	
38	121.6522228717804	movie	1		301.0	36.0	2.5	/experiments/knapen_aot/oldvideos/R_S_yt-EuyfT0PuOoQ_91.mp4	0.0	225.6196370124817	2.508481025695801
38	124.1607038974762	fix_post	2		12.0	36.0	2.5	/experiments/knapen_aot/oldvideos/R_S_yt-EuyfT0PuOoQ_91.mp4	0.0	228.1281180381775	0.0998690128326416
39	124.26057291030884	fix_pre	0		29.0	37.0	2.5	/experiments/knapen_aot/oldvideos/S_comp_N013_C004_PS_v01_SDR_PS_20180925_F1970F7193_SDR_2K_AVC.mp4	0.0	228.22798705101013	0.24161601066589355
39	124.49393606185913	response	0	4		37.0	2.5	/experiments/knapen_aot/oldvideos/S_comp_N013_C004_PS_v01_SDR_PS_20180925_F1970F7193_SDR_2K_AVC.mp4	0.0	228.46135020256042	
39	124.50218892097473	movie	1		166.0	37.0	2.5	/experiments/knapen_aot/oldvideos/S_comp_N013_C004_PS_v01_SDR_PS_20180925_F1970F7193_SDR_2K_AVC.mp4	0.0	228.46960306167603	2.5082950592041016
39	127.01048398017883	fix_post	2		12.0	37.0	2.5	/experiments/knapen_aot/oldvideos/S_comp_N013_C004_PS_v01_SDR_PS_20180925_F1970F7193_SDR_2K_AVC.mp4	0.0	230.97789812088013	0.10006308555603027
40	127.11054706573486	fix_pre	0		258.0	38.0	2.5	/experiments/knapen_aot/oldvideos/S_ILSVRC2015_train_00545000.mp4	0.0	231.07796120643616	2.149935007095337
40	129.25235891342163	response	0	4		38.0	2.5	/experiments/knapen_aot/oldvideos/S_ILSVRC2015_train_00545000.mp4	0.0	233.21977305412292	
40	129.2604820728302	movie	1		301.0	38.0	2.5	/experiments/knapen_aot/oldvideos/S_ILSVRC2015_train_00545000.mp4	0.0	233.2278962135315	2.508443832397461
40	131.76892590522766	fix_post	2		12.0	38.0	2.5	/experiments/knapen_aot/oldvideos/S_ILSVRC2015_train_00545000.mp4	0.0	235.73634004592896	0.09992599487304688
41	131.8688519001007	fix_pre	0		17.0	39.0	2.5	/experiments/knapen_aot/oldvideos/R_S_comp_A008_C007_011550_CC_v01_SDR_PS_FINAL_20180709_SDR_2K_AVC.mp4	0.0	235.836266040802	0.14163613319396973
41	132.0023000240326	response	0	4		39.0	2.5	/experiments/knapen_aot/oldvideos/R_S_comp_A008_C007_011550_CC_v01_SDR_PS_FINAL_20180709_SDR_2K_AVC.mp4	0.0	235.9697141647339	
41	132.01048803329468	movie	1		163.0	39.0	2.5	/experiments/knapen_aot/oldvideos/R_S_comp_A008_C007_011550_CC_v01_SDR_PS_FINAL_20180709_SDR_2K_AVC.mp4	0.0	235.97790217399597	2.5083580017089844
41	134.51884603500366	fix_post	2		12.0	39.0	2.5	/experiments/knapen_aot/oldvideos/R_S_comp_A008_C007_011550_CC_v01_SDR_PS_FINAL_20180709_SDR_2K_AVC.mp4	0.0	238.48626017570496	0.09994292259216309
42	134.61878895759583	fix_pre	0		61.0	40.0	2.5	/experiments/knapen_aot/oldvideos/S_ILSVRC2015_train_00559000.mp4	0.0	238.58620309829712	0.50838303565979
42	135.11141896247864	response	0	4		40.0	2.5	/experiments/knapen_aot/oldvideos/S_ILSVRC2015_train_00559000.mp4	0.0	239.07883310317993	
42	135.12717199325562	movie	1		301.0	40.0	2.5	/experiments/knapen_aot/oldvideos/S_ILSVRC2015_train_00559000.mp4	0.0	239.0945861339569	2.508539915084839
42	137.63571190834045	fix_post	2		12.0	40.0	2.5	/experiments/knapen_aot/oldvideos/S_ILSVRC2015_train_00559000.mp4	0.0	241.60312604904175	0.09974408149719238
43	137.73545598983765	fix_pre	0		13.0	41.0	2.5	blank	1.0	241.70287013053894	0.10827803611755371
43	137.8355839252472	response	0	4		41.0	2.5	blank	1.0	241.8029980659485	
43	137.8437340259552	movie	1		301.0	41.0	2.5	blank	1.0	241.8111481666565	2.5084450244903564
43	140.35217905044556	fix_post	2		12.0	41.0	2.5	blank	1.0	244.31959319114685	0.0999758243560791
44	140.45215487480164	fix_pre	0		27.0	42.0	2.5	/experiments/knapen_aot/oldvideos/S_b8-2.mp4	0.0	244.41956901550293	0.22498321533203125
44	140.66887187957764	response	0	4		42.0	2.5	/experiments/knapen_aot/oldvideos/S_b8-2.mp4	0.0	244.63628602027893	
44	140.67713809013367	movie	1		165.0	42.0	2.5	/experiments/knapen_aot/oldvideos/S_b8-2.mp4	0.0	244.64455223083496	2.5083518028259277
44	143.1854898929596	fix_post	2		12.0	42.0	2.5	/experiments/knapen_aot/oldvideos/S_b8-2.mp4	0.0	247.1529040336609	0.09993600845336914
45	143.28542590141296	fix_pre	0		20.0	43.0	2.5	/experiments/knapen_aot/oldvideos/R_S_yt-LsCCAQ8BRO8_7.mp4	0.0	247.25284004211426	0.1666431427001953
45	143.4439160823822	response	0	4		43.0	2.5	/experiments/knapen_aot/oldvideos/R_S_yt-LsCCAQ8BRO8_7.mp4	0.0	247.4113302230835	
45	143.45206904411316	movie	1		301.0	43.0	2.5	/experiments/knapen_aot/oldvideos/R_S_yt-LsCCAQ8BRO8_7.mp4	0.0	247.41948318481445	2.5083889961242676
45	145.96045804023743	fix_post	2		12.0	43.0	2.5	/experiments/knapen_aot/oldvideos/R_S_yt-LsCCAQ8BRO8_7.mp4	0.0	249.92787218093872	0.09999990463256836
46	146.06045794487	fix_pre	0		246.0	44.0	2.5	/experiments/knapen_aot/oldvideos/S_video_inspire_california_big-sur_2020_00001.1080-h264.mp4	0.0	250.0278720855713	2.049994945526123
46	148.1022560596466	response	0	4		44.0	2.5	/experiments/knapen_aot/oldvideos/S_video_inspire_california_big-sur_2020_00001.1080-h264.mp4	0.0	252.0696702003479	
46	148.11045289039612	movie	1		167.0	44.0	2.5	/experiments/knapen_aot/oldvideos/S_video_inspire_california_big-sur_2020_00001.1080-h264.mp4	0.0	252.0778670310974	2.5083580017089844
46	150.6188108921051	fix_post	2		12.0	44.0	2.5	/experiments/knapen_aot/oldvideos/S_video_inspire_california_big-sur_2020_00001.1080-h264.mp4	0.0	254.5862250328064	0.09997105598449707
47	150.7187819480896	fix_pre	0		14.0	45.0	2.5	/experiments/knapen_aot/oldvideos/S_Nh81j72Utbs_5.mp4	0.0	254.6861960887909	0.11675095558166504
47	150.82718086242676	response	0	4		45.0	2.5	/experiments/knapen_aot/oldvideos/S_Nh81j72Utbs_5.mp4	0.0	254.79459500312805	
47	150.83553290367126	movie	1		301.0	45.0	2.5	/experiments/knapen_aot/oldvideos/S_Nh81j72Utbs_5.mp4	0.0	254.80294704437256	2.5082499980926514
47	153.34378290176392	fix_post	2		12.0	45.0	2.5	/experiments/knapen_aot/oldvideos/S_Nh81j72Utbs_5.mp4	0.0	257.3111970424652	0.0999610424041748
48	153.4437439441681	fix_pre	0		152.0	46.0	2.5	/experiments/knapen_aot/oldvideos/S_yt-hDYtYKUsVE4_120.mp4	0.0	257.4111580848694	1.2666571140289307
48	154.70224595069885	response	0	4		46.0	2.5	/experiments/knapen_aot/oldvideos/S_yt-hDYtYKUsVE4_120.mp4	0.0	258.66966009140015	
48	154.71040105819702	movie	1		301.0	46.0	2.5	/experiments/knapen_aot/oldvideos/S_yt-hDYtYKUsVE4_120.mp4	0.0	258.6778151988983	2.5082709789276123
48	157.21867203712463	fix_post	2		12.0	46.0	2.5	/experiments/knapen_aot/oldvideos/S_yt-hDYtYKUsVE4_120.mp4	0.0	261.1860861778259	0.10007786750793457
49	157.31874990463257	fix_pre	0		82.0	47.0	2.5	blank	1.0	261.28616404533386	0.6832950115203857
49	157.98642802238464	response	0	4		47.0	2.5	blank	1.0	261.95384216308594	
49	158.00204491615295	movie	1		301.0	47.0	2.5	blank	1.0	261.96945905685425	2.508389949798584
49	160.51043486595154	fix_post	2		12.0	47.0	2.5	blank	1.0	264.47784900665283	0.0999610424041748
50	160.6103959083557	fix_pre	0		158.0	48.0	2.5	/experiments/knapen_aot/oldvideos/S_video_inspire_california_big-sur_2020_00001.1080-h264.mp4	0.0	264.577810049057	1.3165950775146484
50	161.91886186599731	response	0	4		48.0	2.5	/experiments/knapen_aot/oldvideos/S_video_inspire_california_big-sur_2020_00001.1080-h264.mp4	0.0	265.8862760066986	
50	161.92699098587036	movie	1		176.0	48.0	2.5	/experiments/knapen_aot/oldvideos/S_video_inspire_california_big-sur_2020_00001.1080-h264.mp4	0.0	265.89440512657166	2.5085930824279785
50	164.43558406829834	fix_post	2		12.0	48.0	2.5	/experiments/knapen_aot/oldvideos/S_video_inspire_california_big-sur_2020_00001.1080-h264.mp4	0.0	268.40299820899963	0.09979796409606934
51	164.5353820323944	fix_pre	0		26.0	49.0	2.5	/experiments/knapen_aot/oldvideos/S_yt-qF-69JWJX_Y_55.mp4	0.0	268.5027961730957	0.21663904190063477
51	164.74405694007874	response	0	4		49.0	2.5	/experiments/knapen_aot/oldvideos/S_yt-qF-69JWJX_Y_55.mp4	0.0	268.71147108078003	
51	164.75202107429504	movie	1		301.0	49.0	2.5	/experiments/knapen_aot/oldvideos/S_yt-qF-69JWJX_Y_55.mp4	0.0	268.71943521499634	2.5083189010620117
51	167.26033997535706	fix_post	2		12.0	49.0	2.5	/experiments/knapen_aot/oldvideos/S_yt-qF-69JWJX_Y_55.mp4	0.0	271.22775411605835	0.10026907920837402
52	167.36060905456543	fix_pre	0		17.0	50.0	2.5	/experiments/knapen_aot/oldvideos/R_S_production_ID_3735542.mp4	0.0	271.3280231952667	0.14141583442687988
52	167.49379897117615	response	0	4		50.0	2.5	/experiments/knapen_aot/oldvideos/R_S_production_ID_3735542.mp4	0.0	271.46121311187744	
52	167.5020248889923	movie	1		164.0	50.0	2.5	/experiments/knapen_aot/oldvideos/R_S_production_ID_3735542.mp4	0.0	271.4694390296936	2.508273124694824
52	170.01029801368713	fix_post	2		12.0	50.0	2.5	/experiments/knapen_aot/oldvideos/R_S_production_ID_3735542.mp4	0.0	273.9777121543884	0.1001439094543457
53	170.11044192314148	fix_pre	0		242.0	51.0	2.5	/experiments/knapen_aot/oldvideos/R_S_comp_N013_C004_PS_v01_SDR_PS_20180925_F1970F7193_SDR_2K_AVC.mp4	0.0	274.0778560638428	2.0165679454803467
53	172.1188359260559	response	0	4		51.0	2.5	/experiments/knapen_aot/oldvideos/R_S_comp_N013_C004_PS_v01_SDR_PS_20180925_F1970F7193_SDR_2K_AVC.mp4	0.0	276.0862500667572	
53	172.12700986862183	movie	1		165.0	51.0	2.5	/experiments/knapen_aot/oldvideos/R_S_comp_N013_C004_PS_v01_SDR_PS_20180925_F1970F7193_SDR_2K_AVC.mp4	0.0	276.0944240093231	2.5084400177001953
53	174.63544988632202	fix_post	2		12.0	51.0	2.5	/experiments/knapen_aot/oldvideos/R_S_comp_N013_C004_PS_v01_SDR_PS_20180925_F1970F7193_SDR_2K_AVC.mp4	0.0	278.6028640270233	0.10005712509155273
54	174.73550701141357	fix_pre	0		366.0	52.0	2.5	/experiments/knapen_aot/oldvideos/S_yt-cjndulbUtRc_51.mp4	0.0	278.70292115211487	3.0497360229492188
54	177.77710509300232	response	0	4		52.0	2.5	/experiments/knapen_aot/oldvideos/S_yt-cjndulbUtRc_51.mp4	0.0	281.7445192337036	
54	177.7852430343628	movie	1		301.0	52.0	2.5	/experiments/knapen_aot/oldvideos/S_yt-cjndulbUtRc_51.mp4	0.0	281.7526571750641	2.508358955383301
54	180.2936019897461	fix_post	2		12.0	52.0	2.5	/experiments/knapen_aot/oldvideos/S_yt-cjndulbUtRc_51.mp4	0.0	284.2610161304474	0.1001889705657959
55	180.3937909603119	fix_pre	0		31.0	53.0	2.5	/experiments/knapen_aot/oldvideos/S_yt-y6JsUW0eSW8_32.mp4	0.0	284.3612051010132	0.2581520080566406
55	180.64384508132935	response	0	4		53.0	2.5	/experiments/knapen_aot/oldvideos/S_yt-y6JsUW0eSW8_32.mp4	0.0	284.61125922203064	
55	180.65194296836853	movie	1		301.0	53.0	2.5	/experiments/knapen_aot/oldvideos/S_yt-y6JsUW0eSW8_32.mp4	0.0	284.6193571090698	2.508349895477295
55	183.16029286384583	fix_post	2		12.0	53.0	2.5	/experiments/knapen_aot/oldvideos/S_yt-y6JsUW0eSW8_32.mp4	0.0	287.1277070045471	0.10000109672546387
56	183.2602939605713	fix_pre	0		123.0	54.0	2.5	blank	1.0	287.2277081012726	1.0249950885772705
56	184.2771029472351	response	0	4		54.0	2.5	blank	1.0	288.2445170879364	
56	184.28528904914856	movie	1		301.0	54.0	2.5	blank	1.0	288.25270318984985	2.5083768367767334
56	186.7936658859253	fix_post	2		12.0	54.0	2.5	blank	1.0	290.7610800266266	0.10033416748046875
57	186.89400005340576	fix_pre	0		134.0	55.0	2.5	/experiments/knapen_aot/oldvideos/S_yt-sGckFFOLO30_164.mp4	0.0	290.86141419410706	1.116250991821289
57	188.0020899772644	response	0	4		55.0	2.5	/experiments/knapen_aot/oldvideos/S_yt-sGckFFOLO30_164.mp4	0.0	291.9695041179657	
57	188.01025104522705	movie	1		301.0	55.0	2.5	/experiments/knapen_aot/oldvideos/S_yt-sGckFFOLO30_164.mp4	0.0	291.97766518592834	2.508577823638916
57	190.51882886886597	fix_post	2		12.0	55.0	2.5	/experiments/knapen_aot/oldvideos/S_yt-sGckFFOLO30_164.mp4	0.0	294.48624300956726	0.09979009628295898
58	190.61861896514893	fix_pre	0		19.0	56.0	2.5	/experiments/knapen_aot/oldvideos/S_video_inspire_california_big-sur_landscape_054.1080-h264.mp4	0.0	294.5860331058502	0.1583271026611328
58	190.76867508888245	response	0	4		56.0	2.5	/experiments/knapen_aot/oldvideos/S_video_inspire_california_big-sur_landscape_054.1080-h264.mp4	0.0	294.73608922958374	
58	190.77694606781006	movie	1		167.0	56.0	2.5	/experiments/knapen_aot/oldvideos/S_video_inspire_california_big-sur_landscape_054.1080-h264.mp4	0.0	294.74436020851135	2.508344888687134
58	193.2852909564972	fix_post	2		12.0	56.0	2.5	/experiments/knapen_aot/oldvideos/S_video_inspire_california_big-sur_landscape_054.1080-h264.mp4	0.0	297.2527050971985	0.10004901885986328
59	193.38533997535706	fix_pre	0		228.0	57.0	2.5	/experiments/knapen_aot/oldvideos/R_S_I003_C008_SDR_2K_AVC.mp4	0.0	297.35275411605835	1.8998770713806152
59	195.27704906463623	response	0	4		57.0	2.5	/experiments/knapen_aot/oldvideos/R_S_I003_C008_SDR_2K_AVC.mp4	0.0	299.2444632053375	
59	195.28521704673767	movie	1		176.0	57.0	2.5	/experiments/knapen_aot/oldvideos/R_S_I003_C008_SDR_2K_AVC.mp4	0.0	299.25263118743896	2.508370876312256
59	197.79358792304993	fix_post	2		12.0	57.0	2.5	/experiments/knapen_aot/oldvideos/R_S_I003_C008_SDR_2K_AVC.mp4	0.0	301.7610020637512	0.10075902938842773
59	197.86869406700134	response	2	4		57.0	2.5	/experiments/knapen_aot/oldvideos/R_S_I003_C008_SDR_2K_AVC.mp4	0.0	301.83610820770264	
60	197.89434695243835	fix_pre	0		102.0	58.0	2.5	/experiments/knapen_aot/oldvideos/R_S_flickr-53807584@N00-5566422012_16.mp4	0.0	301.86176109313965	0.8491730690002441
60	198.73535704612732	response	0	4		58.0	2.5	/experiments/knapen_aot/oldvideos/R_S_flickr-53807584@N00-5566422012_16.mp4	0.0	302.7027711868286	
60	198.7435200214386	movie	1		301.0	58.0	2.5	/experiments/knapen_aot/oldvideos/R_S_flickr-53807584@N00-5566422012_16.mp4	0.0	302.7109341621399	2.508415937423706
60	201.2519359588623	fix_post	2		12.0	58.0	2.5	/experiments/knapen_aot/oldvideos/R_S_flickr-53807584@N00-5566422012_16.mp4	0.0	305.2193500995636	0.10003399848937988
61	201.35196995735168	fix_pre	0		16.0	59.0	2.5	/experiments/knapen_aot/oldvideos/R_S_yt-tHBOlYmaBuk_96.mp4	0.0	305.319384098053	0.1332559585571289
61	201.47706007957458	response	0	4		59.0	2.5	/experiments/knapen_aot/oldvideos/R_S_yt-tHBOlYmaBuk_96.mp4	0.0	305.4444742202759	
61	201.4852259159088	movie	1		301.0	59.0	2.5	/experiments/knapen_aot/oldvideos/R_S_yt-tHBOlYmaBuk_96.mp4	0.0	305.4526400566101	2.508342981338501
61	203.99356889724731	fix_post	2		12.0	59.0	2.5	/experiments/knapen_aot/oldvideos/R_S_yt-tHBOlYmaBuk_96.mp4	0.0	307.9609830379486	0.100006103515625
62	204.09357500076294	fix_pre	0		47.0	60.0	2.5	/experiments/knapen_aot/oldvideos/R_S_ILSVRC2015_train_00278004.mp4	0.0	308.06098914146423	0.391589879989624
62	204.47700190544128	response	0	4		60.0	2.5	/experiments/knapen_aot/oldvideos/R_S_ILSVRC2015_train_00278004.mp4	0.0	308.4444160461426	
62	204.48516488075256	movie	1		301.0	60.0	2.5	/experiments/knapen_aot/oldvideos/R_S_ILSVRC2015_train_00278004.mp4	0.0	308.45257902145386	2.5083119869232178
62	206.99347686767578	fix_post	2		12.0	60.0	2.5	/experiments/knapen_aot/oldvideos/R_S_ILSVRC2015_train_00278004.mp4	0.0	310.9608910083771	0.10026216506958008
63	207.09373903274536	fix_pre	0		20.0	61.0	2.5	/experiments/knapen_aot/oldvideos/S_video_inspire_california_big-sur_landscape_054.1080-h264.mp4	0.0	311.06115317344666	0.16645288467407227
63	207.2520260810852	response	0	4		61.0	2.5	/experiments/knapen_aot/oldvideos/S_video_inspire_california_big-sur_landscape_054.1080-h264.mp4	0.0	311.2194402217865	
63	207.26019191741943	movie	1		171.0	61.0	2.5	/experiments/knapen_aot/oldvideos/S_video_inspire_california_big-sur_landscape_054.1080-h264.mp4	0.0	311.2276060581207	2.5083701610565186
63	209.76856207847595	fix_post	2		12.0	61.0	2.5	/experiments/knapen_aot/oldvideos/S_video_inspire_california_big-sur_landscape_054.1080-h264.mp4	0.0	313.73597621917725	0.09995484352111816
64	209.86851692199707	fix_pre	0		1.0	62.0	2.5	/experiments/knapen_aot/oldvideos/R_S_video_inspire_california_big-sur_landscape_054.1080-h264.mp4	0.0	313.83593106269836	0.011118173599243164
64	209.87047696113586	response	0	4		62.0	2.5	/experiments/knapen_aot/oldvideos/R_S_video_inspire_california_big-sur_landscape_054.1080-h264.mp4	0.0	313.83789110183716	
64	209.8796350955963	movie	1		173.0	62.0	2.5	/experiments/knapen_aot/oldvideos/R_S_video_inspire_california_big-sur_landscape_054.1080-h264.mp4	0.0	313.8470492362976	2.505567789077759
64	212.38520288467407	fix_post	2		12.0	62.0	2.5	/experiments/knapen_aot/oldvideos/R_S_video_inspire_california_big-sur_landscape_054.1080-h264.mp4	0.0	316.35261702537537	0.10003519058227539
65	212.48523807525635	fix_pre	0		78.0	63.0	2.5	blank	1.0	316.45265221595764	0.6499679088592529
65	213.1269829273224	response	0	4		63.0	2.5	blank	1.0	317.0943970680237	
65	213.1352059841156	movie	1		301.0	63.0	2.5	blank	1.0	317.1026201248169	2.508272886276245
65	215.64347887039185	fix_post	2		12.0	63.0	2.5	blank	1.0	319.61089301109314	0.10000801086425781
66	215.7434868812561	fix_pre	0		100.0	64.0	2.5	/experiments/knapen_aot/oldvideos/S_yt-STL3ejY9u_Q_73.mp4	0.0	319.7109010219574	0.8333230018615723
66	216.56856989860535	response	0	4		64.0	2.5	/experiments/knapen_aot/oldvideos/S_yt-STL3ejY9u_Q_73.mp4	0.0	320.53598403930664	
66	216.57680988311768	movie	1		301.0	64.0	2.5	/experiments/knapen_aot/oldvideos/S_yt-STL3ejY9u_Q_73.mp4	0.0	320.54422402381897	2.508362054824829
66	219.0851719379425	fix_post	2		12.0	64.0	2.5	/experiments/knapen_aot/oldvideos/S_yt-STL3ejY9u_Q_73.mp4	0.0	323.0525860786438	0.10001492500305176
67	219.18518686294556	fix_pre	0		29.0	65.0	2.5	/experiments/knapen_aot/oldvideos/R_S_yt-82O1uT8dmv8_12.mp4	0.0	323.15260100364685	0.24158811569213867
67	219.41849303245544	response	0	4		65.0	2.5	/experiments/knapen_aot/oldvideos/R_S_yt-82O1uT8dmv8_12.mp4	0.0	323.38590717315674	
67	219.4267749786377	movie	1		301.0	65.0	2.5	/experiments/knapen_aot/oldvideos/R_S_yt-82O1uT8dmv8_12.mp4	0.0	323.394189119339	2.5083980560302734
67	221.93517303466797	fix_post	2		12.0	65.0	2.5	/experiments/knapen_aot/oldvideos/R_S_yt-82O1uT8dmv8_12.mp4	0.0	325.90258717536926	0.09990692138671875
68	222.0350799560547	fix_pre	0		159.0	66.0	2.5	/experiments/knapen_aot/oldvideos/R_S_pexels-c-technical-6344801.mp4	0.0	326.002494096756	1.325005054473877
68	223.35194396972656	response	0	4		66.0	2.5	/experiments/knapen_aot/oldvideos/R_S_pexels-c-technical-6344801.mp4	0.0	327.31935811042786	
68	223.36008501052856	movie	1		206.0	66.0	2.5	/experiments/knapen_aot/oldvideos/R_S_pexels-c-technical-6344801.mp4	0.0	327.32749915122986	2.508296012878418
68	225.86838102340698	fix_post	2		12.0	66.0	2.5	/experiments/knapen_aot/oldvideos/R_S_pexels-c-technical-6344801.mp4	0.0	329.8357951641083	0.10009598731994629
69	225.96847701072693	fix_pre	0		59.0	67.0	2.5	/experiments/knapen_aot/oldvideos/S_yt-mDil5vGZb14_4049.mp4	0.0	329.9358911514282	0.49163198471069336
69	226.4519009590149	response	0	4		67.0	2.5	/experiments/knapen_aot/oldvideos/S_yt-mDil5vGZb14_4049.mp4	0.0	330.4193150997162	
69	226.46010899543762	movie	1		301.0	67.0	2.5	/experiments/knapen_aot/oldvideos/S_yt-mDil5vGZb14_4049.mp4	0.0	330.4275231361389	2.5084469318389893
69	228.9685559272766	fix_post	2		12.0	67.0	2.5	/experiments/knapen_aot/oldvideos/S_yt-mDil5vGZb14_4049.mp4	0.0	332.9359700679779	0.09990811347961426
70	229.06846404075623	fix_pre	0		133.0	68.0	2.5	/experiments/knapen_aot/oldvideos/R_S_b5-3.mp4	0.0	333.0358781814575	1.1082758903503418
70	230.16856002807617	response	0	4		68.0	2.5	/experiments/knapen_aot/oldvideos/R_S_b5-3.mp4	0.0	334.13597416877747	
70	230.17673993110657	movie	1		166.0	68.0	2.5	/experiments/knapen_aot/oldvideos/R_S_b5-3.mp4	0.0	334.14415407180786	2.508427143096924
70	232.6851670742035	fix_post	2		12.0	68.0	2.5	/experiments/knapen_aot/oldvideos/R_S_b5-3.mp4	0.0	336.6525812149048	0.09994792938232422
71	232.78511500358582	fix_pre	0		146.0	69.0	2.5	blank	1.0	336.7525291442871	1.2166469097137451
71	233.99348402023315	response	0	4		69.0	2.5	blank	1.0	337.96089816093445	
71	234.00176191329956	movie	1		301.0	69.0	2.5	blank	1.0	337.96917605400085	2.508358955383301
71	236.51012086868286	fix_post	2		12.0	69.0	2.5	blank	1.0	340.47753500938416	0.09995818138122559
72	236.6100790500641	fix_pre	0		44.0	70.0	2.5	/experiments/knapen_aot/oldvideos/S_yt-T_qmGKyeKNU_32.mp4	0.0	340.5774931907654	0.3666548728942871
72	236.96850395202637	response	0	4		70.0	2.5	/experiments/knapen_aot/oldvideos/S_yt-T_qmGKyeKNU_32.mp4	0.0	340.93591809272766	
72	236.97673392295837	movie	1		301.0	70.0	2.5	/experiments/knapen_aot/oldvideos/S_yt-T_qmGKyeKNU_32.mp4	0.0	340.94414806365967	2.508319139480591
72	239.48505306243896	fix_post	2		12.0	70.0	2.5	/experiments/knapen_aot/oldvideos/S_yt-T_qmGKyeKNU_32.mp4	0.0	343.45246720314026	0.1000208854675293
73	239.5850739479065	fix_pre	0		275.0	71.0	2.5	/experiments/knapen_aot/oldvideos/S_yt-Rqwi-Fk9IJQ_114.mp4	0.0	343.5524880886078	2.2916181087493896
73	241.86851596832275	response	0	4		71.0	2.5	/experiments/knapen_aot/oldvideos/S_yt-Rqwi-Fk9IJQ_114.mp4	0.0	345.83593010902405	
73	241.87669205665588	movie	1		301.0	71.0	2.5	/experiments/knapen_aot/oldvideos/S_yt-Rqwi-Fk9IJQ_114.mp4	0.0	345.8441061973572	2.5083608627319336
73	244.38505291938782	fix_post	2		12.0	71.0	2.5	/experiments/knapen_aot/oldvideos/S_yt-Rqwi-Fk9IJQ_114.mp4	0.0	348.3524670600891	0.09998011589050293
74	244.48503303527832	fix_pre	0		49.0	72.0	2.5	/experiments/knapen_aot/oldvideos/S_yt-T_qmGKyeKNU_32.mp4	0.0	348.4524471759796	0.40833187103271484
74	244.88522601127625	response	0	4		72.0	2.5	/experiments/knapen_aot/oldvideos/S_yt-T_qmGKyeKNU_32.mp4	0.0	348.85264015197754	
74	244.89336490631104	movie	1		301.0	72.0	2.5	/experiments/knapen_aot/oldvideos/S_yt-T_qmGKyeKNU_32.mp4	0.0	348.86077904701233	2.5084471702575684
74	247.4018120765686	fix_post	2		12.0	72.0	2.5	/experiments/knapen_aot/oldvideos/S_yt-T_qmGKyeKNU_32.mp4	0.0	351.3692262172699	0.09989595413208008
75	247.50170803070068	fix_pre	0		27.0	73.0	2.5	/experiments/knapen_aot/oldvideos/R_S_ILSVRC2015_train_00042003.mp4	0.0	351.469122171402	0.2250049114227295
75	247.71848893165588	response	0	4		73.0	2.5	/experiments/knapen_aot/oldvideos/R_S_ILSVRC2015_train_00042003.mp4	0.0	351.6859030723572	
75	247.7267129421234	movie	1		301.0	73.0	2.5	/experiments/knapen_aot/oldvideos/R_S_ILSVRC2015_train_00042003.mp4	0.0	351.6941270828247	2.5083279609680176
75	250.23504090309143	fix_post	2		12.0	73.0	2.5	/experiments/knapen_aot/oldvideos/R_S_ILSVRC2015_train_00042003.mp4	0.0	354.2024550437927	0.10001015663146973
76	250.3350510597229	fix_pre	0		36.0	74.0	2.5	/experiments/knapen_aot/oldvideos/R_S_yt-DWsFRl5bXs8_23.mp4	0.0	354.3024652004242	0.301196813583374
76	250.6268310546875	response	0	4		74.0	2.5	/experiments/knapen_aot/oldvideos/R_S_yt-DWsFRl5bXs8_23.mp4	0.0	354.5942451953888	
76	250.63624787330627	movie	1		301.0	74.0	2.5	/experiments/knapen_aot/oldvideos/R_S_yt-DWsFRl5bXs8_23.mp4	0.0	354.60366201400757	2.507111072540283
76	253.14335894584656	fix_post	2		12.0	74.0	2.5	/experiments/knapen_aot/oldvideos/R_S_yt-DWsFRl5bXs8_23.mp4	0.0	357.11077308654785	0.09989404678344727
77	253.24325299263	fix_pre	0		44.0	75.0	2.5	/experiments/knapen_aot/oldvideos/S_I004_C014_SDR_2K_AVC.mp4	0.0	357.2106671333313	0.36669206619262695
77	253.60176992416382	response	0	4		75.0	2.5	/experiments/knapen_aot/oldvideos/S_I004_C014_SDR_2K_AVC.mp4	0.0	357.5691840648651	
77	253.60994505882263	movie	1		172.0	75.0	2.5	/experiments/knapen_aot/oldvideos/S_I004_C014_SDR_2K_AVC.mp4	0.0	357.5773591995239	2.508384943008423
77	256.11833000183105	fix_post	2		12.0	75.0	2.5	/experiments/knapen_aot/oldvideos/S_I004_C014_SDR_2K_AVC.mp4	0.0	360.08574414253235	0.10008001327514648
78	256.2184100151062	fix_pre	0		255.0	76.0	2.5	/experiments/knapen_aot/oldvideos/S_yt-WrwPgZYBXlA_34.mp4	0.0	360.1858241558075	2.1260669231414795
78	258.33511090278625	response	0	4		76.0	2.5	/experiments/knapen_aot/oldvideos/S_yt-WrwPgZYBXlA_34.mp4	0.0	362.30252504348755	
78	258.3444769382477	movie	1		301.0	76.0	2.5	/experiments/knapen_aot/oldvideos/S_yt-WrwPgZYBXlA_34.mp4	0.0	362.311891078949	2.507143974304199
78	260.8516209125519	fix_post	2		12.0	76.0	2.5	/experiments/knapen_aot/oldvideos/S_yt-WrwPgZYBXlA_34.mp4	0.0	364.8190350532532	0.10004496574401855
79	260.9516658782959	fix_pre	0		47.0	77.0	2.5	blank	1.0	364.9190800189972	0.3928110599517822
79	261.33512592315674	response	0	4		77.0	2.5	blank	1.0	365.30254006385803	
79	261.3444769382477	movie	1		301.0	77.0	2.5	blank	1.0	365.311891078949	2.507354974746704
79	263.8518319129944	fix_post	2		12.0	77.0	2.5	blank	1.0	367.8192460536957	0.09989094734191895
80	263.9517228603363	fix_pre	0		114.0	78.0	2.5	/experiments/knapen_aot/oldvideos/S_yt-WrwPgZYBXlA_34.mp4	0.0	367.9191370010376	0.9498820304870605
80	264.8933959007263	response	0	4		78.0	2.5	/experiments/knapen_aot/oldvideos/S_yt-WrwPgZYBXlA_34.mp4	0.0	368.8608100414276	
80	264.90160489082336	movie	1		301.0	78.0	2.5	/experiments/knapen_aot/oldvideos/S_yt-WrwPgZYBXlA_34.mp4	0.0	368.86901903152466	2.5083580017089844
80	267.40996289253235	fix_post	2		12.0	78.0	2.5	/experiments/knapen_aot/oldvideos/S_yt-WrwPgZYBXlA_34.mp4	0.0	371.37737703323364	0.10001897811889648
81	267.50998187065125	fix_pre	0		201.0	79.0	2.5	/experiments/knapen_aot/oldvideos/S_comp_HK_H004_C001_PSNK_DENOISE_v14_SDR_PS_FINAL_20180731_SDR_2K_AVC.mp4	0.0	371.47739601135254	1.6749460697174072
81	269.17684507369995	response	0	4		79.0	2.5	/experiments/knapen_aot/oldvideos/S_comp_HK_H004_C001_PSNK_DENOISE_v14_SDR_PS_FINAL_20180731_SDR_2K_AVC.mp4	0.0	373.14425921440125	
81	269.18492794036865	movie	1		166.0	79.0	2.5	/experiments/knapen_aot/oldvideos/S_comp_HK_H004_C001_PSNK_DENOISE_v14_SDR_PS_FINAL_20180731_SDR_2K_AVC.mp4	0.0	373.15234208106995	2.508409023284912
81	271.69333696365356	fix_post	2		12.0	79.0	2.5	/experiments/knapen_aot/oldvideos/S_comp_HK_H004_C001_PSNK_DENOISE_v14_SDR_PS_FINAL_20180731_SDR_2K_AVC.mp4	0.0	375.66075110435486	0.09988903999328613
82	271.79322600364685	fix_pre	0		99.0	80.0	2.5	/experiments/knapen_aot/oldvideos/R_S_yt-kYMffy4hTMo_107.mp4	0.0	375.76064014434814	0.8249890804290771
82	272.61012387275696	response	0	4		80.0	2.5	/experiments/knapen_aot/oldvideos/R_S_yt-kYMffy4hTMo_107.mp4	0.0	376.57753801345825	
82	272.6182150840759	movie	1		301.0	80.0	2.5	/experiments/knapen_aot/oldvideos/R_S_yt-kYMffy4hTMo_107.mp4	0.0	376.5856292247772	2.50860595703125
82	275.1268210411072	fix_post	2		12.0	80.0	2.5	/experiments/knapen_aot/oldvideos/R_S_yt-kYMffy4hTMo_107.mp4	0.0	379.0942351818085	0.0998070240020752
83	275.22662806510925	fix_pre	0		252.0	81.0	2.5	/experiments/knapen_aot/oldvideos/R_S_ILSVRC2015_train_00565000.mp4	0.0	379.19404220581055	2.099902868270874
83	277.31837606430054	response	0	4		81.0	2.5	/experiments/knapen_aot/oldvideos/R_S_ILSVRC2015_train_00565000.mp4	0.0	381.28579020500183	
83	277.3265309333801	movie	1		301.0	81.0	2.5	/experiments/knapen_aot/oldvideos/R_S_ILSVRC2015_train_00565000.mp4	0.0	381.2939450740814	2.508357048034668
83	279.8348879814148	fix_post	2		12.0	81.0	2.5	/experiments/knapen_aot/oldvideos/R_S_ILSVRC2015_train_00565000.mp4	0.0	383.8023021221161	0.10005807876586914
84	279.93494606018066	fix_pre	0		9.0	82.0	2.5	blank	1.0	383.90236020088196	0.0749669075012207
84	280.0016419887543	response	0	4		82.0	2.5	blank	1.0	383.96905612945557	
84	280.0099129676819	movie	1		301.0	82.0	2.5	blank	1.0	383.9773271083832	2.5083580017089844
84	282.51827096939087	fix_post	2		12.0	82.0	2.5	blank	1.0	386.48568511009216	0.10013890266418457
85	282.61840987205505	fix_pre	0		32.0	83.0	2.5	/experiments/knapen_aot/oldvideos/S_comp_LA_A006_C008_PSNK_ALL_LOGOS_v10_SDR_PS_FINAL_20180801_SDR_2K_AVC.mp4	0.0	386.58582401275635	0.26753711700439453
85	282.8691420555115	response	0	4		83.0	2.5	/experiments/knapen_aot/oldvideos/S_comp_LA_A006_C008_PSNK_ALL_LOGOS_v10_SDR_PS_FINAL_20180801_SDR_2K_AVC.mp4	0.0	386.83655619621277	
85	282.88594698905945	movie	1		169.0	83.0	2.5	/experiments/knapen_aot/oldvideos/S_comp_LA_A006_C008_PSNK_ALL_LOGOS_v10_SDR_PS_FINAL_20180801_SDR_2K_AVC.mp4	0.0	386.85336112976074	2.507317066192627
85	285.3932640552521	fix_post	2		12.0	83.0	2.5	/experiments/knapen_aot/oldvideos/S_comp_LA_A006_C008_PSNK_ALL_LOGOS_v10_SDR_PS_FINAL_20180801_SDR_2K_AVC.mp4	0.0	389.36067819595337	0.09994697570800781
87	285.4932110309601	stim	0		353.0					389.4606251716614	2.9416840076446533
87	288.427551984787	response	0	space						392.3949661254883	
