trial_nr	onset	event_type	phase	response	nr_frames	movie_index	movie_duration	movie_file	blank	onset_abs	duration
0	0.1315910816192627	stim	0		33.0					64.27349090576172	0.27772998809814453
0	0.39995312690734863	response	0	space						64.5418529510498	
1	0.4093210697174072	stim	0		121.0					64.55122089385986	1.0069420337677002
1	1.4162631034851074	stim	1		120.0					65.55816292762756	0.9999380111694336
1	1.8080241680145264	response	1	space						65.94992399215698	
1	2.391319990158081	response	1	space						66.53321981430054	
2	2.416201114654541	fix_pre	0		52.0	0.0	2.5	/experiments/knapen_aot/videos/S_yt--5ls65Ue1RA_52.mp4	0.0	66.558100938797	0.43326401710510254
2	2.8412179946899414	response	0	space		0.0	2.5	/experiments/knapen_aot/videos/S_yt--5ls65Ue1RA_52.mp4	0.0	66.9831178188324	
2	2.8494651317596436	movie	1		300.0	0.0	2.5	/experiments/knapen_aot/videos/S_yt--5ls65Ue1RA_52.mp4	0.0	66.9913649559021	2.5083858966827393
2	5.357851028442383	fix_post	2		12.0	0.0	2.5	/experiments/knapen_aot/videos/S_yt--5ls65Ue1RA_52.mp4	0.0	69.49975085258484	0.10001611709594727
3	5.45786714553833	fix_pre	0		90.0	1.0	2.5	/experiments/knapen_aot/videos/S_ILSVRC2015_train_00743005.mp4	0.0	69.59976696968079	0.7499728202819824
3	6.2029759883880615	response	0	2		1.0	2.5	/experiments/knapen_aot/videos/S_ILSVRC2015_train_00743005.mp4	0.0	70.34487581253052	
3	6.2078399658203125	movie	1		298.0	1.0	2.5	/experiments/knapen_aot/videos/S_ILSVRC2015_train_00743005.mp4	0.0	70.34973978996277	2.5084362030029297
3	8.716276168823242	fix_post	2		12.0	1.0	2.5	/experiments/knapen_aot/videos/S_ILSVRC2015_train_00743005.mp4	0.0	72.8581759929657	0.09987282752990723
4	8.81614899635315	fix_pre	0		69.0	2.0	2.5	/experiments/knapen_aot/videos/R_S_G008_C015_UHD_SDR_2K_AVC.mp4	0.0	72.9580488204956	0.5749921798706055
4	9.382938146591187	response	0	2		2.0	2.5	/experiments/knapen_aot/videos/R_S_G008_C015_UHD_SDR_2K_AVC.mp4	0.0	73.52483797073364	
4	9.391141176223755	movie	1		177.0	2.0	2.5	/experiments/knapen_aot/videos/R_S_G008_C015_UHD_SDR_2K_AVC.mp4	0.0	73.53304100036621	2.508333921432495
4	11.89947509765625	fix_post	2		12.0	2.0	2.5	/experiments/knapen_aot/videos/R_S_G008_C015_UHD_SDR_2K_AVC.mp4	0.0	76.0413749217987	0.10002994537353516
5	11.999505043029785	fix_pre	0		71.0	3.0	2.5	/experiments/knapen_aot/videos/S_yt-0Ut9QANGX20_35.mp4	0.0	76.14140486717224	0.5915899276733398
5	12.58297610282898	response	0	2		3.0	2.5	/experiments/knapen_aot/videos/S_yt-0Ut9QANGX20_35.mp4	0.0	76.72487592697144	
5	12.591094970703125	movie	1		301.0	3.0	2.5	/experiments/knapen_aot/videos/S_yt-0Ut9QANGX20_35.mp4	0.0	76.73299479484558	2.508329153060913
5	15.099424123764038	fix_post	2		12.0	3.0	2.5	/experiments/knapen_aot/videos/S_yt-0Ut9QANGX20_35.mp4	0.0	79.2413239479065	0.09999704360961914
6	15.199421167373657	fix_pre	0		66.0	4.0	2.5	/experiments/knapen_aot/videos/R_S_yt-M8wvzt_BMXM_173.mp4	0.0	79.34132099151611	0.5500288009643555
6	15.741322040557861	response	0	2		4.0	2.5	/experiments/knapen_aot/videos/R_S_yt-M8wvzt_BMXM_173.mp4	0.0	79.88322186470032	
6	15.749449968338013	movie	1		301.0	4.0	2.5	/experiments/knapen_aot/videos/R_S_yt-M8wvzt_BMXM_173.mp4	0.0	79.89134979248047	2.5083000659942627
6	18.257750034332275	fix_post	2		12.0	4.0	2.5	/experiments/knapen_aot/videos/R_S_yt-M8wvzt_BMXM_173.mp4	0.0	82.39964985847473	0.10007405281066895
7	18.357824087142944	fix_pre	0		41.0	5.0	2.5	/experiments/knapen_aot/videos/S_ILSVRC2015_train_00610000.mp4	0.0	82.4997239112854	0.34262800216674805
7	18.691286087036133	response	0	2		5.0	2.5	/experiments/knapen_aot/videos/S_ILSVRC2015_train_00610000.mp4	0.0	82.83318591117859	
7	18.700452089309692	movie	1		301.0	5.0	2.5	/experiments/knapen_aot/videos/S_ILSVRC2015_train_00610000.mp4	0.0	82.84235191345215	2.507354974746704
7	21.207807064056396	fix_post	2		12.0	5.0	2.5	/experiments/knapen_aot/videos/S_ILSVRC2015_train_00610000.mp4	0.0	85.34970688819885	0.09991812705993652
8	21.307725191116333	fix_pre	0		71.0	6.0	2.5	/experiments/knapen_aot/videos/R_S_ILSVRC2015_train_00708000.mp4	0.0	85.44962501525879	0.5916709899902344
8	21.89127516746521	response	0	2		6.0	2.5	/experiments/knapen_aot/videos/R_S_ILSVRC2015_train_00708000.mp4	0.0	86.03317499160767	
8	21.899396181106567	movie	1		301.0	6.0	2.5	/experiments/knapen_aot/videos/R_S_ILSVRC2015_train_00708000.mp4	0.0	86.04129600524902	2.5083889961242676
8	24.407785177230835	fix_post	2		12.0	6.0	2.5	/experiments/knapen_aot/videos/R_S_ILSVRC2015_train_00708000.mp4	0.0	88.54968500137329	0.10000991821289062
9	24.507795095443726	fix_pre	0		58.0	7.0	2.5	blank	1.0	88.64969491958618	0.4842720031738281
9	24.98291802406311	response	0	2		7.0	2.5	blank	1.0	89.12481784820557	
9	24.992067098617554	movie	1		301.0	7.0	2.5	blank	1.0	89.13396692276001	2.507438898086548
9	27.4995059967041	fix_post	2		12.0	7.0	2.5	blank	1.0	91.64140582084656	0.09994006156921387
10	27.599446058273315	fix_pre	0		54.0	8.0	2.5	/experiments/knapen_aot/videos/S_pexels-mart-production-7277934.mp4	0.0	91.74134588241577	0.4500119686126709
10	28.041229009628296	response	0	2		8.0	2.5	/experiments/knapen_aot/videos/S_pexels-mart-production-7277934.mp4	0.0	92.18312883377075	
10	28.049458026885986	movie	1		165.0	8.0	2.5	/experiments/knapen_aot/videos/S_pexels-mart-production-7277934.mp4	0.0	92.19135785102844	2.508301019668579
10	30.557759046554565	fix_post	2		12.0	8.0	2.5	/experiments/knapen_aot/videos/S_pexels-mart-production-7277934.mp4	0.0	94.69965887069702	0.0999751091003418
11	30.657734155654907	fix_pre	0		87.0	9.0	2.5	/experiments/knapen_aot/videos/S_yt-e9AZJKNv9ow_359.mp4	0.0	94.79963397979736	0.7249970436096191
11	31.374685049057007	response	0	2		9.0	2.5	/experiments/knapen_aot/videos/S_yt-e9AZJKNv9ow_359.mp4	0.0	95.51658487319946	
11	31.382731199264526	movie	1		301.0	9.0	2.5	/experiments/knapen_aot/videos/S_yt-e9AZJKNv9ow_359.mp4	0.0	95.52463102340698	2.50827693939209
11	33.891008138656616	fix_post	2		12.0	9.0	2.5	/experiments/knapen_aot/videos/S_yt-e9AZJKNv9ow_359.mp4	0.0	98.03290796279907	0.1000518798828125
12	33.99106001853943	fix_pre	0		64.0	10.0	2.5	/experiments/knapen_aot/videos/S_yt-0buqUbXVTn8_48.mp4	0.0	98.13295984268188	0.5333771705627441
12	34.51621198654175	response	0	2		10.0	2.5	/experiments/knapen_aot/videos/S_yt-0buqUbXVTn8_48.mp4	0.0	98.6581118106842	
12	34.52443718910217	movie	1		301.0	10.0	2.5	/experiments/knapen_aot/videos/S_yt-0buqUbXVTn8_48.mp4	0.0	98.66633701324463	2.508309841156006
12	37.03274703025818	fix_post	2		12.0	10.0	2.5	/experiments/knapen_aot/videos/S_yt-0buqUbXVTn8_48.mp4	0.0	101.17464685440063	0.09992694854736328
13	37.13267397880554	fix_pre	0		58.0	11.0	2.5	/experiments/knapen_aot/videos/S_comp_A006_C003_1219EE_CC_v01_SDR_PS_FINAL_20180709_SDR_2K_AVC.mp4	0.0	101.274573802948	0.48424315452575684
13	37.607800006866455	response	0	2		11.0	2.5	/experiments/knapen_aot/videos/S_comp_A006_C003_1219EE_CC_v01_SDR_PS_FINAL_20180709_SDR_2K_AVC.mp4	0.0	101.74969983100891	
13	37.6169171333313	movie	1		166.0	11.0	2.5	/experiments/knapen_aot/videos/S_comp_A006_C003_1219EE_CC_v01_SDR_PS_FINAL_20180709_SDR_2K_AVC.mp4	0.0	101.75881695747375	2.507351875305176
13	40.124269008636475	fix_post	2		12.0	11.0	2.5	/experiments/knapen_aot/videos/S_comp_A006_C003_1219EE_CC_v01_SDR_PS_FINAL_20180709_SDR_2K_AVC.mp4	0.0	104.26616883277893	0.10009908676147461
14	40.22436809539795	fix_pre	0		45.0	12.0	2.5	/experiments/knapen_aot/videos/S_pexels-anthony-shkraba-production-8135459.mp4	0.0	104.3662679195404	0.3749399185180664
14	40.59120297431946	response	0	2		12.0	2.5	/experiments/knapen_aot/videos/S_pexels-anthony-shkraba-production-8135459.mp4	0.0	104.73310279846191	
14	40.599308013916016	movie	1		167.0	12.0	2.5	/experiments/knapen_aot/videos/S_pexels-anthony-shkraba-production-8135459.mp4	0.0	104.74120783805847	2.508424997329712
14	43.10773301124573	fix_post	2		12.0	12.0	2.5	/experiments/knapen_aot/videos/S_pexels-anthony-shkraba-production-8135459.mp4	0.0	107.24963283538818	0.09995317459106445
15	43.20768618583679	fix_pre	0		159.0	13.0	2.5	blank	1.0	107.34958600997925	1.3258907794952393
15	44.52443313598633	response	0	2		13.0	2.5	blank	1.0	108.66633296012878	
15	44.53357696533203	movie	1		301.0	13.0	2.5	blank	1.0	108.67547678947449	2.5074610710144043
15	47.041038036346436	fix_post	2		12.0	13.0	2.5	blank	1.0	111.18293786048889	0.09996914863586426
16	47.1410071849823	fix_pre	0		63.0	14.0	2.5	/experiments/knapen_aot/videos/R_S_ILSVRC2015_train_00697001.mp4	0.0	111.28290700912476	0.5249497890472412
16	47.657772064208984	response	0	2		14.0	2.5	/experiments/knapen_aot/videos/R_S_ILSVRC2015_train_00697001.mp4	0.0	111.79967188835144	
16	47.66595697402954	movie	1		301.0	14.0	2.5	/experiments/knapen_aot/videos/R_S_ILSVRC2015_train_00697001.mp4	0.0	111.807856798172	2.5083200931549072
16	50.17427706718445	fix_post	2		12.0	14.0	2.5	/experiments/knapen_aot/videos/R_S_ILSVRC2015_train_00697001.mp4	0.0	114.3161768913269	0.10002493858337402
17	50.27430200576782	fix_pre	0		76.0	15.0	2.5	/experiments/knapen_aot/videos/S_yt-bOgChEHiroI_20.mp4	0.0	114.41620182991028	0.6341991424560547
17	50.899553060531616	response	0	2		15.0	2.5	/experiments/knapen_aot/videos/S_yt-bOgChEHiroI_20.mp4	0.0	115.04145288467407	
17	50.90850114822388	movie	1		301.0	15.0	2.5	/experiments/knapen_aot/videos/S_yt-bOgChEHiroI_20.mp4	0.0	115.05040097236633	2.5075478553771973
17	53.416049003601074	fix_post	2		12.0	15.0	2.5	/experiments/knapen_aot/videos/S_yt-bOgChEHiroI_20.mp4	0.0	117.55794882774353	0.09998703002929688
18	53.51603603363037	fix_pre	0		82.0	16.0	2.5	/experiments/knapen_aot/videos/R_S_comp_DB_D008_C010_PSNK_v21_SDR_PS_20180914_F0F16157_SDR_2K_AVC.mp4	0.0	117.65793585777283	0.6840851306915283
18	54.19116806983948	response	0	2		16.0	2.5	/experiments/knapen_aot/videos/R_S_comp_DB_D008_C010_PSNK_v21_SDR_PS_20180914_F0F16157_SDR_2K_AVC.mp4	0.0	118.33306789398193	
18	54.2001211643219	movie	1		170.0	16.0	2.5	/experiments/knapen_aot/videos/R_S_comp_DB_D008_C010_PSNK_v21_SDR_PS_20180914_F0F16157_SDR_2K_AVC.mp4	0.0	118.34202098846436	2.507558822631836
18	56.707679986953735	fix_post	2		12.0	16.0	2.5	/experiments/knapen_aot/videos/R_S_comp_DB_D008_C010_PSNK_v21_SDR_PS_20180914_F0F16157_SDR_2K_AVC.mp4	0.0	120.84957981109619	0.09995412826538086
19	56.807634115219116	fix_pre	0		68.0	17.0	2.5	/experiments/knapen_aot/videos/S_yt-jcuaf9iSEkI_169.mp4	0.0	120.94953393936157	0.5666689872741699
19	57.3661630153656	response	0	2		17.0	2.5	/experiments/knapen_aot/videos/S_yt-jcuaf9iSEkI_169.mp4	0.0	121.50806283950806	
19	57.374303102493286	movie	1		301.0	17.0	2.5	/experiments/knapen_aot/videos/S_yt-jcuaf9iSEkI_169.mp4	0.0	121.51620292663574	2.508354902267456
19	59.88265800476074	fix_post	2		12.0	17.0	2.5	/experiments/knapen_aot/videos/S_yt-jcuaf9iSEkI_169.mp4	0.0	124.0245578289032	0.10003304481506348
20	59.982691049575806	fix_pre	0		55.0	18.0	2.5	/experiments/knapen_aot/videos/S_yt-fnE8kgUHUMI_64.mp4	0.0	124.12459087371826	0.4583311080932617
20	60.432804107666016	response	0	2		18.0	2.5	/experiments/knapen_aot/videos/S_yt-fnE8kgUHUMI_64.mp4	0.0	124.57470393180847	
20	60.44102215766907	movie	1		301.0	18.0	2.5	/experiments/knapen_aot/videos/S_yt-fnE8kgUHUMI_64.mp4	0.0	124.58292198181152	2.508333921432495
20	62.94935607910156	fix_post	2		12.0	18.0	2.5	/experiments/knapen_aot/videos/S_yt-fnE8kgUHUMI_64.mp4	0.0	127.09125590324402	0.10001993179321289
21	63.049376010894775	fix_pre	0		69.0	19.0	2.5	/experiments/knapen_aot/videos/S_yt-Gc1p5CnDbDY_22.mp4	0.0	127.19127583503723	0.5749080181121826
21	63.61617302894592	response	0	2		19.0	2.5	/experiments/knapen_aot/videos/S_yt-Gc1p5CnDbDY_22.mp4	0.0	127.75807285308838	
21	63.62428402900696	movie	1		300.0	19.0	2.5	/experiments/knapen_aot/videos/S_yt-Gc1p5CnDbDY_22.mp4	0.0	127.76618385314941	2.508362054824829
21	66.13264608383179	fix_post	2		12.0	19.0	2.5	/experiments/knapen_aot/videos/S_yt-Gc1p5CnDbDY_22.mp4	0.0	130.27454590797424	0.10001707077026367
22	66.23266315460205	fix_pre	0		113.0	20.0	2.5	blank	1.0	130.3745629787445	0.9416289329528809
22	67.16614007949829	response	0	2		20.0	2.5	blank	1.0	131.30803990364075	
22	67.17429208755493	movie	1		301.0	20.0	2.5	blank	1.0	131.3161919116974	2.5083420276641846
22	69.68263411521912	fix_post	2		12.0	20.0	2.5	blank	1.0	133.82453393936157	0.09999394416809082
23	69.7826280593872	fix_pre	0		61.0	21.0	2.5	/experiments/knapen_aot/videos/R_S_yt-kRR0CluqaX4_130.mp4	0.0	133.92452788352966	0.5082910060882568
23	70.2827501296997	response	0	2		21.0	2.5	/experiments/knapen_aot/videos/R_S_yt-kRR0CluqaX4_130.mp4	0.0	134.42464995384216	
23	70.29091906547546	movie	1		301.0	21.0	2.5	/experiments/knapen_aot/videos/R_S_yt-kRR0CluqaX4_130.mp4	0.0	134.43281888961792	2.5083260536193848
23	72.79924511909485	fix_post	2		12.0	21.0	2.5	/experiments/knapen_aot/videos/R_S_yt-kRR0CluqaX4_130.mp4	0.0	136.9411449432373	0.1000220775604248
24	72.89926719665527	fix_pre	0		62.0	22.0	2.5	/experiments/knapen_aot/videos/R_S_yt-HwZFMTZ7Xko_35.mp4	0.0	137.04116702079773	0.5167129039764404
24	73.40783214569092	response	0	2		22.0	2.5	/experiments/knapen_aot/videos/R_S_yt-HwZFMTZ7Xko_35.mp4	0.0	137.54973196983337	
24	73.41598010063171	movie	1		300.0	22.0	2.5	/experiments/knapen_aot/videos/R_S_yt-HwZFMTZ7Xko_35.mp4	0.0	137.55787992477417	2.508297920227051
24	75.92427802085876	fix_post	2		12.0	22.0	2.5	/experiments/knapen_aot/videos/R_S_yt-HwZFMTZ7Xko_35.mp4	0.0	140.06617784500122	0.09996914863586426
25	76.02424716949463	fix_pre	0		54.0	23.0	2.5	/experiments/knapen_aot/videos/R_S_yt-XA6RBioito4_18.mp4	0.0	140.16614699363708	0.4499850273132324
25	76.4586009979248	response	0	2		23.0	2.5	/experiments/knapen_aot/videos/R_S_yt-XA6RBioito4_18.mp4	0.0	140.60050082206726	
25	76.47423219680786	movie	1		301.0	23.0	2.5	/experiments/knapen_aot/videos/R_S_yt-XA6RBioito4_18.mp4	0.0	140.61613202095032	2.5083529949188232
25	78.98258519172668	fix_post	2		12.0	23.0	2.5	/experiments/knapen_aot/videos/R_S_yt-XA6RBioito4_18.mp4	0.0	143.12448501586914	0.09999680519104004
26	79.08258199691772	fix_pre	0		64.0	24.0	2.5	/experiments/knapen_aot/videos/R_S_yt-Bx2kLEUuN0E_456.mp4	0.0	143.22448182106018	0.5339620113372803
26	79.60769605636597	response	0	2		24.0	2.5	/experiments/knapen_aot/videos/R_S_yt-Bx2kLEUuN0E_456.mp4	0.0	143.74959588050842	
26	79.616544008255	movie	1		301.0	24.0	2.5	/experiments/knapen_aot/videos/R_S_yt-Bx2kLEUuN0E_456.mp4	0.0	143.75844383239746	2.5077500343322754
26	82.12429404258728	fix_post	2		12.0	24.0	2.5	/experiments/knapen_aot/videos/R_S_yt-Bx2kLEUuN0E_456.mp4	0.0	146.26619386672974	0.100006103515625
27	82.2243001461029	fix_pre	0		47.0	25.0	2.5	/experiments/knapen_aot/videos/S_yt-9t5-3Qe_t9A_591.mp4	0.0	146.36619997024536	0.3922560214996338
27	82.60763311386108	response	0	2		25.0	2.5	/experiments/knapen_aot/videos/S_yt-9t5-3Qe_t9A_591.mp4	0.0	146.74953293800354	
27	82.61655616760254	movie	1		301.0	25.0	2.5	/experiments/knapen_aot/videos/S_yt-9t5-3Qe_t9A_591.mp4	0.0	146.758455991745	2.5076680183410645
27	85.1242241859436	fix_post	2		12.0	25.0	2.5	/experiments/knapen_aot/videos/S_yt-9t5-3Qe_t9A_591.mp4	0.0	149.26612401008606	0.09999489784240723
28	85.22421908378601	fix_pre	0		53.0	26.0	2.5	/experiments/knapen_aot/videos/S_yt-TvU-aYjNa2c_21.mp4	0.0	149.36611890792847	0.4415440559387207
28	85.6576681137085	response	0	2		26.0	2.5	/experiments/knapen_aot/videos/S_yt-TvU-aYjNa2c_21.mp4	0.0	149.79956793785095	
28	85.66576313972473	movie	1		301.0	26.0	2.5	/experiments/knapen_aot/videos/S_yt-TvU-aYjNa2c_21.mp4	0.0	149.8076629638672	2.5083348751068115
28	88.17409801483154	fix_post	2		12.0	26.0	2.5	/experiments/knapen_aot/videos/S_yt-TvU-aYjNa2c_21.mp4	0.0	152.315997838974	0.10009407997131348
29	88.27419209480286	fix_pre	0		109.0	27.0	2.5	blank	1.0	152.4160919189453	0.9082560539245605
29	89.17430400848389	response	0	2		27.0	2.5	blank	1.0	153.31620383262634	
29	89.18244814872742	movie	1		301.0	27.0	2.5	blank	1.0	153.32434797286987	2.508342981338501
29	91.69079113006592	fix_post	2		12.0	27.0	2.5	blank	1.0	155.83269095420837	0.10000896453857422
30	91.79080009460449	fix_pre	0		70.0	28.0	2.5	/experiments/knapen_aot/videos/S_yt-H3EadcgKySM_58.mp4	0.0	155.93269991874695	0.5833559036254883
30	92.36600112915039	response	0	2		28.0	2.5	/experiments/knapen_aot/videos/S_yt-H3EadcgKySM_58.mp4	0.0	156.50790095329285	
30	92.37415599822998	movie	1		301.0	28.0	2.5	/experiments/knapen_aot/videos/S_yt-H3EadcgKySM_58.mp4	0.0	156.51605582237244	2.5083301067352295
30	94.88248610496521	fix_post	2		12.0	28.0	2.5	/experiments/knapen_aot/videos/S_yt-H3EadcgKySM_58.mp4	0.0	159.02438592910767	0.10006594657897949
31	94.98255205154419	fix_pre	0		69.0	29.0	2.5	/experiments/knapen_aot/videos/R_S_yt-4rwBpRuHg-c_1308.mp4	0.0	159.12445187568665	0.5749080181121826
31	95.54932808876038	response	0	2		29.0	2.5	/experiments/knapen_aot/videos/R_S_yt-4rwBpRuHg-c_1308.mp4	0.0	159.69122791290283	
31	95.55746006965637	movie	1		300.0	29.0	2.5	/experiments/knapen_aot/videos/R_S_yt-4rwBpRuHg-c_1308.mp4	0.0	159.69935989379883	2.5083439350128174
31	98.06580400466919	fix_post	2		12.0	29.0	2.5	/experiments/knapen_aot/videos/R_S_yt-4rwBpRuHg-c_1308.mp4	0.0	162.20770382881165	0.09999608993530273
32	98.16580009460449	fix_pre	0		57.0	30.0	2.5	/experiments/knapen_aot/videos/R_S_yt-xqjVM0Vj4mI_161.mp4	0.0	162.30769991874695	0.4749889373779297
32	98.63264298439026	response	0	2		30.0	2.5	/experiments/knapen_aot/videos/R_S_yt-xqjVM0Vj4mI_161.mp4	0.0	162.77454280853271	
32	98.64078903198242	movie	1		301.0	30.0	2.5	/experiments/knapen_aot/videos/R_S_yt-xqjVM0Vj4mI_161.mp4	0.0	162.78268885612488	2.5082759857177734
32	101.1490650177002	fix_post	2		12.0	30.0	2.5	/experiments/knapen_aot/videos/R_S_yt-xqjVM0Vj4mI_161.mp4	0.0	165.29096484184265	0.10006117820739746
33	101.24912619590759	fix_pre	0		55.0	31.0	2.5	/experiments/knapen_aot/videos/R_S_yt-5ws2gxbcjs4_381.mp4	0.0	165.39102602005005	0.4583408832550049
33	101.69924116134644	response	0	2		31.0	2.5	/experiments/knapen_aot/videos/R_S_yt-5ws2gxbcjs4_381.mp4	0.0	165.8411409854889	
33	101.7074670791626	movie	1		301.0	31.0	2.5	/experiments/knapen_aot/videos/R_S_yt-5ws2gxbcjs4_381.mp4	0.0	165.84936690330505	2.508354902267456
33	104.21582198143005	fix_post	2		12.0	31.0	2.5	/experiments/knapen_aot/videos/R_S_yt-5ws2gxbcjs4_381.mp4	0.0	168.3577218055725	0.09999799728393555
34	104.31581997871399	fix_pre	0		44.0	32.0	2.5	/experiments/knapen_aot/videos/R_S_yt-9NV8zv2Sdq4_30.mp4	0.0	168.45771980285645	0.36664700508117676
34	104.66669702529907	response	0	2		32.0	2.5	/experiments/knapen_aot/videos/R_S_yt-9NV8zv2Sdq4_30.mp4	0.0	168.80859684944153	
34	104.68246698379517	movie	1		301.0	32.0	2.5	/experiments/knapen_aot/videos/R_S_yt-9NV8zv2Sdq4_30.mp4	0.0	168.82436680793762	2.508336067199707
34	107.19080305099487	fix_post	2		12.0	32.0	2.5	/experiments/knapen_aot/videos/R_S_yt-9NV8zv2Sdq4_30.mp4	0.0	171.33270287513733	0.09999608993530273
35	107.29079914093018	fix_pre	0		84.0	33.0	2.5	/experiments/knapen_aot/videos/R_S_yt-XA6RBioito4_18.mp4	0.0	171.43269896507263	0.7004990577697754
35	107.98262214660645	response	0	2		33.0	2.5	/experiments/knapen_aot/videos/R_S_yt-XA6RBioito4_18.mp4	0.0	172.1245219707489	
35	107.99129819869995	movie	1		301.0	33.0	2.5	/experiments/knapen_aot/videos/R_S_yt-XA6RBioito4_18.mp4	0.0	172.1331980228424	2.5078248977661133
35	110.49912309646606	fix_post	2		12.0	33.0	2.5	/experiments/knapen_aot/videos/R_S_yt-XA6RBioito4_18.mp4	0.0	174.64102292060852	0.1000208854675293
36	110.5991439819336	fix_pre	0		71.0	34.0	2.5	/experiments/knapen_aot/videos/S_yt--5ls65Ue1RA_52.mp4	0.0	174.74104380607605	0.5916450023651123
36	111.18258619308472	response	0	2		34.0	2.5	/experiments/knapen_aot/videos/S_yt--5ls65Ue1RA_52.mp4	0.0	175.32448601722717	
36	111.1907889842987	movie	1		299.0	34.0	2.5	/experiments/knapen_aot/videos/S_yt--5ls65Ue1RA_52.mp4	0.0	175.33268880844116	2.508291006088257
36	113.69907999038696	fix_post	2		12.0	34.0	2.5	/experiments/knapen_aot/videos/S_yt--5ls65Ue1RA_52.mp4	0.0	177.84097981452942	0.09999918937683105
37	113.7990791797638	fix_pre	0		134.0	35.0	2.5	blank	1.0	177.94097900390625	1.1166739463806152
37	114.90756511688232	response	0	2		35.0	2.5	blank	1.0	179.04946494102478	
37	114.91575312614441	movie	1		301.0	35.0	2.5	blank	1.0	179.05765295028687	2.5082590579986572
37	117.42401218414307	fix_post	2		12.0	35.0	2.5	blank	1.0	181.56591200828552	0.10003995895385742
38	117.52405214309692	fix_pre	0		76.0	36.0	2.5	/experiments/knapen_aot/videos/R_S_ILSVRC2015_train_00339001.mp4	0.0	181.66595196723938	0.6337869167327881
38	118.14918208122253	response	0	2		36.0	2.5	/experiments/knapen_aot/videos/R_S_ILSVRC2015_train_00339001.mp4	0.0	182.291081905365	
38	118.15783905982971	movie	1		301.0	36.0	2.5	/experiments/knapen_aot/videos/R_S_ILSVRC2015_train_00339001.mp4	0.0	182.29973888397217	2.507826089859009
38	120.66566514968872	fix_post	2		12.0	36.0	2.5	/experiments/knapen_aot/videos/R_S_ILSVRC2015_train_00339001.mp4	0.0	184.80756497383118	0.10003995895385742
39	120.76570510864258	fix_pre	0		187.0	37.0	2.5	/experiments/knapen_aot/videos/R_S_Pexels_Videos_2795731_1.mp4	0.0	184.90760493278503	1.5587539672851562
39	122.30840516090393	response	0	2		37.0	2.5	/experiments/knapen_aot/videos/R_S_Pexels_Videos_2795731_1.mp4	0.0	186.4503049850464	
39	122.32445907592773	movie	1		161.0	37.0	2.5	/experiments/knapen_aot/videos/R_S_Pexels_Videos_2795731_1.mp4	0.0	186.4663589000702	2.50787091255188
39	124.83232998847961	fix_post	2		12.0	37.0	2.5	/experiments/knapen_aot/videos/R_S_Pexels_Videos_2795731_1.mp4	0.0	188.97422981262207	0.09999513626098633
40	124.9323251247406	fix_pre	0		87.0	38.0	2.5	/experiments/knapen_aot/videos/S_yt-RNPFV7lgAvE_362.mp4	0.0	189.07422494888306	0.725456953048706
40	125.64918804168701	response	0	2		38.0	2.5	/experiments/knapen_aot/videos/S_yt-RNPFV7lgAvE_362.mp4	0.0	189.79108786582947	
40	125.6577820777893	movie	1		301.0	38.0	2.5	/experiments/knapen_aot/videos/S_yt-RNPFV7lgAvE_362.mp4	0.0	189.79968190193176	2.507798910140991
40	128.1655809879303	fix_post	2		12.0	38.0	2.5	/experiments/knapen_aot/videos/S_yt-RNPFV7lgAvE_362.mp4	0.0	192.30748081207275	0.10011100769042969
41	128.26569199562073	fix_pre	0		57.0	39.0	2.5	/experiments/knapen_aot/videos/R_S_yt-xCh0LI9VKeI_28.mp4	0.0	192.40759181976318	0.47538304328918457
41	128.7324390411377	response	0	2		39.0	2.5	/experiments/knapen_aot/videos/R_S_yt-xCh0LI9VKeI_28.mp4	0.0	192.87433886528015	
41	128.7410750389099	movie	1		301.0	39.0	2.5	/experiments/knapen_aot/videos/R_S_yt-xCh0LI9VKeI_28.mp4	0.0	192.88297486305237	2.507923126220703
41	131.24899816513062	fix_post	2		12.0	39.0	2.5	/experiments/knapen_aot/videos/R_S_yt-xCh0LI9VKeI_28.mp4	0.0	195.39089798927307	0.10008096694946289
42	131.34907913208008	fix_pre	0		67.0	40.0	2.5	/experiments/knapen_aot/videos/S_yt-tEzCpMrjOHs_24.mp4	0.0	195.49097895622253	0.5586550235748291
42	131.89168500900269	response	0	2		40.0	2.5	/experiments/knapen_aot/videos/S_yt-tEzCpMrjOHs_24.mp4	0.0	196.03358483314514	
42	131.9077341556549	movie	1		301.0	40.0	2.5	/experiments/knapen_aot/videos/S_yt-tEzCpMrjOHs_24.mp4	0.0	196.04963397979736	2.5079329013824463
42	134.41566705703735	fix_post	2		12.0	40.0	2.5	/experiments/knapen_aot/videos/S_yt-tEzCpMrjOHs_24.mp4	0.0	198.5575668811798	0.10001707077026367
43	134.51568412780762	fix_pre	0		47.0	41.0	2.5	/experiments/knapen_aot/videos/S_yt-d5jBQ-LOW2I_17.mp4	0.0	198.65758395195007	0.39198803901672363
43	134.89917612075806	response	0	2		41.0	2.5	/experiments/knapen_aot/videos/S_yt-d5jBQ-LOW2I_17.mp4	0.0	199.0410759449005	
43	134.90767216682434	movie	1		301.0	41.0	2.5	/experiments/knapen_aot/videos/S_yt-d5jBQ-LOW2I_17.mp4	0.0	199.0495719909668	2.5080058574676514
43	137.415678024292	fix_post	2		12.0	41.0	2.5	/experiments/knapen_aot/videos/S_yt-d5jBQ-LOW2I_17.mp4	0.0	201.55757784843445	0.09999299049377441
44	137.51567101478577	fix_pre	0		61.0	42.0	2.5	blank	1.0	201.65757083892822	0.5082540512084961
44	138.0083510875702	response	0	2		42.0	2.5	blank	1.0	202.15025091171265	
44	138.02392506599426	movie	1		301.0	42.0	2.5	blank	1.0	202.16582489013672	2.508358955383301
44	140.53228402137756	fix_post	2		12.0	42.0	2.5	blank	1.0	204.67418384552002	0.09996414184570312
45	140.63224816322327	fix_pre	0		79.0	43.0	2.5	/experiments/knapen_aot/videos/S_X-D3lUv-atE_376.mp4	0.0	204.77414798736572	0.6583559513092041
45	141.27498412132263	response	0	2		43.0	2.5	/experiments/knapen_aot/videos/S_X-D3lUv-atE_376.mp4	0.0	205.4168839454651	
45	141.29060411453247	movie	1		301.0	43.0	2.5	/experiments/knapen_aot/videos/S_X-D3lUv-atE_376.mp4	0.0	205.43250393867493	2.508347988128662
45	143.79895210266113	fix_post	2		12.0	43.0	2.5	/experiments/knapen_aot/videos/S_X-D3lUv-atE_376.mp4	0.0	207.9408519268036	0.1002190113067627
46	143.8991711139679	fix_pre	0		85.0	44.0	2.5	/experiments/knapen_aot/videos/R_S_yt-bH4nJibL4Jo_164.mp4	0.0	208.04107093811035	0.7081198692321777
46	144.59911608695984	response	0	2		44.0	2.5	/experiments/knapen_aot/videos/R_S_yt-bH4nJibL4Jo_164.mp4	0.0	208.7410159111023	
46	144.60729098320007	movie	1		301.0	44.0	2.5	/experiments/knapen_aot/videos/R_S_yt-bH4nJibL4Jo_164.mp4	0.0	208.74919080734253	2.508273124694824
46	147.1155641078949	fix_post	2		12.0	44.0	2.5	/experiments/knapen_aot/videos/R_S_yt-bH4nJibL4Jo_164.mp4	0.0	211.25746393203735	0.10009908676147461
47	147.21566319465637	fix_pre	0		53.0	45.0	2.5	/experiments/knapen_aot/videos/R_S_comp_A006_C003_1219EE_CC_v01_SDR_PS_FINAL_20180709_SDR_2K_AVC.mp4	0.0	211.35756301879883	0.44191980361938477
47	147.649080991745	response	0	2		45.0	2.5	/experiments/knapen_aot/videos/R_S_comp_A006_C003_1219EE_CC_v01_SDR_PS_FINAL_20180709_SDR_2K_AVC.mp4	0.0	211.79098081588745	
47	147.65758299827576	movie	1		170.0	45.0	2.5	/experiments/knapen_aot/videos/R_S_comp_A006_C003_1219EE_CC_v01_SDR_PS_FINAL_20180709_SDR_2K_AVC.mp4	0.0	211.7994828224182	2.508047103881836
47	150.1656301021576	fix_post	2		12.0	45.0	2.5	/experiments/knapen_aot/videos/R_S_comp_A006_C003_1219EE_CC_v01_SDR_PS_FINAL_20180709_SDR_2K_AVC.mp4	0.0	214.30752992630005	0.10002708435058594
48	150.26565718650818	fix_pre	0		64.0	46.0	2.5	/experiments/knapen_aot/videos/R_S_yt-M_ApPnq00iE_67.mp4	0.0	214.40755701065063	0.5331988334655762
48	150.79073905944824	response	0	2		46.0	2.5	/experiments/knapen_aot/videos/R_S_yt-M_ApPnq00iE_67.mp4	0.0	214.9326388835907	
48	150.79885601997375	movie	1		301.0	46.0	2.5	/experiments/knapen_aot/videos/R_S_yt-M_ApPnq00iE_67.mp4	0.0	214.9407558441162	2.5084409713745117
48	153.30729699134827	fix_post	2		12.0	46.0	2.5	/experiments/knapen_aot/videos/R_S_yt-M_ApPnq00iE_67.mp4	0.0	217.44919681549072	0.10031414031982422
49	153.4076111316681	fix_pre	0		66.0	47.0	2.5	/experiments/knapen_aot/videos/R_S_yt-QJ2k6vA8aco_12.mp4	0.0	217.54951095581055	0.5495970249176025
49	153.9490921497345	response	0	2		47.0	2.5	/experiments/knapen_aot/videos/R_S_yt-QJ2k6vA8aco_12.mp4	0.0	218.09099197387695	
49	153.9572081565857	movie	1		301.0	47.0	2.5	/experiments/knapen_aot/videos/R_S_yt-QJ2k6vA8aco_12.mp4	0.0	218.09910798072815	2.508396863937378
49	156.46560502052307	fix_post	2		12.0	47.0	2.5	/experiments/knapen_aot/videos/R_S_yt-QJ2k6vA8aco_12.mp4	0.0	220.60750484466553	0.0999901294708252
50	156.5655951499939	fix_pre	0		58.0	48.0	2.5	blank	1.0	220.70749497413635	0.48322582244873047
50	157.04075813293457	response	0	2		48.0	2.5	blank	1.0	221.18265795707703	
50	157.04882097244263	movie	1		301.0	48.0	2.5	blank	1.0	221.19072079658508	2.50829815864563
50	159.55711913108826	fix_post	2		12.0	48.0	2.5	blank	1.0	223.6990189552307	0.10035586357116699
51	159.65747499465942	fix_pre	0		58.0	49.0	2.5	/experiments/knapen_aot/videos/S_video.mp4	0.0	223.79937481880188	0.4830300807952881
51	160.1323139667511	response	0	2		49.0	2.5	/experiments/knapen_aot/videos/S_video.mp4	0.0	224.27421379089355	
51	160.1405050754547	movie	1		166.0	49.0	2.5	/experiments/knapen_aot/videos/S_video.mp4	0.0	224.28240489959717	2.508441925048828
51	162.64894700050354	fix_post	2		12.0	49.0	2.5	/experiments/knapen_aot/videos/S_video.mp4	0.0	226.790846824646	0.09992408752441406
52	162.74887108802795	fix_pre	0		43.0	50.0	2.5	/experiments/knapen_aot/videos/S_yt-M8wvzt_BMXM_173.mp4	0.0	226.8907709121704	0.35836291313171387
52	163.09906101226807	response	0	2		50.0	2.5	/experiments/knapen_aot/videos/S_yt-M8wvzt_BMXM_173.mp4	0.0	227.24096083641052	
52	163.10723400115967	movie	1		301.0	50.0	2.5	/experiments/knapen_aot/videos/S_yt-M8wvzt_BMXM_173.mp4	0.0	227.24913382530212	2.508592128753662
52	165.61582612991333	fix_post	2		12.0	50.0	2.5	/experiments/knapen_aot/videos/S_yt-M8wvzt_BMXM_173.mp4	0.0	229.7577259540558	0.09971404075622559
53	165.71554017066956	fix_pre	0		48.0	51.0	2.5	/experiments/knapen_aot/videos/S_yt-wVMhACNFF-M_154.mp4	0.0	229.857439994812	0.4002528190612793
53	166.1073920726776	response	0	2		51.0	2.5	/experiments/knapen_aot/videos/S_yt-wVMhACNFF-M_154.mp4	0.0	230.24929189682007	
53	166.11579298973083	movie	1		301.0	51.0	2.5	/experiments/knapen_aot/videos/S_yt-wVMhACNFF-M_154.mp4	0.0	230.2576928138733	2.508057117462158
53	168.623850107193	fix_post	2		12.0	51.0	2.5	/experiments/knapen_aot/videos/S_yt-wVMhACNFF-M_154.mp4	0.0	232.76574993133545	0.09995698928833008
54	168.72380709648132	fix_pre	0		56.0	52.0	2.5	/experiments/knapen_aot/videos/R_S_yt-uT4MXm0UBJM_64.mp4	0.0	232.86570692062378	0.46669888496398926
54	169.18235301971436	response	0	2		52.0	2.5	/experiments/knapen_aot/videos/R_S_yt-uT4MXm0UBJM_64.mp4	0.0	233.3242528438568	
54	169.1905059814453	movie	1		301.0	52.0	2.5	/experiments/knapen_aot/videos/R_S_yt-uT4MXm0UBJM_64.mp4	0.0	233.33240580558777	2.5085270404815674
54	171.69903302192688	fix_post	2		12.0	52.0	2.5	/experiments/knapen_aot/videos/R_S_yt-uT4MXm0UBJM_64.mp4	0.0	235.84093284606934	0.0997610092163086
55	171.7987940311432	fix_pre	0		46.0	53.0	2.5	/experiments/knapen_aot/videos/R_S_yt-9Q7SZR0mgMA_155.mp4	0.0	235.94069385528564	0.3833911418914795
55	172.16660118103027	response	0	2		53.0	2.5	/experiments/knapen_aot/videos/R_S_yt-9Q7SZR0mgMA_155.mp4	0.0	236.30850100517273	
55	172.18218517303467	movie	1		301.0	53.0	2.5	/experiments/knapen_aot/videos/R_S_yt-9Q7SZR0mgMA_155.mp4	0.0	236.32408499717712	2.50827693939209
55	174.69046211242676	fix_post	2		12.0	53.0	2.5	/experiments/knapen_aot/videos/R_S_yt-9Q7SZR0mgMA_155.mp4	0.0	238.8323619365692	0.1000208854675293
56	174.7904829978943	fix_pre	0		67.0	54.0	2.5	/experiments/knapen_aot/videos/S_yt-2IxVZeiSv3g_28.mp4	0.0	238.93238282203674	0.558243989944458
56	175.34066104888916	response	0	2		54.0	2.5	/experiments/knapen_aot/videos/S_yt-2IxVZeiSv3g_28.mp4	0.0	239.48256087303162	
56	175.34872698783875	movie	1		301.0	54.0	2.5	/experiments/knapen_aot/videos/S_yt-2IxVZeiSv3g_28.mp4	0.0	239.4906268119812	2.508571147918701
56	177.85729813575745	fix_post	2		12.0	54.0	2.5	/experiments/knapen_aot/videos/S_yt-2IxVZeiSv3g_28.mp4	0.0	241.9991979598999	0.09985184669494629
57	177.9571499824524	fix_pre	0		60.0	55.0	2.5	blank	1.0	242.09904980659485	0.4999840259552002
57	178.44893407821655	response	0	2		55.0	2.5	blank	1.0	242.590833902359	
57	178.4571340084076	movie	1		301.0	55.0	2.5	blank	1.0	242.59903383255005	2.5083491802215576
57	180.96548318862915	fix_post	2		12.0	55.0	2.5	blank	1.0	245.1073830127716	0.09989190101623535
58	181.06537508964539	fix_pre	0		56.0	56.0	2.5	/experiments/knapen_aot/videos/S_yt-T7RmOAme5dU_213.mp4	0.0	245.20727491378784	0.4668710231781006
58	181.5238800048828	response	0	2		56.0	2.5	/experiments/knapen_aot/videos/S_yt-T7RmOAme5dU_213.mp4	0.0	245.66577982902527	
58	181.5322461128235	movie	1		301.0	56.0	2.5	/experiments/knapen_aot/videos/S_yt-T7RmOAme5dU_213.mp4	0.0	245.67414593696594	2.5081770420074463
58	184.04042315483093	fix_post	2		12.0	56.0	2.5	/experiments/knapen_aot/videos/S_yt-T7RmOAme5dU_213.mp4	0.0	248.1823229789734	0.1000218391418457
59	184.14044499397278	fix_pre	0		62.0	57.0	2.5	/experiments/knapen_aot/videos/S_yt-pO5SVq-9EhU_114.mp4	0.0	248.28234481811523	0.5167670249938965
59	184.64896416664124	response	0	2		57.0	2.5	/experiments/knapen_aot/videos/S_yt-pO5SVq-9EhU_114.mp4	0.0	248.7908639907837	
59	184.65721201896667	movie	1		301.0	57.0	2.5	/experiments/knapen_aot/videos/S_yt-pO5SVq-9EhU_114.mp4	0.0	248.79911184310913	2.5081839561462402
59	187.16539597511292	fix_post	2		12.0	57.0	2.5	/experiments/knapen_aot/videos/S_yt-pO5SVq-9EhU_114.mp4	0.0	251.30729579925537	0.1000821590423584
60	187.26547813415527	fix_pre	0		63.0	58.0	2.5	/experiments/knapen_aot/videos/R_S_pexels-sora-shimazaki-5925295.mp4	0.0	251.40737795829773	0.5249340534210205
60	187.7747881412506	response	0	2		58.0	2.5	/experiments/knapen_aot/videos/R_S_pexels-sora-shimazaki-5925295.mp4	0.0	251.91668796539307	
60	187.7904121875763	movie	1		163.0	58.0	2.5	/experiments/knapen_aot/videos/R_S_pexels-sora-shimazaki-5925295.mp4	0.0	251.93231201171875	2.508373975753784
60	190.29878616333008	fix_post	2		12.0	58.0	2.5	/experiments/knapen_aot/videos/R_S_pexels-sora-shimazaki-5925295.mp4	0.0	254.44068598747253	0.10000395774841309
61	190.3987901210785	fix_pre	0		57.0	59.0	2.5	/experiments/knapen_aot/videos/R_S_yt-pO5SVq-9EhU_114.mp4	0.0	254.54068994522095	0.4749419689178467
61	190.86558318138123	response	0	2		59.0	2.5	/experiments/knapen_aot/videos/R_S_yt-pO5SVq-9EhU_114.mp4	0.0	255.00748300552368	
61	190.87373208999634	movie	1		300.0	59.0	2.5	/experiments/knapen_aot/videos/R_S_yt-pO5SVq-9EhU_114.mp4	0.0	255.0156319141388	2.508331060409546
61	193.38206315040588	fix_post	2		12.0	59.0	2.5	/experiments/knapen_aot/videos/R_S_yt-pO5SVq-9EhU_114.mp4	0.0	257.52396297454834	0.09998893737792969
62	193.4820520877838	fix_pre	0		63.0	60.0	2.5	/experiments/knapen_aot/videos/R_S_yt-tEzCpMrjOHs_24.mp4	0.0	257.62395191192627	0.5249810218811035
62	193.99893617630005	response	0	2		60.0	2.5	/experiments/knapen_aot/videos/R_S_yt-tEzCpMrjOHs_24.mp4	0.0	258.1408360004425	
62	194.00703310966492	movie	1		301.0	60.0	2.5	/experiments/knapen_aot/videos/R_S_yt-tEzCpMrjOHs_24.mp4	0.0	258.1489329338074	2.508341073989868
62	196.51537418365479	fix_post	2		12.0	60.0	2.5	/experiments/knapen_aot/videos/R_S_yt-tEzCpMrjOHs_24.mp4	0.0	260.65727400779724	0.10008478164672852
63	196.6154589653015	fix_pre	0		46.0	61.0	2.5	/experiments/knapen_aot/videos/R_S_yt-MTo50ReVNmU_2.mp4	0.0	260.75735878944397	0.383242130279541
63	196.9905560016632	response	0	2		61.0	2.5	/experiments/knapen_aot/videos/R_S_yt-MTo50ReVNmU_2.mp4	0.0	261.13245582580566	
63	196.99870109558105	movie	1		301.0	61.0	2.5	/experiments/knapen_aot/videos/R_S_yt-MTo50ReVNmU_2.mp4	0.0	261.1406009197235	2.5083069801330566
63	199.5070080757141	fix_post	2		12.0	61.0	2.5	/experiments/knapen_aot/videos/R_S_yt-MTo50ReVNmU_2.mp4	0.0	263.64890789985657	0.10002899169921875
64	199.60703706741333	fix_pre	0		50.0	62.0	2.5	blank	1.0	263.7489368915558	0.4166851043701172
64	200.01552414894104	response	0	2		62.0	2.5	blank	1.0	264.1574239730835	
64	200.02372217178345	movie	1		301.0	62.0	2.5	blank	1.0	264.1656219959259	2.508370876312256
64	202.5320930480957	fix_post	2		12.0	62.0	2.5	blank	1.0	266.67399287223816	0.09998202323913574
65	202.63207507133484	fix_pre	0		52.0	63.0	2.5	/experiments/knapen_aot/videos/R_S_comp_GMT308_139K_142NC_CARIBBEAN_DAY_v09_SDR_FINAL_22062018_SDR_2K_AVC.mp4	0.0	266.7739748954773	0.4347419738769531
65	203.05734610557556	response	0	2		63.0	2.5	/experiments/knapen_aot/videos/R_S_comp_GMT308_139K_142NC_CARIBBEAN_DAY_v09_SDR_FINAL_22062018_SDR_2K_AVC.mp4	0.0	267.199245929718	
65	203.0668170452118	movie	1		169.0	63.0	2.5	/experiments/knapen_aot/videos/R_S_comp_GMT308_139K_142NC_CARIBBEAN_DAY_v09_SDR_FINAL_22062018_SDR_2K_AVC.mp4	0.0	267.20871686935425	2.506955146789551
65	205.57377219200134	fix_post	2		12.0	63.0	2.5	/experiments/knapen_aot/videos/R_S_comp_GMT308_139K_142NC_CARIBBEAN_DAY_v09_SDR_FINAL_22062018_SDR_2K_AVC.mp4	0.0	269.7156720161438	0.09990978240966797
66	205.673681974411	fix_pre	0		69.0	64.0	2.5	/experiments/knapen_aot/videos/S_yt-5rC42egLl5E_387.mp4	0.0	269.81558179855347	0.5750319957733154
66	206.24053406715393	response	0	2		64.0	2.5	/experiments/knapen_aot/videos/S_yt-5rC42egLl5E_387.mp4	0.0	270.3824338912964	
66	206.24871397018433	movie	1		301.0	64.0	2.5	/experiments/knapen_aot/videos/S_yt-5rC42egLl5E_387.mp4	0.0	270.3906137943268	2.508333206176758
66	208.75704717636108	fix_post	2		12.0	64.0	2.5	/experiments/knapen_aot/videos/S_yt-5rC42egLl5E_387.mp4	0.0	272.89894700050354	0.09990787506103516
67	208.85695505142212	fix_pre	0		63.0	65.0	2.5	/experiments/knapen_aot/videos/S_yt-1XfKrSmjtl4_443.mp4	0.0	272.9988548755646	0.5250980854034424
67	209.37385511398315	response	0	2		65.0	2.5	/experiments/knapen_aot/videos/S_yt-1XfKrSmjtl4_443.mp4	0.0	273.5157549381256	
67	209.38205313682556	movie	1		301.0	65.0	2.5	/experiments/knapen_aot/videos/S_yt-1XfKrSmjtl4_443.mp4	0.0	273.523952960968	2.508312940597534
67	211.8903660774231	fix_post	2		12.0	65.0	2.5	/experiments/knapen_aot/videos/S_yt-1XfKrSmjtl4_443.mp4	0.0	276.03226590156555	0.09993791580200195
68	211.9903039932251	fix_pre	0		52.0	66.0	2.5	/experiments/knapen_aot/videos/R_S_ILSVRC2015_train_00538000.mp4	0.0	276.13220381736755	0.4333829879760742
68	212.41544318199158	response	0	2		66.0	2.5	/experiments/knapen_aot/videos/R_S_ILSVRC2015_train_00538000.mp4	0.0	276.55734300613403	
68	212.42368698120117	movie	1		301.0	66.0	2.5	/experiments/knapen_aot/videos/R_S_ILSVRC2015_train_00538000.mp4	0.0	276.5655868053436	2.5083301067352295
68	214.9320170879364	fix_post	2		12.0	66.0	2.5	/experiments/knapen_aot/videos/R_S_ILSVRC2015_train_00538000.mp4	0.0	279.07391691207886	0.09993195533752441
69	215.03194904327393	fix_pre	0		57.0	67.0	2.5	/experiments/knapen_aot/videos/S_yt-fnE8kgUHUMI_64.mp4	0.0	279.1738488674164	0.4750380516052246
69	215.49883198738098	response	0	2		67.0	2.5	/experiments/knapen_aot/videos/S_yt-fnE8kgUHUMI_64.mp4	0.0	279.64073181152344	
69	215.50698709487915	movie	1		301.0	67.0	2.5	/experiments/knapen_aot/videos/S_yt-fnE8kgUHUMI_64.mp4	0.0	279.6488869190216	2.5082850456237793
69	218.01527214050293	fix_post	2		12.0	67.0	2.5	/experiments/knapen_aot/videos/S_yt-fnE8kgUHUMI_64.mp4	0.0	282.1571719646454	0.1000978946685791
70	218.1153700351715	fix_pre	0		44.0	68.0	2.5	/experiments/knapen_aot/videos/R_S_yt-Gc1p5CnDbDY_22.mp4	0.0	282.25726985931396	0.3679690361022949
70	218.4662811756134	response	0	2		68.0	2.5	/experiments/knapen_aot/videos/R_S_yt-Gc1p5CnDbDY_22.mp4	0.0	282.60818099975586	
70	218.4833390712738	movie	1		301.0	68.0	2.5	/experiments/knapen_aot/videos/R_S_yt-Gc1p5CnDbDY_22.mp4	0.0	282.62523889541626	2.506927013397217
70	220.99026608467102	fix_post	2		12.0	68.0	2.5	/experiments/knapen_aot/videos/R_S_yt-Gc1p5CnDbDY_22.mp4	0.0	285.1321659088135	0.10001897811889648
71	221.09028506278992	fix_pre	0		46.0	69.0	2.5	/experiments/knapen_aot/videos/S_yt-mWlx1SIXl5M_850.mp4	0.0	285.2321848869324	0.38334012031555176
71	221.4654359817505	response	0	2		69.0	2.5	/experiments/knapen_aot/videos/S_yt-mWlx1SIXl5M_850.mp4	0.0	285.60733580589294	
71	221.47362518310547	movie	1		301.0	69.0	2.5	/experiments/knapen_aot/videos/S_yt-mWlx1SIXl5M_850.mp4	0.0	285.6155250072479	2.5083909034729004
71	223.98201608657837	fix_post	2		12.0	69.0	2.5	/experiments/knapen_aot/videos/S_yt-mWlx1SIXl5M_850.mp4	0.0	288.1239159107208	0.09999203681945801
72	224.08200812339783	fix_pre	0		49.0	70.0	2.5	blank	1.0	288.2239079475403	0.40825986862182617
72	224.48210906982422	response	0	2		70.0	2.5	blank	1.0	288.6240088939667	
72	224.49026799201965	movie	1		301.0	70.0	2.5	blank	1.0	288.6321678161621	2.508463144302368
72	226.99873113632202	fix_post	2		12.0	70.0	2.5	blank	1.0	291.1406309604645	0.09991788864135742
73	227.09864902496338	fix_pre	0		64.0	71.0	2.5	/experiments/knapen_aot/videos/S_yt-kRR0CluqaX4_130.mp4	0.0	291.24054884910583	0.533257007598877
73	227.62370920181274	response	0	2		71.0	2.5	/experiments/knapen_aot/videos/S_yt-kRR0CluqaX4_130.mp4	0.0	291.7656090259552	
73	227.63190603256226	movie	1		301.0	71.0	2.5	/experiments/knapen_aot/videos/S_yt-kRR0CluqaX4_130.mp4	0.0	291.7738058567047	2.5084190368652344
73	230.1403250694275	fix_post	2		12.0	71.0	2.5	/experiments/knapen_aot/videos/S_yt-kRR0CluqaX4_130.mp4	0.0	294.28222489356995	0.09993505477905273
74	230.24026012420654	fix_pre	0		72.0	72.0	2.5	/experiments/knapen_aot/videos/R_S_yt-M_ApPnq00iE_67.mp4	0.0	294.382159948349	0.5999770164489746
74	230.83207416534424	response	0	2		72.0	2.5	/experiments/knapen_aot/videos/R_S_yt-M_ApPnq00iE_67.mp4	0.0	294.9739739894867	
74	230.84023714065552	movie	1		301.0	72.0	2.5	/experiments/knapen_aot/videos/R_S_yt-M_ApPnq00iE_67.mp4	0.0	294.982136964798	2.508405923843384
74	233.3486430644989	fix_post	2		12.0	72.0	2.5	/experiments/knapen_aot/videos/R_S_yt-M_ApPnq00iE_67.mp4	0.0	297.49054288864136	0.09996700286865234
75	233.44861006736755	fix_pre	0		56.0	73.0	2.5	/experiments/knapen_aot/videos/R_S_ILSVRC2015_train_00654000.mp4	0.0	297.59050989151	0.4666249752044678
75	233.90720510482788	response	0	2		73.0	2.5	/experiments/knapen_aot/videos/R_S_ILSVRC2015_train_00654000.mp4	0.0	298.04910492897034	
75	233.91523504257202	movie	1		301.0	73.0	2.5	/experiments/knapen_aot/videos/R_S_ILSVRC2015_train_00654000.mp4	0.0	298.0571348667145	2.508327007293701
75	236.42356204986572	fix_post	2		12.0	73.0	2.5	/experiments/knapen_aot/videos/R_S_ILSVRC2015_train_00654000.mp4	0.0	300.5654618740082	0.10001897811889648
76	236.52358102798462	fix_pre	0		47.0	74.0	2.5	/experiments/knapen_aot/videos/R_S_yt-J-tkAYy40uY_84.mp4	0.0	300.6654808521271	0.39160609245300293
76	236.90704607963562	response	0	2		74.0	2.5	/experiments/knapen_aot/videos/R_S_yt-J-tkAYy40uY_84.mp4	0.0	301.0489459037781	
76	236.91518712043762	movie	1		300.0	74.0	2.5	/experiments/knapen_aot/videos/R_S_yt-J-tkAYy40uY_84.mp4	0.0	301.0570869445801	2.5083508491516113
76	239.42353796958923	fix_post	2		12.0	74.0	2.5	/experiments/knapen_aot/videos/R_S_yt-J-tkAYy40uY_84.mp4	0.0	303.5654377937317	0.10003900527954102
77	239.52357697486877	fix_pre	0		60.0	75.0	2.5	/experiments/knapen_aot/videos/S_production_ID_4765899.mp4	0.0	303.66547679901123	0.5012030601501465
77	240.01535606384277	response	0	2		75.0	2.5	/experiments/knapen_aot/videos/S_production_ID_4765899.mp4	0.0	304.15725588798523	
77	240.02478003501892	movie	1		167.0	75.0	2.5	/experiments/knapen_aot/videos/S_production_ID_4765899.mp4	0.0	304.1666798591614	2.5071840286254883
77	242.5319640636444	fix_post	2		12.0	75.0	2.5	/experiments/knapen_aot/videos/S_production_ID_4765899.mp4	0.0	306.67386388778687	0.09998106956481934
78	242.63194513320923	fix_pre	0		108.0	76.0	2.5	/experiments/knapen_aot/videos/S_yt-Dwgpjoikt84_122.mp4	0.0	306.7738449573517	0.8999879360198975
78	243.52376508712769	response	0	2		76.0	2.5	/experiments/knapen_aot/videos/S_yt-Dwgpjoikt84_122.mp4	0.0	307.66566491127014	
78	243.53193306922913	movie	1		301.0	76.0	2.5	/experiments/knapen_aot/videos/S_yt-Dwgpjoikt84_122.mp4	0.0	307.6738328933716	2.5082759857177734
78	246.0402090549469	fix_post	2		12.0	76.0	2.5	/experiments/knapen_aot/videos/S_yt-Dwgpjoikt84_122.mp4	0.0	310.18210887908936	0.10002994537353516
79	246.14023900032043	fix_pre	0		63.0	77.0	2.5	blank	1.0	310.2821388244629	0.5249350070953369
79	246.65699410438538	response	0	2		77.0	2.5	blank	1.0	310.79889392852783	
79	246.66517400741577	movie	1		301.0	77.0	2.5	blank	1.0	310.8070738315582	2.5083811283111572
79	249.17355513572693	fix_post	2		12.0	77.0	2.5	blank	1.0	313.3154549598694	0.0999610424041748
80	249.2735161781311	fix_pre	0		62.0	78.0	2.5	/experiments/knapen_aot/videos/S_yt-VinOD6g7xEc_135.mp4	0.0	313.41541600227356	0.5166788101196289
80	249.78211402893066	response	0	2		78.0	2.5	/experiments/knapen_aot/videos/S_yt-VinOD6g7xEc_135.mp4	0.0	313.9240138530731	
80	249.79019498825073	movie	1		301.0	78.0	2.5	/experiments/knapen_aot/videos/S_yt-VinOD6g7xEc_135.mp4	0.0	313.9320948123932	2.508258104324341
80	252.29845309257507	fix_post	2		12.0	78.0	2.5	/experiments/knapen_aot/videos/S_yt-VinOD6g7xEc_135.mp4	0.0	316.44035291671753	0.10005497932434082
81	252.3985080718994	fix_pre	0		58.0	79.0	2.5	/experiments/knapen_aot/videos/R_S_ILnEDG_aP1A_35.mp4	0.0	316.54040789604187	0.4833409786224365
81	252.87367510795593	response	0	2		79.0	2.5	/experiments/knapen_aot/videos/R_S_ILnEDG_aP1A_35.mp4	0.0	317.0155749320984	
81	252.88184905052185	movie	1		301.0	79.0	2.5	/experiments/knapen_aot/videos/R_S_ILnEDG_aP1A_35.mp4	0.0	317.0237488746643	2.5083401203155518
81	255.3901891708374	fix_post	2		12.0	79.0	2.5	/experiments/knapen_aot/videos/R_S_ILnEDG_aP1A_35.mp4	0.0	319.53208899497986	0.09998202323913574
82	255.49017119407654	fix_pre	0		93.0	80.0	2.5	/experiments/knapen_aot/videos/R_S_yt-8vm83GUgYxI_1.mp4	0.0	319.632071018219	0.7749969959259033
82	256.2569591999054	response	0	2		80.0	2.5	/experiments/knapen_aot/videos/R_S_yt-8vm83GUgYxI_1.mp4	0.0	320.39885902404785	
82	256.26516819000244	movie	1		301.0	80.0	2.5	/experiments/knapen_aot/videos/R_S_yt-8vm83GUgYxI_1.mp4	0.0	320.4070680141449	2.508410930633545
82	258.773579120636	fix_post	2		12.0	80.0	2.5	/experiments/knapen_aot/videos/R_S_yt-8vm83GUgYxI_1.mp4	0.0	322.91547894477844	0.09996199607849121
83	258.8735411167145	fix_pre	0		65.0	81.0	2.5	/experiments/knapen_aot/videos/R_S_comp_A351_C001_v06_SDR_PS_20180725_SDR_2K_AVC.mp4	0.0	323.01544094085693	0.5416419506072998
83	259.4069311618805	response	0	2		81.0	2.5	/experiments/knapen_aot/videos/R_S_comp_A351_C001_v06_SDR_PS_20180725_SDR_2K_AVC.mp4	0.0	323.54883098602295	
83	259.4151830673218	movie	1		166.0	81.0	2.5	/experiments/knapen_aot/videos/R_S_comp_A351_C001_v06_SDR_PS_20180725_SDR_2K_AVC.mp4	0.0	323.55708289146423	2.5082759857177734
83	261.92345905303955	fix_post	2		12.0	81.0	2.5	/experiments/knapen_aot/videos/R_S_comp_A351_C001_v06_SDR_PS_20180725_SDR_2K_AVC.mp4	0.0	326.065358877182	0.1000370979309082
84	262.02349615097046	fix_pre	0		85.0	82.0	2.5	/experiments/knapen_aot/videos/S_ILSVRC2015_train_00654000.mp4	0.0	326.1653959751129	0.7094130516052246
84	262.71603417396545	response	0	2		82.0	2.5	/experiments/knapen_aot/videos/S_ILSVRC2015_train_00654000.mp4	0.0	326.8579339981079	
84	262.7329092025757	movie	1		301.0	82.0	2.5	/experiments/knapen_aot/videos/S_ILSVRC2015_train_00654000.mp4	0.0	326.87480902671814	2.5072438716888428
84	265.2401530742645	fix_post	2		12.0	82.0	2.5	/experiments/knapen_aot/videos/S_ILSVRC2015_train_00654000.mp4	0.0	329.382052898407	0.10000395774841309
85	265.34015703201294	fix_pre	0		68.0	83.0	2.5	blank	1.0	329.4820568561554	0.5666289329528809
85	265.89855003356934	response	0	2		83.0	2.5	blank	1.0	330.0404498577118	
85	265.9067859649658	movie	1		301.0	83.0	2.5	blank	1.0	330.0486857891083	2.5083441734313965
85	268.4151301383972	fix_post	2		12.0	83.0	2.5	blank	1.0	332.5570299625397	0.10001206398010254
87	268.5151422023773	stim	0		139.0					332.6570420265198	1.1582088470458984
87	269.6683931350708	response	0	space						333.81029295921326	
