trial_nr	onset	event_type	phase	response	nr_frames	movie_index	movie_duration	movie_file	blank	onset_abs	duration
0	0.1326889991760254	stim	0		28.0					59.90539503097534	0.23510193824768066
0	0.3509178161621094	response	0	space						60.123623847961426	
1	0.36779093742370605	stim	0		121.0					60.14049696922302	1.0072948932647705
1	0.7674219608306885	response	0	space						60.540127992630005	
1	1.3750858306884766	stim	1		120.0					61.14779186248779	0.9996509552001953
1	1.441234827041626	response	1	space						61.21394085884094	
1	1.691053867340088	response	1	space						61.463759899139404	
1	2.2161409854888916	response	1	space						61.98884701728821	
2	2.374736785888672	fix_pre	0		18.0	0.0	2.5	/experiments/knapen_aot/oldvideos/S_yt-_HuBzj8EPBc_62.mp4	0.0	62.14744281768799	0.14957022666931152
2	2.516101837158203	response	0	space		0.0	2.5	/experiments/knapen_aot/oldvideos/S_yt-_HuBzj8EPBc_62.mp4	0.0	62.28880786895752	
2	2.5243070125579834	movie	1		301.0	0.0	2.5	/experiments/knapen_aot/oldvideos/S_yt-_HuBzj8EPBc_62.mp4	0.0	62.2970130443573	2.5083138942718506
2	5.032620906829834	fix_post	2		12.0	0.0	2.5	/experiments/knapen_aot/oldvideos/S_yt-_HuBzj8EPBc_62.mp4	0.0	64.80532693862915	0.10007905960083008
3	5.132699966430664	fix_pre	0		30.0	1.0	2.5	/experiments/knapen_aot/oldvideos/S_yt-FoO02U39gy4_398.mp4	0.0	64.90540599822998	0.25583386421203613
3	5.379408836364746	response	0	4		1.0	2.5	/experiments/knapen_aot/oldvideos/S_yt-FoO02U39gy4_398.mp4	0.0	65.15211486816406	
3	5.3885338306427	movie	1		293.0	1.0	2.5	/experiments/knapen_aot/oldvideos/S_yt-FoO02U39gy4_398.mp4	0.0	65.16123986244202	2.502393960952759
3	7.890927791595459	fix_post	2		12.0	1.0	2.5	/experiments/knapen_aot/oldvideos/S_yt-FoO02U39gy4_398.mp4	0.0	67.66363382339478	0.10008120536804199
4	7.991008996963501	fix_pre	0		13.0	2.0	2.5	/experiments/knapen_aot/oldvideos/R_S_yt-_HuBzj8EPBc_62.mp4	0.0	67.76371502876282	0.10836291313171387
4	8.083465814590454	response	0	2		2.0	2.5	/experiments/knapen_aot/oldvideos/R_S_yt-_HuBzj8EPBc_62.mp4	0.0	67.85617184638977	
4	8.099371910095215	movie	1		301.0	2.0	2.5	/experiments/knapen_aot/oldvideos/R_S_yt-_HuBzj8EPBc_62.mp4	0.0	67.87207794189453	2.5083348751068115
4	10.607706785202026	fix_post	2		12.0	2.0	2.5	/experiments/knapen_aot/oldvideos/R_S_yt-_HuBzj8EPBc_62.mp4	0.0	70.38041281700134	0.1002800464630127
5	10.707986831665039	fix_pre	0		18.0	3.0	2.5	/experiments/knapen_aot/oldvideos/R_S_comp_DB_D002_C003_PSNK_v04_SDR_PS_20180914_SDR_2K_AVC.mp4	0.0	70.48069286346436	0.14961600303649902
5	10.849433898925781	response	0	4		3.0	2.5	/experiments/knapen_aot/oldvideos/R_S_comp_DB_D002_C003_PSNK_v04_SDR_PS_20180914_SDR_2K_AVC.mp4	0.0	70.6221399307251	
5	10.857602834701538	movie	1		166.0	3.0	2.5	/experiments/knapen_aot/oldvideos/R_S_comp_DB_D002_C003_PSNK_v04_SDR_PS_20180914_SDR_2K_AVC.mp4	0.0	70.63030886650085	2.5083491802215576
5	13.365952014923096	fix_post	2		12.0	3.0	2.5	/experiments/knapen_aot/oldvideos/R_S_comp_DB_D002_C003_PSNK_v04_SDR_PS_20180914_SDR_2K_AVC.mp4	0.0	73.13865804672241	0.1000218391418457
6	13.465973854064941	fix_pre	0		83.0	4.0	2.5	/experiments/knapen_aot/oldvideos/S_b4-3.mp4	0.0	73.23867988586426	0.6916670799255371
6	14.149423837661743	response	0	2		4.0	2.5	/experiments/knapen_aot/oldvideos/S_b4-3.mp4	0.0	73.92212986946106	
6	14.157640933990479	movie	1		163.0	4.0	2.5	/experiments/knapen_aot/oldvideos/S_b4-3.mp4	0.0	73.9303469657898	2.5083179473876953
6	16.665958881378174	fix_post	2		12.0	4.0	2.5	/experiments/knapen_aot/oldvideos/S_b4-3.mp4	0.0	76.43866491317749	0.09997200965881348
7	16.765930891036987	fix_pre	0		10.0	5.0	2.5	/experiments/knapen_aot/oldvideos/S_yt-osz-TXlRdXs_2.mp4	0.0	76.5386369228363	0.08332610130310059
7	16.841063976287842	response	0	4		5.0	2.5	/experiments/knapen_aot/oldvideos/S_yt-osz-TXlRdXs_2.mp4	0.0	76.61377000808716	
7	16.849256992340088	movie	1		301.0	5.0	2.5	/experiments/knapen_aot/oldvideos/S_yt-osz-TXlRdXs_2.mp4	0.0	76.6219630241394	2.5084638595581055
7	19.357720851898193	fix_post	2		12.0	5.0	2.5	/experiments/knapen_aot/oldvideos/S_yt-osz-TXlRdXs_2.mp4	0.0	79.13042688369751	0.10011005401611328
8	19.457830905914307	fix_pre	0		164.0	6.0	2.5	/experiments/knapen_aot/oldvideos/R_S_yt-QI6k6mhpxLo_453.mp4	0.0	79.23053693771362	1.3664131164550781
8	20.816109895706177	response	0	2		6.0	2.5	/experiments/knapen_aot/oldvideos/R_S_yt-QI6k6mhpxLo_453.mp4	0.0	80.5888159275055	
8	20.824244022369385	movie	1		301.0	6.0	2.5	/experiments/knapen_aot/oldvideos/R_S_yt-QI6k6mhpxLo_453.mp4	0.0	80.5969500541687	2.50836181640625
8	23.332605838775635	fix_post	2		12.0	6.0	2.5	/experiments/knapen_aot/oldvideos/R_S_yt-QI6k6mhpxLo_453.mp4	0.0	83.10531187057495	0.0999150276184082
9	23.432520866394043	fix_pre	0		28.0	7.0	2.5	blank	1.0	83.20522689819336	0.2337040901184082
9	23.657755851745605	response	0	4		7.0	2.5	blank	1.0	83.43046188354492	
9	23.66622495651245	movie	1		301.0	7.0	2.5	blank	1.0	83.43893098831177	2.5080690383911133
9	26.174293994903564	fix_post	2		12.0	7.0	2.5	blank	1.0	85.94700002670288	0.09995794296264648
10	26.27425193786621	fix_pre	0		101.0	8.0	2.5	/experiments/knapen_aot/oldvideos/S_yt-WpLgDX6Yw_s_20.mp4	0.0	86.04695796966553	0.8415749073028564
10	27.107719898223877	response	0	2		8.0	2.5	/experiments/knapen_aot/oldvideos/S_yt-WpLgDX6Yw_s_20.mp4	0.0	86.8804259300232	
10	27.115826845169067	movie	1		301.0	8.0	2.5	/experiments/knapen_aot/oldvideos/S_yt-WpLgDX6Yw_s_20.mp4	0.0	86.88853287696838	2.508418083190918
10	29.624244928359985	fix_post	2		12.0	8.0	2.5	/experiments/knapen_aot/oldvideos/S_yt-WpLgDX6Yw_s_20.mp4	0.0	89.3969509601593	0.1000680923461914
11	29.724313020706177	fix_pre	0		37.0	9.0	2.5	/experiments/knapen_aot/oldvideos/S_yt-oT4Bq8zYN4E_42.mp4	0.0	89.4970190525055	0.30825090408325195
11	30.024407863616943	response	0	4		9.0	2.5	/experiments/knapen_aot/oldvideos/S_yt-oT4Bq8zYN4E_42.mp4	0.0	89.79711389541626	
11	30.03256392478943	movie	1		301.0	9.0	2.5	/experiments/knapen_aot/oldvideos/S_yt-oT4Bq8zYN4E_42.mp4	0.0	89.80526995658875	2.5087969303131104
11	32.54136085510254	fix_post	2		12.0	9.0	2.5	/experiments/knapen_aot/oldvideos/S_yt-oT4Bq8zYN4E_42.mp4	0.0	92.31406688690186	0.09955406188964844
12	32.64091491699219	fix_pre	0		24.0	10.0	2.5	/experiments/knapen_aot/oldvideos/S_yt-ycfVJyrFgB4_15.mp4	0.0	92.4136209487915	0.19993805885314941
12	32.83261680603027	response	0	2		10.0	2.5	/experiments/knapen_aot/oldvideos/S_yt-ycfVJyrFgB4_15.mp4	0.0	92.60532283782959	
12	32.84085297584534	movie	1		301.0	10.0	2.5	/experiments/knapen_aot/oldvideos/S_yt-ycfVJyrFgB4_15.mp4	0.0	92.61355900764465	2.508359909057617
12	35.349212884902954	fix_post	2		12.0	10.0	2.5	/experiments/knapen_aot/oldvideos/S_yt-ycfVJyrFgB4_15.mp4	0.0	95.12191891670227	0.10023212432861328
13	35.44944500923157	fix_pre	0		20.0	11.0	2.5	/experiments/knapen_aot/oldvideos/R_S_yt-QD74nNliDvI_10.mp4	0.0	95.22215104103088	0.16635394096374512
13	35.607685804367065	response	0	4		11.0	2.5	/experiments/knapen_aot/oldvideos/R_S_yt-QD74nNliDvI_10.mp4	0.0	95.38039183616638	
13	35.61579895019531	movie	1		301.0	11.0	2.5	/experiments/knapen_aot/oldvideos/R_S_yt-QD74nNliDvI_10.mp4	0.0	95.38850498199463	2.5085480213165283
13	38.12434697151184	fix_post	2		12.0	11.0	2.5	/experiments/knapen_aot/oldvideos/R_S_yt-QD74nNliDvI_10.mp4	0.0	97.89705300331116	0.09984803199768066
14	38.22419500350952	fix_pre	0		39.0	12.0	2.5	blank	1.0	97.99690103530884	0.3249368667602539
14	38.54107189178467	response	0	2		12.0	2.5	blank	1.0	98.31377792358398	
14	38.549131870269775	movie	1		301.0	12.0	2.5	blank	1.0	98.32183790206909	2.5083510875701904
14	41.057482957839966	fix_post	2		12.0	12.0	2.5	blank	1.0	100.83018898963928	0.10002589225769043
15	41.157508850097656	fix_pre	0		82.0	13.0	2.5	/experiments/knapen_aot/oldvideos/S_yt-3aTDYxyF6bc_35.mp4	0.0	100.93021488189697	0.6833021640777588
15	41.832637786865234	response	0	4		13.0	2.5	/experiments/knapen_aot/oldvideos/S_yt-3aTDYxyF6bc_35.mp4	0.0	101.60534381866455	
15	41.840811014175415	movie	1		301.0	13.0	2.5	/experiments/knapen_aot/oldvideos/S_yt-3aTDYxyF6bc_35.mp4	0.0	101.61351704597473	2.5084149837493896
15	44.349225997924805	fix_post	2		12.0	13.0	2.5	/experiments/knapen_aot/oldvideos/S_yt-3aTDYxyF6bc_35.mp4	0.0	104.12193202972412	0.09997892379760742
16	44.44920492172241	fix_pre	0		28.0	14.0	2.5	/experiments/knapen_aot/oldvideos/R_S_pexels-kindel-media-8165572.mp4	0.0	104.22191095352173	0.23323297500610352
16	44.67425799369812	response	0	2		14.0	2.5	/experiments/knapen_aot/oldvideos/R_S_pexels-kindel-media-8165572.mp4	0.0	104.44696402549744	
16	44.682437896728516	movie	1		177.0	14.0	2.5	/experiments/knapen_aot/oldvideos/R_S_pexels-kindel-media-8165572.mp4	0.0	104.45514392852783	2.5084190368652344
16	47.19085693359375	fix_post	2		12.0	14.0	2.5	/experiments/knapen_aot/oldvideos/R_S_pexels-kindel-media-8165572.mp4	0.0	106.96356296539307	0.10021185874938965
17	47.29106879234314	fix_pre	0		2.0	15.0	2.5	/experiments/knapen_aot/oldvideos/R_S_DL_B002_C011_SDR_20191122_SDR_2K_AVC.mp4	0.0	107.06377482414246	0.016434192657470703
17	47.29946994781494	response	0	4		15.0	2.5	/experiments/knapen_aot/oldvideos/R_S_DL_B002_C011_SDR_20191122_SDR_2K_AVC.mp4	0.0	107.07217597961426	
17	47.30750298500061	movie	1		165.0	15.0	2.5	/experiments/knapen_aot/oldvideos/R_S_DL_B002_C011_SDR_20191122_SDR_2K_AVC.mp4	0.0	107.08020901679993	2.50827693939209
17	49.8157799243927	fix_post	2		12.0	15.0	2.5	/experiments/knapen_aot/oldvideos/R_S_DL_B002_C011_SDR_20191122_SDR_2K_AVC.mp4	0.0	109.58848595619202	0.10014605522155762
18	49.91592597961426	fix_pre	0		141.0	16.0	2.5	/experiments/knapen_aot/oldvideos/R_S_wc-oyG6AjP_W2EL_15.mp4	0.0	109.68863201141357	1.174872875213623
18	51.0751748085022	response	0	2		16.0	2.5	/experiments/knapen_aot/oldvideos/R_S_wc-oyG6AjP_W2EL_15.mp4	0.0	110.84788084030151	
18	51.09079885482788	movie	1		301.0	16.0	2.5	/experiments/knapen_aot/oldvideos/R_S_wc-oyG6AjP_W2EL_15.mp4	0.0	110.8635048866272	2.5084550380706787
18	53.59925389289856	fix_post	2		12.0	16.0	2.5	/experiments/knapen_aot/oldvideos/R_S_wc-oyG6AjP_W2EL_15.mp4	0.0	113.37195992469788	0.10006999969482422
19	53.699323892593384	fix_pre	0		40.0	17.0	2.5	/experiments/knapen_aot/oldvideos/S_yt-XbigWWtnGL4_75.mp4	0.0	113.4720299243927	0.3331310749053955
19	54.024230003356934	response	0	4		17.0	2.5	/experiments/knapen_aot/oldvideos/S_yt-XbigWWtnGL4_75.mp4	0.0	113.79693603515625	
19	54.03245496749878	movie	1		301.0	17.0	2.5	/experiments/knapen_aot/oldvideos/S_yt-XbigWWtnGL4_75.mp4	0.0	113.8051609992981	2.5083630084991455
19	56.540817975997925	fix_post	2		12.0	17.0	2.5	/experiments/knapen_aot/oldvideos/S_yt-XbigWWtnGL4_75.mp4	0.0	116.31352400779724	0.10004186630249023
20	56.640859842300415	fix_pre	0		43.0	18.0	2.5	/experiments/knapen_aot/oldvideos/S_wc-AyT9mzwZsu0T_14.mp4	0.0	116.41356587409973	0.35825109481811523
20	56.9909348487854	response	0	2		18.0	2.5	/experiments/knapen_aot/oldvideos/S_wc-AyT9mzwZsu0T_14.mp4	0.0	116.76364088058472	
20	56.99911093711853	movie	1		167.0	18.0	2.5	/experiments/knapen_aot/oldvideos/S_wc-AyT9mzwZsu0T_14.mp4	0.0	116.77181696891785	2.5083670616149902
20	59.50747799873352	fix_post	2		12.0	18.0	2.5	/experiments/knapen_aot/oldvideos/S_wc-AyT9mzwZsu0T_14.mp4	0.0	119.28018403053284	0.09991979598999023
21	59.60739779472351	fix_pre	0		25.0	19.0	2.5	blank	1.0	119.38010382652283	0.2084341049194336
21	59.807583808898926	response	0	4		19.0	2.5	blank	1.0	119.58028984069824	
21	59.815831899642944	movie	1		301.0	19.0	2.5	blank	1.0	119.58853793144226	2.508423089981079
21	62.32425498962402	fix_post	2		12.0	19.0	2.5	blank	1.0	122.09696102142334	0.1000978946685791
22	62.4243528842926	fix_pre	0		51.0	20.0	2.5	/experiments/knapen_aot/oldvideos/R_S_yt-tVfYnm81ywo_82.mp4	0.0	122.19705891609192	0.4247560501098633
22	62.84098196029663	response	0	2		20.0	2.5	/experiments/knapen_aot/oldvideos/R_S_yt-tVfYnm81ywo_82.mp4	0.0	122.61368799209595	
22	62.849108934402466	movie	1		301.0	20.0	2.5	/experiments/knapen_aot/oldvideos/R_S_yt-tVfYnm81ywo_82.mp4	0.0	122.62181496620178	2.5082950592041016
22	65.35740399360657	fix_post	2		12.0	20.0	2.5	/experiments/knapen_aot/oldvideos/R_S_yt-tVfYnm81ywo_82.mp4	0.0	125.13011002540588	0.10013484954833984
23	65.45753884315491	fix_pre	0		81.0	21.0	2.5	/experiments/knapen_aot/oldvideos/R_S_pexels-mikhail-nilov-8410063.mp4	0.0	125.23024487495422	0.6748919486999512
23	66.12419891357422	response	0	4		21.0	2.5	/experiments/knapen_aot/oldvideos/R_S_pexels-mikhail-nilov-8410063.mp4	0.0	125.89690494537354	
23	66.13243079185486	movie	1		173.0	21.0	2.5	/experiments/knapen_aot/oldvideos/R_S_pexels-mikhail-nilov-8410063.mp4	0.0	125.90513682365417	2.508334159851074
23	68.64076495170593	fix_post	2		12.0	21.0	2.5	/experiments/knapen_aot/oldvideos/R_S_pexels-mikhail-nilov-8410063.mp4	0.0	128.41347098350525	0.10016584396362305
24	68.74093079566956	fix_pre	0		4.0	22.0	2.5	/experiments/knapen_aot/oldvideos/R_S_b4-3.mp4	0.0	128.51363682746887	0.03315305709838867
24	68.76581978797913	response	0	2		22.0	2.5	/experiments/knapen_aot/oldvideos/R_S_b4-3.mp4	0.0	128.53852581977844	
24	68.77408385276794	movie	1		167.0	22.0	2.5	/experiments/knapen_aot/oldvideos/R_S_b4-3.mp4	0.0	128.54678988456726	2.508342981338501
24	71.28242683410645	fix_post	2		12.0	22.0	2.5	/experiments/knapen_aot/oldvideos/R_S_b4-3.mp4	0.0	131.05513286590576	0.10004901885986328
25	71.38247585296631	fix_pre	0		1.0	23.0	2.5	/experiments/knapen_aot/oldvideos/R_S_ILSVRC2015_train_00632002.mp4	0.0	131.15518188476562	0.008224964141845703
25	71.37536287307739	response	0	4		23.0	2.5	/experiments/knapen_aot/oldvideos/R_S_ILSVRC2015_train_00632002.mp4	0.0	131.1480689048767	
25	71.39070081710815	movie	1		300.0	23.0	2.5	/experiments/knapen_aot/oldvideos/R_S_ILSVRC2015_train_00632002.mp4	0.0	131.16340684890747	2.508392095565796
25	73.89909291267395	fix_post	2		12.0	23.0	2.5	/experiments/knapen_aot/oldvideos/R_S_ILSVRC2015_train_00632002.mp4	0.0	133.67179894447327	0.09998297691345215
26	73.9990758895874	fix_pre	0		272.0	24.0	2.5	/experiments/knapen_aot/oldvideos/S_yt-y3tyx6cZjmA_412.mp4	0.0	133.77178192138672	2.266568899154663
26	76.257493019104	response	0	2		24.0	2.5	/experiments/knapen_aot/oldvideos/S_yt-y3tyx6cZjmA_412.mp4	0.0	136.03019905090332	
26	76.26564478874207	movie	1		301.0	24.0	2.5	/experiments/knapen_aot/oldvideos/S_yt-y3tyx6cZjmA_412.mp4	0.0	136.03835082054138	2.5083141326904297
26	78.7739589214325	fix_post	2		12.0	24.0	2.5	/experiments/knapen_aot/oldvideos/S_yt-y3tyx6cZjmA_412.mp4	0.0	138.5466649532318	0.10008692741394043
27	78.87404584884644	fix_pre	0		28.0	25.0	2.5	/experiments/knapen_aot/oldvideos/R_S_comp_N013_C004_PS_v01_SDR_PS_20180925_F1970F7193_SDR_2K_AVC.mp4	0.0	138.64675188064575	0.23332810401916504
27	79.09916090965271	response	0	4		25.0	2.5	/experiments/knapen_aot/oldvideos/R_S_comp_N013_C004_PS_v01_SDR_PS_20180925_F1970F7193_SDR_2K_AVC.mp4	0.0	138.87186694145203	
27	79.1073739528656	movie	1		165.0	25.0	2.5	/experiments/knapen_aot/oldvideos/R_S_comp_N013_C004_PS_v01_SDR_PS_20180925_F1970F7193_SDR_2K_AVC.mp4	0.0	138.88007998466492	2.5082850456237793
27	81.61565899848938	fix_post	2		12.0	25.0	2.5	/experiments/knapen_aot/oldvideos/R_S_comp_N013_C004_PS_v01_SDR_PS_20180925_F1970F7193_SDR_2K_AVC.mp4	0.0	141.3883650302887	0.10003185272216797
28	81.71569085121155	fix_pre	0		10.0	26.0	2.5	/experiments/knapen_aot/oldvideos/R_S_yt-s5YONFy3vb4_46.mp4	0.0	141.48839688301086	0.08330512046813965
28	81.79084587097168	response	0	2		26.0	2.5	/experiments/knapen_aot/oldvideos/R_S_yt-s5YONFy3vb4_46.mp4	0.0	141.563551902771	
28	81.79899597167969	movie	1		301.0	26.0	2.5	/experiments/knapen_aot/oldvideos/R_S_yt-s5YONFy3vb4_46.mp4	0.0	141.571702003479	2.508301019668579
28	84.30729699134827	fix_post	2		12.0	26.0	2.5	/experiments/knapen_aot/oldvideos/R_S_yt-s5YONFy3vb4_46.mp4	0.0	144.08000302314758	0.1000819206237793
29	84.40737891197205	fix_pre	0		292.0	27.0	2.5	blank	1.0	144.18008494377136	2.4332358837127686
29	86.83246088027954	response	0	4		27.0	2.5	blank	1.0	146.60516691207886	
29	86.84061479568481	movie	1		301.0	27.0	2.5	blank	1.0	146.61332082748413	2.5083961486816406
29	89.34901094436646	fix_post	2		12.0	27.0	2.5	blank	1.0	149.12171697616577	0.09997701644897461
30	89.44898796081543	fix_pre	0		47.0	28.0	2.5	/experiments/knapen_aot/oldvideos/S_yt-H45g6700wbc_159.mp4	0.0	149.22169399261475	0.39160990715026855
30	89.82485580444336	response	0	2		28.0	2.5	/experiments/knapen_aot/oldvideos/S_yt-H45g6700wbc_159.mp4	0.0	149.59756183624268	
30	89.8405978679657	movie	1		301.0	28.0	2.5	/experiments/knapen_aot/oldvideos/S_yt-H45g6700wbc_159.mp4	0.0	149.61330389976501	2.5084431171417236
30	92.34904098510742	fix_post	2		12.0	28.0	2.5	/experiments/knapen_aot/oldvideos/S_yt-H45g6700wbc_159.mp4	0.0	152.12174701690674	0.09992480278015137
31	92.44896578788757	fix_pre	0		18.0	29.0	2.5	/experiments/knapen_aot/oldvideos/S_yt-aiwDdJm1ek8_90.mp4	0.0	152.2216718196869	0.14995908737182617
31	92.59073781967163	response	0	4		29.0	2.5	/experiments/knapen_aot/oldvideos/S_yt-aiwDdJm1ek8_90.mp4	0.0	152.36344385147095	
31	92.5989248752594	movie	1		301.0	29.0	2.5	/experiments/knapen_aot/oldvideos/S_yt-aiwDdJm1ek8_90.mp4	0.0	152.37163090705872	2.508410930633545
31	95.10733580589294	fix_post	2		12.0	29.0	2.5	/experiments/knapen_aot/oldvideos/S_yt-aiwDdJm1ek8_90.mp4	0.0	154.88004183769226	0.10003209114074707
32	95.20736789703369	fix_pre	0		12.0	30.0	2.5	/experiments/knapen_aot/oldvideos/R_S_b3TCugtX0h0_108.mp4	0.0	154.980073928833	0.09993910789489746
32	95.29913401603699	response	0	2		30.0	2.5	/experiments/knapen_aot/oldvideos/R_S_b3TCugtX0h0_108.mp4	0.0	155.0718400478363	
32	95.30730700492859	movie	1		301.0	30.0	2.5	/experiments/knapen_aot/oldvideos/R_S_b3TCugtX0h0_108.mp4	0.0	155.0800130367279	2.508358955383301
32	97.81566596031189	fix_post	2		12.0	30.0	2.5	/experiments/knapen_aot/oldvideos/R_S_b3TCugtX0h0_108.mp4	0.0	157.5883719921112	0.10000395774841309
33	97.9156699180603	fix_pre	0		332.0	31.0	2.5	/experiments/knapen_aot/oldvideos/S_yt-QD74nNliDvI_10.mp4	0.0	157.68837594985962	2.7665770053863525
33	100.67406797409058	response	0	4		31.0	2.5	/experiments/knapen_aot/oldvideos/S_yt-QD74nNliDvI_10.mp4	0.0	160.4467740058899	
33	100.68224692344666	movie	1		301.0	31.0	2.5	/experiments/knapen_aot/oldvideos/S_yt-QD74nNliDvI_10.mp4	0.0	160.45495295524597	2.508368968963623
33	103.19061589241028	fix_post	2		12.0	31.0	2.5	/experiments/knapen_aot/oldvideos/S_yt-QD74nNliDvI_10.mp4	0.0	162.9633219242096	0.1000669002532959
34	103.29068279266357	fix_pre	0		30.0	32.0	2.5	/experiments/knapen_aot/oldvideos/S_yt-7Ya-rGPO8cM_159.mp4	0.0	163.0633888244629	0.24992704391479492
34	103.53238296508789	response	0	2		32.0	2.5	/experiments/knapen_aot/oldvideos/S_yt-7Ya-rGPO8cM_159.mp4	0.0	163.3050889968872	
34	103.54060983657837	movie	1		301.0	32.0	2.5	/experiments/knapen_aot/oldvideos/S_yt-7Ya-rGPO8cM_159.mp4	0.0	163.31331586837769	2.5083680152893066
34	106.04897785186768	fix_post	2		12.0	32.0	2.5	/experiments/knapen_aot/oldvideos/S_yt-7Ya-rGPO8cM_159.mp4	0.0	165.821683883667	0.10004711151123047
35	106.1490249633789	fix_pre	0		11.0	33.0	2.5	/experiments/knapen_aot/oldvideos/S_yt-R5wOWRtRmrI_36.mp4	0.0	165.92173099517822	0.09275293350219727
35	106.23242497444153	response	0	4		33.0	2.5	/experiments/knapen_aot/oldvideos/S_yt-R5wOWRtRmrI_36.mp4	0.0	166.00513100624084	
35	106.2417778968811	movie	1		301.0	33.0	2.5	/experiments/knapen_aot/oldvideos/S_yt-R5wOWRtRmrI_36.mp4	0.0	166.01448392868042	2.5071399211883545
35	108.74891781806946	fix_post	2		12.0	33.0	2.5	/experiments/knapen_aot/oldvideos/S_yt-R5wOWRtRmrI_36.mp4	0.0	168.52162384986877	0.10001897811889648
36	108.84893679618835	fix_pre	0		22.0	34.0	2.5	/experiments/knapen_aot/oldvideos/R_S_production_ID_3927047.mp4	0.0	168.62164282798767	0.18453216552734375
36	109.02406597137451	response	0	2		34.0	2.5	/experiments/knapen_aot/oldvideos/R_S_production_ID_3927047.mp4	0.0	168.79677200317383	
36	109.0334689617157	movie	1		178.0	34.0	2.5	/experiments/knapen_aot/oldvideos/R_S_production_ID_3927047.mp4	0.0	168.80617499351501	2.507133960723877
36	111.54060292243958	fix_post	2		12.0	34.0	2.5	/experiments/knapen_aot/oldvideos/R_S_production_ID_3927047.mp4	0.0	171.3133089542389	0.10009407997131348
37	111.64069700241089	fix_pre	0		70.0	35.0	2.5	blank	1.0	171.4134030342102	0.5844719409942627
37	112.21570301055908	response	0	4		35.0	2.5	blank	1.0	171.9884090423584	
37	112.22516894340515	movie	1		301.0	35.0	2.5	blank	1.0	171.99787497520447	2.50711989402771
37	114.73228883743286	fix_post	2		12.0	35.0	2.5	blank	1.0	174.50499486923218	0.09997296333312988
38	114.83226180076599	fix_pre	0		28.0	36.0	2.5	/experiments/knapen_aot/oldvideos/S_yt-hvuC_2YXsTQ_159.mp4	0.0	174.6049678325653	0.23327422142028809
38	115.04974794387817	response	0	2		36.0	2.5	/experiments/knapen_aot/oldvideos/S_yt-hvuC_2YXsTQ_159.mp4	0.0	174.8224539756775	
38	115.06553602218628	movie	1		301.0	36.0	2.5	/experiments/knapen_aot/oldvideos/S_yt-hvuC_2YXsTQ_159.mp4	0.0	174.8382420539856	2.508331775665283
38	117.57386779785156	fix_post	2		12.0	36.0	2.5	/experiments/knapen_aot/oldvideos/S_yt-hvuC_2YXsTQ_159.mp4	0.0	177.34657382965088	0.10041999816894531
39	117.67428779602051	fix_pre	0		14.0	37.0	2.5	/experiments/knapen_aot/oldvideos/S_ILSVRC2015_train_00001009.mp4	0.0	177.44699382781982	0.1162571907043457
39	117.782390832901	response	0	4		37.0	2.5	/experiments/knapen_aot/oldvideos/S_ILSVRC2015_train_00001009.mp4	0.0	177.55509686470032	
39	117.79054498672485	movie	1		301.0	37.0	2.5	/experiments/knapen_aot/oldvideos/S_ILSVRC2015_train_00001009.mp4	0.0	177.56325101852417	2.5083789825439453
39	120.2989239692688	fix_post	2		12.0	37.0	2.5	/experiments/knapen_aot/oldvideos/S_ILSVRC2015_train_00001009.mp4	0.0	180.07163000106812	0.09997987747192383
40	120.39890384674072	fix_pre	0		19.0	38.0	2.5	/experiments/knapen_aot/oldvideos/R_S_yt-c5IgOXX8YZ0_24.mp4	0.0	180.17160987854004	0.15841317176818848
40	120.54899978637695	response	0	2		38.0	2.5	/experiments/knapen_aot/oldvideos/R_S_yt-c5IgOXX8YZ0_24.mp4	0.0	180.32170581817627	
40	120.55731701850891	movie	1		301.0	38.0	2.5	/experiments/knapen_aot/oldvideos/R_S_yt-c5IgOXX8YZ0_24.mp4	0.0	180.33002305030823	2.508234977722168
40	123.06555199623108	fix_post	2		12.0	38.0	2.5	/experiments/knapen_aot/oldvideos/R_S_yt-c5IgOXX8YZ0_24.mp4	0.0	182.8382580280304	0.10003900527954102
41	123.16559100151062	fix_pre	0		195.0	39.0	2.5	/experiments/knapen_aot/oldvideos/S_yt-Gokv9ZtV6zo_70.mp4	0.0	182.93829703330994	1.624871015548706
41	124.78229784965515	response	0	4		39.0	2.5	/experiments/knapen_aot/oldvideos/S_yt-Gokv9ZtV6zo_70.mp4	0.0	184.55500388145447	
41	124.79046201705933	movie	1		301.0	39.0	2.5	/experiments/knapen_aot/oldvideos/S_yt-Gokv9ZtV6zo_70.mp4	0.0	184.56316804885864	2.508408784866333
41	127.29887080192566	fix_post	2		12.0	39.0	2.5	/experiments/knapen_aot/oldvideos/S_yt-Gokv9ZtV6zo_70.mp4	0.0	187.07157683372498	0.09995603561401367
42	127.39882683753967	fix_pre	0		37.0	40.0	2.5	/experiments/knapen_aot/oldvideos/R_S_yt-fGN7sGPy8BA_13.mp4	0.0	187.171532869339	0.3082599639892578
42	127.69894790649414	response	0	2		40.0	2.5	/experiments/knapen_aot/oldvideos/R_S_yt-fGN7sGPy8BA_13.mp4	0.0	187.47165393829346	
42	127.70708680152893	movie	1		301.0	40.0	2.5	/experiments/knapen_aot/oldvideos/R_S_yt-fGN7sGPy8BA_13.mp4	0.0	187.47979283332825	2.508324146270752
42	130.21541094779968	fix_post	2		12.0	40.0	2.5	/experiments/knapen_aot/oldvideos/R_S_yt-fGN7sGPy8BA_13.mp4	0.0	189.988116979599	0.1000819206237793
43	130.31549286842346	fix_pre	0		27.0	41.0	2.5	/experiments/knapen_aot/oldvideos/R_S_video-7.mp4	0.0	190.08819890022278	0.2250840663909912
43	130.53225588798523	response	0	4		41.0	2.5	/experiments/knapen_aot/oldvideos/R_S_video-7.mp4	0.0	190.30496191978455	
43	130.54057693481445	movie	1		172.0	41.0	2.5	/experiments/knapen_aot/oldvideos/R_S_video-7.mp4	0.0	190.31328296661377	2.5084469318389893
43	133.04902386665344	fix_post	2		12.0	41.0	2.5	/experiments/knapen_aot/oldvideos/R_S_video-7.mp4	0.0	192.82172989845276	0.0998380184173584
44	133.1488618850708	fix_pre	0		33.0	42.0	2.5	blank	1.0	192.92156791687012	0.2749660015106201
44	133.41564679145813	response	0	2		42.0	2.5	blank	1.0	193.18835282325745	
44	133.42382788658142	movie	1		301.0	42.0	2.5	blank	1.0	193.19653391838074	2.5082790851593018
44	135.93210697174072	fix_post	2		12.0	42.0	2.5	blank	1.0	195.70481300354004	0.10005903244018555
45	136.0321660041809	fix_pre	0		22.0	43.0	2.5	/experiments/knapen_aot/oldvideos/S_yt-IX6uxR5DSKk_2.mp4	0.0	195.80487203598022	0.18325591087341309
45	136.19962787628174	response	0	4		43.0	2.5	/experiments/knapen_aot/oldvideos/S_yt-IX6uxR5DSKk_2.mp4	0.0	195.97233390808105	
45	136.21542191505432	movie	1		301.0	43.0	2.5	/experiments/knapen_aot/oldvideos/S_yt-IX6uxR5DSKk_2.mp4	0.0	195.98812794685364	2.5083670616149902
45	138.7237889766693	fix_post	2		12.0	43.0	2.5	/experiments/knapen_aot/oldvideos/S_yt-IX6uxR5DSKk_2.mp4	0.0	198.49649500846863	0.09995603561401367
46	138.82374501228333	fix_pre	0		42.0	44.0	2.5	/experiments/knapen_aot/oldvideos/R_S_yt--Ra34zJ69AU_68.mp4	0.0	198.59645104408264	0.3499917984008789
46	139.1579988002777	response	0	2		44.0	2.5	/experiments/knapen_aot/oldvideos/R_S_yt--Ra34zJ69AU_68.mp4	0.0	198.93070483207703	
46	139.1737368106842	movie	1		301.0	44.0	2.5	/experiments/knapen_aot/oldvideos/R_S_yt--Ra34zJ69AU_68.mp4	0.0	198.94644284248352	2.508280038833618
46	141.68201684951782	fix_post	2		12.0	44.0	2.5	/experiments/knapen_aot/oldvideos/R_S_yt--Ra34zJ69AU_68.mp4	0.0	201.45472288131714	0.10007214546203613
47	141.78208899497986	fix_pre	0		28.0	45.0	2.5	/experiments/knapen_aot/oldvideos/R_S_ILSVRC2015_train_00465000.mp4	0.0	201.55479502677917	0.2333369255065918
47	142.00720381736755	response	0	4		45.0	2.5	/experiments/knapen_aot/oldvideos/R_S_ILSVRC2015_train_00465000.mp4	0.0	201.77990984916687	
47	142.01542592048645	movie	1		301.0	45.0	2.5	/experiments/knapen_aot/oldvideos/R_S_ILSVRC2015_train_00465000.mp4	0.0	201.78813195228577	2.5083138942718506
47	144.5237398147583	fix_post	2		12.0	45.0	2.5	/experiments/knapen_aot/oldvideos/R_S_ILSVRC2015_train_00465000.mp4	0.0	204.29644584655762	0.10001707077026367
48	144.62375688552856	fix_pre	0		194.0	46.0	2.5	/experiments/knapen_aot/oldvideos/R_S_yt-w_e3sxIzepA_115.mp4	0.0	204.39646291732788	1.617706060409546
48	146.23219895362854	response	0	2		46.0	2.5	/experiments/knapen_aot/oldvideos/R_S_yt-w_e3sxIzepA_115.mp4	0.0	206.00490498542786	
48	146.2414629459381	movie	1		301.0	46.0	2.5	/experiments/knapen_aot/oldvideos/R_S_yt-w_e3sxIzepA_115.mp4	0.0	206.01416897773743	2.5073459148406982
48	148.7488088607788	fix_post	2		12.0	46.0	2.5	/experiments/knapen_aot/oldvideos/R_S_yt-w_e3sxIzepA_115.mp4	0.0	208.52151489257812	0.09995603561401367
49	148.84876489639282	fix_pre	0		40.0	47.0	2.5	/experiments/knapen_aot/oldvideos/S_production_ID_4101244.mp4	0.0	208.62147092819214	0.3332390785217285
49	149.173898935318	response	0	4		47.0	2.5	/experiments/knapen_aot/oldvideos/S_production_ID_4101244.mp4	0.0	208.9466049671173	
49	149.18200397491455	movie	1		200.0	47.0	2.5	/experiments/knapen_aot/oldvideos/S_production_ID_4101244.mp4	0.0	208.95471000671387	2.508366823196411
49	151.69037079811096	fix_post	2		12.0	47.0	2.5	/experiments/knapen_aot/oldvideos/S_production_ID_4101244.mp4	0.0	211.46307682991028	0.10006403923034668
50	151.7904348373413	fix_pre	0		10.0	48.0	2.5	/experiments/knapen_aot/oldvideos/S_yt-fqbi4rGc9dk_65.mp4	0.0	211.56314086914062	0.08326315879821777
50	151.86551189422607	response	0	2		48.0	2.5	/experiments/knapen_aot/oldvideos/S_yt-fqbi4rGc9dk_65.mp4	0.0	211.6382179260254	
50	151.87369799613953	movie	1		301.0	48.0	2.5	/experiments/knapen_aot/oldvideos/S_yt-fqbi4rGc9dk_65.mp4	0.0	211.64640402793884	2.5083789825439453
50	154.38207697868347	fix_post	2		12.0	48.0	2.5	/experiments/knapen_aot/oldvideos/S_yt-fqbi4rGc9dk_65.mp4	0.0	214.1547830104828	0.10000181198120117
51	154.48207879066467	fix_pre	0		32.0	49.0	2.5	blank	1.0	214.254784822464	0.2666480541229248
51	154.740571975708	response	0	4		49.0	2.5	blank	1.0	214.51327800750732	
51	154.7487268447876	movie	1		301.0	49.0	2.5	blank	1.0	214.5214328765869	2.5084550380706787
51	157.25718188285828	fix_post	2		12.0	49.0	2.5	blank	1.0	217.0298879146576	0.09990692138671875
52	157.357088804245	fix_pre	0		34.0	50.0	2.5	/experiments/knapen_aot/oldvideos/R_S_ILSVRC2015_train_00507000.mp4	0.0	217.1297948360443	0.2832651138305664
52	157.63213801383972	response	0	2		50.0	2.5	/experiments/knapen_aot/oldvideos/R_S_ILSVRC2015_train_00507000.mp4	0.0	217.40484404563904	
52	157.64035391807556	movie	1		301.0	50.0	2.5	/experiments/knapen_aot/oldvideos/R_S_ILSVRC2015_train_00507000.mp4	0.0	217.41305994987488	2.508333921432495
52	160.14868783950806	fix_post	2		12.0	50.0	2.5	/experiments/knapen_aot/oldvideos/R_S_ILSVRC2015_train_00507000.mp4	0.0	219.92139387130737	0.10000109672546387
53	160.24868893623352	fix_pre	0		10.0	51.0	2.5	/experiments/knapen_aot/oldvideos/S_yt-JVhfcpV7OaY_71.mp4	0.0	220.02139496803284	0.08326196670532227
53	160.31629586219788	response	0	4		51.0	2.5	/experiments/knapen_aot/oldvideos/S_yt-JVhfcpV7OaY_71.mp4	0.0	220.0890018939972	
53	160.33195090293884	movie	1		301.0	51.0	2.5	/experiments/knapen_aot/oldvideos/S_yt-JVhfcpV7OaY_71.mp4	0.0	220.10465693473816	2.508402109146118
53	162.84035301208496	fix_post	2		12.0	51.0	2.5	/experiments/knapen_aot/oldvideos/S_yt-JVhfcpV7OaY_71.mp4	0.0	222.61305904388428	0.0999898910522461
54	162.9403429031372	fix_pre	0		13.0	52.0	2.5	/experiments/knapen_aot/oldvideos/S_pexels-mart-production-7698693.mp4	0.0	222.71304893493652	0.10830092430114746
54	163.04047393798828	response	0	2		52.0	2.5	/experiments/knapen_aot/oldvideos/S_pexels-mart-production-7698693.mp4	0.0	222.8131799697876	
54	163.04864382743835	movie	1		195.0	52.0	2.5	/experiments/knapen_aot/oldvideos/S_pexels-mart-production-7698693.mp4	0.0	222.82134985923767	2.508341073989868
54	165.55698490142822	fix_post	2		12.0	52.0	2.5	/experiments/knapen_aot/oldvideos/S_pexels-mart-production-7698693.mp4	0.0	225.32969093322754	0.10087895393371582
55	165.65786385536194	fix_pre	0		24.0	53.0	2.5	/experiments/knapen_aot/oldvideos/S_ILSVRC2015_train_00251004.mp4	0.0	225.43056988716125	0.19912004470825195
55	165.8487730026245	response	0	4		53.0	2.5	/experiments/knapen_aot/oldvideos/S_ILSVRC2015_train_00251004.mp4	0.0	225.62147903442383	
55	165.8569839000702	movie	1		301.0	53.0	2.5	/experiments/knapen_aot/oldvideos/S_ILSVRC2015_train_00251004.mp4	0.0	225.6296899318695	2.50832200050354
55	168.36530590057373	fix_post	2		12.0	53.0	2.5	/experiments/knapen_aot/oldvideos/S_ILSVRC2015_train_00251004.mp4	0.0	228.13801193237305	0.09992694854736328
56	168.4652328491211	fix_pre	0		37.0	54.0	2.5	blank	1.0	228.2379388809204	0.30840516090393066
56	168.76541781425476	response	0	2		54.0	2.5	blank	1.0	228.53812384605408	
56	168.77363801002502	movie	1		301.0	54.0	2.5	blank	1.0	228.54634404182434	2.5084478855133057
56	171.28208589553833	fix_post	2		12.0	54.0	2.5	blank	1.0	231.05479192733765	0.09996199607849121
57	171.38204789161682	fix_pre	0		24.0	55.0	2.5	/experiments/knapen_aot/oldvideos/R_S_yt-JTuopUgmg1w_101.mp4	0.0	231.15475392341614	0.19989800453186035
57	171.56620001792908	response	0	4		55.0	2.5	/experiments/knapen_aot/oldvideos/R_S_yt-JTuopUgmg1w_101.mp4	0.0	231.3389060497284	
57	171.58194589614868	movie	1		301.0	55.0	2.5	/experiments/knapen_aot/oldvideos/R_S_yt-JTuopUgmg1w_101.mp4	0.0	231.354651927948	2.5083210468292236
57	174.0902669429779	fix_post	2		12.0	55.0	2.5	/experiments/knapen_aot/oldvideos/R_S_yt-JTuopUgmg1w_101.mp4	0.0	233.86297297477722	0.10011100769042969
58	174.19037795066833	fix_pre	0		37.0	56.0	2.5	/experiments/knapen_aot/oldvideos/S_comp_DB_D002_C003_PSNK_v04_SDR_PS_20180914_SDR_2K_AVC.mp4	0.0	233.96308398246765	0.3082430362701416
58	174.4903678894043	response	0	2		56.0	2.5	/experiments/knapen_aot/oldvideos/S_comp_DB_D002_C003_PSNK_v04_SDR_PS_20180914_SDR_2K_AVC.mp4	0.0	234.2630739212036	
58	174.49862098693848	movie	1		167.0	56.0	2.5	/experiments/knapen_aot/oldvideos/S_comp_DB_D002_C003_PSNK_v04_SDR_PS_20180914_SDR_2K_AVC.mp4	0.0	234.2713270187378	2.5083229541778564
58	177.00694394111633	fix_post	2		12.0	56.0	2.5	/experiments/knapen_aot/oldvideos/S_comp_DB_D002_C003_PSNK_v04_SDR_PS_20180914_SDR_2K_AVC.mp4	0.0	236.77964997291565	0.10015606880187988
59	177.1071000099182	fix_pre	0		9.0	57.0	2.5	/experiments/knapen_aot/oldvideos/R_S_yt-y3tyx6cZjmA_412.mp4	0.0	236.87980604171753	0.07481694221496582
59	177.17372679710388	response	0	4		57.0	2.5	/experiments/knapen_aot/oldvideos/R_S_yt-y3tyx6cZjmA_412.mp4	0.0	236.9464328289032	
59	177.18191695213318	movie	1		301.0	57.0	2.5	/experiments/knapen_aot/oldvideos/R_S_yt-y3tyx6cZjmA_412.mp4	0.0	236.9546229839325	2.5084030628204346
59	179.6903200149536	fix_post	2		12.0	57.0	2.5	/experiments/knapen_aot/oldvideos/R_S_yt-y3tyx6cZjmA_412.mp4	0.0	239.46302604675293	0.09991598129272461
60	179.79023599624634	fix_pre	0		33.0	58.0	2.5	/experiments/knapen_aot/oldvideos/S_yt-ycfVJyrFgB4_15.mp4	0.0	239.56294202804565	0.2749958038330078
60	180.04952478408813	response	0	2		58.0	2.5	/experiments/knapen_aot/oldvideos/S_yt-ycfVJyrFgB4_15.mp4	0.0	239.82223081588745	
60	180.06523180007935	movie	1		301.0	58.0	2.5	/experiments/knapen_aot/oldvideos/S_yt-ycfVJyrFgB4_15.mp4	0.0	239.83793783187866	2.5083119869232178
60	182.57354378700256	fix_post	2		12.0	58.0	2.5	/experiments/knapen_aot/oldvideos/S_yt-ycfVJyrFgB4_15.mp4	0.0	242.34624981880188	0.10004305839538574
61	182.67358684539795	fix_pre	0		23.0	59.0	2.5	/experiments/knapen_aot/oldvideos/R_S_yt-8QCcmqaEMPI_16.mp4	0.0	242.44629287719727	0.1923689842224121
61	182.8570740222931	response	0	4		59.0	2.5	/experiments/knapen_aot/oldvideos/R_S_yt-8QCcmqaEMPI_16.mp4	0.0	242.6297800540924	
61	182.86595582962036	movie	1		301.0	59.0	2.5	/experiments/knapen_aot/oldvideos/R_S_yt-8QCcmqaEMPI_16.mp4	0.0	242.63866186141968	2.50758695602417
61	185.37354278564453	fix_post	2		12.0	59.0	2.5	/experiments/knapen_aot/oldvideos/R_S_yt-8QCcmqaEMPI_16.mp4	0.0	245.14624881744385	0.10005307197570801
62	185.47359585762024	fix_pre	0		31.0	60.0	2.5	/experiments/knapen_aot/oldvideos/R_S_comp_A050_C004_1027V8_v16_SDR_FINAL_20180706_SDR_2K_AVC.mp4	0.0	245.24630188941956	0.25826096534729004
62	185.72365999221802	response	0	2		60.0	2.5	/experiments/knapen_aot/oldvideos/R_S_comp_A050_C004_1027V8_v16_SDR_FINAL_20180706_SDR_2K_AVC.mp4	0.0	245.49636602401733	
62	185.73185682296753	movie	1		171.0	60.0	2.5	/experiments/knapen_aot/oldvideos/R_S_comp_A050_C004_1027V8_v16_SDR_FINAL_20180706_SDR_2K_AVC.mp4	0.0	245.50456285476685	2.508411169052124
62	188.24026799201965	fix_post	2		12.0	60.0	2.5	/experiments/knapen_aot/oldvideos/R_S_comp_A050_C004_1027V8_v16_SDR_FINAL_20180706_SDR_2K_AVC.mp4	0.0	248.01297402381897	0.1000368595123291
62	188.30703997612	response	2	4		60.0	2.5	/experiments/knapen_aot/oldvideos/R_S_comp_A050_C004_1027V8_v16_SDR_FINAL_20180706_SDR_2K_AVC.mp4	0.0	248.0797460079193	
63	188.34030485153198	fix_pre	0		170.0	61.0	2.5	/experiments/knapen_aot/oldvideos/S_yt-rlEPywo5BEQ_36.mp4	0.0	248.1130108833313	1.4165990352630615
63	189.74869990348816	response	0	4		61.0	2.5	/experiments/knapen_aot/oldvideos/S_yt-rlEPywo5BEQ_36.mp4	0.0	249.52140593528748	
63	189.75690388679504	movie	1		301.0	61.0	2.5	/experiments/knapen_aot/oldvideos/S_yt-rlEPywo5BEQ_36.mp4	0.0	249.52960991859436	2.5083820819854736
63	192.26528596878052	fix_post	2		12.0	61.0	2.5	/experiments/knapen_aot/oldvideos/S_yt-rlEPywo5BEQ_36.mp4	0.0	252.03799200057983	0.10077786445617676
64	192.3660638332367	fix_pre	0		34.0	62.0	2.5	blank	1.0	252.138769865036	0.28252601623535156
64	192.6403307914734	response	0	2		62.0	2.5	blank	1.0	252.4130368232727	
64	192.64858984947205	movie	1		301.0	62.0	2.5	blank	1.0	252.42129588127136	2.5083019733428955
64	195.15689182281494	fix_post	2		12.0	62.0	2.5	blank	1.0	254.92959785461426	0.10014605522155762
65	195.2570378780365	fix_pre	0		19.0	63.0	2.5	/experiments/knapen_aot/oldvideos/S_S006_C007_SDR_2K_AVC.mp4	0.0	255.02974390983582	0.1581740379333496
65	195.40694189071655	response	0	4		63.0	2.5	/experiments/knapen_aot/oldvideos/S_S006_C007_SDR_2K_AVC.mp4	0.0	255.17964792251587	
65	195.41521191596985	movie	1		165.0	63.0	2.5	/experiments/knapen_aot/oldvideos/S_S006_C007_SDR_2K_AVC.mp4	0.0	255.18791794776917	2.508397102355957
65	197.9236090183258	fix_post	2		12.0	63.0	2.5	/experiments/knapen_aot/oldvideos/S_S006_C007_SDR_2K_AVC.mp4	0.0	257.6963150501251	0.10013294219970703
66	198.0237419605255	fix_pre	0		22.0	64.0	2.5	/experiments/knapen_aot/oldvideos/R_S_P005_C002_UHD_SDR_2K_AVC.mp4	0.0	257.79644799232483	0.18310999870300293
66	198.19119596481323	response	0	2		64.0	2.5	/experiments/knapen_aot/oldvideos/R_S_P005_C002_UHD_SDR_2K_AVC.mp4	0.0	257.96390199661255	
66	198.20685195922852	movie	1		171.0	64.0	2.5	/experiments/knapen_aot/oldvideos/R_S_P005_C002_UHD_SDR_2K_AVC.mp4	0.0	257.97955799102783	2.508452892303467
66	200.71530485153198	fix_post	2		12.0	64.0	2.5	/experiments/knapen_aot/oldvideos/R_S_P005_C002_UHD_SDR_2K_AVC.mp4	0.0	260.4880108833313	0.09986495971679688
67	200.81516981124878	fix_pre	0		2.0	65.0	2.5	/experiments/knapen_aot/oldvideos/S_yt-9Z9-RT-ysEE_85.mp4	0.0	260.5878758430481	0.016698122024536133
67	200.82449889183044	response	0	4		65.0	2.5	/experiments/knapen_aot/oldvideos/S_yt-9Z9-RT-ysEE_85.mp4	0.0	260.59720492362976	
67	200.83186793327332	movie	1		301.0	65.0	2.5	/experiments/knapen_aot/oldvideos/S_yt-9Z9-RT-ysEE_85.mp4	0.0	260.60457396507263	2.508368968963623
67	203.34023690223694	fix_post	2		12.0	65.0	2.5	/experiments/knapen_aot/oldvideos/S_yt-9Z9-RT-ysEE_85.mp4	0.0	263.11294293403625	0.09999608993530273
68	203.44023299217224	fix_pre	0		39.0	66.0	2.5	/experiments/knapen_aot/oldvideos/S_S006_C007_SDR_2K_AVC.mp4	0.0	263.21293902397156	0.32492685317993164
68	203.75703692436218	response	0	2		66.0	2.5	/experiments/knapen_aot/oldvideos/S_S006_C007_SDR_2K_AVC.mp4	0.0	263.5297429561615	
68	203.76515984535217	movie	1		167.0	66.0	2.5	/experiments/knapen_aot/oldvideos/S_S006_C007_SDR_2K_AVC.mp4	0.0	263.5378658771515	2.5084481239318848
68	206.27360796928406	fix_post	2		12.0	66.0	2.5	/experiments/knapen_aot/oldvideos/S_S006_C007_SDR_2K_AVC.mp4	0.0	266.0463140010834	0.09991288185119629
69	206.37352085113525	fix_pre	0		12.0	67.0	2.5	/experiments/knapen_aot/oldvideos/S_yt-2i53vKte7SA_117.mp4	0.0	266.14622688293457	0.10000395774841309
69	206.46532893180847	response	0	4		67.0	2.5	/experiments/knapen_aot/oldvideos/S_yt-2i53vKte7SA_117.mp4	0.0	266.2380349636078	
69	206.47352480888367	movie	1		301.0	67.0	2.5	/experiments/knapen_aot/oldvideos/S_yt-2i53vKte7SA_117.mp4	0.0	266.246230840683	2.508366107940674
69	208.98189091682434	fix_post	2		12.0	67.0	2.5	/experiments/knapen_aot/oldvideos/S_yt-2i53vKte7SA_117.mp4	0.0	268.75459694862366	0.09990787506103516
70	209.08179879188538	fix_pre	0		29.0	68.0	2.5	/experiments/knapen_aot/oldvideos/R_S_yt--v_iMUMMX6g_39.mp4	0.0	268.8545048236847	0.2423381805419922
70	209.31525588035583	response	0	4		68.0	2.5	/experiments/knapen_aot/oldvideos/R_S_yt--v_iMUMMX6g_39.mp4	0.0	269.08796191215515	
70	209.32413697242737	movie	1		301.0	68.0	2.5	/experiments/knapen_aot/oldvideos/R_S_yt--v_iMUMMX6g_39.mp4	0.0	269.0968430042267	2.507654905319214
70	211.83179187774658	fix_post	2		12.0	68.0	2.5	/experiments/knapen_aot/oldvideos/R_S_yt--v_iMUMMX6g_39.mp4	0.0	271.6044979095459	0.10011792182922363
71	211.9319097995758	fix_pre	0		18.0	69.0	2.5	blank	1.0	271.7046158313751	0.14982104301452637
71	212.07360982894897	response	0	4		69.0	2.5	blank	1.0	271.8463158607483	
71	212.08173084259033	movie	1		301.0	69.0	2.5	blank	1.0	271.85443687438965	2.508336067199707
71	214.59006690979004	fix_post	2		12.0	69.0	2.5	blank	1.0	274.36277294158936	0.1000680923461914
72	214.69013500213623	fix_pre	0		27.0	70.0	2.5	/experiments/knapen_aot/oldvideos/S_ILSVRC2015_train_00768000.mp4	0.0	274.46284103393555	0.22501897811889648
72	214.90690684318542	response	0	4		70.0	2.5	/experiments/knapen_aot/oldvideos/S_ILSVRC2015_train_00768000.mp4	0.0	274.67961287498474	
72	214.91515398025513	movie	1		301.0	70.0	2.5	/experiments/knapen_aot/oldvideos/S_ILSVRC2015_train_00768000.mp4	0.0	274.68786001205444	2.5084450244903564
72	217.42359900474548	fix_post	2		12.0	70.0	2.5	/experiments/knapen_aot/oldvideos/S_ILSVRC2015_train_00768000.mp4	0.0	277.1963050365448	0.09982585906982422
73	217.5234248638153	fix_pre	0		19.0	71.0	2.5	/experiments/knapen_aot/oldvideos/R_S_yt-Kwfwhd07dVo_2.mp4	0.0	277.2961308956146	0.15832304954528809
73	217.6735429763794	response	0	4		71.0	2.5	/experiments/knapen_aot/oldvideos/R_S_yt-Kwfwhd07dVo_2.mp4	0.0	277.4462490081787	
73	217.6817479133606	movie	1		301.0	71.0	2.5	/experiments/knapen_aot/oldvideos/R_S_yt-Kwfwhd07dVo_2.mp4	0.0	277.4544539451599	2.508368968963623
73	220.19011688232422	fix_post	2		12.0	71.0	2.5	/experiments/knapen_aot/oldvideos/R_S_yt-Kwfwhd07dVo_2.mp4	0.0	279.96282291412354	0.09996199607849121
74	220.2900788784027	fix_pre	0		52.0	72.0	2.5	/experiments/knapen_aot/oldvideos/S_yt--Ra34zJ69AU_68.mp4	0.0	280.062784910202	0.43335509300231934
74	220.71520900726318	response	0	4		72.0	2.5	/experiments/knapen_aot/oldvideos/S_yt--Ra34zJ69AU_68.mp4	0.0	280.4879150390625	
74	220.72343397140503	movie	1		301.0	72.0	2.5	/experiments/knapen_aot/oldvideos/S_yt--Ra34zJ69AU_68.mp4	0.0	280.49614000320435	2.508255958557129
74	223.23168992996216	fix_post	2		12.0	72.0	2.5	/experiments/knapen_aot/oldvideos/S_yt--Ra34zJ69AU_68.mp4	0.0	283.0043959617615	0.10004591941833496
75	223.3317358493805	fix_pre	0		23.0	73.0	2.5	/experiments/knapen_aot/oldvideos/R_S_pexels-cottonbro-6789228.mp4	0.0	283.1044418811798	0.1936500072479248
75	223.5151720046997	response	0	4		73.0	2.5	/experiments/knapen_aot/oldvideos/R_S_pexels-cottonbro-6789228.mp4	0.0	283.287878036499	
75	223.52538585662842	movie	1		199.0	73.0	2.5	/experiments/knapen_aot/oldvideos/R_S_pexels-cottonbro-6789228.mp4	0.0	283.29809188842773	2.506382942199707
75	226.03176879882812	fix_post	2		12.0	73.0	2.5	/experiments/knapen_aot/oldvideos/R_S_pexels-cottonbro-6789228.mp4	0.0	285.80447483062744	0.09999704360961914
76	226.13176584243774	fix_pre	0		30.0	74.0	2.5	/experiments/knapen_aot/oldvideos/R_S_yt-JQOHHL30Y54_101.mp4	0.0	285.90447187423706	0.2499251365661621
76	226.37352085113525	response	0	4		74.0	2.5	/experiments/knapen_aot/oldvideos/R_S_yt-JQOHHL30Y54_101.mp4	0.0	286.14622688293457	
76	226.3816909790039	movie	1		301.0	74.0	2.5	/experiments/knapen_aot/oldvideos/R_S_yt-JQOHHL30Y54_101.mp4	0.0	286.1543970108032	2.5087828636169434
76	228.89047384262085	fix_post	2		12.0	74.0	2.5	/experiments/knapen_aot/oldvideos/R_S_yt-JQOHHL30Y54_101.mp4	0.0	288.66317987442017	0.0996401309967041
77	228.99011397361755	fix_pre	0		31.0	75.0	2.5	/experiments/knapen_aot/oldvideos/S_ILSVRC2015_train_00465000.mp4	0.0	288.76282000541687	0.258267879486084
77	229.24020791053772	response	0	4		75.0	2.5	/experiments/knapen_aot/oldvideos/S_ILSVRC2015_train_00465000.mp4	0.0	289.01291394233704	
77	229.24838185310364	movie	1		301.0	75.0	2.5	/experiments/knapen_aot/oldvideos/S_ILSVRC2015_train_00465000.mp4	0.0	289.02108788490295	2.5084550380706787
77	231.75683689117432	fix_post	2		12.0	75.0	2.5	/experiments/knapen_aot/oldvideos/S_ILSVRC2015_train_00465000.mp4	0.0	291.52954292297363	0.09986495971679688
78	231.8567018508911	fix_pre	0		22.0	76.0	2.5	/experiments/knapen_aot/oldvideos/R_S_ILSVRC2015_train_00768000.mp4	0.0	291.62940788269043	0.18329310417175293
78	232.0318088531494	response	0	4		76.0	2.5	/experiments/knapen_aot/oldvideos/R_S_ILSVRC2015_train_00768000.mp4	0.0	291.80451488494873	
78	232.03999495506287	movie	1		301.0	76.0	2.5	/experiments/knapen_aot/oldvideos/R_S_ILSVRC2015_train_00768000.mp4	0.0	291.8127009868622	2.508791923522949
78	234.54878687858582	fix_post	2		12.0	76.0	2.5	/experiments/knapen_aot/oldvideos/R_S_ILSVRC2015_train_00768000.mp4	0.0	294.32149291038513	0.09972095489501953
79	234.64850783348083	fix_pre	0		17.0	77.0	2.5	blank	1.0	294.42121386528015	0.14151811599731445
79	234.78179001808167	response	0	4		77.0	2.5	blank	1.0	294.554496049881	
79	234.79002594947815	movie	1		301.0	77.0	2.5	blank	1.0	294.56273198127747	2.508384943008423
79	237.29841089248657	fix_post	2		12.0	77.0	2.5	blank	1.0	297.0711169242859	0.10032391548156738
80	237.39873480796814	fix_pre	0		217.0	78.0	2.5	/experiments/knapen_aot/oldvideos/S_yt-i-1Gou9SA5U_3.mp4	0.0	297.17144083976746	1.8078691959381104
80	239.19847583770752	response	0	4		78.0	2.5	/experiments/knapen_aot/oldvideos/S_yt-i-1Gou9SA5U_3.mp4	0.0	298.97118186950684	
80	239.20660400390625	movie	1		301.0	78.0	2.5	/experiments/knapen_aot/oldvideos/S_yt-i-1Gou9SA5U_3.mp4	0.0	298.97931003570557	2.5084469318389893
80	241.71505093574524	fix_post	2		12.0	78.0	2.5	/experiments/knapen_aot/oldvideos/S_yt-i-1Gou9SA5U_3.mp4	0.0	301.48775696754456	0.09995293617248535
81	241.81500387191772	fix_pre	0		44.0	79.0	2.5	/experiments/knapen_aot/oldvideos/S_pexels-mikhail-nilov-8410063.mp4	0.0	301.58770990371704	0.36659908294677734
81	242.1734368801117	response	0	4		79.0	2.5	/experiments/knapen_aot/oldvideos/S_pexels-mikhail-nilov-8410063.mp4	0.0	301.946142911911	
81	242.1816029548645	movie	1		170.0	79.0	2.5	/experiments/knapen_aot/oldvideos/S_pexels-mikhail-nilov-8410063.mp4	0.0	301.9543089866638	2.5083229541778564
81	244.68992590904236	fix_post	2		12.0	79.0	2.5	/experiments/knapen_aot/oldvideos/S_pexels-mikhail-nilov-8410063.mp4	0.0	304.4626319408417	0.1000518798828125
82	244.78997778892517	fix_pre	0		5.0	80.0	2.5	/experiments/knapen_aot/oldvideos/S_flickr-53807584@N00-5565833509_7.mp4	0.0	304.5626838207245	0.04165315628051758
82	244.82349681854248	response	0	2		80.0	2.5	/experiments/knapen_aot/oldvideos/S_flickr-53807584@N00-5565833509_7.mp4	0.0	304.5962028503418	
82	244.8316309452057	movie	1		301.0	80.0	2.5	/experiments/knapen_aot/oldvideos/S_flickr-53807584@N00-5565833509_7.mp4	0.0	304.604336977005	2.508450984954834
82	247.34008193016052	fix_post	2		12.0	80.0	2.5	/experiments/knapen_aot/oldvideos/S_flickr-53807584@N00-5565833509_7.mp4	0.0	307.11278796195984	0.09993696212768555
83	247.4400188922882	fix_pre	0		20.0	81.0	2.5	/experiments/knapen_aot/oldvideos/R_S_yt-3aTDYxyF6bc_35.mp4	0.0	307.2127249240875	0.1667470932006836
83	247.59839582443237	response	0	2		81.0	2.5	/experiments/knapen_aot/oldvideos/R_S_yt-3aTDYxyF6bc_35.mp4	0.0	307.3711018562317	
83	247.6067659854889	movie	1		301.0	81.0	2.5	/experiments/knapen_aot/oldvideos/R_S_yt-3aTDYxyF6bc_35.mp4	0.0	307.3794720172882	2.5082128047943115
83	250.1149787902832	fix_post	2		12.0	81.0	2.5	/experiments/knapen_aot/oldvideos/R_S_yt-3aTDYxyF6bc_35.mp4	0.0	309.8876848220825	0.09991908073425293
84	250.21489787101746	fix_pre	0		321.0	82.0	2.5	blank	1.0	309.9876039028168	2.674962043762207
84	252.88170289993286	response	0	4		82.0	2.5	blank	1.0	312.6544089317322	
84	252.88985991477966	movie	1		301.0	82.0	2.5	blank	1.0	312.662565946579	2.5084080696105957
84	255.39826798439026	fix_post	2		12.0	82.0	2.5	blank	1.0	315.1709740161896	0.10002899169921875
85	255.49829697608948	fix_pre	0		27.0	83.0	2.5	/experiments/knapen_aot/oldvideos/R_S_yt-_Hnr82bYGEQ_103.mp4	0.0	315.2710030078888	0.2249438762664795
85	255.71498680114746	response	0	4		83.0	2.5	/experiments/knapen_aot/oldvideos/R_S_yt-_Hnr82bYGEQ_103.mp4	0.0	315.4876928329468	
85	255.72324085235596	movie	1		299.0	83.0	2.5	/experiments/knapen_aot/oldvideos/R_S_yt-_Hnr82bYGEQ_103.mp4	0.0	315.4959468841553	2.5083680152893066
85	258.23160886764526	fix_post	2		12.0	83.0	2.5	/experiments/knapen_aot/oldvideos/R_S_yt-_Hnr82bYGEQ_103.mp4	0.0	318.0043148994446	0.09998703002929688
87	258.33159589767456	stim	0		499.0					318.1043019294739	4.158659934997559
87	258.50669598579407	response	0	4						318.2794020175934	
87	262.4793767929077	response	0	space						322.25208282470703	
