trial_nr	onset	event_type	phase	response	nr_frames	movie_index	movie_duration	movie_file	blank	onset_abs	duration
0	0.13328099250793457	stim	0		54.0					57.966224193573	0.4498770236968994
0	0.5746889114379883	response	0	space						58.40763211250305	
1	0.583158016204834	stim	0		121.0					58.4161012172699	1.0078179836273193
1	1.1577599048614502	response	0	space						58.990703105926514	
1	1.4744560718536377	response	0	space						59.3073992729187	
1	1.5909759998321533	stim	1		119.0					59.42391920089722	0.9918398857116699
1	1.8408598899841309	response	1	space						59.673803091049194	
1	2.165750026702881	response	1	space						59.998693227767944	
1	2.524885892868042	response	1	space						60.357829093933105	
1	2.5603110790252686	response	1	2						60.39325428009033	
2	2.5828158855438232	fix_pre	0		40.0	0.0	2.5	/experiments/knapen_aot/videos/S_yt-PREz5XiiXg0_107.mp4	0.0	60.41575908660889	0.33332204818725586
2	2.9119439125061035	response	0	space		0.0	2.5	/experiments/knapen_aot/videos/S_yt-PREz5XiiXg0_107.mp4	0.0	60.74488711357117	
2	2.916137933731079	movie	1		295.0	0.0	2.5	/experiments/knapen_aot/videos/S_yt-PREz5XiiXg0_107.mp4	0.0	60.74908113479614	2.507862091064453
2	5.424000024795532	fix_post	2		12.0	0.0	2.5	/experiments/knapen_aot/videos/S_yt-PREz5XiiXg0_107.mp4	0.0	63.256943225860596	0.09999895095825195
3	5.523998975753784	fix_pre	0		44.0	1.0	2.5	/experiments/knapen_aot/videos/R_S_yt-s2tZ2NIQrxg_175.mp4	0.0	63.35694217681885	0.3666689395904541
3	5.883327960968018	response	0	2		1.0	2.5	/experiments/knapen_aot/videos/R_S_yt-s2tZ2NIQrxg_175.mp4	0.0	63.71627116203308	
3	5.890667915344238	movie	1		301.0	1.0	2.5	/experiments/knapen_aot/videos/R_S_yt-s2tZ2NIQrxg_175.mp4	0.0	63.7236111164093	2.5083091259002686
3	8.398977041244507	fix_post	2		12.0	1.0	2.5	/experiments/knapen_aot/videos/R_S_yt-s2tZ2NIQrxg_175.mp4	0.0	66.23192024230957	0.10001587867736816
4	8.498992919921875	fix_pre	0		28.0	2.0	2.5	/experiments/knapen_aot/videos/S_m-aeoYPMqfg_185.mp4	0.0	66.33193612098694	0.23322200775146484
4	8.724178075790405	response	0	2		2.0	2.5	/experiments/knapen_aot/videos/S_m-aeoYPMqfg_185.mp4	0.0	66.55712127685547	
4	8.73221492767334	movie	1		301.0	2.0	2.5	/experiments/knapen_aot/videos/S_m-aeoYPMqfg_185.mp4	0.0	66.5651581287384	2.5083701610565186
4	11.240585088729858	fix_post	2		12.0	2.0	2.5	/experiments/knapen_aot/videos/S_m-aeoYPMqfg_185.mp4	0.0	69.07352828979492	0.10006093978881836
5	11.340646028518677	fix_pre	0		16.0	3.0	2.5	/experiments/knapen_aot/videos/R_S_Pexels_Videos_2795731.mp4	0.0	69.17358922958374	0.13327598571777344
5	11.465758085250854	response	0	2		3.0	2.5	/experiments/knapen_aot/videos/R_S_Pexels_Videos_2795731.mp4	0.0	69.29870128631592	
5	11.47392201423645	movie	1		176.0	3.0	2.5	/experiments/knapen_aot/videos/R_S_Pexels_Videos_2795731.mp4	0.0	69.30686521530151	2.508314847946167
5	13.982236862182617	fix_post	2		12.0	3.0	2.5	/experiments/knapen_aot/videos/R_S_Pexels_Videos_2795731.mp4	0.0	71.81518006324768	0.09998106956481934
6	14.082217931747437	fix_pre	0		23.0	4.0	2.5	/experiments/knapen_aot/videos/R_S_pexels-yaroslav-shuraev-8091356.mp4	0.0	71.9151611328125	0.19168400764465332
6	14.265681982040405	response	0	2		4.0	2.5	/experiments/knapen_aot/videos/R_S_pexels-yaroslav-shuraev-8091356.mp4	0.0	72.09862518310547	
6	14.27390193939209	movie	1		190.0	4.0	2.5	/experiments/knapen_aot/videos/R_S_pexels-yaroslav-shuraev-8091356.mp4	0.0	72.10684514045715	2.5083630084991455
6	16.782264947891235	fix_post	2		12.0	4.0	2.5	/experiments/knapen_aot/videos/R_S_pexels-yaroslav-shuraev-8091356.mp4	0.0	74.6152081489563	0.09996700286865234
7	16.882231950759888	fix_pre	0		26.0	5.0	2.5	/experiments/knapen_aot/videos/S_ILSVRC2015_train_00434000.mp4	0.0	74.71517515182495	0.21664690971374512
7	17.09073305130005	response	0	2		5.0	2.5	/experiments/knapen_aot/videos/S_ILSVRC2015_train_00434000.mp4	0.0	74.92367625236511	
7	17.098878860473633	movie	1		301.0	5.0	2.5	/experiments/knapen_aot/videos/S_ILSVRC2015_train_00434000.mp4	0.0	74.9318220615387	2.5083301067352295
7	19.607208967208862	fix_post	2		12.0	5.0	2.5	/experiments/knapen_aot/videos/S_ILSVRC2015_train_00434000.mp4	0.0	77.44015216827393	0.10052299499511719
8	19.70773196220398	fix_pre	0		16.0	6.0	2.5	/experiments/knapen_aot/videos/R_S_yt-F2x6e7e7cAE_70.mp4	0.0	77.54067516326904	0.13283205032348633
8	19.83244299888611	response	0	2		6.0	2.5	/experiments/knapen_aot/videos/R_S_yt-F2x6e7e7cAE_70.mp4	0.0	77.66538619995117	
8	19.840564012527466	movie	1		301.0	6.0	2.5	/experiments/knapen_aot/videos/R_S_yt-F2x6e7e7cAE_70.mp4	0.0	77.67350721359253	2.508241891860962
8	22.348805904388428	fix_post	2		12.0	6.0	2.5	/experiments/knapen_aot/videos/R_S_yt-F2x6e7e7cAE_70.mp4	0.0	80.18174910545349	0.10010099411010742
9	22.448906898498535	fix_pre	0		49.0	7.0	2.5	blank	1.0	80.2818500995636	0.4083061218261719
9	22.84907603263855	response	0	2		7.0	2.5	blank	1.0	80.68201923370361	
9	22.857213020324707	movie	1		301.0	7.0	2.5	blank	1.0	80.69015622138977	2.5083508491516113
9	25.124034881591797	response	1	2		7.0	2.5	blank	1.0	82.95697808265686	
9	25.36556386947632	fix_post	2		12.0	7.0	2.5	blank	1.0	83.19850707054138	0.10001707077026367
10	25.465580940246582	fix_pre	0		33.0	8.0	2.5	/experiments/knapen_aot/videos/S_comp_A007_C017_01156B_v02_SDR_PS_20180925_SDR_2K_AVC.mp4	0.0	83.29852414131165	0.2749519348144531
10	25.732338905334473	response	0	2		8.0	2.5	/experiments/knapen_aot/videos/S_comp_A007_C017_01156B_v02_SDR_PS_20180925_SDR_2K_AVC.mp4	0.0	83.56528210639954	
10	25.740532875061035	movie	1		162.0	8.0	2.5	/experiments/knapen_aot/videos/S_comp_A007_C017_01156B_v02_SDR_PS_20180925_SDR_2K_AVC.mp4	0.0	83.5734760761261	2.5083670616149902
10	28.248899936676025	fix_post	2		12.0	8.0	2.5	/experiments/knapen_aot/videos/S_comp_A007_C017_01156B_v02_SDR_PS_20180925_SDR_2K_AVC.mp4	0.0	86.08184313774109	0.10001707077026367
11	28.34891700744629	fix_pre	0		43.0	9.0	2.5	/experiments/knapen_aot/videos/S_yt-9EnchawJ3pA_90.mp4	0.0	86.18186020851135	0.3586299419403076
11	28.699011087417603	response	0	2		9.0	2.5	/experiments/knapen_aot/videos/S_yt-9EnchawJ3pA_90.mp4	0.0	86.53195428848267	
11	28.707546949386597	movie	1		300.0	9.0	2.5	/experiments/knapen_aot/videos/S_yt-9EnchawJ3pA_90.mp4	0.0	86.54049015045166	2.5080020427703857
11	31.215548992156982	fix_post	2		12.0	9.0	2.5	/experiments/knapen_aot/videos/S_yt-9EnchawJ3pA_90.mp4	0.0	89.04849219322205	0.10001802444458008
12	31.315567016601562	fix_pre	0		32.0	10.0	2.5	/experiments/knapen_aot/videos/S_comp_GL_G002_C002_PSNK_v03_SDR_PS_20180925_SDR_2K_AVC.mp4	0.0	89.14851021766663	0.26692891120910645
12	31.57401204109192	response	0	2		10.0	2.5	/experiments/knapen_aot/videos/S_comp_GL_G002_C002_PSNK_v03_SDR_PS_20180925_SDR_2K_AVC.mp4	0.0	89.40695524215698	
12	31.58249592781067	movie	1		170.0	10.0	2.5	/experiments/knapen_aot/videos/S_comp_GL_G002_C002_PSNK_v03_SDR_PS_20180925_SDR_2K_AVC.mp4	0.0	89.41543912887573	2.508017063140869
12	34.09051299095154	fix_post	2		12.0	10.0	2.5	/experiments/knapen_aot/videos/S_comp_GL_G002_C002_PSNK_v03_SDR_PS_20180925_SDR_2K_AVC.mp4	0.0	91.9234561920166	0.09997892379760742
13	34.190491914749146	fix_pre	0		35.0	11.0	2.5	/experiments/knapen_aot/videos/R_S_yt-szXWk_X_67Q_10.mp4	0.0	92.02343511581421	0.29167699813842773
13	34.474019050598145	response	0	2		11.0	2.5	/experiments/knapen_aot/videos/R_S_yt-szXWk_X_67Q_10.mp4	0.0	92.30696225166321	
13	34.48216891288757	movie	1		301.0	11.0	2.5	/experiments/knapen_aot/videos/R_S_yt-szXWk_X_67Q_10.mp4	0.0	92.31511211395264	2.5083069801330566
13	36.99047589302063	fix_post	2		12.0	11.0	2.5	/experiments/knapen_aot/videos/R_S_yt-szXWk_X_67Q_10.mp4	0.0	94.8234190940857	0.10005903244018555
14	37.090534925460815	fix_pre	0		29.0	12.0	2.5	/experiments/knapen_aot/videos/S_pexels-polina-tankilevitch-8203088.mp4	0.0	94.92347812652588	0.24204516410827637
14	37.32395100593567	response	0	2		12.0	2.5	/experiments/knapen_aot/videos/S_pexels-polina-tankilevitch-8203088.mp4	0.0	95.15689420700073	
14	37.33258008956909	movie	1		164.0	12.0	2.5	/experiments/knapen_aot/videos/S_pexels-polina-tankilevitch-8203088.mp4	0.0	95.16552329063416	2.5079479217529297
14	39.84052801132202	fix_post	2		12.0	12.0	2.5	/experiments/knapen_aot/videos/S_pexels-polina-tankilevitch-8203088.mp4	0.0	97.67347121238708	0.09999895095825195
15	39.94052696228027	fix_pre	0		36.0	13.0	2.5	/experiments/knapen_aot/videos/R_S_wc-dwTccI0TNwps_15.mp4	0.0	97.77347016334534	0.29994893074035645
15	40.23227095603943	response	0	2		13.0	2.5	/experiments/knapen_aot/videos/R_S_wc-dwTccI0TNwps_15.mp4	0.0	98.06521415710449	
15	40.24047589302063	movie	1		301.0	13.0	2.5	/experiments/knapen_aot/videos/R_S_wc-dwTccI0TNwps_15.mp4	0.0	98.0734190940857	2.508368968963623
15	42.74884486198425	fix_post	2		12.0	13.0	2.5	/experiments/knapen_aot/videos/R_S_wc-dwTccI0TNwps_15.mp4	0.0	100.58178806304932	0.10008502006530762
16	42.84892988204956	fix_pre	0		41.0	14.0	2.5	blank	1.0	100.68187308311462	0.3415560722351074
16	43.182283878326416	response	0	2		14.0	2.5	blank	1.0	101.01522707939148	
16	43.19048595428467	movie	1		301.0	14.0	2.5	blank	1.0	101.02342915534973	2.5083301067352295
16	45.6988160610199	fix_post	2		12.0	14.0	2.5	blank	1.0	103.53175926208496	0.1000208854675293
17	45.79883694648743	fix_pre	0		48.0	15.0	2.5	/experiments/knapen_aot/videos/R_S_yt-X6ivH9SqGu8_306.mp4	0.0	103.63178014755249	0.39998912811279297
17	46.1906418800354	response	0	2		15.0	2.5	/experiments/knapen_aot/videos/R_S_yt-X6ivH9SqGu8_306.mp4	0.0	104.02358508110046	
17	46.19882607460022	movie	1		301.0	15.0	2.5	/experiments/knapen_aot/videos/R_S_yt-X6ivH9SqGu8_306.mp4	0.0	104.03176927566528	2.508316993713379
17	48.7071430683136	fix_post	2		12.0	15.0	2.5	/experiments/knapen_aot/videos/R_S_yt-X6ivH9SqGu8_306.mp4	0.0	106.54008626937866	0.09998798370361328
18	48.80713105201721	fix_pre	0		26.0	16.0	2.5	/experiments/knapen_aot/videos/R_S_yt-2IxVZeiSv3g_28.mp4	0.0	106.64007425308228	0.21665096282958984
18	49.00809407234192	response	0	2		16.0	2.5	/experiments/knapen_aot/videos/R_S_yt-2IxVZeiSv3g_28.mp4	0.0	106.84103727340698	
18	49.0237820148468	movie	1		301.0	16.0	2.5	/experiments/knapen_aot/videos/R_S_yt-2IxVZeiSv3g_28.mp4	0.0	106.85672521591187	2.5082879066467285
18	51.53206992149353	fix_post	2		12.0	16.0	2.5	/experiments/knapen_aot/videos/R_S_yt-2IxVZeiSv3g_28.mp4	0.0	109.3650131225586	0.10007095336914062
19	51.63214087486267	fix_pre	0		52.0	17.0	2.5	/experiments/knapen_aot/videos/R_S_yt-1n1jTroiwJs_163.mp4	0.0	109.46508407592773	0.433319091796875
19	52.05728793144226	response	0	2		17.0	2.5	/experiments/knapen_aot/videos/R_S_yt-1n1jTroiwJs_163.mp4	0.0	109.89023113250732	
19	52.065459966659546	movie	1		301.0	17.0	2.5	/experiments/knapen_aot/videos/R_S_yt-1n1jTroiwJs_163.mp4	0.0	109.89840316772461	2.5082790851593018
19	54.57373905181885	fix_post	2		12.0	17.0	2.5	/experiments/knapen_aot/videos/R_S_yt-1n1jTroiwJs_163.mp4	0.0	112.40668225288391	0.1000819206237793
20	54.67382097244263	fix_pre	0		71.0	18.0	2.5	/experiments/knapen_aot/videos/S_yt-4ouMuGUuPHI_193.mp4	0.0	112.50676417350769	0.5917279720306396
20	55.25720405578613	response	0	2		18.0	2.5	/experiments/knapen_aot/videos/S_yt-4ouMuGUuPHI_193.mp4	0.0	113.0901472568512	
20	55.26554894447327	movie	1		301.0	18.0	2.5	/experiments/knapen_aot/videos/S_yt-4ouMuGUuPHI_193.mp4	0.0	113.09849214553833	2.5082380771636963
20	57.77378702163696	fix_post	2		12.0	18.0	2.5	/experiments/knapen_aot/videos/S_yt-4ouMuGUuPHI_193.mp4	0.0	115.60673022270203	0.10020995140075684
21	57.87399697303772	fix_pre	0		52.0	19.0	2.5	/experiments/knapen_aot/videos/R_S_yt-Fm97IY0Z2LU_110.mp4	0.0	115.70694017410278	0.43311500549316406
21	58.29892301559448	response	0	2		19.0	2.5	/experiments/knapen_aot/videos/R_S_yt-Fm97IY0Z2LU_110.mp4	0.0	116.13186621665955	
21	58.307111978530884	movie	1		301.0	19.0	2.5	/experiments/knapen_aot/videos/R_S_yt-Fm97IY0Z2LU_110.mp4	0.0	116.14005517959595	2.508389949798584
21	60.81550192832947	fix_post	2		12.0	19.0	2.5	/experiments/knapen_aot/videos/R_S_yt-Fm97IY0Z2LU_110.mp4	0.0	118.64844512939453	0.10015511512756348
22	60.91565704345703	fix_pre	0		51.0	20.0	2.5	blank	1.0	118.7486002445221	0.42478299140930176
22	61.33226990699768	response	0	2		20.0	2.5	blank	1.0	119.16521310806274	
22	61.34044003486633	movie	1		301.0	20.0	2.5	blank	1.0	119.1733832359314	2.5083119869232178
22	63.49884390830994	response	1	2		20.0	2.5	blank	1.0	121.331787109375	
22	63.84875202178955	fix_post	2		12.0	20.0	2.5	blank	1.0	121.68169522285461	0.10004591941833496
23	63.948797941207886	fix_pre	0		43.0	21.0	2.5	/experiments/knapen_aot/videos/R_S_yt-Ojy5TMPX8_Q_165.mp4	0.0	121.78174114227295	0.3582930564880371
23	64.29887986183167	response	0	2		21.0	2.5	/experiments/knapen_aot/videos/R_S_yt-Ojy5TMPX8_Q_165.mp4	0.0	122.13182306289673	
23	64.30709099769592	movie	1		299.0	21.0	2.5	/experiments/knapen_aot/videos/R_S_yt-Ojy5TMPX8_Q_165.mp4	0.0	122.14003419876099	2.508323907852173
23	66.8154149055481	fix_post	2		12.0	21.0	2.5	/experiments/knapen_aot/videos/R_S_yt-Ojy5TMPX8_Q_165.mp4	0.0	124.64835810661316	0.10022115707397461
24	66.91563606262207	fix_pre	0		45.0	22.0	2.5	/experiments/knapen_aot/videos/R_S_ILSVRC2015_train_00165009.mp4	0.0	124.74857926368713	0.3749518394470215
24	67.28215503692627	response	0	2		22.0	2.5	/experiments/knapen_aot/videos/R_S_ILSVRC2015_train_00165009.mp4	0.0	125.11509823799133	
24	67.29058790206909	movie	1		300.0	22.0	2.5	/experiments/knapen_aot/videos/R_S_ILSVRC2015_train_00165009.mp4	0.0	125.12353110313416	2.5081021785736084
24	69.7986900806427	fix_post	2		12.0	22.0	2.5	/experiments/knapen_aot/videos/R_S_ILSVRC2015_train_00165009.mp4	0.0	127.63163328170776	0.10005784034729004
25	69.89874792098999	fix_pre	0		29.0	23.0	2.5	/experiments/knapen_aot/videos/S_yt-KNdCiW8m1uY_168.mp4	0.0	127.73169112205505	0.2417161464691162
25	70.13224792480469	response	0	2		23.0	2.5	/experiments/knapen_aot/videos/S_yt-KNdCiW8m1uY_168.mp4	0.0	127.96519112586975	
25	70.1404640674591	movie	1		301.0	23.0	2.5	/experiments/knapen_aot/videos/S_yt-KNdCiW8m1uY_168.mp4	0.0	127.97340726852417	2.50827693939209
25	72.6487410068512	fix_post	2		12.0	23.0	2.5	/experiments/knapen_aot/videos/S_yt-KNdCiW8m1uY_168.mp4	0.0	130.48168420791626	0.1001119613647461
26	72.74885296821594	fix_pre	0		66.0	24.0	2.5	/experiments/knapen_aot/videos/S_yt-YMI27rk5qUQ_117.mp4	0.0	130.581796169281	0.5498878955841064
26	73.29054307937622	response	0	2		24.0	2.5	/experiments/knapen_aot/videos/S_yt-YMI27rk5qUQ_117.mp4	0.0	131.12348628044128	
26	73.29874086380005	movie	1		301.0	24.0	2.5	/experiments/knapen_aot/videos/S_yt-YMI27rk5qUQ_117.mp4	0.0	131.1316840648651	2.5082521438598633
26	75.80699300765991	fix_post	2		12.0	24.0	2.5	/experiments/knapen_aot/videos/S_yt-YMI27rk5qUQ_117.mp4	0.0	133.63993620872498	0.10006403923034668
27	75.90705704689026	fix_pre	0		99.0	25.0	2.5	/experiments/knapen_aot/videos/S_PA_A001_C007_SDR_20190717_SDR_2K_AVC.mp4	0.0	133.74000024795532	0.8249969482421875
27	76.72384595870972	response	0	2		25.0	2.5	/experiments/knapen_aot/videos/S_PA_A001_C007_SDR_20190717_SDR_2K_AVC.mp4	0.0	134.55678915977478	
27	76.73205399513245	movie	1		164.0	25.0	2.5	/experiments/knapen_aot/videos/S_PA_A001_C007_SDR_20190717_SDR_2K_AVC.mp4	0.0	134.5649971961975	2.508331060409546
27	79.24038505554199	fix_post	2		12.0	25.0	2.5	/experiments/knapen_aot/videos/S_PA_A001_C007_SDR_20190717_SDR_2K_AVC.mp4	0.0	137.07332825660706	0.09996700286865234
28	79.34035205841064	fix_pre	0		77.0	26.0	2.5	/experiments/knapen_aot/videos/S_yt-y6zr69M0yHI_76.mp4	0.0	137.1732952594757	0.6417770385742188
28	79.96639204025269	response	0	2		26.0	2.5	/experiments/knapen_aot/videos/S_yt-y6zr69M0yHI_76.mp4	0.0	137.79933524131775	
28	79.98212909698486	movie	1		301.0	26.0	2.5	/experiments/knapen_aot/videos/S_yt-y6zr69M0yHI_76.mp4	0.0	137.81507229804993	2.5083048343658447
28	82.49043393135071	fix_post	2		12.0	26.0	2.5	/experiments/knapen_aot/videos/S_yt-y6zr69M0yHI_76.mp4	0.0	140.32337713241577	0.09993410110473633
29	82.59036803245544	fix_pre	0		61.0	27.0	2.5	blank	1.0	140.4233112335205	0.5083260536193848
29	83.09047389030457	response	0	2		27.0	2.5	blank	1.0	140.92341709136963	
29	83.09869408607483	movie	1		301.0	27.0	2.5	blank	1.0	140.9316372871399	2.5083467960357666
29	85.6070408821106	fix_post	2		12.0	27.0	2.5	blank	1.0	143.43998408317566	0.10011100769042969
30	85.70715188980103	fix_pre	0		41.0	28.0	2.5	/experiments/knapen_aot/videos/R_S_yt-4i1b6NQ9NKs_5.mp4	0.0	143.5400950908661	0.3415200710296631
30	86.04048895835876	response	0	2		28.0	2.5	/experiments/knapen_aot/videos/R_S_yt-4i1b6NQ9NKs_5.mp4	0.0	143.87343215942383	
30	86.04867196083069	movie	1		300.0	28.0	2.5	/experiments/knapen_aot/videos/R_S_yt-4i1b6NQ9NKs_5.mp4	0.0	143.88161516189575	2.508345127105713
30	88.5570170879364	fix_post	2		12.0	28.0	2.5	/experiments/knapen_aot/videos/R_S_yt-4i1b6NQ9NKs_5.mp4	0.0	146.38996028900146	0.09995698928833008
31	88.65697407722473	fix_pre	0		140.0	29.0	2.5	/experiments/knapen_aot/videos/S_yt-Uv0dt_-fWJU_40.mp4	0.0	146.4899172782898	1.166672945022583
31	89.8155300617218	response	0	2		29.0	2.5	/experiments/knapen_aot/videos/S_yt-Uv0dt_-fWJU_40.mp4	0.0	147.64847326278687	
31	89.82364702224731	movie	1		301.0	29.0	2.5	/experiments/knapen_aot/videos/S_yt-Uv0dt_-fWJU_40.mp4	0.0	147.65659022331238	2.5085389614105225
31	92.33218598365784	fix_post	2		12.0	29.0	2.5	/experiments/knapen_aot/videos/S_yt-Uv0dt_-fWJU_40.mp4	0.0	150.1651291847229	0.09984397888183594
32	92.43202996253967	fix_pre	0		63.0	30.0	2.5	/experiments/knapen_aot/videos/R_S_comp_LA_A011_C003_DGRN_LNFIX_STAB_v57_SDR_PS_20181002_SDR_2K_AVC.mp4	0.0	150.26497316360474	0.525036096572876
32	92.94123101234436	response	0	2		30.0	2.5	/experiments/knapen_aot/videos/R_S_comp_LA_A011_C003_DGRN_LNFIX_STAB_v57_SDR_PS_20181002_SDR_2K_AVC.mp4	0.0	150.77417421340942	
32	92.95706605911255	movie	1		168.0	30.0	2.5	/experiments/knapen_aot/videos/R_S_comp_LA_A011_C003_DGRN_LNFIX_STAB_v57_SDR_PS_20181002_SDR_2K_AVC.mp4	0.0	150.7900092601776	2.5082638263702393
32	95.46532988548279	fix_post	2		12.0	30.0	2.5	/experiments/knapen_aot/videos/R_S_comp_LA_A011_C003_DGRN_LNFIX_STAB_v57_SDR_PS_20181002_SDR_2K_AVC.mp4	0.0	153.29827308654785	0.09990620613098145
33	95.56523609161377	fix_pre	0		34.0	31.0	2.5	/experiments/knapen_aot/videos/S_yt-i4kSCZ8rNC0_11.mp4	0.0	153.39817929267883	0.2834138870239258
33	95.84035301208496	response	0	2		31.0	2.5	/experiments/knapen_aot/videos/S_yt-i4kSCZ8rNC0_11.mp4	0.0	153.67329621315002	
33	95.8486499786377	movie	1		301.0	31.0	2.5	/experiments/knapen_aot/videos/S_yt-i4kSCZ8rNC0_11.mp4	0.0	153.68159317970276	2.5083670616149902
33	98.35701704025269	fix_post	2		12.0	31.0	2.5	/experiments/knapen_aot/videos/S_yt-i4kSCZ8rNC0_11.mp4	0.0	156.18996024131775	0.09996891021728516
34	98.45698595046997	fix_pre	0		141.0	32.0	2.5	/experiments/knapen_aot/videos/R_S_yt-n1snPiGfg0A_45.mp4	0.0	156.28992915153503	1.1749351024627686
34	99.62380003929138	response	0	2		32.0	2.5	/experiments/knapen_aot/videos/R_S_yt-n1snPiGfg0A_45.mp4	0.0	157.45674324035645	
34	99.63192105293274	movie	1		301.0	32.0	2.5	/experiments/knapen_aot/videos/R_S_yt-n1snPiGfg0A_45.mp4	0.0	157.4648642539978	2.5083959102630615
34	102.1403169631958	fix_post	2		12.0	32.0	2.5	/experiments/knapen_aot/videos/R_S_yt-n1snPiGfg0A_45.mp4	0.0	159.97326016426086	0.10002613067626953
35	102.24034309387207	fix_pre	0		158.0	33.0	2.5	/experiments/knapen_aot/videos/S_yt-c-H45QS0CF4_147.mp4	0.0	160.07328629493713	1.3165948390960693
35	103.5488109588623	response	0	2		33.0	2.5	/experiments/knapen_aot/videos/S_yt-c-H45QS0CF4_147.mp4	0.0	161.38175415992737	
35	103.55693793296814	movie	1		301.0	33.0	2.5	/experiments/knapen_aot/videos/S_yt-c-H45QS0CF4_147.mp4	0.0	161.3898811340332	2.508319139480591
35	106.06525707244873	fix_post	2		12.0	33.0	2.5	/experiments/knapen_aot/videos/S_yt-c-H45QS0CF4_147.mp4	0.0	163.8982002735138	0.1000828742980957
36	106.16533994674683	fix_pre	0		51.0	34.0	2.5	/experiments/knapen_aot/videos/R_S_wc-dwTccI0TNwps_15.mp4	0.0	163.9982831478119	0.42496204376220703
36	106.5820860862732	response	0	2		34.0	2.5	/experiments/knapen_aot/videos/R_S_wc-dwTccI0TNwps_15.mp4	0.0	164.41502928733826	
36	106.59030199050903	movie	1		296.0	34.0	2.5	/experiments/knapen_aot/videos/R_S_wc-dwTccI0TNwps_15.mp4	0.0	164.4232451915741	2.508392095565796
36	109.09869408607483	fix_post	2		12.0	34.0	2.5	/experiments/knapen_aot/videos/R_S_wc-dwTccI0TNwps_15.mp4	0.0	166.9316372871399	0.0999598503112793
37	109.19865393638611	fix_pre	0		24.0	35.0	2.5	blank	1.0	167.03159713745117	0.19999408721923828
37	109.38282203674316	response	0	2		35.0	2.5	blank	1.0	167.21576523780823	
37	109.39864802360535	movie	1		301.0	35.0	2.5	blank	1.0	167.2315912246704	2.508323907852173
37	111.90697193145752	fix_post	2		12.0	35.0	2.5	blank	1.0	169.73991513252258	0.09997701644897461
38	112.0069489479065	fix_pre	0		47.0	36.0	2.5	/experiments/knapen_aot/videos/R_S_ILSVRC2015_train_00463000.mp4	0.0	169.83989214897156	0.39160609245300293
38	112.39041304588318	response	0	2		36.0	2.5	/experiments/knapen_aot/videos/R_S_ILSVRC2015_train_00463000.mp4	0.0	170.22335624694824	
38	112.3985550403595	movie	1		301.0	36.0	2.5	/experiments/knapen_aot/videos/R_S_ILSVRC2015_train_00463000.mp4	0.0	170.23149824142456	2.5084028244018555
38	114.90695786476135	fix_post	2		12.0	36.0	2.5	/experiments/knapen_aot/videos/R_S_ILSVRC2015_train_00463000.mp4	0.0	172.73990106582642	0.1000070571899414
39	115.0069649219513	fix_pre	0		83.0	37.0	2.5	/experiments/knapen_aot/videos/R_S_Pexels_Videos_278654_1.mp4	0.0	172.83990812301636	0.6916110515594482
39	115.6828830242157	response	0	2		37.0	2.5	/experiments/knapen_aot/videos/R_S_Pexels_Videos_278654_1.mp4	0.0	173.51582622528076	
39	115.69857597351074	movie	1		165.0	37.0	2.5	/experiments/knapen_aot/videos/R_S_Pexels_Videos_278654_1.mp4	0.0	173.5315191745758	2.508371114730835
39	118.20694708824158	fix_post	2		12.0	37.0	2.5	/experiments/knapen_aot/videos/R_S_Pexels_Videos_278654_1.mp4	0.0	176.03989028930664	0.09998798370361328
40	118.30693507194519	fix_pre	0		25.0	38.0	2.5	/experiments/knapen_aot/videos/S_yt-2LCHVTVwJ5E_235.mp4	0.0	176.13987827301025	0.2083117961883545
40	118.49959802627563	response	0	2		38.0	2.5	/experiments/knapen_aot/videos/S_yt-2LCHVTVwJ5E_235.mp4	0.0	176.3325412273407	
40	118.51524686813354	movie	1		301.0	38.0	2.5	/experiments/knapen_aot/videos/S_yt-2LCHVTVwJ5E_235.mp4	0.0	176.3481900691986	2.508338212966919
40	121.02358508110046	fix_post	2		12.0	38.0	2.5	/experiments/knapen_aot/videos/S_yt-2LCHVTVwJ5E_235.mp4	0.0	178.85652828216553	0.10007691383361816
41	121.12366199493408	fix_pre	0		43.0	39.0	2.5	/experiments/knapen_aot/videos/R_S_yt-i4kSCZ8rNC0_11.mp4	0.0	178.95660519599915	0.3582160472869873
41	121.47372603416443	response	0	2		39.0	2.5	/experiments/knapen_aot/videos/R_S_yt-i4kSCZ8rNC0_11.mp4	0.0	179.3066692352295	
41	121.48187804222107	movie	1		301.0	39.0	2.5	/experiments/knapen_aot/videos/R_S_yt-i4kSCZ8rNC0_11.mp4	0.0	179.31482124328613	2.508354902267456
41	123.99023294448853	fix_post	2		12.0	39.0	2.5	/experiments/knapen_aot/videos/R_S_yt-i4kSCZ8rNC0_11.mp4	0.0	181.8231761455536	0.0999910831451416
42	124.09022402763367	fix_pre	0		19.0	40.0	2.5	/experiments/knapen_aot/videos/S_BsNCrwV7d8Q_9.mp4	0.0	181.92316722869873	0.15835785865783691
42	124.2403290271759	response	0	2		40.0	2.5	/experiments/knapen_aot/videos/S_BsNCrwV7d8Q_9.mp4	0.0	182.07327222824097	
42	124.2485818862915	movie	1		301.0	40.0	2.5	/experiments/knapen_aot/videos/S_BsNCrwV7d8Q_9.mp4	0.0	182.08152508735657	2.508301019668579
42	126.75688290596008	fix_post	2		12.0	40.0	2.5	/experiments/knapen_aot/videos/S_BsNCrwV7d8Q_9.mp4	0.0	184.58982610702515	0.10001707077026367
43	126.85689997673035	fix_pre	0		29.0	41.0	2.5	/experiments/knapen_aot/videos/R_S_yt-t23g0U_hAgg_32.mp4	0.0	184.6898431777954	0.2415790557861328
43	127.0903730392456	response	0	2		41.0	2.5	/experiments/knapen_aot/videos/R_S_yt-t23g0U_hAgg_32.mp4	0.0	184.92331624031067	
43	127.09847903251648	movie	1		301.0	41.0	2.5	/experiments/knapen_aot/videos/R_S_yt-t23g0U_hAgg_32.mp4	0.0	184.93142223358154	2.508431911468506
43	129.60691094398499	fix_post	2		12.0	41.0	2.5	/experiments/knapen_aot/videos/R_S_yt-t23g0U_hAgg_32.mp4	0.0	187.43985414505005	0.10002994537353516
44	129.70694088935852	fix_pre	0		41.0	42.0	2.5	blank	1.0	187.53988409042358	0.3415679931640625
44	130.04037189483643	response	0	2		42.0	2.5	blank	1.0	187.8733150959015	
44	130.04850888252258	movie	1		301.0	42.0	2.5	blank	1.0	187.88145208358765	2.508369207382202
44	132.55687808990479	fix_post	2		12.0	42.0	2.5	blank	1.0	190.38982129096985	0.0999908447265625
45	132.65686893463135	fix_pre	0		48.0	43.0	2.5	/experiments/knapen_aot/videos/S_yt-LZS1RrEtTeQ_136.mp4	0.0	190.4898121356964	0.39997100830078125
45	133.04865288734436	response	0	2		43.0	2.5	/experiments/knapen_aot/videos/S_yt-LZS1RrEtTeQ_136.mp4	0.0	190.88159608840942	
45	133.05683994293213	movie	1		301.0	43.0	2.5	/experiments/knapen_aot/videos/S_yt-LZS1RrEtTeQ_136.mp4	0.0	190.8897831439972	2.50832200050354
45	135.56516194343567	fix_post	2		12.0	43.0	2.5	/experiments/knapen_aot/videos/S_yt-LZS1RrEtTeQ_136.mp4	0.0	193.39810514450073	0.10001993179321289
46	135.66518187522888	fix_pre	0		41.0	44.0	2.5	/experiments/knapen_aot/videos/S_yt-9t5-3Qe_t9A_591.mp4	0.0	193.49812507629395	0.3416321277618408
46	135.99868392944336	response	0	2		44.0	2.5	/experiments/knapen_aot/videos/S_yt-9t5-3Qe_t9A_591.mp4	0.0	193.83162713050842	
46	136.00681400299072	movie	1		301.0	44.0	2.5	/experiments/knapen_aot/videos/S_yt-9t5-3Qe_t9A_591.mp4	0.0	193.8397572040558	2.508341073989868
46	138.5151550769806	fix_post	2		12.0	44.0	2.5	/experiments/knapen_aot/videos/S_yt-9t5-3Qe_t9A_591.mp4	0.0	196.34809827804565	0.10002398490905762
47	138.61517906188965	fix_pre	0		88.0	45.0	2.5	/experiments/knapen_aot/videos/S_yt-RNPFV7lgAvE_362.mp4	0.0	196.4481222629547	0.7333319187164307
47	139.34039902687073	response	0	2		45.0	2.5	/experiments/knapen_aot/videos/S_yt-RNPFV7lgAvE_362.mp4	0.0	197.1733422279358	
47	139.34851098060608	movie	1		301.0	45.0	2.5	/experiments/knapen_aot/videos/S_yt-RNPFV7lgAvE_362.mp4	0.0	197.18145418167114	2.508373975753784
47	141.85688495635986	fix_post	2		12.0	45.0	2.5	/experiments/knapen_aot/videos/S_yt-RNPFV7lgAvE_362.mp4	0.0	199.68982815742493	0.09999895095825195
48	141.95688390731812	fix_pre	0		38.0	46.0	2.5	/experiments/knapen_aot/videos/R_S_comp_H012_C009_PS_v01_SDR_PS_20180925_SDR_2K_AVC.mp4	0.0	199.78982710838318	0.31664514541625977
48	142.265282869339	response	0	2		46.0	2.5	/experiments/knapen_aot/videos/R_S_comp_H012_C009_PS_v01_SDR_PS_20180925_SDR_2K_AVC.mp4	0.0	200.09822607040405	
48	142.27352905273438	movie	1		165.0	46.0	2.5	/experiments/knapen_aot/videos/R_S_comp_H012_C009_PS_v01_SDR_PS_20180925_SDR_2K_AVC.mp4	0.0	200.10647225379944	2.508312940597534
48	144.7818419933319	fix_post	2		12.0	46.0	2.5	/experiments/knapen_aot/videos/R_S_comp_H012_C009_PS_v01_SDR_PS_20180925_SDR_2K_AVC.mp4	0.0	202.61478519439697	0.09998393058776855
49	144.88182592391968	fix_pre	0		33.0	47.0	2.5	/experiments/knapen_aot/videos/S_wc-PsidKmkEV7Km_14.mp4	0.0	202.71476912498474	0.2761969566345215
49	145.14867997169495	response	0	2		47.0	2.5	/experiments/knapen_aot/videos/S_wc-PsidKmkEV7Km_14.mp4	0.0	202.98162317276	
49	145.1580228805542	movie	1		162.0	47.0	2.5	/experiments/knapen_aot/videos/S_wc-PsidKmkEV7Km_14.mp4	0.0	202.99096608161926	2.507112979888916
49	147.66513586044312	fix_post	2		12.0	47.0	2.5	/experiments/knapen_aot/videos/S_wc-PsidKmkEV7Km_14.mp4	0.0	205.49807906150818	0.10000419616699219
50	147.7651400566101	fix_pre	0		18.0	48.0	2.5	/experiments/knapen_aot/videos/R_S_yt-3EZOeAbiMQE_10.mp4	0.0	205.59808325767517	0.14998602867126465
50	147.90694308280945	response	0	2		48.0	2.5	/experiments/knapen_aot/videos/R_S_yt-3EZOeAbiMQE_10.mp4	0.0	205.7398862838745	
50	147.91512608528137	movie	1		301.0	48.0	2.5	/experiments/knapen_aot/videos/R_S_yt-3EZOeAbiMQE_10.mp4	0.0	205.74806928634644	2.5084009170532227
50	150.4235270023346	fix_post	2		12.0	48.0	2.5	/experiments/knapen_aot/videos/R_S_yt-3EZOeAbiMQE_10.mp4	0.0	208.25647020339966	0.09994196891784668
51	150.52346897125244	fix_pre	0		46.0	49.0	2.5	blank	1.0	208.3564121723175	0.3833019733428955
51	150.8986110687256	response	0	2		49.0	2.5	blank	1.0	208.73155426979065	
51	150.90677094459534	movie	1		301.0	49.0	2.5	blank	1.0	208.7397141456604	2.508388042449951
51	153.4151589870453	fix_post	2		12.0	49.0	2.5	blank	1.0	211.24810218811035	0.10001897811889648
52	153.51517796516418	fix_pre	0		12.0	50.0	2.5	/experiments/knapen_aot/videos/S_ILSVRC2015_train_00743000.mp4	0.0	211.34812116622925	0.10113811492919922
52	153.6069300174713	response	0	2		50.0	2.5	/experiments/knapen_aot/videos/S_ILSVRC2015_train_00743000.mp4	0.0	211.43987321853638	
52	153.61631608009338	movie	1		301.0	50.0	2.5	/experiments/knapen_aot/videos/S_ILSVRC2015_train_00743000.mp4	0.0	211.44925928115845	2.5072178840637207
52	156.1235339641571	fix_post	2		12.0	50.0	2.5	/experiments/knapen_aot/videos/S_ILSVRC2015_train_00743000.mp4	0.0	213.95647716522217	0.09996795654296875
53	156.22350192070007	fix_pre	0		34.0	51.0	2.5	/experiments/knapen_aot/videos/R_S_Ds4EKTLx_RI_51.mp4	0.0	214.05644512176514	0.283282995223999
53	156.49860000610352	response	0	2		51.0	2.5	/experiments/knapen_aot/videos/R_S_Ds4EKTLx_RI_51.mp4	0.0	214.33154320716858	
53	156.50678491592407	movie	1		299.0	51.0	2.5	/experiments/knapen_aot/videos/R_S_Ds4EKTLx_RI_51.mp4	0.0	214.33972811698914	2.5083229541778564
53	159.01510787010193	fix_post	2		12.0	51.0	2.5	/experiments/knapen_aot/videos/R_S_Ds4EKTLx_RI_51.mp4	0.0	216.848051071167	0.10004901885986328
54	159.1151568889618	fix_pre	0		19.0	52.0	2.5	/experiments/knapen_aot/videos/R_S_yt-szXWk_X_67Q_10.mp4	0.0	216.94810009002686	0.15828800201416016
54	159.2652759552002	response	0	2		52.0	2.5	/experiments/knapen_aot/videos/R_S_yt-szXWk_X_67Q_10.mp4	0.0	217.09821915626526	
54	159.27344489097595	movie	1		301.0	52.0	2.5	/experiments/knapen_aot/videos/R_S_yt-szXWk_X_67Q_10.mp4	0.0	217.10638809204102	2.508484125137329
54	161.78192901611328	fix_post	2		12.0	52.0	2.5	/experiments/knapen_aot/videos/R_S_yt-szXWk_X_67Q_10.mp4	0.0	219.61487221717834	0.09990692138671875
55	161.8818359375	fix_pre	0		34.0	53.0	2.5	/experiments/knapen_aot/videos/S_yt-3V8US8ZD3NU_229.mp4	0.0	219.71477913856506	0.28331613540649414
55	162.15689897537231	response	0	2		53.0	2.5	/experiments/knapen_aot/videos/S_yt-3V8US8ZD3NU_229.mp4	0.0	219.98984217643738	
55	162.1651520729065	movie	1		298.0	53.0	2.5	/experiments/knapen_aot/videos/S_yt-3V8US8ZD3NU_229.mp4	0.0	219.99809527397156	2.5082828998565674
55	164.67343497276306	fix_post	2		12.0	53.0	2.5	/experiments/knapen_aot/videos/S_yt-3V8US8ZD3NU_229.mp4	0.0	222.50637817382812	0.10004305839538574
56	164.77347803115845	fix_pre	0		108.0	54.0	2.5	/experiments/knapen_aot/videos/R_S_ILSVRC2015_train_00323000.mp4	0.0	222.6064212322235	0.8999629020690918
56	165.66535902023315	response	0	2		54.0	2.5	/experiments/knapen_aot/videos/R_S_ILSVRC2015_train_00323000.mp4	0.0	223.49830222129822	
56	165.67344093322754	movie	1		301.0	54.0	2.5	/experiments/knapen_aot/videos/R_S_ILSVRC2015_train_00323000.mp4	0.0	223.5063841342926	2.5083279609680176
56	168.18176889419556	fix_post	2		12.0	54.0	2.5	/experiments/knapen_aot/videos/R_S_ILSVRC2015_train_00323000.mp4	0.0	226.01471209526062	0.09999203681945801
57	168.28176093101501	fix_pre	0		166.0	55.0	2.5	/experiments/knapen_aot/videos/S_yt-kXarkCFJLeg_46.mp4	0.0	226.11470413208008	1.3833279609680176
57	169.64938592910767	response	0	2		55.0	2.5	/experiments/knapen_aot/videos/S_yt-kXarkCFJLeg_46.mp4	0.0	227.48232913017273	
57	169.66508889198303	movie	1		301.0	55.0	2.5	/experiments/knapen_aot/videos/S_yt-kXarkCFJLeg_46.mp4	0.0	227.4980320930481	2.5083470344543457
57	172.17343592643738	fix_post	2		12.0	55.0	2.5	/experiments/knapen_aot/videos/S_yt-kXarkCFJLeg_46.mp4	0.0	230.00637912750244	0.0999460220336914
58	172.27338194847107	fix_pre	0		47.0	56.0	2.5	blank	1.0	230.10632514953613	0.3916499614715576
58	172.6568639278412	response	0	2		56.0	2.5	blank	1.0	230.48980712890625	
58	172.66503190994263	movie	1		301.0	56.0	2.5	blank	1.0	230.4979751110077	2.50839900970459
58	175.17343091964722	fix_post	2		12.0	56.0	2.5	blank	1.0	233.00637412071228	0.09994697570800781
59	175.27337789535522	fix_pre	0		24.0	57.0	2.5	/experiments/knapen_aot/videos/R_S_yt-mmvWYAttrIw_2.mp4	0.0	233.1063210964203	0.20001816749572754
59	175.4652280807495	response	0	2		57.0	2.5	/experiments/knapen_aot/videos/R_S_yt-mmvWYAttrIw_2.mp4	0.0	233.29817128181458	
59	175.47339606285095	movie	1		301.0	57.0	2.5	/experiments/knapen_aot/videos/R_S_yt-mmvWYAttrIw_2.mp4	0.0	233.30633926391602	2.508246898651123
59	177.98164296150208	fix_post	2		12.0	57.0	2.5	/experiments/knapen_aot/videos/R_S_yt-mmvWYAttrIw_2.mp4	0.0	235.81458616256714	0.10009312629699707
60	178.08173608779907	fix_pre	0		37.0	58.0	2.5	/experiments/knapen_aot/videos/S_PA_A004_C003_SDR_20190719_SDR_2K_AVC.mp4	0.0	235.91467928886414	0.30835795402526855
60	178.38179993629456	response	0	2		58.0	2.5	/experiments/knapen_aot/videos/S_PA_A004_C003_SDR_20190719_SDR_2K_AVC.mp4	0.0	236.21474313735962	
60	178.39009404182434	movie	1		165.0	58.0	2.5	/experiments/knapen_aot/videos/S_PA_A004_C003_SDR_20190719_SDR_2K_AVC.mp4	0.0	236.2230372428894	2.5082738399505615
60	180.8983678817749	fix_post	2		12.0	58.0	2.5	/experiments/knapen_aot/videos/S_PA_A004_C003_SDR_20190719_SDR_2K_AVC.mp4	0.0	238.73131108283997	0.09998607635498047
61	180.99835395812988	fix_pre	0		162.0	59.0	2.5	/experiments/knapen_aot/videos/S_video_inspire_oregon_lone-ranch-beach_00001.1080-h264.mp4	0.0	238.83129715919495	1.3500409126281738
61	182.3401689529419	response	0	2		59.0	2.5	/experiments/knapen_aot/videos/S_video_inspire_oregon_lone-ranch-beach_00001.1080-h264.mp4	0.0	240.17311215400696	
61	182.34839487075806	movie	1		165.0	59.0	2.5	/experiments/knapen_aot/videos/S_video_inspire_oregon_lone-ranch-beach_00001.1080-h264.mp4	0.0	240.18133807182312	2.5083560943603516
61	184.8567509651184	fix_post	2		12.0	59.0	2.5	/experiments/knapen_aot/videos/S_video_inspire_oregon_lone-ranch-beach_00001.1080-h264.mp4	0.0	242.68969416618347	0.10000300407409668
62	184.9567539691925	fix_pre	0		42.0	60.0	2.5	/experiments/knapen_aot/videos/S_ILSVRC2015_train_00495000.mp4	0.0	242.78969717025757	0.3499870300292969
62	185.29849886894226	response	0	2		60.0	2.5	/experiments/knapen_aot/videos/S_ILSVRC2015_train_00495000.mp4	0.0	243.13144207000732	
62	185.3067409992218	movie	1		301.0	60.0	2.5	/experiments/knapen_aot/videos/S_ILSVRC2015_train_00495000.mp4	0.0	243.13968420028687	2.508336067199707
62	187.8150770664215	fix_post	2		12.0	60.0	2.5	/experiments/knapen_aot/videos/S_ILSVRC2015_train_00495000.mp4	0.0	245.64802026748657	0.0998988151550293
63	187.91497588157654	fix_pre	0		150.0	61.0	2.5	/experiments/knapen_aot/videos/S_production_ID_4325513.mp4	0.0	245.7479190826416	1.250035047531128
63	189.15686297416687	response	0	2		61.0	2.5	/experiments/knapen_aot/videos/S_production_ID_4325513.mp4	0.0	246.98980617523193	
63	189.16501092910767	movie	1		202.0	61.0	2.5	/experiments/knapen_aot/videos/S_production_ID_4325513.mp4	0.0	246.99795413017273	2.5082900524139404
63	191.6733009815216	fix_post	2		12.0	61.0	2.5	/experiments/knapen_aot/videos/S_production_ID_4325513.mp4	0.0	249.50624418258667	0.1000208854675293
64	191.77332186698914	fix_pre	0		75.0	62.0	2.5	/experiments/knapen_aot/videos/S_yt-s2tZ2NIQrxg_175.mp4	0.0	249.6062650680542	0.6250441074371338
64	192.39014792442322	response	0	2		62.0	2.5	/experiments/knapen_aot/videos/S_yt-s2tZ2NIQrxg_175.mp4	0.0	250.22309112548828	
64	192.39836597442627	movie	1		301.0	62.0	2.5	/experiments/knapen_aot/videos/S_yt-s2tZ2NIQrxg_175.mp4	0.0	250.23130917549133	2.5083069801330566
64	194.90667295455933	fix_post	2		12.0	62.0	2.5	/experiments/knapen_aot/videos/S_yt-s2tZ2NIQrxg_175.mp4	0.0	252.7396161556244	0.10001492500305176
65	195.00668787956238	fix_pre	0		101.0	63.0	2.5	blank	1.0	252.83963108062744	0.8415892124176025
65	195.8401370048523	response	0	2		63.0	2.5	blank	1.0	253.67308020591736	
65	195.84827709197998	movie	1		301.0	63.0	2.5	blank	1.0	253.68122029304504	2.5083508491516113
65	198.09846806526184	response	1	2		63.0	2.5	blank	1.0	255.9314112663269	
65	198.3566279411316	fix_post	2		12.0	63.0	2.5	blank	1.0	256.18957114219666	0.1000680923461914
66	198.45669603347778	fix_pre	0		33.0	64.0	2.5	/experiments/knapen_aot/videos/R_S_comp_LA_A011_C003_DGRN_LNFIX_STAB_v57_SDR_PS_20181002_SDR_2K_AVC.mp4	0.0	256.28963923454285	0.2749660015106201
66	198.72342991828918	response	0	2		64.0	2.5	/experiments/knapen_aot/videos/R_S_comp_LA_A011_C003_DGRN_LNFIX_STAB_v57_SDR_PS_20181002_SDR_2K_AVC.mp4	0.0	256.55637311935425	
66	198.7316620349884	movie	1		167.0	64.0	2.5	/experiments/knapen_aot/videos/R_S_comp_LA_A011_C003_DGRN_LNFIX_STAB_v57_SDR_PS_20181002_SDR_2K_AVC.mp4	0.0	256.56460523605347	2.508362054824829
66	201.24002408981323	fix_post	2		12.0	64.0	2.5	/experiments/knapen_aot/videos/R_S_comp_LA_A011_C003_DGRN_LNFIX_STAB_v57_SDR_PS_20181002_SDR_2K_AVC.mp4	0.0	259.0729672908783	0.09996390342712402
67	201.33998799324036	fix_pre	0		36.0	65.0	2.5	/experiments/knapen_aot/videos/S_yt-11S5tcT2Tm0_254.mp4	0.0	259.1729311943054	0.29993510246276855
67	201.63177704811096	response	0	2		65.0	2.5	/experiments/knapen_aot/videos/S_yt-11S5tcT2Tm0_254.mp4	0.0	259.464720249176	
67	201.63992309570312	movie	1		299.0	65.0	2.5	/experiments/knapen_aot/videos/S_yt-11S5tcT2Tm0_254.mp4	0.0	259.4728662967682	2.508354902267456
67	204.14827799797058	fix_post	2		12.0	65.0	2.5	/experiments/knapen_aot/videos/S_yt-11S5tcT2Tm0_254.mp4	0.0	261.98122119903564	0.1000058650970459
68	204.24828386306763	fix_pre	0		19.0	66.0	2.5	/experiments/knapen_aot/videos/R_S_yt-Xkx53mjgj2E_30.mp4	0.0	262.0812270641327	0.1592271327972412
68	204.39848709106445	response	0	2		66.0	2.5	/experiments/knapen_aot/videos/R_S_yt-Xkx53mjgj2E_30.mp4	0.0	262.2314302921295	
68	204.40751099586487	movie	1		301.0	66.0	2.5	/experiments/knapen_aot/videos/R_S_yt-Xkx53mjgj2E_30.mp4	0.0	262.24045419692993	2.5074288845062256
68	206.9149398803711	fix_post	2		12.0	66.0	2.5	/experiments/knapen_aot/videos/R_S_yt-Xkx53mjgj2E_30.mp4	0.0	264.74788308143616	0.1000680923461914
69	207.01500797271729	fix_pre	0		42.0	67.0	2.5	/experiments/knapen_aot/videos/S_yt-B8Sy53C6Pxw_8.mp4	0.0	264.84795117378235	0.35084009170532227
69	207.35674405097961	response	0	2		67.0	2.5	/experiments/knapen_aot/videos/S_yt-B8Sy53C6Pxw_8.mp4	0.0	265.1896872520447	
69	207.3658480644226	movie	1		301.0	67.0	2.5	/experiments/knapen_aot/videos/S_yt-B8Sy53C6Pxw_8.mp4	0.0	265.19879126548767	2.5074098110198975
69	209.8732578754425	fix_post	2		12.0	67.0	2.5	/experiments/knapen_aot/videos/S_yt-B8Sy53C6Pxw_8.mp4	0.0	267.70620107650757	0.10009312629699707
70	209.9733510017395	fix_pre	0		57.0	68.0	2.5	/experiments/knapen_aot/videos/R_S_yt-4oacL3aXtlU_11.mp4	0.0	267.80629420280457	0.4757499694824219
70	210.4325189590454	response	0	2		68.0	2.5	/experiments/knapen_aot/videos/R_S_yt-4oacL3aXtlU_11.mp4	0.0	268.2654621601105	
70	210.44910097122192	movie	1		301.0	68.0	2.5	/experiments/knapen_aot/videos/R_S_yt-4oacL3aXtlU_11.mp4	0.0	268.282044172287	2.507580041885376
70	212.9566810131073	fix_post	2		12.0	68.0	2.5	/experiments/knapen_aot/videos/R_S_yt-4oacL3aXtlU_11.mp4	0.0	270.78962421417236	0.09998893737792969
71	213.05666995048523	fix_pre	0		49.0	69.0	2.5	/experiments/knapen_aot/videos/R_S_yt-KNdCiW8m1uY_168.mp4	0.0	270.8896131515503	0.4082770347595215
71	213.45674800872803	response	0	2		69.0	2.5	/experiments/knapen_aot/videos/R_S_yt-KNdCiW8m1uY_168.mp4	0.0	271.2896912097931	
71	213.46494698524475	movie	1		301.0	69.0	2.5	/experiments/knapen_aot/videos/R_S_yt-KNdCiW8m1uY_168.mp4	0.0	271.2978901863098	2.5083460807800293
71	215.97329306602478	fix_post	2		12.0	69.0	2.5	/experiments/knapen_aot/videos/R_S_yt-KNdCiW8m1uY_168.mp4	0.0	273.80623626708984	0.09993481636047363
72	216.07322788238525	fix_pre	0		15.0	70.0	2.5	blank	1.0	273.9061710834503	0.12586402893066406
72	216.19001507759094	response	0	2		70.0	2.5	blank	1.0	274.022958278656	
72	216.19909191131592	movie	1		301.0	70.0	2.5	blank	1.0	274.032035112381	2.5075559616088867
72	218.45672297477722	response	1	2		70.0	2.5	blank	1.0	276.2896661758423	
72	218.7066478729248	fix_post	2		12.0	70.0	2.5	blank	1.0	276.53959107398987	0.09999918937683105
73	218.80664706230164	fix_pre	0		51.0	71.0	2.5	/experiments/knapen_aot/videos/R_S_yt-MhW2fU45JK8_544.mp4	0.0	276.6395902633667	0.4249389171600342
73	219.22335290908813	response	0	2		71.0	2.5	/experiments/knapen_aot/videos/R_S_yt-MhW2fU45JK8_544.mp4	0.0	277.0562961101532	
73	219.23158597946167	movie	1		300.0	71.0	2.5	/experiments/knapen_aot/videos/R_S_yt-MhW2fU45JK8_544.mp4	0.0	277.06452918052673	2.508373975753784
73	221.73995995521545	fix_post	2		12.0	71.0	2.5	/experiments/knapen_aot/videos/R_S_yt-MhW2fU45JK8_544.mp4	0.0	279.5729031562805	0.09997391700744629
74	221.8399338722229	fix_pre	0		562.0	72.0	2.5	/experiments/knapen_aot/videos/R_S_pexels-c-technical-6809719.mp4	0.0	279.67287707328796	4.6832640171051025
74	226.51501893997192	response	0	2		72.0	2.5	/experiments/knapen_aot/videos/R_S_pexels-c-technical-6809719.mp4	0.0	284.347962141037	
74	226.523197889328	movie	1		186.0	72.0	2.5	/experiments/knapen_aot/videos/R_S_pexels-c-technical-6809719.mp4	0.0	284.35614109039307	2.5084190368652344
74	229.03161692619324	fix_post	2		12.0	72.0	2.5	/experiments/knapen_aot/videos/R_S_pexels-c-technical-6809719.mp4	0.0	286.8645601272583	0.09992003440856934
75	229.1315369606018	fix_pre	0		40.0	73.0	2.5	/experiments/knapen_aot/videos/S_yt-h8wy6x6oytA_25.mp4	0.0	286.96448016166687	0.33333706855773926
75	229.45678901672363	response	0	2		73.0	2.5	/experiments/knapen_aot/videos/S_yt-h8wy6x6oytA_25.mp4	0.0	287.2897322177887	
75	229.46487402915955	movie	1		301.0	73.0	2.5	/experiments/knapen_aot/videos/S_yt-h8wy6x6oytA_25.mp4	0.0	287.2978172302246	2.508307933807373
75	231.97318196296692	fix_post	2		12.0	73.0	2.5	/experiments/knapen_aot/videos/S_yt-h8wy6x6oytA_25.mp4	0.0	289.806125164032	0.10004401206970215
76	232.07322597503662	fix_pre	0		72.0	74.0	2.5	/experiments/knapen_aot/videos/R_S_yt-bWXohhodbjg_98.mp4	0.0	289.9061691761017	0.5999500751495361
76	232.66505002975464	response	0	2		74.0	2.5	/experiments/knapen_aot/videos/R_S_yt-bWXohhodbjg_98.mp4	0.0	290.4979932308197	
76	232.67317605018616	movie	1		301.0	74.0	2.5	/experiments/knapen_aot/videos/R_S_yt-bWXohhodbjg_98.mp4	0.0	290.5061192512512	2.5084009170532227
76	235.18157696723938	fix_post	2		12.0	74.0	2.5	/experiments/knapen_aot/videos/R_S_yt-bWXohhodbjg_98.mp4	0.0	293.01452016830444	0.10000300407409668
77	235.28157997131348	fix_pre	0		10.0	75.0	2.5	/experiments/knapen_aot/videos/R_S_ILSVRC2015_train_00473000.mp4	0.0	293.11452317237854	0.08400201797485352
77	235.35668802261353	response	0	2		75.0	2.5	/experiments/knapen_aot/videos/R_S_ILSVRC2015_train_00473000.mp4	0.0	293.1896312236786	
77	235.36558198928833	movie	1		301.0	75.0	2.5	/experiments/knapen_aot/videos/R_S_ILSVRC2015_train_00473000.mp4	0.0	293.1985251903534	2.507612943649292
77	237.87319493293762	fix_post	2		12.0	75.0	2.5	/experiments/knapen_aot/videos/R_S_ILSVRC2015_train_00473000.mp4	0.0	295.7061381340027	0.09997701644897461
78	237.9731719493866	fix_pre	0		20.0	76.0	2.5	blank	1.0	295.80611515045166	0.16663408279418945
78	238.13172388076782	response	0	2		76.0	2.5	blank	1.0	295.9646670818329	
78	238.1398060321808	movie	1		301.0	76.0	2.5	blank	1.0	295.97274923324585	2.5083048343658447
78	240.64811086654663	fix_post	2		12.0	76.0	2.5	blank	1.0	298.4810540676117	0.10006022453308105
79	240.7481710910797	fix_pre	0		41.0	77.0	2.5	/experiments/knapen_aot/videos/R_S_yt-Xs-YKSogfak_24.mp4	0.0	298.5811142921448	0.3416109085083008
79	241.0816490650177	response	0	2		77.0	2.5	/experiments/knapen_aot/videos/R_S_yt-Xs-YKSogfak_24.mp4	0.0	298.91459226608276	
79	241.089781999588	movie	1		301.0	77.0	2.5	/experiments/knapen_aot/videos/R_S_yt-Xs-YKSogfak_24.mp4	0.0	298.9227252006531	2.5083179473876953
79	243.5980999469757	fix_post	2		12.0	77.0	2.5	/experiments/knapen_aot/videos/R_S_yt-Xs-YKSogfak_24.mp4	0.0	301.43104314804077	0.10009598731994629
80	243.69819593429565	fix_pre	0		47.0	78.0	2.5	/experiments/knapen_aot/videos/S_yt-nCNZ87Tio1M_1.mp4	0.0	301.5311391353607	0.3916749954223633
80	244.08163690567017	response	0	2		78.0	2.5	/experiments/knapen_aot/videos/S_yt-nCNZ87Tio1M_1.mp4	0.0	301.91458010673523	
80	244.08987092971802	movie	1		300.0	78.0	2.5	/experiments/knapen_aot/videos/S_yt-nCNZ87Tio1M_1.mp4	0.0	301.9228141307831	2.5082719326019287
80	246.59814286231995	fix_post	2		12.0	78.0	2.5	/experiments/knapen_aot/videos/S_yt-nCNZ87Tio1M_1.mp4	0.0	304.431086063385	0.09999704360961914
81	246.69813990592957	fix_pre	0		83.0	79.0	2.5	/experiments/knapen_aot/videos/R_S_yt-uSHBdUi8_V0_24.mp4	0.0	304.53108310699463	0.6916830539703369
81	247.3740999698639	response	0	2		79.0	2.5	/experiments/knapen_aot/videos/R_S_yt-uSHBdUi8_V0_24.mp4	0.0	305.20704317092896	
81	247.3898229598999	movie	1		301.0	79.0	2.5	/experiments/knapen_aot/videos/R_S_yt-uSHBdUi8_V0_24.mp4	0.0	305.22276616096497	2.508336067199707
81	249.8981590270996	fix_post	2		12.0	79.0	2.5	/experiments/knapen_aot/videos/R_S_yt-uSHBdUi8_V0_24.mp4	0.0	307.7311022281647	0.1000669002532959
82	249.9982259273529	fix_pre	0		52.0	80.0	2.5	/experiments/knapen_aot/videos/S_yt-T9Vwt7wFvPk_100.mp4	0.0	307.83116912841797	0.4333231449127197
82	250.41585493087769	response	0	2		80.0	2.5	/experiments/knapen_aot/videos/S_yt-T9Vwt7wFvPk_100.mp4	0.0	308.24879813194275	
82	250.43154907226562	movie	1		301.0	80.0	2.5	/experiments/knapen_aot/videos/S_yt-T9Vwt7wFvPk_100.mp4	0.0	308.2644922733307	2.508219003677368
82	252.79824590682983	response	1	2		80.0	2.5	/experiments/knapen_aot/videos/S_yt-T9Vwt7wFvPk_100.mp4	0.0	310.6311891078949	
82	252.939768075943	fix_post	2		11.0	80.0	2.5	/experiments/knapen_aot/videos/S_yt-T9Vwt7wFvPk_100.mp4	0.0	310.77271127700806	0.10011982917785645
83	253.03988790512085	fix_pre	0		42.0	81.0	2.5	/experiments/knapen_aot/videos/R_S_yt-xgqx7tH92-c_6.mp4	0.0	310.8728311061859	0.3499569892883301
83	253.38157105445862	response	0	2		81.0	2.5	/experiments/knapen_aot/videos/R_S_yt-xgqx7tH92-c_6.mp4	0.0	311.2145142555237	
83	253.38984489440918	movie	1		301.0	81.0	2.5	/experiments/knapen_aot/videos/R_S_yt-xgqx7tH92-c_6.mp4	0.0	311.22278809547424	2.5083250999450684
83	255.89816999435425	fix_post	2		12.0	81.0	2.5	/experiments/knapen_aot/videos/R_S_yt-xgqx7tH92-c_6.mp4	0.0	313.7311131954193	0.09998607635498047
84	255.99815607070923	fix_pre	0		67.0	82.0	2.5	/experiments/knapen_aot/videos/S_yt-mmvWYAttrIw_2.mp4	0.0	313.8310992717743	0.5583198070526123
84	256.5482840538025	response	0	2		82.0	2.5	/experiments/knapen_aot/videos/S_yt-mmvWYAttrIw_2.mp4	0.0	314.38122725486755	
84	256.55647587776184	movie	1		301.0	82.0	2.5	/experiments/knapen_aot/videos/S_yt-mmvWYAttrIw_2.mp4	0.0	314.3894190788269	2.5083510875701904
84	259.06482696533203	fix_post	2		12.0	82.0	2.5	/experiments/knapen_aot/videos/S_yt-mmvWYAttrIw_2.mp4	0.0	316.8977701663971	0.09995889663696289
84	259.1240930557251	response	2	2		82.0	2.5	/experiments/knapen_aot/videos/S_yt-mmvWYAttrIw_2.mp4	0.0	316.95703625679016	
85	259.164785861969	fix_pre	0		54.0	83.0	2.5	blank	1.0	316.99772906303406	0.45060300827026367
85	259.6065468788147	response	0	2		83.0	2.5	blank	1.0	317.43949007987976	
85	259.61538887023926	movie	1		301.0	83.0	2.5	blank	1.0	317.4483320713043	2.507871150970459
85	262.1232600212097	fix_post	2		12.0	83.0	2.5	blank	1.0	319.9562032222748	0.09985804557800293
85	262.1648778915405	response	2	2		83.0	2.5	blank	1.0	319.9978210926056	
87	262.2231180667877	stim	0		126.0					320.0560612678528	1.051980972290039
87	263.2693600654602	response	0	space						321.10230326652527	
