trial_nr	onset	event_type	phase	response	nr_frames	movie_index	movie_duration	movie_file	blank	onset_abs	duration
0	0.12868404388427734	stim	0		33.0					87.25759887695312	0.2747950553894043
0	0.3959841728210449	response	0	space						87.52489900588989	
1	0.40347909927368164	stim	0		121.0					87.53239393234253	1.0083670616149902
1	1.3536300659179688	response	0	space						88.48254489898682	
1	1.4118461608886719	stim	1		120.0					88.54076099395752	0.9996929168701172
1	1.6035571098327637	response	1	space						88.73247194290161	
1	2.1873180866241455	response	1	space						89.316232919693	
2	2.411539077758789	fix_pre	0		45.0	0.0	2.5	/experiments/knapen_aot/videos/S_pexels-pavel-danilyuk-8057714.mp4	0.0	89.54045391082764	0.37491607666015625
2	2.778257131576538	response	0	space		0.0	2.5	/experiments/knapen_aot/videos/S_pexels-pavel-danilyuk-8057714.mp4	0.0	89.90717196464539	
2	2.7864551544189453	movie	1		164.0	0.0	2.5	/experiments/knapen_aot/videos/S_pexels-pavel-danilyuk-8057714.mp4	0.0	89.9153699874878	2.5083539485931396
2	5.294809103012085	fix_post	2		12.0	0.0	2.5	/experiments/knapen_aot/videos/S_pexels-pavel-danilyuk-8057714.mp4	0.0	92.42372393608093	0.0999748706817627
3	5.394783973693848	fix_pre	0		10.0	1.0	2.5	/experiments/knapen_aot/videos/R_S_yt-KLInd-KrK_w_19.mp4	0.0	92.5236988067627	0.08408308029174805
3	5.473953008651733	response	0	2		1.0	2.5	/experiments/knapen_aot/videos/R_S_yt-KLInd-KrK_w_19.mp4	0.0	92.60286784172058	
3	5.478867053985596	movie	1		295.0	1.0	2.5	/experiments/knapen_aot/videos/R_S_yt-KLInd-KrK_w_19.mp4	0.0	92.60778188705444	2.5076279640197754
3	7.986495018005371	fix_post	2		12.0	1.0	2.5	/experiments/knapen_aot/videos/R_S_yt-KLInd-KrK_w_19.mp4	0.0	95.11540985107422	0.09999299049377441
4	8.086488008499146	fix_pre	0		15.0	2.0	2.5	/experiments/knapen_aot/videos/R_S_yt-fymgyhmYnMI_76.mp4	0.0	95.215402841568	0.12492609024047852
4	8.203354120254517	response	0	2		2.0	2.5	/experiments/knapen_aot/videos/R_S_yt-fymgyhmYnMI_76.mp4	0.0	95.33226895332336	
4	8.211414098739624	movie	1		301.0	2.0	2.5	/experiments/knapen_aot/videos/R_S_yt-fymgyhmYnMI_76.mp4	0.0	95.34032893180847	2.5084609985351562
4	10.71987509727478	fix_post	2		12.0	2.0	2.5	/experiments/knapen_aot/videos/R_S_yt-fymgyhmYnMI_76.mp4	0.0	97.84878993034363	0.09989285469055176
5	10.819767951965332	fix_pre	0		15.0	3.0	2.5	/experiments/knapen_aot/videos/S_yt-mJzkLd3Mr_c_35.mp4	0.0	97.94868278503418	0.12496805191040039
5	10.936474084854126	response	0	2		3.0	2.5	/experiments/knapen_aot/videos/S_yt-mJzkLd3Mr_c_35.mp4	0.0	98.06538891792297	
5	10.944736003875732	movie	1		301.0	3.0	2.5	/experiments/knapen_aot/videos/S_yt-mJzkLd3Mr_c_35.mp4	0.0	98.07365083694458	2.508430004119873
5	13.453166007995605	fix_post	2		12.0	3.0	2.5	/experiments/knapen_aot/videos/S_yt-mJzkLd3Mr_c_35.mp4	0.0	100.58208084106445	0.0999910831451416
6	13.553157091140747	fix_pre	0		12.0	4.0	2.5	/experiments/knapen_aot/videos/R_S_m-aeoYPMqfg_185.mp4	0.0	100.6820719242096	0.0998849868774414
6	13.644912004470825	response	0	2		4.0	2.5	/experiments/knapen_aot/videos/R_S_m-aeoYPMqfg_185.mp4	0.0	100.77382683753967	
6	13.653042078018188	movie	1		301.0	4.0	2.5	/experiments/knapen_aot/videos/R_S_m-aeoYPMqfg_185.mp4	0.0	100.78195691108704	2.5083980560302734
6	16.161440134048462	fix_post	2		12.0	4.0	2.5	/experiments/knapen_aot/videos/R_S_m-aeoYPMqfg_185.mp4	0.0	103.29035496711731	0.1000068187713623
7	16.261446952819824	fix_pre	0		6.0	5.0	2.5	/experiments/knapen_aot/videos/R_S_yt-7e6Z9QQieAk_183.mp4	0.0	103.39036178588867	0.050621986389160156
7	16.303192138671875	response	0	2		5.0	2.5	/experiments/knapen_aot/videos/R_S_yt-7e6Z9QQieAk_183.mp4	0.0	103.43210697174072	
7	16.312068939208984	movie	1		301.0	5.0	2.5	/experiments/knapen_aot/videos/R_S_yt-7e6Z9QQieAk_183.mp4	0.0	103.44098377227783	2.507822036743164
7	18.81989097595215	fix_post	2		12.0	5.0	2.5	/experiments/knapen_aot/videos/R_S_yt-7e6Z9QQieAk_183.mp4	0.0	105.948805809021	0.09987401962280273
8	18.91976499557495	fix_pre	0		18.0	6.0	2.5	/experiments/knapen_aot/videos/S_ILSVRC2015_train_00613000.mp4	0.0	106.0486798286438	0.14988017082214355
8	19.053925037384033	response	0	2		6.0	2.5	/experiments/knapen_aot/videos/S_ILSVRC2015_train_00613000.mp4	0.0	106.18283987045288	
8	19.069645166397095	movie	1		301.0	6.0	2.5	/experiments/knapen_aot/videos/S_ILSVRC2015_train_00613000.mp4	0.0	106.19855999946594	2.5083987712860107
8	21.578043937683105	fix_post	2		12.0	6.0	2.5	/experiments/knapen_aot/videos/S_ILSVRC2015_train_00613000.mp4	0.0	108.70695877075195	0.10004901885986328
8	21.669749975204468	response	2	2		6.0	2.5	/experiments/knapen_aot/videos/S_ILSVRC2015_train_00613000.mp4	0.0	108.79866480827332	
9	21.67809295654297	fix_pre	0		61.0	7.0	2.5	blank	1.0	108.80700778961182	0.5089390277862549
9	22.178349018096924	response	0	2		7.0	2.5	blank	1.0	109.30726385116577	
9	22.187031984329224	movie	1		301.0	7.0	2.5	blank	1.0	109.31594681739807	2.507742166519165
9	24.69477415084839	fix_post	2		12.0	7.0	2.5	blank	1.0	111.82368898391724	0.1001429557800293
10	24.794917106628418	fix_pre	0		18.0	8.0	2.5	/experiments/knapen_aot/videos/S_yt-dO0OuozAgt0_225.mp4	0.0	111.92383193969727	0.14973998069763184
10	24.936485052108765	response	0	2		8.0	2.5	/experiments/knapen_aot/videos/S_yt-dO0OuozAgt0_225.mp4	0.0	112.06539988517761	
10	24.94465708732605	movie	1		301.0	8.0	2.5	/experiments/knapen_aot/videos/S_yt-dO0OuozAgt0_225.mp4	0.0	112.0735719203949	2.5084550380706787
10	27.45311212539673	fix_post	2		12.0	8.0	2.5	/experiments/knapen_aot/videos/S_yt-dO0OuozAgt0_225.mp4	0.0	114.58202695846558	0.09998393058776855
11	27.553096055984497	fix_pre	0		7.0	9.0	2.5	/experiments/knapen_aot/videos/R_S_yt-MSdNCUWOp4o_4.mp4	0.0	114.68201088905334	0.05827903747558594
11	27.60319495201111	response	0	2		9.0	2.5	/experiments/knapen_aot/videos/R_S_yt-MSdNCUWOp4o_4.mp4	0.0	114.73210978507996	
11	27.611375093460083	movie	1		301.0	9.0	2.5	/experiments/knapen_aot/videos/R_S_yt-MSdNCUWOp4o_4.mp4	0.0	114.74028992652893	2.5083370208740234
11	30.119712114334106	fix_post	2		12.0	9.0	2.5	/experiments/knapen_aot/videos/R_S_yt-MSdNCUWOp4o_4.mp4	0.0	117.24862694740295	0.09993886947631836
11	30.211552143096924	response	2	2		9.0	2.5	/experiments/knapen_aot/videos/R_S_yt-MSdNCUWOp4o_4.mp4	0.0	117.34046697616577	
12	30.219650983810425	fix_pre	0		33.0	10.0	2.5	/experiments/knapen_aot/videos/S_yt-oPq1uvbw-lQ_62.mp4	0.0	117.34856581687927	0.2750060558319092
12	30.486441135406494	response	0	2		10.0	2.5	/experiments/knapen_aot/videos/S_yt-oPq1uvbw-lQ_62.mp4	0.0	117.61535596847534	
12	30.494657039642334	movie	1		301.0	10.0	2.5	/experiments/knapen_aot/videos/S_yt-oPq1uvbw-lQ_62.mp4	0.0	117.62357187271118	2.50832200050354
12	32.97810196876526	response	1	2		10.0	2.5	/experiments/knapen_aot/videos/S_yt-oPq1uvbw-lQ_62.mp4	0.0	120.1070168018341	
12	33.002979040145874	fix_post	2		12.0	10.0	2.5	/experiments/knapen_aot/videos/S_yt-oPq1uvbw-lQ_62.mp4	0.0	120.13189387321472	0.10025811195373535
13	33.10323715209961	fix_pre	0		29.0	11.0	2.5	/experiments/knapen_aot/videos/S_yt-O6W6CZPXvlA_15.mp4	0.0	120.23215198516846	0.24144291877746582
13	33.336430072784424	response	0	2		11.0	2.5	/experiments/knapen_aot/videos/S_yt-O6W6CZPXvlA_15.mp4	0.0	120.46534490585327	
13	33.344680070877075	movie	1		301.0	11.0	2.5	/experiments/knapen_aot/videos/S_yt-O6W6CZPXvlA_15.mp4	0.0	120.47359490394592	2.5085508823394775
13	35.85323095321655	fix_post	2		12.0	11.0	2.5	/experiments/knapen_aot/videos/S_yt-O6W6CZPXvlA_15.mp4	0.0	122.9821457862854	0.09970211982727051
14	35.95293307304382	fix_pre	0		32.0	12.0	2.5	/experiments/knapen_aot/videos/S_P001_C005_UHD_SDR_2K_AVC.mp4	0.0	123.08184790611267	0.26671886444091797
14	36.20403695106506	response	0	2		12.0	2.5	/experiments/knapen_aot/videos/S_P001_C005_UHD_SDR_2K_AVC.mp4	0.0	123.33295178413391	
14	36.21965193748474	movie	1		168.0	12.0	2.5	/experiments/knapen_aot/videos/S_P001_C005_UHD_SDR_2K_AVC.mp4	0.0	123.34856677055359	2.508355140686035
14	38.728007078170776	fix_post	2		12.0	12.0	2.5	/experiments/knapen_aot/videos/S_P001_C005_UHD_SDR_2K_AVC.mp4	0.0	125.85692191123962	0.1001729965209961
14	38.77888298034668	response	2	2		12.0	2.5	/experiments/knapen_aot/videos/S_P001_C005_UHD_SDR_2K_AVC.mp4	0.0	125.90779781341553	
15	38.82818007469177	fix_pre	0		46.0	13.0	2.5	blank	1.0	125.95709490776062	0.38315796852111816
15	39.20315408706665	response	0	2		13.0	2.5	blank	1.0	126.3320689201355	
15	39.21133804321289	movie	1		301.0	13.0	2.5	blank	1.0	126.34025287628174	2.5083260536193848
15	41.719664096832275	fix_post	2		12.0	13.0	2.5	blank	1.0	128.84857892990112	0.09995889663696289
16	41.81962299346924	fix_pre	0		34.0	14.0	2.5	/experiments/knapen_aot/videos/R_S_comp_HK_H004_C008_PSNK_v19_SDR_PS_20180914_SDR_2K_AVC.mp4	0.0	128.9485378265381	0.28380894660949707
16	42.094675064086914	response	0	2		14.0	2.5	/experiments/knapen_aot/videos/R_S_comp_HK_H004_C008_PSNK_v19_SDR_PS_20180914_SDR_2K_AVC.mp4	0.0	129.22358989715576	
16	42.103431940078735	movie	1		168.0	14.0	2.5	/experiments/knapen_aot/videos/R_S_comp_HK_H004_C008_PSNK_v19_SDR_PS_20180914_SDR_2K_AVC.mp4	0.0	129.23234677314758	2.508106231689453
16	44.61153817176819	fix_post	2		12.0	14.0	2.5	/experiments/knapen_aot/videos/R_S_comp_HK_H004_C008_PSNK_v19_SDR_PS_20180914_SDR_2K_AVC.mp4	0.0	131.74045300483704	0.09977579116821289
17	44.7113139629364	fix_pre	0		5.0	15.0	2.5	/experiments/knapen_aot/videos/R_S_pexels-roman-odintsov-8231493.mp4	0.0	131.84022879600525	0.04168701171875
17	44.744789123535156	response	0	2		15.0	2.5	/experiments/knapen_aot/videos/R_S_pexels-roman-odintsov-8231493.mp4	0.0	131.873703956604	
17	44.75300097465515	movie	1		196.0	15.0	2.5	/experiments/knapen_aot/videos/R_S_pexels-roman-odintsov-8231493.mp4	0.0	131.881915807724	2.5083541870117188
17	47.26135516166687	fix_post	2		12.0	15.0	2.5	/experiments/knapen_aot/videos/R_S_pexels-roman-odintsov-8231493.mp4	0.0	134.39026999473572	0.10002994537353516
18	47.361385107040405	fix_pre	0		5.0	16.0	2.5	/experiments/knapen_aot/videos/R_S_yt-F2x6e7e7cAE_70.mp4	0.0	134.49029994010925	0.04164290428161621
18	47.39473795890808	response	0	2		16.0	2.5	/experiments/knapen_aot/videos/R_S_yt-F2x6e7e7cAE_70.mp4	0.0	134.52365279197693	
18	47.40302801132202	movie	1		301.0	16.0	2.5	/experiments/knapen_aot/videos/R_S_yt-F2x6e7e7cAE_70.mp4	0.0	134.53194284439087	2.508316993713379
18	49.9113450050354	fix_post	2		12.0	16.0	2.5	/experiments/knapen_aot/videos/R_S_yt-F2x6e7e7cAE_70.mp4	0.0	137.04025983810425	0.09984302520751953
19	50.01118803024292	fix_pre	0		15.0	17.0	2.5	/experiments/knapen_aot/videos/R_S_yt-fymgyhmYnMI_76.mp4	0.0	137.14010286331177	0.12508296966552734
19	50.128117084503174	response	0	2		17.0	2.5	/experiments/knapen_aot/videos/R_S_yt-fymgyhmYnMI_76.mp4	0.0	137.25703191757202	
19	50.13627099990845	movie	1		301.0	17.0	2.5	/experiments/knapen_aot/videos/R_S_yt-fymgyhmYnMI_76.mp4	0.0	137.2651858329773	2.508368968963623
19	52.64463996887207	fix_post	2		12.0	17.0	2.5	/experiments/knapen_aot/videos/R_S_yt-fymgyhmYnMI_76.mp4	0.0	139.77355480194092	0.09999799728393555
19	52.728039026260376	response	2	2		17.0	2.5	/experiments/knapen_aot/videos/R_S_yt-fymgyhmYnMI_76.mp4	0.0	139.85695385932922	
20	52.744637966156006	fix_pre	0		45.0	18.0	2.5	/experiments/knapen_aot/videos/S_yt-WhQMF3WM0Ig_29.mp4	0.0	139.87355279922485	0.3749539852142334
20	53.111371994018555	response	0	2		18.0	2.5	/experiments/knapen_aot/videos/S_yt-WhQMF3WM0Ig_29.mp4	0.0	140.2402868270874	
20	53.11959195137024	movie	1		301.0	18.0	2.5	/experiments/knapen_aot/videos/S_yt-WhQMF3WM0Ig_29.mp4	0.0	140.2485067844391	2.508742094039917
20	55.628334045410156	fix_post	2		12.0	18.0	2.5	/experiments/knapen_aot/videos/S_yt-WhQMF3WM0Ig_29.mp4	0.0	142.757248878479	0.09958696365356445
21	55.72792100906372	fix_pre	0		24.0	19.0	2.5	/experiments/knapen_aot/videos/R_S_yt-npaE4fe6A6Y_26.mp4	0.0	142.85683584213257	0.19994807243347168
21	55.919769048690796	response	0	2		19.0	2.5	/experiments/knapen_aot/videos/R_S_yt-npaE4fe6A6Y_26.mp4	0.0	143.04868388175964	
21	55.92786908149719	movie	1		301.0	19.0	2.5	/experiments/knapen_aot/videos/R_S_yt-npaE4fe6A6Y_26.mp4	0.0	143.05678391456604	2.508418083190918
21	58.43628716468811	fix_post	2		12.0	19.0	2.5	/experiments/knapen_aot/videos/R_S_yt-npaE4fe6A6Y_26.mp4	0.0	145.56520199775696	0.09992098808288574
21	58.52808713912964	response	2	2		19.0	2.5	/experiments/knapen_aot/videos/R_S_yt-npaE4fe6A6Y_26.mp4	0.0	145.6570019721985	
22	58.536208152770996	fix_pre	0		490.0	20.0	2.5	blank	1.0	145.66512298583984	4.083337783813477
22	62.61141800880432	response	0	2		20.0	2.5	blank	1.0	149.74033284187317	
22	62.61954593658447	movie	1		301.0	20.0	2.5	blank	1.0	149.74846076965332	2.508352041244507
22	65.12789797782898	fix_post	2		12.0	20.0	2.5	blank	1.0	152.25681281089783	0.10004210472106934
23	65.22794008255005	fix_pre	0		17.0	21.0	2.5	/experiments/knapen_aot/videos/S_yt-3NMDWrZr1Z4_255.mp4	0.0	152.3568549156189	0.14157700538635254
23	65.36132407188416	response	0	2		21.0	2.5	/experiments/knapen_aot/videos/S_yt-3NMDWrZr1Z4_255.mp4	0.0	152.490238904953	
23	65.3695170879364	movie	1		300.0	21.0	2.5	/experiments/knapen_aot/videos/S_yt-3NMDWrZr1Z4_255.mp4	0.0	152.49843192100525	2.5083730220794678
23	67.87789011001587	fix_post	2		12.0	21.0	2.5	/experiments/knapen_aot/videos/S_yt-3NMDWrZr1Z4_255.mp4	0.0	155.00680494308472	0.10001301765441895
24	67.97790312767029	fix_pre	0		19.0	22.0	2.5	/experiments/knapen_aot/videos/S_yt-FsylDeYfcxU_24.mp4	0.0	155.10681796073914	0.15830087661743164
24	68.12804293632507	response	0	2		22.0	2.5	/experiments/knapen_aot/videos/S_yt-FsylDeYfcxU_24.mp4	0.0	155.25695776939392	
24	68.13620400428772	movie	1		301.0	22.0	2.5	/experiments/knapen_aot/videos/S_yt-FsylDeYfcxU_24.mp4	0.0	155.26511883735657	2.50832200050354
24	70.64452600479126	fix_post	2		12.0	22.0	2.5	/experiments/knapen_aot/videos/S_yt-FsylDeYfcxU_24.mp4	0.0	157.7734408378601	0.10005497932434082
25	70.7445809841156	fix_pre	0		6.0	23.0	2.5	/experiments/knapen_aot/videos/R_S_yt-Wf-RauSbVgA_56.mp4	0.0	157.87349581718445	0.049903154373168945
25	70.78629803657532	response	0	2		23.0	2.5	/experiments/knapen_aot/videos/R_S_yt-Wf-RauSbVgA_56.mp4	0.0	157.91521286964417	
25	70.79448413848877	movie	1		301.0	23.0	2.5	/experiments/knapen_aot/videos/R_S_yt-Wf-RauSbVgA_56.mp4	0.0	157.92339897155762	2.5083818435668945
25	73.30286598205566	fix_post	2		12.0	23.0	2.5	/experiments/knapen_aot/videos/R_S_yt-Wf-RauSbVgA_56.mp4	0.0	160.4317808151245	0.09999918937683105
26	73.4028651714325	fix_pre	0		12.0	24.0	2.5	/experiments/knapen_aot/videos/R_S_yt-FzMLLmcD1mE_19.mp4	0.0	160.53178000450134	0.09999680519104004
26	73.49467396736145	response	0	2		24.0	2.5	/experiments/knapen_aot/videos/R_S_yt-FzMLLmcD1mE_19.mp4	0.0	160.6235888004303	
26	73.50286197662354	movie	1		301.0	24.0	2.5	/experiments/knapen_aot/videos/R_S_yt-FzMLLmcD1mE_19.mp4	0.0	160.63177680969238	2.50833797454834
26	76.01119995117188	fix_post	2		12.0	24.0	2.5	/experiments/knapen_aot/videos/R_S_yt-FzMLLmcD1mE_19.mp4	0.0	163.14011478424072	0.09998703002929688
27	76.11118698120117	fix_pre	0		25.0	25.0	2.5	/experiments/knapen_aot/videos/S_yt-kawmL3oVw8c_2.mp4	0.0	163.24010181427002	0.20831608772277832
27	76.31128001213074	response	0	2		25.0	2.5	/experiments/knapen_aot/videos/S_yt-kawmL3oVw8c_2.mp4	0.0	163.44019484519958	
27	76.31950306892395	movie	1		301.0	25.0	2.5	/experiments/knapen_aot/videos/S_yt-kawmL3oVw8c_2.mp4	0.0	163.4484179019928	2.508358955383301
27	78.82786202430725	fix_post	2		12.0	25.0	2.5	/experiments/knapen_aot/videos/S_yt-kawmL3oVw8c_2.mp4	0.0	165.9567768573761	0.09998798370361328
28	78.92785000801086	fix_pre	0		11.0	26.0	2.5	blank	1.0	166.0567648410797	0.09197306632995605
28	79.01134204864502	response	0	2		26.0	2.5	blank	1.0	166.14025688171387	
28	79.01982307434082	movie	1		301.0	26.0	2.5	blank	1.0	166.14873790740967	2.508007049560547
28	81.52783012390137	fix_post	2		12.0	26.0	2.5	blank	1.0	168.65674495697021	0.09999799728393555
29	81.6278281211853	fix_pre	0		25.0	27.0	2.5	/experiments/knapen_aot/videos/R_S_flickr-csgzs-8144064966_10.mp4	0.0	168.75674295425415	0.20829200744628906
29	81.82787895202637	response	0	2		27.0	2.5	/experiments/knapen_aot/videos/R_S_flickr-csgzs-8144064966_10.mp4	0.0	168.95679378509521	
29	81.83612012863159	movie	1		301.0	27.0	2.5	/experiments/knapen_aot/videos/R_S_flickr-csgzs-8144064966_10.mp4	0.0	168.96503496170044	2.5083329677581787
29	84.34445309638977	fix_post	2		12.0	27.0	2.5	/experiments/knapen_aot/videos/R_S_flickr-csgzs-8144064966_10.mp4	0.0	171.47336792945862	0.10005307197570801
30	84.44450616836548	fix_pre	0		13.0	28.0	2.5	/experiments/knapen_aot/videos/R_S_yt-ET5YTz1laWo_108.mp4	0.0	171.57342100143433	0.10830378532409668
30	84.54454493522644	response	0	2		28.0	2.5	/experiments/knapen_aot/videos/R_S_yt-ET5YTz1laWo_108.mp4	0.0	171.6734597682953	
30	84.55280995368958	movie	1		301.0	28.0	2.5	/experiments/knapen_aot/videos/R_S_yt-ET5YTz1laWo_108.mp4	0.0	171.68172478675842	2.5083160400390625
30	87.06112599372864	fix_post	2		12.0	28.0	2.5	/experiments/knapen_aot/videos/R_S_yt-ET5YTz1laWo_108.mp4	0.0	174.19004082679749	0.10000896453857422
31	87.16113495826721	fix_pre	0		22.0	29.0	2.5	/experiments/knapen_aot/videos/S_SE_A016_C009_SDR_20190717_SDR_2K_AVC.mp4	0.0	174.29004979133606	0.1832871437072754
31	87.33630299568176	response	0	2		29.0	2.5	/experiments/knapen_aot/videos/S_SE_A016_C009_SDR_20190717_SDR_2K_AVC.mp4	0.0	174.4652178287506	
31	87.34442210197449	movie	1		165.0	29.0	2.5	/experiments/knapen_aot/videos/S_SE_A016_C009_SDR_20190717_SDR_2K_AVC.mp4	0.0	174.47333693504333	2.5084168910980225
31	89.85283899307251	fix_post	2		12.0	29.0	2.5	/experiments/knapen_aot/videos/S_SE_A016_C009_SDR_20190717_SDR_2K_AVC.mp4	0.0	176.98175382614136	0.09992408752441406
32	89.95276308059692	fix_pre	0		28.0	30.0	2.5	/experiments/knapen_aot/videos/R_S_yt-c6kLumgTX54_7.mp4	0.0	177.08167791366577	0.2335200309753418
32	90.17791509628296	response	0	2		30.0	2.5	/experiments/knapen_aot/videos/R_S_yt-c6kLumgTX54_7.mp4	0.0	177.3068299293518	
32	90.18628311157227	movie	1		301.0	30.0	2.5	/experiments/knapen_aot/videos/R_S_yt-c6kLumgTX54_7.mp4	0.0	177.3151979446411	2.508309841156006
32	92.69459295272827	fix_post	2		12.0	30.0	2.5	/experiments/knapen_aot/videos/R_S_yt-c6kLumgTX54_7.mp4	0.0	179.82350778579712	0.09984803199768066
33	92.79444098472595	fix_pre	0		62.0	31.0	2.5	/experiments/knapen_aot/videos/S_yt-CLX1rmSf2Rs_194.mp4	0.0	179.9233558177948	0.5168530941009521
33	93.30292510986328	response	0	2		31.0	2.5	/experiments/knapen_aot/videos/S_yt-CLX1rmSf2Rs_194.mp4	0.0	180.43183994293213	
33	93.3112940788269	movie	1		301.0	31.0	2.5	/experiments/knapen_aot/videos/S_yt-CLX1rmSf2Rs_194.mp4	0.0	180.44020891189575	2.5081429481506348
33	95.81943702697754	fix_post	2		12.0	31.0	2.5	/experiments/knapen_aot/videos/S_yt-CLX1rmSf2Rs_194.mp4	0.0	182.9483518600464	0.09999608993530273
34	95.91943311691284	fix_pre	0		41.0	32.0	2.5	/experiments/knapen_aot/videos/R_S_yt-wnQFgNEnHUI_109.mp4	0.0	183.0483479499817	0.341627836227417
34	96.25285506248474	response	0	2		32.0	2.5	/experiments/knapen_aot/videos/R_S_yt-wnQFgNEnHUI_109.mp4	0.0	183.3817698955536	
34	96.26106095314026	movie	1		301.0	32.0	2.5	/experiments/knapen_aot/videos/R_S_yt-wnQFgNEnHUI_109.mp4	0.0	183.3899757862091	2.5083720684051514
34	98.76943302154541	fix_post	2		12.0	32.0	2.5	/experiments/knapen_aot/videos/R_S_yt-wnQFgNEnHUI_109.mp4	0.0	185.89834785461426	0.10000300407409668
35	98.8694360256195	fix_pre	0		31.0	33.0	2.5	blank	1.0	185.99835085868835	0.258228063583374
35	99.11193203926086	response	0	2		33.0	2.5	blank	1.0	186.2408468723297	
35	99.12766408920288	movie	1		301.0	33.0	2.5	blank	1.0	186.25657892227173	2.5085010528564453
35	101.63616514205933	fix_post	2		12.0	33.0	2.5	blank	1.0	188.76507997512817	0.0999917984008789
36	101.7361569404602	fix_pre	0		49.0	34.0	2.5	/experiments/knapen_aot/videos/S_yt-xrPrnzvWUkY_7.mp4	0.0	188.86507177352905	0.40839314460754395
36	102.13617300987244	response	0	2		34.0	2.5	/experiments/knapen_aot/videos/S_yt-xrPrnzvWUkY_7.mp4	0.0	189.26508784294128	
36	102.14455008506775	movie	1		301.0	34.0	2.5	/experiments/knapen_aot/videos/S_yt-xrPrnzvWUkY_7.mp4	0.0	189.2734649181366	2.508172035217285
36	104.57788705825806	response	1	2		34.0	2.5	/experiments/knapen_aot/videos/S_yt-xrPrnzvWUkY_7.mp4	0.0	191.7068018913269	
36	104.65272212028503	fix_post	2		12.0	34.0	2.5	/experiments/knapen_aot/videos/S_yt-xrPrnzvWUkY_7.mp4	0.0	191.78163695335388	0.09998488426208496
37	104.75270700454712	fix_pre	0		37.0	35.0	2.5	/experiments/knapen_aot/videos/R_S_yt-IlW1U39Dga4_5.mp4	0.0	191.88162183761597	0.30846714973449707
37	105.05282497406006	response	0	2		35.0	2.5	/experiments/knapen_aot/videos/R_S_yt-IlW1U39Dga4_5.mp4	0.0	192.1817398071289	
37	105.06117415428162	movie	1		301.0	35.0	2.5	/experiments/knapen_aot/videos/R_S_yt-IlW1U39Dga4_5.mp4	0.0	192.19008898735046	2.5082218647003174
37	107.56939601898193	fix_post	2		12.0	35.0	2.5	/experiments/knapen_aot/videos/R_S_yt-IlW1U39Dga4_5.mp4	0.0	194.69831085205078	0.10001492500305176
38	107.66941094398499	fix_pre	0		14.0	36.0	2.5	/experiments/knapen_aot/videos/R_S_comp_CH_C007_C011_PSNK_v02_SDR_PS_FINAL_20180709_SDR_2K_AVC.mp4	0.0	194.79832577705383	0.11664509773254395
38	107.77775716781616	response	0	2		36.0	2.5	/experiments/knapen_aot/videos/R_S_comp_CH_C007_C011_PSNK_v02_SDR_PS_FINAL_20180709_SDR_2K_AVC.mp4	0.0	194.906672000885	
38	107.78605604171753	movie	1		175.0	36.0	2.5	/experiments/knapen_aot/videos/R_S_comp_CH_C007_C011_PSNK_v02_SDR_PS_FINAL_20180709_SDR_2K_AVC.mp4	0.0	194.91497087478638	2.5085561275482178
38	110.29461216926575	fix_post	2		12.0	36.0	2.5	/experiments/knapen_aot/videos/R_S_comp_CH_C007_C011_PSNK_v02_SDR_PS_FINAL_20180709_SDR_2K_AVC.mp4	0.0	197.4235270023346	0.09994697570800781
38	110.33616304397583	response	2	2		36.0	2.5	/experiments/knapen_aot/videos/R_S_comp_CH_C007_C011_PSNK_v02_SDR_PS_FINAL_20180709_SDR_2K_AVC.mp4	0.0	197.46507787704468	
39	110.39455914497375	fix_pre	0		37.0	37.0	2.5	/experiments/knapen_aot/videos/S_yt-osz-TXlRdXs_2.mp4	0.0	197.5234739780426	0.3081209659576416
39	110.69435715675354	response	0	2		37.0	2.5	/experiments/knapen_aot/videos/S_yt-osz-TXlRdXs_2.mp4	0.0	197.8232719898224	
39	110.7026801109314	movie	1		300.0	37.0	2.5	/experiments/knapen_aot/videos/S_yt-osz-TXlRdXs_2.mp4	0.0	197.83159494400024	2.5084388256073
39	113.2111189365387	fix_post	2		12.0	37.0	2.5	/experiments/knapen_aot/videos/S_yt-osz-TXlRdXs_2.mp4	0.0	200.34003376960754	0.10004615783691406
40	113.31116509437561	fix_pre	0		17.0	38.0	2.5	/experiments/knapen_aot/videos/R_S_yt-qiPhBL4lBr0_44.mp4	0.0	200.44007992744446	0.14148306846618652
40	113.43693494796753	response	0	2		38.0	2.5	/experiments/knapen_aot/videos/R_S_yt-qiPhBL4lBr0_44.mp4	0.0	200.56584978103638	
40	113.4526481628418	movie	1		301.0	38.0	2.5	/experiments/knapen_aot/videos/R_S_yt-qiPhBL4lBr0_44.mp4	0.0	200.58156299591064	2.5085678100585938
40	115.96121597290039	fix_post	2		12.0	38.0	2.5	/experiments/knapen_aot/videos/R_S_yt-qiPhBL4lBr0_44.mp4	0.0	203.09013080596924	0.09993100166320801
41	116.0611469745636	fix_pre	0		21.0	39.0	2.5	/experiments/knapen_aot/videos/S_yt-AbJBxqEYoMg_27.mp4	0.0	203.19006180763245	0.17481017112731934
41	116.22778010368347	response	0	2		39.0	2.5	/experiments/knapen_aot/videos/S_yt-AbJBxqEYoMg_27.mp4	0.0	203.35669493675232	
41	116.23595714569092	movie	1		301.0	39.0	2.5	/experiments/knapen_aot/videos/S_yt-AbJBxqEYoMg_27.mp4	0.0	203.36487197875977	2.5083839893341064
41	118.74434113502502	fix_post	2		12.0	39.0	2.5	/experiments/knapen_aot/videos/S_yt-AbJBxqEYoMg_27.mp4	0.0	205.87325596809387	0.1000518798828125
42	118.84439301490784	fix_pre	0		16.0	40.0	2.5	/experiments/knapen_aot/videos/R_S_yt-2l6VKd94eAI_151.mp4	0.0	205.97330784797668	0.13327813148498535
42	118.96940302848816	response	0	2		40.0	2.5	/experiments/knapen_aot/videos/R_S_yt-2l6VKd94eAI_151.mp4	0.0	206.098317861557	
42	118.97767114639282	movie	1		301.0	40.0	2.5	/experiments/knapen_aot/videos/R_S_yt-2l6VKd94eAI_151.mp4	0.0	206.10658597946167	2.5083320140838623
42	121.48600316047668	fix_post	2		12.0	40.0	2.5	/experiments/knapen_aot/videos/R_S_yt-2l6VKd94eAI_151.mp4	0.0	208.61491799354553	0.10003781318664551
43	121.58604097366333	fix_pre	0		13.0	41.0	2.5	blank	1.0	208.71495580673218	0.10826706886291504
43	121.68620204925537	response	0	2		41.0	2.5	blank	1.0	208.81511688232422	
43	121.69430804252625	movie	1		301.0	41.0	2.5	blank	1.0	208.8232228755951	2.508349895477295
43	124.20265793800354	fix_post	2		12.0	41.0	2.5	blank	1.0	211.3315727710724	0.10001921653747559
44	124.30267715454102	fix_pre	0		30.0	42.0	2.5	/experiments/knapen_aot/videos/S_comp_N013_C004_PS_v01_SDR_PS_20180925_F1970F7193_SDR_2K_AVC.mp4	0.0	211.43159198760986	0.24991798400878906
44	124.54435801506042	response	0	2		42.0	2.5	/experiments/knapen_aot/videos/S_comp_N013_C004_PS_v01_SDR_PS_20180925_F1970F7193_SDR_2K_AVC.mp4	0.0	211.67327284812927	
44	124.5525951385498	movie	1		170.0	42.0	2.5	/experiments/knapen_aot/videos/S_comp_N013_C004_PS_v01_SDR_PS_20180925_F1970F7193_SDR_2K_AVC.mp4	0.0	211.68150997161865	2.508420944213867
44	127.06101608276367	fix_post	2		12.0	42.0	2.5	/experiments/knapen_aot/videos/S_comp_N013_C004_PS_v01_SDR_PS_20180925_F1970F7193_SDR_2K_AVC.mp4	0.0	214.18993091583252	0.09994101524353027
45	127.1609570980072	fix_pre	0		44.0	43.0	2.5	/experiments/knapen_aot/videos/S_ILSVRC2015_train_00762000.mp4	0.0	214.28987193107605	0.36661696434020996
45	127.51941895484924	response	0	2		43.0	2.5	/experiments/knapen_aot/videos/S_ILSVRC2015_train_00762000.mp4	0.0	214.6483337879181	
45	127.52757406234741	movie	1		301.0	43.0	2.5	/experiments/knapen_aot/videos/S_ILSVRC2015_train_00762000.mp4	0.0	214.65648889541626	2.5084030628204346
45	130.03597712516785	fix_post	2		12.0	43.0	2.5	/experiments/knapen_aot/videos/S_ILSVRC2015_train_00762000.mp4	0.0	217.1648919582367	0.09998703002929688
45	130.1193699836731	response	2	2		43.0	2.5	/experiments/knapen_aot/videos/S_ILSVRC2015_train_00762000.mp4	0.0	217.24828481674194	
46	130.13596415519714	fix_pre	0		45.0	44.0	2.5	/experiments/knapen_aot/videos/S_wc-Mf8SQpviaD6D_17.mp4	0.0	217.264878988266	0.37497401237487793
46	130.50258803367615	response	0	2		44.0	2.5	/experiments/knapen_aot/videos/S_wc-Mf8SQpviaD6D_17.mp4	0.0	217.631502866745	
46	130.51093816757202	movie	1		167.0	44.0	2.5	/experiments/knapen_aot/videos/S_wc-Mf8SQpviaD6D_17.mp4	0.0	217.63985300064087	2.508344888687134
46	132.9026529788971	response	1	2		44.0	2.5	/experiments/knapen_aot/videos/S_wc-Mf8SQpviaD6D_17.mp4	0.0	220.03156781196594	
46	133.01928305625916	fix_post	2		12.0	44.0	2.5	/experiments/knapen_aot/videos/S_wc-Mf8SQpviaD6D_17.mp4	0.0	220.148197889328	0.10008907318115234
47	133.1193721294403	fix_pre	0		5.0	45.0	2.5	/experiments/knapen_aot/videos/R_S_g201_TH_804_A001_8_SDR_20191031_SDR_2K_AVC.mp4	0.0	220.24828696250916	0.041565895080566406
47	133.15268802642822	response	0	2		45.0	2.5	/experiments/knapen_aot/videos/R_S_g201_TH_804_A001_8_SDR_20191031_SDR_2K_AVC.mp4	0.0	220.28160285949707	
47	133.16093802452087	movie	1		168.0	45.0	2.5	/experiments/knapen_aot/videos/R_S_g201_TH_804_A001_8_SDR_20191031_SDR_2K_AVC.mp4	0.0	220.28985285758972	2.5083601474761963
47	135.66929817199707	fix_post	2		12.0	45.0	2.5	/experiments/knapen_aot/videos/R_S_g201_TH_804_A001_8_SDR_20191031_SDR_2K_AVC.mp4	0.0	222.79821300506592	0.10000276565551758
48	135.7693009376526	fix_pre	0		17.0	46.0	2.5	/experiments/knapen_aot/videos/S_production_ID_5119260.mp4	0.0	222.89821577072144	0.14161419868469238
48	135.90268802642822	response	0	2		46.0	2.5	/experiments/knapen_aot/videos/S_production_ID_5119260.mp4	0.0	223.03160285949707	
48	135.91091513633728	movie	1		166.0	46.0	2.5	/experiments/knapen_aot/videos/S_production_ID_5119260.mp4	0.0	223.03982996940613	2.508356809616089
48	138.41927194595337	fix_post	2		12.0	46.0	2.5	/experiments/knapen_aot/videos/S_production_ID_5119260.mp4	0.0	225.54818677902222	0.09998703002929688
49	138.51925897598267	fix_pre	0		5.0	47.0	2.5	blank	1.0	225.6481738090515	0.041683197021484375
49	138.55275201797485	response	0	2		47.0	2.5	blank	1.0	225.6816668510437	
49	138.56094217300415	movie	1		301.0	47.0	2.5	blank	1.0	225.689857006073	2.508373975753784
49	141.06931614875793	fix_post	2		12.0	47.0	2.5	blank	1.0	228.19823098182678	0.10005497932434082
50	141.16937112808228	fix_pre	0		20.0	48.0	2.5	/experiments/knapen_aot/videos/S_Xq0a2BWE3zA_53.mp4	0.0	228.29828596115112	0.16649198532104492
50	141.3276171684265	response	0	2		48.0	2.5	/experiments/knapen_aot/videos/S_Xq0a2BWE3zA_53.mp4	0.0	228.45653200149536	
50	141.33586311340332	movie	1		301.0	48.0	2.5	/experiments/knapen_aot/videos/S_Xq0a2BWE3zA_53.mp4	0.0	228.46477794647217	2.5083649158477783
50	143.8442280292511	fix_post	2		12.0	48.0	2.5	/experiments/knapen_aot/videos/S_Xq0a2BWE3zA_53.mp4	0.0	230.97314286231995	0.10004901885986328
51	143.94427704811096	fix_pre	0		17.0	49.0	2.5	/experiments/knapen_aot/videos/S_yt-GWlwb2QsxIA_48.mp4	0.0	231.0731918811798	0.14165091514587402
51	144.07760214805603	response	0	2		49.0	2.5	/experiments/knapen_aot/videos/S_yt-GWlwb2QsxIA_48.mp4	0.0	231.20651698112488	
51	144.08592796325684	movie	1		301.0	49.0	2.5	/experiments/knapen_aot/videos/S_yt-GWlwb2QsxIA_48.mp4	0.0	231.21484279632568	2.508324146270752
51	146.5942521095276	fix_post	2		12.0	49.0	2.5	/experiments/knapen_aot/videos/S_yt-GWlwb2QsxIA_48.mp4	0.0	233.72316694259644	0.10000205039978027
52	146.69425415992737	fix_pre	0		23.0	50.0	2.5	/experiments/knapen_aot/videos/S_yt-OTNdgakSIJE_97.mp4	0.0	233.82316899299622	0.19161581993103027
52	146.87767910957336	response	0	2		50.0	2.5	/experiments/knapen_aot/videos/S_yt-OTNdgakSIJE_97.mp4	0.0	234.0065939426422	
52	146.8858699798584	movie	1		300.0	50.0	2.5	/experiments/knapen_aot/videos/S_yt-OTNdgakSIJE_97.mp4	0.0	234.01478481292725	2.5083119869232178
52	149.39418196678162	fix_post	2		12.0	50.0	2.5	/experiments/knapen_aot/videos/S_yt-OTNdgakSIJE_97.mp4	0.0	236.52309679985046	0.10002398490905762
53	149.49420595169067	fix_pre	0		18.0	51.0	2.5	/experiments/knapen_aot/videos/R_S_yt-nQu-PAXBv2g_5.mp4	0.0	236.62312078475952	0.15009403228759766
53	149.63595414161682	response	0	2		51.0	2.5	/experiments/knapen_aot/videos/R_S_yt-nQu-PAXBv2g_5.mp4	0.0	236.76486897468567	
53	149.64429998397827	movie	1		301.0	51.0	2.5	/experiments/knapen_aot/videos/R_S_yt-nQu-PAXBv2g_5.mp4	0.0	236.77321481704712	2.508239984512329
53	152.1525399684906	fix_post	2		12.0	51.0	2.5	/experiments/knapen_aot/videos/R_S_yt-nQu-PAXBv2g_5.mp4	0.0	239.28145480155945	0.10005807876586914
54	152.25259804725647	fix_pre	0		22.0	52.0	2.5	/experiments/knapen_aot/videos/R_S_P005_C002_UHD_SDR_2K_AVC.mp4	0.0	239.38151288032532	0.183243989944458
54	152.42763209342957	response	0	2		52.0	2.5	/experiments/knapen_aot/videos/R_S_P005_C002_UHD_SDR_2K_AVC.mp4	0.0	239.5565469264984	
54	152.43584203720093	movie	1		170.0	52.0	2.5	/experiments/knapen_aot/videos/R_S_P005_C002_UHD_SDR_2K_AVC.mp4	0.0	239.56475687026978	2.5086190700531006
54	154.94446110725403	fix_post	2		12.0	52.0	2.5	/experiments/knapen_aot/videos/R_S_P005_C002_UHD_SDR_2K_AVC.mp4	0.0	242.07337594032288	0.0997018814086914
55	155.04416298866272	fix_pre	0		23.0	53.0	2.5	/experiments/knapen_aot/videos/R_S_yt-F2x6e7e7cAE_70.mp4	0.0	242.17307782173157	0.19167709350585938
55	155.22761297225952	response	0	2		53.0	2.5	/experiments/knapen_aot/videos/R_S_yt-F2x6e7e7cAE_70.mp4	0.0	242.35652780532837	
55	155.23584008216858	movie	1		301.0	53.0	2.5	/experiments/knapen_aot/videos/R_S_yt-F2x6e7e7cAE_70.mp4	0.0	242.36475491523743	2.508331060409546
55	157.74417114257812	fix_post	2		12.0	53.0	2.5	/experiments/knapen_aot/videos/R_S_yt-F2x6e7e7cAE_70.mp4	0.0	244.87308597564697	0.10008001327514648
56	157.84425115585327	fix_pre	0		17.0	54.0	2.5	blank	1.0	244.97316598892212	0.1415867805480957
56	157.97765707969666	response	0	2		54.0	2.5	blank	1.0	245.1065719127655	
56	157.98583793640137	movie	1		301.0	54.0	2.5	blank	1.0	245.11475276947021	2.508376121520996
56	160.49421405792236	fix_post	2		12.0	54.0	2.5	blank	1.0	247.6231288909912	0.10004711151123047
57	160.5942611694336	fix_pre	0		46.0	55.0	2.5	/experiments/knapen_aot/videos/R_S_yt-IX6uxR5DSKk_2.mp4	0.0	247.72317600250244	0.3831818103790283
57	160.96920204162598	response	0	2		55.0	2.5	/experiments/knapen_aot/videos/R_S_yt-IX6uxR5DSKk_2.mp4	0.0	248.09811687469482	
57	160.97744297981262	movie	1		301.0	55.0	2.5	/experiments/knapen_aot/videos/R_S_yt-IX6uxR5DSKk_2.mp4	0.0	248.10635781288147	2.5084590911865234
57	163.48590207099915	fix_post	2		12.0	55.0	2.5	/experiments/knapen_aot/videos/R_S_yt-IX6uxR5DSKk_2.mp4	0.0	250.614816904068	0.09992694854736328
58	163.5858290195465	fix_pre	0		273.0	56.0	2.5	/experiments/knapen_aot/videos/R_S_comp_N013_C004_PS_v01_SDR_PS_20180925_F1970F7193_SDR_2K_AVC.mp4	0.0	250.71474385261536	2.274970054626465
58	165.85262203216553	response	0	2		56.0	2.5	/experiments/knapen_aot/videos/R_S_comp_N013_C004_PS_v01_SDR_PS_20180925_F1970F7193_SDR_2K_AVC.mp4	0.0	252.98153686523438	
58	165.86079907417297	movie	1		166.0	56.0	2.5	/experiments/knapen_aot/videos/R_S_comp_N013_C004_PS_v01_SDR_PS_20180925_F1970F7193_SDR_2K_AVC.mp4	0.0	252.98971390724182	2.5084140300750732
58	168.36921310424805	fix_post	2		12.0	56.0	2.5	/experiments/knapen_aot/videos/R_S_comp_N013_C004_PS_v01_SDR_PS_20180925_F1970F7193_SDR_2K_AVC.mp4	0.0	255.4981279373169	0.09995698928833008
58	168.45251202583313	response	2	2		56.0	2.5	/experiments/knapen_aot/videos/R_S_comp_N013_C004_PS_v01_SDR_PS_20180925_F1970F7193_SDR_2K_AVC.mp4	0.0	255.58142685890198	
59	168.46917009353638	fix_pre	0		45.0	57.0	2.5	/experiments/knapen_aot/videos/R_S_yt-FsylDeYfcxU_24.mp4	0.0	255.59808492660522	0.3762030601501465
59	168.83605909347534	response	0	2		57.0	2.5	/experiments/knapen_aot/videos/R_S_yt-FsylDeYfcxU_24.mp4	0.0	255.9649739265442	
59	168.84537315368652	movie	1		301.0	57.0	2.5	/experiments/knapen_aot/videos/R_S_yt-FsylDeYfcxU_24.mp4	0.0	255.97428798675537	2.507128953933716
59	171.35250210762024	fix_post	2		12.0	57.0	2.5	/experiments/knapen_aot/videos/R_S_yt-FsylDeYfcxU_24.mp4	0.0	258.4814169406891	0.09996294975280762
59	171.4025101661682	response	2	2		57.0	2.5	/experiments/knapen_aot/videos/R_S_yt-FsylDeYfcxU_24.mp4	0.0	258.53142499923706	
60	171.45246505737305	fix_pre	0		36.0	58.0	2.5	/experiments/knapen_aot/videos/S_yt-mmvWYAttrIw_2.mp4	0.0	258.5813798904419	0.2999269962310791
60	171.73662209510803	response	0	2		58.0	2.5	/experiments/knapen_aot/videos/S_yt-mmvWYAttrIw_2.mp4	0.0	258.8655369281769	
60	171.75239205360413	movie	1		301.0	58.0	2.5	/experiments/knapen_aot/videos/S_yt-mmvWYAttrIw_2.mp4	0.0	258.881306886673	2.5084259510040283
60	172.75256395339966	response	1	2		58.0	2.5	/experiments/knapen_aot/videos/S_yt-mmvWYAttrIw_2.mp4	0.0	259.8814787864685	
60	174.26081800460815	fix_post	2		12.0	58.0	2.5	/experiments/knapen_aot/videos/S_yt-mmvWYAttrIw_2.mp4	0.0	261.389732837677	0.09995698928833008
61	174.36077499389648	fix_pre	0		77.0	59.0	2.5	/experiments/knapen_aot/videos/S_ILSVRC2015_train_00762000.mp4	0.0	261.48968982696533	0.6416139602661133
61	174.99416208267212	response	0	2		59.0	2.5	/experiments/knapen_aot/videos/S_ILSVRC2015_train_00762000.mp4	0.0	262.12307691574097	
61	175.0023889541626	movie	1		301.0	59.0	2.5	/experiments/knapen_aot/videos/S_ILSVRC2015_train_00762000.mp4	0.0	262.13130378723145	2.5083720684051514
61	177.51076102256775	fix_post	2		12.0	59.0	2.5	/experiments/knapen_aot/videos/S_ILSVRC2015_train_00762000.mp4	0.0	264.6396758556366	0.10009598731994629
62	177.6108570098877	fix_pre	0		19.0	60.0	2.5	/experiments/knapen_aot/videos/R_S_ILSVRC2015_train_00696000.mp4	0.0	264.73977184295654	0.15822505950927734
62	177.76077604293823	response	0	2		60.0	2.5	/experiments/knapen_aot/videos/R_S_ILSVRC2015_train_00696000.mp4	0.0	264.8896908760071	
62	177.76908206939697	movie	1		301.0	60.0	2.5	/experiments/knapen_aot/videos/R_S_ILSVRC2015_train_00696000.mp4	0.0	264.8979969024658	2.508362054824829
62	180.2774441242218	fix_post	2		12.0	60.0	2.5	/experiments/knapen_aot/videos/R_S_ILSVRC2015_train_00696000.mp4	0.0	267.40635895729065	0.09997987747192383
63	180.37742400169373	fix_pre	0		8.0	61.0	2.5	/experiments/knapen_aot/videos/S_video_inspire_alabama_montgomery_countryside_00007.1080-h264.mp4	0.0	267.5063388347626	0.06665802001953125
63	180.4358310699463	response	0	2		61.0	2.5	/experiments/knapen_aot/videos/S_video_inspire_alabama_montgomery_countryside_00007.1080-h264.mp4	0.0	267.56474590301514	
63	180.44408202171326	movie	1		168.0	61.0	2.5	/experiments/knapen_aot/videos/S_video_inspire_alabama_montgomery_countryside_00007.1080-h264.mp4	0.0	267.5729968547821	2.508345127105713
63	182.95242714881897	fix_post	2		12.0	61.0	2.5	/experiments/knapen_aot/videos/S_video_inspire_alabama_montgomery_countryside_00007.1080-h264.mp4	0.0	270.0813419818878	0.10022997856140137
63	183.01079106330872	response	2	2		61.0	2.5	/experiments/knapen_aot/videos/S_video_inspire_alabama_montgomery_countryside_00007.1080-h264.mp4	0.0	270.13970589637756	
64	183.05265712738037	fix_pre	0		37.0	62.0	2.5	/experiments/knapen_aot/videos/R_S_yt-w_e3sxIzepA_115.mp4	0.0	270.1815719604492	0.30808186531066895
64	183.35245013237	response	0	2		62.0	2.5	/experiments/knapen_aot/videos/R_S_yt-w_e3sxIzepA_115.mp4	0.0	270.48136496543884	
64	183.36073899269104	movie	1		301.0	62.0	2.5	/experiments/knapen_aot/videos/R_S_yt-w_e3sxIzepA_115.mp4	0.0	270.4896538257599	2.5083160400390625
64	185.8690550327301	fix_post	2		12.0	62.0	2.5	/experiments/knapen_aot/videos/R_S_yt-w_e3sxIzepA_115.mp4	0.0	272.99796986579895	0.10003805160522461
65	185.96909308433533	fix_pre	0		8.0	63.0	2.5	blank	1.0	273.0980079174042	0.06662487983703613
65	186.02743196487427	response	0	2		63.0	2.5	blank	1.0	273.1563467979431	
65	186.03571796417236	movie	1		301.0	63.0	2.5	blank	1.0	273.1646327972412	2.508364200592041
65	188.5440821647644	fix_post	2		12.0	63.0	2.5	blank	1.0	275.67299699783325	0.10009193420410156
66	188.6441740989685	fix_pre	0		28.0	64.0	2.5	/experiments/knapen_aot/videos/R_S_yt-wVMhACNFF-M_154.mp4	0.0	275.77308893203735	0.23320984840393066
66	188.86911010742188	response	0	4		64.0	2.5	/experiments/knapen_aot/videos/R_S_yt-wVMhACNFF-M_154.mp4	0.0	275.9980249404907	
66	188.87738394737244	movie	1		301.0	64.0	2.5	/experiments/knapen_aot/videos/R_S_yt-wVMhACNFF-M_154.mp4	0.0	276.0062987804413	2.508305072784424
66	191.38568902015686	fix_post	2		12.0	64.0	2.5	/experiments/knapen_aot/videos/R_S_yt-wVMhACNFF-M_154.mp4	0.0	278.5146038532257	0.10000896453857422
67	191.48569798469543	fix_pre	0		9.0	65.0	2.5	/experiments/knapen_aot/videos/S_yt-hekMMCluhnU_18.mp4	0.0	278.6146128177643	0.07495617866516113
67	191.55248594284058	response	0	4		65.0	2.5	/experiments/knapen_aot/videos/S_yt-hekMMCluhnU_18.mp4	0.0	278.6814007759094	
67	191.5606541633606	movie	1		301.0	65.0	2.5	/experiments/knapen_aot/videos/S_yt-hekMMCluhnU_18.mp4	0.0	278.68956899642944	2.5083658695220947
67	194.0690200328827	fix_post	2		12.0	65.0	2.5	/experiments/knapen_aot/videos/S_yt-hekMMCluhnU_18.mp4	0.0	281.19793486595154	0.10001802444458008
68	194.16903805732727	fix_pre	0		40.0	66.0	2.5	/experiments/knapen_aot/videos/S_comp_LW_L001_C006_PSNK_DENOISE_v02_SDR_PS_FINAL_20180709_SDR_2K_AVC.mp4	0.0	281.2979528903961	0.33331298828125
68	194.49416208267212	response	0	4		66.0	2.5	/experiments/knapen_aot/videos/S_comp_LW_L001_C006_PSNK_DENOISE_v02_SDR_PS_FINAL_20180709_SDR_2K_AVC.mp4	0.0	281.62307691574097	
68	194.50235104560852	movie	1		165.0	66.0	2.5	/experiments/knapen_aot/videos/S_comp_LW_L001_C006_PSNK_DENOISE_v02_SDR_PS_FINAL_20180709_SDR_2K_AVC.mp4	0.0	281.63126587867737	2.508362054824829
68	197.01071310043335	fix_post	2		12.0	66.0	2.5	/experiments/knapen_aot/videos/S_comp_LW_L001_C006_PSNK_DENOISE_v02_SDR_PS_FINAL_20180709_SDR_2K_AVC.mp4	0.0	284.1396279335022	0.10015702247619629
69	197.11087012290955	fix_pre	0		53.0	67.0	2.5	/experiments/knapen_aot/videos/S_ILSVRC2015_train_00723001.mp4	0.0	284.2397849559784	0.4425039291381836
69	197.5365560054779	response	0	4		67.0	2.5	/experiments/knapen_aot/videos/S_ILSVRC2015_train_00723001.mp4	0.0	284.66547083854675	
69	197.55337405204773	movie	1		301.0	67.0	2.5	/experiments/knapen_aot/videos/S_ILSVRC2015_train_00723001.mp4	0.0	284.6822888851166	2.507328987121582
69	200.0607030391693	fix_post	2		12.0	67.0	2.5	/experiments/knapen_aot/videos/S_ILSVRC2015_train_00723001.mp4	0.0	287.18961787223816	0.10000801086425781
70	200.16071105003357	fix_pre	0		28.0	68.0	2.5	/experiments/knapen_aot/videos/R_S_yt-WASlRH1zA8c_175.mp4	0.0	287.2896258831024	0.23324799537658691
70	200.38572907447815	response	0	4		68.0	2.5	/experiments/knapen_aot/videos/R_S_yt-WASlRH1zA8c_175.mp4	0.0	287.514643907547	
70	200.39395904541016	movie	1		301.0	68.0	2.5	/experiments/knapen_aot/videos/R_S_yt-WASlRH1zA8c_175.mp4	0.0	287.522873878479	2.508331060409546
70	202.9022901058197	fix_post	2		12.0	68.0	2.5	/experiments/knapen_aot/videos/R_S_yt-WASlRH1zA8c_175.mp4	0.0	290.03120493888855	0.09998297691345215
71	203.00227308273315	fix_pre	0		31.0	69.0	2.5	blank	1.0	290.131187915802	0.2584719657897949
71	203.25244402885437	response	0	4		69.0	2.5	blank	1.0	290.3813588619232	
71	203.26074504852295	movie	1		301.0	69.0	2.5	blank	1.0	290.3896598815918	2.5082039833068848
71	205.76894903182983	fix_post	2		12.0	69.0	2.5	blank	1.0	292.8978638648987	0.10013103485107422
72	205.8690800666809	fix_pre	0		33.0	70.0	2.5	/experiments/knapen_aot/videos/R_S_yt-2XRGfGc0q44_37.mp4	0.0	292.99799489974976	0.27483701705932617
72	206.12859511375427	response	0	4		70.0	2.5	/experiments/knapen_aot/videos/R_S_yt-2XRGfGc0q44_37.mp4	0.0	293.2575099468231	
72	206.14391708374023	movie	1		301.0	70.0	2.5	/experiments/knapen_aot/videos/R_S_yt-2XRGfGc0q44_37.mp4	0.0	293.2728319168091	2.5084099769592285
72	208.65232706069946	fix_post	2		12.0	70.0	2.5	/experiments/knapen_aot/videos/R_S_yt-2XRGfGc0q44_37.mp4	0.0	295.7812418937683	0.09996199607849121
73	208.75228905677795	fix_pre	0		17.0	71.0	2.5	/experiments/knapen_aot/videos/S_yt-npaE4fe6A6Y_26.mp4	0.0	295.8812038898468	0.14162302017211914
73	208.8857729434967	response	0	4		71.0	2.5	/experiments/knapen_aot/videos/S_yt-npaE4fe6A6Y_26.mp4	0.0	296.01468777656555	
73	208.89391207695007	movie	1		301.0	71.0	2.5	/experiments/knapen_aot/videos/S_yt-npaE4fe6A6Y_26.mp4	0.0	296.0228269100189	2.5084450244903564
73	211.40235710144043	fix_post	2		12.0	71.0	2.5	/experiments/knapen_aot/videos/S_yt-npaE4fe6A6Y_26.mp4	0.0	298.5312719345093	0.10011506080627441
74	211.5024721622467	fix_pre	0		24.0	72.0	2.5	/experiments/knapen_aot/videos/R_S_pexels-roman-odintsov-8232443_1.mp4	0.0	298.63138699531555	0.1999058723449707
74	211.6940290927887	response	0	4		72.0	2.5	/experiments/knapen_aot/videos/R_S_pexels-roman-odintsov-8232443_1.mp4	0.0	298.82294392585754	
74	211.70237803459167	movie	1		191.0	72.0	2.5	/experiments/knapen_aot/videos/R_S_pexels-roman-odintsov-8232443_1.mp4	0.0	298.8312928676605	2.508294105529785
74	214.21067214012146	fix_post	2		12.0	72.0	2.5	/experiments/knapen_aot/videos/R_S_pexels-roman-odintsov-8232443_1.mp4	0.0	301.3395869731903	0.09994292259216309
75	214.31061506271362	fix_pre	0		6.0	73.0	2.5	/experiments/knapen_aot/videos/S_comp_LA_A006_C004_v01_SDR_FINAL_PS_20180730_SDR_2K_AVC.mp4	0.0	301.43952989578247	0.0501399040222168
75	214.35243606567383	response	0	4		73.0	2.5	/experiments/knapen_aot/videos/S_comp_LA_A006_C004_v01_SDR_FINAL_PS_20180730_SDR_2K_AVC.mp4	0.0	301.4813508987427	
75	214.36075496673584	movie	1		172.0	73.0	2.5	/experiments/knapen_aot/videos/S_comp_LA_A006_C004_v01_SDR_FINAL_PS_20180730_SDR_2K_AVC.mp4	0.0	301.4896697998047	2.5081770420074463
75	216.8689320087433	fix_post	2		12.0	73.0	2.5	/experiments/knapen_aot/videos/S_comp_LA_A006_C004_v01_SDR_FINAL_PS_20180730_SDR_2K_AVC.mp4	0.0	303.99784684181213	0.10003209114074707
75	216.9190411567688	response	2	4		73.0	2.5	/experiments/knapen_aot/videos/S_comp_LA_A006_C004_v01_SDR_FINAL_PS_20180730_SDR_2K_AVC.mp4	0.0	304.04795598983765	
76	216.96896409988403	fix_pre	0		37.0	74.0	2.5	/experiments/knapen_aot/videos/S_production_ID_4802716.mp4	0.0	304.0978789329529	0.3083620071411133
76	217.26898097991943	response	0	4		74.0	2.5	/experiments/knapen_aot/videos/S_production_ID_4802716.mp4	0.0	304.3978958129883	
76	217.27732610702515	movie	1		164.0	74.0	2.5	/experiments/knapen_aot/videos/S_production_ID_4802716.mp4	0.0	304.406240940094	2.508283853530884
76	219.58102107048035	response	1	4		74.0	2.5	/experiments/knapen_aot/videos/S_production_ID_4802716.mp4	0.0	306.7099359035492	
76	219.78560996055603	fix_post	2		12.0	74.0	2.5	/experiments/knapen_aot/videos/S_production_ID_4802716.mp4	0.0	306.9145247936249	0.0999751091003418
77	219.88558506965637	fix_pre	0		18.0	75.0	2.5	/experiments/knapen_aot/videos/R_S_flickr-csgzs-8144064966_10.mp4	0.0	307.0144999027252	0.14997005462646484
77	220.02738308906555	response	0	4		75.0	2.5	/experiments/knapen_aot/videos/R_S_flickr-csgzs-8144064966_10.mp4	0.0	307.1562979221344	
77	220.03555512428284	movie	1		301.0	75.0	2.5	/experiments/knapen_aot/videos/R_S_flickr-csgzs-8144064966_10.mp4	0.0	307.1644699573517	2.5083630084991455
77	222.54391813278198	fix_post	2		12.0	75.0	2.5	/experiments/knapen_aot/videos/R_S_flickr-csgzs-8144064966_10.mp4	0.0	309.67283296585083	0.10018086433410645
78	222.6440989971161	fix_pre	0		13.0	76.0	2.5	blank	1.0	309.77301383018494	0.10811710357666016
78	222.74391913414001	response	0	4		76.0	2.5	blank	1.0	309.87283396720886	
78	222.75221610069275	movie	1		301.0	76.0	2.5	blank	1.0	309.8811309337616	2.5083608627319336
78	225.26057696342468	fix_post	2		12.0	76.0	2.5	blank	1.0	312.38949179649353	0.10008811950683594
79	225.36066508293152	fix_pre	0		30.0	77.0	2.5	/experiments/knapen_aot/videos/S_ILSVRC2015_train_00074011.mp4	0.0	312.48957991600037	0.24984192848205566
79	225.6022400856018	response	0	4		77.0	2.5	/experiments/knapen_aot/videos/S_ILSVRC2015_train_00074011.mp4	0.0	312.73115491867065	
79	225.61050701141357	movie	1		301.0	77.0	2.5	/experiments/knapen_aot/videos/S_ILSVRC2015_train_00074011.mp4	0.0	312.7394218444824	2.5084121227264404
79	228.11891913414001	fix_post	2		12.0	77.0	2.5	/experiments/knapen_aot/videos/S_ILSVRC2015_train_00074011.mp4	0.0	315.24783396720886	0.09997892379760742
80	228.21889805793762	fix_pre	0		29.0	78.0	2.5	/experiments/knapen_aot/videos/S_CR_A009_C007_SDR_20191113_SDR_2K_AVC.mp4	0.0	315.34781289100647	0.24155592918395996
80	228.45230317115784	response	0	4		78.0	2.5	/experiments/knapen_aot/videos/S_CR_A009_C007_SDR_20191113_SDR_2K_AVC.mp4	0.0	315.5812180042267	
80	228.46045398712158	movie	1		164.0	78.0	2.5	/experiments/knapen_aot/videos/S_CR_A009_C007_SDR_20191113_SDR_2K_AVC.mp4	0.0	315.58936882019043	2.508450984954834
80	230.96890497207642	fix_post	2		12.0	78.0	2.5	/experiments/knapen_aot/videos/S_CR_A009_C007_SDR_20191113_SDR_2K_AVC.mp4	0.0	318.09781980514526	0.09996414184570312
81	231.06886911392212	fix_pre	0		21.0	79.0	2.5	/experiments/knapen_aot/videos/R_S_yt-FsylDeYfcxU_24.mp4	0.0	318.19778394699097	0.17488598823547363
81	231.23568511009216	response	0	4		79.0	2.5	/experiments/knapen_aot/videos/R_S_yt-FsylDeYfcxU_24.mp4	0.0	318.364599943161	
81	231.2437551021576	movie	1		301.0	79.0	2.5	/experiments/knapen_aot/videos/R_S_yt-FsylDeYfcxU_24.mp4	0.0	318.37266993522644	2.5084829330444336
81	233.75223803520203	fix_post	2		12.0	79.0	2.5	/experiments/knapen_aot/videos/R_S_yt-FsylDeYfcxU_24.mp4	0.0	320.8811528682709	0.1000509262084961
82	233.85228896141052	fix_pre	0		9.0	80.0	2.5	/experiments/knapen_aot/videos/S_yt-rlVzHENWufE_61.mp4	0.0	320.98120379447937	0.07587218284606934
82	233.9190011024475	response	0	4		80.0	2.5	/experiments/knapen_aot/videos/S_yt-rlVzHENWufE_61.mp4	0.0	321.04791593551636	
82	233.9281611442566	movie	1		301.0	80.0	2.5	/experiments/knapen_aot/videos/S_yt-rlVzHENWufE_61.mp4	0.0	321.05707597732544	2.5073909759521484
82	236.43555212020874	fix_post	2		12.0	80.0	2.5	/experiments/knapen_aot/videos/S_yt-rlVzHENWufE_61.mp4	0.0	323.5644669532776	0.10009503364562988
83	236.53564715385437	fix_pre	0		31.0	81.0	2.5	/experiments/knapen_aot/videos/R_S_yt-ayx4rU9bJrU_179.mp4	0.0	323.6645619869232	0.25815796852111816
83	236.7856171131134	response	0	4		81.0	2.5	/experiments/knapen_aot/videos/R_S_yt-ayx4rU9bJrU_179.mp4	0.0	323.91453194618225	
83	236.7938051223755	movie	1		301.0	81.0	2.5	/experiments/knapen_aot/videos/R_S_yt-ayx4rU9bJrU_179.mp4	0.0	323.92271995544434	2.5084660053253174
83	239.04394507408142	response	1	4		81.0	2.5	/experiments/knapen_aot/videos/R_S_yt-ayx4rU9bJrU_179.mp4	0.0	326.17285990715027	
83	239.3022711277008	fix_post	2		12.0	81.0	2.5	/experiments/knapen_aot/videos/R_S_yt-ayx4rU9bJrU_179.mp4	0.0	326.43118596076965	0.10006284713745117
84	239.40233397483826	fix_pre	0		248.0	82.0	2.5	blank	1.0	326.5312488079071	2.067371129989624
84	241.46059012413025	response	0	4		82.0	2.5	blank	1.0	328.5895049571991	
84	241.46970510482788	movie	1		301.0	82.0	2.5	blank	1.0	328.59861993789673	2.5074570178985596
84	243.97716212272644	fix_post	2		12.0	82.0	2.5	blank	1.0	331.1060769557953	0.09992384910583496
85	244.07708597183228	fix_pre	0		15.0	83.0	2.5	/experiments/knapen_aot/videos/S_ILSVRC2015_train_00274003.mp4	0.0	331.2060008049011	0.12506604194641113
85	244.19389009475708	response	0	4		83.0	2.5	/experiments/knapen_aot/videos/S_ILSVRC2015_train_00274003.mp4	0.0	331.3228049278259	
85	244.2021520137787	movie	1		301.0	83.0	2.5	/experiments/knapen_aot/videos/S_ILSVRC2015_train_00274003.mp4	0.0	331.33106684684753	2.5083820819854736
85	246.71053409576416	fix_post	2		12.0	83.0	2.5	/experiments/knapen_aot/videos/S_ILSVRC2015_train_00274003.mp4	0.0	333.839448928833	0.09996294975280762
87	246.81049704551697	stim	0		183.0					333.9394118785858	1.5271320343017578
87	246.9106149673462	response	0	4						334.03952980041504	
87	248.33190417289734	response	0	space						335.4608190059662	
