trial_nr	onset	event_type	phase	response	nr_frames	movie_index	movie_duration	movie_file	blank	onset_abs	duration
0	0.12484192848205566	stim	0		33.0					163.63785600662231	0.2773151397705078
0	0.3916969299316406	response	0	space						163.9047110080719	
1	0.4021570682525635	stim	0		121.0					163.91517114639282	1.0057299137115479
1	1.2250680923461914	response	0	space						164.73808217048645	
1	1.4078869819641113	stim	1		120.0					164.92090106010437	1.000035047531128
1	1.8996410369873047	response	1	space						165.41265511512756	
2	2.4079220294952393	fix_pre	0		35.0	0.0	2.5	/experiments/knapen_aot/videos/R_S_yt-LYnwnfi1JJ4_120.mp4	0.0	165.9209361076355	0.29250097274780273
2	2.691380023956299	response	0	space		0.0	2.5	/experiments/knapen_aot/videos/R_S_yt-LYnwnfi1JJ4_120.mp4	0.0	166.20439410209656	
2	2.700423002243042	movie	1		301.0	0.0	2.5	/experiments/knapen_aot/videos/R_S_yt-LYnwnfi1JJ4_120.mp4	0.0	166.2134370803833	2.5074360370635986
2	5.207859039306641	fix_post	2		12.0	0.0	2.5	/experiments/knapen_aot/videos/R_S_yt-LYnwnfi1JJ4_120.mp4	0.0	168.7208731174469	0.09997797012329102
3	5.307837009429932	fix_pre	0		240.0	1.0	2.5	/experiments/knapen_aot/videos/R_S_pexels-kampus-production-6022792.mp4	0.0	168.8208510875702	2.0000720024108887
3	7.300737142562866	response	0	2		1.0	2.5	/experiments/knapen_aot/videos/R_S_pexels-kampus-production-6022792.mp4	0.0	170.81375122070312	
3	7.30790901184082	movie	1		163.0	1.0	2.5	/experiments/knapen_aot/videos/R_S_pexels-kampus-production-6022792.mp4	0.0	170.82092308998108	2.508315086364746
3	9.816224098205566	fix_post	2		12.0	1.0	2.5	/experiments/knapen_aot/videos/R_S_pexels-kampus-production-6022792.mp4	0.0	173.32923817634583	0.10000395774841309
4	9.91622805595398	fix_pre	0		87.0	2.0	2.5	/experiments/knapen_aot/videos/S_yt-P001x88adE4_427.mp4	0.0	173.42924213409424	0.7249469757080078
4	10.625443935394287	response	0	2		2.0	2.5	/experiments/knapen_aot/videos/S_yt-P001x88adE4_427.mp4	0.0	174.13845801353455	
4	10.641175031661987	movie	1		300.0	2.0	2.5	/experiments/knapen_aot/videos/S_yt-P001x88adE4_427.mp4	0.0	174.15418910980225	2.5082828998565674
4	13.149457931518555	fix_post	2		12.0	2.0	2.5	/experiments/knapen_aot/videos/S_yt-P001x88adE4_427.mp4	0.0	176.6624720096588	0.09999418258666992
5	13.249452114105225	fix_pre	0		54.0	3.0	2.5	/experiments/knapen_aot/videos/R_S_g201_TH_803_A001_8_SDR_20191031_SDR_2K_AVC.mp4	0.0	176.76246619224548	0.45084595680236816
5	13.691261053085327	response	0	2		3.0	2.5	/experiments/knapen_aot/videos/R_S_g201_TH_803_A001_8_SDR_20191031_SDR_2K_AVC.mp4	0.0	177.2042751312256	
5	13.700298070907593	movie	1		166.0	3.0	2.5	/experiments/knapen_aot/videos/R_S_g201_TH_803_A001_8_SDR_20191031_SDR_2K_AVC.mp4	0.0	177.21331214904785	2.5075180530548096
5	16.207816123962402	fix_post	2		12.0	3.0	2.5	/experiments/knapen_aot/videos/R_S_g201_TH_803_A001_8_SDR_20191031_SDR_2K_AVC.mp4	0.0	179.72083020210266	0.0999898910522461
6	16.30780601501465	fix_pre	0		33.0	4.0	2.5	/experiments/knapen_aot/videos/R_S_g201_TH_803_A001_8_SDR_20191031_SDR_2K_AVC.mp4	0.0	179.8208200931549	0.2750089168548584
6	16.574636936187744	response	0	2		4.0	2.5	/experiments/knapen_aot/videos/R_S_g201_TH_803_A001_8_SDR_20191031_SDR_2K_AVC.mp4	0.0	180.087651014328	
6	16.582814931869507	movie	1		166.0	4.0	2.5	/experiments/knapen_aot/videos/R_S_g201_TH_803_A001_8_SDR_20191031_SDR_2K_AVC.mp4	0.0	180.09582901000977	2.5083770751953125
6	19.09119200706482	fix_post	2		12.0	4.0	2.5	/experiments/knapen_aot/videos/R_S_g201_TH_803_A001_8_SDR_20191031_SDR_2K_AVC.mp4	0.0	182.60420608520508	0.10007500648498535
7	19.191267013549805	fix_pre	0		34.0	5.0	2.5	/experiments/knapen_aot/videos/S_yt-2cwARrUMj40_67.mp4	0.0	182.70428109169006	0.28325700759887695
7	19.466341018676758	response	0	2		5.0	2.5	/experiments/knapen_aot/videos/S_yt-2cwARrUMj40_67.mp4	0.0	182.97935509681702	
7	19.47452402114868	movie	1		301.0	5.0	2.5	/experiments/knapen_aot/videos/S_yt-2cwARrUMj40_67.mp4	0.0	182.98753809928894	2.508286952972412
7	21.982810974121094	fix_post	2		12.0	5.0	2.5	/experiments/knapen_aot/videos/S_yt-2cwARrUMj40_67.mp4	0.0	185.49582505226135	0.1000211238861084
8	22.082832098007202	fix_pre	0		36.0	6.0	2.5	/experiments/knapen_aot/videos/S_yt-gmiyqQDGN78_7.mp4	0.0	185.59584617614746	0.2999229431152344
8	22.374589920043945	response	0	2		6.0	2.5	/experiments/knapen_aot/videos/S_yt-gmiyqQDGN78_7.mp4	0.0	185.8876039981842	
8	22.382755041122437	movie	1		301.0	6.0	2.5	/experiments/knapen_aot/videos/S_yt-gmiyqQDGN78_7.mp4	0.0	185.8957691192627	2.508315086364746
8	24.891070127487183	fix_post	2		12.0	6.0	2.5	/experiments/knapen_aot/videos/S_yt-gmiyqQDGN78_7.mp4	0.0	188.40408420562744	0.10004401206970215
9	24.991114139556885	fix_pre	0		25.0	7.0	2.5	blank	1.0	188.50412821769714	0.20913290977478027
9	25.191334009170532	response	0	2		7.0	2.5	blank	1.0	188.7043480873108	
9	25.200247049331665	movie	1		301.0	7.0	2.5	blank	1.0	188.71326112747192	2.5076780319213867
9	27.70792508125305	fix_post	2		12.0	7.0	2.5	blank	1.0	191.2209391593933	0.0998389720916748
10	27.807764053344727	fix_pre	0		29.0	8.0	2.5	/experiments/knapen_aot/videos/R_S_yt-yPl8LcgSMjo_32.mp4	0.0	191.32077813148499	0.24165701866149902
10	28.041209936141968	response	0	2		8.0	2.5	/experiments/knapen_aot/videos/R_S_yt-yPl8LcgSMjo_32.mp4	0.0	191.55422401428223	
10	28.049421072006226	movie	1		301.0	8.0	2.5	/experiments/knapen_aot/videos/R_S_yt-yPl8LcgSMjo_32.mp4	0.0	191.56243515014648	2.5083389282226562
10	30.557760000228882	fix_post	2		12.0	8.0	2.5	/experiments/knapen_aot/videos/R_S_yt-yPl8LcgSMjo_32.mp4	0.0	194.07077407836914	0.10002303123474121
11	30.657783031463623	fix_pre	0		42.0	9.0	2.5	/experiments/knapen_aot/videos/R_S_video_inspire_california_vineyard_sierra-mar_sunrise_110.1080-h264.mp4	0.0	194.17079710960388	0.34997010231018066
11	30.99959397315979	response	0	2		9.0	2.5	/experiments/knapen_aot/videos/R_S_video_inspire_california_vineyard_sierra-mar_sunrise_110.1080-h264.mp4	0.0	194.51260805130005	
11	31.007753133773804	movie	1		169.0	9.0	2.5	/experiments/knapen_aot/videos/R_S_video_inspire_california_vineyard_sierra-mar_sunrise_110.1080-h264.mp4	0.0	194.52076721191406	2.508358955383301
11	33.516112089157104	fix_post	2		12.0	9.0	2.5	/experiments/knapen_aot/videos/R_S_video_inspire_california_vineyard_sierra-mar_sunrise_110.1080-h264.mp4	0.0	197.02912616729736	0.09991884231567383
12	33.61603093147278	fix_pre	0		31.0	10.0	2.5	/experiments/knapen_aot/videos/S_yt-cG2qDR5ka5w_119.mp4	0.0	197.12904500961304	0.2584052085876465
12	33.8661949634552	response	0	2		10.0	2.5	/experiments/knapen_aot/videos/S_yt-cG2qDR5ka5w_119.mp4	0.0	197.37920904159546	
12	33.874436140060425	movie	1		301.0	10.0	2.5	/experiments/knapen_aot/videos/S_yt-cG2qDR5ka5w_119.mp4	0.0	197.38745021820068	2.508246898651123
12	36.38268303871155	fix_post	2		12.0	10.0	2.5	/experiments/knapen_aot/videos/S_yt-cG2qDR5ka5w_119.mp4	0.0	199.8956971168518	0.10006093978881836
13	36.482743978500366	fix_pre	0		41.0	11.0	2.5	/experiments/knapen_aot/videos/S_yt-MTo50ReVNmU_2.mp4	0.0	199.99575805664062	0.3423149585723877
13	36.81622099876404	response	0	2		11.0	2.5	/experiments/knapen_aot/videos/S_yt-MTo50ReVNmU_2.mp4	0.0	200.3292350769043	
13	36.825058937072754	movie	1		301.0	11.0	2.5	/experiments/knapen_aot/videos/S_yt-MTo50ReVNmU_2.mp4	0.0	200.338073015213	2.5076379776000977
13	39.33269691467285	fix_post	2		12.0	11.0	2.5	/experiments/knapen_aot/videos/S_yt-MTo50ReVNmU_2.mp4	0.0	202.8457109928131	0.10002517700195312
14	39.432722091674805	fix_pre	0		50.0	12.0	2.5	/experiments/knapen_aot/videos/R_S_yt-9CY7rDYBYUI_40.mp4	0.0	202.94573616981506	0.41657400131225586
14	39.84122014045715	response	0	2		12.0	2.5	/experiments/knapen_aot/videos/R_S_yt-9CY7rDYBYUI_40.mp4	0.0	203.3542342185974	
14	39.84929609298706	movie	1		301.0	12.0	2.5	/experiments/knapen_aot/videos/R_S_yt-9CY7rDYBYUI_40.mp4	0.0	203.36231017112732	2.508366823196411
14	42.35766291618347	fix_post	2		12.0	12.0	2.5	/experiments/knapen_aot/videos/R_S_yt-9CY7rDYBYUI_40.mp4	0.0	205.87067699432373	0.10003018379211426
15	42.457693099975586	fix_pre	0		44.0	13.0	2.5	/experiments/knapen_aot/videos/R_S_yt--wYgjXsc1XQ_106.mp4	0.0	205.97070717811584	0.3673269748687744
15	42.81614303588867	response	0	2		13.0	2.5	/experiments/knapen_aot/videos/R_S_yt--wYgjXsc1XQ_106.mp4	0.0	206.32915711402893	
15	42.82502007484436	movie	1		301.0	13.0	2.5	/experiments/knapen_aot/videos/R_S_yt--wYgjXsc1XQ_106.mp4	0.0	206.33803415298462	2.5076658725738525
15	45.33268594741821	fix_post	2		12.0	13.0	2.5	/experiments/knapen_aot/videos/R_S_yt--wYgjXsc1XQ_106.mp4	0.0	208.84570002555847	0.10002708435058594
16	45.4327130317688	fix_pre	0		28.0	14.0	2.5	blank	1.0	208.94572710990906	0.23334097862243652
16	45.65785312652588	response	0	2		14.0	2.5	blank	1.0	209.17086720466614	
16	45.666054010391235	movie	1		301.0	14.0	2.5	blank	1.0	209.1790680885315	2.5082969665527344
16	48.17435097694397	fix_post	2		12.0	14.0	2.5	blank	1.0	211.68736505508423	0.0999140739440918
17	48.27426505088806	fix_pre	0		62.0	15.0	2.5	/experiments/knapen_aot/videos/S_G008_C015_UHD_SDR_2K_AVC.mp4	0.0	211.78727912902832	0.5167059898376465
17	48.78282594680786	response	0	2		15.0	2.5	/experiments/knapen_aot/videos/S_G008_C015_UHD_SDR_2K_AVC.mp4	0.0	212.29584002494812	
17	48.79097104072571	movie	1		191.0	15.0	2.5	/experiments/knapen_aot/videos/S_G008_C015_UHD_SDR_2K_AVC.mp4	0.0	212.30398511886597	2.5083889961242676
17	51.299360036849976	fix_post	2		12.0	15.0	2.5	/experiments/knapen_aot/videos/S_G008_C015_UHD_SDR_2K_AVC.mp4	0.0	214.81237411499023	0.1000359058380127
18	51.39939594268799	fix_pre	0		33.0	16.0	2.5	/experiments/knapen_aot/videos/R_S_yt-o0Hbe7kcPps_70.mp4	0.0	214.91241002082825	0.27495718002319336
18	51.66610407829285	response	0	2		16.0	2.5	/experiments/knapen_aot/videos/R_S_yt-o0Hbe7kcPps_70.mp4	0.0	215.1791181564331	
18	51.67435312271118	movie	1		301.0	16.0	2.5	/experiments/knapen_aot/videos/R_S_yt-o0Hbe7kcPps_70.mp4	0.0	215.18736720085144	2.5082738399505615
18	54.18262696266174	fix_post	2		12.0	16.0	2.5	/experiments/knapen_aot/videos/R_S_yt-o0Hbe7kcPps_70.mp4	0.0	217.695641040802	0.0999610424041748
19	54.28258800506592	fix_pre	0		38.0	17.0	2.5	/experiments/knapen_aot/videos/R_S_yt-rZA9zXR-A6s_426.mp4	0.0	217.79560208320618	0.3166971206665039
19	54.59113311767578	response	0	2		17.0	2.5	/experiments/knapen_aot/videos/R_S_yt-rZA9zXR-A6s_426.mp4	0.0	218.10414719581604	
19	54.59928512573242	movie	1		301.0	17.0	2.5	/experiments/knapen_aot/videos/R_S_yt-rZA9zXR-A6s_426.mp4	0.0	218.11229920387268	2.508405923843384
19	57.107691049575806	fix_post	2		12.0	17.0	2.5	/experiments/knapen_aot/videos/R_S_yt-rZA9zXR-A6s_426.mp4	0.0	220.62070512771606	0.10003805160522461
20	57.20772910118103	fix_pre	0		55.0	18.0	2.5	/experiments/knapen_aot/videos/R_S_yt-WrwPgZYBXlA_34.mp4	0.0	220.7207431793213	0.45839500427246094
20	57.65783095359802	response	0	2		18.0	2.5	/experiments/knapen_aot/videos/R_S_yt-WrwPgZYBXlA_34.mp4	0.0	221.17084503173828	
20	57.66612410545349	movie	1		301.0	18.0	2.5	/experiments/knapen_aot/videos/R_S_yt-WrwPgZYBXlA_34.mp4	0.0	221.17913818359375	2.508246898651123
20	60.174371004104614	fix_post	2		12.0	18.0	2.5	/experiments/knapen_aot/videos/R_S_yt-WrwPgZYBXlA_34.mp4	0.0	223.68738508224487	0.09995603561401367
21	60.27432703971863	fix_pre	0		42.0	19.0	2.5	/experiments/knapen_aot/videos/R_S_yt-xnqqB-leeaQ_128.mp4	0.0	223.7873411178589	0.34995508193969727
21	60.61616897583008	response	0	2		19.0	2.5	/experiments/knapen_aot/videos/R_S_yt-xnqqB-leeaQ_128.mp4	0.0	224.12918305397034	
21	60.624282121658325	movie	1		301.0	19.0	2.5	/experiments/knapen_aot/videos/R_S_yt-xnqqB-leeaQ_128.mp4	0.0	224.13729619979858	2.508368968963623
21	63.13265109062195	fix_post	2		12.0	19.0	2.5	/experiments/knapen_aot/videos/R_S_yt-xnqqB-leeaQ_128.mp4	0.0	226.6456651687622	0.10000896453857422
22	63.23266005516052	fix_pre	0		22.0	20.0	2.5	/experiments/knapen_aot/videos/S_comp_LA_A005_C009_PSNK_ALT_v09_SDR_PS_201809134_SDR_2K_AVC.mp4	0.0	226.74567413330078	0.183319091796875
22	63.407809019088745	response	0	2		20.0	2.5	/experiments/knapen_aot/videos/S_comp_LA_A005_C009_PSNK_ALT_v09_SDR_PS_201809134_SDR_2K_AVC.mp4	0.0	226.920823097229	
22	63.4159791469574	movie	1		187.0	20.0	2.5	/experiments/knapen_aot/videos/S_comp_LA_A005_C009_PSNK_ALT_v09_SDR_PS_201809134_SDR_2K_AVC.mp4	0.0	226.92899322509766	2.508366823196411
22	65.92434597015381	fix_post	2		12.0	20.0	2.5	/experiments/knapen_aot/videos/S_comp_LA_A005_C009_PSNK_ALT_v09_SDR_PS_201809134_SDR_2K_AVC.mp4	0.0	229.43736004829407	0.09998512268066406
23	66.02433109283447	fix_pre	0		41.0	21.0	2.5	blank	1.0	229.53734517097473	0.3421909809112549
23	66.35776114463806	response	0	2		21.0	2.5	blank	1.0	229.87077522277832	
23	66.36652207374573	movie	1		301.0	21.0	2.5	blank	1.0	229.879536151886	2.507740020751953
23	68.87426209449768	fix_post	2		12.0	21.0	2.5	blank	1.0	232.38727617263794	0.1000518798828125
24	68.9743139743805	fix_pre	0		147.0	22.0	2.5	/experiments/knapen_aot/videos/R_S_yt-MTo50ReVNmU_2.mp4	0.0	232.48732805252075	1.2254810333251953
24	70.19106101989746	response	0	2		22.0	2.5	/experiments/knapen_aot/videos/R_S_yt-MTo50ReVNmU_2.mp4	0.0	233.70407509803772	
24	70.19979500770569	movie	1		301.0	22.0	2.5	/experiments/knapen_aot/videos/R_S_yt-MTo50ReVNmU_2.mp4	0.0	233.71280908584595	2.5078461170196533
24	72.70764112472534	fix_post	2		12.0	22.0	2.5	/experiments/knapen_aot/videos/R_S_yt-MTo50ReVNmU_2.mp4	0.0	236.2206552028656	0.09995794296264648
25	72.80759906768799	fix_pre	0		37.0	23.0	2.5	/experiments/knapen_aot/videos/R_S_yt-H3EadcgKySM_58.mp4	0.0	236.32061314582825	0.30875492095947266
25	73.10768103599548	response	0	2		23.0	2.5	/experiments/knapen_aot/videos/R_S_yt-H3EadcgKySM_58.mp4	0.0	236.62069511413574	
25	73.11635398864746	movie	1		301.0	23.0	2.5	/experiments/knapen_aot/videos/R_S_yt-H3EadcgKySM_58.mp4	0.0	236.62936806678772	2.507880926132202
25	75.62423491477966	fix_post	2		12.0	23.0	2.5	/experiments/knapen_aot/videos/R_S_yt-H3EadcgKySM_58.mp4	0.0	239.13724899291992	0.10000014305114746
26	75.72423505783081	fix_pre	0		36.0	24.0	2.5	/experiments/knapen_aot/videos/S_yt-z68VLDDCFdw_93.mp4	0.0	239.23724913597107	0.29999208450317383
26	76.01601791381836	response	0	2		24.0	2.5	/experiments/knapen_aot/videos/S_yt-z68VLDDCFdw_93.mp4	0.0	239.52903199195862	
26	76.02422714233398	movie	1		301.0	24.0	2.5	/experiments/knapen_aot/videos/S_yt-z68VLDDCFdw_93.mp4	0.0	239.53724122047424	2.5083329677581787
26	78.53256011009216	fix_post	2		12.0	24.0	2.5	/experiments/knapen_aot/videos/S_yt-z68VLDDCFdw_93.mp4	0.0	242.04557418823242	0.10000085830688477
27	78.63256096839905	fix_pre	0		119.0	25.0	2.5	/experiments/knapen_aot/videos/S_yt-TxU1H5A6BaQ_52.mp4	0.0	242.1455750465393	0.9916160106658936
27	79.6161060333252	response	0	2		25.0	2.5	/experiments/knapen_aot/videos/S_yt-TxU1H5A6BaQ_52.mp4	0.0	243.12912011146545	
27	79.62417697906494	movie	1		301.0	25.0	2.5	/experiments/knapen_aot/videos/S_yt-TxU1H5A6BaQ_52.mp4	0.0	243.1371910572052	2.5083651542663574
27	82.1325421333313	fix_post	2		12.0	25.0	2.5	/experiments/knapen_aot/videos/S_yt-TxU1H5A6BaQ_52.mp4	0.0	245.64555621147156	0.10007095336914062
28	82.23261308670044	fix_pre	0		86.0	26.0	2.5	blank	1.0	245.7456271648407	0.7170929908752441
28	82.94100594520569	response	0	2		26.0	2.5	blank	1.0	246.45402002334595	
28	82.94970607757568	movie	1		301.0	26.0	2.5	blank	1.0	246.46272015571594	2.507844924926758
28	85.45755100250244	fix_post	2		12.0	26.0	2.5	blank	1.0	248.9705650806427	0.09991693496704102
29	85.55746793746948	fix_pre	0		32.0	27.0	2.5	/experiments/knapen_aot/videos/S_g201_TH_803_A001_8_SDR_20191031_SDR_2K_AVC.mp4	0.0	249.07048201560974	0.2671370506286621
29	85.80842804908752	response	0	2		27.0	2.5	/experiments/knapen_aot/videos/S_g201_TH_803_A001_8_SDR_20191031_SDR_2K_AVC.mp4	0.0	249.32144212722778	
29	85.82460498809814	movie	1		173.0	27.0	2.5	/experiments/knapen_aot/videos/S_g201_TH_803_A001_8_SDR_20191031_SDR_2K_AVC.mp4	0.0	249.3376190662384	2.5078959465026855
29	88.33250093460083	fix_post	2		12.0	27.0	2.5	/experiments/knapen_aot/videos/S_g201_TH_803_A001_8_SDR_20191031_SDR_2K_AVC.mp4	0.0	251.8455150127411	0.09990501403808594
30	88.43240594863892	fix_pre	0		25.0	28.0	2.5	/experiments/knapen_aot/videos/S_pexels-rodnae-productions-7467585.mp4	0.0	251.94542002677917	0.2084519863128662
30	88.6326220035553	response	0	2		28.0	2.5	/experiments/knapen_aot/videos/S_pexels-rodnae-productions-7467585.mp4	0.0	252.14563608169556	
30	88.64085793495178	movie	1		160.0	28.0	2.5	/experiments/knapen_aot/videos/S_pexels-rodnae-productions-7467585.mp4	0.0	252.15387201309204	2.5083370208740234
30	91.1491949558258	fix_post	2		12.0	28.0	2.5	/experiments/knapen_aot/videos/S_pexels-rodnae-productions-7467585.mp4	0.0	254.66220903396606	0.09993815422058105
31	91.24913311004639	fix_pre	0		30.0	29.0	2.5	/experiments/knapen_aot/videos/S_yt-7NjoFHBdP7c_102.mp4	0.0	254.76214718818665	0.25007081031799316
31	91.49111604690552	response	0	2		29.0	2.5	/experiments/knapen_aot/videos/S_yt-7NjoFHBdP7c_102.mp4	0.0	255.00413012504578	
31	91.49920392036438	movie	1		299.0	29.0	2.5	/experiments/knapen_aot/videos/S_yt-7NjoFHBdP7c_102.mp4	0.0	255.01221799850464	2.5082499980926514
31	94.00745391845703	fix_post	2		12.0	29.0	2.5	/experiments/knapen_aot/videos/S_yt-7NjoFHBdP7c_102.mp4	0.0	257.5204679965973	0.10006523132324219
32	94.10751914978027	fix_pre	0		35.0	30.0	2.5	/experiments/knapen_aot/videos/S_video_inspire_florida_miami_brickell_sunset_00036.1080-h264.mp4	0.0	257.62053322792053	0.2916569709777832
32	94.39088201522827	response	0	2		30.0	2.5	/experiments/knapen_aot/videos/S_video_inspire_florida_miami_brickell_sunset_00036.1080-h264.mp4	0.0	257.90389609336853	
32	94.39917612075806	movie	1		165.0	30.0	2.5	/experiments/knapen_aot/videos/S_video_inspire_florida_miami_brickell_sunset_00036.1080-h264.mp4	0.0	257.9121901988983	2.5082778930664062
32	96.90745401382446	fix_post	2		12.0	30.0	2.5	/experiments/knapen_aot/videos/S_video_inspire_florida_miami_brickell_sunset_00036.1080-h264.mp4	0.0	260.4204680919647	0.10002899169921875
33	97.00748300552368	fix_pre	0		41.0	31.0	2.5	/experiments/knapen_aot/videos/S_yt-wLylWnZs3z0_27.mp4	0.0	260.52049708366394	0.34166693687438965
33	97.34093308448792	response	0	2		31.0	2.5	/experiments/knapen_aot/videos/S_yt-wLylWnZs3z0_27.mp4	0.0	260.8539471626282	
33	97.34914994239807	movie	1		299.0	31.0	2.5	/experiments/knapen_aot/videos/S_yt-wLylWnZs3z0_27.mp4	0.0	260.86216402053833	2.5083141326904297
33	99.8574640750885	fix_post	2		12.0	31.0	2.5	/experiments/knapen_aot/videos/S_yt-wLylWnZs3z0_27.mp4	0.0	263.37047815322876	0.1000218391418457
34	99.95748591423035	fix_pre	0		32.0	32.0	2.5	/experiments/knapen_aot/videos/R_S_yt-MUfa26F8dfE_97.mp4	0.0	263.4704999923706	0.266618013381958
34	100.21596312522888	response	0	2		32.0	2.5	/experiments/knapen_aot/videos/R_S_yt-MUfa26F8dfE_97.mp4	0.0	263.72897720336914	
34	100.2241039276123	movie	1		301.0	32.0	2.5	/experiments/knapen_aot/videos/R_S_yt-MUfa26F8dfE_97.mp4	0.0	263.73711800575256	2.5083231925964355
34	102.73242712020874	fix_post	2		12.0	32.0	2.5	/experiments/knapen_aot/videos/R_S_yt-MUfa26F8dfE_97.mp4	0.0	266.245441198349	0.10004782676696777
35	102.83247494697571	fix_pre	0		28.0	33.0	2.5	blank	1.0	266.34548902511597	0.2333359718322754
35	103.0575840473175	response	0	2		33.0	2.5	blank	1.0	266.57059812545776	
35	103.06581091880798	movie	1		301.0	33.0	2.5	blank	1.0	266.57882499694824	2.5083091259002686
35	105.57412004470825	fix_post	2		12.0	33.0	2.5	blank	1.0	269.0871341228485	0.10000300407409668
36	105.67412304878235	fix_pre	0		35.0	34.0	2.5	/experiments/knapen_aot/videos/R_S_flickr-slruok-8006772217_6.mp4	0.0	269.1871371269226	0.29159998893737793
36	105.95761394500732	response	0	2		34.0	2.5	/experiments/knapen_aot/videos/R_S_flickr-slruok-8006772217_6.mp4	0.0	269.4706280231476	
36	105.96572303771973	movie	1		301.0	34.0	2.5	/experiments/knapen_aot/videos/R_S_flickr-slruok-8006772217_6.mp4	0.0	269.47873711586	2.508413076400757
36	108.47413611412048	fix_post	2		12.0	34.0	2.5	/experiments/knapen_aot/videos/R_S_flickr-slruok-8006772217_6.mp4	0.0	271.98715019226074	0.10029792785644531
37	108.57443404197693	fix_pre	0		62.0	35.0	2.5	/experiments/knapen_aot/videos/S_pexels-mikhail-nilov-8410088.mp4	0.0	272.0874481201172	0.5163590908050537
37	109.08261299133301	response	0	2		35.0	2.5	/experiments/knapen_aot/videos/S_pexels-mikhail-nilov-8410088.mp4	0.0	272.59562706947327	
37	109.09079313278198	movie	1		161.0	35.0	2.5	/experiments/knapen_aot/videos/S_pexels-mikhail-nilov-8410088.mp4	0.0	272.60380721092224	2.5083019733428955
37	111.59909510612488	fix_post	2		12.0	35.0	2.5	/experiments/knapen_aot/videos/S_pexels-mikhail-nilov-8410088.mp4	0.0	275.11210918426514	0.09997797012329102
38	111.69907307624817	fix_pre	0		36.0	36.0	2.5	/experiments/knapen_aot/videos/S_yt-ZdXwVfF6T-s_25.mp4	0.0	275.2120871543884	0.3000049591064453
38	111.99091291427612	response	0	2		36.0	2.5	/experiments/knapen_aot/videos/S_yt-ZdXwVfF6T-s_25.mp4	0.0	275.5039269924164	
38	111.99907803535461	movie	1		301.0	36.0	2.5	/experiments/knapen_aot/videos/S_yt-ZdXwVfF6T-s_25.mp4	0.0	275.5120921134949	2.508347988128662
38	114.50742602348328	fix_post	2		12.0	36.0	2.5	/experiments/knapen_aot/videos/S_yt-ZdXwVfF6T-s_25.mp4	0.0	278.02044010162354	0.09992408752441406
39	114.60735011100769	fix_pre	0		82.0	37.0	2.5	/experiments/knapen_aot/videos/R_S_yt-8gCfc-o3pyk_85.mp4	0.0	278.12036418914795	0.6833398342132568
39	115.28253293037415	response	0	2		37.0	2.5	/experiments/knapen_aot/videos/R_S_yt-8gCfc-o3pyk_85.mp4	0.0	278.7955470085144	
39	115.29068994522095	movie	1		301.0	37.0	2.5	/experiments/knapen_aot/videos/R_S_yt-8gCfc-o3pyk_85.mp4	0.0	278.8037040233612	2.5084049701690674
39	117.79909491539001	fix_post	2		12.0	37.0	2.5	/experiments/knapen_aot/videos/R_S_yt-8gCfc-o3pyk_85.mp4	0.0	281.3121089935303	0.10007214546203613
40	117.89916706085205	fix_pre	0		66.0	38.0	2.5	/experiments/knapen_aot/videos/S_pexels-c-technical-6491262.mp4	0.0	281.4121811389923	0.5502729415893555
40	118.4408609867096	response	0	2		38.0	2.5	/experiments/knapen_aot/videos/S_pexels-c-technical-6491262.mp4	0.0	281.95387506484985	
40	118.4494400024414	movie	1		192.0	38.0	2.5	/experiments/knapen_aot/videos/S_pexels-c-technical-6491262.mp4	0.0	281.96245408058167	2.5079240798950195
40	120.95736408233643	fix_post	2		12.0	38.0	2.5	/experiments/knapen_aot/videos/S_pexels-c-technical-6491262.mp4	0.0	284.4703781604767	0.09992289543151855
41	121.05728697776794	fix_pre	0		101.0	39.0	2.5	/experiments/knapen_aot/videos/R_S_yt-JmmyeMOFpII_29.mp4	0.0	284.5703010559082	0.8417301177978516
41	121.89089608192444	response	0	2		39.0	2.5	/experiments/knapen_aot/videos/R_S_yt-JmmyeMOFpII_29.mp4	0.0	285.4039101600647	
41	121.8990170955658	movie	1		301.0	39.0	2.5	/experiments/knapen_aot/videos/R_S_yt-JmmyeMOFpII_29.mp4	0.0	285.41203117370605	2.50832200050354
41	124.40733909606934	fix_post	2		12.0	39.0	2.5	/experiments/knapen_aot/videos/R_S_yt-JmmyeMOFpII_29.mp4	0.0	287.9203531742096	0.10002684593200684
42	124.50736594200134	fix_pre	0		44.0	40.0	2.5	/experiments/knapen_aot/videos/R_S_yt-zh2yLr-o_8A_953.mp4	0.0	288.0203800201416	0.36662912368774414
42	124.86584210395813	response	0	2		40.0	2.5	/experiments/knapen_aot/videos/R_S_yt-zh2yLr-o_8A_953.mp4	0.0	288.3788561820984	
42	124.87399506568909	movie	1		301.0	40.0	2.5	/experiments/knapen_aot/videos/R_S_yt-zh2yLr-o_8A_953.mp4	0.0	288.38700914382935	2.5082600116729736
42	127.38225507736206	fix_post	2		12.0	40.0	2.5	/experiments/knapen_aot/videos/R_S_yt-zh2yLr-o_8A_953.mp4	0.0	290.8952691555023	0.10012292861938477
43	127.48237800598145	fix_pre	0		56.0	41.0	2.5	blank	1.0	290.9953920841217	0.46682310104370117
43	127.9332389831543	response	0	2		41.0	2.5	blank	1.0	291.44625306129456	
43	127.94920110702515	movie	1		301.0	41.0	2.5	blank	1.0	291.4622151851654	2.5081658363342285
43	130.45736694335938	fix_post	2		12.0	41.0	2.5	blank	1.0	293.97038102149963	0.09999704360961914
44	130.557363986969	fix_pre	0		42.0	42.0	2.5	/experiments/knapen_aot/videos/S_yt-gDZnJCR2uXI_18.mp4	0.0	294.07037806510925	0.35015296936035156
44	130.89902710914612	response	0	2		42.0	2.5	/experiments/knapen_aot/videos/S_yt-gDZnJCR2uXI_18.mp4	0.0	294.4120411872864	
44	130.90751695632935	movie	1		299.0	42.0	2.5	/experiments/knapen_aot/videos/S_yt-gDZnJCR2uXI_18.mp4	0.0	294.4205310344696	2.5080959796905518
44	133.4156129360199	fix_post	2		12.0	42.0	2.5	/experiments/knapen_aot/videos/S_yt-gDZnJCR2uXI_18.mp4	0.0	296.92862701416016	0.09999799728393555
45	133.51561093330383	fix_pre	0		84.0	43.0	2.5	/experiments/knapen_aot/videos/S_yt-ZzC953ahaxs_195.mp4	0.0	297.0286250114441	0.7000172138214111
45	134.2074670791626	response	0	2		43.0	2.5	/experiments/knapen_aot/videos/S_yt-ZzC953ahaxs_195.mp4	0.0	297.72048115730286	
45	134.21562814712524	movie	1		301.0	43.0	2.5	/experiments/knapen_aot/videos/S_yt-ZzC953ahaxs_195.mp4	0.0	297.7286422252655	2.508389949798584
45	136.72401809692383	fix_post	2		12.0	43.0	2.5	/experiments/knapen_aot/videos/S_yt-ZzC953ahaxs_195.mp4	0.0	300.2370321750641	0.10020303726196289
46	136.8242211341858	fix_pre	0		80.0	44.0	2.5	/experiments/knapen_aot/videos/R_S_yt-wLylWnZs3z0_27.mp4	0.0	300.33723521232605	0.6665678024291992
46	137.4824640750885	response	0	2		44.0	2.5	/experiments/knapen_aot/videos/R_S_yt-wLylWnZs3z0_27.mp4	0.0	300.99547815322876	
46	137.490788936615	movie	1		301.0	44.0	2.5	/experiments/knapen_aot/videos/R_S_yt-wLylWnZs3z0_27.mp4	0.0	301.00380301475525	2.5081369876861572
46	139.99892592430115	fix_post	2		12.0	44.0	2.5	/experiments/knapen_aot/videos/R_S_yt-wLylWnZs3z0_27.mp4	0.0	303.5119400024414	0.10004520416259766
47	140.09897112846375	fix_pre	0		67.0	45.0	2.5	/experiments/knapen_aot/videos/S_comp_H004_C009_PS_v01_SDR_PS_20180925_SDR_2K_AVC.mp4	0.0	303.611985206604	0.5584759712219238
47	140.64912700653076	response	0	2		45.0	2.5	/experiments/knapen_aot/videos/S_comp_H004_C009_PS_v01_SDR_PS_20180925_SDR_2K_AVC.mp4	0.0	304.162141084671	
47	140.65744709968567	movie	1		177.0	45.0	2.5	/experiments/knapen_aot/videos/S_comp_H004_C009_PS_v01_SDR_PS_20180925_SDR_2K_AVC.mp4	0.0	304.1704611778259	2.5081100463867188
47	143.1655571460724	fix_post	2		12.0	45.0	2.5	/experiments/knapen_aot/videos/S_comp_H004_C009_PS_v01_SDR_PS_20180925_SDR_2K_AVC.mp4	0.0	306.67857122421265	0.10003185272216797
48	143.26558899879456	fix_pre	0		71.0	46.0	2.5	/experiments/knapen_aot/videos/R_S_yt-RO4mhuXBVrY_67.mp4	0.0	306.7786030769348	0.5917060375213623
48	143.84908413887024	response	0	2		46.0	2.5	/experiments/knapen_aot/videos/R_S_yt-RO4mhuXBVrY_67.mp4	0.0	307.3620982170105	
48	143.85729503631592	movie	1		301.0	46.0	2.5	/experiments/knapen_aot/videos/R_S_yt-RO4mhuXBVrY_67.mp4	0.0	307.3703091144562	2.5085060596466064
48	146.36580109596252	fix_post	2		12.0	46.0	2.5	/experiments/knapen_aot/videos/R_S_yt-RO4mhuXBVrY_67.mp4	0.0	309.8788151741028	0.09982895851135254
49	146.46563005447388	fix_pre	0		38.0	47.0	2.5	/experiments/knapen_aot/videos/R_S_yt-pB9w3AA-woE_37.mp4	0.0	309.97864413261414	0.3167119026184082
49	146.7667200565338	response	0	2		47.0	2.5	/experiments/knapen_aot/videos/R_S_yt-pB9w3AA-woE_37.mp4	0.0	310.2797341346741	
49	146.78234195709229	movie	1		301.0	47.0	2.5	/experiments/knapen_aot/videos/R_S_yt-pB9w3AA-woE_37.mp4	0.0	310.29535603523254	2.508272171020508
49	149.2906141281128	fix_post	2		12.0	47.0	2.5	/experiments/knapen_aot/videos/R_S_yt-pB9w3AA-woE_37.mp4	0.0	312.80362820625305	0.09988188743591309
50	149.3904960155487	fix_pre	0		53.0	48.0	2.5	/experiments/knapen_aot/videos/S_flickr-51283549@N02-23064904264_16.mp4	0.0	312.90351009368896	0.44167399406433105
50	149.82404804229736	response	0	2		48.0	2.5	/experiments/knapen_aot/videos/S_flickr-51283549@N02-23064904264_16.mp4	0.0	313.3370621204376	
50	149.83217000961304	movie	1		166.0	48.0	2.5	/experiments/knapen_aot/videos/S_flickr-51283549@N02-23064904264_16.mp4	0.0	313.3451840877533	2.5083789825439453
50	152.34054899215698	fix_post	2		12.0	48.0	2.5	/experiments/knapen_aot/videos/S_flickr-51283549@N02-23064904264_16.mp4	0.0	315.85356307029724	0.10003113746643066
51	152.4405801296234	fix_pre	0		47.0	49.0	2.5	blank	1.0	315.9535942077637	0.3916018009185791
51	152.82402110099792	response	0	2		49.0	2.5	blank	1.0	316.3370351791382	
51	152.832181930542	movie	1		301.0	49.0	2.5	blank	1.0	316.34519600868225	2.5083680152893066
51	155.3405499458313	fix_post	2		12.0	49.0	2.5	blank	1.0	318.85356402397156	0.10001111030578613
52	155.44056105613708	fix_pre	0		41.0	50.0	2.5	/experiments/knapen_aot/videos/S_yt-oVS_k_9upmo_205.mp4	0.0	318.95357513427734	0.34171009063720703
52	155.77407312393188	response	0	2		50.0	2.5	/experiments/knapen_aot/videos/S_yt-oVS_k_9upmo_205.mp4	0.0	319.28708720207214	
52	155.7822711467743	movie	1		301.0	50.0	2.5	/experiments/knapen_aot/videos/S_yt-oVS_k_9upmo_205.mp4	0.0	319.29528522491455	2.5082828998565674
52	158.29055404663086	fix_post	2		12.0	50.0	2.5	/experiments/knapen_aot/videos/S_yt-oVS_k_9upmo_205.mp4	0.0	321.8035681247711	0.09998488426208496
53	158.39053893089294	fix_pre	0		30.0	51.0	2.5	/experiments/knapen_aot/videos/R_S_yt-tQ-hgwTcMqU_43.mp4	0.0	321.9035530090332	0.2499711513519287
53	158.63230395317078	response	0	2		51.0	2.5	/experiments/knapen_aot/videos/R_S_yt-tQ-hgwTcMqU_43.mp4	0.0	322.14531803131104	
53	158.64051008224487	movie	1		301.0	51.0	2.5	/experiments/knapen_aot/videos/R_S_yt-tQ-hgwTcMqU_43.mp4	0.0	322.15352416038513	2.5083889961242676
53	161.14889907836914	fix_post	2		12.0	51.0	2.5	/experiments/knapen_aot/videos/R_S_yt-tQ-hgwTcMqU_43.mp4	0.0	324.6619131565094	0.10007786750793457
54	161.24897694587708	fix_pre	0		40.0	52.0	2.5	/experiments/knapen_aot/videos/S_yt-WrwPgZYBXlA_34.mp4	0.0	324.76199102401733	0.3331880569458008
54	161.57405614852905	response	0	2		52.0	2.5	/experiments/knapen_aot/videos/S_yt-WrwPgZYBXlA_34.mp4	0.0	325.0870702266693	
54	161.58216500282288	movie	1		301.0	52.0	2.5	/experiments/knapen_aot/videos/S_yt-WrwPgZYBXlA_34.mp4	0.0	325.09517908096313	2.5083959102630615
54	164.09056091308594	fix_post	2		12.0	52.0	2.5	/experiments/knapen_aot/videos/S_yt-WrwPgZYBXlA_34.mp4	0.0	327.6035749912262	0.0999441146850586
55	164.190505027771	fix_pre	0		27.0	53.0	2.5	/experiments/knapen_aot/videos/S_yt-wPXrAuiiRZg_1062.mp4	0.0	327.70351910591125	0.2249898910522461
55	164.40730214118958	response	0	2		53.0	2.5	/experiments/knapen_aot/videos/S_yt-wPXrAuiiRZg_1062.mp4	0.0	327.92031621932983	
55	164.41549491882324	movie	1		301.0	53.0	2.5	/experiments/knapen_aot/videos/S_yt-wPXrAuiiRZg_1062.mp4	0.0	327.9285089969635	2.508406162261963
55	166.9239010810852	fix_post	2		12.0	53.0	2.5	/experiments/knapen_aot/videos/S_yt-wPXrAuiiRZg_1062.mp4	0.0	330.43691515922546	0.09993386268615723
56	167.02383494377136	fix_pre	0		53.0	54.0	2.5	/experiments/knapen_aot/videos/R_S_yt-JH6qCYAnX-I_70.mp4	0.0	330.5368490219116	0.44161105155944824
56	167.45733094215393	response	0	2		54.0	2.5	/experiments/knapen_aot/videos/R_S_yt-JH6qCYAnX-I_70.mp4	0.0	330.9703450202942	
56	167.4654459953308	movie	1		301.0	54.0	2.5	/experiments/knapen_aot/videos/R_S_yt-JH6qCYAnX-I_70.mp4	0.0	330.97846007347107	2.5084290504455566
56	169.97387504577637	fix_post	2		12.0	54.0	2.5	/experiments/knapen_aot/videos/R_S_yt-JH6qCYAnX-I_70.mp4	0.0	333.4868891239166	0.09996509552001953
57	170.0738401412964	fix_pre	0		116.0	55.0	2.5	blank	1.0	333.58685421943665	0.9665429592132568
57	171.03235292434692	response	0	2		55.0	2.5	blank	1.0	334.5453670024872	
57	171.04038310050964	movie	1		301.0	55.0	2.5	blank	1.0	334.5533971786499	2.508445978164673
57	173.54882907867432	fix_post	2		12.0	55.0	2.5	blank	1.0	337.0618431568146	0.1000368595123291
58	173.64886593818665	fix_pre	0		42.0	56.0	2.5	/experiments/knapen_aot/videos/R_S_yt-0MB_IYX1fgo_44.mp4	0.0	337.1618800163269	0.34995102882385254
58	173.99056696891785	response	0	2		56.0	2.5	/experiments/knapen_aot/videos/R_S_yt-0MB_IYX1fgo_44.mp4	0.0	337.5035810470581	
58	173.9988169670105	movie	1		301.0	56.0	2.5	/experiments/knapen_aot/videos/R_S_yt-0MB_IYX1fgo_44.mp4	0.0	337.51183104515076	2.5083370208740234
58	176.50715398788452	fix_post	2		12.0	56.0	2.5	/experiments/knapen_aot/videos/R_S_yt-0MB_IYX1fgo_44.mp4	0.0	340.0201680660248	0.09999895095825195
59	176.60715293884277	fix_pre	0		32.0	57.0	2.5	/experiments/knapen_aot/videos/R_S_ILSVRC2015_train_00322000.mp4	0.0	340.12016701698303	0.26660919189453125
59	176.86554503440857	response	0	2		57.0	2.5	/experiments/knapen_aot/videos/R_S_ILSVRC2015_train_00322000.mp4	0.0	340.3785591125488	
59	176.8737621307373	movie	1		301.0	57.0	2.5	/experiments/knapen_aot/videos/R_S_ILSVRC2015_train_00322000.mp4	0.0	340.38677620887756	2.5082759857177734
59	179.38203811645508	fix_post	2		12.0	57.0	2.5	/experiments/knapen_aot/videos/R_S_ILSVRC2015_train_00322000.mp4	0.0	342.89505219459534	0.1001129150390625
60	179.48215103149414	fix_pre	0		38.0	58.0	2.5	/experiments/knapen_aot/videos/S_production_ID_4720614.mp4	0.0	342.9951651096344	0.31665706634521484
60	179.7905330657959	response	0	2		58.0	2.5	/experiments/knapen_aot/videos/S_production_ID_4720614.mp4	0.0	343.30354714393616	
60	179.79880809783936	movie	1		186.0	58.0	2.5	/experiments/knapen_aot/videos/S_production_ID_4720614.mp4	0.0	343.3118221759796	2.5082879066467285
60	182.30709600448608	fix_post	2		12.0	58.0	2.5	/experiments/knapen_aot/videos/S_production_ID_4720614.mp4	0.0	345.82011008262634	0.10004711151123047
61	182.40714311599731	fix_pre	0		25.0	59.0	2.5	/experiments/knapen_aot/videos/R_S_yt-oPq1uvbw-lQ_62.mp4	0.0	345.9201571941376	0.20827603340148926
61	182.60719513893127	response	0	2		59.0	2.5	/experiments/knapen_aot/videos/R_S_yt-oPq1uvbw-lQ_62.mp4	0.0	346.12020921707153	
61	182.6154191493988	movie	1		301.0	59.0	2.5	/experiments/knapen_aot/videos/R_S_yt-oPq1uvbw-lQ_62.mp4	0.0	346.12843322753906	2.5083518028259277
61	185.12377095222473	fix_post	2		12.0	59.0	2.5	/experiments/knapen_aot/videos/R_S_yt-oPq1uvbw-lQ_62.mp4	0.0	348.636785030365	0.0999300479888916
62	185.22370100021362	fix_pre	0		60.0	60.0	2.5	/experiments/knapen_aot/videos/R_S_yt-sWJc_Do8EaI_32.mp4	0.0	348.7367150783539	0.500014066696167
62	185.7156810760498	response	0	2		60.0	2.5	/experiments/knapen_aot/videos/R_S_yt-sWJc_Do8EaI_32.mp4	0.0	349.22869515419006	
62	185.7237150669098	movie	1		301.0	60.0	2.5	/experiments/knapen_aot/videos/R_S_yt-sWJc_Do8EaI_32.mp4	0.0	349.23672914505005	2.508327007293701
62	188.2320420742035	fix_post	2		12.0	60.0	2.5	/experiments/knapen_aot/videos/R_S_yt-sWJc_Do8EaI_32.mp4	0.0	351.74505615234375	0.10003900527954102
63	188.33208107948303	fix_pre	0		35.0	61.0	2.5	/experiments/knapen_aot/videos/R_S_yt-BlWfK4MkjWA_469.mp4	0.0	351.8450951576233	0.29162096977233887
63	188.61553406715393	response	0	2		61.0	2.5	/experiments/knapen_aot/videos/R_S_yt-BlWfK4MkjWA_469.mp4	0.0	352.1285481452942	
63	188.62370204925537	movie	1		301.0	61.0	2.5	/experiments/knapen_aot/videos/R_S_yt-BlWfK4MkjWA_469.mp4	0.0	352.13671612739563	2.5083980560302734
63	191.13210010528564	fix_post	2		12.0	61.0	2.5	/experiments/knapen_aot/videos/R_S_yt-BlWfK4MkjWA_469.mp4	0.0	354.6451141834259	0.09998488426208496
64	191.23208498954773	fix_pre	0		55.0	62.0	2.5	blank	1.0	354.745099067688	0.4583561420440674
64	191.68222999572754	response	0	2		62.0	2.5	blank	1.0	355.1952440738678	
64	191.6904411315918	movie	1		301.0	62.0	2.5	blank	1.0	355.20345520973206	2.508291006088257
64	194.19873213768005	fix_post	2		12.0	62.0	2.5	blank	1.0	357.7117462158203	0.09995698928833008
65	194.29868912696838	fix_pre	0		38.0	63.0	2.5	/experiments/knapen_aot/videos/S_wc-eJe3wXMgTLRV_20.mp4	0.0	357.81170320510864	0.31670284271240234
65	194.607164144516	response	0	2		63.0	2.5	/experiments/knapen_aot/videos/S_wc-eJe3wXMgTLRV_20.mp4	0.0	358.12017822265625	
65	194.6153919696808	movie	1		164.0	63.0	2.5	/experiments/knapen_aot/videos/S_wc-eJe3wXMgTLRV_20.mp4	0.0	358.12840604782104	2.5083131790161133
65	197.1237051486969	fix_post	2		12.0	63.0	2.5	/experiments/knapen_aot/videos/S_wc-eJe3wXMgTLRV_20.mp4	0.0	360.63671922683716	0.09997296333312988
66	197.22367811203003	fix_pre	0		31.0	64.0	2.5	/experiments/knapen_aot/videos/S_production_ID_4720614.mp4	0.0	360.7366921901703	0.25958991050720215
66	197.4738450050354	response	0	2		64.0	2.5	/experiments/knapen_aot/videos/S_production_ID_4720614.mp4	0.0	360.98685908317566	
66	197.48326802253723	movie	1		200.0	64.0	2.5	/experiments/knapen_aot/videos/S_production_ID_4720614.mp4	0.0	360.9962821006775	2.5071160793304443
66	199.99038410186768	fix_post	2		12.0	64.0	2.5	/experiments/knapen_aot/videos/S_production_ID_4720614.mp4	0.0	363.50339818000793	0.09995603561401367
67	200.0903401374817	fix_pre	0		48.0	65.0	2.5	/experiments/knapen_aot/videos/S_yt-ObT9gF8E_tU_250.mp4	0.0	363.60335421562195	0.3999638557434082
67	200.4746289253235	response	0	2		65.0	2.5	/experiments/knapen_aot/videos/S_yt-ObT9gF8E_tU_250.mp4	0.0	363.98764300346375	
67	200.4903039932251	movie	1		301.0	65.0	2.5	/experiments/knapen_aot/videos/S_yt-ObT9gF8E_tU_250.mp4	0.0	364.00331807136536	2.5083141326904297
67	202.99861812591553	fix_post	2		12.0	65.0	2.5	/experiments/knapen_aot/videos/S_yt-ObT9gF8E_tU_250.mp4	0.0	366.5116322040558	0.10006499290466309
68	203.0986831188202	fix_pre	0		30.0	66.0	2.5	/experiments/knapen_aot/videos/R_S_comp_GMT329_117NC_401C_1037_IRELAND_TO_ASIA_v48_SDR_PS_FINAL_20180725_F0F6300_SDR_2K_AVC.mp4	0.0	366.61169719696045	0.24994397163391113
68	203.34045600891113	response	0	2		66.0	2.5	/experiments/knapen_aot/videos/R_S_comp_GMT329_117NC_401C_1037_IRELAND_TO_ASIA_v48_SDR_PS_FINAL_20180725_F0F6300_SDR_2K_AVC.mp4	0.0	366.8534700870514	
68	203.3486270904541	movie	1		168.0	66.0	2.5	/experiments/knapen_aot/videos/R_S_comp_GMT329_117NC_401C_1037_IRELAND_TO_ASIA_v48_SDR_PS_FINAL_20180725_F0F6300_SDR_2K_AVC.mp4	0.0	366.86164116859436	2.5084340572357178
68	205.85706114768982	fix_post	2		12.0	66.0	2.5	/experiments/knapen_aot/videos/R_S_comp_GMT329_117NC_401C_1037_IRELAND_TO_ASIA_v48_SDR_PS_FINAL_20180725_F0F6300_SDR_2K_AVC.mp4	0.0	369.3700752258301	0.09999895095825195
69	205.95706009864807	fix_pre	0		31.0	67.0	2.5	/experiments/knapen_aot/videos/S_flickr-53807584@N00-5565833509_7.mp4	0.0	369.47007417678833	0.2582969665527344
69	206.20715403556824	response	0	2		67.0	2.5	/experiments/knapen_aot/videos/S_flickr-53807584@N00-5565833509_7.mp4	0.0	369.7201681137085	
69	206.2153570652008	movie	1		301.0	67.0	2.5	/experiments/knapen_aot/videos/S_flickr-53807584@N00-5565833509_7.mp4	0.0	369.72837114334106	2.5083298683166504
69	208.72368693351746	fix_post	2		12.0	67.0	2.5	/experiments/knapen_aot/videos/S_flickr-53807584@N00-5565833509_7.mp4	0.0	372.2367010116577	0.10000014305114746
70	208.8236870765686	fix_pre	0		35.0	68.0	2.5	/experiments/knapen_aot/videos/R_S_yt-xqjVM0Vj4mI_161.mp4	0.0	372.33670115470886	0.291597843170166
70	209.1070990562439	response	0	2		68.0	2.5	/experiments/knapen_aot/videos/R_S_yt-xqjVM0Vj4mI_161.mp4	0.0	372.62011313438416	
70	209.11528491973877	movie	1		301.0	68.0	2.5	/experiments/knapen_aot/videos/R_S_yt-xqjVM0Vj4mI_161.mp4	0.0	372.628298997879	2.5084052085876465
70	211.62369012832642	fix_post	2		12.0	68.0	2.5	/experiments/knapen_aot/videos/R_S_yt-xqjVM0Vj4mI_161.mp4	0.0	375.1367042064667	0.09992599487304688
71	211.72361612319946	fix_pre	0		45.0	69.0	2.5	blank	1.0	375.2366302013397	0.3750038146972656
71	212.0904860496521	response	0	2		69.0	2.5	blank	1.0	375.60350012779236	
71	212.09861993789673	movie	1		301.0	69.0	2.5	blank	1.0	375.611634016037	2.5083630084991455
71	214.60698294639587	fix_post	2		12.0	69.0	2.5	blank	1.0	378.11999702453613	0.09992098808288574
72	214.70690393447876	fix_pre	0		37.0	70.0	2.5	/experiments/knapen_aot/videos/R_S_yt-QFGyhhr1KSQ_9.mp4	0.0	378.219918012619	0.30832505226135254
72	215.00709795951843	response	0	2		70.0	2.5	/experiments/knapen_aot/videos/R_S_yt-QFGyhhr1KSQ_9.mp4	0.0	378.5201120376587	
72	215.0152289867401	movie	1		301.0	70.0	2.5	/experiments/knapen_aot/videos/R_S_yt-QFGyhhr1KSQ_9.mp4	0.0	378.52824306488037	2.508523941040039
72	217.52375292778015	fix_post	2		12.0	70.0	2.5	/experiments/knapen_aot/videos/R_S_yt-QFGyhhr1KSQ_9.mp4	0.0	381.0367670059204	0.0999000072479248
73	217.62365293502808	fix_pre	0		77.0	71.0	2.5	/experiments/knapen_aot/videos/R_S_yt-2cwARrUMj40_67.mp4	0.0	381.13666701316833	0.6416990756988525
73	218.25726008415222	response	0	2		71.0	2.5	/experiments/knapen_aot/videos/R_S_yt-2cwARrUMj40_67.mp4	0.0	381.7702741622925	
73	218.26535201072693	movie	1		301.0	71.0	2.5	/experiments/knapen_aot/videos/R_S_yt-2cwARrUMj40_67.mp4	0.0	381.7783660888672	2.508297920227051
73	220.77364993095398	fix_post	2		12.0	71.0	2.5	/experiments/knapen_aot/videos/R_S_yt-2cwARrUMj40_67.mp4	0.0	384.28666400909424	0.09999513626098633
74	220.87364506721497	fix_pre	0		43.0	72.0	2.5	/experiments/knapen_aot/videos/S_yt-3DM_SqT4RII_10.mp4	0.0	384.3866591453552	0.3594210147857666
74	221.22380208969116	response	0	2		72.0	2.5	/experiments/knapen_aot/videos/S_yt-3DM_SqT4RII_10.mp4	0.0	384.7368161678314	
74	221.23306608200073	movie	1		301.0	72.0	2.5	/experiments/knapen_aot/videos/S_yt-3DM_SqT4RII_10.mp4	0.0	384.746080160141	2.507274866104126
74	223.74034094810486	fix_post	2		12.0	72.0	2.5	/experiments/knapen_aot/videos/S_yt-3DM_SqT4RII_10.mp4	0.0	387.2533550262451	0.0999751091003418
75	223.8403160572052	fix_pre	0		37.0	73.0	2.5	/experiments/knapen_aot/videos/S_yt--wYgjXsc1XQ_106.mp4	0.0	387.35333013534546	0.3094189167022705
75	224.1403350830078	response	0	2		73.0	2.5	/experiments/knapen_aot/videos/S_yt--wYgjXsc1XQ_106.mp4	0.0	387.65334916114807	
75	224.14973497390747	movie	1		301.0	73.0	2.5	/experiments/knapen_aot/videos/S_yt--wYgjXsc1XQ_106.mp4	0.0	387.66274905204773	2.507194995880127
75	226.6569299697876	fix_post	2		12.0	73.0	2.5	/experiments/knapen_aot/videos/S_yt--wYgjXsc1XQ_106.mp4	0.0	390.16994404792786	0.10001707077026367
76	226.75694704055786	fix_pre	0		39.0	74.0	2.5	/experiments/knapen_aot/videos/S_yt-JVhfcpV7OaY_71.mp4	0.0	390.2699611186981	0.32495594024658203
76	227.0737121105194	response	0	2		74.0	2.5	/experiments/knapen_aot/videos/S_yt-JVhfcpV7OaY_71.mp4	0.0	390.58672618865967	
76	227.08190298080444	movie	1		301.0	74.0	2.5	/experiments/knapen_aot/videos/S_yt-JVhfcpV7OaY_71.mp4	0.0	390.5949170589447	2.508329153060913
76	229.59023213386536	fix_post	2		12.0	74.0	2.5	/experiments/knapen_aot/videos/S_yt-JVhfcpV7OaY_71.mp4	0.0	393.1032462120056	0.10005378723144531
77	229.6902859210968	fix_pre	0		62.0	75.0	2.5	blank	1.0	393.20329999923706	0.516638994216919
77	230.1986949443817	response	0	2		75.0	2.5	blank	1.0	393.711709022522	
77	230.20692491531372	movie	1		301.0	75.0	2.5	blank	1.0	393.719938993454	2.5082590579986572
77	232.71518397331238	fix_post	2		12.0	75.0	2.5	blank	1.0	396.22819805145264	0.1000821590423584
78	232.81526613235474	fix_pre	0		73.0	76.0	2.5	/experiments/knapen_aot/videos/S_yt-o0Hbe7kcPps_70.mp4	0.0	396.328280210495	0.6082990169525146
78	233.41531205177307	response	0	2		76.0	2.5	/experiments/knapen_aot/videos/S_yt-o0Hbe7kcPps_70.mp4	0.0	396.92832612991333	
78	233.42356514930725	movie	1		300.0	76.0	2.5	/experiments/knapen_aot/videos/S_yt-o0Hbe7kcPps_70.mp4	0.0	396.9365792274475	2.50837779045105
78	235.9319429397583	fix_post	2		12.0	76.0	2.5	/experiments/knapen_aot/videos/S_yt-o0Hbe7kcPps_70.mp4	0.0	399.44495701789856	0.09998416900634766
79	236.03192710876465	fix_pre	0		60.0	77.0	2.5	/experiments/knapen_aot/videos/R_S_g201_TH_804_A001_8_SDR_20191031_SDR_2K_AVC.mp4	0.0	399.5449411869049	0.4999408721923828
79	236.52368092536926	response	0	2		77.0	2.5	/experiments/knapen_aot/videos/R_S_g201_TH_804_A001_8_SDR_20191031_SDR_2K_AVC.mp4	0.0	400.0366950035095	
79	236.53186798095703	movie	1		168.0	77.0	2.5	/experiments/knapen_aot/videos/R_S_g201_TH_804_A001_8_SDR_20191031_SDR_2K_AVC.mp4	0.0	400.0448820590973	2.5083119869232178
79	239.04017996788025	fix_post	2		12.0	77.0	2.5	/experiments/knapen_aot/videos/R_S_g201_TH_804_A001_8_SDR_20191031_SDR_2K_AVC.mp4	0.0	402.5531940460205	0.10001111030578613
80	239.14019107818604	fix_pre	0		43.0	78.0	2.5	/experiments/knapen_aot/videos/R_S_yt-hmtcRLNoYZc_17.mp4	0.0	402.6532051563263	0.3582570552825928
80	239.4903209209442	response	0	2		78.0	2.5	/experiments/knapen_aot/videos/R_S_yt-hmtcRLNoYZc_17.mp4	0.0	403.0033349990845	
80	239.49844813346863	movie	1		301.0	78.0	2.5	/experiments/knapen_aot/videos/R_S_yt-hmtcRLNoYZc_17.mp4	0.0	403.0114622116089	2.5083818435668945
80	242.00682997703552	fix_post	2		12.0	78.0	2.5	/experiments/knapen_aot/videos/R_S_yt-hmtcRLNoYZc_17.mp4	0.0	405.5198440551758	0.10004496574401855
81	242.10687494277954	fix_pre	0		40.0	79.0	2.5	/experiments/knapen_aot/videos/S_yt-26obL-Z5obg_131.mp4	0.0	405.6198890209198	0.33451008796691895
81	242.43195509910583	response	0	2		79.0	2.5	/experiments/knapen_aot/videos/S_yt-26obL-Z5obg_131.mp4	0.0	405.9449691772461	
81	242.44138503074646	movie	1		301.0	79.0	2.5	/experiments/knapen_aot/videos/S_yt-26obL-Z5obg_131.mp4	0.0	405.9543991088867	2.5071280002593994
81	244.94851303100586	fix_post	2		12.0	79.0	2.5	/experiments/knapen_aot/videos/S_yt-26obL-Z5obg_131.mp4	0.0	408.4615271091461	0.10000491142272949
82	245.0485179424286	fix_pre	0		57.0	80.0	2.5	/experiments/knapen_aot/videos/S_yt-EuyfT0PuOoQ_91.mp4	0.0	408.56153202056885	0.475985050201416
82	245.51534914970398	response	0	2		80.0	2.5	/experiments/knapen_aot/videos/S_yt-EuyfT0PuOoQ_91.mp4	0.0	409.02836322784424	
82	245.52450299263	movie	1		301.0	80.0	2.5	/experiments/knapen_aot/videos/S_yt-EuyfT0PuOoQ_91.mp4	0.0	409.03751707077026	2.5073320865631104
82	248.03183507919312	fix_post	2		12.0	80.0	2.5	/experiments/knapen_aot/videos/S_yt-EuyfT0PuOoQ_91.mp4	0.0	411.5448491573334	0.1000218391418457
83	248.13185691833496	fix_pre	0		78.0	81.0	2.5	/experiments/knapen_aot/videos/S_yt-O6FS0xnF0CU_106.mp4	0.0	411.6448709964752	0.6499850749969482
83	248.77363395690918	response	0	2		81.0	2.5	/experiments/knapen_aot/videos/S_yt-O6FS0xnF0CU_106.mp4	0.0	412.28664803504944	
83	248.7818419933319	movie	1		301.0	81.0	2.5	/experiments/knapen_aot/videos/S_yt-O6FS0xnF0CU_106.mp4	0.0	412.29485607147217	2.5082740783691406
83	251.29011607170105	fix_post	2		12.0	81.0	2.5	/experiments/knapen_aot/videos/S_yt-O6FS0xnF0CU_106.mp4	0.0	414.8031301498413	0.10003089904785156
84	251.3901469707489	fix_pre	0		37.0	82.0	2.5	/experiments/knapen_aot/videos/R_S_yt-fP2JRJAFGZ4_25.mp4	0.0	414.90316104888916	0.30835914611816406
84	251.68270707130432	response	0	2		82.0	2.5	/experiments/knapen_aot/videos/R_S_yt-fP2JRJAFGZ4_25.mp4	0.0	415.1957211494446	
84	251.69850611686707	movie	1		300.0	82.0	2.5	/experiments/knapen_aot/videos/R_S_yt-fP2JRJAFGZ4_25.mp4	0.0	415.2115201950073	2.5083179473876953
84	254.20682406425476	fix_post	2		12.0	82.0	2.5	/experiments/knapen_aot/videos/R_S_yt-fP2JRJAFGZ4_25.mp4	0.0	417.719838142395	0.09997200965881348
85	254.30679607391357	fix_pre	0		44.0	83.0	2.5	blank	1.0	417.81981015205383	0.36672401428222656
85	254.6652250289917	response	0	2		83.0	2.5	blank	1.0	418.17823910713196	
85	254.6735200881958	movie	1		301.0	83.0	2.5	blank	1.0	418.18653416633606	2.5082268714904785
85	257.1817469596863	fix_post	2		12.0	83.0	2.5	blank	1.0	420.69476103782654	0.10001802444458008
87	257.28176498413086	stim	0		182.0					420.7947790622711	1.5203800201416016
87	258.79469203948975	response	0	space						422.30770611763	
