trial_nr	onset	event_type	phase	response	nr_frames	movie_index	movie_duration	movie_file	blank	onset_abs	duration
0	0.1251511573791504	stim	0		36.0					56.93792915344238	0.29985904693603516
0	0.41702914237976074	response	0	space						57.22980713844299	
1	0.42501020431518555	stim	0		121.0					57.23778820037842	1.008232831954956
1	1.0499842166900635	response	0	space						57.862762212753296	
1	1.3335840702056885	response	0	space						58.14636206626892	
1	1.4332430362701416	stim	1		120.0					58.246021032333374	0.9996650218963623
1	1.8246212005615234	response	1	space						58.637399196624756	
1	2.374596118927002	response	1	space						59.187374114990234	
2	2.432908058166504	fix_pre	0		33.0	0.0	2.5	/experiments/knapen_aot/videos/R_S_yt-LsCCAQ8BRO8_7.mp4	0.0	59.245686054229736	0.2752039432525635
2	2.699643135070801	response	0	space		0.0	2.5	/experiments/knapen_aot/videos/R_S_yt-LsCCAQ8BRO8_7.mp4	0.0	59.51242113113403	
2	2.7081120014190674	movie	1		301.0	0.0	2.5	/experiments/knapen_aot/videos/R_S_yt-LsCCAQ8BRO8_7.mp4	0.0	59.5208899974823	2.5080931186676025
2	5.21620512008667	fix_post	2		12.0	0.0	2.5	/experiments/knapen_aot/videos/R_S_yt-LsCCAQ8BRO8_7.mp4	0.0	62.0289831161499	0.10000395774841309
3	5.316209077835083	fix_pre	0		88.0	1.0	2.5	/experiments/knapen_aot/videos/R_S_yt-4-u4Fw_J_q8_45.mp4	0.0	62.128987073898315	0.7333040237426758
3	6.041745185852051	response	0	2		1.0	2.5	/experiments/knapen_aot/videos/R_S_yt-4-u4Fw_J_q8_45.mp4	0.0	62.85452318191528	
3	6.049513101577759	movie	1		301.0	1.0	2.5	/experiments/knapen_aot/videos/R_S_yt-4-u4Fw_J_q8_45.mp4	0.0	62.86229109764099	2.508358955383301
3	8.55787205696106	fix_post	2		12.0	1.0	2.5	/experiments/knapen_aot/videos/R_S_yt-4-u4Fw_J_q8_45.mp4	0.0	65.37065005302429	0.09998512268066406
4	8.657857179641724	fix_pre	0		103.0	2.0	2.5	/experiments/knapen_aot/videos/R_S_yt-zKnjBBYWe90_369.mp4	0.0	65.47063517570496	0.858374834060669
4	9.5003981590271	response	0	2		2.0	2.5	/experiments/knapen_aot/videos/R_S_yt-zKnjBBYWe90_369.mp4	0.0	66.31317615509033	
4	9.516232013702393	movie	1		301.0	2.0	2.5	/experiments/knapen_aot/videos/R_S_yt-zKnjBBYWe90_369.mp4	0.0	66.32901000976562	2.5083250999450684
4	12.024557113647461	fix_post	2		12.0	2.0	2.5	/experiments/knapen_aot/videos/R_S_yt-zKnjBBYWe90_369.mp4	0.0	68.8373351097107	0.10018110275268555
5	12.124738216400146	fix_pre	0		96.0	3.0	2.5	/experiments/knapen_aot/videos/S_video-6.mp4	0.0	68.93751621246338	0.7997958660125732
5	12.908778190612793	response	0	2		3.0	2.5	/experiments/knapen_aot/videos/S_video-6.mp4	0.0	69.72155618667603	
5	12.92453408241272	movie	1		166.0	3.0	2.5	/experiments/knapen_aot/videos/S_video-6.mp4	0.0	69.73731207847595	2.5083060264587402
5	15.43284010887146	fix_post	2		12.0	3.0	2.5	/experiments/knapen_aot/videos/S_video-6.mp4	0.0	72.24561810493469	0.10000896453857422
6	15.532849073410034	fix_pre	0		54.0	4.0	2.5	/experiments/knapen_aot/videos/S_yt-ThT8utBaywI_68.mp4	0.0	72.34562706947327	0.44995903968811035
6	15.974647998809814	response	0	2		4.0	2.5	/experiments/knapen_aot/videos/S_yt-ThT8utBaywI_68.mp4	0.0	72.78742599487305	
6	15.982808113098145	movie	1		301.0	4.0	2.5	/experiments/knapen_aot/videos/S_yt-ThT8utBaywI_68.mp4	0.0	72.79558610916138	2.508310079574585
6	18.49111819267273	fix_post	2		12.0	4.0	2.5	/experiments/knapen_aot/videos/S_yt-ThT8utBaywI_68.mp4	0.0	75.30389618873596	0.10000300407409668
7	18.591121196746826	fix_pre	0		82.0	5.0	2.5	blank	1.0	75.40389919281006	0.6832869052886963
7	19.26627516746521	response	0	2		5.0	2.5	blank	1.0	76.07905316352844	
7	19.274408102035522	movie	1		301.0	5.0	2.5	blank	1.0	76.08718609809875	2.508342981338501
7	21.782751083374023	fix_post	2		12.0	5.0	2.5	blank	1.0	78.59552907943726	0.10004711151123047
8	21.882798194885254	fix_pre	0		77.0	6.0	2.5	/experiments/knapen_aot/videos/S_ILSVRC2015_train_00303005.mp4	0.0	78.69557619094849	0.6416490077972412
8	22.516232013702393	response	0	2		6.0	2.5	/experiments/knapen_aot/videos/S_ILSVRC2015_train_00303005.mp4	0.0	79.32901000976562	
8	22.524447202682495	movie	1		301.0	6.0	2.5	/experiments/knapen_aot/videos/S_ILSVRC2015_train_00303005.mp4	0.0	79.33722519874573	2.5083608627319336
8	25.03280806541443	fix_post	2		12.0	6.0	2.5	/experiments/knapen_aot/videos/S_ILSVRC2015_train_00303005.mp4	0.0	81.84558606147766	0.09999203681945801
9	25.132800102233887	fix_pre	0		93.0	7.0	2.5	/experiments/knapen_aot/videos/S_ILSVRC2015_train_00324002.mp4	0.0	81.94557809829712	0.7749669551849365
9	25.89963412284851	response	0	2		7.0	2.5	/experiments/knapen_aot/videos/S_ILSVRC2015_train_00324002.mp4	0.0	82.71241211891174	
9	25.907767057418823	movie	1		299.0	7.0	2.5	/experiments/knapen_aot/videos/S_ILSVRC2015_train_00324002.mp4	0.0	82.72054505348206	2.508445978164673
9	28.416213035583496	fix_post	2		12.0	7.0	2.5	/experiments/knapen_aot/videos/S_ILSVRC2015_train_00324002.mp4	0.0	85.22899103164673	0.09986209869384766
10	28.516075134277344	fix_pre	0		59.0	8.0	2.5	/experiments/knapen_aot/videos/R_S_yt-BW6jWEVbxxk_4.mp4	0.0	85.32885313034058	0.4916698932647705
10	28.999632120132446	response	0	2		8.0	2.5	/experiments/knapen_aot/videos/R_S_yt-BW6jWEVbxxk_4.mp4	0.0	85.81241011619568	
10	29.007745027542114	movie	1		301.0	8.0	2.5	/experiments/knapen_aot/videos/R_S_yt-BW6jWEVbxxk_4.mp4	0.0	85.82052302360535	2.5083751678466797
10	31.516120195388794	fix_post	2		12.0	8.0	2.5	/experiments/knapen_aot/videos/R_S_yt-BW6jWEVbxxk_4.mp4	0.0	88.32889819145203	0.10006880760192871
11	31.616189002990723	fix_pre	0		84.0	9.0	2.5	/experiments/knapen_aot/videos/R_S_yt-xgqx7tH92-c_6.mp4	0.0	88.42896699905396	0.6999251842498779
11	32.307937145233154	response	0	2		9.0	2.5	/experiments/knapen_aot/videos/R_S_yt-xgqx7tH92-c_6.mp4	0.0	89.12071514129639	
11	32.3161141872406	movie	1		301.0	9.0	2.5	/experiments/knapen_aot/videos/R_S_yt-xgqx7tH92-c_6.mp4	0.0	89.12889218330383	2.508357048034668
11	34.82447123527527	fix_post	2		12.0	9.0	2.5	/experiments/knapen_aot/videos/R_S_yt-xgqx7tH92-c_6.mp4	0.0	91.6372492313385	0.09995889663696289
12	34.92443013191223	fix_pre	0		86.0	10.0	2.5	/experiments/knapen_aot/videos/S_pexels-c-technical-6344801.mp4	0.0	91.73720812797546	0.716655969619751
12	35.63297200202942	response	0	2		10.0	2.5	/experiments/knapen_aot/videos/S_pexels-c-technical-6344801.mp4	0.0	92.44574999809265	
12	35.64108610153198	movie	1		195.0	10.0	2.5	/experiments/knapen_aot/videos/S_pexels-c-technical-6344801.mp4	0.0	92.45386409759521	2.508336067199707
12	38.14942216873169	fix_post	2		12.0	10.0	2.5	/experiments/knapen_aot/videos/S_pexels-c-technical-6344801.mp4	0.0	94.96220016479492	0.10009098052978516
13	38.249513149261475	fix_pre	0		81.0	11.0	2.5	/experiments/knapen_aot/videos/R_S_yt-zpoIiHGRm5k_296.mp4	0.0	95.0622911453247	0.6748888492584229
13	38.91626000404358	response	0	2		11.0	2.5	/experiments/knapen_aot/videos/R_S_yt-zpoIiHGRm5k_296.mp4	0.0	95.72903800010681	
13	38.9244019985199	movie	1		301.0	11.0	2.5	/experiments/knapen_aot/videos/R_S_yt-zpoIiHGRm5k_296.mp4	0.0	95.73717999458313	2.5083110332489014
13	41.4327130317688	fix_post	2		12.0	11.0	2.5	/experiments/knapen_aot/videos/R_S_yt-zpoIiHGRm5k_296.mp4	0.0	98.24549102783203	0.10000419616699219
14	41.53271722793579	fix_pre	0		62.0	12.0	2.5	/experiments/knapen_aot/videos/R_S_production_ID_5139371.mp4	0.0	98.34549522399902	0.5166878700256348
14	42.033669233322144	response	0	2		12.0	2.5	/experiments/knapen_aot/videos/R_S_production_ID_5139371.mp4	0.0	98.84644722938538	
14	42.049405097961426	movie	1		166.0	12.0	2.5	/experiments/knapen_aot/videos/R_S_production_ID_5139371.mp4	0.0	98.86218309402466	2.5083019733428955
14	44.55770707130432	fix_post	2		12.0	12.0	2.5	/experiments/knapen_aot/videos/R_S_production_ID_5139371.mp4	0.0	101.37048506736755	0.10001397132873535
15	44.65772104263306	fix_pre	0		72.0	13.0	2.5	blank	1.0	101.47049903869629	0.6000251770019531
15	45.24203109741211	response	0	2		13.0	2.5	blank	1.0	102.05480909347534	
15	45.25774621963501	movie	1		301.0	13.0	2.5	blank	1.0	102.07052421569824	2.5082809925079346
15	47.766027212142944	fix_post	2		12.0	13.0	2.5	blank	1.0	104.57880520820618	0.10002279281616211
16	47.866050004959106	fix_pre	0		50.0	14.0	2.5	/experiments/knapen_aot/videos/S_comp_1223LV_FLARE_v21_SDR_PS_FINAL_20180709_F0F5700_SDR_2K_AVC.mp4	0.0	104.67882800102234	0.41666102409362793
16	48.27453422546387	response	0	2		14.0	2.5	/experiments/knapen_aot/videos/S_comp_1223LV_FLARE_v21_SDR_PS_FINAL_20180709_F0F5700_SDR_2K_AVC.mp4	0.0	105.0873122215271	
16	48.282711029052734	movie	1		164.0	14.0	2.5	/experiments/knapen_aot/videos/S_comp_1223LV_FLARE_v21_SDR_PS_FINAL_20180709_F0F5700_SDR_2K_AVC.mp4	0.0	105.09548902511597	2.5083091259002686
16	50.791020154953	fix_post	2		12.0	14.0	2.5	/experiments/knapen_aot/videos/S_comp_1223LV_FLARE_v21_SDR_PS_FINAL_20180709_F0F5700_SDR_2K_AVC.mp4	0.0	107.60379815101624	0.10003995895385742
17	50.89106011390686	fix_pre	0		68.0	15.0	2.5	/experiments/knapen_aot/videos/R_S_yt-eczLsCTIyn0_553.mp4	0.0	107.70383810997009	0.5666298866271973
17	51.44949412345886	response	0	2		15.0	2.5	/experiments/knapen_aot/videos/R_S_yt-eczLsCTIyn0_553.mp4	0.0	108.2622721195221	
17	51.45769000053406	movie	1		301.0	15.0	2.5	/experiments/knapen_aot/videos/R_S_yt-eczLsCTIyn0_553.mp4	0.0	108.27046799659729	2.5083351135253906
17	53.96602511405945	fix_post	2		12.0	15.0	2.5	/experiments/knapen_aot/videos/R_S_yt-eczLsCTIyn0_553.mp4	0.0	110.77880311012268	0.0999460220336914
18	54.06597113609314	fix_pre	0		87.0	16.0	2.5	/experiments/knapen_aot/videos/S_yt-UKrWbJEs7pw_74.mp4	0.0	110.87874913215637	0.7251088619232178
18	54.78279209136963	response	0	2		16.0	2.5	/experiments/knapen_aot/videos/S_yt-UKrWbJEs7pw_74.mp4	0.0	111.59557008743286	
18	54.79107999801636	movie	1		301.0	16.0	2.5	/experiments/knapen_aot/videos/S_yt-UKrWbJEs7pw_74.mp4	0.0	111.60385799407959	2.508273124694824
18	57.29935312271118	fix_post	2		12.0	16.0	2.5	/experiments/knapen_aot/videos/S_yt-UKrWbJEs7pw_74.mp4	0.0	114.11213111877441	0.09992694854736328
19	57.399280071258545	fix_pre	0		111.0	17.0	2.5	/experiments/knapen_aot/videos/S_yt-4-u4Fw_J_q8_45.mp4	0.0	114.21205806732178	0.9249999523162842
19	58.31608819961548	response	0	2		17.0	2.5	/experiments/knapen_aot/videos/S_yt-4-u4Fw_J_q8_45.mp4	0.0	115.12886619567871	
19	58.32428002357483	movie	1		301.0	17.0	2.5	/experiments/knapen_aot/videos/S_yt-4-u4Fw_J_q8_45.mp4	0.0	115.13705801963806	2.5083701610565186
19	60.83265018463135	fix_post	2		12.0	17.0	2.5	/experiments/knapen_aot/videos/S_yt-4-u4Fw_J_q8_45.mp4	0.0	117.64542818069458	0.0999908447265625
20	60.93264102935791	fix_pre	0		106.0	18.0	2.5	/experiments/knapen_aot/videos/R_S_yt-CINajD_PVjQ_494.mp4	0.0	117.74541902542114	0.8833310604095459
20	61.80780100822449	response	0	2		18.0	2.5	/experiments/knapen_aot/videos/R_S_yt-CINajD_PVjQ_494.mp4	0.0	118.62057900428772	
20	61.815972089767456	movie	1		301.0	18.0	2.5	/experiments/knapen_aot/videos/R_S_yt-CINajD_PVjQ_494.mp4	0.0	118.62875008583069	2.5083401203155518
20	64.32431221008301	fix_post	2		12.0	18.0	2.5	/experiments/knapen_aot/videos/R_S_yt-CINajD_PVjQ_494.mp4	0.0	121.13709020614624	0.10003495216369629
21	64.4243471622467	fix_pre	0		87.0	19.0	2.5	/experiments/knapen_aot/videos/S_yt-5fZZrdwkFx0_28.mp4	0.0	121.23712515830994	0.7249059677124023
21	65.13346409797668	response	0	2		19.0	2.5	/experiments/knapen_aot/videos/S_yt-5fZZrdwkFx0_28.mp4	0.0	121.94624209403992	
21	65.1492531299591	movie	1		301.0	19.0	2.5	/experiments/knapen_aot/videos/S_yt-5fZZrdwkFx0_28.mp4	0.0	121.96203112602234	2.5083670616149902
21	67.6576201915741	fix_post	2		12.0	19.0	2.5	/experiments/knapen_aot/videos/S_yt-5fZZrdwkFx0_28.mp4	0.0	124.47039818763733	0.09999585151672363
22	67.75761604309082	fix_pre	0		95.0	20.0	2.5	/experiments/knapen_aot/videos/S_ILSVRC2015_train_00371006.mp4	0.0	124.57039403915405	0.7916350364685059
22	68.54109215736389	response	0	2		20.0	2.5	/experiments/knapen_aot/videos/S_ILSVRC2015_train_00371006.mp4	0.0	125.35387015342712	
22	68.54925107955933	movie	1		300.0	20.0	2.5	/experiments/knapen_aot/videos/S_ILSVRC2015_train_00371006.mp4	0.0	125.36202907562256	2.5083651542663574
22	71.05761623382568	fix_post	2		12.0	20.0	2.5	/experiments/knapen_aot/videos/S_ILSVRC2015_train_00371006.mp4	0.0	127.87039422988892	0.1000528335571289
23	71.15766906738281	fix_pre	0		82.0	21.0	2.5	blank	1.0	127.97044706344604	0.683197021484375
23	71.82511901855469	response	0	2		21.0	2.5	blank	1.0	128.63789701461792	
23	71.84086608886719	movie	1		301.0	21.0	2.5	blank	1.0	128.65364408493042	2.5083329677581787
23	74.34919905662537	fix_post	2		12.0	21.0	2.5	blank	1.0	131.1619770526886	0.10004711151123047
24	74.4492461681366	fix_pre	0		103.0	22.0	2.5	/experiments/knapen_aot/videos/R_S_yt-jbvXEFk2Gyw_12.mp4	0.0	131.26202416419983	0.8583199977874756
24	75.29941201210022	response	0	2		22.0	2.5	/experiments/knapen_aot/videos/R_S_yt-jbvXEFk2Gyw_12.mp4	0.0	132.11219000816345	
24	75.30756616592407	movie	1		301.0	22.0	2.5	/experiments/knapen_aot/videos/R_S_yt-jbvXEFk2Gyw_12.mp4	0.0	132.1203441619873	2.508270025253296
24	77.81583619117737	fix_post	2		12.0	22.0	2.5	/experiments/knapen_aot/videos/R_S_yt-jbvXEFk2Gyw_12.mp4	0.0	134.6286141872406	0.1000978946685791
25	77.91593408584595	fix_pre	0		89.0	23.0	2.5	/experiments/knapen_aot/videos/S_wc-rs31_SV1Opy__6.mp4	0.0	134.72871208190918	0.7429060935974121
25	78.64940023422241	response	0	2		23.0	2.5	/experiments/knapen_aot/videos/S_wc-rs31_SV1Opy__6.mp4	0.0	135.46217823028564	
25	78.65884017944336	movie	1		165.0	23.0	2.5	/experiments/knapen_aot/videos/S_wc-rs31_SV1Opy__6.mp4	0.0	135.4716181755066	2.5070860385894775
25	81.16592621803284	fix_post	2		12.0	23.0	2.5	/experiments/knapen_aot/videos/S_wc-rs31_SV1Opy__6.mp4	0.0	137.97870421409607	0.09996199607849121
26	81.26588821411133	fix_pre	0		69.0	24.0	2.5	/experiments/knapen_aot/videos/S_pexels-roman-odintsov-8232443_1.mp4	0.0	138.07866621017456	0.5749828815460205
26	81.83266019821167	response	0	2		24.0	2.5	/experiments/knapen_aot/videos/S_pexels-roman-odintsov-8232443_1.mp4	0.0	138.6454381942749	
26	81.84087109565735	movie	1		206.0	24.0	2.5	/experiments/knapen_aot/videos/S_pexels-roman-odintsov-8232443_1.mp4	0.0	138.65364909172058	2.5083329677581787
26	84.34920406341553	fix_post	2		12.0	24.0	2.5	/experiments/knapen_aot/videos/S_pexels-roman-odintsov-8232443_1.mp4	0.0	141.16198205947876	0.0999600887298584
27	84.44916415214539	fix_pre	0		77.0	25.0	2.5	/experiments/knapen_aot/videos/R_S_pexels-koolshooters-7327401.mp4	0.0	141.26194214820862	0.6416769027709961
27	85.08269715309143	response	0	2		25.0	2.5	/experiments/knapen_aot/videos/R_S_pexels-koolshooters-7327401.mp4	0.0	141.89547514915466	
27	85.09084105491638	movie	1		166.0	25.0	2.5	/experiments/knapen_aot/videos/R_S_pexels-koolshooters-7327401.mp4	0.0	141.90361905097961	2.5083119869232178
27	87.5991530418396	fix_post	2		12.0	25.0	2.5	/experiments/knapen_aot/videos/R_S_pexels-koolshooters-7327401.mp4	0.0	144.41193103790283	0.10010409355163574
28	87.69925713539124	fix_pre	0		66.0	26.0	2.5	/experiments/knapen_aot/videos/R_S_ILSVRC2015_train_00575000.mp4	0.0	144.51203513145447	0.5499708652496338
28	88.24103021621704	response	0	2		26.0	2.5	/experiments/knapen_aot/videos/R_S_ILSVRC2015_train_00575000.mp4	0.0	145.05380821228027	
28	88.24922800064087	movie	1		301.0	26.0	2.5	/experiments/knapen_aot/videos/R_S_ILSVRC2015_train_00575000.mp4	0.0	145.0620059967041	2.5082812309265137
28	90.75750923156738	fix_post	2		12.0	26.0	2.5	/experiments/knapen_aot/videos/R_S_ILSVRC2015_train_00575000.mp4	0.0	147.57028722763062	0.0999457836151123
29	90.8574550151825	fix_pre	0		111.0	27.0	2.5	blank	1.0	147.67023301124573	0.9250471591949463
29	91.77426218986511	response	0	2		27.0	2.5	blank	1.0	148.58704018592834	
29	91.78250217437744	movie	1		301.0	27.0	2.5	blank	1.0	148.59528017044067	2.508368968963623
29	94.29087114334106	fix_post	2		12.0	27.0	2.5	blank	1.0	151.1036491394043	0.10005998611450195
30	94.39093112945557	fix_pre	0		81.0	28.0	2.5	/experiments/knapen_aot/videos/R_S_yt-T9Vwt7wFvPk_100.mp4	0.0	151.2037091255188	0.6748600006103516
30	95.05762720108032	response	0	2		28.0	2.5	/experiments/knapen_aot/videos/R_S_yt-T9Vwt7wFvPk_100.mp4	0.0	151.87040519714355	
30	95.06579113006592	movie	1		297.0	28.0	2.5	/experiments/knapen_aot/videos/R_S_yt-T9Vwt7wFvPk_100.mp4	0.0	151.87856912612915	2.5083680152893066
30	97.57415914535522	fix_post	2		12.0	28.0	2.5	/experiments/knapen_aot/videos/R_S_yt-T9Vwt7wFvPk_100.mp4	0.0	154.38693714141846	0.09989595413208008
31	97.6740550994873	fix_pre	0		103.0	29.0	2.5	/experiments/knapen_aot/videos/R_S_yt-NuJbedGLcQY_112.mp4	0.0	154.48683309555054	0.8595619201660156
31	98.52427911758423	response	0	2		29.0	2.5	/experiments/knapen_aot/videos/R_S_yt-NuJbedGLcQY_112.mp4	0.0	155.33705711364746	
31	98.53361701965332	movie	1		301.0	29.0	2.5	/experiments/knapen_aot/videos/R_S_yt-NuJbedGLcQY_112.mp4	0.0	155.34639501571655	2.507205009460449
31	101.04082202911377	fix_post	2		12.0	29.0	2.5	/experiments/knapen_aot/videos/R_S_yt-NuJbedGLcQY_112.mp4	0.0	157.853600025177	0.09999299049377441
32	101.14081501960754	fix_pre	0		103.0	30.0	2.5	/experiments/knapen_aot/videos/R_S_yt-5doJmCcFL7s_3.mp4	0.0	157.95359301567078	0.8582310676574707
32	101.99093222618103	response	0	2		30.0	2.5	/experiments/knapen_aot/videos/R_S_yt-5doJmCcFL7s_3.mp4	0.0	158.80371022224426	
32	101.99904608726501	movie	1		301.0	30.0	2.5	/experiments/knapen_aot/videos/R_S_yt-5doJmCcFL7s_3.mp4	0.0	158.81182408332825	2.508368968963623
32	104.50741505622864	fix_post	2		12.0	30.0	2.5	/experiments/knapen_aot/videos/R_S_yt-5doJmCcFL7s_3.mp4	0.0	161.32019305229187	0.10002398490905762
33	104.6074390411377	fix_pre	0		98.0	31.0	2.5	/experiments/knapen_aot/videos/S_yt-xQPKYWDRy2A_491.mp4	0.0	161.42021703720093	0.8165900707244873
33	105.41593408584595	response	0	2		31.0	2.5	/experiments/knapen_aot/videos/S_yt-xQPKYWDRy2A_491.mp4	0.0	162.22871208190918	
33	105.42402911186218	movie	1		301.0	31.0	2.5	/experiments/knapen_aot/videos/S_yt-xQPKYWDRy2A_491.mp4	0.0	162.23680710792542	2.508436918258667
33	107.93246603012085	fix_post	2		12.0	31.0	2.5	/experiments/knapen_aot/videos/S_yt-xQPKYWDRy2A_491.mp4	0.0	164.74524402618408	0.09997010231018066
34	108.03243613243103	fix_pre	0		91.0	32.0	2.5	/experiments/knapen_aot/videos/R_S_ILSVRC2015_train_00434000.mp4	0.0	164.84521412849426	0.7582969665527344
34	108.78256916999817	response	0	2		32.0	2.5	/experiments/knapen_aot/videos/R_S_ILSVRC2015_train_00434000.mp4	0.0	165.5953471660614	
34	108.79073309898376	movie	1		301.0	32.0	2.5	/experiments/knapen_aot/videos/R_S_ILSVRC2015_train_00434000.mp4	0.0	165.603511095047	2.508366107940674
34	111.29909920692444	fix_post	2		12.0	32.0	2.5	/experiments/knapen_aot/videos/R_S_ILSVRC2015_train_00434000.mp4	0.0	168.11187720298767	0.09999895095825195
35	111.39909815788269	fix_pre	0		125.0	33.0	2.5	blank	1.0	168.21187615394592	1.0416419506072998
35	112.42516708374023	response	0	2		33.0	2.5	blank	1.0	169.23794507980347	
35	112.44074010848999	movie	1		301.0	33.0	2.5	blank	1.0	169.25351810455322	2.508323907852173
35	114.94906401634216	fix_post	2		12.0	33.0	2.5	blank	1.0	171.7618420124054	0.10002017021179199
36	115.04908418655396	fix_pre	0		88.0	34.0	2.5	/experiments/knapen_aot/videos/R_S_yt-q9-_bG9ry3E_5.mp4	0.0	171.8618621826172	0.7343659400939941
36	115.7666711807251	response	0	2		34.0	2.5	/experiments/knapen_aot/videos/R_S_yt-q9-_bG9ry3E_5.mp4	0.0	172.57944917678833	
36	115.78345012664795	movie	1		301.0	34.0	2.5	/experiments/knapen_aot/videos/R_S_yt-q9-_bG9ry3E_5.mp4	0.0	172.59622812271118	2.5072109699249268
36	118.29066109657288	fix_post	2		12.0	34.0	2.5	/experiments/knapen_aot/videos/R_S_yt-q9-_bG9ry3E_5.mp4	0.0	175.1034390926361	0.10009503364562988
37	118.3907561302185	fix_pre	0		67.0	35.0	2.5	/experiments/knapen_aot/videos/R_S_yt--wYgjXsc1XQ_106.mp4	0.0	175.20353412628174	0.5593709945678711
37	118.94088912010193	response	0	2		35.0	2.5	/experiments/knapen_aot/videos/R_S_yt--wYgjXsc1XQ_106.mp4	0.0	175.75366711616516	
37	118.95012712478638	movie	1		298.0	35.0	2.5	/experiments/knapen_aot/videos/R_S_yt--wYgjXsc1XQ_106.mp4	0.0	175.7629051208496	2.5072619915008545
37	121.45738911628723	fix_post	2		12.0	35.0	2.5	/experiments/knapen_aot/videos/R_S_yt--wYgjXsc1XQ_106.mp4	0.0	178.27016711235046	0.10000300407409668
38	121.55739212036133	fix_pre	0		100.0	36.0	2.5	/experiments/knapen_aot/videos/R_S_yt--wYgjXsc1XQ_106.mp4	0.0	178.37017011642456	0.8333079814910889
38	122.38252210617065	response	0	2		36.0	2.5	/experiments/knapen_aot/videos/R_S_yt--wYgjXsc1XQ_106.mp4	0.0	179.1953001022339	
38	122.39070010185242	movie	1		301.0	36.0	2.5	/experiments/knapen_aot/videos/R_S_yt--wYgjXsc1XQ_106.mp4	0.0	179.20347809791565	2.5082919597625732
38	124.89899206161499	fix_post	2		12.0	36.0	2.5	/experiments/knapen_aot/videos/R_S_yt--wYgjXsc1XQ_106.mp4	0.0	181.71177005767822	0.10005998611450195
39	124.99905204772949	fix_pre	0		92.0	37.0	2.5	/experiments/knapen_aot/videos/R_S_pexels-roman-odintsov-8232443.mp4	0.0	181.81183004379272	0.7666361331939697
39	125.75756311416626	response	0	2		37.0	2.5	/experiments/knapen_aot/videos/R_S_pexels-roman-odintsov-8232443.mp4	0.0	182.5703411102295	
39	125.76568818092346	movie	1		191.0	37.0	2.5	/experiments/knapen_aot/videos/R_S_pexels-roman-odintsov-8232443.mp4	0.0	182.5784661769867	2.5083420276641846
39	128.27403020858765	fix_post	2		12.0	37.0	2.5	/experiments/knapen_aot/videos/R_S_pexels-roman-odintsov-8232443.mp4	0.0	185.08680820465088	0.10003089904785156
40	128.3740611076355	fix_pre	0		99.0	38.0	2.5	/experiments/knapen_aot/videos/R_S_ILSVRC2015_train_00569002.mp4	0.0	185.18683910369873	0.8260200023651123
40	129.1908152103424	response	0	2		38.0	2.5	/experiments/knapen_aot/videos/R_S_ILSVRC2015_train_00569002.mp4	0.0	186.00359320640564	
40	129.2000811100006	movie	1		301.0	38.0	2.5	/experiments/knapen_aot/videos/R_S_ILSVRC2015_train_00569002.mp4	0.0	186.01285910606384	2.5072450637817383
40	131.70732617378235	fix_post	2		12.0	38.0	2.5	/experiments/knapen_aot/videos/R_S_ILSVRC2015_train_00569002.mp4	0.0	188.52010416984558	0.09999489784240723
41	131.80732107162476	fix_pre	0		109.0	39.0	2.5	/experiments/knapen_aot/videos/S_gHYomsO1dSU_5.mp4	0.0	188.620099067688	0.908297061920166
41	132.7074990272522	response	0	2		39.0	2.5	/experiments/knapen_aot/videos/S_gHYomsO1dSU_5.mp4	0.0	189.52027702331543	
41	132.71561813354492	movie	1		301.0	39.0	2.5	/experiments/knapen_aot/videos/S_gHYomsO1dSU_5.mp4	0.0	189.52839612960815	2.5083699226379395
41	135.22398805618286	fix_post	2		12.0	39.0	2.5	/experiments/knapen_aot/videos/S_gHYomsO1dSU_5.mp4	0.0	192.0367660522461	0.09994006156921387
42	135.32392811775208	fix_pre	0		338.0	40.0	2.5	/experiments/knapen_aot/videos/R_S_pexels-mart-production-7698693.mp4	0.0	192.1367061138153	2.8166089057922363
42	138.132395029068	response	0	2		40.0	2.5	/experiments/knapen_aot/videos/R_S_pexels-mart-production-7698693.mp4	0.0	194.94517302513123	
42	138.1405370235443	movie	1		198.0	40.0	2.5	/experiments/knapen_aot/videos/R_S_pexels-mart-production-7698693.mp4	0.0	194.95331501960754	2.5084590911865234
42	140.64899611473083	fix_post	2		12.0	40.0	2.5	/experiments/knapen_aot/videos/R_S_pexels-mart-production-7698693.mp4	0.0	197.46177411079407	0.09997797012329102
43	140.74897408485413	fix_pre	0		94.0	41.0	2.5	/experiments/knapen_aot/videos/S_yt-Jo6PxivsTOg_247.mp4	0.0	197.56175208091736	0.7841660976409912
43	141.52414917945862	response	0	2		41.0	2.5	/experiments/knapen_aot/videos/S_yt-Jo6PxivsTOg_247.mp4	0.0	198.33692717552185	
43	141.53314018249512	movie	1		301.0	41.0	2.5	/experiments/knapen_aot/videos/S_yt-Jo6PxivsTOg_247.mp4	0.0	198.34591817855835	2.5074808597564697
43	144.0406210422516	fix_post	2		12.0	41.0	2.5	/experiments/knapen_aot/videos/S_yt-Jo6PxivsTOg_247.mp4	0.0	200.85339903831482	0.10001206398010254
44	144.1406331062317	fix_pre	0		103.0	42.0	2.5	blank	1.0	200.95341110229492	0.8583109378814697
44	144.99078917503357	response	0	2		42.0	2.5	blank	1.0	201.8035671710968	
44	144.99894404411316	movie	1		301.0	42.0	2.5	blank	1.0	201.8117220401764	2.5082170963287354
44	147.5071611404419	fix_post	2		12.0	42.0	2.5	blank	1.0	204.31993913650513	0.10010695457458496
45	147.60726809501648	fix_pre	0		89.0	43.0	2.5	/experiments/knapen_aot/videos/S_yt-G65z8p1YNhw_16.mp4	0.0	204.4200460910797	0.7416160106658936
45	148.34069418907166	response	0	2		43.0	2.5	/experiments/knapen_aot/videos/S_yt-G65z8p1YNhw_16.mp4	0.0	205.1534721851349	
45	148.34888410568237	movie	1		299.0	43.0	2.5	/experiments/knapen_aot/videos/S_yt-G65z8p1YNhw_16.mp4	0.0	205.1616621017456	2.5083630084991455
45	150.85724711418152	fix_post	2		12.0	43.0	2.5	/experiments/knapen_aot/videos/S_yt-G65z8p1YNhw_16.mp4	0.0	207.67002511024475	0.09995889663696289
46	150.95720601081848	fix_pre	0		73.0	44.0	2.5	/experiments/knapen_aot/videos/R_S_yt-fP2JRJAFGZ4_25.mp4	0.0	207.7699840068817	0.608335018157959
46	151.54985404014587	response	0	2		44.0	2.5	/experiments/knapen_aot/videos/R_S_yt-fP2JRJAFGZ4_25.mp4	0.0	208.3626320362091	
46	151.56554102897644	movie	1		301.0	44.0	2.5	/experiments/knapen_aot/videos/R_S_yt-fP2JRJAFGZ4_25.mp4	0.0	208.37831902503967	2.508371114730835
46	154.07391214370728	fix_post	2		12.0	44.0	2.5	/experiments/knapen_aot/videos/R_S_yt-fP2JRJAFGZ4_25.mp4	0.0	210.8866901397705	0.09998607635498047
47	154.17389822006226	fix_pre	0		72.0	45.0	2.5	/experiments/knapen_aot/videos/S_wc-rs31_SV1Opy__6.mp4	0.0	210.9866762161255	0.5999689102172852
47	154.7656741142273	response	0	2		45.0	2.5	/experiments/knapen_aot/videos/S_wc-rs31_SV1Opy__6.mp4	0.0	211.57845211029053	
47	154.77386713027954	movie	1		162.0	45.0	2.5	/experiments/knapen_aot/videos/S_wc-rs31_SV1Opy__6.mp4	0.0	211.58664512634277	2.508358955383301
47	157.28222608566284	fix_post	2		12.0	45.0	2.5	/experiments/knapen_aot/videos/S_wc-rs31_SV1Opy__6.mp4	0.0	214.09500408172607	0.0999901294708252
48	157.38221621513367	fix_pre	0		108.0	46.0	2.5	/experiments/knapen_aot/videos/R_S_yt-mdLT282PVbE_6.mp4	0.0	214.1949942111969	0.900871992111206
48	158.27404308319092	response	0	2		46.0	2.5	/experiments/knapen_aot/videos/R_S_yt-mdLT282PVbE_6.mp4	0.0	215.08682107925415	
48	158.28308820724487	movie	1		301.0	46.0	2.5	/experiments/knapen_aot/videos/R_S_yt-mdLT282PVbE_6.mp4	0.0	215.0958662033081	2.5074520111083984
48	160.79054021835327	fix_post	2		12.0	46.0	2.5	/experiments/knapen_aot/videos/R_S_yt-mdLT282PVbE_6.mp4	0.0	217.6033182144165	0.09993791580200195
49	160.89047813415527	fix_pre	0		197.0	47.0	2.5	/experiments/knapen_aot/videos/R_S_yt-kNZUFy3cbjQ_9.mp4	0.0	217.7032561302185	1.6425070762634277
49	162.52398014068604	response	0	2		47.0	2.5	/experiments/knapen_aot/videos/R_S_yt-kNZUFy3cbjQ_9.mp4	0.0	219.33675813674927	
49	162.5329852104187	movie	1		301.0	47.0	2.5	/experiments/knapen_aot/videos/R_S_yt-kNZUFy3cbjQ_9.mp4	0.0	219.34576320648193	2.5075578689575195
49	165.04054307937622	fix_post	2		12.0	47.0	2.5	/experiments/knapen_aot/videos/R_S_yt-kNZUFy3cbjQ_9.mp4	0.0	221.85332107543945	0.09994196891784668
50	165.14048504829407	fix_pre	0		68.0	48.0	2.5	blank	1.0	221.9532630443573	0.5666489601135254
50	165.69899201393127	response	0	2		48.0	2.5	blank	1.0	222.5117700099945	
50	165.7071340084076	movie	1		301.0	48.0	2.5	blank	1.0	222.51991200447083	2.508362054824829
50	168.21549606323242	fix_post	2		12.0	48.0	2.5	blank	1.0	225.02827405929565	0.09999299049377441
51	168.3154890537262	fix_pre	0		63.0	49.0	2.5	/experiments/knapen_aot/videos/R_S_yt--OkafQ5VFHs_51.mp4	0.0	225.12826704978943	0.5249731540679932
51	168.8323540687561	response	0	2		49.0	2.5	/experiments/knapen_aot/videos/R_S_yt--OkafQ5VFHs_51.mp4	0.0	225.64513206481934	
51	168.8404622077942	movie	1		301.0	49.0	2.5	/experiments/knapen_aot/videos/R_S_yt--OkafQ5VFHs_51.mp4	0.0	225.65324020385742	2.50837779045105
51	171.34883999824524	fix_post	2		12.0	49.0	2.5	/experiments/knapen_aot/videos/R_S_yt--OkafQ5VFHs_51.mp4	0.0	228.16161799430847	0.09997105598449707
52	171.44881105422974	fix_pre	0		84.0	50.0	2.5	/experiments/knapen_aot/videos/R_S_comp_A083_C002_1130KZ_v04_SDR_PS_FINAL_20180725_SDR_2K_AVC.mp4	0.0	228.26158905029297	0.7000131607055664
52	172.14062809944153	response	0	2		50.0	2.5	/experiments/knapen_aot/videos/R_S_comp_A083_C002_1130KZ_v04_SDR_PS_FINAL_20180725_SDR_2K_AVC.mp4	0.0	228.95340609550476	
52	172.1488242149353	movie	1		162.0	50.0	2.5	/experiments/knapen_aot/videos/R_S_comp_A083_C002_1130KZ_v04_SDR_PS_FINAL_20180725_SDR_2K_AVC.mp4	0.0	228.96160221099854	2.508328914642334
52	174.65715312957764	fix_post	2		12.0	50.0	2.5	/experiments/knapen_aot/videos/R_S_comp_A083_C002_1130KZ_v04_SDR_PS_FINAL_20180725_SDR_2K_AVC.mp4	0.0	231.46993112564087	0.09995198249816895
53	174.7571051120758	fix_pre	0		70.0	51.0	2.5	/experiments/knapen_aot/videos/R_S_yt-5DD4XtHSA9Q_171.mp4	0.0	231.56988310813904	0.5833179950714111
53	175.33228421211243	response	0	2		51.0	2.5	/experiments/knapen_aot/videos/R_S_yt-5DD4XtHSA9Q_171.mp4	0.0	232.14506220817566	
53	175.34042310714722	movie	1		301.0	51.0	2.5	/experiments/knapen_aot/videos/R_S_yt-5DD4XtHSA9Q_171.mp4	0.0	232.15320110321045	2.508405923843384
53	177.8488290309906	fix_post	2		12.0	51.0	2.5	/experiments/knapen_aot/videos/R_S_yt-5DD4XtHSA9Q_171.mp4	0.0	234.66160702705383	0.09987902641296387
54	177.94870805740356	fix_pre	0		81.0	52.0	2.5	/experiments/knapen_aot/videos/R_S_g201_AK_A003_C014_SDR_20191113_SDR_2K_AVC.mp4	0.0	234.7614860534668	0.6750400066375732
54	178.60812616348267	response	0	2		52.0	2.5	/experiments/knapen_aot/videos/R_S_g201_AK_A003_C014_SDR_20191113_SDR_2K_AVC.mp4	0.0	235.4209041595459	
54	178.62374806404114	movie	1		165.0	52.0	2.5	/experiments/knapen_aot/videos/R_S_g201_AK_A003_C014_SDR_20191113_SDR_2K_AVC.mp4	0.0	235.43652606010437	2.5083529949188232
54	181.13210105895996	fix_post	2		12.0	52.0	2.5	/experiments/knapen_aot/videos/R_S_g201_AK_A003_C014_SDR_20191113_SDR_2K_AVC.mp4	0.0	237.9448790550232	0.09997200965881348
55	181.23207306861877	fix_pre	0		87.0	53.0	2.5	/experiments/knapen_aot/videos/S_yt-OEY9O2MglQM_7.mp4	0.0	238.044851064682	0.7250080108642578
55	181.94892120361328	response	0	2		53.0	2.5	/experiments/knapen_aot/videos/S_yt-OEY9O2MglQM_7.mp4	0.0	238.7616991996765	
55	181.95708107948303	movie	1		301.0	53.0	2.5	/experiments/knapen_aot/videos/S_yt-OEY9O2MglQM_7.mp4	0.0	238.76985907554626	2.5083680152893066
55	184.46544909477234	fix_post	2		12.0	53.0	2.5	/experiments/knapen_aot/videos/S_yt-OEY9O2MglQM_7.mp4	0.0	241.27822709083557	0.10006904602050781
56	184.56551814079285	fix_pre	0		76.0	54.0	2.5	blank	1.0	241.37829613685608	0.6339669227600098
56	185.19053101539612	response	0	2		54.0	2.5	blank	1.0	242.00330901145935	
56	185.19948506355286	movie	1		301.0	54.0	2.5	blank	1.0	242.0122630596161	2.50754714012146
56	187.70703220367432	fix_post	2		12.0	54.0	2.5	blank	1.0	244.51981019973755	0.1001899242401123
57	187.80722212791443	fix_pre	0		57.0	55.0	2.5	/experiments/knapen_aot/videos/S_yt-ejSzwn8tY8g_49.mp4	0.0	244.62000012397766	0.4756450653076172
57	188.2738881111145	response	0	2		55.0	2.5	/experiments/knapen_aot/videos/S_yt-ejSzwn8tY8g_49.mp4	0.0	245.08666610717773	
57	188.28286719322205	movie	1		301.0	55.0	2.5	/experiments/knapen_aot/videos/S_yt-ejSzwn8tY8g_49.mp4	0.0	245.09564518928528	2.5076839923858643
57	190.7905511856079	fix_post	2		12.0	55.0	2.5	/experiments/knapen_aot/videos/S_yt-ejSzwn8tY8g_49.mp4	0.0	247.60332918167114	0.09989786148071289
58	190.89044904708862	fix_pre	0		72.0	56.0	2.5	/experiments/knapen_aot/videos/R_S_yt-FR_Y1Mm8BwQ_53.mp4	0.0	247.70322704315186	0.6005990505218506
58	191.48217701911926	response	0	2		56.0	2.5	/experiments/knapen_aot/videos/R_S_yt-FR_Y1Mm8BwQ_53.mp4	0.0	248.2949550151825	
58	191.49104809761047	movie	1		301.0	56.0	2.5	/experiments/knapen_aot/videos/R_S_yt-FR_Y1Mm8BwQ_53.mp4	0.0	248.3038260936737	2.507719039916992
58	193.99876713752747	fix_post	2		12.0	56.0	2.5	/experiments/knapen_aot/videos/R_S_yt-FR_Y1Mm8BwQ_53.mp4	0.0	250.8115451335907	0.09998607635498047
59	194.09875321388245	fix_pre	0		68.0	57.0	2.5	/experiments/knapen_aot/videos/S_comp_HK_H004_C010_PSNK_v08_SDR_PS_20181009_SDR_2K_AVC.mp4	0.0	250.91153120994568	0.5665929317474365
59	194.65722608566284	response	0	2		57.0	2.5	/experiments/knapen_aot/videos/S_comp_HK_H004_C010_PSNK_v08_SDR_PS_20181009_SDR_2K_AVC.mp4	0.0	251.47000408172607	
59	194.66534614562988	movie	1		165.0	57.0	2.5	/experiments/knapen_aot/videos/S_comp_HK_H004_C010_PSNK_v08_SDR_PS_20181009_SDR_2K_AVC.mp4	0.0	251.47812414169312	2.5083580017089844
59	197.17370414733887	fix_post	2		12.0	57.0	2.5	/experiments/knapen_aot/videos/S_comp_HK_H004_C010_PSNK_v08_SDR_PS_20181009_SDR_2K_AVC.mp4	0.0	253.9864821434021	0.10004901885986328
60	197.27375316619873	fix_pre	0		63.0	58.0	2.5	/experiments/knapen_aot/videos/S_yt-T9Vwt7wFvPk_100.mp4	0.0	254.08653116226196	0.524975061416626
60	197.7907440662384	response	0	2		58.0	2.5	/experiments/knapen_aot/videos/S_yt-T9Vwt7wFvPk_100.mp4	0.0	254.60352206230164	
60	197.79872822761536	movie	1		301.0	58.0	2.5	/experiments/knapen_aot/videos/S_yt-T9Vwt7wFvPk_100.mp4	0.0	254.6115062236786	2.5082828998565674
60	200.30701112747192	fix_post	2		12.0	58.0	2.5	/experiments/knapen_aot/videos/S_yt-T9Vwt7wFvPk_100.mp4	0.0	257.11978912353516	0.10003995895385742
61	200.40705108642578	fix_pre	0		76.0	59.0	2.5	/experiments/knapen_aot/videos/R_S_pexels-anthony-shkraba-production-8135459.mp4	0.0	257.219829082489	0.6333091259002686
61	201.0321910381317	response	0	2		59.0	2.5	/experiments/knapen_aot/videos/R_S_pexels-anthony-shkraba-production-8135459.mp4	0.0	257.84496903419495	
61	201.04036021232605	movie	1		165.0	59.0	2.5	/experiments/knapen_aot/videos/R_S_pexels-anthony-shkraba-production-8135459.mp4	0.0	257.8531382083893	2.5083699226379395
61	203.548730134964	fix_post	2		12.0	59.0	2.5	/experiments/knapen_aot/videos/R_S_pexels-anthony-shkraba-production-8135459.mp4	0.0	260.3615081310272	0.09994792938232422
62	203.6486780643463	fix_pre	0		99.0	60.0	2.5	/experiments/knapen_aot/videos/S_yt-GWgG8PVM1iw_34.mp4	0.0	260.46145606040955	0.8249549865722656
62	204.46543908119202	response	0	2		60.0	2.5	/experiments/knapen_aot/videos/S_yt-GWgG8PVM1iw_34.mp4	0.0	261.27821707725525	
62	204.47363305091858	movie	1		301.0	60.0	2.5	/experiments/knapen_aot/videos/S_yt-GWgG8PVM1iw_34.mp4	0.0	261.2864110469818	2.5083510875701904
62	206.98198413848877	fix_post	2		12.0	60.0	2.5	/experiments/knapen_aot/videos/S_yt-GWgG8PVM1iw_34.mp4	0.0	263.794762134552	0.09998297691345215
63	207.08196711540222	fix_pre	0		79.0	61.0	2.5	/experiments/knapen_aot/videos/S_yt-w_e3sxIzepA_27.mp4	0.0	263.89474511146545	0.6589040756225586
63	207.73213911056519	response	0	2		61.0	2.5	/experiments/knapen_aot/videos/S_yt-w_e3sxIzepA_27.mp4	0.0	264.5449171066284	
63	207.74087119102478	movie	1		301.0	61.0	2.5	/experiments/knapen_aot/videos/S_yt-w_e3sxIzepA_27.mp4	0.0	264.553649187088	2.507762908935547
63	210.24863409996033	fix_post	2		12.0	61.0	2.5	/experiments/knapen_aot/videos/S_yt-w_e3sxIzepA_27.mp4	0.0	267.06141209602356	0.09997010231018066
64	210.3486042022705	fix_pre	0		71.0	62.0	2.5	/experiments/knapen_aot/videos/S_ILSVRC2015_train_00219003.mp4	0.0	267.16138219833374	0.5916929244995117
64	210.93219804763794	response	0	2		62.0	2.5	/experiments/knapen_aot/videos/S_ILSVRC2015_train_00219003.mp4	0.0	267.7449760437012	
64	210.94029712677002	movie	1		301.0	62.0	2.5	/experiments/knapen_aot/videos/S_ILSVRC2015_train_00219003.mp4	0.0	267.75307512283325	2.508312940597534
64	213.44861006736755	fix_post	2		12.0	62.0	2.5	/experiments/knapen_aot/videos/S_ILSVRC2015_train_00219003.mp4	0.0	270.2613880634308	0.10005402565002441
65	213.54866409301758	fix_pre	0		74.0	63.0	2.5	blank	1.0	270.3614420890808	0.6166031360626221
65	214.15714812278748	response	0	2		63.0	2.5	blank	1.0	270.9699261188507	
65	214.1652672290802	movie	1		301.0	63.0	2.5	blank	1.0	270.97804522514343	2.508319854736328
65	216.67358708381653	fix_post	2		12.0	63.0	2.5	blank	1.0	273.48636507987976	0.1000680923461914
66	216.77365517616272	fix_pre	0		66.0	64.0	2.5	/experiments/knapen_aot/videos/S_yt-xQPKYWDRy2A_491.mp4	0.0	273.58643317222595	0.5504980087280273
66	217.31538319587708	response	0	2		64.0	2.5	/experiments/knapen_aot/videos/S_yt-xQPKYWDRy2A_491.mp4	0.0	274.1281611919403	
66	217.32415318489075	movie	1		301.0	64.0	2.5	/experiments/knapen_aot/videos/S_yt-xQPKYWDRy2A_491.mp4	0.0	274.136931180954	2.5078089237213135
66	219.83196210861206	fix_post	2		12.0	64.0	2.5	/experiments/knapen_aot/videos/S_yt-xQPKYWDRy2A_491.mp4	0.0	276.6447401046753	0.09993100166320801
67	219.93189311027527	fix_pre	0		70.0	65.0	2.5	/experiments/knapen_aot/videos/R_S_production_ID_4154238.mp4	0.0	276.7446711063385	0.5833630561828613
67	220.50711512565613	response	0	2		65.0	2.5	/experiments/knapen_aot/videos/R_S_production_ID_4154238.mp4	0.0	277.31989312171936	
67	220.51525616645813	movie	1		197.0	65.0	2.5	/experiments/knapen_aot/videos/R_S_production_ID_4154238.mp4	0.0	277.32803416252136	2.508340835571289
67	223.02359700202942	fix_post	2		12.0	65.0	2.5	/experiments/knapen_aot/videos/R_S_production_ID_4154238.mp4	0.0	279.83637499809265	0.10001611709594727
68	223.12361311912537	fix_pre	0		102.0	66.0	2.5	/experiments/knapen_aot/videos/R_S_yt-rlVzHENWufE_61.mp4	0.0	279.9363911151886	0.8499910831451416
68	223.96544313430786	response	0	2		66.0	2.5	/experiments/knapen_aot/videos/R_S_yt-rlVzHENWufE_61.mp4	0.0	280.7782211303711	
68	223.9736042022705	movie	1		301.0	66.0	2.5	/experiments/knapen_aot/videos/R_S_yt-rlVzHENWufE_61.mp4	0.0	280.78638219833374	2.5083718299865723
68	226.48197603225708	fix_post	2		12.0	66.0	2.5	/experiments/knapen_aot/videos/R_S_yt-rlVzHENWufE_61.mp4	0.0	283.2947540283203	0.09999799728393555
69	226.58197402954102	fix_pre	0		89.0	67.0	2.5	/experiments/knapen_aot/videos/R_S_yt-OEY9O2MglQM_7.mp4	0.0	283.39475202560425	0.7420601844787598
69	227.31541514396667	response	0	2		67.0	2.5	/experiments/knapen_aot/videos/R_S_yt-OEY9O2MglQM_7.mp4	0.0	284.1281931400299	
69	227.32403421401978	movie	1		301.0	67.0	2.5	/experiments/knapen_aot/videos/R_S_yt-OEY9O2MglQM_7.mp4	0.0	284.136812210083	2.5078909397125244
69	229.8319251537323	fix_post	2		12.0	67.0	2.5	/experiments/knapen_aot/videos/R_S_yt-OEY9O2MglQM_7.mp4	0.0	286.64470314979553	0.1000058650970459
70	229.93193101882935	fix_pre	0		111.0	68.0	2.5	/experiments/knapen_aot/videos/R_S_yt-54kx8P3L1ns_6.mp4	0.0	286.7447090148926	0.9268381595611572
70	230.8487491607666	response	0	2		68.0	2.5	/experiments/knapen_aot/videos/R_S_yt-54kx8P3L1ns_6.mp4	0.0	287.66152715682983	
70	230.8587691783905	movie	1		301.0	68.0	2.5	/experiments/knapen_aot/videos/R_S_yt-54kx8P3L1ns_6.mp4	0.0	287.67154717445374	2.506453037261963
70	233.36522221565247	fix_post	2		12.0	68.0	2.5	/experiments/knapen_aot/videos/R_S_yt-54kx8P3L1ns_6.mp4	0.0	290.1780002117157	0.10004401206970215
71	233.46526622772217	fix_pre	0		92.0	69.0	2.5	/experiments/knapen_aot/videos/S_3dzza09VbXY_235.mp4	0.0	290.2780442237854	0.766636848449707
71	234.22374200820923	response	0	2		69.0	2.5	/experiments/knapen_aot/videos/S_3dzza09VbXY_235.mp4	0.0	291.03652000427246	
71	234.23190307617188	movie	1		301.0	69.0	2.5	/experiments/knapen_aot/videos/S_3dzza09VbXY_235.mp4	0.0	291.0446810722351	2.5082590579986572
71	236.74016213417053	fix_post	2		12.0	69.0	2.5	/experiments/knapen_aot/videos/S_3dzza09VbXY_235.mp4	0.0	293.55294013023376	0.09999799728393555
72	236.84016013145447	fix_pre	0		72.0	70.0	2.5	blank	1.0	293.6529381275177	0.6000220775604248
72	237.43201518058777	response	0	2		70.0	2.5	blank	1.0	294.244793176651	
72	237.4401822090149	movie	1		301.0	70.0	2.5	blank	1.0	294.2529602050781	2.5083279609680176
72	239.9485101699829	fix_post	2		12.0	70.0	2.5	blank	1.0	296.76128816604614	0.10002493858337402
73	240.04853510856628	fix_pre	0		117.0	71.0	2.5	/experiments/knapen_aot/videos/S_yt-giRwl4yChlw_9.mp4	0.0	296.8613131046295	0.974884033203125
73	241.01540303230286	response	0	2		71.0	2.5	/experiments/knapen_aot/videos/S_yt-giRwl4yChlw_9.mp4	0.0	297.8281810283661	
73	241.0234191417694	movie	1		301.0	71.0	2.5	/experiments/knapen_aot/videos/S_yt-giRwl4yChlw_9.mp4	0.0	297.83619713783264	2.508342981338501
73	243.5317621231079	fix_post	2		12.0	71.0	2.5	/experiments/knapen_aot/videos/S_yt-giRwl4yChlw_9.mp4	0.0	300.34454011917114	0.1000828742980957
74	243.631844997406	fix_pre	0		121.0	72.0	2.5	/experiments/knapen_aot/videos/S_yt-QQPv17nfR_E_2.mp4	0.0	300.44462299346924	1.008301019668579
74	244.63194513320923	response	0	2		72.0	2.5	/experiments/knapen_aot/videos/S_yt-QQPv17nfR_E_2.mp4	0.0	301.44472312927246	
74	244.64014601707458	movie	1		301.0	72.0	2.5	/experiments/knapen_aot/videos/S_yt-QQPv17nfR_E_2.mp4	0.0	301.4529240131378	2.5083701610565186
74	247.1485161781311	fix_post	2		12.0	72.0	2.5	/experiments/knapen_aot/videos/S_yt-QQPv17nfR_E_2.mp4	0.0	303.96129417419434	0.0999460220336914
75	247.2484622001648	fix_pre	0		75.0	73.0	2.5	/experiments/knapen_aot/videos/S_flickr-claywakening-27928940166_2.mp4	0.0	304.061240196228	0.6249799728393555
75	247.865305185318	response	0	2		73.0	2.5	/experiments/knapen_aot/videos/S_flickr-claywakening-27928940166_2.mp4	0.0	304.6780831813812	
75	247.87344217300415	movie	1		170.0	73.0	2.5	/experiments/knapen_aot/videos/S_flickr-claywakening-27928940166_2.mp4	0.0	304.6862201690674	2.508419990539551
75	250.3818621635437	fix_post	2		12.0	73.0	2.5	/experiments/knapen_aot/videos/S_flickr-claywakening-27928940166_2.mp4	0.0	307.19464015960693	0.0999598503112793
76	250.48182201385498	fix_pre	0		89.0	74.0	2.5	/experiments/knapen_aot/videos/R_S_wc-dwTccI0TNwps_15.mp4	0.0	307.2946000099182	0.74167799949646
76	251.21527314186096	response	0	2		74.0	2.5	/experiments/knapen_aot/videos/R_S_wc-dwTccI0TNwps_15.mp4	0.0	308.0280511379242	
76	251.22350001335144	movie	1		300.0	74.0	2.5	/experiments/knapen_aot/videos/R_S_wc-dwTccI0TNwps_15.mp4	0.0	308.0362780094147	2.5082991123199463
76	253.7317991256714	fix_post	2		12.0	74.0	2.5	/experiments/knapen_aot/videos/R_S_wc-dwTccI0TNwps_15.mp4	0.0	310.5445771217346	0.10002994537353516
77	253.83182907104492	fix_pre	0		96.0	75.0	2.5	/experiments/knapen_aot/videos/S_yt-sxZ_ONShI7U_75.mp4	0.0	310.64460706710815	0.799936056137085
77	254.62362813949585	response	0	2		75.0	2.5	/experiments/knapen_aot/videos/S_yt-sxZ_ONShI7U_75.mp4	0.0	311.4364061355591	
77	254.631765127182	movie	1		301.0	75.0	2.5	/experiments/knapen_aot/videos/S_yt-sxZ_ONShI7U_75.mp4	0.0	311.44454312324524	2.5083909034729004
77	257.1401560306549	fix_post	2		12.0	75.0	2.5	/experiments/knapen_aot/videos/S_yt-sxZ_ONShI7U_75.mp4	0.0	313.95293402671814	0.10043811798095703
78	257.24059414863586	fix_pre	0		91.0	76.0	2.5	/experiments/knapen_aot/videos/S_yt-_HuBzj8EPBc_62.mp4	0.0	314.0533721446991	0.7578389644622803
78	257.99033212661743	response	0	2		76.0	2.5	/experiments/knapen_aot/videos/S_yt-_HuBzj8EPBc_62.mp4	0.0	314.80311012268066	
78	257.99843311309814	movie	1		301.0	76.0	2.5	/experiments/knapen_aot/videos/S_yt-_HuBzj8EPBc_62.mp4	0.0	314.8112111091614	2.508352041244507
78	260.50678515434265	fix_post	2		12.0	76.0	2.5	/experiments/knapen_aot/videos/S_yt-_HuBzj8EPBc_62.mp4	0.0	317.3195631504059	0.10003805160522461
79	260.6068232059479	fix_pre	0		125.0	77.0	2.5	blank	1.0	317.4196012020111	1.0415599346160889
79	261.6402530670166	response	0	2		77.0	2.5	blank	1.0	318.45303106307983	
79	261.64838314056396	movie	1		301.0	77.0	2.5	blank	1.0	318.4611611366272	2.5084190368652344
79	264.1568021774292	fix_post	2		12.0	77.0	2.5	blank	1.0	320.96958017349243	0.09993100166320801
80	264.2567331790924	fix_pre	0		74.0	78.0	2.5	/experiments/knapen_aot/videos/R_S_yt-B7ZRYVhfW2U_52.mp4	0.0	321.06951117515564	0.6166749000549316
80	264.86516523361206	response	0	2		78.0	2.5	/experiments/knapen_aot/videos/R_S_yt-B7ZRYVhfW2U_52.mp4	0.0	321.6779432296753	
80	264.87340807914734	movie	1		301.0	78.0	2.5	/experiments/knapen_aot/videos/R_S_yt-B7ZRYVhfW2U_52.mp4	0.0	321.68618607521057	2.5083811283111572
80	267.3817892074585	fix_post	2		12.0	78.0	2.5	/experiments/knapen_aot/videos/R_S_yt-B7ZRYVhfW2U_52.mp4	0.0	324.19456720352173	0.09999895095825195
81	267.48178815841675	fix_pre	0		97.0	79.0	2.5	/experiments/knapen_aot/videos/R_S_3dzza09VbXY_235.mp4	0.0	324.29456615448	0.8082950115203857
81	268.28196001052856	response	0	2		79.0	2.5	/experiments/knapen_aot/videos/R_S_3dzza09VbXY_235.mp4	0.0	325.0947380065918	
81	268.29008316993713	movie	1		301.0	79.0	2.5	/experiments/knapen_aot/videos/R_S_3dzza09VbXY_235.mp4	0.0	325.10286116600037	2.5083398818969727
81	270.7984230518341	fix_post	2		12.0	79.0	2.5	/experiments/knapen_aot/videos/R_S_3dzza09VbXY_235.mp4	0.0	327.61120104789734	0.09998607635498047
82	270.8984091281891	fix_pre	0		71.0	80.0	2.5	/experiments/knapen_aot/videos/R_S_yt-hekMMCluhnU_18.mp4	0.0	327.7111871242523	0.5919389724731445
82	271.481751203537	response	0	2		80.0	2.5	/experiments/knapen_aot/videos/R_S_yt-hekMMCluhnU_18.mp4	0.0	328.2945291996002	
82	271.49034810066223	movie	1		300.0	80.0	2.5	/experiments/knapen_aot/videos/R_S_yt-hekMMCluhnU_18.mp4	0.0	328.30312609672546	2.5080740451812744
82	273.9984221458435	fix_post	2		12.0	80.0	2.5	/experiments/knapen_aot/videos/R_S_yt-hekMMCluhnU_18.mp4	0.0	330.81120014190674	0.09997987747192383
83	274.09840202331543	fix_pre	0		79.0	81.0	2.5	/experiments/knapen_aot/videos/S_yt-zKnjBBYWe90_369.mp4	0.0	330.91118001937866	0.6582741737365723
83	274.7485191822052	response	0	2		81.0	2.5	/experiments/knapen_aot/videos/S_yt-zKnjBBYWe90_369.mp4	0.0	331.56129717826843	
83	274.756676197052	movie	1		301.0	81.0	2.5	/experiments/knapen_aot/videos/S_yt-zKnjBBYWe90_369.mp4	0.0	331.56945419311523	2.5083580017089844
83	277.265034198761	fix_post	2		12.0	81.0	2.5	/experiments/knapen_aot/videos/S_yt-zKnjBBYWe90_369.mp4	0.0	334.0778121948242	0.1002359390258789
84	277.36527013778687	fix_pre	0		68.0	82.0	2.5	blank	1.0	334.1780481338501	0.5664119720458984
84	277.9235701560974	response	0	2		82.0	2.5	blank	1.0	334.73634815216064	
84	277.93168210983276	movie	1		301.0	82.0	2.5	blank	1.0	334.744460105896	2.508341073989868
84	280.44002318382263	fix_post	2		12.0	82.0	2.5	blank	1.0	337.25280117988586	0.10004401206970215
85	280.54006719589233	fix_pre	0		105.0	83.0	2.5	/experiments/knapen_aot/videos/R_S_ILSVRC2015_train_00450001.mp4	0.0	337.35284519195557	0.8749659061431885
85	281.40688014030457	response	0	2		83.0	2.5	/experiments/knapen_aot/videos/R_S_ILSVRC2015_train_00450001.mp4	0.0	338.2196581363678	
85	281.4150331020355	movie	1		301.0	83.0	2.5	/experiments/knapen_aot/videos/R_S_ILSVRC2015_train_00450001.mp4	0.0	338.22781109809875	2.5083470344543457
85	283.92338013648987	fix_post	2		12.0	83.0	2.5	/experiments/knapen_aot/videos/R_S_ILSVRC2015_train_00450001.mp4	0.0	340.7361581325531	0.10000300407409668
87	284.02338314056396	stim	0		142.0					340.8361611366272	1.1832349300384521
87	285.2029011249542	response	0	space						342.01567912101746	
