trial_nr	onset	event_type	phase	response	nr_frames	movie_index	movie_duration	movie_file	blank	onset_abs	duration
0	0.12493610382080078	stim	0		59.0					79.36102390289307	0.49312400817871094
0	0.6083810329437256	response	0	space						79.84446883201599	
1	0.6180601119995117	stim	0		121.0					79.85414791107178	1.0065879821777344
1	1.624648094177246	stim	1		120.0					80.86073589324951	1.0000078678131104
1	1.858057975769043	response	1	space						81.09414577484131	
2	2.6246559619903564	fix_pre	0		37.0	0.0	2.5	/experiments/knapen_aot/videos/S_yt_R-JarqKC4X8nM_4.mp4	0.0	81.86074376106262	0.3082151412963867
2	2.9245660305023193	response	0	space		0.0	2.5	/experiments/knapen_aot/videos/S_yt_R-JarqKC4X8nM_4.mp4	0.0	82.16065382957458	
2	2.932871103286743	movie	1		300.0	0.0	2.5	/experiments/knapen_aot/videos/S_yt_R-JarqKC4X8nM_4.mp4	0.0	82.16895890235901	2.5083229541778564
2	5.4411940574646	fix_post	2		12.0	0.0	2.5	/experiments/knapen_aot/videos/S_yt_R-JarqKC4X8nM_4.mp4	0.0	84.67728185653687	0.10001492500305176
3	5.541208982467651	fix_pre	0		25.0	1.0	2.5	/experiments/knapen_aot/videos/S_KP_A010_C002_SDR_20190717_SDR_2K_AVC.mp4	0.0	84.77729678153992	0.2082970142364502
3	5.745955944061279	response	0	2		1.0	2.5	/experiments/knapen_aot/videos/S_KP_A010_C002_SDR_20190717_SDR_2K_AVC.mp4	0.0	84.98204374313354	
3	5.749505996704102	movie	1		166.0	1.0	2.5	/experiments/knapen_aot/videos/S_KP_A010_C002_SDR_20190717_SDR_2K_AVC.mp4	0.0	84.98559379577637	2.508371114730835
3	8.257877111434937	fix_post	2		12.0	1.0	2.5	/experiments/knapen_aot/videos/S_KP_A010_C002_SDR_20190717_SDR_2K_AVC.mp4	0.0	87.4939649105072	0.09991884231567383
4	8.35779595375061	fix_pre	0		20.0	2.0	2.5	/experiments/knapen_aot/videos/S_yt-r2jZ0zZrqzQ_45.mp4	0.0	87.59388375282288	0.16669011116027832
4	8.516273021697998	response	0	2		2.0	2.5	/experiments/knapen_aot/videos/S_yt-r2jZ0zZrqzQ_45.mp4	0.0	87.75236082077026	
4	8.524486064910889	movie	1		301.0	2.0	2.5	/experiments/knapen_aot/videos/S_yt-r2jZ0zZrqzQ_45.mp4	0.0	87.76057386398315	2.5083060264587402
4	11.032792091369629	fix_post	2		12.0	2.0	2.5	/experiments/knapen_aot/videos/S_yt-r2jZ0zZrqzQ_45.mp4	0.0	90.2688798904419	0.10008788108825684
5	11.132879972457886	fix_pre	0		26.0	3.0	2.5	/experiments/knapen_aot/videos/R_S_PA_A001_C007_SDR_20190717_SDR_2K_AVC.mp4	0.0	90.36896777153015	0.21679902076721191
5	11.34129810333252	response	0	2		3.0	2.5	/experiments/knapen_aot/videos/R_S_PA_A001_C007_SDR_20190717_SDR_2K_AVC.mp4	0.0	90.57738590240479	
5	11.349678993225098	movie	1		169.0	3.0	2.5	/experiments/knapen_aot/videos/R_S_PA_A001_C007_SDR_20190717_SDR_2K_AVC.mp4	0.0	90.58576679229736	2.508139133453369
5	13.857818126678467	fix_post	2		12.0	3.0	2.5	/experiments/knapen_aot/videos/R_S_PA_A001_C007_SDR_20190717_SDR_2K_AVC.mp4	0.0	93.09390592575073	0.09996986389160156
6	13.957787990570068	fix_pre	0		9.0	4.0	2.5	/experiments/knapen_aot/videos/S_yt-5MyvZYFlc9g_125.mp4	0.0	93.19387578964233	0.0764000415802002
6	14.024760961532593	response	0	2		4.0	2.5	/experiments/knapen_aot/videos/S_yt-5MyvZYFlc9g_125.mp4	0.0	93.26084876060486	
6	14.034188032150269	movie	1		301.0	4.0	2.5	/experiments/knapen_aot/videos/S_yt-5MyvZYFlc9g_125.mp4	0.0	93.27027583122253	2.506963014602661
6	16.54115104675293	fix_post	2		12.0	4.0	2.5	/experiments/knapen_aot/videos/S_yt-5MyvZYFlc9g_125.mp4	0.0	95.7772388458252	0.10003089904785156
7	16.64118194580078	fix_pre	0		23.0	5.0	2.5	/experiments/knapen_aot/videos/S_yt-3NMDWrZr1Z4_255.mp4	0.0	95.87726974487305	0.1916060447692871
7	16.82455801963806	response	0	2		5.0	2.5	/experiments/knapen_aot/videos/S_yt-3NMDWrZr1Z4_255.mp4	0.0	96.06064581871033	
7	16.83278799057007	movie	1		301.0	5.0	2.5	/experiments/knapen_aot/videos/S_yt-3NMDWrZr1Z4_255.mp4	0.0	96.06887578964233	2.5083820819854736
7	19.341170072555542	fix_post	2		12.0	5.0	2.5	/experiments/knapen_aot/videos/S_yt-3NMDWrZr1Z4_255.mp4	0.0	98.57725787162781	0.09996199607849121
8	19.441132068634033	fix_pre	0		22.0	6.0	2.5	/experiments/knapen_aot/videos/R_S_ILSVRC2015_train_00371012.mp4	0.0	98.6772198677063	0.1832890510559082
8	19.6163170337677	response	0	2		6.0	2.5	/experiments/knapen_aot/videos/R_S_ILSVRC2015_train_00371012.mp4	0.0	98.85240483283997	
8	19.62442111968994	movie	1		301.0	6.0	2.5	/experiments/knapen_aot/videos/R_S_ILSVRC2015_train_00371012.mp4	0.0	98.8605089187622	2.5083160400390625
8	22.132737159729004	fix_post	2		12.0	6.0	2.5	/experiments/knapen_aot/videos/R_S_ILSVRC2015_train_00371012.mp4	0.0	101.36882495880127	0.10002899169921875
9	22.232766151428223	fix_pre	0		24.0	7.0	2.5	blank	1.0	101.46885395050049	0.19996881484985352
9	22.424597024917603	response	0	2		7.0	2.5	blank	1.0	101.66068482398987	
9	22.432734966278076	movie	1		301.0	7.0	2.5	blank	1.0	101.66882276535034	2.508357048034668
9	24.941092014312744	fix_post	2		12.0	7.0	2.5	blank	1.0	104.17717981338501	0.1000051498413086
10	25.041097164154053	fix_pre	0		25.0	8.0	2.5	/experiments/knapen_aot/videos/S_yt-yyIimWrvRyI_246.mp4	0.0	104.27718496322632	0.20835399627685547
10	25.24120306968689	response	0	2		8.0	2.5	/experiments/knapen_aot/videos/S_yt-yyIimWrvRyI_246.mp4	0.0	104.47729086875916	
10	25.249451160430908	movie	1		300.0	8.0	2.5	/experiments/knapen_aot/videos/S_yt-yyIimWrvRyI_246.mp4	0.0	104.48553895950317	2.5083649158477783
10	27.757816076278687	fix_post	2		12.0	8.0	2.5	/experiments/knapen_aot/videos/S_yt-yyIimWrvRyI_246.mp4	0.0	106.99390387535095	0.09999203681945801
11	27.857808113098145	fix_pre	0		30.0	9.0	2.5	/experiments/knapen_aot/videos/R_S_yt-jbvXEFk2Gyw_12.mp4	0.0	107.09389591217041	0.2499849796295166
11	28.09960699081421	response	0	2		9.0	2.5	/experiments/knapen_aot/videos/R_S_yt-jbvXEFk2Gyw_12.mp4	0.0	107.33569478988647	
11	28.10779309272766	movie	1		301.0	9.0	2.5	/experiments/knapen_aot/videos/R_S_yt-jbvXEFk2Gyw_12.mp4	0.0	107.34388089179993	2.5083608627319336
11	30.616153955459595	fix_post	2		12.0	9.0	2.5	/experiments/knapen_aot/videos/R_S_yt-jbvXEFk2Gyw_12.mp4	0.0	109.85224175453186	0.09999704360961914
12	30.716150999069214	fix_pre	0		29.0	10.0	2.5	/experiments/knapen_aot/videos/R_S_yt-GLK6LniTOK0_69.mp4	0.0	109.95223879814148	0.24159717559814453
12	30.94962501525879	response	0	2		10.0	2.5	/experiments/knapen_aot/videos/R_S_yt-GLK6LniTOK0_69.mp4	0.0	110.18571281433105	
12	30.95774817466736	movie	1		301.0	10.0	2.5	/experiments/knapen_aot/videos/R_S_yt-GLK6LniTOK0_69.mp4	0.0	110.19383597373962	2.5083529949188232
12	33.46610116958618	fix_post	2		12.0	10.0	2.5	/experiments/knapen_aot/videos/R_S_yt-GLK6LniTOK0_69.mp4	0.0	112.70218896865845	0.09999895095825195
13	33.566100120544434	fix_pre	0		45.0	11.0	2.5	/experiments/knapen_aot/videos/R_S_WO9z7lBUvOs_151.mp4	0.0	112.8021879196167	0.37500596046447754
13	33.932844161987305	response	0	2		11.0	2.5	/experiments/knapen_aot/videos/R_S_WO9z7lBUvOs_151.mp4	0.0	113.16893196105957	
13	33.94110608100891	movie	1		301.0	11.0	2.5	/experiments/knapen_aot/videos/R_S_WO9z7lBUvOs_151.mp4	0.0	113.17719388008118	2.5083110332489014
13	36.44941711425781	fix_post	2		12.0	11.0	2.5	/experiments/knapen_aot/videos/R_S_WO9z7lBUvOs_151.mp4	0.0	115.68550491333008	0.09998202323913574
14	36.54939913749695	fix_pre	0		6.0	12.0	2.5	/experiments/knapen_aot/videos/S_RS_A008_C010_SDR_20191218_SDR_2K_AVC.mp4	0.0	115.78548693656921	0.049971818923950195
14	36.591206073760986	response	0	2		12.0	2.5	/experiments/knapen_aot/videos/S_RS_A008_C010_SDR_20191218_SDR_2K_AVC.mp4	0.0	115.82729387283325	
14	36.5993709564209	movie	1		173.0	12.0	2.5	/experiments/knapen_aot/videos/S_RS_A008_C010_SDR_20191218_SDR_2K_AVC.mp4	0.0	115.83545875549316	2.5084140300750732
14	39.10778498649597	fix_post	2		12.0	12.0	2.5	/experiments/knapen_aot/videos/S_RS_A008_C010_SDR_20191218_SDR_2K_AVC.mp4	0.0	118.34387278556824	0.0999751091003418
15	39.20776009559631	fix_pre	0		8.0	13.0	2.5	/experiments/knapen_aot/videos/R_S_yt-0lfSyC79n14_7.mp4	0.0	118.44384789466858	0.06665396690368652
15	39.26620602607727	response	0	2		13.0	2.5	/experiments/knapen_aot/videos/R_S_yt-0lfSyC79n14_7.mp4	0.0	118.50229382514954	
15	39.2744140625	movie	1		301.0	13.0	2.5	/experiments/knapen_aot/videos/R_S_yt-0lfSyC79n14_7.mp4	0.0	118.51050186157227	2.5083260536193848
15	41.782740116119385	fix_post	2		12.0	13.0	2.5	/experiments/knapen_aot/videos/R_S_yt-0lfSyC79n14_7.mp4	0.0	121.01882791519165	0.1000070571899414
16	41.882747173309326	fix_pre	0		19.0	14.0	2.5	blank	1.0	121.11883497238159	0.15837478637695312
16	42.03290510177612	response	0	2		14.0	2.5	blank	1.0	121.26899290084839	
16	42.04112195968628	movie	1		301.0	14.0	2.5	blank	1.0	121.27720975875854	2.5082151889801025
16	44.54933714866638	fix_post	2		12.0	14.0	2.5	blank	1.0	123.78542494773865	0.09998893737792969
17	44.64932608604431	fix_pre	0		51.0	15.0	2.5	/experiments/knapen_aot/videos/S_yt-3NMDWrZr1Z4_255.mp4	0.0	123.88541388511658	0.42502689361572266
17	45.05866599082947	response	0	2		15.0	2.5	/experiments/knapen_aot/videos/S_yt-3NMDWrZr1Z4_255.mp4	0.0	124.29475378990173	
17	45.074352979660034	movie	1		300.0	15.0	2.5	/experiments/knapen_aot/videos/S_yt-3NMDWrZr1Z4_255.mp4	0.0	124.3104407787323	2.5083210468292236
17	47.58267402648926	fix_post	2		12.0	15.0	2.5	/experiments/knapen_aot/videos/S_yt-3NMDWrZr1Z4_255.mp4	0.0	126.81876182556152	0.0999910831451416
18	47.6826651096344	fix_pre	0		41.0	16.0	2.5	/experiments/knapen_aot/videos/S_yt-ujdFTAUE8rc_34.mp4	0.0	126.91875290870667	0.34165406227111816
18	48.016083002090454	response	0	2		16.0	2.5	/experiments/knapen_aot/videos/S_yt-ujdFTAUE8rc_34.mp4	0.0	127.25217080116272	
18	48.02431917190552	movie	1		301.0	16.0	2.5	/experiments/knapen_aot/videos/S_yt-ujdFTAUE8rc_34.mp4	0.0	127.26040697097778	2.508392810821533
18	50.53271198272705	fix_post	2		12.0	16.0	2.5	/experiments/knapen_aot/videos/S_yt-ujdFTAUE8rc_34.mp4	0.0	129.76879978179932	0.10004115104675293
19	50.632753133773804	fix_pre	0		32.0	17.0	2.5	/experiments/knapen_aot/videos/R_S_pexels-koolshooters-7327401_1.mp4	0.0	129.86884093284607	0.26656603813171387
19	50.8911190032959	response	0	2		17.0	2.5	/experiments/knapen_aot/videos/R_S_pexels-koolshooters-7327401_1.mp4	0.0	130.12720680236816	
19	50.89931917190552	movie	1		168.0	17.0	2.5	/experiments/knapen_aot/videos/R_S_pexels-koolshooters-7327401_1.mp4	0.0	130.13540697097778	2.5083398818969727
19	53.40765905380249	fix_post	2		12.0	17.0	2.5	/experiments/knapen_aot/videos/R_S_pexels-koolshooters-7327401_1.mp4	0.0	132.64374685287476	0.10001611709594727
20	53.50767517089844	fix_pre	0		24.0	18.0	2.5	/experiments/knapen_aot/videos/R_S_RS_A008_C010_SDR_20191218_SDR_2K_AVC.mp4	0.0	132.7437629699707	0.20001482963562012
20	53.69188117980957	response	0	2		18.0	2.5	/experiments/knapen_aot/videos/R_S_RS_A008_C010_SDR_20191218_SDR_2K_AVC.mp4	0.0	132.92796897888184	
20	53.70769000053406	movie	1		181.0	18.0	2.5	/experiments/knapen_aot/videos/R_S_RS_A008_C010_SDR_20191218_SDR_2K_AVC.mp4	0.0	132.94377779960632	2.508315086364746
20	56.216005086898804	fix_post	2		12.0	18.0	2.5	/experiments/knapen_aot/videos/R_S_RS_A008_C010_SDR_20191218_SDR_2K_AVC.mp4	0.0	135.45209288597107	0.1000208854675293
21	56.31602597236633	fix_pre	0		7.0	19.0	2.5	/experiments/knapen_aot/videos/S_yt-YTQXM5ZjRgg_116.mp4	0.0	135.5521137714386	0.058274030685424805
21	56.366127014160156	response	0	2		19.0	2.5	/experiments/knapen_aot/videos/S_yt-YTQXM5ZjRgg_116.mp4	0.0	135.60221481323242	
21	56.37430000305176	movie	1		301.0	19.0	2.5	/experiments/knapen_aot/videos/S_yt-YTQXM5ZjRgg_116.mp4	0.0	135.61038780212402	2.508392095565796
21	58.882692098617554	fix_post	2		12.0	19.0	2.5	/experiments/knapen_aot/videos/S_yt-YTQXM5ZjRgg_116.mp4	0.0	138.11877989768982	0.09990406036376953
22	58.98259615898132	fix_pre	0		27.0	20.0	2.5	blank	1.0	138.2186839580536	0.22503900527954102
22	59.19947409629822	response	0	2		20.0	2.5	blank	1.0	138.43556189537048	
22	59.207635164260864	movie	1		301.0	20.0	2.5	blank	1.0	138.44372296333313	2.508323907852173
22	61.71595907211304	fix_post	2		12.0	20.0	2.5	blank	1.0	140.9520468711853	0.09997010231018066
23	61.81592917442322	fix_pre	0		81.0	21.0	2.5	/experiments/knapen_aot/videos/S_yt-82O1uT8dmv8_12.mp4	0.0	141.05201697349548	0.6761558055877686
23	62.482771158218384	response	0	2		21.0	2.5	/experiments/knapen_aot/videos/S_yt-82O1uT8dmv8_12.mp4	0.0	141.71885895729065	
23	62.492084980010986	movie	1		301.0	21.0	2.5	/experiments/knapen_aot/videos/S_yt-82O1uT8dmv8_12.mp4	0.0	141.72817277908325	2.507223129272461
23	64.49217009544373	response	1	2		21.0	2.5	/experiments/knapen_aot/videos/S_yt-82O1uT8dmv8_12.mp4	0.0	143.728257894516	
23	64.99930810928345	fix_post	2		12.0	21.0	2.5	/experiments/knapen_aot/videos/S_yt-82O1uT8dmv8_12.mp4	0.0	144.2353959083557	0.09993886947631836
24	65.09924697875977	fix_pre	0		42.0	22.0	2.5	/experiments/knapen_aot/videos/R_S_yt-kawmL3oVw8c_2.mp4	0.0	144.33533477783203	0.35108017921447754
24	65.44108510017395	response	0	2		22.0	2.5	/experiments/knapen_aot/videos/R_S_yt-kawmL3oVw8c_2.mp4	0.0	144.67717289924622	
24	65.45032715797424	movie	1		301.0	22.0	2.5	/experiments/knapen_aot/videos/R_S_yt-kawmL3oVw8c_2.mp4	0.0	144.6864149570465	2.5072269439697266
24	67.95755410194397	fix_post	2		12.0	22.0	2.5	/experiments/knapen_aot/videos/R_S_yt-kawmL3oVw8c_2.mp4	0.0	147.19364190101624	0.10002684593200684
25	68.05758094787598	fix_pre	0		9.0	23.0	2.5	/experiments/knapen_aot/videos/S_ILSVRC2015_train_00339001.mp4	0.0	147.29366874694824	0.07507705688476562
25	68.11699509620667	response	0	2		23.0	2.5	/experiments/knapen_aot/videos/S_ILSVRC2015_train_00339001.mp4	0.0	147.35308289527893	
25	68.13265800476074	movie	1		299.0	23.0	2.5	/experiments/knapen_aot/videos/S_ILSVRC2015_train_00339001.mp4	0.0	147.368745803833	2.5083200931549072
25	68.51935601234436	response	1	2		23.0	2.5	/experiments/knapen_aot/videos/S_ILSVRC2015_train_00339001.mp4	0.0	147.75544381141663	
25	70.64097809791565	fix_post	2		12.0	23.0	2.5	/experiments/knapen_aot/videos/S_ILSVRC2015_train_00339001.mp4	0.0	149.87706589698792	0.09999489784240723
26	70.74097299575806	fix_pre	0		25.0	24.0	2.5	/experiments/knapen_aot/videos/S_production_ID_5139371.mp4	0.0	149.97706079483032	0.20937514305114746
26	70.94111108779907	response	0	2		24.0	2.5	/experiments/knapen_aot/videos/S_production_ID_5139371.mp4	0.0	150.17719888687134	
26	70.9503481388092	movie	1		166.0	24.0	2.5	/experiments/knapen_aot/videos/S_production_ID_5139371.mp4	0.0	150.18643593788147	2.507293939590454
26	73.45764207839966	fix_post	2		12.0	24.0	2.5	/experiments/knapen_aot/videos/S_production_ID_5139371.mp4	0.0	152.69372987747192	0.09999608993530273
27	73.55763816833496	fix_pre	0		56.0	25.0	2.5	/experiments/knapen_aot/videos/S_2RTDFkjD6vI_93.mp4	0.0	152.79372596740723	0.466655969619751
27	74.01605010032654	response	0	2		25.0	2.5	/experiments/knapen_aot/videos/S_2RTDFkjD6vI_93.mp4	0.0	153.2521378993988	
27	74.02429413795471	movie	1		301.0	25.0	2.5	/experiments/knapen_aot/videos/S_2RTDFkjD6vI_93.mp4	0.0	153.26038193702698	2.508229970932007
27	76.53252410888672	fix_post	2		12.0	25.0	2.5	/experiments/knapen_aot/videos/S_2RTDFkjD6vI_93.mp4	0.0	155.76861190795898	0.10000801086425781
28	76.63253211975098	fix_pre	0		41.0	26.0	2.5	/experiments/knapen_aot/videos/R_S_yt-VTNBCfQxnsk_59.mp4	0.0	155.86861991882324	0.3416709899902344
28	76.96601414680481	response	0	2		26.0	2.5	/experiments/knapen_aot/videos/R_S_yt-VTNBCfQxnsk_59.mp4	0.0	156.20210194587708	
28	76.97420310974121	movie	1		301.0	26.0	2.5	/experiments/knapen_aot/videos/R_S_yt-VTNBCfQxnsk_59.mp4	0.0	156.21029090881348	2.5083189010620117
28	79.48252201080322	fix_post	2		12.0	26.0	2.5	/experiments/knapen_aot/videos/R_S_yt-VTNBCfQxnsk_59.mp4	0.0	158.7186098098755	0.1000521183013916
29	79.58257412910461	fix_pre	0		44.0	27.0	2.5	/experiments/knapen_aot/videos/S_ILSVRC2015_train_00587000.mp4	0.0	158.81866192817688	0.3676450252532959
29	79.94099712371826	response	0	2		27.0	2.5	/experiments/knapen_aot/videos/S_ILSVRC2015_train_00587000.mp4	0.0	159.17708492279053	
29	79.95021915435791	movie	1		301.0	27.0	2.5	/experiments/knapen_aot/videos/S_ILSVRC2015_train_00587000.mp4	0.0	159.18630695343018	2.5073039531707764
29	82.45752310752869	fix_post	2		12.0	27.0	2.5	/experiments/knapen_aot/videos/S_ILSVRC2015_train_00587000.mp4	0.0	161.69361090660095	0.10001206398010254
30	82.55753517150879	fix_pre	0		33.0	28.0	2.5	blank	1.0	161.79362297058105	0.27501583099365234
30	82.82436299324036	response	0	2		28.0	2.5	blank	1.0	162.06045079231262	
30	82.83255100250244	movie	1		301.0	28.0	2.5	blank	1.0	162.0686388015747	2.508324146270752
30	85.3408751487732	fix_post	2		12.0	28.0	2.5	blank	1.0	164.57696294784546	0.09997987747192383
31	85.44085502624512	fix_pre	0		63.0	29.0	2.5	/experiments/knapen_aot/videos/S_wc-dwTccI0TNwps_15.mp4	0.0	164.67694282531738	0.5249960422515869
31	85.95760107040405	response	0	2		29.0	2.5	/experiments/knapen_aot/videos/S_wc-dwTccI0TNwps_15.mp4	0.0	165.19368886947632	
31	85.9658510684967	movie	1		301.0	29.0	2.5	/experiments/knapen_aot/videos/S_wc-dwTccI0TNwps_15.mp4	0.0	165.20193886756897	2.5083179473876953
31	88.4741690158844	fix_post	2		12.0	29.0	2.5	/experiments/knapen_aot/videos/S_wc-dwTccI0TNwps_15.mp4	0.0	167.71025681495667	0.09999704360961914
32	88.57416605949402	fix_pre	0		26.0	30.0	2.5	/experiments/knapen_aot/videos/S_ILSVRC2015_train_00524006.mp4	0.0	167.81025385856628	0.21672797203063965
32	88.7826189994812	response	0	2		30.0	2.5	/experiments/knapen_aot/videos/S_ILSVRC2015_train_00524006.mp4	0.0	168.01870679855347	
32	88.79089403152466	movie	1		301.0	30.0	2.5	/experiments/knapen_aot/videos/S_ILSVRC2015_train_00524006.mp4	0.0	168.02698183059692	2.5082709789276123
32	91.29916501045227	fix_post	2		12.0	30.0	2.5	/experiments/knapen_aot/videos/S_ILSVRC2015_train_00524006.mp4	0.0	170.53525280952454	0.09992098808288574
33	91.39908599853516	fix_pre	0		14.0	31.0	2.5	/experiments/knapen_aot/videos/S_WO9z7lBUvOs_151.mp4	0.0	170.63517379760742	0.11675500869750977
33	91.50768899917603	response	0	2		31.0	2.5	/experiments/knapen_aot/videos/S_WO9z7lBUvOs_151.mp4	0.0	170.7437767982483	
33	91.51584100723267	movie	1		300.0	31.0	2.5	/experiments/knapen_aot/videos/S_WO9z7lBUvOs_151.mp4	0.0	170.75192880630493	2.508315086364746
33	94.02415609359741	fix_post	2		12.0	31.0	2.5	/experiments/knapen_aot/videos/S_WO9z7lBUvOs_151.mp4	0.0	173.26024389266968	0.10002994537353516
34	94.12418603897095	fix_pre	0		7.0	32.0	2.5	/experiments/knapen_aot/videos/R_S_yt-MsSEF0krKE4_149.mp4	0.0	173.3602738380432	0.05826306343078613
34	94.16690111160278	response	0	2		32.0	2.5	/experiments/knapen_aot/videos/R_S_yt-MsSEF0krKE4_149.mp4	0.0	173.40298891067505	
34	94.18244910240173	movie	1		301.0	32.0	2.5	/experiments/knapen_aot/videos/R_S_yt-MsSEF0krKE4_149.mp4	0.0	173.418536901474	2.5083770751953125
34	96.69082617759705	fix_post	2		12.0	32.0	2.5	/experiments/knapen_aot/videos/R_S_yt-MsSEF0krKE4_149.mp4	0.0	175.9269139766693	0.0999898910522461
35	96.79081606864929	fix_pre	0		8.0	33.0	2.5	blank	1.0	176.02690386772156	0.06671404838562012
35	96.8492841720581	response	0	2		33.0	2.5	blank	1.0	176.08537197113037	
35	96.85753011703491	movie	1		301.0	33.0	2.5	blank	1.0	176.09361791610718	2.508275032043457
35	99.36580514907837	fix_post	2		12.0	33.0	2.5	blank	1.0	178.60189294815063	0.10000991821289062
36	99.46581506729126	fix_pre	0		46.0	34.0	2.5	/experiments/knapen_aot/videos/S_yt-gPhlnZG-pRY_4.mp4	0.0	178.70190286636353	0.383281946182251
36	99.8409640789032	response	0	2		34.0	2.5	/experiments/knapen_aot/videos/S_yt-gPhlnZG-pRY_4.mp4	0.0	179.07705187797546	
36	99.84909701347351	movie	1		299.0	34.0	2.5	/experiments/knapen_aot/videos/S_yt-gPhlnZG-pRY_4.mp4	0.0	179.08518481254578	2.508273124694824
36	102.35737013816833	fix_post	2		12.0	34.0	2.5	/experiments/knapen_aot/videos/S_yt-gPhlnZG-pRY_4.mp4	0.0	181.5934579372406	0.10016202926635742
37	102.45753216743469	fix_pre	0		21.0	35.0	2.5	/experiments/knapen_aot/videos/S_yt--Ra34zJ69AU_68.mp4	0.0	181.69361996650696	0.17486095428466797
37	102.62425303459167	response	0	2		35.0	2.5	/experiments/knapen_aot/videos/S_yt--Ra34zJ69AU_68.mp4	0.0	181.86034083366394	
37	102.63239312171936	movie	1		301.0	35.0	2.5	/experiments/knapen_aot/videos/S_yt--Ra34zJ69AU_68.mp4	0.0	181.86848092079163	2.508380889892578
37	105.14077401161194	fix_post	2		12.0	35.0	2.5	/experiments/knapen_aot/videos/S_yt--Ra34zJ69AU_68.mp4	0.0	184.3768618106842	0.09996509552001953
38	105.24073910713196	fix_pre	0		11.0	36.0	2.5	/experiments/knapen_aot/videos/S_yt-GbL63AmOIss_116.mp4	0.0	184.47682690620422	0.09169507026672363
38	105.32422614097595	response	0	2		36.0	2.5	/experiments/knapen_aot/videos/S_yt-GbL63AmOIss_116.mp4	0.0	184.56031394004822	
38	105.33243417739868	movie	1		301.0	36.0	2.5	/experiments/knapen_aot/videos/S_yt-GbL63AmOIss_116.mp4	0.0	184.56852197647095	2.5083069801330566
38	107.84074115753174	fix_post	2		12.0	36.0	2.5	/experiments/knapen_aot/videos/S_yt-GbL63AmOIss_116.mp4	0.0	187.076828956604	0.09997391700744629
39	107.94071507453918	fix_pre	0		12.0	37.0	2.5	/experiments/knapen_aot/videos/R_S_yt-okYy5Md2U8I_7.mp4	0.0	187.17680287361145	0.10002994537353516
39	108.03247404098511	response	0	2		37.0	2.5	/experiments/knapen_aot/videos/R_S_yt-okYy5Md2U8I_7.mp4	0.0	187.26856184005737	
39	108.04074501991272	movie	1		301.0	37.0	2.5	/experiments/knapen_aot/videos/R_S_yt-okYy5Md2U8I_7.mp4	0.0	187.27683281898499	2.508362054824829
39	110.54910707473755	fix_post	2		12.0	37.0	2.5	/experiments/knapen_aot/videos/R_S_yt-okYy5Md2U8I_7.mp4	0.0	189.78519487380981	0.09999990463256836
40	110.64910697937012	fix_pre	0		15.0	38.0	2.5	/experiments/knapen_aot/videos/R_S_ILSVRC2015_train_00017007.mp4	0.0	189.88519477844238	0.12499809265136719
40	110.76592898368835	response	0	2		38.0	2.5	/experiments/knapen_aot/videos/R_S_ILSVRC2015_train_00017007.mp4	0.0	190.00201678276062	
40	110.77410507202148	movie	1		301.0	38.0	2.5	/experiments/knapen_aot/videos/R_S_ILSVRC2015_train_00017007.mp4	0.0	190.01019287109375	2.5083000659942627
40	113.28240513801575	fix_post	2		12.0	38.0	2.5	/experiments/knapen_aot/videos/R_S_ILSVRC2015_train_00017007.mp4	0.0	192.518492937088	0.09992504119873047
41	113.38233017921448	fix_pre	0		34.0	39.0	2.5	/experiments/knapen_aot/videos/R_S_yt-9CY7rDYBYUI_40.mp4	0.0	192.61841797828674	0.28339576721191406
41	113.65744805335999	response	0	2		39.0	2.5	/experiments/knapen_aot/videos/R_S_yt-9CY7rDYBYUI_40.mp4	0.0	192.89353585243225	
41	113.66572594642639	movie	1		301.0	39.0	2.5	/experiments/knapen_aot/videos/R_S_yt-9CY7rDYBYUI_40.mp4	0.0	192.90181374549866	2.5083532333374023
41	116.1740791797638	fix_post	2		12.0	39.0	2.5	/experiments/knapen_aot/videos/R_S_yt-9CY7rDYBYUI_40.mp4	0.0	195.41016697883606	0.09995698928833008
42	116.27403616905212	fix_pre	0		12.0	40.0	2.5	/experiments/knapen_aot/videos/S_comp_H012_C009_PS_v01_SDR_PS_20180925_SDR_2K_AVC.mp4	0.0	195.5101239681244	0.09998679161071777
42	116.36584806442261	response	0	2		40.0	2.5	/experiments/knapen_aot/videos/S_comp_H012_C009_PS_v01_SDR_PS_20180925_SDR_2K_AVC.mp4	0.0	195.60193586349487	
42	116.37402296066284	movie	1		166.0	40.0	2.5	/experiments/knapen_aot/videos/S_comp_H012_C009_PS_v01_SDR_PS_20180925_SDR_2K_AVC.mp4	0.0	195.6101107597351	2.508352041244507
42	118.88237500190735	fix_post	2		12.0	40.0	2.5	/experiments/knapen_aot/videos/S_comp_H012_C009_PS_v01_SDR_PS_20180925_SDR_2K_AVC.mp4	0.0	198.11846280097961	0.09999799728393555
43	118.98237299919128	fix_pre	0		67.0	41.0	2.5	/experiments/knapen_aot/videos/R_S_yt-uE9XoCLZlFo_1.mp4	0.0	198.21846079826355	0.5596029758453369
43	119.53257012367249	response	0	2		41.0	2.5	/experiments/knapen_aot/videos/R_S_yt-uE9XoCLZlFo_1.mp4	0.0	198.76865792274475	
43	119.54197597503662	movie	1		301.0	41.0	2.5	/experiments/knapen_aot/videos/R_S_yt-uE9XoCLZlFo_1.mp4	0.0	198.7780637741089	2.5070760250091553
43	122.04905200004578	fix_post	2		12.0	41.0	2.5	/experiments/knapen_aot/videos/R_S_yt-uE9XoCLZlFo_1.mp4	0.0	201.28513979911804	0.09998416900634766
44	122.14903616905212	fix_pre	0		8.0	42.0	2.5	blank	1.0	201.3851239681244	0.06670880317687988
44	122.20778608322144	response	0	2		42.0	2.5	blank	1.0	201.4438738822937	
44	122.215744972229	movie	1		301.0	42.0	2.5	blank	1.0	201.45183277130127	2.508261203765869
44	124.72400617599487	fix_post	2		12.0	42.0	2.5	blank	1.0	203.96009397506714	0.09999895095825195
45	124.82400512695312	fix_pre	0		17.0	43.0	2.5	/experiments/knapen_aot/videos/S_yt-8fQ9LaF8U10_382.mp4	0.0	204.0600929260254	0.14166498184204102
45	124.95737910270691	response	0	2		43.0	2.5	/experiments/knapen_aot/videos/S_yt-8fQ9LaF8U10_382.mp4	0.0	204.19346690177917	
45	124.96567010879517	movie	1		301.0	43.0	2.5	/experiments/knapen_aot/videos/S_yt-8fQ9LaF8U10_382.mp4	0.0	204.20175790786743	2.508357048034668
45	127.47402715682983	fix_post	2		12.0	43.0	2.5	/experiments/knapen_aot/videos/S_yt-8fQ9LaF8U10_382.mp4	0.0	206.7101149559021	0.10008597373962402
46	127.57411313056946	fix_pre	0		16.0	44.0	2.5	/experiments/knapen_aot/videos/S_G008_C015_UHD_SDR_2K_AVC.mp4	0.0	206.81020092964172	0.13316893577575684
46	127.69917798042297	response	0	2		44.0	2.5	/experiments/knapen_aot/videos/S_G008_C015_UHD_SDR_2K_AVC.mp4	0.0	206.93526577949524	
46	127.70728206634521	movie	1		173.0	44.0	2.5	/experiments/knapen_aot/videos/S_G008_C015_UHD_SDR_2K_AVC.mp4	0.0	206.94336986541748	2.508481025695801
46	130.21576309204102	fix_post	2		12.0	44.0	2.5	/experiments/knapen_aot/videos/S_G008_C015_UHD_SDR_2K_AVC.mp4	0.0	209.45185089111328	0.09996485710144043
47	130.31572794914246	fix_pre	0		9.0	45.0	2.5	/experiments/knapen_aot/videos/S_ILSVRC2015_train_00715000.mp4	0.0	209.55181574821472	0.07498502731323242
47	130.3825089931488	response	0	2		45.0	2.5	/experiments/knapen_aot/videos/S_ILSVRC2015_train_00715000.mp4	0.0	209.61859679222107	
47	130.3907129764557	movie	1		301.0	45.0	2.5	/experiments/knapen_aot/videos/S_ILSVRC2015_train_00715000.mp4	0.0	209.62680077552795	2.5083329677581787
47	132.60750794410706	response	1	2		45.0	2.5	/experiments/knapen_aot/videos/S_ILSVRC2015_train_00715000.mp4	0.0	211.84359574317932	
47	132.89904594421387	fix_post	2		12.0	45.0	2.5	/experiments/knapen_aot/videos/S_ILSVRC2015_train_00715000.mp4	0.0	212.13513374328613	0.1000051498413086
48	132.99905109405518	fix_pre	0		33.0	46.0	2.5	/experiments/knapen_aot/videos/S_JApTAOdfunE_1251.mp4	0.0	212.23513889312744	0.27498292922973633
48	133.26583409309387	response	0	2		46.0	2.5	/experiments/knapen_aot/videos/S_JApTAOdfunE_1251.mp4	0.0	212.50192189216614	
48	133.2740340232849	movie	1		301.0	46.0	2.5	/experiments/knapen_aot/videos/S_JApTAOdfunE_1251.mp4	0.0	212.51012182235718	2.5083611011505127
48	135.78239512443542	fix_post	2		12.0	46.0	2.5	/experiments/knapen_aot/videos/S_JApTAOdfunE_1251.mp4	0.0	215.0184829235077	0.09997892379760742
49	135.88237404823303	fix_pre	0		39.0	47.0	2.5	/experiments/knapen_aot/videos/S_wc-0SAXOWjdNVGC_8.mp4	0.0	215.1184618473053	0.32488512992858887
49	136.19911098480225	response	0	2		47.0	2.5	/experiments/knapen_aot/videos/S_wc-0SAXOWjdNVGC_8.mp4	0.0	215.4351987838745	
49	136.20725917816162	movie	1		166.0	47.0	2.5	/experiments/knapen_aot/videos/S_wc-0SAXOWjdNVGC_8.mp4	0.0	215.4433469772339	2.5083868503570557
49	138.71564602851868	fix_post	2		12.0	47.0	2.5	/experiments/knapen_aot/videos/S_wc-0SAXOWjdNVGC_8.mp4	0.0	217.95173382759094	0.09996914863586426
50	138.81561517715454	fix_pre	0		11.0	48.0	2.5	/experiments/knapen_aot/videos/S_yt-6vkiJedss6g_5.mp4	0.0	218.0517029762268	0.09240078926086426
50	138.89913296699524	response	0	4		48.0	2.5	/experiments/knapen_aot/videos/S_yt-6vkiJedss6g_5.mp4	0.0	218.1352207660675	
50	138.9080159664154	movie	1		301.0	48.0	2.5	/experiments/knapen_aot/videos/S_yt-6vkiJedss6g_5.mp4	0.0	218.14410376548767	2.507625102996826
50	141.41564106941223	fix_post	2		12.0	48.0	2.5	/experiments/knapen_aot/videos/S_yt-6vkiJedss6g_5.mp4	0.0	220.6517288684845	0.09996604919433594
51	141.51560711860657	fix_pre	0		15.0	49.0	2.5	blank	1.0	220.75169491767883	0.12499094009399414
51	141.6324269771576	response	0	2		49.0	2.5	blank	1.0	220.86851477622986	
51	141.64059805870056	movie	1		301.0	49.0	2.5	blank	1.0	220.87668585777283	2.5083529949188232
51	144.14895105361938	fix_post	2		12.0	49.0	2.5	blank	1.0	223.38503885269165	0.09993910789489746
52	144.24889016151428	fix_pre	0		6.0	50.0	2.5	/experiments/knapen_aot/videos/R_S_yt-ak01CHYgEOs_1383.mp4	0.0	223.48497796058655	0.05009198188781738
52	144.28453516960144	response	0	4		50.0	2.5	/experiments/knapen_aot/videos/R_S_yt-ak01CHYgEOs_1383.mp4	0.0	223.5206229686737	
52	144.2989821434021	movie	1		298.0	50.0	2.5	/experiments/knapen_aot/videos/R_S_yt-ak01CHYgEOs_1383.mp4	0.0	223.53506994247437	2.508335828781128
52	144.40260195732117	response	1	4		50.0	2.5	/experiments/knapen_aot/videos/R_S_yt-ak01CHYgEOs_1383.mp4	0.0	223.63868975639343	
52	146.80731797218323	fix_post	2		12.0	50.0	2.5	/experiments/knapen_aot/videos/R_S_yt-ak01CHYgEOs_1383.mp4	0.0	226.0434057712555	0.09991002082824707
53	146.90722799301147	fix_pre	0		30.0	51.0	2.5	/experiments/knapen_aot/videos/S_yt-Dlk44AGz-xM_37.mp4	0.0	226.14331579208374	0.25068116188049316
53	147.1490659713745	response	0	2		51.0	2.5	/experiments/knapen_aot/videos/S_yt-Dlk44AGz-xM_37.mp4	0.0	226.38515377044678	
53	147.15790915489197	movie	1		301.0	51.0	2.5	/experiments/knapen_aot/videos/S_yt-Dlk44AGz-xM_37.mp4	0.0	226.39399695396423	2.507723808288574
53	149.66563296318054	fix_post	2		12.0	51.0	2.5	/experiments/knapen_aot/videos/S_yt-Dlk44AGz-xM_37.mp4	0.0	228.9017207622528	0.09998798370361328
54	149.76562094688416	fix_pre	0		30.0	52.0	2.5	/experiments/knapen_aot/videos/R_S_yt-Bx2kLEUuN0E_456.mp4	0.0	229.00170874595642	0.24992799758911133
54	150.00743103027344	response	0	2		52.0	2.5	/experiments/knapen_aot/videos/R_S_yt-Bx2kLEUuN0E_456.mp4	0.0	229.2435188293457	
54	150.01554894447327	movie	1		301.0	52.0	2.5	/experiments/knapen_aot/videos/R_S_yt-Bx2kLEUuN0E_456.mp4	0.0	229.25163674354553	2.5083892345428467
54	152.5239381790161	fix_post	2		12.0	52.0	2.5	/experiments/knapen_aot/videos/R_S_yt-Bx2kLEUuN0E_456.mp4	0.0	231.76002597808838	0.10003280639648438
55	152.6239709854126	fix_pre	0		3.0	53.0	2.5	/experiments/knapen_aot/videos/S_yt-4BAsE47kJNk_88.mp4	0.0	231.86005878448486	0.0249631404876709
55	152.64066195487976	response	0	4		53.0	2.5	/experiments/knapen_aot/videos/S_yt-4BAsE47kJNk_88.mp4	0.0	231.87674975395203	
55	152.64893412590027	movie	1		298.0	53.0	2.5	/experiments/knapen_aot/videos/S_yt-4BAsE47kJNk_88.mp4	0.0	231.88502192497253	2.5083389282226562
55	155.15727305412292	fix_post	2		12.0	53.0	2.5	/experiments/knapen_aot/videos/S_yt-4BAsE47kJNk_88.mp4	0.0	234.3933608531952	0.09996199607849121
56	155.25723505020142	fix_pre	0		37.0	54.0	2.5	/experiments/knapen_aot/videos/S_yt-lazG9z4VQAw_99.mp4	0.0	234.49332284927368	0.3083059787750244
56	155.55736112594604	response	0	2		54.0	2.5	/experiments/knapen_aot/videos/S_yt-lazG9z4VQAw_99.mp4	0.0	234.7934489250183	
56	155.56554102897644	movie	1		301.0	54.0	2.5	/experiments/knapen_aot/videos/S_yt-lazG9z4VQAw_99.mp4	0.0	234.8016288280487	2.5085160732269287
56	158.07405710220337	fix_post	2		12.0	54.0	2.5	/experiments/knapen_aot/videos/S_yt-lazG9z4VQAw_99.mp4	0.0	237.31014490127563	0.09984803199768066
57	158.17390513420105	fix_pre	0		70.0	55.0	2.5	/experiments/knapen_aot/videos/R_S_yt-FbCVXEJicis_5.mp4	0.0	237.40999293327332	0.5832889080047607
57	158.74146008491516	response	0	2		55.0	2.5	/experiments/knapen_aot/videos/R_S_yt-FbCVXEJicis_5.mp4	0.0	237.97754788398743	
57	158.7571940422058	movie	1		301.0	55.0	2.5	/experiments/knapen_aot/videos/R_S_yt-FbCVXEJicis_5.mp4	0.0	237.99328184127808	2.508315086364746
57	161.26550912857056	fix_post	2		12.0	55.0	2.5	/experiments/knapen_aot/videos/R_S_yt-FbCVXEJicis_5.mp4	0.0	240.50159692764282	0.10008502006530762
58	161.36559414863586	fix_pre	0		49.0	56.0	2.5	blank	1.0	240.60168194770813	0.4083518981933594
58	161.76564002037048	response	0	2		56.0	2.5	blank	1.0	241.00172781944275	
58	161.77394604682922	movie	1		301.0	56.0	2.5	blank	1.0	241.0100338459015	2.508280038833618
58	164.28222608566284	fix_post	2		12.0	56.0	2.5	blank	1.0	243.5183138847351	0.09995198249816895
59	164.382178068161	fix_pre	0		53.0	57.0	2.5	/experiments/knapen_aot/videos/S_yt-XtzmBXKYEWk_60.mp4	0.0	243.61826586723328	0.44222593307495117
59	164.80813717842102	response	0	2		57.0	2.5	/experiments/knapen_aot/videos/S_yt-XtzmBXKYEWk_60.mp4	0.0	244.0442249774933	
59	164.82440400123596	movie	1		301.0	57.0	2.5	/experiments/knapen_aot/videos/S_yt-XtzmBXKYEWk_60.mp4	0.0	244.06049180030823	2.507704973220825
59	167.3321089744568	fix_post	2		12.0	57.0	2.5	/experiments/knapen_aot/videos/S_yt-XtzmBXKYEWk_60.mp4	0.0	246.56819677352905	0.10014605522155762
60	167.43225502967834	fix_pre	0		30.0	58.0	2.5	/experiments/knapen_aot/videos/R_S_yt-4BAsE47kJNk_88.mp4	0.0	246.6683428287506	0.2498950958251953
60	167.67395114898682	response	0	2		58.0	2.5	/experiments/knapen_aot/videos/R_S_yt-4BAsE47kJNk_88.mp4	0.0	246.91003894805908	
60	167.68215012550354	movie	1		301.0	58.0	2.5	/experiments/knapen_aot/videos/R_S_yt-4BAsE47kJNk_88.mp4	0.0	246.9182379245758	2.5082879066467285
60	170.19043803215027	fix_post	2		12.0	58.0	2.5	/experiments/knapen_aot/videos/R_S_yt-4BAsE47kJNk_88.mp4	0.0	249.42652583122253	0.1000521183013916
61	170.29049015045166	fix_pre	0		1.0	59.0	2.5	/experiments/knapen_aot/videos/S_yt-ak01CHYgEOs_1383.mp4	0.0	249.52657794952393	0.008304834365844727
61	170.29213094711304	response	0	2		59.0	2.5	/experiments/knapen_aot/videos/S_yt-ak01CHYgEOs_1383.mp4	0.0	249.5282187461853	
61	170.2987949848175	movie	1		301.0	59.0	2.5	/experiments/knapen_aot/videos/S_yt-ak01CHYgEOs_1383.mp4	0.0	249.53488278388977	2.5084099769592285
61	172.80720496177673	fix_post	2		12.0	59.0	2.5	/experiments/knapen_aot/videos/S_yt-ak01CHYgEOs_1383.mp4	0.0	252.043292760849	0.09998011589050293
62	172.90718507766724	fix_pre	0		49.0	60.0	2.5	/experiments/knapen_aot/videos/R_S_yt-RlHmMGUjT9E_130.mp4	0.0	252.1432728767395	0.4082798957824707
62	173.3073229789734	response	0	2		60.0	2.5	/experiments/knapen_aot/videos/R_S_yt-RlHmMGUjT9E_130.mp4	0.0	252.54341077804565	
62	173.3154649734497	movie	1		301.0	60.0	2.5	/experiments/knapen_aot/videos/R_S_yt-RlHmMGUjT9E_130.mp4	0.0	252.55155277252197	2.5083889961242676
62	175.82385396957397	fix_post	2		12.0	60.0	2.5	/experiments/knapen_aot/videos/R_S_yt-RlHmMGUjT9E_130.mp4	0.0	255.05994176864624	0.09991812705993652
63	175.9237720966339	fix_pre	0		39.0	61.0	2.5	/experiments/knapen_aot/videos/R_S_ILSVRC2015_train_00303008.mp4	0.0	255.15985989570618	0.3251359462738037
63	176.24059200286865	response	0	2		61.0	2.5	/experiments/knapen_aot/videos/R_S_ILSVRC2015_train_00303008.mp4	0.0	255.47667980194092	
63	176.24890804290771	movie	1		301.0	61.0	2.5	/experiments/knapen_aot/videos/R_S_ILSVRC2015_train_00303008.mp4	0.0	255.48499584197998	2.5082530975341797
63	178.7571611404419	fix_post	2		12.0	61.0	2.5	/experiments/knapen_aot/videos/R_S_ILSVRC2015_train_00303008.mp4	0.0	257.99324893951416	0.09994101524353027
64	178.85710215568542	fix_pre	0		31.0	62.0	2.5	blank	1.0	258.0931899547577	0.2588629722595215
64	179.10729908943176	response	0	2		62.0	2.5	blank	1.0	258.343386888504	
64	179.11596512794495	movie	1		301.0	62.0	2.5	blank	1.0	258.3520529270172	2.507848024368286
64	181.62381315231323	fix_post	2		12.0	62.0	2.5	blank	1.0	260.8599009513855	0.09997987747192383
65	181.72379302978516	fix_pre	0		30.0	63.0	2.5	/experiments/knapen_aot/videos/S_wc-dwTccI0TNwps_15.mp4	0.0	260.9598808288574	0.24998807907104492
65	181.96562910079956	response	0	2		63.0	2.5	/experiments/knapen_aot/videos/S_wc-dwTccI0TNwps_15.mp4	0.0	261.2017168998718	
65	181.9737811088562	movie	1		301.0	63.0	2.5	/experiments/knapen_aot/videos/S_wc-dwTccI0TNwps_15.mp4	0.0	261.20986890792847	2.5083789825439453
65	184.48216009140015	fix_post	2		12.0	63.0	2.5	/experiments/knapen_aot/videos/S_wc-dwTccI0TNwps_15.mp4	0.0	263.7182478904724	0.10000395774841309
66	184.58216404914856	fix_pre	0		25.0	64.0	2.5	/experiments/knapen_aot/videos/S_yt-0Zze3Ff12Ys_58.mp4	0.0	263.8182518482208	0.20828890800476074
66	184.7822721004486	response	0	2		64.0	2.5	/experiments/knapen_aot/videos/S_yt-0Zze3Ff12Ys_58.mp4	0.0	264.0183598995209	
66	184.79045295715332	movie	1		301.0	64.0	2.5	/experiments/knapen_aot/videos/S_yt-0Zze3Ff12Ys_58.mp4	0.0	264.0265407562256	2.5082950592041016
66	187.29874801635742	fix_post	2		12.0	64.0	2.5	/experiments/knapen_aot/videos/S_yt-0Zze3Ff12Ys_58.mp4	0.0	266.5348358154297	0.10008502006530762
67	187.39883303642273	fix_pre	0		5.0	65.0	2.5	/experiments/knapen_aot/videos/R_S_FK_U009_C004_SDR_20191220_SDR_2K_AVC.mp4	0.0	266.634920835495	0.04352593421936035
67	187.43227314949036	response	0	2		65.0	2.5	/experiments/knapen_aot/videos/R_S_FK_U009_C004_SDR_20191220_SDR_2K_AVC.mp4	0.0	266.6683609485626	
67	187.4423589706421	movie	1		168.0	65.0	2.5	/experiments/knapen_aot/videos/R_S_FK_U009_C004_SDR_20191220_SDR_2K_AVC.mp4	0.0	266.67844676971436	2.5063719749450684
67	189.94873094558716	fix_post	2		12.0	65.0	2.5	/experiments/knapen_aot/videos/R_S_FK_U009_C004_SDR_20191220_SDR_2K_AVC.mp4	0.0	269.1848187446594	0.10001921653747559
68	190.04875016212463	fix_pre	0		9.0	66.0	2.5	/experiments/knapen_aot/videos/R_S_yt-z68VLDDCFdw_93.mp4	0.0	269.2848379611969	0.07500886917114258
68	190.11559295654297	response	0	2		66.0	2.5	/experiments/knapen_aot/videos/R_S_yt-z68VLDDCFdw_93.mp4	0.0	269.35168075561523	
68	190.12375903129578	movie	1		301.0	66.0	2.5	/experiments/knapen_aot/videos/R_S_yt-z68VLDDCFdw_93.mp4	0.0	269.35984683036804	2.508312940597534
68	192.6320719718933	fix_post	2		12.0	66.0	2.5	/experiments/knapen_aot/videos/R_S_yt-z68VLDDCFdw_93.mp4	0.0	271.8681597709656	0.10002613067626953
69	192.73209810256958	fix_pre	0		25.0	67.0	2.5	/experiments/knapen_aot/videos/S_8amznWxLS04_212.mp4	0.0	271.96818590164185	0.2082529067993164
69	192.9322099685669	response	0	2		67.0	2.5	/experiments/knapen_aot/videos/S_8amznWxLS04_212.mp4	0.0	272.16829776763916	
69	192.9403510093689	movie	1		301.0	67.0	2.5	/experiments/knapen_aot/videos/S_8amznWxLS04_212.mp4	0.0	272.17643880844116	2.5083091259002686
69	195.44866013526917	fix_post	2		12.0	67.0	2.5	/experiments/knapen_aot/videos/S_8amznWxLS04_212.mp4	0.0	274.68474793434143	0.10009193420410156
70	195.54875206947327	fix_pre	0		14.0	68.0	2.5	/experiments/knapen_aot/videos/R_S_yt-6MwA-jx56AQ_612.mp4	0.0	274.78483986854553	0.11666703224182129
70	195.657310962677	response	0	2		68.0	2.5	/experiments/knapen_aot/videos/R_S_yt-6MwA-jx56AQ_612.mp4	0.0	274.89339876174927	
70	195.6654191017151	movie	1		301.0	68.0	2.5	/experiments/knapen_aot/videos/R_S_yt-6MwA-jx56AQ_612.mp4	0.0	274.90150690078735	2.5083980560302734
70	198.17381715774536	fix_post	2		12.0	68.0	2.5	/experiments/knapen_aot/videos/R_S_yt-6MwA-jx56AQ_612.mp4	0.0	277.4099049568176	0.09997987747192383
71	198.27379703521729	fix_pre	0		9.0	69.0	2.5	/experiments/knapen_aot/videos/R_S_-IkGMlLHrOI_108.mp4	0.0	277.50988483428955	0.0751950740814209
71	198.34113311767578	response	0	2		69.0	2.5	/experiments/knapen_aot/videos/R_S_-IkGMlLHrOI_108.mp4	0.0	277.57722091674805	
71	198.3489921092987	movie	1		301.0	69.0	2.5	/experiments/knapen_aot/videos/R_S_-IkGMlLHrOI_108.mp4	0.0	277.585079908371	2.5080480575561523
71	200.85704016685486	fix_post	2		12.0	69.0	2.5	/experiments/knapen_aot/videos/R_S_-IkGMlLHrOI_108.mp4	0.0	280.0931279659271	0.09997892379760742
72	200.95701909065247	fix_pre	0		4.0	70.0	2.5	blank	1.0	280.19310688972473	0.03394293785095215
72	200.98212313652039	response	0	2		70.0	2.5	blank	1.0	280.21821093559265	
72	200.99096202850342	movie	1		301.0	70.0	2.5	blank	1.0	280.2270498275757	2.5077381134033203
72	203.49870014190674	fix_post	2		12.0	70.0	2.5	blank	1.0	282.734787940979	0.0999598503112793
73	203.59865999221802	fix_pre	0		43.0	71.0	2.5	/experiments/knapen_aot/videos/R_S_ILSVRC2015_train_00425000.mp4	0.0	282.8347477912903	0.35840797424316406
73	203.94880294799805	response	0	4		71.0	2.5	/experiments/knapen_aot/videos/R_S_ILSVRC2015_train_00425000.mp4	0.0	283.1848907470703	
73	203.95706796646118	movie	1		300.0	71.0	2.5	/experiments/knapen_aot/videos/R_S_ILSVRC2015_train_00425000.mp4	0.0	283.19315576553345	2.5083680152893066
73	206.4654359817505	fix_post	2		12.0	71.0	2.5	/experiments/knapen_aot/videos/R_S_ILSVRC2015_train_00425000.mp4	0.0	285.70152378082275	0.09998202323913574
74	206.56541800498962	fix_pre	0		35.0	72.0	2.5	/experiments/knapen_aot/videos/R_S_yt-0Zze3Ff12Ys_58.mp4	0.0	285.8015058040619	0.2916829586029053
74	206.84886002540588	response	0	2		72.0	2.5	/experiments/knapen_aot/videos/R_S_yt-0Zze3Ff12Ys_58.mp4	0.0	286.08494782447815	
74	206.85710096359253	movie	1		301.0	72.0	2.5	/experiments/knapen_aot/videos/R_S_yt-0Zze3Ff12Ys_58.mp4	0.0	286.0931887626648	2.5086669921875
74	209.36576795578003	fix_post	2		12.0	72.0	2.5	/experiments/knapen_aot/videos/R_S_yt-0Zze3Ff12Ys_58.mp4	0.0	288.6018557548523	0.09962821006774902
75	209.46539616584778	fix_pre	0		10.0	73.0	2.5	/experiments/knapen_aot/videos/R_S_yt-XF0fyyFEgWo_280.mp4	0.0	288.70148396492004	0.08331489562988281
75	209.54051303863525	response	0	4		73.0	2.5	/experiments/knapen_aot/videos/R_S_yt-XF0fyyFEgWo_280.mp4	0.0	288.7766008377075	
75	209.54871106147766	movie	1		301.0	73.0	2.5	/experiments/knapen_aot/videos/R_S_yt-XF0fyyFEgWo_280.mp4	0.0	288.7847988605499	2.5083649158477783
75	212.05707597732544	fix_post	2		12.0	73.0	2.5	/experiments/knapen_aot/videos/R_S_yt-XF0fyyFEgWo_280.mp4	0.0	291.2931637763977	0.10026717185974121
76	212.15734314918518	fix_pre	0		19.0	74.0	2.5	/experiments/knapen_aot/videos/S_yt-EBuE7GbFw7U_180.mp4	0.0	291.39343094825745	0.15807795524597168
76	212.30720901489258	response	0	2		74.0	2.5	/experiments/knapen_aot/videos/S_yt-EBuE7GbFw7U_180.mp4	0.0	291.54329681396484	
76	212.31542110443115	movie	1		297.0	74.0	2.5	/experiments/knapen_aot/videos/S_yt-EBuE7GbFw7U_180.mp4	0.0	291.5515089035034	2.5082058906555176
76	214.82362699508667	fix_post	2		12.0	74.0	2.5	/experiments/knapen_aot/videos/S_yt-EBuE7GbFw7U_180.mp4	0.0	294.05971479415894	0.09993600845336914
77	214.92356300354004	fix_pre	0		27.0	75.0	2.5	/experiments/knapen_aot/videos/S_comp_A001_C004_1207W5_v23_SDR_FINAL_20180706_SDR_2K_AVC.mp4	0.0	294.1596508026123	0.22505998611450195
77	215.14048314094543	response	0	4		75.0	2.5	/experiments/knapen_aot/videos/S_comp_A001_C004_1207W5_v23_SDR_FINAL_20180706_SDR_2K_AVC.mp4	0.0	294.3765709400177	
77	215.14862298965454	movie	1		167.0	75.0	2.5	/experiments/knapen_aot/videos/S_comp_A001_C004_1207W5_v23_SDR_FINAL_20180706_SDR_2K_AVC.mp4	0.0	294.3847107887268	2.5082900524139404
77	217.65691304206848	fix_post	2		12.0	75.0	2.5	/experiments/knapen_aot/videos/S_comp_A001_C004_1207W5_v23_SDR_FINAL_20180706_SDR_2K_AVC.mp4	0.0	296.89300084114075	0.1000981330871582
78	217.75701117515564	fix_pre	0		25.0	76.0	2.5	blank	1.0	296.9930989742279	0.2083148956298828
78	217.94952607154846	response	0	2		76.0	2.5	blank	1.0	297.1856138706207	
78	217.96532607078552	movie	1		301.0	76.0	2.5	blank	1.0	297.2014138698578	2.508286952972412
78	220.47361302375793	fix_post	2		12.0	76.0	2.5	blank	1.0	299.7097008228302	0.09999895095825195
79	220.5736119747162	fix_pre	0		19.0	77.0	2.5	/experiments/knapen_aot/videos/S_Y011_C008_SDR_2K_AVC.mp4	0.0	299.80969977378845	0.15827703475952148
79	220.72381901741028	response	0	4		77.0	2.5	/experiments/knapen_aot/videos/S_Y011_C008_SDR_2K_AVC.mp4	0.0	299.95990681648254	
79	220.7318890094757	movie	1		171.0	77.0	2.5	/experiments/knapen_aot/videos/S_Y011_C008_SDR_2K_AVC.mp4	0.0	299.967976808548	2.5083839893341064
79	223.24027299880981	fix_post	2		12.0	77.0	2.5	/experiments/knapen_aot/videos/S_Y011_C008_SDR_2K_AVC.mp4	0.0	302.4763607978821	0.10003113746643066
80	223.34030413627625	fix_pre	0		5.0	78.0	2.5	/experiments/knapen_aot/videos/S_yt-SkIJvj6KNOo_33.mp4	0.0	302.5763919353485	0.04166102409362793
80	223.37375712394714	response	0	2		78.0	2.5	/experiments/knapen_aot/videos/S_yt-SkIJvj6KNOo_33.mp4	0.0	302.6098449230194	
80	223.38196516036987	movie	1		301.0	78.0	2.5	/experiments/knapen_aot/videos/S_yt-SkIJvj6KNOo_33.mp4	0.0	302.61805295944214	2.508333921432495
80	225.89029908180237	fix_post	2		12.0	78.0	2.5	/experiments/knapen_aot/videos/S_yt-SkIJvj6KNOo_33.mp4	0.0	305.12638688087463	0.10022997856140137
81	225.99052906036377	fix_pre	0		31.0	79.0	2.5	/experiments/knapen_aot/videos/R_S_yt-QQPv17nfR_E_2.mp4	0.0	305.22661685943604	0.25799989700317383
81	226.2404341697693	response	0	4		79.0	2.5	/experiments/knapen_aot/videos/R_S_yt-QQPv17nfR_E_2.mp4	0.0	305.47652196884155	
81	226.24852895736694	movie	1		301.0	79.0	2.5	/experiments/knapen_aot/videos/R_S_yt-QQPv17nfR_E_2.mp4	0.0	305.4846167564392	2.5084002017974854
81	228.75692915916443	fix_post	2		12.0	79.0	2.5	/experiments/knapen_aot/videos/R_S_yt-QQPv17nfR_E_2.mp4	0.0	307.9930169582367	0.10006380081176758
82	228.8569929599762	fix_pre	0		2.0	80.0	2.5	/experiments/knapen_aot/videos/S_yt-9EnchawJ3pA_90.mp4	0.0	308.09308075904846	0.016644001007080078
82	228.8657009601593	response	0	2		80.0	2.5	/experiments/knapen_aot/videos/S_yt-9EnchawJ3pA_90.mp4	0.0	308.10178875923157	
82	228.87363696098328	movie	1		301.0	80.0	2.5	/experiments/knapen_aot/videos/S_yt-9EnchawJ3pA_90.mp4	0.0	308.10972476005554	2.5082881450653076
82	231.38192510604858	fix_post	2		12.0	80.0	2.5	/experiments/knapen_aot/videos/S_yt-9EnchawJ3pA_90.mp4	0.0	310.61801290512085	0.10003089904785156
83	231.48195600509644	fix_pre	0		15.0	81.0	2.5	/experiments/knapen_aot/videos/S_yt--5ls65Ue1RA_52.mp4	0.0	310.7180438041687	0.1250009536743164
83	231.59868717193604	response	0	4		81.0	2.5	/experiments/knapen_aot/videos/S_yt--5ls65Ue1RA_52.mp4	0.0	310.8347749710083	
83	231.60695695877075	movie	1		301.0	81.0	2.5	/experiments/knapen_aot/videos/S_yt--5ls65Ue1RA_52.mp4	0.0	310.843044757843	2.5083200931549072
83	234.11527705192566	fix_post	2		12.0	81.0	2.5	/experiments/knapen_aot/videos/S_yt--5ls65Ue1RA_52.mp4	0.0	313.3513648509979	0.09999990463256836
84	234.21527695655823	fix_pre	0		4.0	82.0	2.5	/experiments/knapen_aot/videos/R_S_yt-iO0efV_PV-k_102.mp4	0.0	313.4513647556305	0.03329610824584961
84	234.24039506912231	response	0	2		82.0	2.5	/experiments/knapen_aot/videos/R_S_yt-iO0efV_PV-k_102.mp4	0.0	313.4764828681946	
84	234.24857306480408	movie	1		301.0	82.0	2.5	/experiments/knapen_aot/videos/R_S_yt-iO0efV_PV-k_102.mp4	0.0	313.48466086387634	2.5083720684051514
84	236.75694513320923	fix_post	2		12.0	82.0	2.5	/experiments/knapen_aot/videos/R_S_yt-iO0efV_PV-k_102.mp4	0.0	315.9930329322815	0.09992694854736328
85	236.8568720817566	fix_pre	0		20.0	83.0	2.5	blank	1.0	316.09295988082886	0.16666603088378906
85	237.00788807868958	response	0	2		83.0	2.5	blank	1.0	316.24397587776184	
85	237.02353811264038	movie	1		301.0	83.0	2.5	blank	1.0	316.25962591171265	2.50832200050354
85	239.53186011314392	fix_post	2		12.0	83.0	2.5	blank	1.0	318.7679479122162	0.10004997253417969
87	239.6319100856781	stim	0		60.0					318.86799788475037	0.5043649673461914
87	239.79031705856323	response	0	4						319.0264048576355	
87	240.12824511528015	response	0	space						319.3643329143524	
