trial_nr	onset	event_type	phase	response	nr_frames	movie_index	movie_duration	movie_file	blank	onset_abs	duration
0	0.15253496170043945	stim	0		31.0					96.64709281921387	0.2568399906158447
0	0.3995931148529053	response	0	space						96.89415097236633	
1	0.4093749523162842	stim	0		121.0					96.90393280982971	1.006472110748291
1	1.290959119796753	response	0	space						97.78551697731018	
1	1.4158470630645752	stim	1		120.0					97.910404920578	1.0002880096435547
1	1.5667040348052979	response	1	space						98.06126189231873	
1	1.975064992904663	response	1	space						98.46962285041809	
1	2.240900993347168	response	1	space						98.7354588508606	
2	2.41613507270813	fix_pre	0		13.0	0.0	2.5	/experiments/knapen_aot/oldvideos/S_wc-WgOBK5IL7vex_4.mp4	0.0	98.91069293022156	0.10800790786743164
2	2.515886068344116	response	0	space		0.0	2.5	/experiments/knapen_aot/oldvideos/S_wc-WgOBK5IL7vex_4.mp4	0.0	99.01044392585754	
2	2.5241429805755615	movie	1		164.0	0.0	2.5	/experiments/knapen_aot/oldvideos/S_wc-WgOBK5IL7vex_4.mp4	0.0	99.01870083808899	2.508479118347168
2	5.0326220989227295	fix_post	2		12.0	0.0	2.5	/experiments/knapen_aot/oldvideos/S_wc-WgOBK5IL7vex_4.mp4	0.0	101.52717995643616	0.0997929573059082
3	5.132415056228638	fix_pre	0		275.0	1.0	2.5	/experiments/knapen_aot/oldvideos/S_comp_GMT329_113NC_396B_1105_ITALY_v03_SDR_FINAL_20180706_SDR_2K_AVC.mp4	0.0	101.62697291374207	2.291604995727539
3	7.419916152954102	response	0	4		1.0	2.5	/experiments/knapen_aot/oldvideos/S_comp_GMT329_113NC_396B_1105_ITALY_v03_SDR_FINAL_20180706_SDR_2K_AVC.mp4	0.0	103.91447401046753	
3	7.424020051956177	movie	1		165.0	1.0	2.5	/experiments/knapen_aot/oldvideos/S_comp_GMT329_113NC_396B_1105_ITALY_v03_SDR_FINAL_20180706_SDR_2K_AVC.mp4	0.0	103.9185779094696	2.508497953414917
3	9.932518005371094	fix_post	2		12.0	1.0	2.5	/experiments/knapen_aot/oldvideos/S_comp_GMT329_113NC_396B_1105_ITALY_v03_SDR_FINAL_20180706_SDR_2K_AVC.mp4	0.0	106.42707586288452	0.09989500045776367
4	10.032413005828857	fix_pre	0		332.0	2.0	2.5	/experiments/knapen_aot/oldvideos/R_S_yt-P8vJa4YVcGU_488.mp4	0.0	106.52697086334229	2.766566038131714
4	12.790868043899536	response	0	4		2.0	2.5	/experiments/knapen_aot/oldvideos/R_S_yt-P8vJa4YVcGU_488.mp4	0.0	109.28542590141296	
4	12.798979043960571	movie	1		301.0	2.0	2.5	/experiments/knapen_aot/oldvideos/R_S_yt-P8vJa4YVcGU_488.mp4	0.0	109.293536901474	2.5084121227264404
4	15.307391166687012	fix_post	2		12.0	2.0	2.5	/experiments/knapen_aot/oldvideos/R_S_yt-P8vJa4YVcGU_488.mp4	0.0	111.80194902420044	0.10000896453857422
5	15.407400131225586	fix_pre	0		154.0	3.0	2.5	/experiments/knapen_aot/oldvideos/S_yt-gMqeZkpA_1Q_61.mp4	0.0	111.90195798873901	1.2834129333496094
5	16.675042152404785	response	0	4		3.0	2.5	/experiments/knapen_aot/oldvideos/S_yt-gMqeZkpA_1Q_61.mp4	0.0	113.16960000991821	
5	16.690813064575195	movie	1		301.0	3.0	2.5	/experiments/knapen_aot/oldvideos/S_yt-gMqeZkpA_1Q_61.mp4	0.0	113.18537092208862	2.508234977722168
5	19.199048042297363	fix_post	2		12.0	3.0	2.5	/experiments/knapen_aot/oldvideos/S_yt-gMqeZkpA_1Q_61.mp4	0.0	115.69360589981079	0.09993100166320801
6	19.29897904396057	fix_pre	0		79.0	4.0	2.5	/experiments/knapen_aot/oldvideos/S_comp_N013_C004_PS_v01_SDR_PS_20180925_F1970F7193_SDR_2K_AVC.mp4	0.0	115.793536901474	0.6585080623626709
6	19.949114084243774	response	0	4		4.0	2.5	/experiments/knapen_aot/oldvideos/S_comp_N013_C004_PS_v01_SDR_PS_20180925_F1970F7193_SDR_2K_AVC.mp4	0.0	116.4436719417572	
6	19.957487106323242	movie	1		164.0	4.0	2.5	/experiments/knapen_aot/oldvideos/S_comp_N013_C004_PS_v01_SDR_PS_20180925_F1970F7193_SDR_2K_AVC.mp4	0.0	116.45204496383667	2.5084359645843506
6	22.465923070907593	fix_post	2		12.0	4.0	2.5	/experiments/knapen_aot/oldvideos/S_comp_N013_C004_PS_v01_SDR_PS_20180925_F1970F7193_SDR_2K_AVC.mp4	0.0	118.96048092842102	0.09976410865783691
7	22.56568717956543	fix_pre	0		70.0	5.0	2.5	/experiments/knapen_aot/oldvideos/R_S_yt-VxTTEZNJWjs_110.mp4	0.0	119.06024503707886	0.583298921585083
7	23.14211916923523	response	0	4		5.0	2.5	/experiments/knapen_aot/oldvideos/R_S_yt-VxTTEZNJWjs_110.mp4	0.0	119.63667702674866	
7	23.148986101150513	movie	1		301.0	5.0	2.5	/experiments/knapen_aot/oldvideos/R_S_yt-VxTTEZNJWjs_110.mp4	0.0	119.64354395866394	2.508455991744995
7	25.657442092895508	fix_post	2		12.0	5.0	2.5	/experiments/knapen_aot/oldvideos/R_S_yt-VxTTEZNJWjs_110.mp4	0.0	122.15199995040894	0.09997391700744629
8	25.757416009902954	fix_pre	0		41.0	6.0	2.5	/experiments/knapen_aot/oldvideos/R_S_yt-316ecr1BT84_44.mp4	0.0	122.25197386741638	0.3415951728820801
8	26.090862035751343	response	0	4		6.0	2.5	/experiments/knapen_aot/oldvideos/R_S_yt-316ecr1BT84_44.mp4	0.0	122.58541989326477	
8	26.099011182785034	movie	1		301.0	6.0	2.5	/experiments/knapen_aot/oldvideos/R_S_yt-316ecr1BT84_44.mp4	0.0	122.59356904029846	2.508626937866211
8	28.607638120651245	fix_post	2		12.0	6.0	2.5	/experiments/knapen_aot/oldvideos/R_S_yt-316ecr1BT84_44.mp4	0.0	125.10219597816467	0.09986996650695801
9	28.707508087158203	fix_pre	0		116.0	7.0	2.5	blank	1.0	125.20206594467163	0.9664139747619629
9	29.658202171325684	response	0	4		7.0	2.5	blank	1.0	126.15276002883911	
9	29.673922061920166	movie	1		301.0	7.0	2.5	blank	1.0	126.1684799194336	2.5083839893341064
9	32.18230605125427	fix_post	2		12.0	7.0	2.5	blank	1.0	128.6768639087677	0.10005998611450195
10	32.282366037368774	fix_pre	0		64.0	8.0	2.5	/experiments/knapen_aot/oldvideos/S_yt-NuZy8Rjk4d0_156.mp4	0.0	128.7769238948822	0.5332679748535156
10	32.80744910240173	response	0	4		8.0	2.5	/experiments/knapen_aot/oldvideos/S_yt-NuZy8Rjk4d0_156.mp4	0.0	129.30200695991516	
10	32.81563401222229	movie	1		301.0	8.0	2.5	/experiments/knapen_aot/oldvideos/S_yt-NuZy8Rjk4d0_156.mp4	0.0	129.31019186973572	2.508355140686035
10	35.323989152908325	fix_post	2		12.0	8.0	2.5	/experiments/knapen_aot/oldvideos/S_yt-NuZy8Rjk4d0_156.mp4	0.0	131.81854701042175	0.09997081756591797
11	35.42395997047424	fix_pre	0		416.0	9.0	2.5	/experiments/knapen_aot/oldvideos/S_yt-tX3slAQb9yY_13.mp4	0.0	131.91851782798767	3.466609001159668
11	38.88240599632263	response	0	4		9.0	2.5	/experiments/knapen_aot/oldvideos/S_yt-tX3slAQb9yY_13.mp4	0.0	135.37696385383606	
11	38.89056897163391	movie	1		301.0	9.0	2.5	/experiments/knapen_aot/oldvideos/S_yt-tX3slAQb9yY_13.mp4	0.0	135.38512682914734	2.508364200592041
11	41.39893317222595	fix_post	2		12.0	9.0	2.5	/experiments/knapen_aot/oldvideos/S_yt-tX3slAQb9yY_13.mp4	0.0	137.89349102973938	0.10009193420410156
12	41.499025106430054	fix_pre	0		55.0	10.0	2.5	/experiments/knapen_aot/oldvideos/S_yt-H5LQq4MPIao_660.mp4	0.0	137.99358296394348	0.4582788944244385
12	41.94897413253784	response	0	4		10.0	2.5	/experiments/knapen_aot/oldvideos/S_yt-H5LQq4MPIao_660.mp4	0.0	138.44353199005127	
12	41.95730400085449	movie	1		301.0	10.0	2.5	/experiments/knapen_aot/oldvideos/S_yt-H5LQq4MPIao_660.mp4	0.0	138.45186185836792	2.5083091259002686
12	44.46561312675476	fix_post	2		12.0	10.0	2.5	/experiments/knapen_aot/oldvideos/S_yt-H5LQq4MPIao_660.mp4	0.0	140.9601709842682	0.09998202323913574
13	44.5655951499939	fix_pre	0		28.0	11.0	2.5	/experiments/knapen_aot/oldvideos/S_yt-Jro_TRE8NUQ_234.mp4	0.0	141.06015300750732	0.23329997062683105
13	44.79070997238159	response	0	4		11.0	2.5	/experiments/knapen_aot/oldvideos/S_yt-Jro_TRE8NUQ_234.mp4	0.0	141.28526782989502	
13	44.79889512062073	movie	1		301.0	11.0	2.5	/experiments/knapen_aot/oldvideos/S_yt-Jro_TRE8NUQ_234.mp4	0.0	141.29345297813416	2.508676052093506
13	47.30757117271423	fix_post	2		12.0	11.0	2.5	/experiments/knapen_aot/oldvideos/S_yt-Jro_TRE8NUQ_234.mp4	0.0	143.80212903022766	0.09971189498901367
14	47.40728306770325	fix_pre	0		27.0	12.0	2.5	blank	1.0	143.90184092521667	0.22498703002929688
14	47.62404417991638	response	0	4		12.0	2.5	blank	1.0	144.1186020374298	
14	47.632270097732544	movie	1		301.0	12.0	2.5	blank	1.0	144.12682795524597	2.5083060264587402
14	50.140576124191284	fix_post	2		12.0	12.0	2.5	blank	1.0	146.6351339817047	0.09997987747192383
15	50.24055600166321	fix_pre	0		27.0	13.0	2.5	/experiments/knapen_aot/oldvideos/R_S_yt-AuQ_WxaNy4Y_255.mp4	0.0	146.73511385917664	0.22500205039978027
15	50.45730900764465	response	0	4		13.0	2.5	/experiments/knapen_aot/oldvideos/R_S_yt-AuQ_WxaNy4Y_255.mp4	0.0	146.95186686515808	
15	50.46555805206299	movie	1		301.0	13.0	2.5	/experiments/knapen_aot/oldvideos/R_S_yt-AuQ_WxaNy4Y_255.mp4	0.0	146.96011590957642	2.5083529949188232
15	52.97391104698181	fix_post	2		12.0	13.0	2.5	/experiments/knapen_aot/oldvideos/R_S_yt-AuQ_WxaNy4Y_255.mp4	0.0	149.46846890449524	0.10001707077026367
16	53.073928117752075	fix_pre	0		35.0	14.0	2.5	/experiments/knapen_aot/oldvideos/R_S_yt-cjndulbUtRc_51.mp4	0.0	149.5684859752655	0.2915940284729004
16	53.35730814933777	response	0	4		14.0	2.5	/experiments/knapen_aot/oldvideos/R_S_yt-cjndulbUtRc_51.mp4	0.0	149.8518660068512	
16	53.365522146224976	movie	1		301.0	14.0	2.5	/experiments/knapen_aot/oldvideos/R_S_yt-cjndulbUtRc_51.mp4	0.0	149.8600800037384	2.508349895477295
16	55.87387204170227	fix_post	2		12.0	14.0	2.5	/experiments/knapen_aot/oldvideos/R_S_yt-cjndulbUtRc_51.mp4	0.0	152.3684298992157	0.10024213790893555
17	55.974114179611206	fix_pre	0		32.0	15.0	2.5	/experiments/knapen_aot/oldvideos/R_S_yt-MsSEF0krKE4_149.mp4	0.0	152.46867203712463	0.2678368091583252
17	56.23230314254761	response	0	4		15.0	2.5	/experiments/knapen_aot/oldvideos/R_S_yt-MsSEF0krKE4_149.mp4	0.0	152.72686100006104	
17	56.24195098876953	movie	1		301.0	15.0	2.5	/experiments/knapen_aot/oldvideos/R_S_yt-MsSEF0krKE4_149.mp4	0.0	152.73650884628296	2.5069291591644287
17	58.74888014793396	fix_post	2		12.0	15.0	2.5	/experiments/knapen_aot/oldvideos/R_S_yt-MsSEF0krKE4_149.mp4	0.0	155.2434380054474	0.10002303123474121
18	58.8489031791687	fix_pre	0		33.0	16.0	2.5	/experiments/knapen_aot/oldvideos/S_I003_C008_SDR_2K_AVC.mp4	0.0	155.34346103668213	0.2749598026275635
18	59.11563515663147	response	0	4		16.0	2.5	/experiments/knapen_aot/oldvideos/S_I003_C008_SDR_2K_AVC.mp4	0.0	155.6101930141449	
18	59.123862981796265	movie	1		170.0	16.0	2.5	/experiments/knapen_aot/oldvideos/S_I003_C008_SDR_2K_AVC.mp4	0.0	155.6184208393097	2.508319139480591
18	61.632182121276855	fix_post	2		12.0	16.0	2.5	/experiments/knapen_aot/oldvideos/S_I003_C008_SDR_2K_AVC.mp4	0.0	158.12673997879028	0.10006093978881836
18	61.72393298149109	response	2	4		16.0	2.5	/experiments/knapen_aot/oldvideos/S_I003_C008_SDR_2K_AVC.mp4	0.0	158.21849083900452	
19	61.732243061065674	fix_pre	0		86.0	17.0	2.5	/experiments/knapen_aot/oldvideos/S_yt-VxTTEZNJWjs_110.mp4	0.0	158.2268009185791	0.7180540561676025
19	62.440683126449585	response	0	4		17.0	2.5	/experiments/knapen_aot/oldvideos/S_yt-VxTTEZNJWjs_110.mp4	0.0	158.935240983963	
19	62.450297117233276	movie	1		301.0	17.0	2.5	/experiments/knapen_aot/oldvideos/S_yt-VxTTEZNJWjs_110.mp4	0.0	158.9448549747467	2.507081985473633
19	64.95737910270691	fix_post	2		12.0	17.0	2.5	/experiments/knapen_aot/oldvideos/S_yt-VxTTEZNJWjs_110.mp4	0.0	161.45193696022034	0.09978485107421875
20	65.05716395378113	fix_pre	0		18.0	18.0	2.5	/experiments/knapen_aot/oldvideos/R_S_yt-hvuC_2YXsTQ_159.mp4	0.0	161.55172181129456	0.14999008178710938
20	65.19893407821655	response	0	4		18.0	2.5	/experiments/knapen_aot/oldvideos/R_S_yt-hvuC_2YXsTQ_159.mp4	0.0	161.69349193572998	
20	65.20715403556824	movie	1		301.0	18.0	2.5	/experiments/knapen_aot/oldvideos/R_S_yt-hvuC_2YXsTQ_159.mp4	0.0	161.70171189308167	2.5083301067352295
20	67.71548414230347	fix_post	2		12.0	18.0	2.5	/experiments/knapen_aot/oldvideos/R_S_yt-hvuC_2YXsTQ_159.mp4	0.0	164.2100419998169	0.10006189346313477
21	67.8155460357666	fix_pre	0		29.0	19.0	2.5	/experiments/knapen_aot/oldvideos/S_I003_C004_SDR_2K_AVC.mp4	0.0	164.31010389328003	0.2416059970855713
21	68.04140400886536	response	0	4		19.0	2.5	/experiments/knapen_aot/oldvideos/S_I003_C004_SDR_2K_AVC.mp4	0.0	164.53596186637878	
21	68.05715203285217	movie	1		167.0	19.0	2.5	/experiments/knapen_aot/oldvideos/S_I003_C004_SDR_2K_AVC.mp4	0.0	164.5517098903656	2.5083720684051514
21	70.56552410125732	fix_post	2		12.0	19.0	2.5	/experiments/knapen_aot/oldvideos/S_I003_C004_SDR_2K_AVC.mp4	0.0	167.06008195877075	0.10002994537353516
21	70.63307309150696	response	2	4		19.0	2.5	/experiments/knapen_aot/oldvideos/S_I003_C004_SDR_2K_AVC.mp4	0.0	167.12763094902039	
22	70.66555404663086	fix_pre	0		103.0	20.0	2.5	blank	1.0	167.1601119041443	0.8582460880279541
22	71.51556396484375	response	0	4		20.0	2.5	blank	1.0	168.01012182235718	
22	71.52380013465881	movie	1		301.0	20.0	2.5	blank	1.0	168.01835799217224	2.5083260536193848
22	74.0321261882782	fix_post	2		12.0	20.0	2.5	blank	1.0	170.52668404579163	0.09998488426208496
23	74.13211107254028	fix_pre	0		41.0	21.0	2.5	/experiments/knapen_aot/oldvideos/R_S_yt-J8E_BpSJMpk_5.mp4	0.0	170.6266689300537	0.34166693687438965
23	74.46557116508484	response	0	4		21.0	2.5	/experiments/knapen_aot/oldvideos/R_S_yt-J8E_BpSJMpk_5.mp4	0.0	170.96012902259827	
23	74.47377800941467	movie	1		301.0	21.0	2.5	/experiments/knapen_aot/oldvideos/R_S_yt-J8E_BpSJMpk_5.mp4	0.0	170.9683358669281	2.508373975753784
23	76.98215198516846	fix_post	2		12.0	21.0	2.5	/experiments/knapen_aot/oldvideos/R_S_yt-J8E_BpSJMpk_5.mp4	0.0	173.47670984268188	0.10001802444458008
24	77.08217000961304	fix_pre	0		25.0	22.0	2.5	/experiments/knapen_aot/oldvideos/R_S_video_inspire_california_big-sur_bixby_005.1080-h264.mp4	0.0	173.57672786712646	0.2083139419555664
24	77.28222703933716	response	0	4		22.0	2.5	/experiments/knapen_aot/oldvideos/R_S_video_inspire_california_big-sur_bixby_005.1080-h264.mp4	0.0	173.7767848968506	
24	77.2904839515686	movie	1		171.0	22.0	2.5	/experiments/knapen_aot/oldvideos/R_S_video_inspire_california_big-sur_bixby_005.1080-h264.mp4	0.0	173.78504180908203	2.5083510875701904
24	79.7988350391388	fix_post	2		12.0	22.0	2.5	/experiments/knapen_aot/oldvideos/R_S_video_inspire_california_big-sur_bixby_005.1080-h264.mp4	0.0	176.29339289665222	0.10004401206970215
24	79.87389016151428	response	2	4		22.0	2.5	/experiments/knapen_aot/oldvideos/R_S_video_inspire_california_big-sur_bixby_005.1080-h264.mp4	0.0	176.3684480190277	
25	79.8988790512085	fix_pre	0		158.0	23.0	2.5	/experiments/knapen_aot/oldvideos/R_S_yt-2XRGfGc0q44_37.mp4	0.0	176.39343690872192	1.316514015197754
25	81.2072081565857	response	0	4		23.0	2.5	/experiments/knapen_aot/oldvideos/R_S_yt-2XRGfGc0q44_37.mp4	0.0	177.70176601409912	
25	81.21539306640625	movie	1		301.0	23.0	2.5	/experiments/knapen_aot/oldvideos/R_S_yt-2XRGfGc0q44_37.mp4	0.0	177.70995092391968	2.508354902267456
25	83.7237479686737	fix_post	2		12.0	23.0	2.5	/experiments/knapen_aot/oldvideos/R_S_yt-2XRGfGc0q44_37.mp4	0.0	180.21830582618713	0.09993600845336914
26	83.82368397712708	fix_pre	0		32.0	24.0	2.5	/experiments/knapen_aot/oldvideos/S_yt-wPXrAuiiRZg_1062.mp4	0.0	180.3182418346405	0.2667381763458252
26	84.07456803321838	response	0	4		24.0	2.5	/experiments/knapen_aot/oldvideos/S_yt-wPXrAuiiRZg_1062.mp4	0.0	180.5691258907318	
26	84.0904221534729	movie	1		301.0	24.0	2.5	/experiments/knapen_aot/oldvideos/S_yt-wPXrAuiiRZg_1062.mp4	0.0	180.58498001098633	2.508490800857544
26	86.59891295433044	fix_post	2		12.0	24.0	2.5	/experiments/knapen_aot/oldvideos/S_yt-wPXrAuiiRZg_1062.mp4	0.0	183.09347081184387	0.10120511054992676
27	86.70011806488037	fix_pre	0		10.0	25.0	2.5	/experiments/knapen_aot/oldvideos/R_S_yt-a0axt7n0GuQ_19.mp4	0.0	183.1946759223938	0.08192110061645508
27	86.77374315261841	response	0	2		25.0	2.5	/experiments/knapen_aot/oldvideos/R_S_yt-a0axt7n0GuQ_19.mp4	0.0	183.26830101013184	
27	86.78203916549683	movie	1		301.0	25.0	2.5	/experiments/knapen_aot/oldvideos/R_S_yt-a0axt7n0GuQ_19.mp4	0.0	183.27659702301025	2.5084168910980225
27	89.29045605659485	fix_post	2		12.0	25.0	2.5	/experiments/knapen_aot/oldvideos/R_S_yt-a0axt7n0GuQ_19.mp4	0.0	185.78501391410828	0.09996891021728516
28	89.39042496681213	fix_pre	0		28.0	26.0	2.5	/experiments/knapen_aot/oldvideos/R_S_yt-316ecr1BT84_44.mp4	0.0	185.88498282432556	0.23329401016235352
28	89.61549997329712	response	0	2		26.0	2.5	/experiments/knapen_aot/oldvideos/R_S_yt-316ecr1BT84_44.mp4	0.0	186.11005783081055	
28	89.62371897697449	movie	1		301.0	26.0	2.5	/experiments/knapen_aot/oldvideos/R_S_yt-316ecr1BT84_44.mp4	0.0	186.11827683448792	2.50838303565979
28	92.13210201263428	fix_post	2		12.0	26.0	2.5	/experiments/knapen_aot/oldvideos/R_S_yt-316ecr1BT84_44.mp4	0.0	188.6266598701477	0.09997296333312988
29	92.23207497596741	fix_pre	0		5.0	27.0	2.5	blank	1.0	188.72663283348083	0.041642189025878906
29	92.26555395126343	response	0	2		27.0	2.5	blank	1.0	188.76011180877686	
29	92.27371716499329	movie	1		301.0	27.0	2.5	blank	1.0	188.7682750225067	2.50833797454834
29	94.78205513954163	fix_post	2		12.0	27.0	2.5	blank	1.0	191.27661299705505	0.10010790824890137
30	94.88216304779053	fix_pre	0		27.0	28.0	2.5	/experiments/knapen_aot/oldvideos/R_S_ILSVRC2015_train_00568002.mp4	0.0	191.37672090530396	0.2248389720916748
30	95.09882307052612	response	0	2		28.0	2.5	/experiments/knapen_aot/oldvideos/R_S_ILSVRC2015_train_00568002.mp4	0.0	191.59338092803955	
30	95.1070020198822	movie	1		301.0	28.0	2.5	/experiments/knapen_aot/oldvideos/R_S_ILSVRC2015_train_00568002.mp4	0.0	191.60155987739563	2.5083630084991455
30	97.61536502838135	fix_post	2		12.0	28.0	2.5	/experiments/knapen_aot/oldvideos/R_S_ILSVRC2015_train_00568002.mp4	0.0	194.10992288589478	0.10003304481506348
31	97.71539807319641	fix_pre	0		29.0	29.0	2.5	/experiments/knapen_aot/oldvideos/R_S_video_inspire_california_big-sur_bixby_005.1080-h264.mp4	0.0	194.20995593070984	0.24164891242980957
31	97.94882416725159	response	0	2		29.0	2.5	/experiments/knapen_aot/oldvideos/R_S_video_inspire_california_big-sur_bixby_005.1080-h264.mp4	0.0	194.44338202476501	
31	97.95704698562622	movie	1		182.0	29.0	2.5	/experiments/knapen_aot/oldvideos/R_S_video_inspire_california_big-sur_bixby_005.1080-h264.mp4	0.0	194.45160484313965	2.5084049701690674
31	100.46545195579529	fix_post	2		12.0	29.0	2.5	/experiments/knapen_aot/oldvideos/R_S_video_inspire_california_big-sur_bixby_005.1080-h264.mp4	0.0	196.96000981330872	0.09990620613098145
32	100.56535816192627	fix_pre	0		35.0	30.0	2.5	/experiments/knapen_aot/oldvideos/R_S_yt-T_qmGKyeKNU_32.mp4	0.0	197.0599160194397	0.29168200492858887
32	100.84876298904419	response	0	2		30.0	2.5	/experiments/knapen_aot/oldvideos/R_S_yt-T_qmGKyeKNU_32.mp4	0.0	197.34332084655762	
32	100.85704016685486	movie	1		301.0	30.0	2.5	/experiments/knapen_aot/oldvideos/R_S_yt-T_qmGKyeKNU_32.mp4	0.0	197.3515980243683	2.5083088874816895
32	103.36534905433655	fix_post	2		12.0	30.0	2.5	/experiments/knapen_aot/oldvideos/R_S_yt-T_qmGKyeKNU_32.mp4	0.0	199.85990691184998	0.10010004043579102
33	103.46544909477234	fix_pre	0		5.0	31.0	2.5	/experiments/knapen_aot/oldvideos/R_S_pexels-rodnae-productions-5993671.mp4	0.0	199.96000695228577	0.041493892669677734
33	103.49889016151428	response	0	4		31.0	2.5	/experiments/knapen_aot/oldvideos/R_S_pexels-rodnae-productions-5993671.mp4	0.0	199.9934480190277	
33	103.50694298744202	movie	1		172.0	31.0	2.5	/experiments/knapen_aot/oldvideos/R_S_pexels-rodnae-productions-5993671.mp4	0.0	200.00150084495544	2.508531093597412
33	106.01547408103943	fix_post	2		12.0	31.0	2.5	/experiments/knapen_aot/oldvideos/R_S_pexels-rodnae-productions-5993671.mp4	0.0	202.51003193855286	0.09993505477905273
34	106.11540913581848	fix_pre	0		15.0	32.0	2.5	/experiments/knapen_aot/oldvideos/S_yt-YMI27rk5qUQ_117.mp4	0.0	202.6099669933319	0.12610983848571777
34	106.23208498954773	response	0	2		32.0	2.5	/experiments/knapen_aot/oldvideos/S_yt-YMI27rk5qUQ_117.mp4	0.0	202.72664284706116	
34	106.2415189743042	movie	1		301.0	32.0	2.5	/experiments/knapen_aot/oldvideos/S_yt-YMI27rk5qUQ_117.mp4	0.0	202.73607683181763	2.5071401596069336
34	108.74865913391113	fix_post	2		12.0	32.0	2.5	/experiments/knapen_aot/oldvideos/S_yt-YMI27rk5qUQ_117.mp4	0.0	205.24321699142456	0.10007500648498535
35	108.84873414039612	fix_pre	0		40.0	33.0	2.5	/experiments/knapen_aot/oldvideos/R_S_yt-ayx4rU9bJrU_179.mp4	0.0	205.34329199790955	0.3333170413970947
35	109.1737151145935	response	0	2		33.0	2.5	/experiments/knapen_aot/oldvideos/R_S_yt-ayx4rU9bJrU_179.mp4	0.0	205.66827297210693	
35	109.18205118179321	movie	1		301.0	33.0	2.5	/experiments/knapen_aot/oldvideos/R_S_yt-ayx4rU9bJrU_179.mp4	0.0	205.67660903930664	2.5082738399505615
35	111.69032502174377	fix_post	2		12.0	33.0	2.5	/experiments/knapen_aot/oldvideos/R_S_yt-ayx4rU9bJrU_179.mp4	0.0	208.1848828792572	0.10012698173522949
36	111.790452003479	fix_pre	0		11.0	34.0	2.5	blank	1.0	208.28500986099243	0.09142208099365234
36	111.87374305725098	response	0	2		34.0	2.5	blank	1.0	208.3683009147644	
36	111.88187408447266	movie	1		301.0	34.0	2.5	blank	1.0	208.37643194198608	2.508327007293701
36	114.39020109176636	fix_post	2		12.0	34.0	2.5	blank	1.0	210.88475894927979	0.10011887550354004
37	114.4903199672699	fix_pre	0		128.0	35.0	2.5	/experiments/knapen_aot/oldvideos/R_S_yt-YMI27rk5qUQ_117.mp4	0.0	210.98487782478333	1.0665910243988037
37	115.54122710227966	response	0	2		35.0	2.5	/experiments/knapen_aot/oldvideos/R_S_yt-YMI27rk5qUQ_117.mp4	0.0	212.0357849597931	
37	115.5569109916687	movie	1		301.0	35.0	2.5	/experiments/knapen_aot/oldvideos/R_S_yt-YMI27rk5qUQ_117.mp4	0.0	212.05146884918213	2.5084500312805176
37	118.06536102294922	fix_post	2		12.0	35.0	2.5	/experiments/knapen_aot/oldvideos/R_S_yt-YMI27rk5qUQ_117.mp4	0.0	214.55991888046265	0.0998389720916748
38	118.1651999950409	fix_pre	0		22.0	36.0	2.5	/experiments/knapen_aot/oldvideos/S_yt-Xq6uX1jfFRk_21.mp4	0.0	214.65975785255432	0.1833641529083252
38	118.34035396575928	response	0	2		36.0	2.5	/experiments/knapen_aot/oldvideos/S_yt-Xq6uX1jfFRk_21.mp4	0.0	214.8349118232727	
38	118.34856414794922	movie	1		301.0	36.0	2.5	/experiments/knapen_aot/oldvideos/S_yt-Xq6uX1jfFRk_21.mp4	0.0	214.84312200546265	2.5083799362182617
38	120.85694408416748	fix_post	2		12.0	36.0	2.5	/experiments/knapen_aot/oldvideos/S_yt-Xq6uX1jfFRk_21.mp4	0.0	217.3515019416809	0.10000395774841309
39	120.9569480419159	fix_pre	0		121.0	37.0	2.5	/experiments/knapen_aot/oldvideos/R_S_yt-zam74qlzGtQ_122.mp4	0.0	217.45150589942932	1.0082669258117676
39	121.95700597763062	response	0	2		37.0	2.5	/experiments/knapen_aot/oldvideos/R_S_yt-zam74qlzGtQ_122.mp4	0.0	218.45156383514404	
39	121.96521496772766	movie	1		301.0	37.0	2.5	/experiments/knapen_aot/oldvideos/R_S_yt-zam74qlzGtQ_122.mp4	0.0	218.4597728252411	2.508477210998535
39	124.4736921787262	fix_post	2		12.0	37.0	2.5	/experiments/knapen_aot/oldvideos/R_S_yt-zam74qlzGtQ_122.mp4	0.0	220.96825003623962	0.0999448299407959
40	124.57363700866699	fix_pre	0		12.0	38.0	2.5	/experiments/knapen_aot/oldvideos/S_yt-gMqeZkpA_1Q_61.mp4	0.0	221.06819486618042	0.09996199607849121
40	124.66551518440247	response	0	2		38.0	2.5	/experiments/knapen_aot/oldvideos/S_yt-gMqeZkpA_1Q_61.mp4	0.0	221.1600730419159	
40	124.67359900474548	movie	1		301.0	38.0	2.5	/experiments/knapen_aot/oldvideos/S_yt-gMqeZkpA_1Q_61.mp4	0.0	221.1681568622589	2.5082850456237793
40	127.18188405036926	fix_post	2		12.0	38.0	2.5	/experiments/knapen_aot/oldvideos/S_yt-gMqeZkpA_1Q_61.mp4	0.0	223.6764419078827	0.1000680923461914
41	127.28195214271545	fix_pre	0		32.0	39.0	2.5	/experiments/knapen_aot/oldvideos/R_S_yt-tX3slAQb9yY_13.mp4	0.0	223.77651000022888	0.266556978225708
41	127.54034495353699	response	0	2		39.0	2.5	/experiments/knapen_aot/oldvideos/R_S_yt-tX3slAQb9yY_13.mp4	0.0	224.03490281105042	
41	127.54850912094116	movie	1		301.0	39.0	2.5	/experiments/knapen_aot/oldvideos/R_S_yt-tX3slAQb9yY_13.mp4	0.0	224.0430669784546	2.508405923843384
41	130.05691504478455	fix_post	2		12.0	39.0	2.5	/experiments/knapen_aot/oldvideos/R_S_yt-tX3slAQb9yY_13.mp4	0.0	226.55147290229797	0.10019397735595703
42	130.1571090221405	fix_pre	0		238.0	40.0	2.5	/experiments/knapen_aot/oldvideos/R_S_yt-e_eOzV7qMZo_374.mp4	0.0	226.65166687965393	1.9831089973449707
42	132.13201999664307	response	0	2		40.0	2.5	/experiments/knapen_aot/oldvideos/R_S_yt-e_eOzV7qMZo_374.mp4	0.0	228.6265778541565	
42	132.14021801948547	movie	1		301.0	40.0	2.5	/experiments/knapen_aot/oldvideos/R_S_yt-e_eOzV7qMZo_374.mp4	0.0	228.6347758769989	2.5084280967712402
42	134.6486461162567	fix_post	2		12.0	40.0	2.5	/experiments/knapen_aot/oldvideos/R_S_yt-e_eOzV7qMZo_374.mp4	0.0	231.14320397377014	0.09993386268615723
43	134.74857997894287	fix_pre	0		103.0	41.0	2.5	/experiments/knapen_aot/oldvideos/S_pexels-anthony-shkraba-7569650.mp4	0.0	231.2431378364563	0.8583869934082031
43	135.59862208366394	response	0	2		41.0	2.5	/experiments/knapen_aot/oldvideos/S_pexels-anthony-shkraba-7569650.mp4	0.0	232.09317994117737	
43	135.60696697235107	movie	1		191.0	41.0	2.5	/experiments/knapen_aot/oldvideos/S_pexels-anthony-shkraba-7569650.mp4	0.0	232.1015248298645	2.5082590579986572
43	138.11522603034973	fix_post	2		12.0	41.0	2.5	/experiments/knapen_aot/oldvideos/S_pexels-anthony-shkraba-7569650.mp4	0.0	234.60978388786316	0.10007095336914062
44	138.21529698371887	fix_pre	0		30.0	42.0	2.5	blank	1.0	234.7098548412323	0.24990320205688477
44	138.45699214935303	response	0	2		42.0	2.5	blank	1.0	234.95155000686646	
44	138.46520018577576	movie	1		301.0	42.0	2.5	blank	1.0	234.95975804328918	2.508330821990967
44	140.97353100776672	fix_post	2		12.0	42.0	2.5	blank	1.0	237.46808886528015	0.09999704360961914
45	141.07352805137634	fix_pre	0		31.0	43.0	2.5	/experiments/knapen_aot/oldvideos/R_S_pexels-marcus-aurelius-6785014.mp4	0.0	237.56808590888977	0.2582709789276123
45	141.32363104820251	response	0	2		43.0	2.5	/experiments/knapen_aot/oldvideos/R_S_pexels-marcus-aurelius-6785014.mp4	0.0	237.81818890571594	
45	141.33179903030396	movie	1		170.0	43.0	2.5	/experiments/knapen_aot/oldvideos/R_S_pexels-marcus-aurelius-6785014.mp4	0.0	237.82635688781738	2.5085859298706055
45	143.84038496017456	fix_post	2		12.0	43.0	2.5	/experiments/knapen_aot/oldvideos/R_S_pexels-marcus-aurelius-6785014.mp4	0.0	240.334942817688	0.0997610092163086
46	143.94014596939087	fix_pre	0		12.0	44.0	2.5	/experiments/knapen_aot/oldvideos/S_ILSVRC2015_train_00423000.mp4	0.0	240.4347038269043	0.10002708435058594
46	144.03184509277344	response	0	2		44.0	2.5	/experiments/knapen_aot/oldvideos/S_ILSVRC2015_train_00423000.mp4	0.0	240.52640295028687	
46	144.04017305374146	movie	1		301.0	44.0	2.5	/experiments/knapen_aot/oldvideos/S_ILSVRC2015_train_00423000.mp4	0.0	240.53473091125488	2.508312940597534
46	146.548485994339	fix_post	2		12.0	44.0	2.5	/experiments/knapen_aot/oldvideos/S_ILSVRC2015_train_00423000.mp4	0.0	243.04304385185242	0.10004997253417969
47	146.64853596687317	fix_pre	0		103.0	45.0	2.5	/experiments/knapen_aot/oldvideos/R_S_yt-v9WGfC67DPk_50.mp4	0.0	243.1430938243866	0.8582592010498047
47	147.4986171722412	response	0	2		45.0	2.5	/experiments/knapen_aot/oldvideos/R_S_yt-v9WGfC67DPk_50.mp4	0.0	243.99317502975464	
47	147.50679516792297	movie	1		301.0	45.0	2.5	/experiments/knapen_aot/oldvideos/R_S_yt-v9WGfC67DPk_50.mp4	0.0	244.0013530254364	2.5083718299865723
47	150.01516699790955	fix_post	2		12.0	45.0	2.5	/experiments/knapen_aot/oldvideos/R_S_yt-v9WGfC67DPk_50.mp4	0.0	246.50972485542297	0.10084915161132812
47	150.1068730354309	response	2	2		45.0	2.5	/experiments/knapen_aot/oldvideos/R_S_yt-v9WGfC67DPk_50.mp4	0.0	246.60143089294434	
48	150.11601614952087	fix_pre	0		210.0	46.0	2.5	/experiments/knapen_aot/oldvideos/R_S_video_inspire_california_big-sur_landscape_054.1080-h264.mp4	0.0	246.6105740070343	1.75
48	151.8569040298462	response	0	2		46.0	2.5	/experiments/knapen_aot/oldvideos/R_S_video_inspire_california_big-sur_landscape_054.1080-h264.mp4	0.0	248.35146188735962	
48	151.86601614952087	movie	1		172.0	46.0	2.5	/experiments/knapen_aot/oldvideos/R_S_video_inspire_california_big-sur_landscape_054.1080-h264.mp4	0.0	248.3605740070343	2.5074918270111084
48	154.37350797653198	fix_post	2		12.0	46.0	2.5	/experiments/knapen_aot/oldvideos/R_S_video_inspire_california_big-sur_landscape_054.1080-h264.mp4	0.0	250.8680658340454	0.09999608993530273
49	154.47350406646729	fix_pre	0		26.0	47.0	2.5	/experiments/knapen_aot/oldvideos/S_yt-wE0cEswyaaM_53.mp4	0.0	250.9680619239807	0.21663999557495117
49	154.68198013305664	response	0	2		47.0	2.5	/experiments/knapen_aot/oldvideos/S_yt-wE0cEswyaaM_53.mp4	0.0	251.17653799057007	
49	154.69014406204224	movie	1		301.0	47.0	2.5	/experiments/knapen_aot/oldvideos/S_yt-wE0cEswyaaM_53.mp4	0.0	251.18470191955566	2.508362054824829
49	157.19850611686707	fix_post	2		12.0	47.0	2.5	/experiments/knapen_aot/oldvideos/S_yt-wE0cEswyaaM_53.mp4	0.0	253.6930639743805	0.10000085830688477
50	157.29850697517395	fix_pre	0		116.0	48.0	2.5	blank	1.0	253.79306483268738	0.9666340351104736
50	158.25691103935242	response	0	2		48.0	2.5	blank	1.0	254.75146889686584	
50	158.26514101028442	movie	1		301.0	48.0	2.5	blank	1.0	254.75969886779785	2.5083110332489014
50	160.77345204353333	fix_post	2		12.0	48.0	2.5	blank	1.0	257.26800990104675	0.09987902641296387
51	160.8733310699463	fix_pre	0		23.0	49.0	2.5	/experiments/knapen_aot/oldvideos/R_S_ILSVRC2015_train_00613000.mp4	0.0	257.3678889274597	0.19174408912658691
51	161.0568289756775	response	0	2		49.0	2.5	/experiments/knapen_aot/oldvideos/R_S_ILSVRC2015_train_00613000.mp4	0.0	257.5513868331909	
51	161.06507515907288	movie	1		301.0	49.0	2.5	/experiments/knapen_aot/oldvideos/R_S_ILSVRC2015_train_00613000.mp4	0.0	257.5596330165863	2.5083398818969727
51	163.57341504096985	fix_post	2		12.0	49.0	2.5	/experiments/knapen_aot/oldvideos/R_S_ILSVRC2015_train_00613000.mp4	0.0	260.0679728984833	0.09995794296264648
52	163.6733729839325	fix_pre	0		19.0	50.0	2.5	/experiments/knapen_aot/oldvideos/S_yt-CNq5mTA8oXY_176.mp4	0.0	260.1679308414459	0.15837597846984863
52	163.82349705696106	response	0	2		50.0	2.5	/experiments/knapen_aot/oldvideos/S_yt-CNq5mTA8oXY_176.mp4	0.0	260.3180549144745	
52	163.83174896240234	movie	1		301.0	50.0	2.5	/experiments/knapen_aot/oldvideos/S_yt-CNq5mTA8oXY_176.mp4	0.0	260.32630681991577	2.5083651542663574
52	166.3401141166687	fix_post	2		12.0	50.0	2.5	/experiments/knapen_aot/oldvideos/S_yt-CNq5mTA8oXY_176.mp4	0.0	262.83467197418213	0.10000300407409668
53	166.4401171207428	fix_pre	0		35.0	51.0	2.5	/experiments/knapen_aot/oldvideos/S_pexels-laker-5793000.mp4	0.0	262.9346749782562	0.29166197776794434
53	166.7236111164093	response	0	2		51.0	2.5	/experiments/knapen_aot/oldvideos/S_pexels-laker-5793000.mp4	0.0	263.21816897392273	
53	166.73177909851074	movie	1		165.0	51.0	2.5	/experiments/knapen_aot/oldvideos/S_pexels-laker-5793000.mp4	0.0	263.22633695602417	2.5084989070892334
53	169.24027800559998	fix_post	2		12.0	51.0	2.5	/experiments/knapen_aot/oldvideos/S_pexels-laker-5793000.mp4	0.0	265.7348358631134	0.09981417655944824
54	169.34009218215942	fix_pre	0		5.0	52.0	2.5	/experiments/knapen_aot/oldvideos/S_yt-EuyfT0PuOoQ_91.mp4	0.0	265.83465003967285	0.04167580604553223
54	169.37357211112976	response	0	2		52.0	2.5	/experiments/knapen_aot/oldvideos/S_yt-EuyfT0PuOoQ_91.mp4	0.0	265.8681299686432	
54	169.38176798820496	movie	1		301.0	52.0	2.5	/experiments/knapen_aot/oldvideos/S_yt-EuyfT0PuOoQ_91.mp4	0.0	265.8763258457184	2.508229970932007
54	171.88999795913696	fix_post	2		12.0	52.0	2.5	/experiments/knapen_aot/oldvideos/S_yt-EuyfT0PuOoQ_91.mp4	0.0	268.3845558166504	0.1002950668334961
55	171.99029302597046	fix_pre	0		34.0	53.0	2.5	/experiments/knapen_aot/oldvideos/S_yt-iAQ98zgVlds_97.mp4	0.0	268.4848508834839	0.2830939292907715
55	172.26516199111938	response	0	2		53.0	2.5	/experiments/knapen_aot/oldvideos/S_yt-iAQ98zgVlds_97.mp4	0.0	268.7597198486328	
55	172.27338695526123	movie	1		301.0	53.0	2.5	/experiments/knapen_aot/oldvideos/S_yt-iAQ98zgVlds_97.mp4	0.0	268.76794481277466	2.5083281993865967
55	174.78171515464783	fix_post	2		12.0	53.0	2.5	/experiments/knapen_aot/oldvideos/S_yt-iAQ98zgVlds_97.mp4	0.0	271.27627301216125	0.10001587867736816
56	174.8817310333252	fix_pre	0		28.0	54.0	2.5	/experiments/knapen_aot/oldvideos/R_S_ILSVRC2015_train_00469000.mp4	0.0	271.3762888908386	0.23421001434326172
56	175.10683608055115	response	0	4		54.0	2.5	/experiments/knapen_aot/oldvideos/R_S_ILSVRC2015_train_00469000.mp4	0.0	271.6013939380646	
56	175.11594104766846	movie	1		301.0	54.0	2.5	/experiments/knapen_aot/oldvideos/R_S_ILSVRC2015_train_00469000.mp4	0.0	271.6104989051819	2.5075299739837646
56	177.62347102165222	fix_post	2		12.0	54.0	2.5	/experiments/knapen_aot/oldvideos/R_S_ILSVRC2015_train_00469000.mp4	0.0	274.11802887916565	0.09990501403808594
57	177.7233760356903	fix_pre	0		13.0	55.0	2.5	blank	1.0	274.21793389320374	0.10834407806396484
57	177.82343411445618	response	0	4		55.0	2.5	blank	1.0	274.3179919719696	
57	177.83172011375427	movie	1		301.0	55.0	2.5	blank	1.0	274.3262779712677	2.508314847946167
57	180.34003496170044	fix_post	2		12.0	55.0	2.5	blank	1.0	276.83459281921387	0.10005402565002441
58	180.44008898735046	fix_pre	0		227.0	56.0	2.5	/experiments/knapen_aot/oldvideos/R_S_ILSVRC2015_train_00371012.mp4	0.0	276.9346468448639	1.8915841579437256
58	182.32342004776	response	0	4		56.0	2.5	/experiments/knapen_aot/oldvideos/R_S_ILSVRC2015_train_00371012.mp4	0.0	278.81797790527344	
58	182.3316731452942	movie	1		301.0	56.0	2.5	/experiments/knapen_aot/oldvideos/R_S_ILSVRC2015_train_00371012.mp4	0.0	278.8262310028076	2.5085299015045166
58	184.8402030467987	fix_post	2		12.0	56.0	2.5	/experiments/knapen_aot/oldvideos/R_S_ILSVRC2015_train_00371012.mp4	0.0	281.33476090431213	0.0998070240020752
59	184.94001007080078	fix_pre	0		35.0	57.0	2.5	/experiments/knapen_aot/oldvideos/R_S_yt--5ls65Ue1RA_52.mp4	0.0	281.4345679283142	0.2916579246520996
59	185.22346806526184	response	0	4		57.0	2.5	/experiments/knapen_aot/oldvideos/R_S_yt--5ls65Ue1RA_52.mp4	0.0	281.71802592277527	
59	185.23166799545288	movie	1		301.0	57.0	2.5	/experiments/knapen_aot/oldvideos/R_S_yt--5ls65Ue1RA_52.mp4	0.0	281.7262258529663	2.508466958999634
59	187.74013495445251	fix_post	2		12.0	57.0	2.5	/experiments/knapen_aot/oldvideos/R_S_yt--5ls65Ue1RA_52.mp4	0.0	284.23469281196594	0.099822998046875
60	187.8399579524994	fix_pre	0		4.0	58.0	2.5	/experiments/knapen_aot/oldvideos/S_yt-Faxdis4m3Fw_9.mp4	0.0	284.3345158100128	0.033373117446899414
60	187.86507201194763	response	0	4		58.0	2.5	/experiments/knapen_aot/oldvideos/S_yt-Faxdis4m3Fw_9.mp4	0.0	284.35962986946106	
60	187.8733310699463	movie	1		301.0	58.0	2.5	/experiments/knapen_aot/oldvideos/S_yt-Faxdis4m3Fw_9.mp4	0.0	284.3678889274597	2.508366107940674
60	190.38169717788696	fix_post	2		12.0	58.0	2.5	/experiments/knapen_aot/oldvideos/S_yt-Faxdis4m3Fw_9.mp4	0.0	286.8762550354004	0.09990596771240234
61	190.48160314559937	fix_pre	0		23.0	59.0	2.5	/experiments/knapen_aot/oldvideos/S_yt-a0axt7n0GuQ_19.mp4	0.0	286.9761610031128	0.191694974899292
61	190.6576120853424	response	0	4		59.0	2.5	/experiments/knapen_aot/oldvideos/S_yt-a0axt7n0GuQ_19.mp4	0.0	287.15216994285583	
61	190.67329812049866	movie	1		300.0	59.0	2.5	/experiments/knapen_aot/oldvideos/S_yt-a0axt7n0GuQ_19.mp4	0.0	287.1678559780121	2.508375883102417
61	192.96533203125	response	1	4		59.0	2.5	/experiments/knapen_aot/oldvideos/S_yt-a0axt7n0GuQ_19.mp4	0.0	289.4598898887634	
61	193.18167400360107	fix_post	2		12.0	59.0	2.5	/experiments/knapen_aot/oldvideos/S_yt-a0axt7n0GuQ_19.mp4	0.0	289.6762318611145	0.10012102127075195
62	193.28179502487183	fix_pre	0		38.0	60.0	2.5	/experiments/knapen_aot/oldvideos/R_S_yt-d5jBQ-LOW2I_17.mp4	0.0	289.77635288238525	0.31648802757263184
62	193.59019017219543	response	0	4		60.0	2.5	/experiments/knapen_aot/oldvideos/R_S_yt-d5jBQ-LOW2I_17.mp4	0.0	290.08474802970886	
62	193.59828305244446	movie	1		301.0	60.0	2.5	/experiments/knapen_aot/oldvideos/R_S_yt-d5jBQ-LOW2I_17.mp4	0.0	290.0928409099579	2.5083069801330566
62	196.10659003257751	fix_post	2		12.0	60.0	2.5	/experiments/knapen_aot/oldvideos/R_S_yt-d5jBQ-LOW2I_17.mp4	0.0	292.60114789009094	0.1000509262084961
63	196.206640958786	fix_pre	0		170.0	61.0	2.5	blank	1.0	292.70119881629944	1.4165821075439453
63	197.61505007743835	response	0	2		61.0	2.5	blank	1.0	294.1096079349518	
63	197.62322306632996	movie	1		301.0	61.0	2.5	blank	1.0	294.1177809238434	2.5083820819854736
63	200.13160514831543	fix_post	2		12.0	61.0	2.5	blank	1.0	296.62616300582886	0.10003280639648438
64	200.2316379547119	fix_pre	0		20.0	62.0	2.5	/experiments/knapen_aot/oldvideos/S_yt-31WwM4UgsVI_322.mp4	0.0	296.72619581222534	0.1666111946105957
64	200.3899781703949	response	0	2		62.0	2.5	/experiments/knapen_aot/oldvideos/S_yt-31WwM4UgsVI_322.mp4	0.0	296.8845360279083	
64	200.3982491493225	movie	1		301.0	62.0	2.5	/experiments/knapen_aot/oldvideos/S_yt-31WwM4UgsVI_322.mp4	0.0	296.89280700683594	2.5083518028259277
64	202.90660095214844	fix_post	2		12.0	62.0	2.5	/experiments/knapen_aot/oldvideos/S_yt-31WwM4UgsVI_322.mp4	0.0	299.40115880966187	0.10004019737243652
65	203.00664114952087	fix_pre	0		33.0	63.0	2.5	/experiments/knapen_aot/oldvideos/R_S_yt-n6aLw10f2Yw_317.mp4	0.0	299.5011990070343	0.2756309509277344
65	203.2734351158142	response	0	2		63.0	2.5	/experiments/knapen_aot/oldvideos/R_S_yt-n6aLw10f2Yw_317.mp4	0.0	299.76799297332764	
65	203.2822721004486	movie	1		301.0	63.0	2.5	/experiments/knapen_aot/oldvideos/R_S_yt-n6aLw10f2Yw_317.mp4	0.0	299.77682995796204	2.507624864578247
65	205.78989696502686	fix_post	2		12.0	63.0	2.5	/experiments/knapen_aot/oldvideos/R_S_yt-n6aLw10f2Yw_317.mp4	0.0	302.2844548225403	0.10005402565002441
66	205.88995099067688	fix_pre	0		185.0	64.0	2.5	/experiments/knapen_aot/oldvideos/R_S_ILSVRC2015_train_00404004.mp4	0.0	302.3845088481903	1.541604995727539
66	207.42330408096313	response	0	2		64.0	2.5	/experiments/knapen_aot/oldvideos/R_S_ILSVRC2015_train_00404004.mp4	0.0	303.91786193847656	
66	207.43155598640442	movie	1		301.0	64.0	2.5	/experiments/knapen_aot/oldvideos/R_S_ILSVRC2015_train_00404004.mp4	0.0	303.92611384391785	2.508331060409546
66	209.93988704681396	fix_post	2		12.0	64.0	2.5	/experiments/knapen_aot/oldvideos/R_S_ILSVRC2015_train_00404004.mp4	0.0	306.4344449043274	0.09995508193969727
67	210.03984212875366	fix_pre	0		13.0	65.0	2.5	/experiments/knapen_aot/oldvideos/R_S_ILSVRC2015_train_00638001.mp4	0.0	306.5343999862671	0.10850882530212402
67	210.13998913764954	response	0	2		65.0	2.5	/experiments/knapen_aot/oldvideos/R_S_ILSVRC2015_train_00638001.mp4	0.0	306.63454699516296	
67	210.1483509540558	movie	1		301.0	65.0	2.5	/experiments/knapen_aot/oldvideos/R_S_ILSVRC2015_train_00638001.mp4	0.0	306.6429088115692	2.5082271099090576
67	212.65657806396484	fix_post	2		12.0	65.0	2.5	/experiments/knapen_aot/oldvideos/R_S_ILSVRC2015_train_00638001.mp4	0.0	309.15113592147827	0.10013794898986816
68	212.7567160129547	fix_pre	0		26.0	66.0	2.5	/experiments/knapen_aot/oldvideos/R_S_CR_A009_C007_SDR_20191113_SDR_2K_AVC.mp4	0.0	309.25127387046814	0.21649599075317383
68	212.9649350643158	response	0	2		66.0	2.5	/experiments/knapen_aot/oldvideos/R_S_CR_A009_C007_SDR_20191113_SDR_2K_AVC.mp4	0.0	309.4594929218292	
68	212.97321200370789	movie	1		163.0	66.0	2.5	/experiments/knapen_aot/oldvideos/R_S_CR_A009_C007_SDR_20191113_SDR_2K_AVC.mp4	0.0	309.4677698612213	2.50838303565979
68	215.48159503936768	fix_post	2		12.0	66.0	2.5	/experiments/knapen_aot/oldvideos/R_S_CR_A009_C007_SDR_20191113_SDR_2K_AVC.mp4	0.0	311.9761528968811	0.1000211238861084
69	215.58161616325378	fix_pre	0		72.0	67.0	2.5	/experiments/knapen_aot/oldvideos/R_S_DL_B002_C011_SDR_20191122_SDR_2K_AVC.mp4	0.0	312.0761740207672	0.5999088287353516
69	216.16586899757385	response	0	2		67.0	2.5	/experiments/knapen_aot/oldvideos/R_S_DL_B002_C011_SDR_20191122_SDR_2K_AVC.mp4	0.0	312.6604268550873	
69	216.18152499198914	movie	1		169.0	67.0	2.5	/experiments/knapen_aot/oldvideos/R_S_DL_B002_C011_SDR_20191122_SDR_2K_AVC.mp4	0.0	312.67608284950256	2.508336067199707
69	218.68986105918884	fix_post	2		12.0	67.0	2.5	/experiments/knapen_aot/oldvideos/R_S_DL_B002_C011_SDR_20191122_SDR_2K_AVC.mp4	0.0	315.18441891670227	0.09995007514953613
70	218.78981113433838	fix_pre	0		19.0	68.0	2.5	blank	1.0	315.2843689918518	0.15901398658752441
70	218.9399299621582	response	0	2		68.0	2.5	blank	1.0	315.43448781967163	
70	218.9488251209259	movie	1		301.0	68.0	2.5	blank	1.0	315.44338297843933	2.507704973220825
70	221.45653009414673	fix_post	2		12.0	68.0	2.5	blank	1.0	317.95108795166016	0.10004687309265137
71	221.55657696723938	fix_pre	0		22.0	69.0	2.5	/experiments/knapen_aot/oldvideos/R_S_yt-F3hhts3bwWg_25.mp4	0.0	318.0511348247528	0.18396711349487305
71	221.73158407211304	response	0	2		69.0	2.5	/experiments/knapen_aot/oldvideos/R_S_yt-F3hhts3bwWg_25.mp4	0.0	318.22614192962646	
71	221.74054408073425	movie	1		301.0	69.0	2.5	/experiments/knapen_aot/oldvideos/R_S_yt-F3hhts3bwWg_25.mp4	0.0	318.2351019382477	2.507612943649292
71	224.24815702438354	fix_post	2		12.0	69.0	2.5	/experiments/knapen_aot/oldvideos/R_S_yt-F3hhts3bwWg_25.mp4	0.0	320.742714881897	0.10002303123474121
72	224.3481800556183	fix_pre	0		29.0	70.0	2.5	/experiments/knapen_aot/oldvideos/R_S_ILSVRC2015_train_00545000.mp4	0.0	320.8427379131317	0.24162912368774414
72	224.58156299591064	response	0	2		70.0	2.5	/experiments/knapen_aot/oldvideos/R_S_ILSVRC2015_train_00545000.mp4	0.0	321.0761208534241	
72	224.58980917930603	movie	1		301.0	70.0	2.5	/experiments/knapen_aot/oldvideos/R_S_ILSVRC2015_train_00545000.mp4	0.0	321.08436703681946	2.5084078311920166
72	227.09821701049805	fix_post	2		12.0	70.0	2.5	/experiments/knapen_aot/oldvideos/R_S_ILSVRC2015_train_00545000.mp4	0.0	323.5927748680115	0.0999460220336914
73	227.19816303253174	fix_pre	0		47.0	71.0	2.5	/experiments/knapen_aot/oldvideos/S_comp_H007_C003_PS_v01_SDR_PS_20180925_SDR_2K_AVC.mp4	0.0	323.69272089004517	0.39165496826171875
73	227.58158206939697	response	0	2		71.0	2.5	/experiments/knapen_aot/oldvideos/S_comp_H007_C003_PS_v01_SDR_PS_20180925_SDR_2K_AVC.mp4	0.0	324.0761399269104	
73	227.58981800079346	movie	1		173.0	71.0	2.5	/experiments/knapen_aot/oldvideos/S_comp_H007_C003_PS_v01_SDR_PS_20180925_SDR_2K_AVC.mp4	0.0	324.0843758583069	2.508336067199707
73	230.09815406799316	fix_post	2		12.0	71.0	2.5	/experiments/knapen_aot/oldvideos/S_comp_H007_C003_PS_v01_SDR_PS_20180925_SDR_2K_AVC.mp4	0.0	326.5927119255066	0.10001206398010254
74	230.19816613197327	fix_pre	0		19.0	72.0	2.5	/experiments/knapen_aot/oldvideos/S_yt-Dwgpjoikt84_71.mp4	0.0	326.6927239894867	0.1582958698272705
74	230.34072518348694	response	0	2		72.0	2.5	/experiments/knapen_aot/oldvideos/S_yt-Dwgpjoikt84_71.mp4	0.0	326.83528304100037	
74	230.35646200180054	movie	1		301.0	72.0	2.5	/experiments/knapen_aot/oldvideos/S_yt-Dwgpjoikt84_71.mp4	0.0	326.85101985931396	2.508404016494751
74	232.8648660182953	fix_post	2		12.0	72.0	2.5	/experiments/knapen_aot/oldvideos/S_yt-Dwgpjoikt84_71.mp4	0.0	329.3594238758087	0.09994196891784668
75	232.96480798721313	fix_pre	0		26.0	73.0	2.5	/experiments/knapen_aot/oldvideos/S_comp_DB_D002_C003_PSNK_v04_SDR_PS_20180914_SDR_2K_AVC.mp4	0.0	329.45936584472656	0.21674203872680664
75	233.17316102981567	response	0	2		73.0	2.5	/experiments/knapen_aot/oldvideos/S_comp_DB_D002_C003_PSNK_v04_SDR_PS_20180914_SDR_2K_AVC.mp4	0.0	329.6677188873291	
75	233.18155002593994	movie	1		166.0	73.0	2.5	/experiments/knapen_aot/oldvideos/S_comp_DB_D002_C003_PSNK_v04_SDR_PS_20180914_SDR_2K_AVC.mp4	0.0	329.67610788345337	2.5083510875701904
75	235.68990111351013	fix_post	2		12.0	73.0	2.5	/experiments/knapen_aot/oldvideos/S_comp_DB_D002_C003_PSNK_v04_SDR_PS_20180914_SDR_2K_AVC.mp4	0.0	332.18445897102356	0.09991788864135742
76	235.7898190021515	fix_pre	0		103.0	74.0	2.5	/experiments/knapen_aot/oldvideos/S_yt-Y7-umyL036c_507.mp4	0.0	332.2843768596649	0.8582520484924316
76	236.63985800743103	response	0	2		74.0	2.5	/experiments/knapen_aot/oldvideos/S_yt-Y7-umyL036c_507.mp4	0.0	333.13441586494446	
76	236.64807105064392	movie	1		301.0	74.0	2.5	/experiments/knapen_aot/oldvideos/S_yt-Y7-umyL036c_507.mp4	0.0	333.14262890815735	2.5088090896606445
76	239.15688014030457	fix_post	2		12.0	74.0	2.5	/experiments/knapen_aot/oldvideos/S_yt-Y7-umyL036c_507.mp4	0.0	335.651437997818	0.09952998161315918
77	239.25641012191772	fix_pre	0		26.0	75.0	2.5	/experiments/knapen_aot/oldvideos/R_S_production_ID_4720614.mp4	0.0	335.75096797943115	0.2168560028076172
77	239.46488118171692	response	0	2		75.0	2.5	/experiments/knapen_aot/oldvideos/R_S_production_ID_4720614.mp4	0.0	335.95943903923035	
77	239.47326612472534	movie	1		196.0	75.0	2.5	/experiments/knapen_aot/oldvideos/R_S_production_ID_4720614.mp4	0.0	335.96782398223877	2.5082249641418457
77	241.9814910888672	fix_post	2		12.0	75.0	2.5	/experiments/knapen_aot/oldvideos/R_S_production_ID_4720614.mp4	0.0	338.4760489463806	0.09994792938232422
78	242.0814390182495	fix_pre	0		73.0	76.0	2.5	/experiments/knapen_aot/oldvideos/S_yt-8y7Xhp2_2e0_168.mp4	0.0	338.57599687576294	0.608227014541626
78	242.68151211738586	response	0	2		76.0	2.5	/experiments/knapen_aot/oldvideos/S_yt-8y7Xhp2_2e0_168.mp4	0.0	339.1760699748993	
78	242.68966603279114	movie	1		301.0	76.0	2.5	/experiments/knapen_aot/oldvideos/S_yt-8y7Xhp2_2e0_168.mp4	0.0	339.18422389030457	2.508366107940674
78	245.1980321407318	fix_post	2		12.0	76.0	2.5	/experiments/knapen_aot/oldvideos/S_yt-8y7Xhp2_2e0_168.mp4	0.0	341.69258999824524	0.10007286071777344
79	245.29810500144958	fix_pre	0		10.0	77.0	2.5	blank	1.0	341.792662858963	0.08328104019165039
79	245.37321400642395	response	0	2		77.0	2.5	blank	1.0	341.8677718639374	
79	245.38138604164124	movie	1		301.0	77.0	2.5	blank	1.0	341.87594389915466	2.5083839893341064
79	247.88977003097534	fix_post	2		12.0	77.0	2.5	blank	1.0	344.38432788848877	0.09999608993530273
80	247.98976612091064	fix_pre	0		24.0	78.0	2.5	/experiments/knapen_aot/oldvideos/S_yt-F3hhts3bwWg_25.mp4	0.0	344.4843239784241	0.19997096061706543
80	248.1815321445465	response	0	2		78.0	2.5	/experiments/knapen_aot/oldvideos/S_yt-F3hhts3bwWg_25.mp4	0.0	344.67609000205994	
80	248.1897370815277	movie	1		301.0	78.0	2.5	/experiments/knapen_aot/oldvideos/S_yt-F3hhts3bwWg_25.mp4	0.0	344.68429493904114	2.5083611011505127
80	250.69809818267822	fix_post	2		12.0	78.0	2.5	/experiments/knapen_aot/oldvideos/S_yt-F3hhts3bwWg_25.mp4	0.0	347.19265604019165	0.10016989707946777
81	250.7982680797577	fix_pre	0		35.0	79.0	2.5	/experiments/knapen_aot/oldvideos/R_S_yt-452RKqKIeRU_16.mp4	0.0	347.2928259372711	0.2914540767669678
81	251.0815291404724	response	0	2		79.0	2.5	/experiments/knapen_aot/oldvideos/R_S_yt-452RKqKIeRU_16.mp4	0.0	347.57608699798584	
81	251.08972215652466	movie	1		300.0	79.0	2.5	/experiments/knapen_aot/oldvideos/R_S_yt-452RKqKIeRU_16.mp4	0.0	347.5842800140381	2.508363962173462
81	253.59808611869812	fix_post	2		12.0	79.0	2.5	/experiments/knapen_aot/oldvideos/R_S_yt-452RKqKIeRU_16.mp4	0.0	350.09264397621155	0.09995889663696289
81	253.67317509651184	response	2	2		79.0	2.5	/experiments/knapen_aot/oldvideos/R_S_yt-452RKqKIeRU_16.mp4	0.0	350.16773295402527	
82	253.69804501533508	fix_pre	0		114.0	80.0	2.5	/experiments/knapen_aot/oldvideos/R_S_pexels-rodnae-productions-5993671.mp4	0.0	350.1926028728485	0.9500560760498047
82	254.6398801803589	response	0	2		80.0	2.5	/experiments/knapen_aot/oldvideos/R_S_pexels-rodnae-productions-5993671.mp4	0.0	351.1344380378723	
82	254.6481010913849	movie	1		164.0	80.0	2.5	/experiments/knapen_aot/oldvideos/R_S_pexels-rodnae-productions-5993671.mp4	0.0	351.1426589488983	2.508357048034668
82	257.15645813941956	fix_post	2		12.0	80.0	2.5	/experiments/knapen_aot/oldvideos/R_S_pexels-rodnae-productions-5993671.mp4	0.0	353.651015996933	0.0998988151550293
83	257.2563569545746	fix_pre	0		8.0	81.0	2.5	/experiments/knapen_aot/oldvideos/R_S_yt-hDYtYKUsVE4_120.mp4	0.0	353.750914812088	0.06696605682373047
83	257.31481313705444	response	0	4		81.0	2.5	/experiments/knapen_aot/oldvideos/R_S_yt-hDYtYKUsVE4_120.mp4	0.0	353.80937099456787	
83	257.3233230113983	movie	1		301.0	81.0	2.5	/experiments/knapen_aot/oldvideos/R_S_yt-hDYtYKUsVE4_120.mp4	0.0	353.81788086891174	2.508056163787842
83	259.83137917518616	fix_post	2		12.0	81.0	2.5	/experiments/knapen_aot/oldvideos/R_S_yt-hDYtYKUsVE4_120.mp4	0.0	356.3259370326996	0.09991288185119629
84	259.93129205703735	fix_pre	0		20.0	82.0	2.5	/experiments/knapen_aot/oldvideos/R_S_yt-d5jBQ-LOW2I_17.mp4	0.0	356.4258499145508	0.16664505004882812
84	260.08977818489075	response	0	4		82.0	2.5	/experiments/knapen_aot/oldvideos/R_S_yt-d5jBQ-LOW2I_17.mp4	0.0	356.5843360424042	
84	260.0979371070862	movie	1		301.0	82.0	2.5	/experiments/knapen_aot/oldvideos/R_S_yt-d5jBQ-LOW2I_17.mp4	0.0	356.5924949645996	2.5084218978881836
84	262.60635900497437	fix_post	2		12.0	82.0	2.5	/experiments/knapen_aot/oldvideos/R_S_yt-d5jBQ-LOW2I_17.mp4	0.0	359.1009168624878	0.09995198249816895
85	262.70631098747253	fix_pre	0		23.0	83.0	2.5	blank	1.0	359.20086884498596	0.19167113304138184
85	262.8898091316223	response	0	4		83.0	2.5	blank	1.0	359.38436698913574	
85	262.8979821205139	movie	1		301.0	83.0	2.5	blank	1.0	359.39253997802734	2.5083329677581787
85	265.4063150882721	fix_post	2		12.0	83.0	2.5	blank	1.0	361.9008729457855	0.10006189346313477
87	265.50637698173523	stim	0		123.0					362.00093483924866	1.0252151489257812
87	265.67405915260315	response	0	2						362.1686170101166	
87	266.5278820991516	response	0	space						363.02243995666504	
