trial_nr	onset	event_type	phase	response	nr_frames	movie_index	movie_duration	movie_file	blank	onset_abs	duration
0	0.13511300086975098	stim	0		32.0					107.66511487960815	0.26495790481567383
0	0.392225980758667	response	0	space						107.92222785949707	
1	0.4000709056854248	stim	0		121.0					107.93007278442383	1.0080029964447021
1	1.2915208339691162	response	0	return						108.82152271270752	
1	1.408073902130127	stim	1		120.0					108.93807578086853	0.9999361038208008
2	2.4080100059509277	fix_pre	0		332.0	0.0	2.5	/experiments/knapen_aot/videos/R_S_b3TCugtX0h0_108.mp4	0.0	109.93801188468933	2.76665997505188
2	2.4165279865264893	response	0	return		0.0	2.5	/experiments/knapen_aot/videos/R_S_b3TCugtX0h0_108.mp4	0.0	109.94652986526489	
2	3.14152193069458	response	0	return		0.0	2.5	/experiments/knapen_aot/videos/R_S_b3TCugtX0h0_108.mp4	0.0	110.67152380943298	
2	3.774794816970825	response	0	return		0.0	2.5	/experiments/knapen_aot/videos/R_S_b3TCugtX0h0_108.mp4	0.0	111.30479669570923	
2	4.4998087882995605	response	0	return		0.0	2.5	/experiments/knapen_aot/videos/R_S_b3TCugtX0h0_108.mp4	0.0	112.02981066703796	
2	5.16647481918335	response	0	space		0.0	2.5	/experiments/knapen_aot/videos/R_S_b3TCugtX0h0_108.mp4	0.0	112.69647669792175	
2	5.174669981002808	movie	1		300.0	0.0	2.5	/experiments/knapen_aot/videos/R_S_b3TCugtX0h0_108.mp4	0.0	112.70467185974121	2.508659839630127
2	7.683329820632935	fix_post	2		12.0	0.0	2.5	/experiments/knapen_aot/videos/R_S_b3TCugtX0h0_108.mp4	0.0	115.21333169937134	0.09966397285461426
3	7.782993793487549	fix_pre	0		30.0	1.0	2.5	/experiments/knapen_aot/videos/R_S_yt-TSSPDwAQLXs_158.mp4	0.0	115.31299567222595	0.249953031539917
3	8.022769927978516	response	0	2		1.0	2.5	/experiments/knapen_aot/videos/R_S_yt-TSSPDwAQLXs_158.mp4	0.0	115.55277180671692	
3	8.032946825027466	movie	1		301.0	1.0	2.5	/experiments/knapen_aot/videos/R_S_yt-TSSPDwAQLXs_158.mp4	0.0	115.56294870376587	2.508331060409546
3	10.541277885437012	fix_post	2		12.0	1.0	2.5	/experiments/knapen_aot/videos/R_S_yt-TSSPDwAQLXs_158.mp4	0.0	118.07127976417542	0.10004711151123047
4	10.641324996948242	fix_pre	0		21.0	2.0	2.5	/experiments/knapen_aot/videos/R_S_yt-FhnT_42bV7M_11.mp4	0.0	118.17132687568665	0.17488884925842285
4	10.808093786239624	response	0	2		2.0	2.5	/experiments/knapen_aot/videos/R_S_yt-FhnT_42bV7M_11.mp4	0.0	118.33809566497803	
4	10.816213846206665	movie	1		301.0	2.0	2.5	/experiments/knapen_aot/videos/R_S_yt-FhnT_42bV7M_11.mp4	0.0	118.34621572494507	2.508423089981079
4	13.324636936187744	fix_post	2		12.0	2.0	2.5	/experiments/knapen_aot/videos/R_S_yt-FhnT_42bV7M_11.mp4	0.0	120.85463881492615	0.09999990463256836
5	13.424636840820312	fix_pre	0		6.0	3.0	2.5	/experiments/knapen_aot/videos/S_yt-Ek1jcvett9E_33.mp4	0.0	120.95463871955872	0.05051398277282715
5	13.466518878936768	response	0	2		3.0	2.5	/experiments/knapen_aot/videos/S_yt-Ek1jcvett9E_33.mp4	0.0	120.99652075767517	
5	13.47515082359314	movie	1		301.0	3.0	2.5	/experiments/knapen_aot/videos/S_yt-Ek1jcvett9E_33.mp4	0.0	121.00515270233154	2.5078160762786865
5	15.982966899871826	fix_post	2		12.0	3.0	2.5	/experiments/knapen_aot/videos/S_yt-Ek1jcvett9E_33.mp4	0.0	123.51296877861023	0.10000300407409668
6	16.082969903945923	fix_pre	0		18.0	4.0	2.5	/experiments/knapen_aot/videos/S_yt-ybH6uAiFbjc_273.mp4	0.0	123.61297178268433	0.14992809295654297
6	16.217247009277344	response	0	2		4.0	2.5	/experiments/knapen_aot/videos/S_yt-ybH6uAiFbjc_273.mp4	0.0	123.74724888801575	
6	16.232897996902466	movie	1		301.0	4.0	2.5	/experiments/knapen_aot/videos/S_yt-ybH6uAiFbjc_273.mp4	0.0	123.76289987564087	2.5083749294281006
6	18.741272926330566	fix_post	2		12.0	4.0	2.5	/experiments/knapen_aot/videos/S_yt-ybH6uAiFbjc_273.mp4	0.0	126.27127480506897	0.099945068359375
7	18.84121799468994	fix_pre	0		27.0	5.0	2.5	/experiments/knapen_aot/videos/R_S_yt-F1vQ5nZWhDg_21.mp4	0.0	126.37121987342834	0.22506093978881836
7	19.058143854141235	response	0	2		5.0	2.5	/experiments/knapen_aot/videos/R_S_yt-F1vQ5nZWhDg_21.mp4	0.0	126.58814573287964	
7	19.06627893447876	movie	1		301.0	5.0	2.5	/experiments/knapen_aot/videos/R_S_yt-F1vQ5nZWhDg_21.mp4	0.0	126.59628081321716	2.5083138942718506
7	21.57459282875061	fix_post	2		12.0	5.0	2.5	/experiments/knapen_aot/videos/R_S_yt-F1vQ5nZWhDg_21.mp4	0.0	129.104594707489	0.09993910789489746
8	21.674531936645508	fix_pre	0		1.0	6.0	2.5	blank	1.0	129.2045338153839	0.008699893951416016
8	21.67633581161499	response	0	2		6.0	2.5	blank	1.0	129.2063376903534	
8	21.683231830596924	movie	1		301.0	6.0	2.5	blank	1.0	129.21323370933533	2.508033037185669
8	24.191264867782593	fix_post	2		12.0	6.0	2.5	blank	1.0	131.721266746521	0.09994101524353027
9	24.291205883026123	fix_pre	0		40.0	7.0	2.5	/experiments/knapen_aot/videos/S_ILSVRC2015_train_00447000.mp4	0.0	131.82120776176453	0.33328890800476074
9	24.616317987442017	response	0	2		7.0	2.5	/experiments/knapen_aot/videos/S_ILSVRC2015_train_00447000.mp4	0.0	132.14631986618042	
9	24.624494791030884	movie	1		301.0	7.0	2.5	/experiments/knapen_aot/videos/S_ILSVRC2015_train_00447000.mp4	0.0	132.1544966697693	2.5084481239318848
9	27.13294291496277	fix_post	2		12.0	7.0	2.5	/experiments/knapen_aot/videos/S_ILSVRC2015_train_00447000.mp4	0.0	134.66294479370117	0.09993886947631836
10	27.232881784439087	fix_pre	0		21.0	8.0	2.5	/experiments/knapen_aot/videos/R_S_yt-lv6mhnH7_g4_134.mp4	0.0	134.7628836631775	0.17501616477966309
10	27.39971089363098	response	0	2		8.0	2.5	/experiments/knapen_aot/videos/R_S_yt-lv6mhnH7_g4_134.mp4	0.0	134.92971277236938	
10	27.40789794921875	movie	1		299.0	8.0	2.5	/experiments/knapen_aot/videos/R_S_yt-lv6mhnH7_g4_134.mp4	0.0	134.93789982795715	2.5083730220794678
10	29.916270971298218	fix_post	2		12.0	8.0	2.5	/experiments/knapen_aot/videos/R_S_yt-lv6mhnH7_g4_134.mp4	0.0	137.44627285003662	0.10018181800842285
11	30.01645278930664	fix_pre	0		47.0	9.0	2.5	/experiments/knapen_aot/videos/R_S_yt-Ek1jcvett9E_33.mp4	0.0	137.54645466804504	0.39145612716674805
11	30.39969778060913	response	0	2		9.0	2.5	/experiments/knapen_aot/videos/R_S_yt-Ek1jcvett9E_33.mp4	0.0	137.92969965934753	
11	30.40790891647339	movie	1		301.0	9.0	2.5	/experiments/knapen_aot/videos/R_S_yt-Ek1jcvett9E_33.mp4	0.0	137.9379107952118	2.5082809925079346
11	32.91618990898132	fix_post	2		12.0	9.0	2.5	/experiments/knapen_aot/videos/R_S_yt-Ek1jcvett9E_33.mp4	0.0	140.44619178771973	0.10016298294067383
12	33.016352891922	fix_pre	0		16.0	10.0	2.5	/experiments/knapen_aot/videos/R_S_flickr-reginahart-31964450591_23.mp4	0.0	140.5463547706604	0.1331489086151123
12	33.141318798065186	response	0	2		10.0	2.5	/experiments/knapen_aot/videos/R_S_flickr-reginahart-31964450591_23.mp4	0.0	140.6713206768036	
12	33.14950180053711	movie	1		172.0	10.0	2.5	/experiments/knapen_aot/videos/R_S_flickr-reginahart-31964450591_23.mp4	0.0	140.6795036792755	2.508277177810669
12	35.65777897834778	fix_post	2		12.0	10.0	2.5	/experiments/knapen_aot/videos/R_S_flickr-reginahart-31964450591_23.mp4	0.0	143.18778085708618	0.10004997253417969
13	35.75782895088196	fix_pre	0		31.0	11.0	2.5	/experiments/knapen_aot/videos/R_S_ILSVRC2015_train_00545000.mp4	0.0	143.28783082962036	0.2584860324859619
13	36.00061392784119	response	0	2		11.0	2.5	/experiments/knapen_aot/videos/R_S_ILSVRC2015_train_00545000.mp4	0.0	143.5306158065796	
13	36.01631498336792	movie	1		301.0	11.0	2.5	/experiments/knapen_aot/videos/R_S_ILSVRC2015_train_00545000.mp4	0.0	143.54631686210632	2.5082099437713623
13	38.52452492713928	fix_post	2		12.0	11.0	2.5	/experiments/knapen_aot/videos/R_S_ILSVRC2015_train_00545000.mp4	0.0	146.05452680587769	0.09996294975280762
14	38.62448787689209	fix_pre	0		19.0	12.0	2.5	/experiments/knapen_aot/videos/R_S_yt-QJ2k6vA8aco_12.mp4	0.0	146.1544897556305	0.1584770679473877
14	38.77463889122009	response	0	2		12.0	2.5	/experiments/knapen_aot/videos/R_S_yt-QJ2k6vA8aco_12.mp4	0.0	146.3046407699585	
14	38.78296494483948	movie	1		299.0	12.0	2.5	/experiments/knapen_aot/videos/R_S_yt-QJ2k6vA8aco_12.mp4	0.0	146.31296682357788	2.508241891860962
14	41.29120683670044	fix_post	2		12.0	12.0	2.5	/experiments/knapen_aot/videos/R_S_yt-QJ2k6vA8aco_12.mp4	0.0	148.82120871543884	0.10007405281066895
15	41.39128088951111	fix_pre	0		73.0	13.0	2.5	/experiments/knapen_aot/videos/R_S_yt-hQ5pge893b4_6.mp4	0.0	148.9212827682495	0.6082088947296143
15	41.991315841674805	response	0	2		13.0	2.5	/experiments/knapen_aot/videos/R_S_yt-hQ5pge893b4_6.mp4	0.0	149.5213177204132	
15	41.99948978424072	movie	1		301.0	13.0	2.5	/experiments/knapen_aot/videos/R_S_yt-hQ5pge893b4_6.mp4	0.0	149.52949166297913	2.5084102153778076
15	44.50789999961853	fix_post	2		12.0	13.0	2.5	/experiments/knapen_aot/videos/R_S_yt-hQ5pge893b4_6.mp4	0.0	152.03790187835693	0.09996581077575684
16	44.60786581039429	fix_pre	0		15.0	14.0	2.5	blank	1.0	152.1378676891327	0.12500405311584473
16	44.724695920944214	response	0	2		14.0	2.5	blank	1.0	152.25469779968262	
16	44.73286986351013	movie	1		301.0	14.0	2.5	blank	1.0	152.26287174224854	2.5083489418029785
16	47.24121880531311	fix_post	2		12.0	14.0	2.5	blank	1.0	154.7712206840515	0.09998703002929688
17	47.34120583534241	fix_pre	0		22.0	15.0	2.5	/experiments/knapen_aot/videos/S_wc-ZZxbTv7oc5DQ_10.mp4	0.0	154.8712077140808	0.1833031177520752
17	47.51632785797119	response	0	2		15.0	2.5	/experiments/knapen_aot/videos/S_wc-ZZxbTv7oc5DQ_10.mp4	0.0	155.0463297367096	
17	47.52450895309448	movie	1		175.0	15.0	2.5	/experiments/knapen_aot/videos/S_wc-ZZxbTv7oc5DQ_10.mp4	0.0	155.05451083183289	2.508333921432495
17	50.03284287452698	fix_post	2		12.0	15.0	2.5	/experiments/knapen_aot/videos/S_wc-ZZxbTv7oc5DQ_10.mp4	0.0	157.56284475326538	0.10001707077026367
18	50.13285994529724	fix_pre	0		14.0	16.0	2.5	/experiments/knapen_aot/videos/R_S_ILSVRC2015_train_00425000.mp4	0.0	157.66286182403564	0.11665987968444824
18	50.241352796554565	response	0	2		16.0	2.5	/experiments/knapen_aot/videos/R_S_ILSVRC2015_train_00425000.mp4	0.0	157.77135467529297	
18	50.24951982498169	movie	1		300.0	16.0	2.5	/experiments/knapen_aot/videos/R_S_ILSVRC2015_train_00425000.mp4	0.0	157.7795217037201	2.5083000659942627
18	52.75781989097595	fix_post	2		12.0	16.0	2.5	/experiments/knapen_aot/videos/R_S_ILSVRC2015_train_00425000.mp4	0.0	160.28782176971436	0.09993505477905273
19	52.857754945755005	fix_pre	0		18.0	17.0	2.5	/experiments/knapen_aot/videos/S_ILSVRC2015_train_00479003.mp4	0.0	160.3877568244934	0.14998102188110352
19	52.999626874923706	response	0	2		17.0	2.5	/experiments/knapen_aot/videos/S_ILSVRC2015_train_00479003.mp4	0.0	160.5296287536621	
19	53.00773596763611	movie	1		301.0	17.0	2.5	/experiments/knapen_aot/videos/S_ILSVRC2015_train_00479003.mp4	0.0	160.5377378463745	2.508462905883789
19	55.5161988735199	fix_post	2		12.0	17.0	2.5	/experiments/knapen_aot/videos/S_ILSVRC2015_train_00479003.mp4	0.0	163.0462007522583	0.09992790222167969
20	55.61612677574158	fix_pre	0		25.0	18.0	2.5	/experiments/knapen_aot/videos/S_b3TCugtX0h0_108.mp4	0.0	163.14612865447998	0.20833206176757812
20	55.81621289253235	response	0	2		18.0	2.5	/experiments/knapen_aot/videos/S_b3TCugtX0h0_108.mp4	0.0	163.34621477127075	
20	55.824458837509155	movie	1		301.0	18.0	2.5	/experiments/knapen_aot/videos/S_b3TCugtX0h0_108.mp4	0.0	163.35446071624756	2.508258104324341
20	58.332716941833496	fix_post	2		12.0	18.0	2.5	/experiments/knapen_aot/videos/S_b3TCugtX0h0_108.mp4	0.0	165.8627188205719	0.10014200210571289
21	58.43285894393921	fix_pre	0		46.0	19.0	2.5	blank	1.0	165.9628608226776	0.3832738399505615
21	58.80794596672058	response	0	2		19.0	2.5	blank	1.0	166.33794784545898	
21	58.81613278388977	movie	1		301.0	19.0	2.5	blank	1.0	166.34613466262817	2.508303165435791
21	61.32443594932556	fix_post	2		12.0	19.0	2.5	blank	1.0	168.85443782806396	0.09993982315063477
22	61.424375772476196	fix_pre	0		52.0	20.0	2.5	/experiments/knapen_aot/videos/R_S_ILSVRC2015_train_00417000.mp4	0.0	168.9543776512146	0.4334602355957031
22	61.842015981674194	response	0	2		20.0	2.5	/experiments/knapen_aot/videos/R_S_ILSVRC2015_train_00417000.mp4	0.0	169.3720178604126	
22	61.8578360080719	movie	1		300.0	20.0	2.5	/experiments/knapen_aot/videos/R_S_ILSVRC2015_train_00417000.mp4	0.0	169.3878378868103	2.5083529949188232
22	64.36618900299072	fix_post	2		12.0	20.0	2.5	/experiments/knapen_aot/videos/R_S_ILSVRC2015_train_00417000.mp4	0.0	171.89619088172913	0.09988689422607422
22	64.43285989761353	response	2	2		20.0	2.5	/experiments/knapen_aot/videos/R_S_ILSVRC2015_train_00417000.mp4	0.0	171.96286177635193	
23	64.4660758972168	fix_pre	0		57.0	21.0	2.5	/experiments/knapen_aot/videos/S_comp_LA_A009_C009_PSNK_v02_SDR_PS_FINAL_20180709_SDR_2K_AVC.mp4	0.0	171.9960777759552	0.474931001663208
23	64.93286085128784	response	0	2		21.0	2.5	/experiments/knapen_aot/videos/S_comp_LA_A009_C009_PSNK_v02_SDR_PS_FINAL_20180709_SDR_2K_AVC.mp4	0.0	172.46286273002625	
23	64.94100689888	movie	1		171.0	21.0	2.5	/experiments/knapen_aot/videos/S_comp_LA_A009_C009_PSNK_v02_SDR_PS_FINAL_20180709_SDR_2K_AVC.mp4	0.0	172.4710087776184	2.5084118843078613
23	67.44941878318787	fix_post	2		12.0	21.0	2.5	/experiments/knapen_aot/videos/S_comp_LA_A009_C009_PSNK_v02_SDR_PS_FINAL_20180709_SDR_2K_AVC.mp4	0.0	174.97942066192627	0.09999704360961914
24	67.54941582679749	fix_pre	0		26.0	22.0	2.5	/experiments/knapen_aot/videos/R_S_bing-www_dailymotion_com_video_x64c56w_164.mp4	0.0	175.0794177055359	0.21661114692687988
24	67.75777292251587	response	0	2		22.0	2.5	/experiments/knapen_aot/videos/R_S_bing-www_dailymotion_com_video_x64c56w_164.mp4	0.0	175.28777480125427	
24	67.76602697372437	movie	1		171.0	22.0	2.5	/experiments/knapen_aot/videos/R_S_bing-www_dailymotion_com_video_x64c56w_164.mp4	0.0	175.29602885246277	2.508375883102417
24	70.27440285682678	fix_post	2		12.0	22.0	2.5	/experiments/knapen_aot/videos/R_S_bing-www_dailymotion_com_video_x64c56w_164.mp4	0.0	177.80440473556519	0.09999895095825195
25	70.37440180778503	fix_pre	0		8.0	23.0	2.5	/experiments/knapen_aot/videos/R_S_ILSVRC2015_train_00515000.mp4	0.0	177.90440368652344	0.0665581226348877
25	70.43290400505066	response	0	2		23.0	2.5	/experiments/knapen_aot/videos/R_S_ILSVRC2015_train_00515000.mp4	0.0	177.96290588378906	
25	70.44095993041992	movie	1		297.0	23.0	2.5	/experiments/knapen_aot/videos/R_S_ILSVRC2015_train_00515000.mp4	0.0	177.97096180915833	2.5084428787231445
25	72.94940280914307	fix_post	2		12.0	23.0	2.5	/experiments/knapen_aot/videos/R_S_ILSVRC2015_train_00515000.mp4	0.0	180.47940468788147	0.09997296333312988
26	73.0493757724762	fix_pre	0		27.0	24.0	2.5	/experiments/knapen_aot/videos/S_yt-tQ-hgwTcMqU_43.mp4	0.0	180.5793776512146	0.22499322891235352
26	73.26615381240845	response	0	2		24.0	2.5	/experiments/knapen_aot/videos/S_yt-tQ-hgwTcMqU_43.mp4	0.0	180.79615569114685	
26	73.27436900138855	movie	1		301.0	24.0	2.5	/experiments/knapen_aot/videos/S_yt-tQ-hgwTcMqU_43.mp4	0.0	180.80437088012695	2.5083718299865723
26	75.78274083137512	fix_post	2		12.0	24.0	2.5	/experiments/knapen_aot/videos/S_yt-tQ-hgwTcMqU_43.mp4	0.0	183.31274271011353	0.09996199607849121
27	75.88270282745361	fix_pre	0		13.0	25.0	2.5	/experiments/knapen_aot/videos/R_S_yt-2OoHcgS8sss_7.mp4	0.0	183.41270470619202	0.10843896865844727
27	75.97534990310669	response	0	2		25.0	2.5	/experiments/knapen_aot/videos/R_S_yt-2OoHcgS8sss_7.mp4	0.0	183.5053517818451	
27	75.99114179611206	movie	1		301.0	25.0	2.5	/experiments/knapen_aot/videos/R_S_yt-2OoHcgS8sss_7.mp4	0.0	183.52114367485046	2.508316993713379
27	78.49945878982544	fix_post	2		12.0	25.0	2.5	/experiments/knapen_aot/videos/R_S_yt-2OoHcgS8sss_7.mp4	0.0	186.02946066856384	0.09993100166320801
28	78.59938979148865	fix_pre	0		8.0	26.0	2.5	/experiments/knapen_aot/videos/S_video_inspire_oregon_lone-ranch-beach_00015.1080-h264.mp4	0.0	186.12939167022705	0.06667399406433105
28	78.65046977996826	response	0	2		26.0	2.5	/experiments/knapen_aot/videos/S_video_inspire_oregon_lone-ranch-beach_00015.1080-h264.mp4	0.0	186.18047165870667	
28	78.66606378555298	movie	1		172.0	26.0	2.5	/experiments/knapen_aot/videos/S_video_inspire_oregon_lone-ranch-beach_00015.1080-h264.mp4	0.0	186.19606566429138	2.5083301067352295
28	81.17439389228821	fix_post	2		12.0	26.0	2.5	/experiments/knapen_aot/videos/S_video_inspire_oregon_lone-ranch-beach_00015.1080-h264.mp4	0.0	188.7043957710266	0.09993195533752441
29	81.27432584762573	fix_pre	0		14.0	27.0	2.5	/experiments/knapen_aot/videos/R_S_yt-4r-oovk9JWg_85.mp4	0.0	188.80432772636414	0.1166999340057373
29	81.3827908039093	response	0	2		27.0	2.5	/experiments/knapen_aot/videos/R_S_yt-4r-oovk9JWg_85.mp4	0.0	188.9127926826477	
29	81.39102578163147	movie	1		301.0	27.0	2.5	/experiments/knapen_aot/videos/R_S_yt-4r-oovk9JWg_85.mp4	0.0	188.92102766036987	2.508333206176758
29	83.89935898780823	fix_post	2		12.0	27.0	2.5	/experiments/knapen_aot/videos/R_S_yt-4r-oovk9JWg_85.mp4	0.0	191.42936086654663	0.09997391700744629
30	83.99933290481567	fix_pre	0		65.0	28.0	2.5	blank	1.0	191.52933478355408	0.5417060852050781
30	84.53280997276306	response	0	2		28.0	2.5	blank	1.0	192.06281185150146	
30	84.54103899002075	movie	1		301.0	28.0	2.5	blank	1.0	192.07104086875916	2.5083038806915283
30	87.04934287071228	fix_post	2		12.0	28.0	2.5	blank	1.0	194.57934474945068	0.10009098052978516
31	87.14943385124207	fix_pre	0		30.0	29.0	2.5	/experiments/knapen_aot/videos/R_S_pexels-kindel-media-7147375.mp4	0.0	194.67943572998047	0.2499079704284668
31	87.39109897613525	response	0	2		29.0	2.5	/experiments/knapen_aot/videos/R_S_pexels-kindel-media-7147375.mp4	0.0	194.92110085487366	
31	87.39934182167053	movie	1		169.0	29.0	2.5	/experiments/knapen_aot/videos/R_S_pexels-kindel-media-7147375.mp4	0.0	194.92934370040894	2.5082340240478516
31	89.90757584571838	fix_post	2		12.0	29.0	2.5	/experiments/knapen_aot/videos/R_S_pexels-kindel-media-7147375.mp4	0.0	197.4375777244568	0.10002994537353516
32	90.00760579109192	fix_pre	0		19.0	30.0	2.5	/experiments/knapen_aot/videos/S_ILSVRC2015_train_00165009.mp4	0.0	197.53760766983032	0.15836811065673828
32	90.15771985054016	response	0	2		30.0	2.5	/experiments/knapen_aot/videos/S_ILSVRC2015_train_00165009.mp4	0.0	197.68772172927856	
32	90.16597390174866	movie	1		301.0	30.0	2.5	/experiments/knapen_aot/videos/S_ILSVRC2015_train_00165009.mp4	0.0	197.69597578048706	2.5083730220794678
32	92.67434692382812	fix_post	2		12.0	30.0	2.5	/experiments/knapen_aot/videos/S_ILSVRC2015_train_00165009.mp4	0.0	200.20434880256653	0.09998106956481934
33	92.77432799339294	fix_pre	0		25.0	31.0	2.5	/experiments/knapen_aot/videos/R_S_yt-5MyvZYFlc9g_125.mp4	0.0	200.30432987213135	0.20824193954467773
33	92.96680283546448	response	0	2		31.0	2.5	/experiments/knapen_aot/videos/R_S_yt-5MyvZYFlc9g_125.mp4	0.0	200.49680471420288	
33	92.98256993293762	movie	1		301.0	31.0	2.5	/experiments/knapen_aot/videos/R_S_yt-5MyvZYFlc9g_125.mp4	0.0	200.51257181167603	2.508409023284912
33	95.49097895622253	fix_post	2		12.0	31.0	2.5	/experiments/knapen_aot/videos/R_S_yt-5MyvZYFlc9g_125.mp4	0.0	203.02098083496094	0.0999758243560791
34	95.59095478057861	fix_pre	0		12.0	32.0	2.5	/experiments/knapen_aot/videos/S_ILSVRC2015_train_00423000.mp4	0.0	203.12095665931702	0.10000419616699219
34	95.68270087242126	response	0	2		32.0	2.5	/experiments/knapen_aot/videos/S_ILSVRC2015_train_00423000.mp4	0.0	203.21270275115967	
34	95.6909589767456	movie	1		301.0	32.0	2.5	/experiments/knapen_aot/videos/S_ILSVRC2015_train_00423000.mp4	0.0	203.220960855484	2.5083060264587402
34	98.19926500320435	fix_post	2		12.0	32.0	2.5	/experiments/knapen_aot/videos/S_ILSVRC2015_train_00423000.mp4	0.0	205.72926688194275	0.1000068187713623
35	98.29927182197571	fix_pre	0		3.0	33.0	2.5	/experiments/knapen_aot/videos/R_S_yt-Gc1p5CnDbDY_22.mp4	0.0	205.8292737007141	0.024926185607910156
35	98.31603980064392	response	0	2		33.0	2.5	/experiments/knapen_aot/videos/R_S_yt-Gc1p5CnDbDY_22.mp4	0.0	205.84604167938232	
35	98.32419800758362	movie	1		301.0	33.0	2.5	/experiments/knapen_aot/videos/R_S_yt-Gc1p5CnDbDY_22.mp4	0.0	205.85419988632202	2.5083818435668945
35	100.83257985115051	fix_post	2		12.0	33.0	2.5	/experiments/knapen_aot/videos/R_S_yt-Gc1p5CnDbDY_22.mp4	0.0	208.36258172988892	0.09997296333312988
36	100.93255281448364	fix_pre	0		29.0	34.0	2.5	blank	1.0	208.46255469322205	0.24167203903198242
36	101.16601800918579	response	0	2		34.0	2.5	blank	1.0	208.6960198879242	
36	101.17422485351562	movie	1		301.0	34.0	2.5	blank	1.0	208.70422673225403	2.5083651542663574
36	103.68259000778198	fix_post	2		12.0	34.0	2.5	blank	1.0	211.21259188652039	0.09992599487304688
37	103.78251600265503	fix_pre	0		44.0	35.0	2.5	/experiments/knapen_aot/videos/S_production_ID_4835060.mp4	0.0	211.31251788139343	0.36667680740356445
37	104.14100694656372	response	0	2		35.0	2.5	/experiments/knapen_aot/videos/S_production_ID_4835060.mp4	0.0	211.67100882530212	
37	104.1491928100586	movie	1		173.0	35.0	2.5	/experiments/knapen_aot/videos/S_production_ID_4835060.mp4	0.0	211.679194688797	2.508289098739624
37	106.65748190879822	fix_post	2		12.0	35.0	2.5	/experiments/knapen_aot/videos/S_production_ID_4835060.mp4	0.0	214.18748378753662	0.10004997253417969
38	106.7575318813324	fix_pre	0		30.0	36.0	2.5	/experiments/knapen_aot/videos/R_S_ILSVRC2015_train_00364000.mp4	0.0	214.2875337600708	0.25116395950317383
38	106.99936294555664	response	0	2		36.0	2.5	/experiments/knapen_aot/videos/R_S_ILSVRC2015_train_00364000.mp4	0.0	214.52936482429504	
38	107.00869584083557	movie	1		301.0	36.0	2.5	/experiments/knapen_aot/videos/R_S_ILSVRC2015_train_00364000.mp4	0.0	214.53869771957397	2.5071330070495605
38	109.51582884788513	fix_post	2		12.0	36.0	2.5	/experiments/knapen_aot/videos/R_S_ILSVRC2015_train_00364000.mp4	0.0	217.04583072662354	0.10010313987731934
39	109.61593198776245	fix_pre	0		31.0	37.0	2.5	/experiments/knapen_aot/videos/S_yt-ycQy_fHCK-U_8.mp4	0.0	217.14593386650085	0.25824689865112305
39	109.865975856781	response	0	2		37.0	2.5	/experiments/knapen_aot/videos/S_yt-ycQy_fHCK-U_8.mp4	0.0	217.3959777355194	
39	109.87417888641357	movie	1		301.0	37.0	2.5	/experiments/knapen_aot/videos/S_yt-ycQy_fHCK-U_8.mp4	0.0	217.40418076515198	2.5083820819854736
39	112.38256096839905	fix_post	2		12.0	37.0	2.5	/experiments/knapen_aot/videos/S_yt-ycQy_fHCK-U_8.mp4	0.0	219.91256284713745	0.09994101524353027
40	112.48250198364258	fix_pre	0		18.0	38.0	2.5	/experiments/knapen_aot/videos/R_S_pexels-rodnae-productions-5993671.mp4	0.0	220.01250386238098	0.1511240005493164
40	112.6243188381195	response	0	2		38.0	2.5	/experiments/knapen_aot/videos/R_S_pexels-rodnae-productions-5993671.mp4	0.0	220.1543207168579	
40	112.6336259841919	movie	1		165.0	38.0	2.5	/experiments/knapen_aot/videos/R_S_pexels-rodnae-productions-5993671.mp4	0.0	220.1636278629303	2.5072529315948486
40	115.14087891578674	fix_post	2		12.0	38.0	2.5	/experiments/knapen_aot/videos/R_S_pexels-rodnae-productions-5993671.mp4	0.0	222.67088079452515	0.09998393058776855
41	115.24086284637451	fix_pre	0		12.0	39.0	2.5	/experiments/knapen_aot/videos/S_ILSVRC2015_train_00574000.mp4	0.0	222.77086472511292	0.10114097595214844
41	115.33266997337341	response	0	2		39.0	2.5	/experiments/knapen_aot/videos/S_ILSVRC2015_train_00574000.mp4	0.0	222.86267185211182	
41	115.34200382232666	movie	1		301.0	39.0	2.5	/experiments/knapen_aot/videos/S_ILSVRC2015_train_00574000.mp4	0.0	222.87200570106506	2.507205009460449
41	117.84920883178711	fix_post	2		12.0	39.0	2.5	/experiments/knapen_aot/videos/S_ILSVRC2015_train_00574000.mp4	0.0	225.3792107105255	0.09998798370361328
42	117.94919681549072	fix_pre	0		20.0	40.0	2.5	/experiments/knapen_aot/videos/S_yt-vY49oIv_dWg_73.mp4	0.0	225.47919869422913	0.1665949821472168
42	118.1001148223877	response	0	2		40.0	2.5	/experiments/knapen_aot/videos/S_yt-vY49oIv_dWg_73.mp4	0.0	225.6301167011261	
42	118.11579179763794	movie	1		301.0	40.0	2.5	/experiments/knapen_aot/videos/S_yt-vY49oIv_dWg_73.mp4	0.0	225.64579367637634	2.508369207382202
42	120.62416100502014	fix_post	2		12.0	40.0	2.5	/experiments/knapen_aot/videos/S_yt-vY49oIv_dWg_73.mp4	0.0	228.15416288375854	0.10000181198120117
43	120.72416281700134	fix_pre	0		24.0	41.0	2.5	/experiments/knapen_aot/videos/S_comp_GMT307_136NC_134K_8277_NY_NIGHT_01_v25_SDR_PS_20180907_SDR_2K_AVC.mp4	0.0	228.25416469573975	0.20107197761535645
43	120.91601896286011	response	0	2		41.0	2.5	/experiments/knapen_aot/videos/S_comp_GMT307_136NC_134K_8277_NY_NIGHT_01_v25_SDR_PS_20180907_SDR_2K_AVC.mp4	0.0	228.4460208415985	
43	120.9252347946167	movie	1		167.0	41.0	2.5	/experiments/knapen_aot/videos/S_comp_GMT307_136NC_134K_8277_NY_NIGHT_01_v25_SDR_PS_20180907_SDR_2K_AVC.mp4	0.0	228.4552366733551	2.50728702545166
43	123.43252182006836	fix_post	2		12.0	41.0	2.5	/experiments/knapen_aot/videos/S_comp_GMT307_136NC_134K_8277_NY_NIGHT_01_v25_SDR_PS_20180907_SDR_2K_AVC.mp4	0.0	230.96252369880676	0.09996199607849121
44	123.53248381614685	fix_pre	0		1.0	42.0	2.5	blank	1.0	231.06248569488525	0.010883092880249023
44	123.5353639125824	response	0	2		42.0	2.5	blank	1.0	231.0653657913208	
44	123.5433669090271	movie	1		301.0	42.0	2.5	blank	1.0	231.0733687877655	2.505784034729004
44	126.0491509437561	fix_post	2		12.0	42.0	2.5	blank	1.0	233.5791528224945	0.09999895095825195
45	126.14914989471436	fix_pre	0		26.0	43.0	2.5	/experiments/knapen_aot/videos/R_S_yt-OTNdgakSIJE_97.mp4	0.0	233.67915177345276	0.2166450023651123
45	126.35749197006226	response	0	2		43.0	2.5	/experiments/knapen_aot/videos/R_S_yt-OTNdgakSIJE_97.mp4	0.0	233.88749384880066	
45	126.36579489707947	movie	1		301.0	43.0	2.5	/experiments/knapen_aot/videos/R_S_yt-OTNdgakSIJE_97.mp4	0.0	233.89579677581787	2.5083611011505127
45	128.87415599822998	fix_post	2		12.0	43.0	2.5	/experiments/knapen_aot/videos/R_S_yt-OTNdgakSIJE_97.mp4	0.0	236.40415787696838	0.1000218391418457
46	128.97417783737183	fix_pre	0		11.0	44.0	2.5	/experiments/knapen_aot/videos/R_S_yt-AuQ_WxaNy4Y_255.mp4	0.0	236.50417971611023	0.0916280746459961
46	129.05751585960388	response	0	2		44.0	2.5	/experiments/knapen_aot/videos/R_S_yt-AuQ_WxaNy4Y_255.mp4	0.0	236.58751773834229	
46	129.06580591201782	movie	1		301.0	44.0	2.5	/experiments/knapen_aot/videos/R_S_yt-AuQ_WxaNy4Y_255.mp4	0.0	236.59580779075623	2.508323907852173
46	131.57412981987	fix_post	2		12.0	44.0	2.5	/experiments/knapen_aot/videos/R_S_yt-AuQ_WxaNy4Y_255.mp4	0.0	239.1041316986084	0.09992218017578125
47	131.67405200004578	fix_pre	0		13.0	45.0	2.5	/experiments/knapen_aot/videos/R_S_yt-ZTAaH5XbtfE_3.mp4	0.0	239.20405387878418	0.10832500457763672
47	131.77427577972412	response	0	2		45.0	2.5	/experiments/knapen_aot/videos/R_S_yt-ZTAaH5XbtfE_3.mp4	0.0	239.30427765846252	
47	131.7823770046234	movie	1		301.0	45.0	2.5	/experiments/knapen_aot/videos/R_S_yt-ZTAaH5XbtfE_3.mp4	0.0	239.31237888336182	2.508288860321045
47	134.29066586494446	fix_post	2		12.0	45.0	2.5	/experiments/knapen_aot/videos/R_S_yt-ZTAaH5XbtfE_3.mp4	0.0	241.82066774368286	0.10004496574401855
48	134.39071083068848	fix_pre	0		11.0	46.0	2.5	/experiments/knapen_aot/videos/S_yt--UhwpukdyBg_51.mp4	0.0	241.92071270942688	0.09177899360656738
48	134.4742147922516	response	0	2		46.0	2.5	/experiments/knapen_aot/videos/S_yt--UhwpukdyBg_51.mp4	0.0	242.00421667099	
48	134.48248982429504	movie	1		301.0	46.0	2.5	/experiments/knapen_aot/videos/S_yt--UhwpukdyBg_51.mp4	0.0	242.01249170303345	2.5082650184631348
48	136.99075484275818	fix_post	2		12.0	46.0	2.5	/experiments/knapen_aot/videos/S_yt--UhwpukdyBg_51.mp4	0.0	244.52075672149658	0.10004711151123047
49	137.0908019542694	fix_pre	0		42.0	47.0	2.5	/experiments/knapen_aot/videos/R_S_yt-Y3pi1bgUwIg_78.mp4	0.0	244.6208038330078	0.34987592697143555
49	137.43261194229126	response	0	2		47.0	2.5	/experiments/knapen_aot/videos/R_S_yt-Y3pi1bgUwIg_78.mp4	0.0	244.96261382102966	
49	137.44067788124084	movie	1		301.0	47.0	2.5	/experiments/knapen_aot/videos/R_S_yt-Y3pi1bgUwIg_78.mp4	0.0	244.97067975997925	2.5083529949188232
49	139.94903087615967	fix_post	2		12.0	47.0	2.5	/experiments/knapen_aot/videos/R_S_yt-Y3pi1bgUwIg_78.mp4	0.0	247.47903275489807	0.10106205940246582
50	140.05009293556213	fix_pre	0		50.0	48.0	2.5	blank	1.0	247.58009481430054	0.41663599014282227
50	140.45756196975708	response	0	2		48.0	2.5	blank	1.0	247.98756384849548	
50	140.46672892570496	movie	1		301.0	48.0	2.5	blank	1.0	247.99673080444336	2.507283926010132
50	142.9740128517151	fix_post	2		12.0	48.0	2.5	blank	1.0	250.5040147304535	0.10003805160522461
51	143.0740509033203	fix_pre	0		29.0	49.0	2.5	/experiments/knapen_aot/videos/S_yt-SgiTZNjCPCo_19.mp4	0.0	250.60405278205872	0.24176692962646484
51	143.30751991271973	response	0	2		49.0	2.5	/experiments/knapen_aot/videos/S_yt-SgiTZNjCPCo_19.mp4	0.0	250.83752179145813	
51	143.31581783294678	movie	1		301.0	49.0	2.5	/experiments/knapen_aot/videos/S_yt-SgiTZNjCPCo_19.mp4	0.0	250.84581971168518	2.5082459449768066
51	145.82406377792358	fix_post	2		12.0	49.0	2.5	/experiments/knapen_aot/videos/S_yt-SgiTZNjCPCo_19.mp4	0.0	253.354065656662	0.10097622871398926
52	145.92504000663757	fix_pre	0		22.0	50.0	2.5	/experiments/knapen_aot/videos/R_S_ILSVRC2015_train_00682003.mp4	0.0	253.45504188537598	0.1823258399963379
52	146.09925198554993	response	0	2		50.0	2.5	/experiments/knapen_aot/videos/R_S_ILSVRC2015_train_00682003.mp4	0.0	253.62925386428833	
52	146.1073658466339	movie	1		301.0	50.0	2.5	/experiments/knapen_aot/videos/R_S_ILSVRC2015_train_00682003.mp4	0.0	253.63736772537231	2.508294105529785
52	148.6156599521637	fix_post	2		12.0	50.0	2.5	/experiments/knapen_aot/videos/R_S_ILSVRC2015_train_00682003.mp4	0.0	256.1456618309021	0.09998703002929688
53	148.715646982193	fix_pre	0		8.0	51.0	2.5	/experiments/knapen_aot/videos/R_S_yt-QQPv17nfR_E_2.mp4	0.0	256.2456488609314	0.06680583953857422
53	148.77440094947815	response	0	2		51.0	2.5	/experiments/knapen_aot/videos/R_S_yt-QQPv17nfR_E_2.mp4	0.0	256.30440282821655	
53	148.78245282173157	movie	1		301.0	51.0	2.5	/experiments/knapen_aot/videos/R_S_yt-QQPv17nfR_E_2.mp4	0.0	256.31245470046997	2.508157968521118
53	151.29061079025269	fix_post	2		12.0	51.0	2.5	/experiments/knapen_aot/videos/R_S_yt-QQPv17nfR_E_2.mp4	0.0	258.8206126689911	0.10009407997131348
54	151.390704870224	fix_pre	0		15.0	52.0	2.5	/experiments/knapen_aot/videos/S_pexels-sora-shimazaki-5925295.mp4	0.0	258.9207067489624	0.12493395805358887
54	151.5074269771576	response	0	2		52.0	2.5	/experiments/knapen_aot/videos/S_pexels-sora-shimazaki-5925295.mp4	0.0	259.037428855896	
54	151.5156388282776	movie	1		167.0	52.0	2.5	/experiments/knapen_aot/videos/S_pexels-sora-shimazaki-5925295.mp4	0.0	259.045640707016	2.5083770751953125
54	154.0240159034729	fix_post	2		12.0	52.0	2.5	/experiments/knapen_aot/videos/S_pexels-sora-shimazaki-5925295.mp4	0.0	261.5540177822113	0.09996390342712402
55	154.12397980690002	fix_pre	0		8.0	53.0	2.5	/experiments/knapen_aot/videos/R_S_wc-16LozRfhUGea_49.mp4	0.0	261.6539816856384	0.06665515899658203
55	154.18250584602356	response	0	2		53.0	2.5	/experiments/knapen_aot/videos/R_S_wc-16LozRfhUGea_49.mp4	0.0	261.71250772476196	
55	154.1906349658966	movie	1		301.0	53.0	2.5	/experiments/knapen_aot/videos/R_S_wc-16LozRfhUGea_49.mp4	0.0	261.720636844635	2.508396863937378
55	156.69903182983398	fix_post	2		12.0	53.0	2.5	/experiments/knapen_aot/videos/R_S_wc-16LozRfhUGea_49.mp4	0.0	264.2290337085724	0.10000395774841309
56	156.7990357875824	fix_pre	0		8.0	54.0	2.5	blank	1.0	264.3290376663208	0.06667304039001465
56	156.85745692253113	response	0	2		54.0	2.5	blank	1.0	264.38745880126953	
56	156.8657088279724	movie	1		301.0	54.0	2.5	blank	1.0	264.3957107067108	2.508277177810669
56	159.37398600578308	fix_post	2		12.0	54.0	2.5	blank	1.0	266.9039878845215	0.10000300407409668
57	159.47398900985718	fix_pre	0		25.0	55.0	2.5	/experiments/knapen_aot/videos/R_S_ILSVRC2015_train_00408000.mp4	0.0	267.0039908885956	0.20833683013916016
57	159.6741499900818	response	0	2		55.0	2.5	/experiments/knapen_aot/videos/R_S_ILSVRC2015_train_00408000.mp4	0.0	267.2041518688202	
57	159.68232583999634	movie	1		301.0	55.0	2.5	/experiments/knapen_aot/videos/R_S_ILSVRC2015_train_00408000.mp4	0.0	267.21232771873474	2.5082991123199463
57	162.19062495231628	fix_post	2		12.0	55.0	2.5	/experiments/knapen_aot/videos/R_S_ILSVRC2015_train_00408000.mp4	0.0	269.7206268310547	0.10002803802490234
58	162.2906529903412	fix_pre	0		16.0	56.0	2.5	/experiments/knapen_aot/videos/S_yt-dkBlyE3igk0_44.mp4	0.0	269.8206548690796	0.13420486450195312
58	162.41576099395752	response	0	2		56.0	2.5	/experiments/knapen_aot/videos/S_yt-dkBlyE3igk0_44.mp4	0.0	269.9457628726959	
58	162.42485785484314	movie	1		301.0	56.0	2.5	/experiments/knapen_aot/videos/S_yt-dkBlyE3igk0_44.mp4	0.0	269.95485973358154	2.5074410438537598
58	164.9322988986969	fix_post	2		12.0	56.0	2.5	/experiments/knapen_aot/videos/S_yt-dkBlyE3igk0_44.mp4	0.0	272.4623007774353	0.09999990463256836
59	165.03229880332947	fix_pre	0		6.0	57.0	2.5	/experiments/knapen_aot/videos/R_S_wc-sd8_iKx0t7s7_9.mp4	0.0	272.56230068206787	0.04995608329772949
59	165.0742118358612	response	0	2		57.0	2.5	/experiments/knapen_aot/videos/R_S_wc-sd8_iKx0t7s7_9.mp4	0.0	272.6042137145996	
59	165.0822548866272	movie	1		172.0	57.0	2.5	/experiments/knapen_aot/videos/R_S_wc-sd8_iKx0t7s7_9.mp4	0.0	272.6122567653656	2.5083510875701904
59	167.5906059741974	fix_post	2		12.0	57.0	2.5	/experiments/knapen_aot/videos/R_S_wc-sd8_iKx0t7s7_9.mp4	0.0	275.1206078529358	0.10002994537353516
60	167.69063591957092	fix_pre	0		15.0	58.0	2.5	/experiments/knapen_aot/videos/R_S_yt--UhwpukdyBg_51.mp4	0.0	275.2206377983093	0.12494397163391113
60	167.80749487876892	response	0	2		58.0	2.5	/experiments/knapen_aot/videos/R_S_yt--UhwpukdyBg_51.mp4	0.0	275.3374967575073	
60	167.81557989120483	movie	1		301.0	58.0	2.5	/experiments/knapen_aot/videos/R_S_yt--UhwpukdyBg_51.mp4	0.0	275.34558176994324	2.5083088874816895
60	170.32388877868652	fix_post	2		12.0	58.0	2.5	/experiments/knapen_aot/videos/R_S_yt--UhwpukdyBg_51.mp4	0.0	277.8538906574249	0.10006999969482422
61	170.42395877838135	fix_pre	0		25.0	59.0	2.5	/experiments/knapen_aot/videos/R_S_yt-cjndulbUtRc_51.mp4	0.0	277.95396065711975	0.20921015739440918
61	170.6240849494934	response	0	2		59.0	2.5	/experiments/knapen_aot/videos/R_S_yt-cjndulbUtRc_51.mp4	0.0	278.1540868282318	
61	170.63316893577576	movie	1		301.0	59.0	2.5	/experiments/knapen_aot/videos/R_S_yt-cjndulbUtRc_51.mp4	0.0	278.16317081451416	2.5074379444122314
61	173.140606880188	fix_post	2		12.0	59.0	2.5	/experiments/knapen_aot/videos/R_S_yt-cjndulbUtRc_51.mp4	0.0	280.6706087589264	0.09993696212768555
62	173.24054384231567	fix_pre	0		7.0	60.0	2.5	/experiments/knapen_aot/videos/R_S_video_inspire_italy_como_cerano-dintelvi_006.1080-h264.mp4	0.0	280.7705457210541	0.05918693542480469
62	173.2831928730011	response	0	2		60.0	2.5	/experiments/knapen_aot/videos/R_S_video_inspire_italy_como_cerano-dintelvi_006.1080-h264.mp4	0.0	280.8131947517395	
62	173.29973077774048	movie	1		172.0	60.0	2.5	/experiments/knapen_aot/videos/R_S_video_inspire_italy_como_cerano-dintelvi_006.1080-h264.mp4	0.0	280.8297326564789	2.50747013092041
62	175.8072009086609	fix_post	2		11.0	60.0	2.5	/experiments/knapen_aot/videos/R_S_video_inspire_italy_como_cerano-dintelvi_006.1080-h264.mp4	0.0	283.3372027873993	0.09166789054870605
62	175.89070391654968	response	2	2		60.0	2.5	/experiments/knapen_aot/videos/R_S_video_inspire_italy_como_cerano-dintelvi_006.1080-h264.mp4	0.0	283.4207057952881	
63	175.8988687992096	fix_pre	0		73.0	61.0	2.5	/experiments/knapen_aot/videos/R_S_c5iVM3LI6kI_252.mp4	0.0	283.428870677948	0.6091811656951904
63	176.49908185005188	response	0	2		61.0	2.5	/experiments/knapen_aot/videos/R_S_c5iVM3LI6kI_252.mp4	0.0	284.0290837287903	
63	176.50804996490479	movie	1		301.0	61.0	2.5	/experiments/knapen_aot/videos/R_S_c5iVM3LI6kI_252.mp4	0.0	284.0380518436432	2.507565975189209
63	179.015615940094	fix_post	2		12.0	61.0	2.5	/experiments/knapen_aot/videos/R_S_c5iVM3LI6kI_252.mp4	0.0	286.5456178188324	0.09998583793640137
64	179.1156017780304	fix_pre	0		7.0	62.0	2.5	blank	1.0	286.6456036567688	0.05924105644226074
64	179.16591691970825	response	0	2		62.0	2.5	blank	1.0	286.69591879844666	
64	179.17484283447266	movie	1		301.0	62.0	2.5	blank	1.0	286.70484471321106	2.5074620246887207
64	181.68230485916138	fix_post	2		12.0	62.0	2.5	blank	1.0	289.2123067378998	0.09999895095825195
65	181.78230381011963	fix_pre	0		52.0	63.0	2.5	/experiments/knapen_aot/videos/S_yt-yPl8LcgSMjo_32.mp4	0.0	289.31230568885803	0.4339890480041504
65	182.2073199748993	response	0	2		63.0	2.5	/experiments/knapen_aot/videos/S_yt-yPl8LcgSMjo_32.mp4	0.0	289.7373218536377	
65	182.21629285812378	movie	1		301.0	63.0	2.5	/experiments/knapen_aot/videos/S_yt-yPl8LcgSMjo_32.mp4	0.0	289.7462947368622	2.5076370239257812
65	184.72392988204956	fix_post	2		12.0	63.0	2.5	/experiments/knapen_aot/videos/S_yt-yPl8LcgSMjo_32.mp4	0.0	292.25393176078796	0.0998539924621582
66	184.82378387451172	fix_pre	0		19.0	64.0	2.5	/experiments/knapen_aot/videos/R_S_yt-gzjV6YoK6X0_3.mp4	0.0	292.3537857532501	0.15845704078674316
66	184.97403597831726	response	0	2		64.0	2.5	/experiments/knapen_aot/videos/R_S_yt-gzjV6YoK6X0_3.mp4	0.0	292.50403785705566	
66	184.98224091529846	movie	1		301.0	64.0	2.5	/experiments/knapen_aot/videos/R_S_yt-gzjV6YoK6X0_3.mp4	0.0	292.51224279403687	2.5083279609680176
66	187.49056887626648	fix_post	2		12.0	64.0	2.5	/experiments/knapen_aot/videos/R_S_yt-gzjV6YoK6X0_3.mp4	0.0	295.0205707550049	0.09998011589050293
67	187.59054899215698	fix_pre	0		48.0	65.0	2.5	/experiments/knapen_aot/videos/R_S_yt-e_eOzV7qMZo_374.mp4	0.0	295.1205508708954	0.40000200271606445
67	187.98236680030823	response	0	2		65.0	2.5	/experiments/knapen_aot/videos/R_S_yt-e_eOzV7qMZo_374.mp4	0.0	295.51236867904663	
67	187.99055099487305	movie	1		301.0	65.0	2.5	/experiments/knapen_aot/videos/R_S_yt-e_eOzV7qMZo_374.mp4	0.0	295.52055287361145	2.5083467960357666
67	190.4988977909088	fix_post	2		12.0	65.0	2.5	/experiments/knapen_aot/videos/R_S_yt-e_eOzV7qMZo_374.mp4	0.0	298.0288996696472	0.0999751091003418
68	190.59887290000916	fix_pre	0		17.0	66.0	2.5	/experiments/knapen_aot/videos/S_yt-Gc1p5CnDbDY_22.mp4	0.0	298.12887477874756	0.14160609245300293
68	190.73232793807983	response	0	2		66.0	2.5	/experiments/knapen_aot/videos/S_yt-Gc1p5CnDbDY_22.mp4	0.0	298.26232981681824	
68	190.74047899246216	movie	1		301.0	66.0	2.5	/experiments/knapen_aot/videos/S_yt-Gc1p5CnDbDY_22.mp4	0.0	298.27048087120056	2.50832200050354
68	193.2488009929657	fix_post	2		12.0	66.0	2.5	/experiments/knapen_aot/videos/S_yt-Gc1p5CnDbDY_22.mp4	0.0	300.7788028717041	0.10010695457458496
69	193.34890794754028	fix_pre	0		19.0	67.0	2.5	/experiments/knapen_aot/videos/R_S_yt-7K5X1G7Cpls_965.mp4	0.0	300.8789098262787	0.15897583961486816
69	193.49896597862244	response	0	2		67.0	2.5	/experiments/knapen_aot/videos/R_S_yt-7K5X1G7Cpls_965.mp4	0.0	301.02896785736084	
69	193.50788378715515	movie	1		301.0	67.0	2.5	/experiments/knapen_aot/videos/R_S_yt-7K5X1G7Cpls_965.mp4	0.0	301.03788566589355	2.5076231956481934
69	196.01550698280334	fix_post	2		12.0	67.0	2.5	/experiments/knapen_aot/videos/R_S_yt-7K5X1G7Cpls_965.mp4	0.0	303.54550886154175	0.0999898910522461
70	196.1154968738556	fix_pre	0		32.0	68.0	2.5	/experiments/knapen_aot/videos/R_S_ILSVRC2015_train_00165011.mp4	0.0	303.645498752594	0.2673981189727783
70	196.3665428161621	response	0	2		68.0	2.5	/experiments/knapen_aot/videos/R_S_ILSVRC2015_train_00165011.mp4	0.0	303.8965446949005	
70	196.38289499282837	movie	1		301.0	68.0	2.5	/experiments/knapen_aot/videos/R_S_ILSVRC2015_train_00165011.mp4	0.0	303.9128968715668	2.5076639652252197
70	198.8905589580536	fix_post	2		12.0	68.0	2.5	/experiments/knapen_aot/videos/R_S_ILSVRC2015_train_00165011.mp4	0.0	306.420560836792	0.09995889663696289
71	198.99051785469055	fix_pre	0		20.0	69.0	2.5	blank	1.0	306.52051973342896	0.16664409637451172
71	199.1489598751068	response	0	2		69.0	2.5	blank	1.0	306.6789617538452	
71	199.15716195106506	movie	1		301.0	69.0	2.5	blank	1.0	306.68716382980347	2.508349895477295
71	201.66551184654236	fix_post	2		12.0	69.0	2.5	blank	1.0	309.19551372528076	0.10001516342163086
72	201.765527009964	fix_pre	0		29.0	70.0	2.5	/experiments/knapen_aot/videos/R_S_yt-lkpfs_4qAGE_50.mp4	0.0	309.2955288887024	0.24228382110595703
72	201.99890995025635	response	0	2		70.0	2.5	/experiments/knapen_aot/videos/R_S_yt-lkpfs_4qAGE_50.mp4	0.0	309.52891182899475	
72	202.00781083106995	movie	1		301.0	70.0	2.5	/experiments/knapen_aot/videos/R_S_yt-lkpfs_4qAGE_50.mp4	0.0	309.53781270980835	2.5077199935913086
72	204.51553082466125	fix_post	2		12.0	70.0	2.5	/experiments/knapen_aot/videos/R_S_yt-lkpfs_4qAGE_50.mp4	0.0	312.04553270339966	0.09995007514953613
73	204.6154808998108	fix_pre	0		19.0	71.0	2.5	/experiments/knapen_aot/videos/S_yt-4W224-RSCnM_15.mp4	0.0	312.1454827785492	0.15832996368408203
73	204.76562190055847	response	0	2		71.0	2.5	/experiments/knapen_aot/videos/S_yt-4W224-RSCnM_15.mp4	0.0	312.2956237792969	
73	204.77381086349487	movie	1		300.0	71.0	2.5	/experiments/knapen_aot/videos/S_yt-4W224-RSCnM_15.mp4	0.0	312.3038127422333	2.508258104324341
73	207.2820689678192	fix_post	2		12.0	71.0	2.5	/experiments/knapen_aot/videos/S_yt-4W224-RSCnM_15.mp4	0.0	314.8120708465576	0.1000678539276123
74	207.38213682174683	fix_pre	0		4.0	72.0	2.5	/experiments/knapen_aot/videos/S_production_ID_4720614.mp4	0.0	314.91213870048523	0.03331899642944336
74	207.40724182128906	response	0	2		72.0	2.5	/experiments/knapen_aot/videos/S_production_ID_4720614.mp4	0.0	314.93724370002747	
74	207.41545581817627	movie	1		197.0	72.0	2.5	/experiments/knapen_aot/videos/S_production_ID_4720614.mp4	0.0	314.9454576969147	2.508216142654419
74	209.9236719608307	fix_post	2		12.0	72.0	2.5	/experiments/knapen_aot/videos/S_production_ID_4720614.mp4	0.0	317.4536738395691	0.1000828742980957
74	210.0155098438263	response	2	2		72.0	2.5	/experiments/knapen_aot/videos/S_production_ID_4720614.mp4	0.0	317.5455117225647	
75	210.02375483512878	fix_pre	0		65.0	73.0	2.5	/experiments/knapen_aot/videos/S_video-12.mp4	0.0	317.5537567138672	0.5416390895843506
75	210.55718088150024	response	0	2		73.0	2.5	/experiments/knapen_aot/videos/S_video-12.mp4	0.0	318.08718276023865	
75	210.56539392471313	movie	1		166.0	73.0	2.5	/experiments/knapen_aot/videos/S_video-12.mp4	0.0	318.09539580345154	2.5083630084991455
75	213.07375693321228	fix_post	2		12.0	73.0	2.5	/experiments/knapen_aot/videos/S_video-12.mp4	0.0	320.6037588119507	0.10003399848937988
76	213.17379093170166	fix_pre	0		3.0	74.0	2.5	/experiments/knapen_aot/videos/S_yt-ThT8utBaywI_68.mp4	0.0	320.70379281044006	0.025037050247192383
76	213.19062900543213	response	0	2		74.0	2.5	/experiments/knapen_aot/videos/S_yt-ThT8utBaywI_68.mp4	0.0	320.72063088417053	
76	213.19882798194885	movie	1		301.0	74.0	2.5	/experiments/knapen_aot/videos/S_yt-ThT8utBaywI_68.mp4	0.0	320.72882986068726	2.508309841156006
76	215.70713782310486	fix_post	2		12.0	74.0	2.5	/experiments/knapen_aot/videos/S_yt-ThT8utBaywI_68.mp4	0.0	323.23713970184326	0.09998798370361328
77	215.80712580680847	fix_pre	0		10.0	75.0	2.5	/experiments/knapen_aot/videos/S_yt-4W224-RSCnM_15.mp4	0.0	323.3371276855469	0.08334898948669434
77	215.87466979026794	response	0	2		75.0	2.5	/experiments/knapen_aot/videos/S_yt-4W224-RSCnM_15.mp4	0.0	323.40467166900635	
77	215.89047479629517	movie	1		301.0	75.0	2.5	/experiments/knapen_aot/videos/S_yt-4W224-RSCnM_15.mp4	0.0	323.42047667503357	2.508233070373535
77	218.3987078666687	fix_post	2		12.0	75.0	2.5	/experiments/knapen_aot/videos/S_yt-4W224-RSCnM_15.mp4	0.0	325.9287097454071	0.09998106956481934
78	218.49868893623352	fix_pre	0		8.0	76.0	2.5	blank	1.0	326.0286908149719	0.06664896011352539
78	218.55725288391113	response	0	2		76.0	2.5	blank	1.0	326.08725476264954	
78	218.56533789634705	movie	1		301.0	76.0	2.5	blank	1.0	326.09533977508545	2.5083329677581787
78	221.07367086410522	fix_post	2		12.0	76.0	2.5	blank	1.0	328.6036727428436	0.10011100769042969
79	221.17378187179565	fix_pre	0		82.0	77.0	2.5	/experiments/knapen_aot/videos/R_S_yt-1RGHXtepryM_44.mp4	0.0	328.70378375053406	0.6832280158996582
79	221.84885096549988	response	0	2		77.0	2.5	/experiments/knapen_aot/videos/R_S_yt-1RGHXtepryM_44.mp4	0.0	329.3788528442383	
79	221.8570098876953	movie	1		300.0	77.0	2.5	/experiments/knapen_aot/videos/R_S_yt-1RGHXtepryM_44.mp4	0.0	329.3870117664337	2.508388042449951
79	224.36539793014526	fix_post	2		12.0	77.0	2.5	/experiments/knapen_aot/videos/R_S_yt-1RGHXtepryM_44.mp4	0.0	331.89539980888367	0.09992194175720215
80	224.46531987190247	fix_pre	0		9.0	78.0	2.5	/experiments/knapen_aot/videos/S_yt-RqWnxg1wT-0_41.mp4	0.0	331.99532175064087	0.07496809959411621
80	224.53217697143555	response	0	2		78.0	2.5	/experiments/knapen_aot/videos/S_yt-RqWnxg1wT-0_41.mp4	0.0	332.06217885017395	
80	224.54028797149658	movie	1		301.0	78.0	2.5	/experiments/knapen_aot/videos/S_yt-RqWnxg1wT-0_41.mp4	0.0	332.070289850235	2.5084288120269775
80	227.04871678352356	fix_post	2		12.0	78.0	2.5	/experiments/knapen_aot/videos/S_yt-RqWnxg1wT-0_41.mp4	0.0	334.57871866226196	0.09993505477905273
81	227.1486518383026	fix_pre	0		45.0	79.0	2.5	/experiments/knapen_aot/videos/S_yt-yJmHtBFyhH4_15.mp4	0.0	334.678653717041	0.37497997283935547
81	227.5079698562622	response	0	2		79.0	2.5	/experiments/knapen_aot/videos/S_yt-yJmHtBFyhH4_15.mp4	0.0	335.0379717350006	
81	227.52363181114197	movie	1		301.0	79.0	2.5	/experiments/knapen_aot/videos/S_yt-yJmHtBFyhH4_15.mp4	0.0	335.05363368988037	2.5083510875701904
81	230.03198289871216	fix_post	2		12.0	79.0	2.5	/experiments/knapen_aot/videos/S_yt-yJmHtBFyhH4_15.mp4	0.0	337.56198477745056	0.10057497024536133
82	230.13255786895752	fix_pre	0		43.0	80.0	2.5	/experiments/knapen_aot/videos/R_S_yt-VQtbKGzI9SE_431.mp4	0.0	337.6625597476959	0.35768604278564453
82	230.4821469783783	response	0	2		80.0	2.5	/experiments/knapen_aot/videos/R_S_yt-VQtbKGzI9SE_431.mp4	0.0	338.0121488571167	
82	230.49024391174316	movie	1		301.0	80.0	2.5	/experiments/knapen_aot/videos/R_S_yt-VQtbKGzI9SE_431.mp4	0.0	338.02024579048157	2.5084118843078613
82	232.99865579605103	fix_post	2		12.0	80.0	2.5	/experiments/knapen_aot/videos/R_S_yt-VQtbKGzI9SE_431.mp4	0.0	340.52865767478943	0.09997320175170898
83	233.09862899780273	fix_pre	0		11.0	81.0	2.5	/experiments/knapen_aot/videos/R_S_yt-3EZOeAbiMQE_10.mp4	0.0	340.62863087654114	0.09171080589294434
83	233.18234086036682	response	0	2		81.0	2.5	/experiments/knapen_aot/videos/R_S_yt-3EZOeAbiMQE_10.mp4	0.0	340.7123427391052	
83	233.19033980369568	movie	1		301.0	81.0	2.5	/experiments/knapen_aot/videos/R_S_yt-3EZOeAbiMQE_10.mp4	0.0	340.7203416824341	2.5083611011505127
83	235.6987009048462	fix_post	2		12.0	81.0	2.5	/experiments/knapen_aot/videos/R_S_yt-3EZOeAbiMQE_10.mp4	0.0	343.2287027835846	0.10000205039978027
84	235.79870295524597	fix_pre	0		20.0	82.0	2.5	blank	1.0	343.3287048339844	0.16723990440368652
84	235.9571349620819	response	0	2		82.0	2.5	blank	1.0	343.4871368408203	
84	235.96594285964966	movie	1		301.0	82.0	2.5	blank	1.0	343.49594473838806	2.507704973220825
84	238.47364783287048	fix_post	2		12.0	82.0	2.5	blank	1.0	346.0036497116089	0.0999610424041748
85	238.57360887527466	fix_pre	0		28.0	83.0	2.5	/experiments/knapen_aot/videos/R_S_video-12.mp4	0.0	346.10361075401306	0.2332761287689209
85	238.79875493049622	response	0	2		83.0	2.5	/experiments/knapen_aot/videos/R_S_video-12.mp4	0.0	346.3287568092346	
85	238.80688500404358	movie	1		168.0	83.0	2.5	/experiments/knapen_aot/videos/R_S_video-12.mp4	0.0	346.336886882782	2.5084187984466553
85	241.31530380249023	fix_post	2		12.0	83.0	2.5	/experiments/knapen_aot/videos/R_S_video-12.mp4	0.0	348.84530568122864	0.09994101524353027
87	241.41524481773376	stim	0		485.0					348.94524669647217	4.043555974960327
87	241.44875192642212	response	0	2						348.9787538051605	
87	242.13208484649658	response	0	2						349.662086725235	
87	245.4533679485321	response	0	space						352.9833698272705	
