trial_nr	onset	event_type	phase	response	nr_frames	movie_index	movie_duration	movie_file	blank	onset_abs	duration
0	0.12508702278137207	stim	0		64.0					74.4652030467987	0.5338039398193359
0	0.6501729488372803	response	0	space						74.99028897285461	
1	0.658890962600708	stim	0		121.0					74.99900698661804	1.0073330402374268
1	1.6247799396514893	response	0	space						75.96489596366882	
1	1.6662240028381348	stim	1		120.0					76.00634002685547	1.0000989437103271
1	2.2497029304504395	response	1	space						76.58981895446777	
2	2.666322946548462	fix_pre	0		41.0	0.0	2.5	/experiments/knapen_aot/videos/R_S_yt--a-d97T4Gak_75.mp4	0.0	77.0064389705658	0.341580867767334
2	2.99973201751709	response	0	space		0.0	2.5	/experiments/knapen_aot/videos/R_S_yt--a-d97T4Gak_75.mp4	0.0	77.33984804153442	
2	3.007903814315796	movie	1		301.0	0.0	2.5	/experiments/knapen_aot/videos/R_S_yt--a-d97T4Gak_75.mp4	0.0	77.34801983833313	2.5083651542663574
2	5.516268968582153	fix_post	2		12.0	0.0	2.5	/experiments/knapen_aot/videos/R_S_yt--a-d97T4Gak_75.mp4	0.0	79.85638499259949	0.1000359058380127
3	5.616304874420166	fix_pre	0		3.0	1.0	2.5	/experiments/knapen_aot/videos/S_yt-HMAa2QbfFPI_216.mp4	0.0	79.9564208984375	0.0249941349029541
3	5.633916854858398	response	0	2		1.0	2.5	/experiments/knapen_aot/videos/S_yt-HMAa2QbfFPI_216.mp4	0.0	79.97403287887573	
3	5.64129900932312	movie	1		301.0	1.0	2.5	/experiments/knapen_aot/videos/S_yt-HMAa2QbfFPI_216.mp4	0.0	79.98141503334045	2.5083439350128174
3	8.149642944335938	fix_post	2		12.0	1.0	2.5	/experiments/knapen_aot/videos/S_yt-HMAa2QbfFPI_216.mp4	0.0	82.48975896835327	0.10001206398010254
4	8.24965500831604	fix_pre	0		7.0	2.0	2.5	/experiments/knapen_aot/videos/S_production_ID_4510622.mp4	0.0	82.58977103233337	0.05828380584716797
4	8.29977798461914	response	0	2		2.0	2.5	/experiments/knapen_aot/videos/S_production_ID_4510622.mp4	0.0	82.63989400863647	
4	8.307938814163208	movie	1		164.0	2.0	2.5	/experiments/knapen_aot/videos/S_production_ID_4510622.mp4	0.0	82.64805483818054	2.5083529949188232
4	10.816291809082031	fix_post	2		12.0	2.0	2.5	/experiments/knapen_aot/videos/S_production_ID_4510622.mp4	0.0	85.15640783309937	0.09999799728393555
5	10.916289806365967	fix_pre	0		7.0	3.0	2.5	/experiments/knapen_aot/videos/R_S_yt-he_RSdeVinA_68.mp4	0.0	85.2564058303833	0.05832505226135254
5	10.966487884521484	response	0	2		3.0	2.5	/experiments/knapen_aot/videos/R_S_yt-he_RSdeVinA_68.mp4	0.0	85.30660390853882	
5	10.97461485862732	movie	1		301.0	3.0	2.5	/experiments/knapen_aot/videos/R_S_yt-he_RSdeVinA_68.mp4	0.0	85.31473088264465	2.508449077606201
5	13.48306393623352	fix_post	2		12.0	3.0	2.5	/experiments/knapen_aot/videos/R_S_yt-he_RSdeVinA_68.mp4	0.0	87.82317996025085	0.09984803199768066
6	13.582911968231201	fix_pre	0		19.0	4.0	2.5	/experiments/knapen_aot/videos/S_ILSVRC2015_train_00479004.mp4	0.0	87.92302799224854	0.1587529182434082
6	13.732990980148315	response	0	2		4.0	2.5	/experiments/knapen_aot/videos/S_ILSVRC2015_train_00479004.mp4	0.0	88.07310700416565	
6	13.74166488647461	movie	1		301.0	4.0	2.5	/experiments/knapen_aot/videos/S_ILSVRC2015_train_00479004.mp4	0.0	88.08178091049194	2.50789213180542
6	16.24955701828003	fix_post	2		12.0	4.0	2.5	/experiments/knapen_aot/videos/S_ILSVRC2015_train_00479004.mp4	0.0	90.58967304229736	0.09999394416809082
7	16.34955096244812	fix_pre	0		11.0	5.0	2.5	/experiments/knapen_aot/videos/R_S_yt-CNq5mTA8oXY_176.mp4	0.0	90.68966698646545	0.0916450023651123
7	16.433067798614502	response	0	2		5.0	2.5	/experiments/knapen_aot/videos/R_S_yt-CNq5mTA8oXY_176.mp4	0.0	90.77318382263184	
7	16.441195964813232	movie	1		301.0	5.0	2.5	/experiments/knapen_aot/videos/R_S_yt-CNq5mTA8oXY_176.mp4	0.0	90.78131198883057	2.508384943008423
7	18.949580907821655	fix_post	2		12.0	5.0	2.5	/experiments/knapen_aot/videos/R_S_yt-CNq5mTA8oXY_176.mp4	0.0	93.28969693183899	0.09995508193969727
8	19.049535989761353	fix_pre	0		1.0	6.0	2.5	/experiments/knapen_aot/videos/R_S_yt-2V2tq9-O_Nc_1669.mp4	0.0	93.38965201377869	0.011607885360717773
8	19.05123496055603	response	0	2		6.0	2.5	/experiments/knapen_aot/videos/R_S_yt-2V2tq9-O_Nc_1669.mp4	0.0	93.39135098457336	
8	19.06114387512207	movie	1		301.0	6.0	2.5	/experiments/knapen_aot/videos/R_S_yt-2V2tq9-O_Nc_1669.mp4	0.0	93.4012598991394	2.5050389766693115
8	21.566182851791382	fix_post	2		12.0	6.0	2.5	/experiments/knapen_aot/videos/R_S_yt-2V2tq9-O_Nc_1669.mp4	0.0	95.90629887580872	0.10005998611450195
9	21.666242837905884	fix_pre	0		14.0	7.0	2.5	blank	1.0	96.00635886192322	0.11707901954650879
9	21.77477788925171	response	0	2		7.0	2.5	blank	1.0	96.11489391326904	
9	21.783321857452393	movie	1		301.0	7.0	2.5	blank	1.0	96.12343788146973	2.5079190731048584
9	24.29124093055725	fix_post	2		12.0	7.0	2.5	blank	1.0	98.63135695457458	0.10002708435058594
10	24.391268014907837	fix_pre	0		24.0	8.0	2.5	/experiments/knapen_aot/videos/R_S_ILSVRC2015_train_00563000.mp4	0.0	98.73138403892517	0.1999650001525879
10	24.582926988601685	response	0	2		8.0	2.5	/experiments/knapen_aot/videos/R_S_ILSVRC2015_train_00563000.mp4	0.0	98.92304301261902	
10	24.591233015060425	movie	1		296.0	8.0	2.5	/experiments/knapen_aot/videos/R_S_ILSVRC2015_train_00563000.mp4	0.0	98.93134903907776	2.508251905441284
10	27.09948492050171	fix_post	2		12.0	8.0	2.5	/experiments/knapen_aot/videos/R_S_ILSVRC2015_train_00563000.mp4	0.0	101.43960094451904	0.10039496421813965
11	27.19987988471985	fix_pre	0		7.0	9.0	2.5	/experiments/knapen_aot/videos/S_yt-83nimFMNhrM_131.mp4	0.0	101.53999590873718	0.057969093322753906
11	27.242592811584473	response	0	2		9.0	2.5	/experiments/knapen_aot/videos/S_yt-83nimFMNhrM_131.mp4	0.0	101.5827088356018	
11	27.257848978042603	movie	1		301.0	9.0	2.5	/experiments/knapen_aot/videos/S_yt-83nimFMNhrM_131.mp4	0.0	101.59796500205994	2.5083060264587402
11	29.766155004501343	fix_post	2		12.0	9.0	2.5	/experiments/knapen_aot/videos/S_yt-83nimFMNhrM_131.mp4	0.0	104.10627102851868	0.1003718376159668
12	29.86652684211731	fix_pre	0		17.0	10.0	2.5	/experiments/knapen_aot/videos/R_S_yt-_BvMLZo0MG0_1226.mp4	0.0	104.20664286613464	0.14129400253295898
12	29.99962592124939	response	0	2		10.0	2.5	/experiments/knapen_aot/videos/R_S_yt-_BvMLZo0MG0_1226.mp4	0.0	104.33974194526672	
12	30.00782084465027	movie	1		301.0	10.0	2.5	/experiments/knapen_aot/videos/R_S_yt-_BvMLZo0MG0_1226.mp4	0.0	104.3479368686676	2.5083510875701904
12	32.51617193222046	fix_post	2		12.0	10.0	2.5	/experiments/knapen_aot/videos/R_S_yt-_BvMLZo0MG0_1226.mp4	0.0	106.8562879562378	0.1003420352935791
13	32.61651396751404	fix_pre	0		8.0	11.0	2.5	/experiments/knapen_aot/videos/R_S_yt-e_eOzV7qMZo_374.mp4	0.0	106.95662999153137	0.06630301475524902
13	32.674546003341675	response	0	2		11.0	2.5	/experiments/knapen_aot/videos/R_S_yt-e_eOzV7qMZo_374.mp4	0.0	107.01466202735901	
13	32.68281698226929	movie	1		301.0	11.0	2.5	/experiments/knapen_aot/videos/R_S_yt-e_eOzV7qMZo_374.mp4	0.0	107.02293300628662	2.5082778930664062
13	35.19109487533569	fix_post	2		12.0	11.0	2.5	/experiments/knapen_aot/videos/R_S_yt-e_eOzV7qMZo_374.mp4	0.0	109.53121089935303	0.10004806518554688
14	35.29114294052124	fix_pre	0		8.0	12.0	2.5	/experiments/knapen_aot/videos/S_yt-KQq7vTlXUiQ_173.mp4	0.0	109.63125896453857	0.0684208869934082
14	35.349937915802	response	0	2		12.0	2.5	/experiments/knapen_aot/videos/S_yt-KQq7vTlXUiQ_173.mp4	0.0	109.69005393981934	
14	35.35956382751465	movie	1		301.0	12.0	2.5	/experiments/knapen_aot/videos/S_yt-KQq7vTlXUiQ_173.mp4	0.0	109.69967985153198	2.5065441131591797
14	37.86610794067383	fix_post	2		12.0	12.0	2.5	/experiments/knapen_aot/videos/S_yt-KQq7vTlXUiQ_173.mp4	0.0	112.20622396469116	0.10003089904785156
14	37.899571895599365	response	2	2		12.0	2.5	/experiments/knapen_aot/videos/S_yt-KQq7vTlXUiQ_173.mp4	0.0	112.2396879196167	
15	37.96613883972168	fix_pre	0		41.0	13.0	2.5	blank	1.0	112.30625486373901	0.34165406227111816
15	38.29951095581055	response	0	2		13.0	2.5	blank	1.0	112.63962697982788	
15	38.3077929019928	movie	1		301.0	13.0	2.5	blank	1.0	112.64790892601013	2.5083041191101074
15	40.816097021102905	fix_post	2		12.0	13.0	2.5	blank	1.0	115.15621304512024	0.09999585151672363
16	40.91609287261963	fix_pre	0		22.0	14.0	2.5	/experiments/knapen_aot/videos/R_S_yt-3ohvpS42xug_184.mp4	0.0	115.25620889663696	0.1833500862121582
16	41.09116792678833	response	0	2		14.0	2.5	/experiments/knapen_aot/videos/R_S_yt-3ohvpS42xug_184.mp4	0.0	115.43128395080566	
16	41.09944295883179	movie	1		300.0	14.0	2.5	/experiments/knapen_aot/videos/R_S_yt-3ohvpS42xug_184.mp4	0.0	115.43955898284912	2.508347988128662
16	43.60779094696045	fix_post	2		12.0	14.0	2.5	/experiments/knapen_aot/videos/R_S_yt-3ohvpS42xug_184.mp4	0.0	117.94790697097778	0.10008406639099121
17	43.70787501335144	fix_pre	0		5.0	15.0	2.5	/experiments/knapen_aot/videos/S_yt-_BvMLZo0MG0_1226.mp4	0.0	118.04799103736877	0.04155588150024414
17	43.74125385284424	response	0	2		15.0	2.5	/experiments/knapen_aot/videos/S_yt-_BvMLZo0MG0_1226.mp4	0.0	118.08136987686157	
17	43.749430894851685	movie	1		301.0	15.0	2.5	/experiments/knapen_aot/videos/S_yt-_BvMLZo0MG0_1226.mp4	0.0	118.08954691886902	2.5083720684051514
17	46.257802963256836	fix_post	2		12.0	15.0	2.5	/experiments/knapen_aot/videos/S_yt-_BvMLZo0MG0_1226.mp4	0.0	120.59791898727417	0.09993195533752441
18	46.35773491859436	fix_pre	0		18.0	16.0	2.5	/experiments/knapen_aot/videos/R_S_yt-146gReE6xKw_379.mp4	0.0	120.6978509426117	0.149993896484375
18	46.499576807022095	response	0	2		16.0	2.5	/experiments/knapen_aot/videos/R_S_yt-146gReE6xKw_379.mp4	0.0	120.83969283103943	
18	46.507728815078735	movie	1		301.0	16.0	2.5	/experiments/knapen_aot/videos/R_S_yt-146gReE6xKw_379.mp4	0.0	120.84784483909607	2.5083839893341064
18	49.01611280441284	fix_post	2		12.0	16.0	2.5	/experiments/knapen_aot/videos/R_S_yt-146gReE6xKw_379.mp4	0.0	123.35622882843018	0.10023307800292969
19	49.11634588241577	fix_pre	0		20.0	17.0	2.5	/experiments/knapen_aot/videos/R_S_yt-kXarkCFJLeg_46.mp4	0.0	123.4564619064331	0.1666431427001953
19	49.274587869644165	response	0	2		17.0	2.5	/experiments/knapen_aot/videos/R_S_yt-kXarkCFJLeg_46.mp4	0.0	123.6147038936615	
19	49.28298902511597	movie	1		300.0	17.0	2.5	/experiments/knapen_aot/videos/R_S_yt-kXarkCFJLeg_46.mp4	0.0	123.6231050491333	2.508023977279663
19	51.79101300239563	fix_post	2		12.0	17.0	2.5	/experiments/knapen_aot/videos/R_S_yt-kXarkCFJLeg_46.mp4	0.0	126.13112902641296	0.10006499290466309
20	51.89107799530029	fix_pre	0		5.0	18.0	2.5	/experiments/knapen_aot/videos/R_S_bing-www_yahoo_com_entertainment_anastasia-karanikolaou-chantel-jeffries-discuss-182400502_html_9.mp4	0.0	126.23119401931763	0.04170584678649902
20	51.916987895965576	response	0	2		18.0	2.5	/experiments/knapen_aot/videos/R_S_bing-www_yahoo_com_entertainment_anastasia-karanikolaou-chantel-jeffries-discuss-182400502_html_9.mp4	0.0	126.25710391998291	
20	51.93278384208679	movie	1		164.0	18.0	2.5	/experiments/knapen_aot/videos/R_S_bing-www_yahoo_com_entertainment_anastasia-karanikolaou-chantel-jeffries-discuss-182400502_html_9.mp4	0.0	126.27289986610413	2.5083160400390625
20	54.441099882125854	fix_post	2		12.0	18.0	2.5	/experiments/knapen_aot/videos/R_S_bing-www_yahoo_com_entertainment_anastasia-karanikolaou-chantel-jeffries-discuss-182400502_html_9.mp4	0.0	128.7812159061432	0.09993910789489746
21	54.54103899002075	fix_pre	0		8.0	19.0	2.5	blank	1.0	128.8811550140381	0.06667184829711914
21	54.59958100318909	response	0	2		19.0	2.5	blank	1.0	128.93969702720642	
21	54.60771083831787	movie	1		301.0	19.0	2.5	blank	1.0	128.9478268623352	2.508660078048706
21	57.11637091636658	fix_post	2		12.0	19.0	2.5	blank	1.0	131.4564869403839	0.09966301918029785
22	57.216033935546875	fix_pre	0		97.0	20.0	2.5	/experiments/knapen_aot/videos/R_S_yt-B7ZRYVhfW2U_52.mp4	0.0	131.5561499595642	0.8083250522613525
22	58.016209840774536	response	0	2		20.0	2.5	/experiments/knapen_aot/videos/R_S_yt-B7ZRYVhfW2U_52.mp4	0.0	132.35632586479187	
22	58.02435898780823	movie	1		301.0	20.0	2.5	/experiments/knapen_aot/videos/R_S_yt-B7ZRYVhfW2U_52.mp4	0.0	132.36447501182556	2.508582830429077
22	60.532941818237305	fix_post	2		12.0	20.0	2.5	/experiments/knapen_aot/videos/R_S_yt-B7ZRYVhfW2U_52.mp4	0.0	134.87305784225464	0.0997931957244873
23	60.63273501396179	fix_pre	0		4.0	21.0	2.5	/experiments/knapen_aot/videos/R_S_yt-kINZMjys3O4_112.mp4	0.0	134.97285103797913	0.033374786376953125
23	60.65116500854492	response	0	2		21.0	2.5	/experiments/knapen_aot/videos/R_S_yt-kINZMjys3O4_112.mp4	0.0	134.99128103256226	
23	60.666109800338745	movie	1		300.0	21.0	2.5	/experiments/knapen_aot/videos/R_S_yt-kINZMjys3O4_112.mp4	0.0	135.00622582435608	2.508331060409546
23	63.17444086074829	fix_post	2		12.0	21.0	2.5	/experiments/knapen_aot/videos/R_S_yt-kINZMjys3O4_112.mp4	0.0	137.51455688476562	0.09991598129272461
24	63.274356842041016	fix_pre	0		7.0	22.0	2.5	/experiments/knapen_aot/videos/S_comp_LA_A005_C009_PSNK_ALT_v09_SDR_PS_201809134_SDR_2K_AVC.mp4	0.0	137.61447286605835	0.05827212333679199
24	63.32452893257141	response	0	2		22.0	2.5	/experiments/knapen_aot/videos/S_comp_LA_A005_C009_PSNK_ALT_v09_SDR_PS_201809134_SDR_2K_AVC.mp4	0.0	137.66464495658875	
24	63.33262896537781	movie	1		167.0	22.0	2.5	/experiments/knapen_aot/videos/S_comp_LA_A005_C009_PSNK_ALT_v09_SDR_PS_201809134_SDR_2K_AVC.mp4	0.0	137.67274498939514	2.5084068775177
24	65.84103584289551	fix_post	2		12.0	22.0	2.5	/experiments/knapen_aot/videos/S_comp_LA_A005_C009_PSNK_ALT_v09_SDR_PS_201809134_SDR_2K_AVC.mp4	0.0	140.18115186691284	0.10155105590820312
24	65.93280792236328	response	2	2		22.0	2.5	/experiments/knapen_aot/videos/S_comp_LA_A005_C009_PSNK_ALT_v09_SDR_PS_201809134_SDR_2K_AVC.mp4	0.0	140.27292394638062	
25	65.94258689880371	fix_pre	0		51.0	23.0	2.5	/experiments/knapen_aot/videos/R_S_pexels-marcus-aurelius-6785014.mp4	0.0	140.28270292282104	0.4235711097717285
25	66.35781693458557	response	0	2		23.0	2.5	/experiments/knapen_aot/videos/R_S_pexels-marcus-aurelius-6785014.mp4	0.0	140.6979329586029	
25	66.36615800857544	movie	1		170.0	23.0	2.5	/experiments/knapen_aot/videos/R_S_pexels-marcus-aurelius-6785014.mp4	0.0	140.70627403259277	2.5081429481506348
25	68.87430095672607	fix_post	2		12.0	23.0	2.5	/experiments/knapen_aot/videos/R_S_pexels-marcus-aurelius-6785014.mp4	0.0	143.2144169807434	0.10004687309265137
25	68.89109992980957	response	2	2		23.0	2.5	/experiments/knapen_aot/videos/R_S_pexels-marcus-aurelius-6785014.mp4	0.0	143.2312159538269	
26	68.97434782981873	fix_pre	0		28.0	24.0	2.5	/experiments/knapen_aot/videos/S_yt-o_CT2MjZ9fA_216.mp4	0.0	143.31446385383606	0.23328518867492676
26	69.19951891899109	response	0	2		24.0	2.5	/experiments/knapen_aot/videos/S_yt-o_CT2MjZ9fA_216.mp4	0.0	143.53963494300842	
26	69.20763301849365	movie	1		301.0	24.0	2.5	/experiments/knapen_aot/videos/S_yt-o_CT2MjZ9fA_216.mp4	0.0	143.547749042511	2.5083658695220947
26	71.71599888801575	fix_post	2		12.0	24.0	2.5	/experiments/knapen_aot/videos/S_yt-o_CT2MjZ9fA_216.mp4	0.0	146.05611491203308	0.09999704360961914
27	71.81599593162537	fix_pre	0		7.0	25.0	2.5	/experiments/knapen_aot/videos/R_S_G009_C003_UHD_SDR_2K_AVC.mp4	0.0	146.1561119556427	0.05832791328430176
27	71.86618494987488	response	0	2		25.0	2.5	/experiments/knapen_aot/videos/R_S_G009_C003_UHD_SDR_2K_AVC.mp4	0.0	146.2063009738922	
27	71.87432384490967	movie	1		172.0	25.0	2.5	/experiments/knapen_aot/videos/R_S_G009_C003_UHD_SDR_2K_AVC.mp4	0.0	146.214439868927	2.5082919597625732
27	74.38261580467224	fix_post	2		12.0	25.0	2.5	/experiments/knapen_aot/videos/R_S_G009_C003_UHD_SDR_2K_AVC.mp4	0.0	148.72273182868958	0.10158014297485352
27	74.47444081306458	response	2	2		25.0	2.5	/experiments/knapen_aot/videos/R_S_G009_C003_UHD_SDR_2K_AVC.mp4	0.0	148.8145568370819	
28	74.4841959476471	fix_pre	0		34.0	26.0	2.5	/experiments/knapen_aot/videos/S_yt-AiXq1oDrEXI_123.mp4	0.0	148.82431197166443	0.2818169593811035
28	74.75769400596619	response	0	2		26.0	2.5	/experiments/knapen_aot/videos/S_yt-AiXq1oDrEXI_123.mp4	0.0	149.09781002998352	
28	74.7660129070282	movie	1		301.0	26.0	2.5	/experiments/knapen_aot/videos/S_yt-AiXq1oDrEXI_123.mp4	0.0	149.10612893104553	2.5083160400390625
28	77.27432894706726	fix_post	2		12.0	26.0	2.5	/experiments/knapen_aot/videos/S_yt-AiXq1oDrEXI_123.mp4	0.0	151.6144449710846	0.10001087188720703
29	77.37433981895447	fix_pre	0		9.0	27.0	2.5	/experiments/knapen_aot/videos/R_S_wc-1MzpHfRq1MUK_32.mp4	0.0	151.7144558429718	0.0750730037689209
29	77.44109201431274	response	0	2		27.0	2.5	/experiments/knapen_aot/videos/R_S_wc-1MzpHfRq1MUK_32.mp4	0.0	151.78120803833008	
29	77.44941282272339	movie	1		301.0	27.0	2.5	/experiments/knapen_aot/videos/R_S_wc-1MzpHfRq1MUK_32.mp4	0.0	151.78952884674072	2.508251190185547
29	79.95766401290894	fix_post	2		12.0	27.0	2.5	/experiments/knapen_aot/videos/R_S_wc-1MzpHfRq1MUK_32.mp4	0.0	154.29778003692627	0.09995579719543457
30	80.05761981010437	fix_pre	0		13.0	28.0	2.5	blank	1.0	154.3977358341217	0.10836410522460938
30	80.15797400474548	response	0	2		28.0	2.5	blank	1.0	154.49809002876282	
30	80.16598391532898	movie	1		301.0	28.0	2.5	blank	1.0	154.5060999393463	2.5083398818969727
30	82.67432379722595	fix_post	2		12.0	28.0	2.5	blank	1.0	157.0144398212433	0.10000014305114746
31	82.7743239402771	fix_pre	0		12.0	29.0	2.5	/experiments/knapen_aot/videos/S_yt-22c5eZ1UNME_76.mp4	0.0	157.11443996429443	0.09995794296264648
31	82.85862994194031	response	0	2		29.0	2.5	/experiments/knapen_aot/videos/S_yt-22c5eZ1UNME_76.mp4	0.0	157.19874596595764	
31	82.87428188323975	movie	1		301.0	29.0	2.5	/experiments/knapen_aot/videos/S_yt-22c5eZ1UNME_76.mp4	0.0	157.21439790725708	2.508249044418335
31	85.38253092765808	fix_post	2		12.0	29.0	2.5	/experiments/knapen_aot/videos/S_yt-22c5eZ1UNME_76.mp4	0.0	159.72264695167542	0.10009598731994629
32	85.48262691497803	fix_pre	0		23.0	30.0	2.5	/experiments/knapen_aot/videos/S_ILSVRC2015_train_00563000.mp4	0.0	159.82274293899536	0.1916029453277588
32	85.66608881950378	response	0	2		30.0	2.5	/experiments/knapen_aot/videos/S_ILSVRC2015_train_00563000.mp4	0.0	160.00620484352112	
32	85.67422986030579	movie	1		301.0	30.0	2.5	/experiments/knapen_aot/videos/S_ILSVRC2015_train_00563000.mp4	0.0	160.01434588432312	2.508450984954834
32	88.18268084526062	fix_post	2		12.0	30.0	2.5	/experiments/knapen_aot/videos/S_ILSVRC2015_train_00563000.mp4	0.0	162.52279686927795	0.10002398490905762
33	88.28270483016968	fix_pre	0		4.0	31.0	2.5	/experiments/knapen_aot/videos/R_S_yt-o_CT2MjZ9fA_216.mp4	0.0	162.622820854187	0.03323197364807129
33	88.30778384208679	response	0	2		31.0	2.5	/experiments/knapen_aot/videos/R_S_yt-o_CT2MjZ9fA_216.mp4	0.0	162.64789986610413	
33	88.31593680381775	movie	1		300.0	31.0	2.5	/experiments/knapen_aot/videos/R_S_yt-o_CT2MjZ9fA_216.mp4	0.0	162.65605282783508	2.5083940029144287
33	90.82433080673218	fix_post	2		12.0	31.0	2.5	/experiments/knapen_aot/videos/R_S_yt-o_CT2MjZ9fA_216.mp4	0.0	165.1644468307495	0.10000205039978027
34	90.92433285713196	fix_pre	0		17.0	32.0	2.5	/experiments/knapen_aot/videos/R_S_yt-I9uf7kAccFA_229.mp4	0.0	165.2644488811493	0.14162898063659668
34	91.05773496627808	response	0	2		32.0	2.5	/experiments/knapen_aot/videos/R_S_yt-I9uf7kAccFA_229.mp4	0.0	165.3978509902954	
34	91.06596183776855	movie	1		301.0	32.0	2.5	/experiments/knapen_aot/videos/R_S_yt-I9uf7kAccFA_229.mp4	0.0	165.4060778617859	2.5083460807800293
34	93.57430791854858	fix_post	2		12.0	32.0	2.5	/experiments/knapen_aot/videos/R_S_yt-I9uf7kAccFA_229.mp4	0.0	167.91442394256592	0.10001587867736816
35	93.67432379722595	fix_pre	0		13.0	33.0	2.5	/experiments/knapen_aot/videos/S_yt-9Ow95khYa_M_91.mp4	0.0	168.0144398212433	0.10831618309020996
35	93.77436900138855	response	0	2		33.0	2.5	/experiments/knapen_aot/videos/S_yt-9Ow95khYa_M_91.mp4	0.0	168.11448502540588	
35	93.78263998031616	movie	1		301.0	33.0	2.5	/experiments/knapen_aot/videos/S_yt-9Ow95khYa_M_91.mp4	0.0	168.1227560043335	2.50832200050354
35	96.2909619808197	fix_post	2		12.0	33.0	2.5	/experiments/knapen_aot/videos/S_yt-9Ow95khYa_M_91.mp4	0.0	170.63107800483704	0.10000395774841309
36	96.39096593856812	fix_pre	0		15.0	34.0	2.5	blank	1.0	170.73108196258545	0.1249840259552002
36	96.50777792930603	response	0	2		34.0	2.5	blank	1.0	170.84789395332336	
36	96.51594996452332	movie	1		301.0	34.0	2.5	blank	1.0	170.85606598854065	2.5082590579986572
36	99.02420902252197	fix_post	2		12.0	34.0	2.5	blank	1.0	173.3643250465393	0.10001182556152344
37	99.1242208480835	fix_pre	0		37.0	35.0	2.5	/experiments/knapen_aot/videos/R_S_comp_GMT060_117NC_363D_1034_AUSTRALIA_v35_SDR_PS_FINAL_20180731_SDR_2K_AVC.mp4	0.0	173.46433687210083	0.3083341121673584
37	99.42439699172974	response	0	2		35.0	2.5	/experiments/knapen_aot/videos/R_S_comp_GMT060_117NC_363D_1034_AUSTRALIA_v35_SDR_PS_FINAL_20180731_SDR_2K_AVC.mp4	0.0	173.76451301574707	
37	99.43255496025085	movie	1		167.0	35.0	2.5	/experiments/knapen_aot/videos/R_S_comp_GMT060_117NC_363D_1034_AUSTRALIA_v35_SDR_PS_FINAL_20180731_SDR_2K_AVC.mp4	0.0	173.7726709842682	2.508363962173462
37	101.94091892242432	fix_post	2		12.0	35.0	2.5	/experiments/knapen_aot/videos/R_S_comp_GMT060_117NC_363D_1034_AUSTRALIA_v35_SDR_PS_FINAL_20180731_SDR_2K_AVC.mp4	0.0	176.28103494644165	0.09999299049377441
37	102.01686191558838	response	2	2		35.0	2.5	/experiments/knapen_aot/videos/R_S_comp_GMT060_117NC_363D_1034_AUSTRALIA_v35_SDR_PS_FINAL_20180731_SDR_2K_AVC.mp4	0.0	176.3569779396057	
38	102.04091191291809	fix_pre	0		38.0	36.0	2.5	/experiments/knapen_aot/videos/S_yt-9Ow95khYa_M_91.mp4	0.0	176.38102793693542	0.31665611267089844
38	102.34931087493896	response	0	2		36.0	2.5	/experiments/knapen_aot/videos/S_yt-9Ow95khYa_M_91.mp4	0.0	176.6894268989563	
38	102.35756802558899	movie	1		301.0	36.0	2.5	/experiments/knapen_aot/videos/S_yt-9Ow95khYa_M_91.mp4	0.0	176.69768404960632	2.508389949798584
38	104.86595797538757	fix_post	2		12.0	36.0	2.5	/experiments/knapen_aot/videos/S_yt-9Ow95khYa_M_91.mp4	0.0	179.2060739994049	0.0999460220336914
39	104.96590399742126	fix_pre	0		12.0	37.0	2.5	/experiments/knapen_aot/videos/S_yt-kINZMjys3O4_112.mp4	0.0	179.3060200214386	0.10133695602416992
39	105.05774879455566	response	0	2		37.0	2.5	/experiments/knapen_aot/videos/S_yt-kINZMjys3O4_112.mp4	0.0	179.397864818573	
39	105.06724095344543	movie	1		301.0	37.0	2.5	/experiments/knapen_aot/videos/S_yt-kINZMjys3O4_112.mp4	0.0	179.40735697746277	2.5069658756256104
39	107.57420682907104	fix_post	2		12.0	37.0	2.5	/experiments/knapen_aot/videos/S_yt-kINZMjys3O4_112.mp4	0.0	181.91432285308838	0.10003304481506348
40	107.67423987388611	fix_pre	0		8.0	38.0	2.5	/experiments/knapen_aot/videos/R_S_ILSVRC2015_train_00689000.mp4	0.0	182.01435589790344	0.06667304039001465
40	107.7327070236206	response	0	2		38.0	2.5	/experiments/knapen_aot/videos/R_S_ILSVRC2015_train_00689000.mp4	0.0	182.07282304763794	
40	107.74091291427612	movie	1		299.0	38.0	2.5	/experiments/knapen_aot/videos/R_S_ILSVRC2015_train_00689000.mp4	0.0	182.08102893829346	2.5082058906555176
40	110.24911880493164	fix_post	2		12.0	38.0	2.5	/experiments/knapen_aot/videos/R_S_ILSVRC2015_train_00689000.mp4	0.0	184.58923482894897	0.10012316703796387
41	110.3492419719696	fix_pre	0		20.0	39.0	2.5	/experiments/knapen_aot/videos/S_pexels-kelly-lacy-6756531.mp4	0.0	184.68935799598694	0.16658592224121094
41	110.50759482383728	response	0	2		39.0	2.5	/experiments/knapen_aot/videos/S_pexels-kelly-lacy-6756531.mp4	0.0	184.84771084785461	
41	110.51582789421082	movie	1		167.0	39.0	2.5	/experiments/knapen_aot/videos/S_pexels-kelly-lacy-6756531.mp4	0.0	184.85594391822815	2.508410930633545
41	113.02423882484436	fix_post	2		12.0	39.0	2.5	/experiments/knapen_aot/videos/S_pexels-kelly-lacy-6756531.mp4	0.0	187.3643548488617	0.09999608993530273
42	113.12423491477966	fix_pre	0		8.0	40.0	2.5	blank	1.0	187.464350938797	0.06655001640319824
42	113.17512893676758	response	0	2		40.0	2.5	blank	1.0	187.5152449607849	
42	113.19078493118286	movie	1		301.0	40.0	2.5	blank	1.0	187.5309009552002	2.5084259510040283
42	115.69921088218689	fix_post	2		12.0	40.0	2.5	blank	1.0	190.03932690620422	0.10016298294067383
43	115.79937386512756	fix_pre	0		23.0	41.0	2.5	/experiments/knapen_aot/videos/R_S_comp_A009_C001_010181A_v09_SDR_PS_FINAL_20180725_SDR_2K_AVC.mp4	0.0	190.1394898891449	0.19141602516174316
43	115.98260879516602	response	0	2		41.0	2.5	/experiments/knapen_aot/videos/R_S_comp_A009_C001_010181A_v09_SDR_PS_FINAL_20180725_SDR_2K_AVC.mp4	0.0	190.32272481918335	
43	115.9907898902893	movie	1		166.0	41.0	2.5	/experiments/knapen_aot/videos/R_S_comp_A009_C001_010181A_v09_SDR_PS_FINAL_20180725_SDR_2K_AVC.mp4	0.0	190.33090591430664	2.508366107940674
43	118.49915599822998	fix_post	2		12.0	41.0	2.5	/experiments/knapen_aot/videos/R_S_comp_A009_C001_010181A_v09_SDR_PS_FINAL_20180725_SDR_2K_AVC.mp4	0.0	192.83927202224731	0.1000518798828125
44	118.5992078781128	fix_pre	0		11.0	42.0	2.5	/experiments/knapen_aot/videos/S_yt-7W50lcw5FCo_37.mp4	0.0	192.93932390213013	0.09157609939575195
44	118.68258786201477	response	0	2		42.0	2.5	/experiments/knapen_aot/videos/S_yt-7W50lcw5FCo_37.mp4	0.0	193.0227038860321	
44	118.69078397750854	movie	1		301.0	42.0	2.5	/experiments/knapen_aot/videos/S_yt-7W50lcw5FCo_37.mp4	0.0	193.03090000152588	2.5083529949188232
44	121.19913697242737	fix_post	2		12.0	42.0	2.5	/experiments/knapen_aot/videos/S_yt-7W50lcw5FCo_37.mp4	0.0	195.5392529964447	0.10006189346313477
45	121.2991988658905	fix_pre	0		11.0	43.0	2.5	/experiments/knapen_aot/videos/R_S_yt-7Fyu2vr7zbA_31.mp4	0.0	195.63931488990784	0.09160709381103516
45	121.38264894485474	response	0	2		43.0	2.5	/experiments/knapen_aot/videos/R_S_yt-7Fyu2vr7zbA_31.mp4	0.0	195.72276496887207	
45	121.39080595970154	movie	1		301.0	43.0	2.5	/experiments/knapen_aot/videos/R_S_yt-7Fyu2vr7zbA_31.mp4	0.0	195.73092198371887	2.5082929134368896
45	123.89909887313843	fix_post	2		12.0	43.0	2.5	/experiments/knapen_aot/videos/R_S_yt-7Fyu2vr7zbA_31.mp4	0.0	198.23921489715576	0.10001897811889648
46	123.99911785125732	fix_pre	0		7.0	44.0	2.5	/experiments/knapen_aot/videos/R_S_yt-qBPDvSQD0XY_5.mp4	0.0	198.33923387527466	0.05834007263183594
46	124.04923796653748	response	0	2		44.0	2.5	/experiments/knapen_aot/videos/R_S_yt-qBPDvSQD0XY_5.mp4	0.0	198.3893539905548	
46	124.05745792388916	movie	1		301.0	44.0	2.5	/experiments/knapen_aot/videos/R_S_yt-qBPDvSQD0XY_5.mp4	0.0	198.3975739479065	2.5083088874816895
46	126.56576681137085	fix_post	2		12.0	44.0	2.5	/experiments/knapen_aot/videos/R_S_yt-qBPDvSQD0XY_5.mp4	0.0	200.90588283538818	0.1000521183013916
47	126.66581892967224	fix_pre	0		1.0	45.0	2.5	/experiments/knapen_aot/videos/R_S_yt-xQilXyNKsBw_42.mp4	0.0	201.00593495368958	0.008306026458740234
47	126.66748094558716	response	0	2		45.0	2.5	/experiments/knapen_aot/videos/R_S_yt-xQilXyNKsBw_42.mp4	0.0	201.0075969696045	
47	126.67412495613098	movie	1		301.0	45.0	2.5	/experiments/knapen_aot/videos/R_S_yt-xQilXyNKsBw_42.mp4	0.0	201.01424098014832	2.5082929134368896
47	129.18241786956787	fix_post	2		12.0	45.0	2.5	/experiments/knapen_aot/videos/R_S_yt-xQilXyNKsBw_42.mp4	0.0	203.5225338935852	0.10011601448059082
48	129.28253388404846	fix_pre	0		6.0	46.0	2.5	/experiments/knapen_aot/videos/S_yt-lkpfs_4qAGE_50.mp4	0.0	203.6226499080658	0.04993009567260742
48	129.32421493530273	response	0	2		46.0	2.5	/experiments/knapen_aot/videos/S_yt-lkpfs_4qAGE_50.mp4	0.0	203.66433095932007	
48	129.33246397972107	movie	1		301.0	46.0	2.5	/experiments/knapen_aot/videos/S_yt-lkpfs_4qAGE_50.mp4	0.0	203.6725800037384	2.5083119869232178
48	131.8407759666443	fix_post	2		12.0	46.0	2.5	/experiments/knapen_aot/videos/S_yt-lkpfs_4qAGE_50.mp4	0.0	206.18089199066162	0.09996986389160156
49	131.9407458305359	fix_pre	0		13.0	47.0	2.5	/experiments/knapen_aot/videos/R_S_yt-KQq7vTlXUiQ_173.mp4	0.0	206.28086185455322	0.1082921028137207
49	132.04094982147217	response	0	2		47.0	2.5	/experiments/knapen_aot/videos/R_S_yt-KQq7vTlXUiQ_173.mp4	0.0	206.3810658454895	
49	132.0490379333496	movie	1		301.0	47.0	2.5	/experiments/knapen_aot/videos/R_S_yt-KQq7vTlXUiQ_173.mp4	0.0	206.38915395736694	2.508368968963623
49	134.55740690231323	fix_post	2		12.0	47.0	2.5	/experiments/knapen_aot/videos/R_S_yt-KQq7vTlXUiQ_173.mp4	0.0	208.89752292633057	0.0999751091003418
50	134.65738201141357	fix_pre	0		12.0	48.0	2.5	/experiments/knapen_aot/videos/R_S_ILSVRC2015_train_00479004.mp4	0.0	208.9974980354309	0.10003280639648438
50	134.74919080734253	response	0	2		48.0	2.5	/experiments/knapen_aot/videos/R_S_ILSVRC2015_train_00479004.mp4	0.0	209.08930683135986	
50	134.75741481781006	movie	1		300.0	48.0	2.5	/experiments/knapen_aot/videos/R_S_ILSVRC2015_train_00479004.mp4	0.0	209.0975308418274	2.508287191390991
50	137.26570200920105	fix_post	2		12.0	48.0	2.5	/experiments/knapen_aot/videos/R_S_ILSVRC2015_train_00479004.mp4	0.0	211.60581803321838	0.10002779960632324
51	137.36572980880737	fix_pre	0		14.0	49.0	2.5	blank	1.0	211.7058458328247	0.11669015884399414
51	137.47422194480896	response	0	2		49.0	2.5	blank	1.0	211.8143379688263	
51	137.48241996765137	movie	1		301.0	49.0	2.5	blank	1.0	211.8225359916687	2.5082550048828125
51	139.99067497253418	fix_post	2		12.0	49.0	2.5	blank	1.0	214.3307909965515	0.10005784034729004
52	140.09073281288147	fix_pre	0		27.0	50.0	2.5	/experiments/knapen_aot/videos/R_S_yt-0d5TkclKWVA_146.mp4	0.0	214.4308488368988	0.22629404067993164
52	140.30756402015686	response	0	2		50.0	2.5	/experiments/knapen_aot/videos/R_S_yt-0d5TkclKWVA_146.mp4	0.0	214.6476800441742	
52	140.3170268535614	movie	1		301.0	50.0	2.5	/experiments/knapen_aot/videos/R_S_yt-0d5TkclKWVA_146.mp4	0.0	214.65714287757874	2.507045030593872
52	142.82407188415527	fix_post	2		12.0	50.0	2.5	/experiments/knapen_aot/videos/R_S_yt-0d5TkclKWVA_146.mp4	0.0	217.1641879081726	0.10000300407409668
53	142.92407488822937	fix_pre	0		16.0	51.0	2.5	/experiments/knapen_aot/videos/R_S_ILSVRC2015_train_00469000.mp4	0.0	217.2641909122467	0.13335108757019043
53	143.04920601844788	response	0	2		51.0	2.5	/experiments/knapen_aot/videos/R_S_ILSVRC2015_train_00469000.mp4	0.0	217.3893220424652	
53	143.05742597579956	movie	1		301.0	51.0	2.5	/experiments/knapen_aot/videos/R_S_ILSVRC2015_train_00469000.mp4	0.0	217.3975419998169	2.5082778930664062
53	145.56570386886597	fix_post	2		12.0	51.0	2.5	/experiments/knapen_aot/videos/R_S_ILSVRC2015_train_00469000.mp4	0.0	219.9058198928833	0.09993100166320801
53	145.63252592086792	response	2	2		51.0	2.5	/experiments/knapen_aot/videos/R_S_ILSVRC2015_train_00469000.mp4	0.0	219.97264194488525	
54	145.66563487052917	fix_pre	0		44.0	52.0	2.5	/experiments/knapen_aot/videos/S_comp_GMT314_139M_170NC_NORTH_AMERICA_AURORA__COMP_v22_SDR_20181206_v12CC_SDR_2K_AVC.mp4	0.0	220.0057508945465	0.36669492721557617
54	146.02412390708923	response	0	2		52.0	2.5	/experiments/knapen_aot/videos/S_comp_GMT314_139M_170NC_NORTH_AMERICA_AURORA__COMP_v22_SDR_20181206_v12CC_SDR_2K_AVC.mp4	0.0	220.36423993110657	
54	146.03232979774475	movie	1		163.0	52.0	2.5	/experiments/knapen_aot/videos/S_comp_GMT314_139M_170NC_NORTH_AMERICA_AURORA__COMP_v22_SDR_20181206_v12CC_SDR_2K_AVC.mp4	0.0	220.37244582176208	2.508409023284912
54	148.54073882102966	fix_post	2		12.0	52.0	2.5	/experiments/knapen_aot/videos/S_comp_GMT314_139M_170NC_NORTH_AMERICA_AURORA__COMP_v22_SDR_20181206_v12CC_SDR_2K_AVC.mp4	0.0	222.880854845047	0.10003304481506348
55	148.64077186584473	fix_pre	0		2.0	53.0	2.5	/experiments/knapen_aot/videos/S_yt-w_e3sxIzepA_115.mp4	0.0	222.98088788986206	0.016610145568847656
55	148.64474892616272	response	0	2		53.0	2.5	/experiments/knapen_aot/videos/S_yt-w_e3sxIzepA_115.mp4	0.0	222.98486495018005	
55	148.65738201141357	movie	1		298.0	53.0	2.5	/experiments/knapen_aot/videos/S_yt-w_e3sxIzepA_115.mp4	0.0	222.9974980354309	2.508194923400879
55	151.16557693481445	fix_post	2		12.0	53.0	2.5	/experiments/knapen_aot/videos/S_yt-w_e3sxIzepA_115.mp4	0.0	225.5056929588318	0.10005903244018555
56	151.26563596725464	fix_pre	0		13.0	54.0	2.5	/experiments/knapen_aot/videos/S_wc-1MzpHfRq1MUK_32.mp4	0.0	225.60575199127197	0.10834097862243652
56	151.36582589149475	response	0	2		54.0	2.5	/experiments/knapen_aot/videos/S_wc-1MzpHfRq1MUK_32.mp4	0.0	225.70594191551208	
56	151.37397694587708	movie	1		301.0	54.0	2.5	/experiments/knapen_aot/videos/S_wc-1MzpHfRq1MUK_32.mp4	0.0	225.7140929698944	2.508401870727539
56	153.88237881660461	fix_post	2		12.0	54.0	2.5	/experiments/knapen_aot/videos/S_wc-1MzpHfRq1MUK_32.mp4	0.0	228.22249484062195	0.09998416900634766
57	153.98236298561096	fix_pre	0		15.0	55.0	2.5	/experiments/knapen_aot/videos/S_yt-7Fyu2vr7zbA_31.mp4	0.0	228.3224790096283	0.12606501579284668
57	154.09903001785278	response	0	2		55.0	2.5	/experiments/knapen_aot/videos/S_yt-7Fyu2vr7zbA_31.mp4	0.0	228.43914604187012	
57	154.1084280014038	movie	1		301.0	55.0	2.5	/experiments/knapen_aot/videos/S_yt-7Fyu2vr7zbA_31.mp4	0.0	228.44854402542114	2.5072078704833984
57	156.6156358718872	fix_post	2		12.0	55.0	2.5	/experiments/knapen_aot/videos/S_yt-7Fyu2vr7zbA_31.mp4	0.0	230.95575189590454	0.10010504722595215
58	156.71574091911316	fix_pre	0		13.0	56.0	2.5	blank	1.0	231.0558569431305	0.10823988914489746
58	156.815771818161	response	0	2		56.0	2.5	blank	1.0	231.15588784217834	
58	156.82398080825806	movie	1		301.0	56.0	2.5	blank	1.0	231.1640968322754	2.508587121963501
58	159.33256793022156	fix_post	2		12.0	56.0	2.5	blank	1.0	233.6726839542389	0.0997779369354248
59	159.43234586715698	fix_pre	0		24.0	57.0	2.5	/experiments/knapen_aot/videos/S_comp_LA_A005_C009_PSNK_ALT_v09_SDR_PS_201809134_SDR_2K_AVC.mp4	0.0	233.77246189117432	0.1999189853668213
59	159.62414979934692	response	0	2		57.0	2.5	/experiments/knapen_aot/videos/S_comp_LA_A005_C009_PSNK_ALT_v09_SDR_PS_201809134_SDR_2K_AVC.mp4	0.0	233.96426582336426	
59	159.6322648525238	movie	1		169.0	57.0	2.5	/experiments/knapen_aot/videos/S_comp_LA_A005_C009_PSNK_ALT_v09_SDR_PS_201809134_SDR_2K_AVC.mp4	0.0	233.97238087654114	2.5084869861602783
59	162.14075183868408	fix_post	2		12.0	57.0	2.5	/experiments/knapen_aot/videos/S_comp_LA_A005_C009_PSNK_ALT_v09_SDR_PS_201809134_SDR_2K_AVC.mp4	0.0	236.48086786270142	0.09990406036376953
60	162.24065589904785	fix_pre	0		5.0	58.0	2.5	/experiments/knapen_aot/videos/R_S_yt-GOgS--rzmKQ_51.mp4	0.0	236.58077192306519	0.041712045669555664
60	162.27417087554932	response	0	2		58.0	2.5	/experiments/knapen_aot/videos/R_S_yt-GOgS--rzmKQ_51.mp4	0.0	236.61428689956665	
60	162.2823679447174	movie	1		301.0	58.0	2.5	/experiments/knapen_aot/videos/R_S_yt-GOgS--rzmKQ_51.mp4	0.0	236.62248396873474	2.50826096534729
60	164.7906289100647	fix_post	2		12.0	58.0	2.5	/experiments/knapen_aot/videos/R_S_yt-GOgS--rzmKQ_51.mp4	0.0	239.13074493408203	0.0999600887298584
61	164.89058899879456	fix_pre	0		2.0	59.0	2.5	/experiments/knapen_aot/videos/S_yt-bmGWhOCsvJo_128.mp4	0.0	239.2307050228119	0.01670384407043457
61	164.90026187896729	response	0	2		59.0	2.5	/experiments/knapen_aot/videos/S_yt-bmGWhOCsvJo_128.mp4	0.0	239.24037790298462	
61	164.907292842865	movie	1		301.0	59.0	2.5	/experiments/knapen_aot/videos/S_yt-bmGWhOCsvJo_128.mp4	0.0	239.24740886688232	2.5082709789276123
61	167.4155638217926	fix_post	2		12.0	59.0	2.5	/experiments/knapen_aot/videos/S_yt-bmGWhOCsvJo_128.mp4	0.0	241.75567984580994	0.10007810592651367
62	167.51564192771912	fix_pre	0		23.0	60.0	2.5	/experiments/knapen_aot/videos/R_S_yt-Rqwi-Fk9IJQ_114.mp4	0.0	241.85575795173645	0.1917259693145752
62	167.69906902313232	response	0	2		60.0	2.5	/experiments/knapen_aot/videos/R_S_yt-Rqwi-Fk9IJQ_114.mp4	0.0	242.03918504714966	
62	167.7073678970337	movie	1		301.0	60.0	2.5	/experiments/knapen_aot/videos/R_S_yt-Rqwi-Fk9IJQ_114.mp4	0.0	242.04748392105103	2.508204936981201
62	170.2155728340149	fix_post	2		12.0	60.0	2.5	/experiments/knapen_aot/videos/R_S_yt-Rqwi-Fk9IJQ_114.mp4	0.0	244.55568885803223	0.10005617141723633
63	170.31562900543213	fix_pre	0		24.0	61.0	2.5	/experiments/knapen_aot/videos/R_S_ILSVRC2015_train_00323000.mp4	0.0	244.65574502944946	0.20003795623779297
63	170.50743198394775	response	0	2		61.0	2.5	/experiments/knapen_aot/videos/R_S_ILSVRC2015_train_00323000.mp4	0.0	244.8475480079651	
63	170.51566696166992	movie	1		301.0	61.0	2.5	/experiments/knapen_aot/videos/R_S_ILSVRC2015_train_00323000.mp4	0.0	244.85578298568726	2.508283853530884
63	173.0239508152008	fix_post	2		12.0	61.0	2.5	/experiments/knapen_aot/videos/R_S_ILSVRC2015_train_00323000.mp4	0.0	247.36406683921814	0.09994316101074219
64	173.12389397621155	fix_pre	0		7.0	62.0	2.5	/experiments/knapen_aot/videos/R_S_yt-NLfzvAJgyJ4_120.mp4	0.0	247.46401000022888	0.05834698677062988
64	173.17410802841187	response	0	2		62.0	2.5	/experiments/knapen_aot/videos/R_S_yt-NLfzvAJgyJ4_120.mp4	0.0	247.5142240524292	
64	173.18224096298218	movie	1		301.0	62.0	2.5	/experiments/knapen_aot/videos/R_S_yt-NLfzvAJgyJ4_120.mp4	0.0	247.5223569869995	2.5083229541778564
64	175.69056391716003	fix_post	2		12.0	62.0	2.5	/experiments/knapen_aot/videos/R_S_yt-NLfzvAJgyJ4_120.mp4	0.0	250.03067994117737	0.09992790222167969
65	175.7904918193817	fix_pre	0		3.0	63.0	2.5	blank	1.0	250.13060784339905	0.025072097778320312
65	175.80730199813843	response	0	2		63.0	2.5	blank	1.0	250.14741802215576	
65	175.81556391716003	movie	1		301.0	63.0	2.5	blank	1.0	250.15567994117737	2.5083250999450684
65	178.3238890171051	fix_post	2		12.0	63.0	2.5	blank	1.0	252.66400504112244	0.10004281997680664
66	178.4239318370819	fix_pre	0		21.0	64.0	2.5	/experiments/knapen_aot/videos/R_S_ILSVRC2015_train_00518001.mp4	0.0	252.76404786109924	0.17499518394470215
66	178.58316493034363	response	0	2		64.0	2.5	/experiments/knapen_aot/videos/R_S_ILSVRC2015_train_00518001.mp4	0.0	252.92328095436096	
66	178.5989270210266	movie	1		301.0	64.0	2.5	/experiments/knapen_aot/videos/R_S_ILSVRC2015_train_00518001.mp4	0.0	252.93904304504395	2.5083529949188232
66	181.10728001594543	fix_post	2		12.0	64.0	2.5	/experiments/knapen_aot/videos/R_S_ILSVRC2015_train_00518001.mp4	0.0	255.44739603996277	0.10004687309265137
66	181.19904494285583	response	2	2		64.0	2.5	/experiments/knapen_aot/videos/R_S_ILSVRC2015_train_00518001.mp4	0.0	255.53916096687317	
67	181.2073268890381	fix_pre	0		48.0	65.0	2.5	/experiments/knapen_aot/videos/S_production_ID_4499960.mp4	0.0	255.54744291305542	0.4008469581604004
67	181.59891986846924	response	0	2		65.0	2.5	/experiments/knapen_aot/videos/S_production_ID_4499960.mp4	0.0	255.93903589248657	
67	181.6081738471985	movie	1		161.0	65.0	2.5	/experiments/knapen_aot/videos/S_production_ID_4499960.mp4	0.0	255.94828987121582	2.5073390007019043
67	184.1155128479004	fix_post	2		12.0	65.0	2.5	/experiments/knapen_aot/videos/S_production_ID_4499960.mp4	0.0	258.4556288719177	0.09998202323913574
68	184.21549487113953	fix_pre	0		22.0	66.0	2.5	/experiments/knapen_aot/videos/R_S_yt-hvuC_2YXsTQ_159.mp4	0.0	258.55561089515686	0.1844789981842041
68	184.3907070159912	response	0	2		66.0	2.5	/experiments/knapen_aot/videos/R_S_yt-hvuC_2YXsTQ_159.mp4	0.0	258.73082304000854	
68	184.39997386932373	movie	1		301.0	66.0	2.5	/experiments/knapen_aot/videos/R_S_yt-hvuC_2YXsTQ_159.mp4	0.0	258.74008989334106	2.507220983505249
68	186.90719485282898	fix_post	2		12.0	66.0	2.5	/experiments/knapen_aot/videos/R_S_yt-hvuC_2YXsTQ_159.mp4	0.0	261.2473108768463	0.09998011589050293
69	187.00717496871948	fix_pre	0		3.0	67.0	2.5	/experiments/knapen_aot/videos/R_S_yt-83nimFMNhrM_131.mp4	0.0	261.3472909927368	0.02504587173461914
69	187.02398300170898	response	0	2		67.0	2.5	/experiments/knapen_aot/videos/R_S_yt-83nimFMNhrM_131.mp4	0.0	261.3640990257263	
69	187.0322208404541	movie	1		300.0	67.0	2.5	/experiments/knapen_aot/videos/R_S_yt-83nimFMNhrM_131.mp4	0.0	261.37233686447144	2.508363962173462
69	189.54058480262756	fix_post	2		12.0	67.0	2.5	/experiments/knapen_aot/videos/R_S_yt-83nimFMNhrM_131.mp4	0.0	263.8807008266449	0.09998703002929688
70	189.64057183265686	fix_pre	0		16.0	68.0	2.5	/experiments/knapen_aot/videos/S_yt-XRQ_LSGGr3Y_712.mp4	0.0	263.9806878566742	0.13420414924621582
70	189.76573991775513	response	0	2		68.0	2.5	/experiments/knapen_aot/videos/S_yt-XRQ_LSGGr3Y_712.mp4	0.0	264.10585594177246	
70	189.77477598190308	movie	1		301.0	68.0	2.5	/experiments/knapen_aot/videos/S_yt-XRQ_LSGGr3Y_712.mp4	0.0	264.1148920059204	2.5074410438537598
70	192.28221702575684	fix_post	2		12.0	68.0	2.5	/experiments/knapen_aot/videos/S_yt-XRQ_LSGGr3Y_712.mp4	0.0	266.62233304977417	0.1000208854675293
71	192.38223791122437	fix_pre	0		10.0	69.0	2.5	/experiments/knapen_aot/videos/R_S_bing-www_yahoo_com_entertainment_anastasia-karanikolaou-chantel-jeffries-discuss-182400502_html_9.mp4	0.0	266.7223539352417	0.0832819938659668
71	192.44984483718872	response	0	2		69.0	2.5	/experiments/knapen_aot/videos/R_S_bing-www_yahoo_com_entertainment_anastasia-karanikolaou-chantel-jeffries-discuss-182400502_html_9.mp4	0.0	266.78996086120605	
71	192.46551990509033	movie	1		164.0	69.0	2.5	/experiments/knapen_aot/videos/R_S_bing-www_yahoo_com_entertainment_anastasia-karanikolaou-chantel-jeffries-discuss-182400502_html_9.mp4	0.0	266.80563592910767	2.508268117904663
71	194.973788022995	fix_post	2		12.0	69.0	2.5	/experiments/knapen_aot/videos/R_S_bing-www_yahoo_com_entertainment_anastasia-karanikolaou-chantel-jeffries-discuss-182400502_html_9.mp4	0.0	269.31390404701233	0.10002398490905762
71	195.06567192077637	response	2	2		69.0	2.5	/experiments/knapen_aot/videos/R_S_bing-www_yahoo_com_entertainment_anastasia-karanikolaou-chantel-jeffries-discuss-182400502_html_9.mp4	0.0	269.4057879447937	
72	195.07381200790405	fix_pre	0		46.0	70.0	2.5	blank	1.0	269.4139280319214	0.3834218978881836
72	195.4489619731903	response	0	2		70.0	2.5	blank	1.0	269.78907799720764	
72	195.45723390579224	movie	1		301.0	70.0	2.5	blank	1.0	269.79734992980957	2.508239984512329
72	197.96547389030457	fix_post	2		12.0	70.0	2.5	blank	1.0	272.3055899143219	0.10000205039978027
73	198.06547594070435	fix_pre	0		15.0	71.0	2.5	/experiments/knapen_aot/videos/S_yt-fk-z6WCvjjA_3.mp4	0.0	272.4055919647217	0.1258699893951416
73	198.18225193023682	response	0	2		71.0	2.5	/experiments/knapen_aot/videos/S_yt-fk-z6WCvjjA_3.mp4	0.0	272.52236795425415	
73	198.1913459300995	movie	1		301.0	71.0	2.5	/experiments/knapen_aot/videos/S_yt-fk-z6WCvjjA_3.mp4	0.0	272.5314619541168	2.507469892501831
73	200.69881582260132	fix_post	2		12.0	71.0	2.5	/experiments/knapen_aot/videos/S_yt-fk-z6WCvjjA_3.mp4	0.0	275.03893184661865	0.10004115104675293
74	200.79885697364807	fix_pre	0		13.0	72.0	2.5	/experiments/knapen_aot/videos/S_yt-nn-8LZcafGs_25.mp4	0.0	275.1389729976654	0.10828995704650879
74	200.89893889427185	response	0	2		72.0	2.5	/experiments/knapen_aot/videos/S_yt-nn-8LZcafGs_25.mp4	0.0	275.2390549182892	
74	200.90714693069458	movie	1		301.0	72.0	2.5	/experiments/knapen_aot/videos/S_yt-nn-8LZcafGs_25.mp4	0.0	275.2472629547119	2.5083529949188232
74	203.4154999256134	fix_post	2		12.0	72.0	2.5	/experiments/knapen_aot/videos/S_yt-nn-8LZcafGs_25.mp4	0.0	277.75561594963074	0.0999000072479248
75	203.51539993286133	fix_pre	0		8.0	73.0	2.5	/experiments/knapen_aot/videos/R_S_yt-Gam0NeyyG8w_22.mp4	0.0	277.85551595687866	0.06673693656921387
75	203.57389283180237	response	0	2		73.0	2.5	/experiments/knapen_aot/videos/R_S_yt-Gam0NeyyG8w_22.mp4	0.0	277.9140088558197	
75	203.58213686943054	movie	1		301.0	73.0	2.5	/experiments/knapen_aot/videos/R_S_yt-Gam0NeyyG8w_22.mp4	0.0	277.9222528934479	2.508312940597534
75	206.09044981002808	fix_post	2		12.0	73.0	2.5	/experiments/knapen_aot/videos/R_S_yt-Gam0NeyyG8w_22.mp4	0.0	280.4305658340454	0.09994721412658691
76	206.19039702415466	fix_pre	0		2.0	74.0	2.5	/experiments/knapen_aot/videos/S_yt-s2PWkCdT-TM_258.mp4	0.0	280.530513048172	0.01672077178955078
76	206.19892597198486	response	0	2		74.0	2.5	/experiments/knapen_aot/videos/S_yt-s2PWkCdT-TM_258.mp4	0.0	280.5390419960022	
76	206.2071177959442	movie	1		301.0	74.0	2.5	/experiments/knapen_aot/videos/S_yt-s2PWkCdT-TM_258.mp4	0.0	280.54723381996155	2.5083580017089844
76	208.7154757976532	fix_post	2		12.0	74.0	2.5	/experiments/knapen_aot/videos/S_yt-s2PWkCdT-TM_258.mp4	0.0	283.05559182167053	0.100006103515625
77	208.81548190116882	fix_pre	0		22.0	75.0	2.5	blank	1.0	283.15559792518616	0.18330812454223633
77	208.98307585716248	response	0	2		75.0	2.5	blank	1.0	283.3231918811798	
77	208.99879002571106	movie	1		301.0	75.0	2.5	blank	1.0	283.3389060497284	2.5083348751068115
77	211.50712490081787	fix_post	2		12.0	75.0	2.5	blank	1.0	285.8472409248352	0.09999704360961914
78	211.6071219444275	fix_pre	0		10.0	76.0	2.5	/experiments/knapen_aot/videos/R_S_yt-JpOBXV46TLE_124.mp4	0.0	285.9472379684448	0.08416295051574707
78	211.68220591545105	response	0	2		76.0	2.5	/experiments/knapen_aot/videos/R_S_yt-JpOBXV46TLE_124.mp4	0.0	286.0223219394684	
78	211.69128489494324	movie	1		301.0	76.0	2.5	/experiments/knapen_aot/videos/R_S_yt-JpOBXV46TLE_124.mp4	0.0	286.03140091896057	2.507491111755371
78	214.1987760066986	fix_post	2		12.0	76.0	2.5	/experiments/knapen_aot/videos/R_S_yt-JpOBXV46TLE_124.mp4	0.0	288.53889203071594	0.10003399848937988
79	214.298810005188	fix_pre	0		15.0	77.0	2.5	/experiments/knapen_aot/videos/R_S_yt-CNq5mTA8oXY_176.mp4	0.0	288.6389260292053	0.1250009536743164
79	214.40807580947876	response	0	2		77.0	2.5	/experiments/knapen_aot/videos/R_S_yt-CNq5mTA8oXY_176.mp4	0.0	288.7481918334961	
79	214.4238109588623	movie	1		301.0	77.0	2.5	/experiments/knapen_aot/videos/R_S_yt-CNq5mTA8oXY_176.mp4	0.0	288.76392698287964	2.508286952972412
79	216.93209791183472	fix_post	2		12.0	77.0	2.5	/experiments/knapen_aot/videos/R_S_yt-CNq5mTA8oXY_176.mp4	0.0	291.27221393585205	0.09998703002929688
80	217.032084941864	fix_pre	0		5.0	78.0	2.5	/experiments/knapen_aot/videos/R_S_ILSVRC2015_train_00551000.mp4	0.0	291.37220096588135	0.04161190986633301
80	217.06554889678955	response	0	2		78.0	2.5	/experiments/knapen_aot/videos/R_S_ILSVRC2015_train_00551000.mp4	0.0	291.4056649208069	
80	217.07369685173035	movie	1		301.0	78.0	2.5	/experiments/knapen_aot/videos/R_S_ILSVRC2015_train_00551000.mp4	0.0	291.4138128757477	2.508334159851074
80	219.58203101158142	fix_post	2		12.0	78.0	2.5	/experiments/knapen_aot/videos/R_S_ILSVRC2015_train_00551000.mp4	0.0	293.92214703559875	0.1000058650970459
81	219.68203687667847	fix_pre	0		31.0	79.0	2.5	/experiments/knapen_aot/videos/S_comp_LA_A011_C003_DGRN_LNFIX_STAB_v57_SDR_PS_20181002_SDR_2K_AVC.mp4	0.0	294.0221529006958	0.2591099739074707
81	219.93218398094177	response	0	2		79.0	2.5	/experiments/knapen_aot/videos/S_comp_LA_A011_C003_DGRN_LNFIX_STAB_v57_SDR_PS_20181002_SDR_2K_AVC.mp4	0.0	294.2723000049591	
81	219.94114685058594	movie	1		169.0	79.0	2.5	/experiments/knapen_aot/videos/S_comp_LA_A011_C003_DGRN_LNFIX_STAB_v57_SDR_PS_20181002_SDR_2K_AVC.mp4	0.0	294.28126287460327	2.5076041221618652
81	222.4487509727478	fix_post	2		12.0	79.0	2.5	/experiments/knapen_aot/videos/S_comp_LA_A011_C003_DGRN_LNFIX_STAB_v57_SDR_PS_20181002_SDR_2K_AVC.mp4	0.0	296.78886699676514	0.10000300407409668
82	222.5487539768219	fix_pre	0		27.0	80.0	2.5	/experiments/knapen_aot/videos/S_comp_GMT060_117NC_363D_1034_AUSTRALIA_v35_SDR_PS_FINAL_20180731_SDR_2K_AVC.mp4	0.0	296.88887000083923	0.2256920337677002
82	222.76556301116943	response	0	2		80.0	2.5	/experiments/knapen_aot/videos/S_comp_GMT060_117NC_363D_1034_AUSTRALIA_v35_SDR_PS_FINAL_20180731_SDR_2K_AVC.mp4	0.0	297.10567903518677	
82	222.7744460105896	movie	1		163.0	80.0	2.5	/experiments/knapen_aot/videos/S_comp_GMT060_117NC_363D_1034_AUSTRALIA_v35_SDR_PS_FINAL_20180731_SDR_2K_AVC.mp4	0.0	297.11456203460693	2.5076630115509033
82	225.2821090221405	fix_post	2		12.0	80.0	2.5	/experiments/knapen_aot/videos/S_comp_GMT060_117NC_363D_1034_AUSTRALIA_v35_SDR_PS_FINAL_20180731_SDR_2K_AVC.mp4	0.0	299.62222504615784	0.0999908447265625
83	225.38209986686707	fix_pre	0		13.0	81.0	2.5	/experiments/knapen_aot/videos/R_S_pexels-pavel-danilyuk-8057714.mp4	0.0	299.7222158908844	0.10831212997436523
83	225.48223686218262	response	0	2		81.0	2.5	/experiments/knapen_aot/videos/R_S_pexels-pavel-danilyuk-8057714.mp4	0.0	299.82235288619995	
83	225.49041199684143	movie	1		165.0	81.0	2.5	/experiments/knapen_aot/videos/R_S_pexels-pavel-danilyuk-8057714.mp4	0.0	299.83052802085876	2.508298873901367
83	227.9987108707428	fix_post	2		12.0	81.0	2.5	/experiments/knapen_aot/videos/R_S_pexels-pavel-danilyuk-8057714.mp4	0.0	302.33882689476013	0.10007309913635254
84	228.09878396987915	fix_pre	0		17.0	82.0	2.5	/experiments/knapen_aot/videos/S_yt-zydTlQGCUjQ_277.mp4	0.0	302.4388999938965	0.14162182807922363
84	228.23224687576294	response	0	2		82.0	2.5	/experiments/knapen_aot/videos/S_yt-zydTlQGCUjQ_277.mp4	0.0	302.5723628997803	
84	228.24040579795837	movie	1		301.0	82.0	2.5	/experiments/knapen_aot/videos/S_yt-zydTlQGCUjQ_277.mp4	0.0	302.5805218219757	2.5083231925964355
84	230.7487289905548	fix_post	2		12.0	82.0	2.5	/experiments/knapen_aot/videos/S_yt-zydTlQGCUjQ_277.mp4	0.0	305.08884501457214	0.09999895095825195
85	230.84872794151306	fix_pre	0		21.0	83.0	2.5	blank	1.0	305.1888439655304	0.17573285102844238
85	231.01561093330383	response	0	2		83.0	2.5	blank	1.0	305.35572695732117	
85	231.0244607925415	movie	1		301.0	83.0	2.5	blank	1.0	305.36457681655884	2.5076160430908203
85	233.53207683563232	fix_post	2		12.0	83.0	2.5	blank	1.0	307.87219285964966	0.10000109672546387
87	233.6320779323578	stim	0		296.0					307.9721939563751	2.468693971633911
87	233.78215289115906	response	0	2						308.1222689151764	
87	236.09493398666382	response	0	space						310.43505001068115	
