trial_nr	onset	event_type	phase	response	nr_frames	movie_index	movie_duration	movie_file	blank	onset_abs	duration
0	0.13027596473693848	stim	0		37.0					85.12585401535034	0.31252098083496094
0	0.4333930015563965	response	0	space						85.4289710521698	
1	0.4427969455718994	stim	0		121.0					85.4383749961853	1.0071420669555664
1	1.2678208351135254	response	0	space						86.26339888572693	
1	1.4499390125274658	stim	1		120.0					86.44551706314087	0.9999558925628662
1	2.0759220123291016	response	1	space						87.0715000629425	
2	2.449894905090332	fix_pre	0		59.0	0.0	2.5	/experiments/knapen_aot/videos/R_S_yt-gzjV6YoK6X0_3.mp4	0.0	87.44547295570374	0.4928159713745117
2	2.9334118366241455	response	0	space		0.0	2.5	/experiments/knapen_aot/videos/R_S_yt-gzjV6YoK6X0_3.mp4	0.0	87.92898988723755	
2	2.9427108764648438	movie	1		299.0	0.0	2.5	/experiments/knapen_aot/videos/R_S_yt-gzjV6YoK6X0_3.mp4	0.0	87.93828892707825	2.5072710514068604
2	5.449981927871704	fix_post	2		12.0	0.0	2.5	/experiments/knapen_aot/videos/R_S_yt-gzjV6YoK6X0_3.mp4	0.0	90.44555997848511	0.09993600845336914
3	5.549917936325073	fix_pre	0		30.0	1.0	2.5	/experiments/knapen_aot/videos/S_yt-rZA9zXR-A6s_426.mp4	0.0	90.54549598693848	0.253856897354126
3	5.795354843139648	response	0	2		1.0	2.5	/experiments/knapen_aot/videos/S_yt-rZA9zXR-A6s_426.mp4	0.0	90.79093289375305	
3	5.803774833679199	movie	1		296.0	1.0	2.5	/experiments/knapen_aot/videos/S_yt-rZA9zXR-A6s_426.mp4	0.0	90.7993528842926	2.5045390129089355
3	8.308313846588135	fix_post	2		12.0	1.0	2.5	/experiments/knapen_aot/videos/S_yt-rZA9zXR-A6s_426.mp4	0.0	93.30389189720154	0.09996700286865234
4	8.408280849456787	fix_pre	0		29.0	2.0	2.5	/experiments/knapen_aot/videos/R_S_pexels-c-technical-6491262.mp4	0.0	93.40385890007019	0.24272513389587402
4	8.641739845275879	response	0	2		2.0	2.5	/experiments/knapen_aot/videos/R_S_pexels-c-technical-6491262.mp4	0.0	93.63731789588928	
4	8.651005983352661	movie	1		214.0	2.0	2.5	/experiments/knapen_aot/videos/R_S_pexels-c-technical-6491262.mp4	0.0	93.64658403396606	2.5072429180145264
4	11.158248901367188	fix_post	2		12.0	2.0	2.5	/experiments/knapen_aot/videos/R_S_pexels-c-technical-6491262.mp4	0.0	96.15382695198059	0.09999704360961914
5	11.258245944976807	fix_pre	0		34.0	3.0	2.5	/experiments/knapen_aot/videos/R_S_ILSVRC2015_train_00324001.mp4	0.0	96.25382399559021	0.28331494331359863
5	11.533383846282959	response	0	2		3.0	2.5	/experiments/knapen_aot/videos/R_S_ILSVRC2015_train_00324001.mp4	0.0	96.52896189689636	
5	11.541560888290405	movie	1		301.0	3.0	2.5	/experiments/knapen_aot/videos/R_S_ILSVRC2015_train_00324001.mp4	0.0	96.53713893890381	2.5083601474761963
5	14.049921035766602	fix_post	2		12.0	3.0	2.5	/experiments/knapen_aot/videos/R_S_ILSVRC2015_train_00324001.mp4	0.0	99.04549908638	0.10000181198120117
6	14.149922847747803	fix_pre	0		27.0	4.0	2.5	/experiments/knapen_aot/videos/S_yt-QFGyhhr1KSQ_9.mp4	0.0	99.1455008983612	0.22496604919433594
6	14.366765975952148	response	0	2		4.0	2.5	/experiments/knapen_aot/videos/S_yt-QFGyhhr1KSQ_9.mp4	0.0	99.36234402656555	
6	14.374888896942139	movie	1		301.0	4.0	2.5	/experiments/knapen_aot/videos/S_yt-QFGyhhr1KSQ_9.mp4	0.0	99.37046694755554	2.5083110332489014
6	16.88319993019104	fix_post	2		12.0	4.0	2.5	/experiments/knapen_aot/videos/S_yt-QFGyhhr1KSQ_9.mp4	0.0	101.87877798080444	0.10003995895385742
7	16.983239889144897	fix_pre	0		31.0	5.0	2.5	/experiments/knapen_aot/videos/R_S_yt-82O1uT8dmv8_12.mp4	0.0	101.9788179397583	0.25832414627075195
7	17.233412981033325	response	0	2		5.0	2.5	/experiments/knapen_aot/videos/R_S_yt-82O1uT8dmv8_12.mp4	0.0	102.22899103164673	
7	17.24156403541565	movie	1		301.0	5.0	2.5	/experiments/knapen_aot/videos/R_S_yt-82O1uT8dmv8_12.mp4	0.0	102.23714208602905	2.508356809616089
7	19.74992084503174	fix_post	2		12.0	5.0	2.5	/experiments/knapen_aot/videos/R_S_yt-82O1uT8dmv8_12.mp4	0.0	104.74549889564514	0.09994816780090332
8	19.84986901283264	fix_pre	0		36.0	6.0	2.5	blank	1.0	104.84544706344604	0.3010568618774414
8	20.141703844070435	response	0	2		6.0	2.5	blank	1.0	105.13728189468384	
8	20.150925874710083	movie	1		301.0	6.0	2.5	blank	1.0	105.14650392532349	2.507301092147827
8	22.65822696685791	fix_post	2		12.0	6.0	2.5	blank	1.0	107.65380501747131	0.10000085830688477
9	22.758227825164795	fix_pre	0		52.0	7.0	2.5	/experiments/knapen_aot/videos/R_S_yt-SgiTZNjCPCo_19.mp4	0.0	107.7538058757782	0.4343271255493164
9	23.183302879333496	response	0	2		7.0	2.5	/experiments/knapen_aot/videos/R_S_yt-SgiTZNjCPCo_19.mp4	0.0	108.1788809299469	
9	23.19255495071411	movie	1		301.0	7.0	2.5	/experiments/knapen_aot/videos/R_S_yt-SgiTZNjCPCo_19.mp4	0.0	108.18813300132751	2.5072760581970215
9	25.699831008911133	fix_post	2		12.0	7.0	2.5	/experiments/knapen_aot/videos/R_S_yt-SgiTZNjCPCo_19.mp4	0.0	110.69540905952454	0.09994983673095703
10	25.79978084564209	fix_pre	0		58.0	8.0	2.5	/experiments/knapen_aot/videos/S_yt-j-ifVbxZePQ_70.mp4	0.0	110.7953588962555	0.4833559989929199
10	26.274932861328125	response	0	2		8.0	2.5	/experiments/knapen_aot/videos/S_yt-j-ifVbxZePQ_70.mp4	0.0	111.27051091194153	
10	26.28313684463501	movie	1		298.0	8.0	2.5	/experiments/knapen_aot/videos/S_yt-j-ifVbxZePQ_70.mp4	0.0	111.27871489524841	2.5083630084991455
10	28.791499853134155	fix_post	2		12.0	8.0	2.5	/experiments/knapen_aot/videos/S_yt-j-ifVbxZePQ_70.mp4	0.0	113.78707790374756	0.09999799728393555
11	28.89149785041809	fix_pre	0		39.0	9.0	2.5	/experiments/knapen_aot/videos/R_S_yt-G65z8p1YNhw_16.mp4	0.0	113.8870759010315	0.3249650001525879
11	29.20832395553589	response	0	2		9.0	2.5	/experiments/knapen_aot/videos/R_S_yt-G65z8p1YNhw_16.mp4	0.0	114.20390200614929	
11	29.21646285057068	movie	1		301.0	9.0	2.5	/experiments/knapen_aot/videos/R_S_yt-G65z8p1YNhw_16.mp4	0.0	114.21204090118408	2.508402109146118
11	31.724864959716797	fix_post	2		12.0	9.0	2.5	/experiments/knapen_aot/videos/R_S_yt-G65z8p1YNhw_16.mp4	0.0	116.7204430103302	0.0999610424041748
12	31.82482600212097	fix_pre	0		25.0	10.0	2.5	/experiments/knapen_aot/videos/S_yt-0MB_IYX1fgo_44.mp4	0.0	116.82040405273438	0.20819902420043945
12	32.02491593360901	response	0	2		10.0	2.5	/experiments/knapen_aot/videos/S_yt-0MB_IYX1fgo_44.mp4	0.0	117.02049398422241	
12	32.03302502632141	movie	1		301.0	10.0	2.5	/experiments/knapen_aot/videos/S_yt-0MB_IYX1fgo_44.mp4	0.0	117.02860307693481	2.5083768367767334
12	34.541401863098145	fix_post	2		12.0	10.0	2.5	/experiments/knapen_aot/videos/S_yt-0MB_IYX1fgo_44.mp4	0.0	119.53697991371155	0.10005307197570801
13	34.64145493507385	fix_pre	0		59.0	11.0	2.5	/experiments/knapen_aot/videos/R_S_yt-y2RUPYKfBZs_12.mp4	0.0	119.63703298568726	0.4916670322418213
13	35.12494683265686	response	0	2		11.0	2.5	/experiments/knapen_aot/videos/R_S_yt-y2RUPYKfBZs_12.mp4	0.0	120.12052488327026	
13	35.133121967315674	movie	1		301.0	11.0	2.5	/experiments/knapen_aot/videos/R_S_yt-y2RUPYKfBZs_12.mp4	0.0	120.12870001792908	2.5083069801330566
13	37.64142894744873	fix_post	2		12.0	11.0	2.5	/experiments/knapen_aot/videos/R_S_yt-y2RUPYKfBZs_12.mp4	0.0	122.63700699806213	0.10000991821289062
14	37.74143886566162	fix_pre	0		42.0	12.0	2.5	/experiments/knapen_aot/videos/R_S_I005_C008_CROP_SDR_2K_AVC.mp4	0.0	122.73701691627502	0.35001206398010254
14	38.083250999450684	response	0	2		12.0	2.5	/experiments/knapen_aot/videos/R_S_I005_C008_CROP_SDR_2K_AVC.mp4	0.0	123.07882905006409	
14	38.091450929641724	movie	1		179.0	12.0	2.5	/experiments/knapen_aot/videos/R_S_I005_C008_CROP_SDR_2K_AVC.mp4	0.0	123.08702898025513	2.508312940597534
14	40.59976387023926	fix_post	2		12.0	12.0	2.5	/experiments/knapen_aot/videos/R_S_I005_C008_CROP_SDR_2K_AVC.mp4	0.0	125.59534192085266	0.10003805160522461
15	40.69980192184448	fix_pre	0		56.0	13.0	2.5	blank	1.0	125.69537997245789	0.46665000915527344
15	41.158282995224	response	0	2		13.0	2.5	blank	1.0	126.1538610458374	
15	41.166451930999756	movie	1		301.0	13.0	2.5	blank	1.0	126.16202998161316	2.5083189010620117
15	43.67477083206177	fix_post	2		12.0	13.0	2.5	blank	1.0	128.67034888267517	0.10004806518554688
16	43.774818897247314	fix_pre	0		29.0	14.0	2.5	/experiments/knapen_aot/videos/S_yt-Q5wYs9vSzlA_30.mp4	0.0	128.77039694786072	0.24149394035339355
16	44.00820589065552	response	0	2		14.0	2.5	/experiments/knapen_aot/videos/S_yt-Q5wYs9vSzlA_30.mp4	0.0	129.00378394126892	
16	44.01631283760071	movie	1		301.0	14.0	2.5	/experiments/knapen_aot/videos/S_yt-Q5wYs9vSzlA_30.mp4	0.0	129.0118908882141	2.508419990539551
16	46.52473282814026	fix_post	2		12.0	14.0	2.5	/experiments/knapen_aot/videos/S_yt-Q5wYs9vSzlA_30.mp4	0.0	131.52031087875366	0.09999608993530273
17	46.62472891807556	fix_pre	0		47.0	15.0	2.5	/experiments/knapen_aot/videos/R_S_yt-UBqUhu-GEVg_6.mp4	0.0	131.62030696868896	0.3916311264038086
17	47.008232831954956	response	0	2		15.0	2.5	/experiments/knapen_aot/videos/R_S_yt-UBqUhu-GEVg_6.mp4	0.0	132.00381088256836	
17	47.01636004447937	movie	1		301.0	15.0	2.5	/experiments/knapen_aot/videos/R_S_yt-UBqUhu-GEVg_6.mp4	0.0	132.01193809509277	2.5084149837493896
17	49.52477502822876	fix_post	2		12.0	15.0	2.5	/experiments/knapen_aot/videos/R_S_yt-UBqUhu-GEVg_6.mp4	0.0	134.52035307884216	0.09996294975280762
18	49.62473797798157	fix_pre	0		73.0	16.0	2.5	/experiments/knapen_aot/videos/R_S_yt-GaJaxp546lc_22.mp4	0.0	134.62031602859497	0.6091940402984619
18	50.22485899925232	response	0	2		16.0	2.5	/experiments/knapen_aot/videos/R_S_yt-GaJaxp546lc_22.mp4	0.0	135.22043704986572	
18	50.23393201828003	movie	1		301.0	16.0	2.5	/experiments/knapen_aot/videos/R_S_yt-GaJaxp546lc_22.mp4	0.0	135.22951006889343	2.5074408054351807
18	52.74137282371521	fix_post	2		12.0	16.0	2.5	/experiments/knapen_aot/videos/R_S_yt-GaJaxp546lc_22.mp4	0.0	137.7369508743286	0.09998512268066406
19	52.841357946395874	fix_pre	0		77.0	17.0	2.5	/experiments/knapen_aot/videos/S_yt-SgiTZNjCPCo_19.mp4	0.0	137.83693599700928	0.6425619125366211
19	53.474875926971436	response	0	2		17.0	2.5	/experiments/knapen_aot/videos/S_yt-SgiTZNjCPCo_19.mp4	0.0	138.47045397758484	
19	53.483919858932495	movie	1		301.0	17.0	2.5	/experiments/knapen_aot/videos/S_yt-SgiTZNjCPCo_19.mp4	0.0	138.4794979095459	2.5074851512908936
19	55.99140501022339	fix_post	2		12.0	17.0	2.5	/experiments/knapen_aot/videos/S_yt-SgiTZNjCPCo_19.mp4	0.0	140.9869830608368	0.09994387626647949
20	56.09134888648987	fix_pre	0		60.0	18.0	2.5	/experiments/knapen_aot/videos/S_ILSVRC2015_train_00708000.mp4	0.0	141.08692693710327	0.4999690055847168
20	56.58322191238403	response	0	2		18.0	2.5	/experiments/knapen_aot/videos/S_ILSVRC2015_train_00708000.mp4	0.0	141.57879996299744	
20	56.591317892074585	movie	1		301.0	18.0	2.5	/experiments/knapen_aot/videos/S_ILSVRC2015_train_00708000.mp4	0.0	141.586895942688	2.5083799362182617
20	59.09969782829285	fix_post	2		12.0	18.0	2.5	/experiments/knapen_aot/videos/S_ILSVRC2015_train_00708000.mp4	0.0	144.09527587890625	0.10000014305114746
21	59.199697971343994	fix_pre	0		90.0	19.0	2.5	/experiments/knapen_aot/videos/S_yt-H3EadcgKySM_58.mp4	0.0	144.1952760219574	0.7499520778656006
21	59.94150185585022	response	0	2		19.0	2.5	/experiments/knapen_aot/videos/S_yt-H3EadcgKySM_58.mp4	0.0	144.93707990646362	
21	59.949650049209595	movie	1		301.0	19.0	2.5	/experiments/knapen_aot/videos/S_yt-H3EadcgKySM_58.mp4	0.0	144.945228099823	2.5083839893341064
21	62.4580340385437	fix_post	2		12.0	19.0	2.5	/experiments/knapen_aot/videos/S_yt-H3EadcgKySM_58.mp4	0.0	147.4536120891571	0.09999895095825195
22	62.55803298950195	fix_pre	0		79.0	20.0	2.5	blank	1.0	147.55361104011536	0.6583280563354492
22	63.20066595077515	response	0	2		20.0	2.5	blank	1.0	148.19624400138855	
22	63.2163610458374	movie	1		301.0	20.0	2.5	blank	1.0	148.2119390964508	2.5083179473876953
22	65.7246789932251	fix_post	2		12.0	20.0	2.5	blank	1.0	150.7202570438385	0.09999799728393555
23	65.82467699050903	fix_pre	0		47.0	21.0	2.5	/experiments/knapen_aot/videos/S_yt-o0Hbe7kcPps_70.mp4	0.0	150.82025504112244	0.39165687561035156
23	66.2080659866333	response	0	2		21.0	2.5	/experiments/knapen_aot/videos/S_yt-o0Hbe7kcPps_70.mp4	0.0	151.2036440372467	
23	66.21633386611938	movie	1		300.0	21.0	2.5	/experiments/knapen_aot/videos/S_yt-o0Hbe7kcPps_70.mp4	0.0	151.2119119167328	2.5082621574401855
23	68.72459602355957	fix_post	2		12.0	21.0	2.5	/experiments/knapen_aot/videos/S_yt-o0Hbe7kcPps_70.mp4	0.0	153.72017407417297	0.09997892379760742
24	68.82457494735718	fix_pre	0		74.0	22.0	2.5	/experiments/knapen_aot/videos/R_S_yt-hdZEAsVBEEM_19.mp4	0.0	153.82015299797058	0.6174991130828857
24	69.42556285858154	response	0	2		22.0	2.5	/experiments/knapen_aot/videos/R_S_yt-hdZEAsVBEEM_19.mp4	0.0	154.42114090919495	
24	69.44207406044006	movie	1		301.0	22.0	2.5	/experiments/knapen_aot/videos/R_S_yt-hdZEAsVBEEM_19.mp4	0.0	154.43765211105347	2.5075578689575195
24	71.94963192939758	fix_post	2		12.0	22.0	2.5	/experiments/knapen_aot/videos/R_S_yt-hdZEAsVBEEM_19.mp4	0.0	156.945209980011	0.09991812705993652
25	72.04955005645752	fix_pre	0		110.0	23.0	2.5	/experiments/knapen_aot/videos/S_yt-26obL-Z5obg_131.mp4	0.0	157.04512810707092	0.9166569709777832
25	72.95814299583435	response	0	2		23.0	2.5	/experiments/knapen_aot/videos/S_yt-26obL-Z5obg_131.mp4	0.0	157.95372104644775	
25	72.9662070274353	movie	1		301.0	23.0	2.5	/experiments/knapen_aot/videos/S_yt-26obL-Z5obg_131.mp4	0.0	157.9617850780487	2.508441925048828
25	75.47464895248413	fix_post	2		12.0	23.0	2.5	/experiments/knapen_aot/videos/S_yt-26obL-Z5obg_131.mp4	0.0	160.47022700309753	0.09997391700744629
26	75.57462286949158	fix_pre	0		48.0	24.0	2.5	/experiments/knapen_aot/videos/R_S_pexels-tima-miroshnichenko-6077718.mp4	0.0	160.57020092010498	0.39995312690734863
26	75.96638584136963	response	0	2		24.0	2.5	/experiments/knapen_aot/videos/R_S_pexels-tima-miroshnichenko-6077718.mp4	0.0	160.96196389198303	
26	75.97457599639893	movie	1		168.0	24.0	2.5	/experiments/knapen_aot/videos/R_S_pexels-tima-miroshnichenko-6077718.mp4	0.0	160.97015404701233	2.508368968963623
26	78.48294496536255	fix_post	2		12.0	24.0	2.5	/experiments/knapen_aot/videos/R_S_pexels-tima-miroshnichenko-6077718.mp4	0.0	163.47852301597595	0.10005807876586914
27	78.58300304412842	fix_pre	0		29.0	25.0	2.5	/experiments/knapen_aot/videos/S_pexels-rodnae-productions-7467585.mp4	0.0	163.57858109474182	0.24164080619812012
27	78.81648397445679	response	0	2		25.0	2.5	/experiments/knapen_aot/videos/S_pexels-rodnae-productions-7467585.mp4	0.0	163.8120620250702	
27	78.82464385032654	movie	1		171.0	25.0	2.5	/experiments/knapen_aot/videos/S_pexels-rodnae-productions-7467585.mp4	0.0	163.82022190093994	2.5083260536193848
27	81.33296990394592	fix_post	2		12.0	25.0	2.5	/experiments/knapen_aot/videos/S_pexels-rodnae-productions-7467585.mp4	0.0	166.32854795455933	0.0999901294708252
28	81.43296003341675	fix_pre	0		49.0	26.0	2.5	/experiments/knapen_aot/videos/S_ILSVRC2015_train_00569002.mp4	0.0	166.42853808403015	0.40832996368408203
28	81.83313202857971	response	0	2		26.0	2.5	/experiments/knapen_aot/videos/S_ILSVRC2015_train_00569002.mp4	0.0	166.82871007919312	
28	81.84128999710083	movie	1		301.0	26.0	2.5	/experiments/knapen_aot/videos/S_ILSVRC2015_train_00569002.mp4	0.0	166.83686804771423	2.5083069801330566
28	84.34959697723389	fix_post	2		12.0	26.0	2.5	/experiments/knapen_aot/videos/S_ILSVRC2015_train_00569002.mp4	0.0	169.3451750278473	0.10006189346313477
29	84.44965887069702	fix_pre	0		71.0	27.0	2.5	/experiments/knapen_aot/videos/R_S_yt-JDHApyT5ngs_128.mp4	0.0	169.44523692131042	0.5916121006011963
29	85.03309893608093	response	0	2		27.0	2.5	/experiments/knapen_aot/videos/R_S_yt-JDHApyT5ngs_128.mp4	0.0	170.02867698669434	
29	85.04127097129822	movie	1		301.0	27.0	2.5	/experiments/knapen_aot/videos/R_S_yt-JDHApyT5ngs_128.mp4	0.0	170.03684902191162	2.5083510875701904
29	87.54962205886841	fix_post	2		12.0	27.0	2.5	/experiments/knapen_aot/videos/R_S_yt-JDHApyT5ngs_128.mp4	0.0	172.5452001094818	0.09997177124023438
30	87.64959383010864	fix_pre	0		77.0	28.0	2.5	blank	1.0	172.64517188072205	0.6416950225830078
30	88.28307485580444	response	0	2		28.0	2.5	blank	1.0	173.27865290641785	
30	88.29128885269165	movie	1		301.0	28.0	2.5	blank	1.0	173.28686690330505	2.5083000659942627
30	90.79958891868591	fix_post	2		12.0	28.0	2.5	blank	1.0	175.79516696929932	0.10001397132873535
31	90.89960289001465	fix_pre	0		81.0	29.0	2.5	/experiments/knapen_aot/videos/S_yt-JH6qCYAnX-I_70.mp4	0.0	175.89518094062805	0.6749589443206787
31	91.56639695167542	response	0	2		29.0	2.5	/experiments/knapen_aot/videos/S_yt-JH6qCYAnX-I_70.mp4	0.0	176.56197500228882	
31	91.57456183433533	movie	1		301.0	29.0	2.5	/experiments/knapen_aot/videos/S_yt-JH6qCYAnX-I_70.mp4	0.0	176.57013988494873	2.5083820819854736
31	94.0829439163208	fix_post	2		12.0	29.0	2.5	/experiments/knapen_aot/videos/S_yt-JH6qCYAnX-I_70.mp4	0.0	179.0785219669342	0.09995913505554199
32	94.18290305137634	fix_pre	0		72.0	30.0	2.5	/experiments/knapen_aot/videos/R_S_yt-G65z8p1YNhw_16.mp4	0.0	179.17848110198975	0.6000277996063232
32	94.77469491958618	response	0	2		30.0	2.5	/experiments/knapen_aot/videos/R_S_yt-G65z8p1YNhw_16.mp4	0.0	179.77027297019958	
32	94.78293085098267	movie	1		301.0	30.0	2.5	/experiments/knapen_aot/videos/R_S_yt-G65z8p1YNhw_16.mp4	0.0	179.77850890159607	2.5082461833953857
32	97.29117703437805	fix_post	2		12.0	30.0	2.5	/experiments/knapen_aot/videos/R_S_yt-G65z8p1YNhw_16.mp4	0.0	182.28675508499146	0.09997701644897461
33	97.39115405082703	fix_pre	0		54.0	31.0	2.5	/experiments/knapen_aot/videos/R_S_yt-NQSCGMpo-p8_118.mp4	0.0	182.38673210144043	0.44999194145202637
33	97.83301401138306	response	0	2		31.0	2.5	/experiments/knapen_aot/videos/R_S_yt-NQSCGMpo-p8_118.mp4	0.0	182.82859206199646	
33	97.84114599227905	movie	1		301.0	31.0	2.5	/experiments/knapen_aot/videos/R_S_yt-NQSCGMpo-p8_118.mp4	0.0	182.83672404289246	2.508373975753784
33	100.34951996803284	fix_post	2		12.0	31.0	2.5	/experiments/knapen_aot/videos/R_S_yt-NQSCGMpo-p8_118.mp4	0.0	185.34509801864624	0.09993791580200195
34	100.44945788383484	fix_pre	0		37.0	32.0	2.5	/experiments/knapen_aot/videos/R_S_yt-o0Hbe7kcPps_70.mp4	0.0	185.44503593444824	0.3083460330963135
34	100.74966382980347	response	0	2		32.0	2.5	/experiments/knapen_aot/videos/R_S_yt-o0Hbe7kcPps_70.mp4	0.0	185.74524188041687	
34	100.75780391693115	movie	1		301.0	32.0	2.5	/experiments/knapen_aot/videos/R_S_yt-o0Hbe7kcPps_70.mp4	0.0	185.75338196754456	2.5083529949188232
34	103.26615691184998	fix_post	2		12.0	32.0	2.5	/experiments/knapen_aot/videos/R_S_yt-o0Hbe7kcPps_70.mp4	0.0	188.26173496246338	0.10002708435058594
35	103.36618399620056	fix_pre	0		36.0	33.0	2.5	/experiments/knapen_aot/videos/R_S_yt-ZzC953ahaxs_195.mp4	0.0	188.36176204681396	0.2999429702758789
35	103.65794205665588	response	0	2		33.0	2.5	/experiments/knapen_aot/videos/R_S_yt-ZzC953ahaxs_195.mp4	0.0	188.6535201072693	
35	103.66612696647644	movie	1		301.0	33.0	2.5	/experiments/knapen_aot/videos/R_S_yt-ZzC953ahaxs_195.mp4	0.0	188.66170501708984	2.508378028869629
35	106.17450499534607	fix_post	2		12.0	33.0	2.5	/experiments/knapen_aot/videos/R_S_yt-ZzC953ahaxs_195.mp4	0.0	191.17008304595947	0.10089683532714844
36	106.27540183067322	fix_pre	0		52.0	34.0	2.5	blank	1.0	191.27097988128662	0.4323601722717285
36	106.69956493377686	response	0	2		34.0	2.5	blank	1.0	191.69514298439026	
36	106.70776200294495	movie	1		301.0	34.0	2.5	blank	1.0	191.70334005355835	2.5084068775177
36	109.21616888046265	fix_post	2		12.0	34.0	2.5	blank	1.0	194.21174693107605	0.09992098808288574
37	109.31608986854553	fix_pre	0		84.0	35.0	2.5	/experiments/knapen_aot/videos/R_S_yt-83nimFMNhrM_131.mp4	0.0	194.31166791915894	0.7000031471252441
37	110.00791788101196	response	0	2		35.0	2.5	/experiments/knapen_aot/videos/R_S_yt-83nimFMNhrM_131.mp4	0.0	195.00349593162537	
37	110.01609301567078	movie	1		301.0	35.0	2.5	/experiments/knapen_aot/videos/R_S_yt-83nimFMNhrM_131.mp4	0.0	195.01167106628418	2.5082929134368896
37	112.52438592910767	fix_post	2		12.0	35.0	2.5	/experiments/knapen_aot/videos/R_S_yt-83nimFMNhrM_131.mp4	0.0	197.51996397972107	0.10005998611450195
38	112.62444591522217	fix_pre	0		44.0	36.0	2.5	/experiments/knapen_aot/videos/S_b3TCugtX0h0_108.mp4	0.0	197.62002396583557	0.36667299270629883
38	112.9829568862915	response	0	2		36.0	2.5	/experiments/knapen_aot/videos/S_b3TCugtX0h0_108.mp4	0.0	197.9785349369049	
38	112.99111890792847	movie	1		301.0	36.0	2.5	/experiments/knapen_aot/videos/S_b3TCugtX0h0_108.mp4	0.0	197.98669695854187	2.50832200050354
38	115.499440908432	fix_post	2		12.0	36.0	2.5	/experiments/knapen_aot/videos/S_b3TCugtX0h0_108.mp4	0.0	200.4950189590454	0.09995698928833008
39	115.59939789772034	fix_pre	0		46.0	37.0	2.5	/experiments/knapen_aot/videos/S_yt-wPXrAuiiRZg_1062.mp4	0.0	200.59497594833374	0.3839681148529053
39	115.97455883026123	response	0	2		37.0	2.5	/experiments/knapen_aot/videos/S_yt-wPXrAuiiRZg_1062.mp4	0.0	200.97013688087463	
39	115.98336601257324	movie	1		301.0	37.0	2.5	/experiments/knapen_aot/videos/S_yt-wPXrAuiiRZg_1062.mp4	0.0	200.97894406318665	2.507736921310425
39	118.49110293388367	fix_post	2		12.0	37.0	2.5	/experiments/knapen_aot/videos/S_yt-wPXrAuiiRZg_1062.mp4	0.0	203.48668098449707	0.09994196891784668
40	118.59104490280151	fix_pre	0		50.0	38.0	2.5	/experiments/knapen_aot/videos/S_yt-N1ZrWT4xyzc_85.mp4	0.0	203.58662295341492	0.41667604446411133
40	118.99955582618713	response	0	2		38.0	2.5	/experiments/knapen_aot/videos/S_yt-N1ZrWT4xyzc_85.mp4	0.0	203.99513387680054	
40	119.00772094726562	movie	1		301.0	38.0	2.5	/experiments/knapen_aot/videos/S_yt-N1ZrWT4xyzc_85.mp4	0.0	204.00329899787903	2.508384943008423
40	121.51610589027405	fix_post	2		12.0	38.0	2.5	/experiments/knapen_aot/videos/S_yt-N1ZrWT4xyzc_85.mp4	0.0	206.51168394088745	0.09993100166320801
41	121.61603689193726	fix_pre	0		38.0	39.0	2.5	/experiments/knapen_aot/videos/R_S_yt-NuJbedGLcQY_112.mp4	0.0	206.61161494255066	0.31670498847961426
41	121.9245388507843	response	0	2		39.0	2.5	/experiments/knapen_aot/videos/R_S_yt-NuJbedGLcQY_112.mp4	0.0	206.9201169013977	
41	121.93274188041687	movie	1		301.0	39.0	2.5	/experiments/knapen_aot/videos/R_S_yt-NuJbedGLcQY_112.mp4	0.0	206.92831993103027	2.5083179473876953
41	124.44105982780457	fix_post	2		12.0	39.0	2.5	/experiments/knapen_aot/videos/R_S_yt-NuJbedGLcQY_112.mp4	0.0	209.43663787841797	0.10003399848937988
42	124.54109382629395	fix_pre	0		54.0	40.0	2.5	blank	1.0	209.53667187690735	0.4499671459197998
42	124.98286390304565	response	0	2		40.0	2.5	blank	1.0	209.97844195365906	
42	124.99106097221375	movie	1		301.0	40.0	2.5	blank	1.0	209.98663902282715	2.5083439350128174
42	127.49940490722656	fix_post	2		12.0	40.0	2.5	blank	1.0	212.49498295783997	0.10001111030578613
43	127.59941601753235	fix_pre	0		59.0	41.0	2.5	/experiments/knapen_aot/videos/R_S_production_ID_4787635.mp4	0.0	212.59499406814575	0.4916260242462158
43	128.08277797698975	response	0	2		41.0	2.5	/experiments/knapen_aot/videos/R_S_production_ID_4787635.mp4	0.0	213.07835602760315	
43	128.09104204177856	movie	1		164.0	41.0	2.5	/experiments/knapen_aot/videos/R_S_production_ID_4787635.mp4	0.0	213.08662009239197	2.5083680152893066
43	130.59941005706787	fix_post	2		12.0	41.0	2.5	/experiments/knapen_aot/videos/R_S_production_ID_4787635.mp4	0.0	215.59498810768127	0.10001397132873535
44	130.6994240283966	fix_pre	0		37.0	42.0	2.5	/experiments/knapen_aot/videos/R_S_yt-ZzC953ahaxs_195.mp4	0.0	215.69500207901	0.30823683738708496
44	130.99944496154785	response	0	2		42.0	2.5	/experiments/knapen_aot/videos/R_S_yt-ZzC953ahaxs_195.mp4	0.0	215.99502301216125	
44	131.0076608657837	movie	1		301.0	42.0	2.5	/experiments/knapen_aot/videos/R_S_yt-ZzC953ahaxs_195.mp4	0.0	216.0032389163971	2.5083870887756348
44	133.51604795455933	fix_post	2		12.0	42.0	2.5	/experiments/knapen_aot/videos/R_S_yt-ZzC953ahaxs_195.mp4	0.0	218.51162600517273	0.09990310668945312
45	133.61595106124878	fix_pre	0		60.0	43.0	2.5	/experiments/knapen_aot/videos/R_S_Nh81j72Utbs_5.mp4	0.0	218.61152911186218	0.5000269412994385
45	134.10787987709045	response	0	2		43.0	2.5	/experiments/knapen_aot/videos/R_S_Nh81j72Utbs_5.mp4	0.0	219.10345792770386	
45	134.11597800254822	movie	1		301.0	43.0	2.5	/experiments/knapen_aot/videos/R_S_Nh81j72Utbs_5.mp4	0.0	219.11155605316162	2.5083839893341064
45	136.62436199188232	fix_post	2		12.0	43.0	2.5	/experiments/knapen_aot/videos/R_S_Nh81j72Utbs_5.mp4	0.0	221.61994004249573	0.10009288787841797
46	136.72445487976074	fix_pre	0		38.0	44.0	2.5	/experiments/knapen_aot/videos/R_S_yt-d5jBQ-LOW2I_17.mp4	0.0	221.72003293037415	0.3164939880371094
46	137.02529096603394	response	0	2		44.0	2.5	/experiments/knapen_aot/videos/R_S_yt-d5jBQ-LOW2I_17.mp4	0.0	222.02086901664734	
46	137.04094886779785	movie	1		301.0	44.0	2.5	/experiments/knapen_aot/videos/R_S_yt-d5jBQ-LOW2I_17.mp4	0.0	222.03652691841125	2.508366107940674
46	139.54931497573853	fix_post	2		12.0	44.0	2.5	/experiments/knapen_aot/videos/R_S_yt-d5jBQ-LOW2I_17.mp4	0.0	224.54489302635193	0.10001587867736816
47	139.6493308544159	fix_pre	0		48.0	45.0	2.5	/experiments/knapen_aot/videos/S_yt-BlWfK4MkjWA_469.mp4	0.0	224.6449089050293	0.39998698234558105
47	140.0411820411682	response	0	2		45.0	2.5	/experiments/knapen_aot/videos/S_yt-BlWfK4MkjWA_469.mp4	0.0	225.03676009178162	
47	140.04931783676147	movie	1		301.0	45.0	2.5	/experiments/knapen_aot/videos/S_yt-BlWfK4MkjWA_469.mp4	0.0	225.04489588737488	2.5083420276641846
47	142.55765986442566	fix_post	2		12.0	45.0	2.5	/experiments/knapen_aot/videos/S_yt-BlWfK4MkjWA_469.mp4	0.0	227.55323791503906	0.10006403923034668
48	142.657723903656	fix_pre	0		43.0	46.0	2.5	/experiments/knapen_aot/videos/S_yt-O6FS0xnF0CU_106.mp4	0.0	227.6533019542694	0.35829710960388184
48	143.00782084465027	response	0	2		46.0	2.5	/experiments/knapen_aot/videos/S_yt-O6FS0xnF0CU_106.mp4	0.0	228.00339889526367	
48	143.0160210132599	movie	1		301.0	46.0	2.5	/experiments/knapen_aot/videos/S_yt-O6FS0xnF0CU_106.mp4	0.0	228.0115990638733	2.5087080001831055
48	145.524729013443	fix_post	2		12.0	46.0	2.5	/experiments/knapen_aot/videos/S_yt-O6FS0xnF0CU_106.mp4	0.0	230.5203070640564	0.0996549129486084
49	145.6243839263916	fix_pre	0		56.0	47.0	2.5	blank	1.0	230.619961977005	0.4666330814361572
49	146.08289694786072	response	0	2		47.0	2.5	blank	1.0	231.07847499847412	
49	146.09101700782776	movie	1		301.0	47.0	2.5	blank	1.0	231.08659505844116	2.5083279609680176
49	148.59934496879578	fix_post	2		12.0	47.0	2.5	blank	1.0	233.59492301940918	0.09998798370361328
50	148.6993329524994	fix_pre	0		86.0	48.0	2.5	/experiments/knapen_aot/videos/S_comp_GMT329_117NC_401C_1037_IRELAND_TO_ASIA_v48_SDR_PS_FINAL_20180725_F0F6300_SDR_2K_AVC.mp4	0.0	233.6949110031128	0.7166769504547119
50	149.40779995918274	response	0	2		48.0	2.5	/experiments/knapen_aot/videos/S_comp_GMT329_117NC_401C_1037_IRELAND_TO_ASIA_v48_SDR_PS_FINAL_20180725_F0F6300_SDR_2K_AVC.mp4	0.0	234.40337800979614	
50	149.4160099029541	movie	1		162.0	48.0	2.5	/experiments/knapen_aot/videos/S_comp_GMT329_117NC_401C_1037_IRELAND_TO_ASIA_v48_SDR_PS_FINAL_20180725_F0F6300_SDR_2K_AVC.mp4	0.0	234.4115879535675	2.5083210468292236
50	151.92433094978333	fix_post	2		12.0	48.0	2.5	/experiments/knapen_aot/videos/S_comp_GMT329_117NC_401C_1037_IRELAND_TO_ASIA_v48_SDR_PS_FINAL_20180725_F0F6300_SDR_2K_AVC.mp4	0.0	236.91990900039673	0.10033702850341797
51	152.02466797828674	fix_pre	0		44.0	49.0	2.5	/experiments/knapen_aot/videos/R_S_yt-TxU1H5A6BaQ_52.mp4	0.0	237.02024602890015	0.3663339614868164
51	152.38278698921204	response	0	2		49.0	2.5	/experiments/knapen_aot/videos/R_S_yt-TxU1H5A6BaQ_52.mp4	0.0	237.37836503982544	
51	152.39100193977356	movie	1		301.0	49.0	2.5	/experiments/knapen_aot/videos/R_S_yt-TxU1H5A6BaQ_52.mp4	0.0	237.38657999038696	2.508316993713379
51	154.89931893348694	fix_post	2		12.0	49.0	2.5	/experiments/knapen_aot/videos/R_S_yt-TxU1H5A6BaQ_52.mp4	0.0	239.89489698410034	0.09995508193969727
52	154.99927401542664	fix_pre	0		55.0	50.0	2.5	/experiments/knapen_aot/videos/S_yt-rZA9zXR-A6s_426.mp4	0.0	239.99485206604004	0.45830297470092773
52	155.44951701164246	response	0	2		50.0	2.5	/experiments/knapen_aot/videos/S_yt-rZA9zXR-A6s_426.mp4	0.0	240.44509506225586	
52	155.45757699012756	movie	1		301.0	50.0	2.5	/experiments/knapen_aot/videos/S_yt-rZA9zXR-A6s_426.mp4	0.0	240.45315504074097	2.508368968963623
52	157.9659459590912	fix_post	2		12.0	50.0	2.5	/experiments/knapen_aot/videos/S_yt-rZA9zXR-A6s_426.mp4	0.0	242.9615240097046	0.10003495216369629
53	158.06598091125488	fix_pre	0		112.0	51.0	2.5	/experiments/knapen_aot/videos/R_S_yt-jy7rAnpu0u8_128.mp4	0.0	243.0615589618683	0.9333090782165527
53	158.99114084243774	response	0	2		51.0	2.5	/experiments/knapen_aot/videos/R_S_yt-jy7rAnpu0u8_128.mp4	0.0	243.98671889305115	
53	158.99928998947144	movie	1		301.0	51.0	2.5	/experiments/knapen_aot/videos/R_S_yt-jy7rAnpu0u8_128.mp4	0.0	243.99486804008484	2.50833797454834
53	161.50762796401978	fix_post	2		12.0	51.0	2.5	/experiments/knapen_aot/videos/R_S_yt-jy7rAnpu0u8_128.mp4	0.0	246.50320601463318	0.10029101371765137
54	161.60791897773743	fix_pre	0		43.0	52.0	2.5	/experiments/knapen_aot/videos/R_S_yt-NuJbedGLcQY_112.mp4	0.0	246.60349702835083	0.35801196098327637
54	161.9577419757843	response	0	2		52.0	2.5	/experiments/knapen_aot/videos/R_S_yt-NuJbedGLcQY_112.mp4	0.0	246.9533200263977	
54	161.9659309387207	movie	1		301.0	52.0	2.5	/experiments/knapen_aot/videos/R_S_yt-NuJbedGLcQY_112.mp4	0.0	246.9615089893341	2.5083580017089844
54	164.4742889404297	fix_post	2		12.0	52.0	2.5	/experiments/knapen_aot/videos/R_S_yt-NuJbedGLcQY_112.mp4	0.0	249.4698669910431	0.1000070571899414
55	164.57429599761963	fix_pre	0		97.0	53.0	2.5	/experiments/knapen_aot/videos/R_S_yt-XHYYkaHcEtM_72.mp4	0.0	249.56987404823303	0.8081660270690918
55	165.3743839263916	response	0	2		53.0	2.5	/experiments/knapen_aot/videos/R_S_yt-XHYYkaHcEtM_72.mp4	0.0	250.369961977005	
55	165.38246202468872	movie	1		301.0	53.0	2.5	/experiments/knapen_aot/videos/R_S_yt-XHYYkaHcEtM_72.mp4	0.0	250.37804007530212	2.508500814437866
55	167.8909628391266	fix_post	2		12.0	53.0	2.5	/experiments/knapen_aot/videos/R_S_yt-XHYYkaHcEtM_72.mp4	0.0	252.88654088974	0.09995698928833008
56	167.99091982841492	fix_pre	0		148.0	54.0	2.5	blank	1.0	252.98649787902832	1.2333400249481201
56	169.2160370349884	response	0	2		54.0	2.5	blank	1.0	254.2116150856018	
56	169.22425985336304	movie	1		301.0	54.0	2.5	blank	1.0	254.21983790397644	2.5082740783691406
56	171.73253393173218	fix_post	2		12.0	54.0	2.5	blank	1.0	256.7281119823456	0.09998202323913574
57	171.8325159549713	fix_pre	0		111.0	55.0	2.5	/experiments/knapen_aot/videos/S_yt-82O1uT8dmv8_12.mp4	0.0	256.8280940055847	0.924968957901001
57	172.7493119239807	response	0	2		55.0	2.5	/experiments/knapen_aot/videos/S_yt-82O1uT8dmv8_12.mp4	0.0	257.7448899745941	
57	172.75748491287231	movie	1		301.0	55.0	2.5	/experiments/knapen_aot/videos/S_yt-82O1uT8dmv8_12.mp4	0.0	257.7530629634857	2.508363962173462
57	175.26584887504578	fix_post	2		12.0	55.0	2.5	/experiments/knapen_aot/videos/S_yt-82O1uT8dmv8_12.mp4	0.0	260.2614269256592	0.09995198249816895
58	175.36580085754395	fix_pre	0		43.0	56.0	2.5	/experiments/knapen_aot/videos/R_S_yt-T7RmOAme5dU_213.mp4	0.0	260.36137890815735	0.3583531379699707
58	175.70852994918823	response	0	2		56.0	2.5	/experiments/knapen_aot/videos/R_S_yt-T7RmOAme5dU_213.mp4	0.0	260.70410799980164	
58	175.72415399551392	movie	1		301.0	56.0	2.5	/experiments/knapen_aot/videos/R_S_yt-T7RmOAme5dU_213.mp4	0.0	260.7197320461273	2.5086090564727783
58	178.2327630519867	fix_post	2		12.0	56.0	2.5	/experiments/knapen_aot/videos/R_S_yt-T7RmOAme5dU_213.mp4	0.0	263.2283411026001	0.0998079776763916
59	178.3325710296631	fix_pre	0		33.0	57.0	2.5	/experiments/knapen_aot/videos/R_S_yt-H3EadcgKySM_58.mp4	0.0	263.3281490802765	0.2751889228820801
59	178.59938192367554	response	0	2		57.0	2.5	/experiments/knapen_aot/videos/R_S_yt-H3EadcgKySM_58.mp4	0.0	263.59495997428894	
59	178.60775995254517	movie	1		301.0	57.0	2.5	/experiments/knapen_aot/videos/R_S_yt-H3EadcgKySM_58.mp4	0.0	263.60333800315857	2.50811505317688
59	181.11587500572205	fix_post	2		12.0	57.0	2.5	/experiments/knapen_aot/videos/R_S_yt-H3EadcgKySM_58.mp4	0.0	266.11145305633545	0.09995293617248535
60	181.21582794189453	fix_pre	0		59.0	58.0	2.5	/experiments/knapen_aot/videos/R_S_wc-eJe3wXMgTLRV_20.mp4	0.0	266.21140599250793	0.4917318820953369
60	181.69178891181946	response	0	2		58.0	2.5	/experiments/knapen_aot/videos/R_S_wc-eJe3wXMgTLRV_20.mp4	0.0	266.68736696243286	
60	181.70755982398987	movie	1		161.0	58.0	2.5	/experiments/knapen_aot/videos/R_S_wc-eJe3wXMgTLRV_20.mp4	0.0	266.70313787460327	2.5082790851593018
60	184.21583890914917	fix_post	2		12.0	58.0	2.5	/experiments/knapen_aot/videos/R_S_wc-eJe3wXMgTLRV_20.mp4	0.0	269.2114169597626	0.10016894340515137
61	184.31600785255432	fix_pre	0		31.0	59.0	2.5	/experiments/knapen_aot/videos/R_S_ILSVRC2015_train_00689000.mp4	0.0	269.3115859031677	0.2581291198730469
61	184.5659420490265	response	0	2		59.0	2.5	/experiments/knapen_aot/videos/R_S_ILSVRC2015_train_00689000.mp4	0.0	269.5615200996399	
61	184.57413697242737	movie	1		301.0	59.0	2.5	/experiments/knapen_aot/videos/R_S_ILSVRC2015_train_00689000.mp4	0.0	269.56971502304077	2.5083179473876953
61	187.08245491981506	fix_post	2		12.0	59.0	2.5	/experiments/knapen_aot/videos/R_S_ILSVRC2015_train_00689000.mp4	0.0	272.07803297042847	0.10002398490905762
62	187.18247890472412	fix_pre	0		50.0	60.0	2.5	/experiments/knapen_aot/videos/S_ILSVRC2015_train_00324001.mp4	0.0	272.1780569553375	0.4166109561920166
62	187.590961933136	response	0	2		60.0	2.5	/experiments/knapen_aot/videos/S_ILSVRC2015_train_00324001.mp4	0.0	272.5865399837494	
62	187.59908986091614	movie	1		301.0	60.0	2.5	/experiments/knapen_aot/videos/S_ILSVRC2015_train_00324001.mp4	0.0	272.59466791152954	2.508465051651001
62	190.10755491256714	fix_post	2		12.0	60.0	2.5	/experiments/knapen_aot/videos/S_ILSVRC2015_train_00324001.mp4	0.0	275.10313296318054	0.09989809989929199
63	190.20745301246643	fix_pre	0		39.0	61.0	2.5	/experiments/knapen_aot/videos/S_yt-hmtcRLNoYZc_17.mp4	0.0	275.20303106307983	0.32499194145202637
63	190.52425503730774	response	0	2		61.0	2.5	/experiments/knapen_aot/videos/S_yt-hmtcRLNoYZc_17.mp4	0.0	275.51983308792114	
63	190.53244495391846	movie	1		301.0	61.0	2.5	/experiments/knapen_aot/videos/S_yt-hmtcRLNoYZc_17.mp4	0.0	275.52802300453186	2.508305072784424
63	193.04075002670288	fix_post	2		12.0	61.0	2.5	/experiments/knapen_aot/videos/S_yt-hmtcRLNoYZc_17.mp4	0.0	278.0363280773163	0.1000678539276123
64	193.1408178806305	fix_pre	0		39.0	62.0	2.5	/experiments/knapen_aot/videos/S_production_ID_4787635.mp4	0.0	278.1363959312439	0.3249680995941162
64	193.45760083198547	response	0	2		62.0	2.5	/experiments/knapen_aot/videos/S_production_ID_4787635.mp4	0.0	278.4531788825989	
64	193.4657859802246	movie	1		167.0	62.0	2.5	/experiments/knapen_aot/videos/S_production_ID_4787635.mp4	0.0	278.461364030838	2.508310079574585
64	195.9740960597992	fix_post	2		12.0	62.0	2.5	/experiments/knapen_aot/videos/S_production_ID_4787635.mp4	0.0	280.9696741104126	0.0999457836151123
65	196.0740418434143	fix_pre	0		86.0	63.0	2.5	blank	1.0	281.0696198940277	0.7167069911956787
65	196.78250193595886	response	0	2		63.0	2.5	blank	1.0	281.77807998657227	
65	196.79074883460999	movie	1		301.0	63.0	2.5	blank	1.0	281.7863268852234	2.5082831382751465
65	199.29903197288513	fix_post	2		12.0	63.0	2.5	blank	1.0	284.29461002349854	0.10013699531555176
66	199.39916896820068	fix_pre	0		44.0	64.0	2.5	/experiments/knapen_aot/videos/R_S_yt-BW6jWEVbxxk_4.mp4	0.0	284.3947470188141	0.36655592918395996
66	199.757483959198	response	0	2		64.0	2.5	/experiments/knapen_aot/videos/R_S_yt-BW6jWEVbxxk_4.mp4	0.0	284.7530620098114	
66	199.76572489738464	movie	1		301.0	64.0	2.5	/experiments/knapen_aot/videos/R_S_yt-BW6jWEVbxxk_4.mp4	0.0	284.76130294799805	2.508502960205078
66	202.27422785758972	fix_post	2		12.0	64.0	2.5	/experiments/knapen_aot/videos/R_S_yt-BW6jWEVbxxk_4.mp4	0.0	287.2698059082031	0.099822998046875
67	202.3740508556366	fix_pre	0		48.0	65.0	2.5	/experiments/knapen_aot/videos/S_yt-hRAqAwRhmwE_58.mp4	0.0	287.36962890625	0.40003299713134766
67	202.7659468650818	response	0	2		65.0	2.5	/experiments/knapen_aot/videos/S_yt-hRAqAwRhmwE_58.mp4	0.0	287.7615249156952	
67	202.77408385276794	movie	1		301.0	65.0	2.5	/experiments/knapen_aot/videos/S_yt-hRAqAwRhmwE_58.mp4	0.0	287.76966190338135	2.5083041191101074
67	205.28238797187805	fix_post	2		12.0	65.0	2.5	/experiments/knapen_aot/videos/S_yt-hRAqAwRhmwE_58.mp4	0.0	290.27796602249146	0.10000896453857422
68	205.38239693641663	fix_pre	0		51.0	66.0	2.5	/experiments/knapen_aot/videos/R_S_yt-N1EsjM9gD5Q_21.mp4	0.0	290.37797498703003	0.4249610900878906
68	205.79910588264465	response	0	2		66.0	2.5	/experiments/knapen_aot/videos/R_S_yt-N1EsjM9gD5Q_21.mp4	0.0	290.79468393325806	
68	205.80735802650452	movie	1		301.0	66.0	2.5	/experiments/knapen_aot/videos/R_S_yt-N1EsjM9gD5Q_21.mp4	0.0	290.8029360771179	2.5084428787231445
68	208.31580090522766	fix_post	2		12.0	66.0	2.5	/experiments/knapen_aot/videos/R_S_yt-N1EsjM9gD5Q_21.mp4	0.0	293.31137895584106	0.09993410110473633
69	208.4157350063324	fix_pre	0		50.0	67.0	2.5	/experiments/knapen_aot/videos/R_S_ILSVRC2015_train_00411000.mp4	0.0	293.4113130569458	0.4167139530181885
69	208.8242039680481	response	0	2		67.0	2.5	/experiments/knapen_aot/videos/R_S_ILSVRC2015_train_00411000.mp4	0.0	293.8197820186615	
69	208.8324489593506	movie	1		301.0	67.0	2.5	/experiments/knapen_aot/videos/R_S_ILSVRC2015_train_00411000.mp4	0.0	293.828027009964	2.5083019733428955
69	211.34075093269348	fix_post	2		12.0	67.0	2.5	/experiments/knapen_aot/videos/R_S_ILSVRC2015_train_00411000.mp4	0.0	296.3363289833069	0.1000831127166748
70	211.44083404541016	fix_pre	0		26.0	68.0	2.5	/experiments/knapen_aot/videos/R_S_comp_GMT329_117NC_401C_1037_IRELAND_TO_ASIA_v48_SDR_PS_FINAL_20180725_F0F6300_SDR_2K_AVC.mp4	0.0	296.43641209602356	0.21657395362854004
70	211.6492600440979	response	0	2		68.0	2.5	/experiments/knapen_aot/videos/R_S_comp_GMT329_117NC_401C_1037_IRELAND_TO_ASIA_v48_SDR_PS_FINAL_20180725_F0F6300_SDR_2K_AVC.mp4	0.0	296.6448380947113	
70	211.6574079990387	movie	1		167.0	68.0	2.5	/experiments/knapen_aot/videos/R_S_comp_GMT329_117NC_401C_1037_IRELAND_TO_ASIA_v48_SDR_PS_FINAL_20180725_F0F6300_SDR_2K_AVC.mp4	0.0	296.6529860496521	2.5083389282226562
70	214.16574692726135	fix_post	2		12.0	68.0	2.5	/experiments/knapen_aot/videos/R_S_comp_GMT329_117NC_401C_1037_IRELAND_TO_ASIA_v48_SDR_PS_FINAL_20180725_F0F6300_SDR_2K_AVC.mp4	0.0	299.16132497787476	0.09994697570800781
71	214.26569390296936	fix_pre	0		88.0	69.0	2.5	/experiments/knapen_aot/videos/S_ILSVRC2015_train_00418004.mp4	0.0	299.26127195358276	0.7333180904388428
71	214.99088287353516	response	0	2		69.0	2.5	/experiments/knapen_aot/videos/S_ILSVRC2015_train_00418004.mp4	0.0	299.98646092414856	
71	214.9990119934082	movie	1		299.0	69.0	2.5	/experiments/knapen_aot/videos/S_ILSVRC2015_train_00418004.mp4	0.0	299.9945900440216	2.5083799362182617
71	217.50739192962646	fix_post	2		12.0	69.0	2.5	/experiments/knapen_aot/videos/S_ILSVRC2015_train_00418004.mp4	0.0	302.50296998023987	0.10002613067626953
72	217.60741806030273	fix_pre	0		66.0	70.0	2.5	blank	1.0	302.60299611091614	0.5499789714813232
72	218.1492190361023	response	0	2		70.0	2.5	blank	1.0	303.1447970867157	
72	218.15739703178406	movie	1		301.0	70.0	2.5	blank	1.0	303.15297508239746	2.5082759857177734
72	220.66567301750183	fix_post	2		12.0	70.0	2.5	blank	1.0	305.66125106811523	0.10007596015930176
73	220.76574897766113	fix_pre	0		79.0	71.0	2.5	/experiments/knapen_aot/videos/R_S_yt-OrTpetjDNKs_31.mp4	0.0	305.76132702827454	0.6582260131835938
73	221.4158148765564	response	0	2		71.0	2.5	/experiments/knapen_aot/videos/R_S_yt-OrTpetjDNKs_31.mp4	0.0	306.4113929271698	
73	221.42397499084473	movie	1		301.0	71.0	2.5	/experiments/knapen_aot/videos/R_S_yt-OrTpetjDNKs_31.mp4	0.0	306.41955304145813	2.508328914642334
73	223.93230390548706	fix_post	2		12.0	71.0	2.5	/experiments/knapen_aot/videos/R_S_yt-OrTpetjDNKs_31.mp4	0.0	308.92788195610046	0.09995603561401367
74	224.03225994110107	fix_pre	0		74.0	72.0	2.5	/experiments/knapen_aot/videos/S_yt-rIQoRErqnlI_17.mp4	0.0	309.0278379917145	0.6168038845062256
74	224.64072489738464	response	0	2		72.0	2.5	/experiments/knapen_aot/videos/S_yt-rIQoRErqnlI_17.mp4	0.0	309.63630294799805	
74	224.6490638256073	movie	1		299.0	72.0	2.5	/experiments/knapen_aot/videos/S_yt-rIQoRErqnlI_17.mp4	0.0	309.6446418762207	2.508225202560425
74	227.15728902816772	fix_post	2		12.0	72.0	2.5	/experiments/knapen_aot/videos/S_yt-rIQoRErqnlI_17.mp4	0.0	312.1528670787811	0.10000085830688477
75	227.2572898864746	fix_pre	0		44.0	73.0	2.5	/experiments/knapen_aot/videos/R_S_yt-BLmwmX-mni8_56.mp4	0.0	312.252867937088	0.3666651248931885
75	227.61577582359314	response	0	2		73.0	2.5	/experiments/knapen_aot/videos/R_S_yt-BLmwmX-mni8_56.mp4	0.0	312.61135387420654	
75	227.6239550113678	movie	1		301.0	73.0	2.5	/experiments/knapen_aot/videos/R_S_yt-BLmwmX-mni8_56.mp4	0.0	312.6195330619812	2.5083019733428955
75	230.1322569847107	fix_post	2		12.0	73.0	2.5	/experiments/knapen_aot/videos/R_S_yt-BLmwmX-mni8_56.mp4	0.0	315.1278350353241	0.10003805160522461
76	230.23229503631592	fix_pre	0		31.0	74.0	2.5	/experiments/knapen_aot/videos/S_yt-qYuLW5vSotM_160.mp4	0.0	315.2278730869293	0.2582979202270508
76	230.47487688064575	response	0	2		74.0	2.5	/experiments/knapen_aot/videos/S_yt-qYuLW5vSotM_160.mp4	0.0	315.47045493125916	
76	230.49059295654297	movie	1		301.0	74.0	2.5	/experiments/knapen_aot/videos/S_yt-qYuLW5vSotM_160.mp4	0.0	315.4861710071564	2.5083329677581787
76	232.99892592430115	fix_post	2		12.0	74.0	2.5	/experiments/knapen_aot/videos/S_yt-qYuLW5vSotM_160.mp4	0.0	317.99450397491455	0.10000300407409668
77	233.09892892837524	fix_pre	0		55.0	75.0	2.5	/experiments/knapen_aot/videos/R_S_comp_A108_C001_v09_SDR_FINAL_22062018_SDR_2K_AVC.mp4	0.0	318.09450697898865	0.45831799507141113
77	233.54161190986633	response	0	2		75.0	2.5	/experiments/knapen_aot/videos/R_S_comp_A108_C001_v09_SDR_FINAL_22062018_SDR_2K_AVC.mp4	0.0	318.53718996047974	
77	233.55724692344666	movie	1		168.0	75.0	2.5	/experiments/knapen_aot/videos/R_S_comp_A108_C001_v09_SDR_FINAL_22062018_SDR_2K_AVC.mp4	0.0	318.55282497406006	2.5084080696105957
77	236.06565499305725	fix_post	2		12.0	75.0	2.5	/experiments/knapen_aot/videos/R_S_comp_A108_C001_v09_SDR_FINAL_22062018_SDR_2K_AVC.mp4	0.0	321.06123304367065	0.09996294975280762
78	236.16561794281006	fix_pre	0		63.0	76.0	2.5	/experiments/knapen_aot/videos/S_yt-7v3kHYBe7-E_8.mp4	0.0	321.16119599342346	0.5250101089477539
78	236.682471036911	response	0	2		76.0	2.5	/experiments/knapen_aot/videos/S_yt-7v3kHYBe7-E_8.mp4	0.0	321.6780490875244	
78	236.6906280517578	movie	1		301.0	76.0	2.5	/experiments/knapen_aot/videos/S_yt-7v3kHYBe7-E_8.mp4	0.0	321.6862061023712	2.5083329677581787
78	239.198961019516	fix_post	2		12.0	76.0	2.5	/experiments/knapen_aot/videos/S_yt-7v3kHYBe7-E_8.mp4	0.0	324.1945390701294	0.09999895095825195
79	239.29895997047424	fix_pre	0		59.0	77.0	2.5	blank	1.0	324.29453802108765	0.4916689395904541
79	239.7824468612671	response	0	2		77.0	2.5	blank	1.0	324.7780249118805	
79	239.7906289100647	movie	1		301.0	77.0	2.5	blank	1.0	324.7862069606781	2.5083019733428955
79	242.2989308834076	fix_post	2		12.0	77.0	2.5	blank	1.0	327.294508934021	0.0999751091003418
80	242.39890599250793	fix_pre	0		26.0	78.0	2.5	/experiments/knapen_aot/videos/S_pexels-rodnae-productions-5993237.mp4	0.0	327.39448404312134	0.2167210578918457
80	242.60741591453552	response	0	2		78.0	2.5	/experiments/knapen_aot/videos/S_pexels-rodnae-productions-5993237.mp4	0.0	327.6029939651489	
80	242.61562705039978	movie	1		168.0	78.0	2.5	/experiments/knapen_aot/videos/S_pexels-rodnae-productions-5993237.mp4	0.0	327.6112051010132	2.508255958557129
80	245.1238830089569	fix_post	2		12.0	78.0	2.5	/experiments/knapen_aot/videos/S_pexels-rodnae-productions-5993237.mp4	0.0	330.1194610595703	0.10002684593200684
81	245.22390985488892	fix_pre	0		78.0	79.0	2.5	/experiments/knapen_aot/videos/R_S_yt-mWlx1SIXl5M_850.mp4	0.0	330.2194879055023	0.6499600410461426
81	245.86562705039978	response	0	2		79.0	2.5	/experiments/knapen_aot/videos/R_S_yt-mWlx1SIXl5M_850.mp4	0.0	330.8612051010132	
81	245.87386989593506	movie	1		301.0	79.0	2.5	/experiments/knapen_aot/videos/R_S_yt-mWlx1SIXl5M_850.mp4	0.0	330.86944794654846	2.5083799362182617
81	248.38224983215332	fix_post	2		12.0	79.0	2.5	/experiments/knapen_aot/videos/R_S_yt-mWlx1SIXl5M_850.mp4	0.0	333.3778278827667	0.1000051498413086
82	248.48225498199463	fix_pre	0		79.0	80.0	2.5	/experiments/knapen_aot/videos/R_S_yt-wPXrAuiiRZg_1062.mp4	0.0	333.47783303260803	0.6595380306243896
82	249.1323869228363	response	0	2		80.0	2.5	/experiments/knapen_aot/videos/R_S_yt-wPXrAuiiRZg_1062.mp4	0.0	334.1279649734497	
82	249.14179301261902	movie	1		301.0	80.0	2.5	/experiments/knapen_aot/videos/R_S_yt-wPXrAuiiRZg_1062.mp4	0.0	334.1373710632324	2.507089853286743
82	251.64888286590576	fix_post	2		12.0	80.0	2.5	/experiments/knapen_aot/videos/R_S_yt-wPXrAuiiRZg_1062.mp4	0.0	336.64446091651917	0.10001802444458008
83	251.74890089035034	fix_pre	0		63.0	81.0	2.5	/experiments/knapen_aot/videos/R_S_ILSVRC2015_train_00708000.mp4	0.0	336.74447894096375	0.5249569416046143
83	252.2657630443573	response	0	2		81.0	2.5	/experiments/knapen_aot/videos/R_S_ILSVRC2015_train_00708000.mp4	0.0	337.2613410949707	
83	252.27385783195496	movie	1		301.0	81.0	2.5	/experiments/knapen_aot/videos/R_S_ILSVRC2015_train_00708000.mp4	0.0	337.26943588256836	2.508324146270752
83	254.7821819782257	fix_post	2		12.0	81.0	2.5	/experiments/knapen_aot/videos/R_S_ILSVRC2015_train_00708000.mp4	0.0	339.7777600288391	0.10006999969482422
84	254.88225197792053	fix_pre	0		115.0	82.0	2.5	/experiments/knapen_aot/videos/R_S_yt-wz2opOBqClo_14.mp4	0.0	339.87783002853394	0.9582700729370117
84	255.8323678970337	response	0	2		82.0	2.5	/experiments/knapen_aot/videos/R_S_yt-wz2opOBqClo_14.mp4	0.0	340.8279459476471	
84	255.84052205085754	movie	1		301.0	82.0	2.5	/experiments/knapen_aot/videos/R_S_yt-wz2opOBqClo_14.mp4	0.0	340.83610010147095	2.508392810821533
84	258.3489148616791	fix_post	2		12.0	82.0	2.5	/experiments/knapen_aot/videos/R_S_yt-wz2opOBqClo_14.mp4	0.0	343.3444929122925	0.09997010231018066
85	258.44888496398926	fix_pre	0		76.0	83.0	2.5	blank	1.0	343.44446301460266	0.6333580017089844
85	259.07400488853455	response	0	2		83.0	2.5	blank	1.0	344.06958293914795	
85	259.08224296569824	movie	1		301.0	83.0	2.5	blank	1.0	344.07782101631165	2.508262872695923
85	261.59050583839417	fix_post	2		12.0	83.0	2.5	blank	1.0	346.58608388900757	0.10001516342163086
87	261.6905210018158	stim	0		242.0					346.6860990524292	2.0166079998016357
87	263.7000060081482	response	0	space						348.6955840587616	
