trial_nr	onset	event_type	phase	response	nr_frames	movie_index	movie_duration	movie_file	blank	onset_abs	duration
0	0.132857084274292	stim	0		52.0					79.18339514732361	0.4333508014678955
0	0.5579400062561035	response	0	space						79.60847806930542	
1	0.5662078857421875	stim	0		121.0					79.6167459487915	1.0079550743103027
1	1.5741629600524902	stim	1		120.0					80.6247010231018	1.0000109672546387
2	2.574173927307129	fix_pre	0		507.0	0.0	2.5	/experiments/knapen_aot/videos/S_I004_C014_SDR_2K_AVC.mp4	0.0	81.62471199035645	4.224907159805298
2	6.790846109390259	response	0	space		0.0	2.5	/experiments/knapen_aot/videos/S_I004_C014_SDR_2K_AVC.mp4	0.0	85.84138417243958	
2	6.799081087112427	movie	1		171.0	0.0	2.5	/experiments/knapen_aot/videos/S_I004_C014_SDR_2K_AVC.mp4	0.0	85.84961915016174	2.5083229541778564
2	6.893752098083496	response	1	2		0.0	2.5	/experiments/knapen_aot/videos/S_I004_C014_SDR_2K_AVC.mp4	0.0	85.94429016113281	
2	9.307404041290283	fix_post	2		12.0	0.0	2.5	/experiments/knapen_aot/videos/S_I004_C014_SDR_2K_AVC.mp4	0.0	88.3579421043396	0.10003304481506348
3	9.407437086105347	fix_pre	0		83.0	1.0	2.5	/experiments/knapen_aot/videos/S_ILSVRC2015_train_00572001.mp4	0.0	88.45797514915466	0.6915988922119141
3	10.09091305732727	response	0	4		1.0	2.5	/experiments/knapen_aot/videos/S_ILSVRC2015_train_00572001.mp4	0.0	89.14145112037659	
3	10.09903597831726	movie	1		299.0	1.0	2.5	/experiments/knapen_aot/videos/S_ILSVRC2015_train_00572001.mp4	0.0	89.14957404136658	2.5083749294281006
3	12.607410907745361	fix_post	2		12.0	1.0	2.5	/experiments/knapen_aot/videos/S_ILSVRC2015_train_00572001.mp4	0.0	91.65794897079468	0.10045909881591797
4	12.70787000656128	fix_pre	0		30.0	2.0	2.5	/experiments/knapen_aot/videos/R_S_yt-qazCIJqjxUU_3.mp4	0.0	91.7584080696106	0.24995803833007812
4	12.94181489944458	response	0	2		2.0	2.5	/experiments/knapen_aot/videos/R_S_yt-qazCIJqjxUU_3.mp4	0.0	91.9923529624939	
4	12.957828044891357	movie	1		301.0	2.0	2.5	/experiments/knapen_aot/videos/R_S_yt-qazCIJqjxUU_3.mp4	0.0	92.00836610794067	2.5078530311584473
4	15.465681076049805	fix_post	2		12.0	2.0	2.5	/experiments/knapen_aot/videos/R_S_yt-qazCIJqjxUU_3.mp4	0.0	94.51621913909912	0.10005402565002441
5	15.565735101699829	fix_pre	0		4.0	3.0	2.5	/experiments/knapen_aot/videos/S_yt-7VVzNnp36DM_62.mp4	0.0	94.61627316474915	0.03338289260864258
5	15.590923070907593	response	0	4		3.0	2.5	/experiments/knapen_aot/videos/S_yt-7VVzNnp36DM_62.mp4	0.0	94.64146113395691	
5	15.599117994308472	movie	1		301.0	3.0	2.5	/experiments/knapen_aot/videos/S_yt-7VVzNnp36DM_62.mp4	0.0	94.64965605735779	2.5083000659942627
5	18.107418060302734	fix_post	2		12.0	3.0	2.5	/experiments/knapen_aot/videos/S_yt-7VVzNnp36DM_62.mp4	0.0	97.15795612335205	0.09997200965881348
6	18.207390069961548	fix_pre	0		21.0	4.0	2.5	/experiments/knapen_aot/videos/S_comp_CH_C007_C011_PSNK_v02_SDR_PS_FINAL_20180709_SDR_2K_AVC.mp4	0.0	97.25792813301086	0.17496800422668457
6	18.374170064926147	response	0	2		4.0	2.5	/experiments/knapen_aot/videos/S_comp_CH_C007_C011_PSNK_v02_SDR_PS_FINAL_20180709_SDR_2K_AVC.mp4	0.0	97.42470812797546	
6	18.382358074188232	movie	1		167.0	4.0	2.5	/experiments/knapen_aot/videos/S_comp_CH_C007_C011_PSNK_v02_SDR_PS_FINAL_20180709_SDR_2K_AVC.mp4	0.0	97.43289613723755	2.5083210468292236
6	20.890679121017456	fix_post	2		12.0	4.0	2.5	/experiments/knapen_aot/videos/S_comp_CH_C007_C011_PSNK_v02_SDR_PS_FINAL_20180709_SDR_2K_AVC.mp4	0.0	99.94121718406677	0.09995484352111816
7	20.990633964538574	fix_pre	0		23.0	5.0	2.5	/experiments/knapen_aot/videos/R_S_video-8.mp4	0.0	100.04117202758789	0.19171905517578125
7	21.1740620136261	response	0	4		5.0	2.5	/experiments/knapen_aot/videos/R_S_video-8.mp4	0.0	100.22460007667542	
7	21.182353019714355	movie	1		199.0	5.0	2.5	/experiments/knapen_aot/videos/R_S_video-8.mp4	0.0	100.23289108276367	2.5083329677581787
7	23.690685987472534	fix_post	2		12.0	5.0	2.5	/experiments/knapen_aot/videos/R_S_video-8.mp4	0.0	102.74122405052185	0.10001802444458008
8	23.790704011917114	fix_pre	0		7.0	6.0	2.5	/experiments/knapen_aot/videos/R_S_yt-GfPep7IhZIU_47.mp4	0.0	102.84124207496643	0.05829191207885742
8	23.840856075286865	response	0	2		6.0	2.5	/experiments/knapen_aot/videos/R_S_yt-GfPep7IhZIU_47.mp4	0.0	102.89139413833618	
8	23.84899592399597	movie	1		301.0	6.0	2.5	/experiments/knapen_aot/videos/R_S_yt-GfPep7IhZIU_47.mp4	0.0	102.89953398704529	2.5083181858062744
8	26.357314109802246	fix_post	2		12.0	6.0	2.5	/experiments/knapen_aot/videos/R_S_yt-GfPep7IhZIU_47.mp4	0.0	105.40785217285156	0.10008597373962402
9	26.45740008354187	fix_pre	0		36.0	7.0	2.5	blank	1.0	105.50793814659119	0.300015926361084
9	26.749190092086792	response	0	4		7.0	2.5	blank	1.0	105.79972815513611	
9	26.757416009902954	movie	1		301.0	7.0	2.5	blank	1.0	105.80795407295227	2.5082099437713623
9	29.265625953674316	fix_post	2		12.0	7.0	2.5	blank	1.0	108.31616401672363	0.10001611709594727
10	29.365642070770264	fix_pre	0		20.0	8.0	2.5	/experiments/knapen_aot/videos/S_yt-O6FS0xnF0CU_106.mp4	0.0	108.41618013381958	0.16670989990234375
10	29.52413511276245	response	0	2		8.0	2.5	/experiments/knapen_aot/videos/S_yt-O6FS0xnF0CU_106.mp4	0.0	108.57467317581177	
10	29.532351970672607	movie	1		301.0	8.0	2.5	/experiments/knapen_aot/videos/S_yt-O6FS0xnF0CU_106.mp4	0.0	108.58289003372192	2.5082650184631348
10	32.04061698913574	fix_post	2		12.0	8.0	2.5	/experiments/knapen_aot/videos/S_yt-O6FS0xnF0CU_106.mp4	0.0	111.09115505218506	0.10000395774841309
11	32.140620946884155	fix_pre	0		9.0	9.0	2.5	/experiments/knapen_aot/videos/S_yt-qBPDvSQD0XY_5.mp4	0.0	111.19115900993347	0.07493305206298828
11	32.20746397972107	response	0	4		9.0	2.5	/experiments/knapen_aot/videos/S_yt-qBPDvSQD0XY_5.mp4	0.0	111.25800204277039	
11	32.215553998947144	movie	1		301.0	9.0	2.5	/experiments/knapen_aot/videos/S_yt-qBPDvSQD0XY_5.mp4	0.0	111.26609206199646	2.508470058441162
11	34.724024057388306	fix_post	2		12.0	9.0	2.5	/experiments/knapen_aot/videos/S_yt-qBPDvSQD0XY_5.mp4	0.0	113.77456212043762	0.09998393058776855
12	34.824007987976074	fix_pre	0		12.0	10.0	2.5	/experiments/knapen_aot/videos/R_S_production_ID_5119260.mp4	0.0	113.87454605102539	0.09999799728393555
12	34.9157190322876	response	0	2		10.0	2.5	/experiments/knapen_aot/videos/R_S_production_ID_5119260.mp4	0.0	113.96625709533691	
12	34.92400598526001	movie	1		168.0	10.0	2.5	/experiments/knapen_aot/videos/R_S_production_ID_5119260.mp4	0.0	113.97454404830933	2.5082950592041016
12	37.43230104446411	fix_post	2		12.0	10.0	2.5	/experiments/knapen_aot/videos/R_S_production_ID_5119260.mp4	0.0	116.48283910751343	0.09993600845336914
13	37.53223705291748	fix_pre	0		2.0	11.0	2.5	/experiments/knapen_aot/videos/S_yt-RKo978aBdzw_173.mp4	0.0	116.5827751159668	0.01674795150756836
13	37.54113292694092	response	0	4		11.0	2.5	/experiments/knapen_aot/videos/S_yt-RKo978aBdzw_173.mp4	0.0	116.59167098999023	
13	37.54898500442505	movie	1		301.0	11.0	2.5	/experiments/knapen_aot/videos/S_yt-RKo978aBdzw_173.mp4	0.0	116.59952306747437	2.508267879486084
13	40.05725288391113	fix_post	2		12.0	11.0	2.5	/experiments/knapen_aot/videos/S_yt-RKo978aBdzw_173.mp4	0.0	119.10779094696045	0.10002923011779785
14	40.15728211402893	fix_pre	0		23.0	12.0	2.5	/experiments/knapen_aot/videos/S_yt-qBPDvSQD0XY_5.mp4	0.0	119.20782017707825	0.1916968822479248
14	40.34075307846069	response	0	2		12.0	2.5	/experiments/knapen_aot/videos/S_yt-qBPDvSQD0XY_5.mp4	0.0	119.39129114151001	
14	40.348978996276855	movie	1		301.0	12.0	2.5	/experiments/knapen_aot/videos/S_yt-qBPDvSQD0XY_5.mp4	0.0	119.39951705932617	2.508316993713379
14	42.857295989990234	fix_post	2		12.0	12.0	2.5	/experiments/knapen_aot/videos/S_yt-qBPDvSQD0XY_5.mp4	0.0	121.90783405303955	0.1002349853515625
15	42.9575309753418	fix_pre	0		33.0	13.0	2.5	blank	1.0	122.00806903839111	0.2747039794921875
15	43.22411108016968	response	0	4		13.0	2.5	blank	1.0	122.274649143219	
15	43.232234954833984	movie	1		301.0	13.0	2.5	blank	1.0	122.2827730178833	2.508329153060913
15	45.7405641078949	fix_post	2		12.0	13.0	2.5	blank	1.0	124.79110217094421	0.09998488426208496
16	45.84054899215698	fix_pre	0		32.0	14.0	2.5	/experiments/knapen_aot/videos/R_S_yt-khmJAQuCRRE_119.mp4	0.0	124.8910870552063	0.26677703857421875
16	46.099069118499756	response	0	2		14.0	2.5	/experiments/knapen_aot/videos/R_S_yt-khmJAQuCRRE_119.mp4	0.0	125.14960718154907	
16	46.1073260307312	movie	1		301.0	14.0	2.5	/experiments/knapen_aot/videos/R_S_yt-khmJAQuCRRE_119.mp4	0.0	125.15786409378052	2.5082240104675293
16	48.61555004119873	fix_post	2		12.0	14.0	2.5	/experiments/knapen_aot/videos/R_S_yt-khmJAQuCRRE_119.mp4	0.0	127.66608810424805	0.10009193420410156
17	48.71564197540283	fix_pre	0		6.0	15.0	2.5	/experiments/knapen_aot/videos/R_S_pexels-c-technical-6344801.mp4	0.0	127.76618003845215	0.05001091957092285
17	48.75751805305481	response	0	4		15.0	2.5	/experiments/knapen_aot/videos/R_S_pexels-c-technical-6344801.mp4	0.0	127.80805611610413	
17	48.765652894973755	movie	1		185.0	15.0	2.5	/experiments/knapen_aot/videos/R_S_pexels-c-technical-6344801.mp4	0.0	127.81619095802307	2.5083022117614746
17	51.27395510673523	fix_post	2		12.0	15.0	2.5	/experiments/knapen_aot/videos/R_S_pexels-c-technical-6344801.mp4	0.0	130.32449316978455	0.10024690628051758
18	51.37420201301575	fix_pre	0		22.0	16.0	2.5	/experiments/knapen_aot/videos/R_S_yt-hQ5pge893b4_6.mp4	0.0	130.42474007606506	0.183074951171875
18	51.54912805557251	response	0	2		16.0	2.5	/experiments/knapen_aot/videos/R_S_yt-hQ5pge893b4_6.mp4	0.0	130.59966611862183	
18	51.55727696418762	movie	1		301.0	16.0	2.5	/experiments/knapen_aot/videos/R_S_yt-hQ5pge893b4_6.mp4	0.0	130.60781502723694	2.5083651542663574
18	53.765758991241455	response	1	2		16.0	2.5	/experiments/knapen_aot/videos/R_S_yt-hQ5pge893b4_6.mp4	0.0	132.81629705429077	
18	54.06564211845398	fix_post	2		12.0	16.0	2.5	/experiments/knapen_aot/videos/R_S_yt-hQ5pge893b4_6.mp4	0.0	133.1161801815033	0.10017585754394531
19	54.165817975997925	fix_pre	0		6.0	17.0	2.5	/experiments/knapen_aot/videos/R_S_pexels-mikhail-nilov-8410063_1.mp4	0.0	133.21635603904724	0.04974699020385742
19	54.20794200897217	response	0	2		17.0	2.5	/experiments/knapen_aot/videos/R_S_pexels-mikhail-nilov-8410063_1.mp4	0.0	133.25848007202148	
19	54.21556496620178	movie	1		167.0	17.0	2.5	/experiments/knapen_aot/videos/R_S_pexels-mikhail-nilov-8410063_1.mp4	0.0	133.2661030292511	2.508331060409546
19	56.72389602661133	fix_post	2		12.0	17.0	2.5	/experiments/knapen_aot/videos/R_S_pexels-mikhail-nilov-8410063_1.mp4	0.0	135.77443408966064	0.09996891021728516
20	56.82386493682861	fix_pre	0		88.0	18.0	2.5	/experiments/knapen_aot/videos/R_S_yt-STL3ejY9u_Q_73.mp4	0.0	135.87440299987793	0.7333061695098877
20	57.549034118652344	response	0	2		18.0	2.5	/experiments/knapen_aot/videos/R_S_yt-STL3ejY9u_Q_73.mp4	0.0	136.59957218170166	
20	57.5571711063385	movie	1		301.0	18.0	2.5	/experiments/knapen_aot/videos/R_S_yt-STL3ejY9u_Q_73.mp4	0.0	136.60770916938782	2.5083119869232178
20	60.06548309326172	fix_post	2		12.0	18.0	2.5	/experiments/knapen_aot/videos/R_S_yt-STL3ejY9u_Q_73.mp4	0.0	139.11602115631104	0.10028600692749023
21	60.16576910018921	fix_pre	0		16.0	19.0	2.5	/experiments/knapen_aot/videos/S_comp_A007_C017_01156B_v02_SDR_PS_20180925_SDR_2K_AVC.mp4	0.0	139.21630716323853	0.13311195373535156
21	60.2906858921051	response	0	2		19.0	2.5	/experiments/knapen_aot/videos/S_comp_A007_C017_01156B_v02_SDR_PS_20180925_SDR_2K_AVC.mp4	0.0	139.34122395515442	
21	60.29888105392456	movie	1		165.0	19.0	2.5	/experiments/knapen_aot/videos/S_comp_A007_C017_01156B_v02_SDR_PS_20180925_SDR_2K_AVC.mp4	0.0	139.34941911697388	2.5083370208740234
21	62.807218074798584	fix_post	2		12.0	19.0	2.5	/experiments/knapen_aot/videos/S_comp_A007_C017_01156B_v02_SDR_PS_20180925_SDR_2K_AVC.mp4	0.0	141.8577561378479	0.09992790222167969
22	62.907145977020264	fix_pre	0		24.0	20.0	2.5	/experiments/knapen_aot/videos/S_ILSVRC2015_train_00404004.mp4	0.0	141.95768404006958	0.19998693466186523
22	63.09898400306702	response	0	4		20.0	2.5	/experiments/knapen_aot/videos/S_ILSVRC2015_train_00404004.mp4	0.0	142.14952206611633	
22	63.10713291168213	movie	1		301.0	20.0	2.5	/experiments/knapen_aot/videos/S_ILSVRC2015_train_00404004.mp4	0.0	142.15767097473145	2.5083980560302734
22	65.6155309677124	fix_post	2		12.0	20.0	2.5	/experiments/knapen_aot/videos/S_ILSVRC2015_train_00404004.mp4	0.0	144.66606903076172	0.09993600845336914
23	65.71546697616577	fix_pre	0		12.0	21.0	2.5	blank	1.0	144.7660050392151	0.10001397132873535
23	65.80728602409363	response	0	2		21.0	2.5	blank	1.0	144.85782408714294	
23	65.8154809474945	movie	1		301.0	21.0	2.5	blank	1.0	144.86601901054382	2.5083370208740234
23	68.32381796836853	fix_post	2		12.0	21.0	2.5	blank	1.0	147.37435603141785	0.09996294975280762
24	68.42378091812134	fix_pre	0		26.0	22.0	2.5	/experiments/knapen_aot/videos/S_production_ID_4707837.mp4	0.0	147.47431898117065	0.21671509742736816
24	68.63229203224182	response	0	4		22.0	2.5	/experiments/knapen_aot/videos/S_production_ID_4707837.mp4	0.0	147.68283009529114	
24	68.6404960155487	movie	1		166.0	22.0	2.5	/experiments/knapen_aot/videos/S_production_ID_4707837.mp4	0.0	147.69103407859802	2.5083611011505127
24	71.14885711669922	fix_post	2		12.0	22.0	2.5	/experiments/knapen_aot/videos/S_production_ID_4707837.mp4	0.0	150.19939517974854	0.10004091262817383
25	71.24889802932739	fix_pre	0		3.0	23.0	2.5	/experiments/knapen_aot/videos/S_yt-iO0efV_PV-k_102.mp4	0.0	150.2994360923767	0.02486586570739746
25	71.2656090259552	response	0	2		23.0	2.5	/experiments/knapen_aot/videos/S_yt-iO0efV_PV-k_102.mp4	0.0	150.31614708900452	
25	71.27376389503479	movie	1		301.0	23.0	2.5	/experiments/knapen_aot/videos/S_yt-iO0efV_PV-k_102.mp4	0.0	150.3243019580841	2.508416175842285
25	73.78218007087708	fix_post	2		12.0	23.0	2.5	/experiments/knapen_aot/videos/S_yt-iO0efV_PV-k_102.mp4	0.0	152.8327181339264	0.09996485710144043
26	73.88214492797852	fix_pre	0		45.0	24.0	2.5	/experiments/knapen_aot/videos/S_yt-wjBwgccZM5k_150.mp4	0.0	152.93268299102783	0.3749370574951172
26	74.24897289276123	response	0	4		24.0	2.5	/experiments/knapen_aot/videos/S_yt-wjBwgccZM5k_150.mp4	0.0	153.29951095581055	
26	74.25708198547363	movie	1		301.0	24.0	2.5	/experiments/knapen_aot/videos/S_yt-wjBwgccZM5k_150.mp4	0.0	153.30762004852295	2.508342981338501
26	76.76542496681213	fix_post	2		12.0	24.0	2.5	/experiments/knapen_aot/videos/S_yt-wjBwgccZM5k_150.mp4	0.0	155.81596302986145	0.1000509262084961
27	76.86547589302063	fix_pre	0		27.0	25.0	2.5	/experiments/knapen_aot/videos/R_S_production_ID_4997166.mp4	0.0	155.91601395606995	0.22498822212219238
27	77.08230710029602	response	0	2		25.0	2.5	/experiments/knapen_aot/videos/R_S_production_ID_4997166.mp4	0.0	156.13284516334534	
27	77.09046411514282	movie	1		171.0	25.0	2.5	/experiments/knapen_aot/videos/R_S_production_ID_4997166.mp4	0.0	156.14100217819214	2.508297920227051
27	79.59876203536987	fix_post	2		12.0	25.0	2.5	/experiments/knapen_aot/videos/R_S_production_ID_4997166.mp4	0.0	158.6493000984192	0.09999585151672363
28	79.6987578868866	fix_pre	0		20.0	26.0	2.5	/experiments/knapen_aot/videos/R_S_pexels-anthony-shkraba-7569650.mp4	0.0	158.7492959499359	0.16666007041931152
28	79.84972095489502	response	0	4		26.0	2.5	/experiments/knapen_aot/videos/R_S_pexels-anthony-shkraba-7569650.mp4	0.0	158.90025901794434	
28	79.86541795730591	movie	1		183.0	26.0	2.5	/experiments/knapen_aot/videos/R_S_pexels-anthony-shkraba-7569650.mp4	0.0	158.91595602035522	2.5084550380706787
28	82.37387299537659	fix_post	2		12.0	26.0	2.5	/experiments/knapen_aot/videos/R_S_pexels-anthony-shkraba-7569650.mp4	0.0	161.4244110584259	0.09986400604248047
29	82.47373700141907	fix_pre	0		21.0	27.0	2.5	blank	1.0	161.52427506446838	0.17506694793701172
29	82.64063310623169	response	0	2		27.0	2.5	blank	1.0	161.691171169281	
29	82.64880394935608	movie	1		301.0	27.0	2.5	blank	1.0	161.6993420124054	2.508358955383301
29	85.15716290473938	fix_post	2		12.0	27.0	2.5	blank	1.0	164.2077009677887	0.09997320175170898
30	85.25713610649109	fix_pre	0		57.0	28.0	2.5	/experiments/knapen_aot/videos/S_yt-8vm83GUgYxI_1.mp4	0.0	164.3076741695404	0.4749128818511963
30	85.72404909133911	response	0	4		28.0	2.5	/experiments/knapen_aot/videos/S_yt-8vm83GUgYxI_1.mp4	0.0	164.77458715438843	
30	85.73204898834229	movie	1		301.0	28.0	2.5	/experiments/knapen_aot/videos/S_yt-8vm83GUgYxI_1.mp4	0.0	164.7825870513916	2.508310079574585
30	88.24035906791687	fix_post	2		12.0	28.0	2.5	/experiments/knapen_aot/videos/S_yt-8vm83GUgYxI_1.mp4	0.0	167.2908971309662	0.10004496574401855
31	88.34040403366089	fix_pre	0		25.0	29.0	2.5	/experiments/knapen_aot/videos/S_yt-fnE8kgUHUMI_64.mp4	0.0	167.3909420967102	0.2083439826965332
31	88.54057192802429	response	0	2		29.0	2.5	/experiments/knapen_aot/videos/S_yt-fnE8kgUHUMI_64.mp4	0.0	167.5911099910736	
31	88.54874801635742	movie	1		301.0	29.0	2.5	/experiments/knapen_aot/videos/S_yt-fnE8kgUHUMI_64.mp4	0.0	167.59928607940674	2.5083000659942627
31	91.05704808235168	fix_post	2		12.0	29.0	2.5	/experiments/knapen_aot/videos/S_yt-fnE8kgUHUMI_64.mp4	0.0	170.107586145401	0.10002493858337402
32	91.15707302093506	fix_pre	0		41.0	30.0	2.5	/experiments/knapen_aot/videos/S_yt-3JApfnMu5cU_378.mp4	0.0	170.20761108398438	0.3416769504547119
32	91.49056792259216	response	0	4		30.0	2.5	/experiments/knapen_aot/videos/S_yt-3JApfnMu5cU_378.mp4	0.0	170.54110598564148	
32	91.49874997138977	movie	1		298.0	30.0	2.5	/experiments/knapen_aot/videos/S_yt-3JApfnMu5cU_378.mp4	0.0	170.5492880344391	2.5082950592041016
32	94.00704503059387	fix_post	2		12.0	30.0	2.5	/experiments/knapen_aot/videos/S_yt-3JApfnMu5cU_378.mp4	0.0	173.0575830936432	0.10004901885986328
32	94.07384896278381	response	2	2		30.0	2.5	/experiments/knapen_aot/videos/S_yt-3JApfnMu5cU_378.mp4	0.0	173.12438702583313	
33	94.10709404945374	fix_pre	0		46.0	31.0	2.5	/experiments/knapen_aot/videos/S_ILSVRC2015_train_00715000.mp4	0.0	173.15763211250305	0.3832550048828125
33	94.48220992088318	response	0	2		31.0	2.5	/experiments/knapen_aot/videos/S_ILSVRC2015_train_00715000.mp4	0.0	173.5327479839325	
33	94.49034905433655	movie	1		301.0	31.0	2.5	/experiments/knapen_aot/videos/S_ILSVRC2015_train_00715000.mp4	0.0	173.54088711738586	2.508368968963623
33	96.99871802330017	fix_post	2		12.0	31.0	2.5	/experiments/knapen_aot/videos/S_ILSVRC2015_train_00715000.mp4	0.0	176.0492560863495	0.10001993179321289
34	97.09873795509338	fix_pre	0		38.0	32.0	2.5	/experiments/knapen_aot/videos/S_production_ID_4540332.mp4	0.0	176.1492760181427	0.31664395332336426
34	97.39975690841675	response	0	2		32.0	2.5	/experiments/knapen_aot/videos/S_production_ID_4540332.mp4	0.0	176.45029497146606	
34	97.41538190841675	movie	1		168.0	32.0	2.5	/experiments/knapen_aot/videos/S_production_ID_4540332.mp4	0.0	176.46591997146606	2.5082991123199463
34	99.9236810207367	fix_post	2		12.0	32.0	2.5	/experiments/knapen_aot/videos/S_production_ID_4540332.mp4	0.0	178.974219083786	0.10010099411010742
35	100.0237820148468	fix_pre	0		12.0	33.0	2.5	/experiments/knapen_aot/videos/S_yt-Dlk44AGz-xM_37.mp4	0.0	179.07432007789612	0.09988689422607422
35	100.1154990196228	response	0	4		33.0	2.5	/experiments/knapen_aot/videos/S_yt-Dlk44AGz-xM_37.mp4	0.0	179.16603708267212	
35	100.12366890907288	movie	1		301.0	33.0	2.5	/experiments/knapen_aot/videos/S_yt-Dlk44AGz-xM_37.mp4	0.0	179.1742069721222	2.508362054824829
35	102.6320309638977	fix_post	2		12.0	33.0	2.5	/experiments/knapen_aot/videos/S_yt-Dlk44AGz-xM_37.mp4	0.0	181.68256902694702	0.10001015663146973
36	102.73204112052917	fix_pre	0		19.0	34.0	2.5	/experiments/knapen_aot/videos/S_yt-5rIpe3xc5rQ_18.mp4	0.0	181.7825791835785	0.1583108901977539
36	102.88211107254028	response	0	2		34.0	2.5	/experiments/knapen_aot/videos/S_yt-5rIpe3xc5rQ_18.mp4	0.0	181.9326491355896	
36	102.89035201072693	movie	1		300.0	34.0	2.5	/experiments/knapen_aot/videos/S_yt-5rIpe3xc5rQ_18.mp4	0.0	181.94089007377625	2.5083301067352295
36	105.39868211746216	fix_post	2		12.0	34.0	2.5	/experiments/knapen_aot/videos/S_yt-5rIpe3xc5rQ_18.mp4	0.0	184.44922018051147	0.10004878044128418
37	105.49873089790344	fix_pre	0		18.0	35.0	2.5	blank	1.0	184.54926896095276	0.14984703063964844
37	105.64046692848206	response	0	4		35.0	2.5	blank	1.0	184.69100499153137	
37	105.64857792854309	movie	1		301.0	35.0	2.5	blank	1.0	184.6991159915924	2.508409023284912
37	108.156986951828	fix_post	2		12.0	35.0	2.5	blank	1.0	187.20752501487732	0.10004496574401855
38	108.25703191757202	fix_pre	0		39.0	36.0	2.5	/experiments/knapen_aot/videos/S_yt-Fm97IY0Z2LU_79.mp4	0.0	187.30756998062134	0.32499098777770996
38	108.57380199432373	response	0	2		36.0	2.5	/experiments/knapen_aot/videos/S_yt-Fm97IY0Z2LU_79.mp4	0.0	187.62434005737305	
38	108.58202290534973	movie	1		301.0	36.0	2.5	/experiments/knapen_aot/videos/S_yt-Fm97IY0Z2LU_79.mp4	0.0	187.63256096839905	2.508355140686035
38	111.09037804603577	fix_post	2		12.0	36.0	2.5	/experiments/knapen_aot/videos/S_yt-Fm97IY0Z2LU_79.mp4	0.0	190.14091610908508	0.1001889705657959
39	111.19056701660156	fix_pre	0		18.0	37.0	2.5	/experiments/knapen_aot/videos/S_yt-AHbFln6blfE_36.mp4	0.0	190.24110507965088	0.14977598190307617
39	111.33212304115295	response	0	4		37.0	2.5	/experiments/knapen_aot/videos/S_yt-AHbFln6blfE_36.mp4	0.0	190.38266110420227	
39	111.34034299850464	movie	1		301.0	37.0	2.5	/experiments/knapen_aot/videos/S_yt-AHbFln6blfE_36.mp4	0.0	190.39088106155396	2.508376121520996
39	113.84871912002563	fix_post	2		12.0	37.0	2.5	/experiments/knapen_aot/videos/S_yt-AHbFln6blfE_36.mp4	0.0	192.89925718307495	0.09997177124023438
40	113.94869089126587	fix_pre	0		13.0	38.0	2.5	/experiments/knapen_aot/videos/R_S_yt-BW6jWEVbxxk_4.mp4	0.0	192.99922895431519	0.10827803611755371
40	114.04884696006775	response	0	2		38.0	2.5	/experiments/knapen_aot/videos/R_S_yt-BW6jWEVbxxk_4.mp4	0.0	193.09938502311707	
40	114.05696892738342	movie	1		301.0	38.0	2.5	/experiments/knapen_aot/videos/R_S_yt-BW6jWEVbxxk_4.mp4	0.0	193.10750699043274	2.508347988128662
40	116.56531691551208	fix_post	2		12.0	38.0	2.5	/experiments/knapen_aot/videos/R_S_yt-BW6jWEVbxxk_4.mp4	0.0	195.6158549785614	0.09999418258666992
41	116.66531109809875	fix_pre	0		53.0	39.0	2.5	/experiments/knapen_aot/videos/R_S_yt-UmLeGNcqouI_718.mp4	0.0	195.71584916114807	0.44164586067199707
41	117.09871912002563	response	0	4		39.0	2.5	/experiments/knapen_aot/videos/R_S_yt-UmLeGNcqouI_718.mp4	0.0	196.14925718307495	
41	117.10695695877075	movie	1		301.0	39.0	2.5	/experiments/knapen_aot/videos/R_S_yt-UmLeGNcqouI_718.mp4	0.0	196.15749502182007	2.5083861351013184
41	119.61534309387207	fix_post	2		12.0	39.0	2.5	/experiments/knapen_aot/videos/R_S_yt-UmLeGNcqouI_718.mp4	0.0	198.6658811569214	0.09996485710144043
42	119.71530795097351	fix_pre	0		19.0	40.0	2.5	/experiments/knapen_aot/videos/S_yt-Gokv9ZtV6zo_70.mp4	0.0	198.76584601402283	0.15836000442504883
42	119.86552000045776	response	0	2		40.0	2.5	/experiments/knapen_aot/videos/S_yt-Gokv9ZtV6zo_70.mp4	0.0	198.91605806350708	
42	119.87366795539856	movie	1		301.0	40.0	2.5	/experiments/knapen_aot/videos/S_yt-Gokv9ZtV6zo_70.mp4	0.0	198.92420601844788	2.5083329677581787
42	122.38200092315674	fix_post	2		12.0	40.0	2.5	/experiments/knapen_aot/videos/S_yt-Gokv9ZtV6zo_70.mp4	0.0	201.43253898620605	0.09995698928833008
43	122.48195791244507	fix_pre	0		29.0	41.0	2.5	blank	1.0	201.53249597549438	0.2417130470275879
43	122.71542811393738	response	0	4		41.0	2.5	blank	1.0	201.7659661769867	
43	122.72367095947266	movie	1		301.0	41.0	2.5	blank	1.0	201.77420902252197	2.508275032043457
43	125.23194599151611	fix_post	2		12.0	41.0	2.5	blank	1.0	204.28248405456543	0.10004496574401855
44	125.33199095726013	fix_pre	0		114.0	42.0	2.5	/experiments/knapen_aot/videos/S_comp_A009_C001_010181A_v09_SDR_PS_FINAL_20180725_SDR_2K_AVC.mp4	0.0	204.38252902030945	0.9499180316925049
44	126.27363610267639	response	0	2		42.0	2.5	/experiments/knapen_aot/videos/S_comp_A009_C001_010181A_v09_SDR_PS_FINAL_20180725_SDR_2K_AVC.mp4	0.0	205.3241741657257	
44	126.28190898895264	movie	1		171.0	42.0	2.5	/experiments/knapen_aot/videos/S_comp_A009_C001_010181A_v09_SDR_PS_FINAL_20180725_SDR_2K_AVC.mp4	0.0	205.33244705200195	2.508394956588745
44	128.79030394554138	fix_post	2		12.0	42.0	2.5	/experiments/knapen_aot/videos/S_comp_A009_C001_010181A_v09_SDR_PS_FINAL_20180725_SDR_2K_AVC.mp4	0.0	207.8408420085907	0.09997296333312988
45	128.8902769088745	fix_pre	0		30.0	43.0	2.5	/experiments/knapen_aot/videos/R_S_yt-5hgLXyLw82w_23.mp4	0.0	207.94081497192383	0.24998903274536133
45	129.12456011772156	response	0	2		43.0	2.5	/experiments/knapen_aot/videos/R_S_yt-5hgLXyLw82w_23.mp4	0.0	208.17509818077087	
45	129.14026594161987	movie	1		301.0	43.0	2.5	/experiments/knapen_aot/videos/R_S_yt-5hgLXyLw82w_23.mp4	0.0	208.1908040046692	2.5082759857177734
45	131.64854192733765	fix_post	2		12.0	43.0	2.5	/experiments/knapen_aot/videos/R_S_yt-5hgLXyLw82w_23.mp4	0.0	210.69907999038696	0.10005998611450195
46	131.74860191345215	fix_pre	0		27.0	44.0	2.5	/experiments/knapen_aot/videos/S_yt-fnE8kgUHUMI_64.mp4	0.0	210.79913997650146	0.22488808631896973
46	131.95781898498535	response	0	4		44.0	2.5	/experiments/knapen_aot/videos/S_yt-fnE8kgUHUMI_64.mp4	0.0	211.00835704803467	
46	131.97348999977112	movie	1		301.0	44.0	2.5	/experiments/knapen_aot/videos/S_yt-fnE8kgUHUMI_64.mp4	0.0	211.02402806282043	2.508415937423706
46	134.48190593719482	fix_post	2		12.0	44.0	2.5	/experiments/knapen_aot/videos/S_yt-fnE8kgUHUMI_64.mp4	0.0	213.53244400024414	0.10000014305114746
47	134.58190608024597	fix_pre	0		33.0	45.0	2.5	/experiments/knapen_aot/videos/S_wc-q23aBNJMZbnZ_27.mp4	0.0	213.6324441432953	0.27501487731933594
47	134.84855699539185	response	0	2		45.0	2.5	/experiments/knapen_aot/videos/S_wc-q23aBNJMZbnZ_27.mp4	0.0	213.89909505844116	
47	134.8569209575653	movie	1		165.0	45.0	2.5	/experiments/knapen_aot/videos/S_wc-q23aBNJMZbnZ_27.mp4	0.0	213.90745902061462	2.5083601474761963
47	137.3652811050415	fix_post	2		12.0	45.0	2.5	/experiments/knapen_aot/videos/S_wc-q23aBNJMZbnZ_27.mp4	0.0	216.41581916809082	0.10001778602600098
48	137.4652988910675	fix_pre	0		32.0	46.0	2.5	/experiments/knapen_aot/videos/S_yt-cokedWwwYYs_136.mp4	0.0	216.51583695411682	0.2666141986846924
48	137.7237091064453	response	0	4		46.0	2.5	/experiments/knapen_aot/videos/S_yt-cokedWwwYYs_136.mp4	0.0	216.77424716949463	
48	137.7319130897522	movie	1		301.0	46.0	2.5	/experiments/knapen_aot/videos/S_yt-cokedWwwYYs_136.mp4	0.0	216.7824511528015	2.5083107948303223
48	140.24022388458252	fix_post	2		12.0	46.0	2.5	/experiments/knapen_aot/videos/S_yt-cokedWwwYYs_136.mp4	0.0	219.29076194763184	0.10005521774291992
49	140.34027910232544	fix_pre	0		25.0	47.0	2.5	/experiments/knapen_aot/videos/R_S_wc-q23aBNJMZbnZ_27.mp4	0.0	219.39081716537476	0.208251953125
49	140.540433883667	response	0	2		47.0	2.5	/experiments/knapen_aot/videos/R_S_wc-q23aBNJMZbnZ_27.mp4	0.0	219.5909719467163	
49	140.54853105545044	movie	1		164.0	47.0	2.5	/experiments/knapen_aot/videos/R_S_wc-q23aBNJMZbnZ_27.mp4	0.0	219.59906911849976	2.508323907852173
49	143.0568549633026	fix_post	2		12.0	47.0	2.5	/experiments/knapen_aot/videos/R_S_wc-q23aBNJMZbnZ_27.mp4	0.0	222.10739302635193	0.09996199607849121
50	143.1568169593811	fix_pre	0		19.0	48.0	2.5	/experiments/knapen_aot/videos/R_S_yt-qazCIJqjxUU_3.mp4	0.0	222.20735502243042	0.1583421230316162
50	143.30708289146423	response	0	2		48.0	2.5	/experiments/knapen_aot/videos/R_S_yt-qazCIJqjxUU_3.mp4	0.0	222.35762095451355	
50	143.31515908241272	movie	1		301.0	48.0	2.5	/experiments/knapen_aot/videos/R_S_yt-qazCIJqjxUU_3.mp4	0.0	222.36569714546204	2.5084309577941895
50	145.8235900402069	fix_post	2		12.0	48.0	2.5	/experiments/knapen_aot/videos/R_S_yt-qazCIJqjxUU_3.mp4	0.0	224.87412810325623	0.09988999366760254
51	145.9234800338745	fix_pre	0		14.0	49.0	2.5	blank	1.0	224.97401809692383	0.11670994758605957
51	146.03186893463135	response	0	4		49.0	2.5	blank	1.0	225.08240699768066	
51	146.04018998146057	movie	1		301.0	49.0	2.5	blank	1.0	225.0907280445099	2.5083510875701904
51	148.54854106903076	fix_post	2		12.0	49.0	2.5	blank	1.0	227.59907913208008	0.10002684593200684
52	148.64856791496277	fix_pre	0		13.0	50.0	2.5	/experiments/knapen_aot/videos/S_Pexels_Videos_2786546.mp4	0.0	227.69910597801208	0.10829305648803711
52	148.74108791351318	response	0	2		50.0	2.5	/experiments/knapen_aot/videos/S_Pexels_Videos_2786546.mp4	0.0	227.7916259765625	
52	148.7568609714508	movie	1		168.0	50.0	2.5	/experiments/knapen_aot/videos/S_Pexels_Videos_2786546.mp4	0.0	227.80739903450012	2.5083420276641846
52	151.265202999115	fix_post	2		12.0	50.0	2.5	/experiments/knapen_aot/videos/S_Pexels_Videos_2786546.mp4	0.0	230.3157410621643	0.10119795799255371
52	151.35697603225708	response	2	4		50.0	2.5	/experiments/knapen_aot/videos/S_Pexels_Videos_2786546.mp4	0.0	230.4075140953064	
53	151.36640095710754	fix_pre	0		58.0	51.0	2.5	/experiments/knapen_aot/videos/S_yt-ebylvieB_4g_16.mp4	0.0	230.41693902015686	0.48211193084716797
53	151.8402500152588	response	0	4		51.0	2.5	/experiments/knapen_aot/videos/S_yt-ebylvieB_4g_16.mp4	0.0	230.8907880783081	
53	151.8485128879547	movie	1		301.0	51.0	2.5	/experiments/knapen_aot/videos/S_yt-ebylvieB_4g_16.mp4	0.0	230.89905095100403	2.5082480907440186
53	154.35676097869873	fix_post	2		12.0	51.0	2.5	/experiments/knapen_aot/videos/S_yt-ebylvieB_4g_16.mp4	0.0	233.40729904174805	0.10013794898986816
54	154.4568989276886	fix_pre	0		34.0	52.0	2.5	/experiments/knapen_aot/videos/S_ILSVRC2015_train_00446000.mp4	0.0	233.50743699073792	0.2843360900878906
54	154.73206090927124	response	0	2		52.0	2.5	/experiments/knapen_aot/videos/S_ILSVRC2015_train_00446000.mp4	0.0	233.78259897232056	
54	154.7412350177765	movie	1		301.0	52.0	2.5	/experiments/knapen_aot/videos/S_ILSVRC2015_train_00446000.mp4	0.0	233.7917730808258	2.5072519779205322
54	157.24848699569702	fix_post	2		12.0	52.0	2.5	/experiments/knapen_aot/videos/S_ILSVRC2015_train_00446000.mp4	0.0	236.29902505874634	0.09995388984680176
55	157.34844088554382	fix_pre	0		94.0	53.0	2.5	/experiments/knapen_aot/videos/S_nvbAwZOKBS8_23.mp4	0.0	236.39897894859314	0.7833340167999268
55	158.12360095977783	response	0	4		53.0	2.5	/experiments/knapen_aot/videos/S_nvbAwZOKBS8_23.mp4	0.0	237.17413902282715	
55	158.13177490234375	movie	1		301.0	53.0	2.5	/experiments/knapen_aot/videos/S_nvbAwZOKBS8_23.mp4	0.0	237.18231296539307	2.5082650184631348
55	160.64003992080688	fix_post	2		12.0	53.0	2.5	/experiments/knapen_aot/videos/S_nvbAwZOKBS8_23.mp4	0.0	239.6905779838562	0.10010910034179688
56	160.74014902114868	fix_pre	0		28.0	54.0	2.5	/experiments/knapen_aot/videos/S_yt-XtzmBXKYEWk_60.mp4	0.0	239.790687084198	0.23329901695251465
56	160.96524500846863	response	0	2		54.0	2.5	/experiments/knapen_aot/videos/S_yt-XtzmBXKYEWk_60.mp4	0.0	240.01578307151794	
56	160.9734480381012	movie	1		301.0	54.0	2.5	/experiments/knapen_aot/videos/S_yt-XtzmBXKYEWk_60.mp4	0.0	240.0239861011505	2.508368968963623
56	163.48181700706482	fix_post	2		12.0	54.0	2.5	/experiments/knapen_aot/videos/S_yt-XtzmBXKYEWk_60.mp4	0.0	242.53235507011414	0.10008502006530762
57	163.58190202713013	fix_pre	0		13.0	55.0	2.5	/experiments/knapen_aot/videos/R_S_yt-dj0XQUJos38_14.mp4	0.0	242.63244009017944	0.10826897621154785
57	163.68200397491455	response	0	4		55.0	2.5	/experiments/knapen_aot/videos/R_S_yt-dj0XQUJos38_14.mp4	0.0	242.73254203796387	
57	163.69017100334167	movie	1		301.0	55.0	2.5	/experiments/knapen_aot/videos/R_S_yt-dj0XQUJos38_14.mp4	0.0	242.740709066391	2.5083088874816895
57	166.19847989082336	fix_post	2		12.0	55.0	2.5	/experiments/knapen_aot/videos/R_S_yt-dj0XQUJos38_14.mp4	0.0	245.24901795387268	0.10000419616699219
58	166.29848408699036	fix_pre	0		17.0	56.0	2.5	blank	1.0	245.34902215003967	0.14166998863220215
58	166.43195104599	response	0	2		56.0	2.5	blank	1.0	245.4824891090393	
58	166.44015407562256	movie	1		301.0	56.0	2.5	blank	1.0	245.49069213867188	2.5083258152008057
58	168.94847989082336	fix_post	2		12.0	56.0	2.5	blank	1.0	247.99901795387268	0.09997916221618652
59	169.04845905303955	fix_pre	0		22.0	57.0	2.5	/experiments/knapen_aot/videos/R_S_yt-FzMLLmcD1mE_19.mp4	0.0	248.09899711608887	0.18329787254333496
59	169.22357201576233	response	0	4		57.0	2.5	/experiments/knapen_aot/videos/R_S_yt-FzMLLmcD1mE_19.mp4	0.0	248.27411007881165	
59	169.23175692558289	movie	1		301.0	57.0	2.5	/experiments/knapen_aot/videos/R_S_yt-FzMLLmcD1mE_19.mp4	0.0	248.2822949886322	2.5083131790161133
59	171.740070104599	fix_post	2		12.0	57.0	2.5	/experiments/knapen_aot/videos/R_S_yt-FzMLLmcD1mE_19.mp4	0.0	250.79060816764832	0.10004591941833496
60	171.84011602401733	fix_pre	0		15.0	58.0	2.5	/experiments/knapen_aot/videos/S_yt-IDpUZ2NWBUY_60.mp4	0.0	250.89065408706665	0.1250019073486328
60	171.95688605308533	response	0	2		58.0	2.5	/experiments/knapen_aot/videos/S_yt-IDpUZ2NWBUY_60.mp4	0.0	251.00742411613464	
60	171.96511793136597	movie	1		301.0	58.0	2.5	/experiments/knapen_aot/videos/S_yt-IDpUZ2NWBUY_60.mp4	0.0	251.01565599441528	2.5082969665527344
60	174.4734148979187	fix_post	2		12.0	58.0	2.5	/experiments/knapen_aot/videos/S_yt-IDpUZ2NWBUY_60.mp4	0.0	253.52395296096802	0.1001291275024414
61	174.57354402542114	fix_pre	0		121.0	59.0	2.5	/experiments/knapen_aot/videos/S_yt-zSSnQYeO_DE_338.mp4	0.0	253.62408208847046	1.008164882659912
61	175.57350397109985	response	0	2		59.0	2.5	/experiments/knapen_aot/videos/S_yt-zSSnQYeO_DE_338.mp4	0.0	254.62404203414917	
61	175.58170890808105	movie	1		300.0	59.0	2.5	/experiments/knapen_aot/videos/S_yt-zSSnQYeO_DE_338.mp4	0.0	254.63224697113037	2.508362054824829
61	178.09007096290588	fix_post	2		12.0	59.0	2.5	/experiments/knapen_aot/videos/S_yt-zSSnQYeO_DE_338.mp4	0.0	257.1406090259552	0.09995007514953613
62	178.19002103805542	fix_pre	0		26.0	60.0	2.5	/experiments/knapen_aot/videos/R_S_Y004_C015_SDR_2K_AVC.mp4	0.0	257.24055910110474	0.21767592430114746
62	178.3984990119934	response	0	4		60.0	2.5	/experiments/knapen_aot/videos/R_S_Y004_C015_SDR_2K_AVC.mp4	0.0	257.4490370750427	
62	178.40769696235657	movie	1		172.0	60.0	2.5	/experiments/knapen_aot/videos/R_S_Y004_C015_SDR_2K_AVC.mp4	0.0	257.4582350254059	2.5073821544647217
62	180.9150791168213	fix_post	2		12.0	60.0	2.5	/experiments/knapen_aot/videos/R_S_Y004_C015_SDR_2K_AVC.mp4	0.0	259.9656171798706	0.09995293617248535
63	181.01503205299377	fix_pre	0		42.0	61.0	2.5	blank	1.0	260.0655701160431	0.3509938716888428
63	181.35689401626587	response	0	2		61.0	2.5	blank	1.0	260.4074320793152	
63	181.36602592468262	movie	1		301.0	61.0	2.5	blank	1.0	260.41656398773193	2.5072569847106934
63	183.8732829093933	fix_post	2		12.0	61.0	2.5	blank	1.0	262.9238209724426	0.10008406639099121
64	183.9733669757843	fix_pre	0		21.0	62.0	2.5	/experiments/knapen_aot/videos/R_S_pexels-anthony-shkraba-7569650.mp4	0.0	263.0239050388336	0.17496395111083984
64	184.132630109787	response	0	2		62.0	2.5	/experiments/knapen_aot/videos/R_S_pexels-anthony-shkraba-7569650.mp4	0.0	263.1831681728363	
64	184.14833092689514	movie	1		177.0	62.0	2.5	/experiments/knapen_aot/videos/R_S_pexels-anthony-shkraba-7569650.mp4	0.0	263.19886898994446	2.508392095565796
64	186.65672302246094	fix_post	2		12.0	62.0	2.5	/experiments/knapen_aot/videos/R_S_pexels-anthony-shkraba-7569650.mp4	0.0	265.70726108551025	0.0999898910522461
65	186.75671291351318	fix_pre	0		10.0	63.0	2.5	/experiments/knapen_aot/videos/R_S_ILSVRC2015_train_00292006.mp4	0.0	265.8072509765625	0.08332705497741699
65	186.83188199996948	response	0	4		63.0	2.5	/experiments/knapen_aot/videos/R_S_ILSVRC2015_train_00292006.mp4	0.0	265.8824200630188	
65	186.8400399684906	movie	1		301.0	63.0	2.5	/experiments/knapen_aot/videos/R_S_ILSVRC2015_train_00292006.mp4	0.0	265.8905780315399	2.5082991123199463
65	189.34833908081055	fix_post	2		12.0	63.0	2.5	/experiments/knapen_aot/videos/R_S_ILSVRC2015_train_00292006.mp4	0.0	268.39887714385986	0.10001587867736816
66	189.44835495948792	fix_pre	0		22.0	64.0	2.5	/experiments/knapen_aot/videos/R_S_yt-28ODBE9bVh0_44.mp4	0.0	268.49889302253723	0.18328309059143066
66	189.62350702285767	response	0	2		64.0	2.5	/experiments/knapen_aot/videos/R_S_yt-28ODBE9bVh0_44.mp4	0.0	268.674045085907	
66	189.63163805007935	movie	1		301.0	64.0	2.5	/experiments/knapen_aot/videos/R_S_yt-28ODBE9bVh0_44.mp4	0.0	268.68217611312866	2.508384943008423
66	192.14002299308777	fix_post	2		12.0	64.0	2.5	/experiments/knapen_aot/videos/R_S_yt-28ODBE9bVh0_44.mp4	0.0	271.1905610561371	0.09999203681945801
67	192.24001502990723	fix_pre	0		6.0	65.0	2.5	/experiments/knapen_aot/videos/S_production_ID_4997166.mp4	0.0	271.29055309295654	0.049974918365478516
67	192.2818160057068	response	0	2		65.0	2.5	/experiments/knapen_aot/videos/S_production_ID_4997166.mp4	0.0	271.3323540687561	
67	192.2899899482727	movie	1		168.0	65.0	2.5	/experiments/knapen_aot/videos/S_production_ID_4997166.mp4	0.0	271.340528011322	2.5083611011505127
67	194.79835104942322	fix_post	2		12.0	65.0	2.5	/experiments/knapen_aot/videos/S_production_ID_4997166.mp4	0.0	273.84888911247253	0.10001492500305176
68	194.89836597442627	fix_pre	0		29.0	66.0	2.5	/experiments/knapen_aot/videos/S_yt-78k6vUHDWAI_206.mp4	0.0	273.9489040374756	0.24169397354125977
68	195.13183999061584	response	0	4		66.0	2.5	/experiments/knapen_aot/videos/S_yt-78k6vUHDWAI_206.mp4	0.0	274.18237805366516	
68	195.14005994796753	movie	1		301.0	66.0	2.5	/experiments/knapen_aot/videos/S_yt-78k6vUHDWAI_206.mp4	0.0	274.19059801101685	2.50829815864563
68	197.64835810661316	fix_post	2		12.0	66.0	2.5	/experiments/knapen_aot/videos/S_yt-78k6vUHDWAI_206.mp4	0.0	276.6988961696625	0.09995198249816895
69	197.74831008911133	fix_pre	0		36.0	67.0	2.5	/experiments/knapen_aot/videos/R_S_yt-5rIpe3xc5rQ_18.mp4	0.0	276.79884815216064	0.3000168800354004
69	198.03258204460144	response	0	2		67.0	2.5	/experiments/knapen_aot/videos/R_S_yt-5rIpe3xc5rQ_18.mp4	0.0	277.08312010765076	
69	198.04832696914673	movie	1		301.0	67.0	2.5	/experiments/knapen_aot/videos/R_S_yt-5rIpe3xc5rQ_18.mp4	0.0	277.09886503219604	2.5083320140838623
69	200.5566589832306	fix_post	2		12.0	67.0	2.5	/experiments/knapen_aot/videos/R_S_yt-5rIpe3xc5rQ_18.mp4	0.0	279.6071970462799	0.10002613067626953
70	200.65668511390686	fix_pre	0		23.0	68.0	2.5	/experiments/knapen_aot/videos/S_yt-BW6jWEVbxxk_4.mp4	0.0	279.7072231769562	0.19163298606872559
70	200.84009909629822	response	0	2		68.0	2.5	/experiments/knapen_aot/videos/S_yt-BW6jWEVbxxk_4.mp4	0.0	279.89063715934753	
70	200.8483180999756	movie	1		301.0	68.0	2.5	/experiments/knapen_aot/videos/S_yt-BW6jWEVbxxk_4.mp4	0.0	279.8988561630249	2.5082178115844727
70	203.35653591156006	fix_post	2		12.0	68.0	2.5	/experiments/knapen_aot/videos/S_yt-BW6jWEVbxxk_4.mp4	0.0	282.4070739746094	0.10003399848937988
71	203.45656991004944	fix_pre	0		28.0	69.0	2.5	/experiments/knapen_aot/videos/R_S_ILSVRC2015_train_00569006.mp4	0.0	282.50710797309875	0.23334813117980957
71	203.68176293373108	response	0	4		69.0	2.5	/experiments/knapen_aot/videos/R_S_ILSVRC2015_train_00569006.mp4	0.0	282.7323009967804	
71	203.68991804122925	movie	1		301.0	69.0	2.5	/experiments/knapen_aot/videos/R_S_ILSVRC2015_train_00569006.mp4	0.0	282.74045610427856	2.5083858966827393
71	206.198303937912	fix_post	2		12.0	69.0	2.5	/experiments/knapen_aot/videos/R_S_ILSVRC2015_train_00569006.mp4	0.0	285.2488420009613	0.10003304481506348
72	206.29833698272705	fix_pre	0		9.0	70.0	2.5	blank	1.0	285.34887504577637	0.07494807243347168
72	206.3649730682373	response	0	2		70.0	2.5	blank	1.0	285.4155111312866	
72	206.37328505516052	movie	1		301.0	70.0	2.5	blank	1.0	285.42382311820984	2.5082709789276123
72	208.88155603408813	fix_post	2		12.0	70.0	2.5	blank	1.0	287.93209409713745	0.10001587867736816
73	208.9815719127655	fix_pre	0		22.0	71.0	2.5	/experiments/knapen_aot/videos/S_yt-oVrkSsEpuvk_118.mp4	0.0	288.0321099758148	0.18330907821655273
73	209.1567280292511	response	0	4		71.0	2.5	/experiments/knapen_aot/videos/S_yt-oVrkSsEpuvk_118.mp4	0.0	288.2072660923004	
73	209.16488099098206	movie	1		301.0	71.0	2.5	/experiments/knapen_aot/videos/S_yt-oVrkSsEpuvk_118.mp4	0.0	288.2154190540314	2.508371114730835
73	211.6732521057129	fix_post	2		12.0	71.0	2.5	/experiments/knapen_aot/videos/S_yt-oVrkSsEpuvk_118.mp4	0.0	290.7237901687622	0.09997081756591797
74	211.7732229232788	fix_pre	0		17.0	72.0	2.5	/experiments/knapen_aot/videos/S_yt-ET5YTz1laWo_108.mp4	0.0	290.8237609863281	0.1416161060333252
74	211.90668606758118	response	0	2		72.0	2.5	/experiments/knapen_aot/videos/S_yt-ET5YTz1laWo_108.mp4	0.0	290.9572241306305	
74	211.91483902931213	movie	1		301.0	72.0	2.5	/experiments/knapen_aot/videos/S_yt-ET5YTz1laWo_108.mp4	0.0	290.96537709236145	2.5083580017089844
74	214.42319703102112	fix_post	2		12.0	72.0	2.5	/experiments/knapen_aot/videos/S_yt-ET5YTz1laWo_108.mp4	0.0	293.47373509407043	0.10005497932434082
75	214.52325201034546	fix_pre	0		14.0	73.0	2.5	/experiments/knapen_aot/videos/R_S_ILSVRC2015_train_00682003.mp4	0.0	293.5737900733948	0.11664605140686035
75	214.6317319869995	response	0	4		73.0	2.5	/experiments/knapen_aot/videos/R_S_ILSVRC2015_train_00682003.mp4	0.0	293.6822700500488	
75	214.63989806175232	movie	1		301.0	73.0	2.5	/experiments/knapen_aot/videos/R_S_ILSVRC2015_train_00682003.mp4	0.0	293.69043612480164	2.50832200050354
75	217.14822006225586	fix_post	2		12.0	73.0	2.5	/experiments/knapen_aot/videos/R_S_ILSVRC2015_train_00682003.mp4	0.0	296.1987581253052	0.10000085830688477
76	217.24822092056274	fix_pre	0		28.0	74.0	2.5	/experiments/knapen_aot/videos/S_yt-RHPOCG1mII0_138.mp4	0.0	296.29875898361206	0.2332770824432373
76	217.47334909439087	response	0	2		74.0	2.5	/experiments/knapen_aot/videos/S_yt-RHPOCG1mII0_138.mp4	0.0	296.5238871574402	
76	217.48149800300598	movie	1		301.0	74.0	2.5	/experiments/knapen_aot/videos/S_yt-RHPOCG1mII0_138.mp4	0.0	296.5320360660553	2.508404016494751
76	219.98990201950073	fix_post	2		12.0	74.0	2.5	/experiments/knapen_aot/videos/S_yt-RHPOCG1mII0_138.mp4	0.0	299.04044008255005	0.09998703002929688
77	220.08988904953003	fix_pre	0		85.0	75.0	2.5	blank	1.0	299.14042711257935	0.7082538604736328
77	220.79002690315247	response	0	2		75.0	2.5	blank	1.0	299.8405649662018	
77	220.79814291000366	movie	1		301.0	75.0	2.5	blank	1.0	299.848680973053	2.5084071159362793
77	223.30655002593994	fix_post	2		12.0	75.0	2.5	blank	1.0	302.35708808898926	0.09999394416809082
78	223.40654397010803	fix_pre	0		36.0	76.0	2.5	/experiments/knapen_aot/videos/S_yt-hMyqUMAbFAk_303.mp4	0.0	302.45708203315735	0.29997897148132324
78	223.6908040046692	response	0	2		76.0	2.5	/experiments/knapen_aot/videos/S_yt-hMyqUMAbFAk_303.mp4	0.0	302.7413420677185	
78	223.70652294158936	movie	1		301.0	76.0	2.5	/experiments/knapen_aot/videos/S_yt-hMyqUMAbFAk_303.mp4	0.0	302.7570610046387	2.50829815864563
78	226.21482110023499	fix_post	2		12.0	76.0	2.5	/experiments/knapen_aot/videos/S_yt-hMyqUMAbFAk_303.mp4	0.0	305.2653591632843	0.10009098052978516
79	226.31491208076477	fix_pre	0		25.0	77.0	2.5	/experiments/knapen_aot/videos/R_S_video-8.mp4	0.0	305.3654501438141	0.20824193954467773
79	226.5149528980255	response	0	2		77.0	2.5	/experiments/knapen_aot/videos/R_S_video-8.mp4	0.0	305.56549096107483	
79	226.52315402030945	movie	1		198.0	77.0	2.5	/experiments/knapen_aot/videos/R_S_video-8.mp4	0.0	305.57369208335876	2.508375883102417
79	229.03152990341187	fix_post	2		12.0	77.0	2.5	/experiments/knapen_aot/videos/R_S_video-8.mp4	0.0	308.0820679664612	0.10003113746643066
80	229.1315610408783	fix_pre	0		16.0	78.0	2.5	/experiments/knapen_aot/videos/R_S_ILSVRC2015_train_00628000.mp4	0.0	308.1820991039276	0.13320398330688477
80	229.25661993026733	response	0	2		78.0	2.5	/experiments/knapen_aot/videos/R_S_ILSVRC2015_train_00628000.mp4	0.0	308.30715799331665	
80	229.26476502418518	movie	1		301.0	78.0	2.5	/experiments/knapen_aot/videos/R_S_ILSVRC2015_train_00628000.mp4	0.0	308.3153030872345	2.5083699226379395
80	231.77313494682312	fix_post	2		12.0	78.0	2.5	/experiments/knapen_aot/videos/R_S_ILSVRC2015_train_00628000.mp4	0.0	310.82367300987244	0.10002899169921875
81	231.87316393852234	fix_pre	0		27.0	79.0	2.5	/experiments/knapen_aot/videos/R_S_yt-MUfa26F8dfE_97.mp4	0.0	310.92370200157166	0.22498607635498047
81	232.0899760723114	response	0	2		79.0	2.5	/experiments/knapen_aot/videos/R_S_yt-MUfa26F8dfE_97.mp4	0.0	311.1405141353607	
81	232.09815001487732	movie	1		301.0	79.0	2.5	/experiments/knapen_aot/videos/R_S_yt-MUfa26F8dfE_97.mp4	0.0	311.14868807792664	2.5083179473876953
81	234.60646796226501	fix_post	2		12.0	79.0	2.5	/experiments/knapen_aot/videos/R_S_yt-MUfa26F8dfE_97.mp4	0.0	313.65700602531433	0.09993100166320801
82	234.70639896392822	fix_pre	0		21.0	80.0	2.5	/experiments/knapen_aot/videos/S_ILSVRC2015_train_00682003.mp4	0.0	313.75693702697754	0.17516207695007324
82	234.87328600883484	response	0	2		80.0	2.5	/experiments/knapen_aot/videos/S_ILSVRC2015_train_00682003.mp4	0.0	313.92382407188416	
82	234.8815610408783	movie	1		299.0	80.0	2.5	/experiments/knapen_aot/videos/S_ILSVRC2015_train_00682003.mp4	0.0	313.9320991039276	2.5082008838653564
82	237.38976192474365	fix_post	2		12.0	80.0	2.5	/experiments/knapen_aot/videos/S_ILSVRC2015_train_00682003.mp4	0.0	316.44029998779297	0.09998416900634766
83	237.48974609375	fix_pre	0		32.0	81.0	2.5	/experiments/knapen_aot/videos/S_pexels-anastasia-shuraeva-601407_2.mp4	0.0	316.5402841567993	0.26675987243652344
83	237.7482979297638	response	0	2		81.0	2.5	/experiments/knapen_aot/videos/S_pexels-anastasia-shuraeva-601407_2.mp4	0.0	316.7988359928131	
83	237.75650596618652	movie	1		204.0	81.0	2.5	/experiments/knapen_aot/videos/S_pexels-anastasia-shuraeva-601407_2.mp4	0.0	316.80704402923584	2.5082809925079346
83	240.26478695869446	fix_post	2		12.0	81.0	2.5	/experiments/knapen_aot/videos/S_pexels-anastasia-shuraeva-601407_2.mp4	0.0	319.3153250217438	0.10003113746643066
84	240.3648180961609	fix_pre	0		18.0	82.0	2.5	/experiments/knapen_aot/videos/R_S_ILSVRC2015_train_00369000.mp4	0.0	319.4153561592102	0.149918794631958
84	240.50658106803894	response	0	2		82.0	2.5	/experiments/knapen_aot/videos/R_S_ILSVRC2015_train_00369000.mp4	0.0	319.55711913108826	
84	240.51473689079285	movie	1		301.0	82.0	2.5	/experiments/knapen_aot/videos/R_S_ILSVRC2015_train_00369000.mp4	0.0	319.56527495384216	2.5083842277526855
84	243.02312111854553	fix_post	2		12.0	82.0	2.5	/experiments/knapen_aot/videos/R_S_ILSVRC2015_train_00369000.mp4	0.0	322.07365918159485	0.10003185272216797
85	243.1231529712677	fix_pre	0		22.0	83.0	2.5	blank	1.0	322.173691034317	0.18335199356079102
85	243.29824995994568	response	0	2		83.0	2.5	blank	1.0	322.348788022995	
85	243.3065049648285	movie	1		301.0	83.0	2.5	blank	1.0	322.3570430278778	2.5083229541778564
85	245.81482791900635	fix_post	2		12.0	83.0	2.5	blank	1.0	324.86536598205566	0.09993410110473633
87	245.91476202011108	stim	0		268.0					324.9653000831604	2.2353909015655518
87	246.0899109840393	response	0	2						325.1404490470886	
87	248.14478993415833	response	0	space						327.19532799720764	
