trial_nr	onset	event_type	phase	response	nr_frames	movie_index	movie_duration	movie_file	blank	onset_abs	duration
0	0.1316089630126953	stim	0		2715.0					80.74777889251709	22.645663022994995
0	22.764518976211548	response	0	space						103.38068890571594	
1	22.77727198600769	stim	0		121.0					103.39344191551208	1.0037620067596436
1	23.781033992767334	stim	1		120.0					104.39720392227173	1.0000529289245605
2	24.781086921691895	fix_pre	0		732.0	0.0	2.5	/experiments/knapen_aot/videos/R_S_yt-s-J3C6e5A3Q_18.mp4	0.0	105.39725685119629	6.100257158279419
2	30.86530303955078	response	0	space		0.0	2.5	/experiments/knapen_aot/videos/R_S_yt-s-J3C6e5A3Q_18.mp4	0.0	111.48147296905518	
2	30.881344079971313	movie	1		298.0	0.0	2.5	/experiments/knapen_aot/videos/R_S_yt-s-J3C6e5A3Q_18.mp4	0.0	111.49751400947571	2.5079808235168457
2	33.38932490348816	fix_post	2		12.0	0.0	2.5	/experiments/knapen_aot/videos/R_S_yt-s-J3C6e5A3Q_18.mp4	0.0	114.00549483299255	0.09996199607849121
3	33.48928689956665	fix_pre	0		301.0	1.0	2.5	/experiments/knapen_aot/videos/S_video_inspire_california_big-sur_2020_00001.1080-h264.mp4	0.0	114.10545682907104	2.5100960731506348
3	35.99233412742615	response	0	2		1.0	2.5	/experiments/knapen_aot/videos/S_video_inspire_california_big-sur_2020_00001.1080-h264.mp4	0.0	116.60850405693054	
3	35.999382972717285	movie	1		165.0	1.0	2.5	/experiments/knapen_aot/videos/S_video_inspire_california_big-sur_2020_00001.1080-h264.mp4	0.0	116.61555290222168	2.506662130355835
3	38.50604510307312	fix_post	2		12.0	1.0	2.5	/experiments/knapen_aot/videos/S_video_inspire_california_big-sur_2020_00001.1080-h264.mp4	0.0	119.12221503257751	0.09991598129272461
4	38.605961084365845	fix_pre	0		335.0	2.0	2.5	/experiments/knapen_aot/videos/S_yt-2jVJb1PR2XA_16.mp4	0.0	119.22213101387024	2.7916789054870605
4	41.38936901092529	response	0	2		2.0	2.5	/experiments/knapen_aot/videos/S_yt-2jVJb1PR2XA_16.mp4	0.0	122.00553894042969	
4	41.397639989852905	movie	1		301.0	2.0	2.5	/experiments/knapen_aot/videos/S_yt-2jVJb1PR2XA_16.mp4	0.0	122.0138099193573	2.508368968963623
4	43.90600895881653	fix_post	2		12.0	2.0	2.5	/experiments/knapen_aot/videos/S_yt-2jVJb1PR2XA_16.mp4	0.0	124.52217888832092	0.10019516944885254
5	44.00620412826538	fix_pre	0		279.0	3.0	2.5	/experiments/knapen_aot/videos/S_yt-M_ApPnq00iE_67.mp4	0.0	124.62237405776978	2.3247649669647217
5	46.32284092903137	response	0	2		3.0	2.5	/experiments/knapen_aot/videos/S_yt-M_ApPnq00iE_67.mp4	0.0	126.93901085853577	
5	46.3309690952301	movie	1		299.0	3.0	2.5	/experiments/knapen_aot/videos/S_yt-M_ApPnq00iE_67.mp4	0.0	126.9471390247345	2.5085809230804443
5	48.83955001831055	fix_post	2		12.0	3.0	2.5	/experiments/knapen_aot/videos/S_yt-M_ApPnq00iE_67.mp4	0.0	129.45571994781494	0.09972405433654785
6	48.939274072647095	fix_pre	0		304.0	4.0	2.5	/experiments/knapen_aot/videos/S_yt-XtzmBXKYEWk_60.mp4	0.0	129.5554440021515	2.5333309173583984
6	51.46441102027893	response	0	2		4.0	2.5	/experiments/knapen_aot/videos/S_yt-XtzmBXKYEWk_60.mp4	0.0	132.08058094978333	
6	51.47260499000549	movie	1		301.0	4.0	2.5	/experiments/knapen_aot/videos/S_yt-XtzmBXKYEWk_60.mp4	0.0	132.0887749195099	2.5083301067352295
6	53.98093509674072	fix_post	2		12.0	4.0	2.5	/experiments/knapen_aot/videos/S_yt-XtzmBXKYEWk_60.mp4	0.0	134.59710502624512	0.10008382797241211
7	54.081018924713135	fix_pre	0		268.0	5.0	2.5	blank	1.0	134.69718885421753	2.233347177505493
7	56.30604410171509	response	0	2		5.0	2.5	blank	1.0	136.92221403121948	
7	56.31436610221863	movie	1		301.0	5.0	2.5	blank	1.0	136.93053603172302	2.5082290172576904
7	58.82259511947632	fix_post	2		12.0	5.0	2.5	blank	1.0	139.4387650489807	0.10015487670898438
8	58.9227499961853	fix_pre	0		286.0	6.0	2.5	/experiments/knapen_aot/videos/R_S_yt-tqxZlasEvZA_43.mp4	0.0	139.5389199256897	2.3831260204315186
8	61.29767894744873	response	0	2		6.0	2.5	/experiments/knapen_aot/videos/R_S_yt-tqxZlasEvZA_43.mp4	0.0	141.91384887695312	
8	61.30587601661682	movie	1		301.0	6.0	2.5	/experiments/knapen_aot/videos/R_S_yt-tqxZlasEvZA_43.mp4	0.0	141.92204594612122	2.5084118843078613
8	63.81428790092468	fix_post	2		12.0	6.0	2.5	/experiments/knapen_aot/videos/R_S_yt-tqxZlasEvZA_43.mp4	0.0	144.43045783042908	0.10004401206970215
9	63.914331912994385	fix_pre	0		244.0	7.0	2.5	/experiments/knapen_aot/videos/S_OdxWh1oU8e8_1.mp4	0.0	144.53050184249878	2.0331871509552
9	65.93197202682495	response	0	2		7.0	2.5	/experiments/knapen_aot/videos/S_OdxWh1oU8e8_1.mp4	0.0	146.54814195632935	
9	65.94751906394958	movie	1		299.0	7.0	2.5	/experiments/knapen_aot/videos/S_OdxWh1oU8e8_1.mp4	0.0	146.56368899345398	2.508352041244507
9	68.45587110519409	fix_post	2		12.0	7.0	2.5	/experiments/knapen_aot/videos/S_OdxWh1oU8e8_1.mp4	0.0	149.0720410346985	0.09995889663696289
10	68.55583000183105	fix_pre	0		284.0	8.0	2.5	/experiments/knapen_aot/videos/S_yt-WhQMF3WM0Ig_29.mp4	0.0	149.17199993133545	2.3667259216308594
10	70.90693092346191	response	0	2		8.0	2.5	/experiments/knapen_aot/videos/S_yt-WhQMF3WM0Ig_29.mp4	0.0	151.5231008529663	
10	70.92255592346191	movie	1		299.0	8.0	2.5	/experiments/knapen_aot/videos/S_yt-WhQMF3WM0Ig_29.mp4	0.0	151.5387258529663	2.5082011222839355
10	73.43075704574585	fix_post	2		12.0	8.0	2.5	/experiments/knapen_aot/videos/S_yt-WhQMF3WM0Ig_29.mp4	0.0	154.04692697525024	0.10010290145874023
11	73.53085994720459	fix_pre	0		750.0	9.0	2.5	/experiments/knapen_aot/videos/S_video_inspire_california_vineyard_sierra-mar_sunrise_110.1080-h264.mp4	0.0	154.14702987670898	6.250058174133301
11	79.7725601196289	response	0	2		9.0	2.5	/experiments/knapen_aot/videos/S_video_inspire_california_vineyard_sierra-mar_sunrise_110.1080-h264.mp4	0.0	160.3887300491333	
11	79.78091812133789	movie	1		168.0	9.0	2.5	/experiments/knapen_aot/videos/S_video_inspire_california_vineyard_sierra-mar_sunrise_110.1080-h264.mp4	0.0	160.39708805084229	2.5082528591156006
11	82.28917098045349	fix_post	2		12.0	9.0	2.5	/experiments/knapen_aot/videos/S_video_inspire_california_vineyard_sierra-mar_sunrise_110.1080-h264.mp4	0.0	162.90534090995789	0.09999394416809082
12	82.38916492462158	fix_pre	0		184.0	10.0	2.5	/experiments/knapen_aot/videos/S_pexels-koolshooters-7327401_1.mp4	0.0	163.00533485412598	1.5333240032196045
12	83.91429805755615	response	0	2		10.0	2.5	/experiments/knapen_aot/videos/S_pexels-koolshooters-7327401_1.mp4	0.0	164.53046798706055	
12	83.92248892784119	movie	1		165.0	10.0	2.5	/experiments/knapen_aot/videos/S_pexels-koolshooters-7327401_1.mp4	0.0	164.53865885734558	2.5083580017089844
12	86.43084692955017	fix_post	2		12.0	10.0	2.5	/experiments/knapen_aot/videos/S_pexels-koolshooters-7327401_1.mp4	0.0	167.04701685905457	0.10001206398010254
13	86.53085899353027	fix_pre	0		129.0	11.0	2.5	/experiments/knapen_aot/videos/R_S_bing-www_nytimes_com_video_dining_1247468118505_grilled-chicken-breasts-with-herb-butter_html_132.mp4	0.0	167.14702892303467	1.0748999118804932
13	87.59755301475525	response	0	2		11.0	2.5	/experiments/knapen_aot/videos/R_S_bing-www_nytimes_com_video_dining_1247468118505_grilled-chicken-breasts-with-herb-butter_html_132.mp4	0.0	168.21372294425964	
13	87.60575890541077	movie	1		167.0	11.0	2.5	/experiments/knapen_aot/videos/R_S_bing-www_nytimes_com_video_dining_1247468118505_grilled-chicken-breasts-with-herb-butter_html_132.mp4	0.0	168.22192883491516	2.508406162261963
13	90.11416506767273	fix_post	2		12.0	11.0	2.5	/experiments/knapen_aot/videos/R_S_bing-www_nytimes_com_video_dining_1247468118505_grilled-chicken-breasts-with-herb-butter_html_132.mp4	0.0	170.73033499717712	0.10003089904785156
14	90.21419596672058	fix_pre	0		228.0	12.0	2.5	/experiments/knapen_aot/videos/S_yt-Nnt51ug6NF8_53.mp4	0.0	170.83036589622498	1.8998689651489258
14	92.10591101646423	response	0	2		12.0	2.5	/experiments/knapen_aot/videos/S_yt-Nnt51ug6NF8_53.mp4	0.0	172.72208094596863	
14	92.1140649318695	movie	1		301.0	12.0	2.5	/experiments/knapen_aot/videos/S_yt-Nnt51ug6NF8_53.mp4	0.0	172.7302348613739	2.508357048034668
14	94.62242197990417	fix_post	2		12.0	12.0	2.5	/experiments/knapen_aot/videos/S_yt-Nnt51ug6NF8_53.mp4	0.0	175.23859190940857	0.09996795654296875
15	94.72238993644714	fix_pre	0		157.0	13.0	2.5	/experiments/knapen_aot/videos/R_S_yt-Z0nfPTEEOLo_85.mp4	0.0	175.33855986595154	1.308340072631836
15	96.01517391204834	response	0	2		13.0	2.5	/experiments/knapen_aot/videos/R_S_yt-Z0nfPTEEOLo_85.mp4	0.0	176.63134384155273	
15	96.03073000907898	movie	1		301.0	13.0	2.5	/experiments/knapen_aot/videos/R_S_yt-Z0nfPTEEOLo_85.mp4	0.0	176.64689993858337	2.508352041244507
15	98.53908205032349	fix_post	2		12.0	13.0	2.5	/experiments/knapen_aot/videos/R_S_yt-Z0nfPTEEOLo_85.mp4	0.0	179.15525197982788	0.10004186630249023
16	98.63912391662598	fix_pre	0		87.0	14.0	2.5	blank	1.0	179.25529384613037	0.7249782085418701
16	99.35592198371887	response	0	2		14.0	2.5	blank	1.0	179.97209191322327	
16	99.36410212516785	movie	1		301.0	14.0	2.5	blank	1.0	179.98027205467224	2.50827693939209
16	101.87237906455994	fix_post	2		12.0	14.0	2.5	blank	1.0	182.48854899406433	0.1000208854675293
17	101.97239995002747	fix_pre	0		69.0	15.0	2.5	/experiments/knapen_aot/videos/S_yt-lv6mhnH7_g4_134.mp4	0.0	182.58856987953186	0.574937105178833
17	102.53918600082397	response	0	2		15.0	2.5	/experiments/knapen_aot/videos/S_yt-lv6mhnH7_g4_134.mp4	0.0	183.15535593032837	
17	102.5473370552063	movie	1		299.0	15.0	2.5	/experiments/knapen_aot/videos/S_yt-lv6mhnH7_g4_134.mp4	0.0	183.1635069847107	2.5083889961242676
17	105.05572605133057	fix_post	2		12.0	15.0	2.5	/experiments/knapen_aot/videos/S_yt-lv6mhnH7_g4_134.mp4	0.0	185.67189598083496	0.10004806518554688
18	105.15577411651611	fix_pre	0		129.0	16.0	2.5	/experiments/knapen_aot/videos/S_yt-K7viJXt9vX8_143.mp4	0.0	185.7719440460205	1.0749759674072266
18	106.2225890159607	response	0	2		16.0	2.5	/experiments/knapen_aot/videos/S_yt-K7viJXt9vX8_143.mp4	0.0	186.8387589454651	
18	106.23075008392334	movie	1		297.0	16.0	2.5	/experiments/knapen_aot/videos/S_yt-K7viJXt9vX8_143.mp4	0.0	186.84692001342773	2.5082290172576904
18	108.73897910118103	fix_post	2		12.0	16.0	2.5	/experiments/knapen_aot/videos/S_yt-K7viJXt9vX8_143.mp4	0.0	189.35514903068542	0.10010099411010742
19	108.83908009529114	fix_pre	0		94.0	17.0	2.5	/experiments/knapen_aot/videos/S_yt-etQaTgGOhR4_69.mp4	0.0	189.45525002479553	0.7845368385314941
19	109.61418604850769	response	0	2		17.0	2.5	/experiments/knapen_aot/videos/S_yt-etQaTgGOhR4_69.mp4	0.0	190.23035597801208	
19	109.62361693382263	movie	1		301.0	17.0	2.5	/experiments/knapen_aot/videos/S_yt-etQaTgGOhR4_69.mp4	0.0	190.23978686332703	2.507132053375244
19	112.13074898719788	fix_post	2		12.0	17.0	2.5	/experiments/knapen_aot/videos/S_yt-etQaTgGOhR4_69.mp4	0.0	192.74691891670227	0.099945068359375
20	112.23069405555725	fix_pre	0		292.0	18.0	2.5	/experiments/knapen_aot/videos/S_P005_C002_UHD_SDR_2K_AVC.mp4	0.0	192.84686398506165	2.4345459938049316
20	114.65577602386475	response	0	2		18.0	2.5	/experiments/knapen_aot/videos/S_P005_C002_UHD_SDR_2K_AVC.mp4	0.0	195.27194595336914	
20	114.66524004936218	movie	1		172.0	18.0	2.5	/experiments/knapen_aot/videos/S_P005_C002_UHD_SDR_2K_AVC.mp4	0.0	195.28140997886658	2.5071330070495605
20	117.17237305641174	fix_post	2		12.0	18.0	2.5	/experiments/knapen_aot/videos/S_P005_C002_UHD_SDR_2K_AVC.mp4	0.0	197.78854298591614	0.10005402565002441
21	117.27242708206177	fix_pre	0		211.0	19.0	2.5	/experiments/knapen_aot/videos/R_S_yt-gC3my54_ChQ_58.mp4	0.0	197.88859701156616	1.758249044418335
21	119.02249002456665	response	0	2		19.0	2.5	/experiments/knapen_aot/videos/R_S_yt-gC3my54_ChQ_58.mp4	0.0	199.63865995407104	
21	119.0306761264801	movie	1		301.0	19.0	2.5	/experiments/knapen_aot/videos/R_S_yt-gC3my54_ChQ_58.mp4	0.0	199.6468460559845	2.508258819580078
21	121.53893494606018	fix_post	2		12.0	19.0	2.5	/experiments/knapen_aot/videos/R_S_yt-gC3my54_ChQ_58.mp4	0.0	202.15510487556458	0.1001291275024414
22	121.63906407356262	fix_pre	0		57.0	20.0	2.5	/experiments/knapen_aot/videos/S_yt-gDZnJCR2uXI_18.mp4	0.0	202.25523400306702	0.4748539924621582
22	122.10582995414734	response	0	2		20.0	2.5	/experiments/knapen_aot/videos/S_yt-gDZnJCR2uXI_18.mp4	0.0	202.72199988365173	
22	122.11391806602478	movie	1		301.0	20.0	2.5	/experiments/knapen_aot/videos/S_yt-gDZnJCR2uXI_18.mp4	0.0	202.73008799552917	2.508394956588745
22	124.62231302261353	fix_post	2		12.0	20.0	2.5	/experiments/knapen_aot/videos/S_yt-gDZnJCR2uXI_18.mp4	0.0	205.23848295211792	0.10003805160522461
23	124.72235107421875	fix_pre	0		121.0	21.0	2.5	blank	1.0	205.33852100372314	1.0082879066467285
23	125.722491979599	response	0	2		21.0	2.5	blank	1.0	206.3386619091034	
23	125.73063898086548	movie	1		301.0	21.0	2.5	blank	1.0	206.34680891036987	2.508204936981201
23	127.27240800857544	response	1	2		21.0	2.5	blank	1.0	207.88857793807983	
23	128.23884391784668	fix_post	2		12.0	21.0	2.5	blank	1.0	208.85501384735107	0.1001291275024414
24	128.33897304534912	fix_pre	0		45.0	22.0	2.5	/experiments/knapen_aot/videos/S_yt-44ip3uFe4YM_30.mp4	0.0	208.95514297485352	0.37487006187438965
24	128.70572304725647	response	0	2		22.0	2.5	/experiments/knapen_aot/videos/S_yt-44ip3uFe4YM_30.mp4	0.0	209.32189297676086	
24	128.7138431072235	movie	1		301.0	22.0	2.5	/experiments/knapen_aot/videos/S_yt-44ip3uFe4YM_30.mp4	0.0	209.3300130367279	2.508323907852173
24	131.22216701507568	fix_post	2		12.0	22.0	2.5	/experiments/knapen_aot/videos/S_yt-44ip3uFe4YM_30.mp4	0.0	211.83833694458008	0.10010910034179688
25	131.32227611541748	fix_pre	0		161.0	23.0	2.5	/experiments/knapen_aot/videos/S_yt-pPIHiIYSjW8_653.mp4	0.0	211.93844604492188	1.342789888381958
25	132.648344039917	response	0	2		23.0	2.5	/experiments/knapen_aot/videos/S_yt-pPIHiIYSjW8_653.mp4	0.0	213.2645139694214	
25	132.66506600379944	movie	1		299.0	23.0	2.5	/experiments/knapen_aot/videos/S_yt-pPIHiIYSjW8_653.mp4	0.0	213.28123593330383	2.5071868896484375
25	135.17225289344788	fix_post	2		12.0	23.0	2.5	/experiments/knapen_aot/videos/S_yt-pPIHiIYSjW8_653.mp4	0.0	215.78842282295227	0.09990501403808594
26	135.27215790748596	fix_pre	0		121.0	24.0	2.5	/experiments/knapen_aot/videos/R_S_pexels-koolshooters-7327401_1.mp4	0.0	215.88832783699036	1.008345127105713
26	136.2723948955536	response	0	2		24.0	2.5	/experiments/knapen_aot/videos/R_S_pexels-koolshooters-7327401_1.mp4	0.0	216.88856482505798	
26	136.28050303459167	movie	1		167.0	24.0	2.5	/experiments/knapen_aot/videos/R_S_pexels-koolshooters-7327401_1.mp4	0.0	216.89667296409607	2.508354902267456
26	138.78885793685913	fix_post	2		12.0	24.0	2.5	/experiments/knapen_aot/videos/R_S_pexels-koolshooters-7327401_1.mp4	0.0	219.40502786636353	0.10005903244018555
27	138.88891696929932	fix_pre	0		155.0	25.0	2.5	/experiments/knapen_aot/videos/S_production_ID_4802710.mp4	0.0	219.5050868988037	1.2916460037231445
27	140.17242407798767	response	0	2		25.0	2.5	/experiments/knapen_aot/videos/S_production_ID_4802710.mp4	0.0	220.78859400749207	
27	140.18056297302246	movie	1		166.0	25.0	2.5	/experiments/knapen_aot/videos/S_production_ID_4802710.mp4	0.0	220.79673290252686	2.5083489418029785
27	142.68891191482544	fix_post	2		12.0	25.0	2.5	/experiments/knapen_aot/videos/S_production_ID_4802710.mp4	0.0	223.30508184432983	0.10000300407409668
28	142.78891491889954	fix_pre	0		71.0	26.0	2.5	/experiments/knapen_aot/videos/R_S_yt-y6zr69M0yHI_76.mp4	0.0	223.40508484840393	0.5916299819946289
28	143.3723919391632	response	0	2		26.0	2.5	/experiments/knapen_aot/videos/R_S_yt-y6zr69M0yHI_76.mp4	0.0	223.9885618686676	
28	143.38054490089417	movie	1		301.0	26.0	2.5	/experiments/knapen_aot/videos/R_S_yt-y6zr69M0yHI_76.mp4	0.0	223.99671483039856	2.508324146270752
28	145.88886904716492	fix_post	2		12.0	26.0	2.5	/experiments/knapen_aot/videos/R_S_yt-y6zr69M0yHI_76.mp4	0.0	226.5050389766693	0.1000058650970459
29	145.98887491226196	fix_pre	0		248.0	27.0	2.5	/experiments/knapen_aot/videos/R_S_video_inspire_california_big-sur_bixby_005.1080-h264.mp4	0.0	226.60504484176636	2.066662073135376
29	148.04732704162598	response	0	2		27.0	2.5	/experiments/knapen_aot/videos/R_S_video_inspire_california_big-sur_bixby_005.1080-h264.mp4	0.0	228.66349697113037	
29	148.05553698539734	movie	1		171.0	27.0	2.5	/experiments/knapen_aot/videos/R_S_video_inspire_california_big-sur_bixby_005.1080-h264.mp4	0.0	228.67170691490173	2.5083460807800293
29	150.56388306617737	fix_post	2		12.0	27.0	2.5	/experiments/knapen_aot/videos/R_S_video_inspire_california_big-sur_bixby_005.1080-h264.mp4	0.0	231.18005299568176	0.09999990463256836
30	150.66388297080994	fix_pre	0		142.0	28.0	2.5	blank	1.0	231.28005290031433	1.1832821369171143
30	151.8389880657196	response	0	2		28.0	2.5	blank	1.0	232.455157995224	
30	151.84716510772705	movie	1		301.0	28.0	2.5	blank	1.0	232.46333503723145	2.5083789825439453
30	153.71391701698303	response	1	2		28.0	2.5	blank	1.0	234.33008694648743	
30	154.355544090271	fix_post	2		12.0	28.0	2.5	blank	1.0	234.9717140197754	0.10000300407409668
31	154.4555470943451	fix_pre	0		97.0	29.0	2.5	/experiments/knapen_aot/videos/R_S_comp_L004_C011_PS_v01_SDR_PS_20180925_SDR_2K_AVC.mp4	0.0	235.0717170238495	0.8082988262176514
31	155.24803590774536	response	0	2		29.0	2.5	/experiments/knapen_aot/videos/R_S_comp_L004_C011_PS_v01_SDR_PS_20180925_SDR_2K_AVC.mp4	0.0	235.86420583724976	
31	155.26384592056274	movie	1		169.0	29.0	2.5	/experiments/knapen_aot/videos/R_S_comp_L004_C011_PS_v01_SDR_PS_20180925_SDR_2K_AVC.mp4	0.0	235.88001585006714	2.5082900524139404
31	157.77213597297668	fix_post	2		12.0	29.0	2.5	/experiments/knapen_aot/videos/R_S_comp_L004_C011_PS_v01_SDR_PS_20180925_SDR_2K_AVC.mp4	0.0	238.38830590248108	0.09995508193969727
32	157.87209105491638	fix_pre	0		222.0	30.0	2.5	/experiments/knapen_aot/videos/R_S_OdxWh1oU8e8_1.mp4	0.0	238.48826098442078	1.850005865097046
32	159.71396899223328	response	0	2		30.0	2.5	/experiments/knapen_aot/videos/R_S_OdxWh1oU8e8_1.mp4	0.0	240.33013892173767	
32	159.72209692001343	movie	1		299.0	30.0	2.5	/experiments/knapen_aot/videos/R_S_OdxWh1oU8e8_1.mp4	0.0	240.33826684951782	2.508357048034668
32	162.2304539680481	fix_post	2		12.0	30.0	2.5	/experiments/knapen_aot/videos/R_S_OdxWh1oU8e8_1.mp4	0.0	242.8466238975525	0.1000070571899414
33	162.33046102523804	fix_pre	0		138.0	31.0	2.5	/experiments/knapen_aot/videos/S_flickr-southeasternstar-3464778323_10.mp4	0.0	242.94663095474243	1.1499669551849365
33	163.47221302986145	response	0	2		31.0	2.5	/experiments/knapen_aot/videos/S_flickr-southeasternstar-3464778323_10.mp4	0.0	244.08838295936584	
33	163.48042798042297	movie	1		300.0	31.0	2.5	/experiments/knapen_aot/videos/S_flickr-southeasternstar-3464778323_10.mp4	0.0	244.09659790992737	2.5083019733428955
33	165.98872995376587	fix_post	2		12.0	31.0	2.5	/experiments/knapen_aot/videos/S_flickr-southeasternstar-3464778323_10.mp4	0.0	246.60489988327026	0.10005307197570801
34	166.08878302574158	fix_pre	0		82.0	32.0	2.5	/experiments/knapen_aot/videos/R_S_yt--cAfxH1WnPo_3.mp4	0.0	246.70495295524597	0.6833078861236572
34	166.75636410713196	response	0	2		32.0	2.5	/experiments/knapen_aot/videos/R_S_yt--cAfxH1WnPo_3.mp4	0.0	247.37253403663635	
34	166.77209091186523	movie	1		301.0	32.0	2.5	/experiments/knapen_aot/videos/R_S_yt--cAfxH1WnPo_3.mp4	0.0	247.38826084136963	2.5083930492401123
34	169.28048396110535	fix_post	2		12.0	32.0	2.5	/experiments/knapen_aot/videos/R_S_yt--cAfxH1WnPo_3.mp4	0.0	249.89665389060974	0.09995913505554199
35	169.3804430961609	fix_pre	0		369.0	33.0	2.5	/experiments/knapen_aot/videos/R_S_yt-jzDaQD-g168_103.mp4	0.0	249.99661302566528	3.075901985168457
35	172.4471559524536	response	0	2		33.0	2.5	/experiments/knapen_aot/videos/R_S_yt-jzDaQD-g168_103.mp4	0.0	253.063325881958	
35	172.45634508132935	movie	1		301.0	33.0	2.5	/experiments/knapen_aot/videos/R_S_yt-jzDaQD-g168_103.mp4	0.0	253.07251501083374	2.5073258876800537
35	174.9636709690094	fix_post	2		12.0	33.0	2.5	/experiments/knapen_aot/videos/R_S_yt-jzDaQD-g168_103.mp4	0.0	255.5798408985138	0.1000831127166748
36	175.06375408172607	fix_pre	0		265.0	34.0	2.5	blank	1.0	255.67992401123047	2.208319902420044
36	177.26388692855835	response	0	2		34.0	2.5	blank	1.0	257.88005685806274	
36	177.27207398414612	movie	1		301.0	34.0	2.5	blank	1.0	257.8882439136505	2.508319139480591
36	179.7803931236267	fix_post	2		12.0	34.0	2.5	blank	1.0	260.3965630531311	0.09999990463256836
37	179.88039302825928	fix_pre	0		41.0	35.0	2.5	/experiments/knapen_aot/videos/R_S_yt-1uk2k3PnTNw_37.0.mp4	0.0	260.4965629577637	0.3416299819946289
37	180.20632100105286	response	0	2		35.0	2.5	/experiments/knapen_aot/videos/R_S_yt-1uk2k3PnTNw_37.0.mp4	0.0	260.82249093055725	
37	180.2220230102539	movie	1		301.0	35.0	2.5	/experiments/knapen_aot/videos/R_S_yt-1uk2k3PnTNw_37.0.mp4	0.0	260.8381929397583	2.508323907852173
37	182.73034691810608	fix_post	2		12.0	35.0	2.5	/experiments/knapen_aot/videos/R_S_yt-1uk2k3PnTNw_37.0.mp4	0.0	263.3465168476105	0.10003519058227539
38	182.83038210868835	fix_pre	0		600.0	36.0	2.5	/experiments/knapen_aot/videos/R_S_yt-Id-f63kUHsE_20.mp4	0.0	263.44655203819275	5.0008509159088135
38	187.82206892967224	response	0	2		36.0	2.5	/experiments/knapen_aot/videos/R_S_yt-Id-f63kUHsE_20.mp4	0.0	268.43823885917664	
38	187.83123302459717	movie	1		301.0	36.0	2.5	/experiments/knapen_aot/videos/R_S_yt-Id-f63kUHsE_20.mp4	0.0	268.44740295410156	2.507441997528076
38	190.33867502212524	fix_post	2		12.0	36.0	2.5	/experiments/knapen_aot/videos/R_S_yt-Id-f63kUHsE_20.mp4	0.0	270.95484495162964	0.10003304481506348
39	190.4387080669403	fix_pre	0		240.0	37.0	2.5	/experiments/knapen_aot/videos/R_S_yt-bmGWhOCsvJo_128.mp4	0.0	271.0548779964447	1.9999308586120605
39	192.43053102493286	response	0	2		37.0	2.5	/experiments/knapen_aot/videos/R_S_yt-bmGWhOCsvJo_128.mp4	0.0	273.04670095443726	
39	192.43863892555237	movie	1		301.0	37.0	2.5	/experiments/knapen_aot/videos/R_S_yt-bmGWhOCsvJo_128.mp4	0.0	273.05480885505676	2.5083770751953125
39	194.94701600074768	fix_post	2		12.0	37.0	2.5	/experiments/knapen_aot/videos/R_S_yt-bmGWhOCsvJo_128.mp4	0.0	275.5631859302521	0.10001707077026367
40	195.04703307151794	fix_pre	0		122.0	38.0	2.5	/experiments/knapen_aot/videos/R_S_yt--I4Ggi6-QOE_23.mp4	0.0	275.66320300102234	1.0165939331054688
40	196.05542397499084	response	0	2		38.0	2.5	/experiments/knapen_aot/videos/R_S_yt--I4Ggi6-QOE_23.mp4	0.0	276.67159390449524	
40	196.0636270046234	movie	1		301.0	38.0	2.5	/experiments/knapen_aot/videos/R_S_yt--I4Ggi6-QOE_23.mp4	0.0	276.6797969341278	2.508349895477295
40	198.5719769001007	fix_post	2		12.0	38.0	2.5	/experiments/knapen_aot/videos/R_S_yt--I4Ggi6-QOE_23.mp4	0.0	279.1881468296051	0.09991312026977539
41	198.67189002037048	fix_pre	0		145.0	39.0	2.5	/experiments/knapen_aot/videos/R_S_yt-ZTAaH5XbtfE_3.mp4	0.0	279.2880599498749	1.208319902420044
41	199.87208890914917	response	0	2		39.0	2.5	/experiments/knapen_aot/videos/R_S_yt-ZTAaH5XbtfE_3.mp4	0.0	280.48825883865356	
41	199.88020992279053	movie	1		301.0	39.0	2.5	/experiments/knapen_aot/videos/R_S_yt-ZTAaH5XbtfE_3.mp4	0.0	280.4963798522949	2.5084869861602783
41	202.3886969089508	fix_post	2		12.0	39.0	2.5	/experiments/knapen_aot/videos/R_S_yt-ZTAaH5XbtfE_3.mp4	0.0	283.0048668384552	0.10003900527954102
42	202.48873591423035	fix_pre	0		145.0	40.0	2.5	blank	1.0	283.10490584373474	1.208160161972046
42	203.6887469291687	response	0	2		40.0	2.5	blank	1.0	284.3049168586731	
42	203.6968960762024	movie	1		301.0	40.0	2.5	blank	1.0	284.3130660057068	2.50836181640625
42	206.20525789260864	fix_post	2		12.0	40.0	2.5	blank	1.0	286.82142782211304	0.09999608993530273
43	206.30525398254395	fix_pre	0		82.0	41.0	2.5	/experiments/knapen_aot/videos/R_S_yt-YLcmfyfIokU_64.mp4	0.0	286.92142391204834	0.6834111213684082
43	206.98041200637817	response	0	2		41.0	2.5	/experiments/knapen_aot/videos/R_S_yt-YLcmfyfIokU_64.mp4	0.0	287.59658193588257	
43	206.98866510391235	movie	1		301.0	41.0	2.5	/experiments/knapen_aot/videos/R_S_yt-YLcmfyfIokU_64.mp4	0.0	287.60483503341675	2.5082619190216064
43	209.49692702293396	fix_post	2		12.0	41.0	2.5	/experiments/knapen_aot/videos/R_S_yt-YLcmfyfIokU_64.mp4	0.0	290.11309695243835	0.10000491142272949
44	209.5969319343567	fix_pre	0		159.0	42.0	2.5	/experiments/knapen_aot/videos/S_ILSVRC2015_train_00517000.mp4	0.0	290.2131018638611	1.3249571323394775
44	210.91367292404175	response	0	2		42.0	2.5	/experiments/knapen_aot/videos/S_ILSVRC2015_train_00517000.mp4	0.0	291.52984285354614	
44	210.92188906669617	movie	1		301.0	42.0	2.5	/experiments/knapen_aot/videos/S_ILSVRC2015_train_00517000.mp4	0.0	291.53805899620056	2.508354902267456
44	213.43024396896362	fix_post	2		12.0	42.0	2.5	/experiments/knapen_aot/videos/S_ILSVRC2015_train_00517000.mp4	0.0	294.046413898468	0.09998893737792969
45	213.53023290634155	fix_pre	0		179.0	43.0	2.5	/experiments/knapen_aot/videos/R_S_yt--koo4FOfZE0_86.mp4	0.0	294.14640283584595	1.4916281700134277
45	215.01373505592346	response	0	2		43.0	2.5	/experiments/knapen_aot/videos/R_S_yt--koo4FOfZE0_86.mp4	0.0	295.62990498542786	
45	215.02186107635498	movie	1		300.0	43.0	2.5	/experiments/knapen_aot/videos/R_S_yt--koo4FOfZE0_86.mp4	0.0	295.6380310058594	2.508323907852173
45	217.53018498420715	fix_post	2		12.0	43.0	2.5	/experiments/knapen_aot/videos/R_S_yt--koo4FOfZE0_86.mp4	0.0	298.14635491371155	0.10006213188171387
46	217.63024711608887	fix_pre	0		152.0	44.0	2.5	/experiments/knapen_aot/videos/S_pexels-tima-miroshnichenko-6077718.mp4	0.0	298.24641704559326	1.2666089534759521
46	218.88112998008728	response	0	2		44.0	2.5	/experiments/knapen_aot/videos/S_pexels-tima-miroshnichenko-6077718.mp4	0.0	299.4972999095917	
46	218.89685606956482	movie	1		167.0	44.0	2.5	/experiments/knapen_aot/videos/S_pexels-tima-miroshnichenko-6077718.mp4	0.0	299.5130259990692	2.5083699226379395
46	221.40522599220276	fix_post	2		12.0	44.0	2.5	/experiments/knapen_aot/videos/S_pexels-tima-miroshnichenko-6077718.mp4	0.0	302.02139592170715	0.09999608993530273
47	221.50522208213806	fix_pre	0		172.0	45.0	2.5	/experiments/knapen_aot/videos/R_S_flickr-csgzs-8144064966_10.mp4	0.0	302.12139201164246	1.4332900047302246
47	222.93032908439636	response	0	2		45.0	2.5	/experiments/knapen_aot/videos/R_S_flickr-csgzs-8144064966_10.mp4	0.0	303.54649901390076	
47	222.9385120868683	movie	1		300.0	45.0	2.5	/experiments/knapen_aot/videos/R_S_flickr-csgzs-8144064966_10.mp4	0.0	303.5546820163727	2.508356809616089
47	225.44686889648438	fix_post	2		12.0	45.0	2.5	/experiments/knapen_aot/videos/R_S_flickr-csgzs-8144064966_10.mp4	0.0	306.06303882598877	0.10002303123474121
48	225.54689192771912	fix_pre	0		129.0	46.0	2.5	/experiments/knapen_aot/videos/S_ILSVRC2015_train_00756000.mp4	0.0	306.1630618572235	1.0756211280822754
48	226.61366391181946	response	0	2		46.0	2.5	/experiments/knapen_aot/videos/S_ILSVRC2015_train_00756000.mp4	0.0	307.22983384132385	
48	226.6225130558014	movie	1		301.0	46.0	2.5	/experiments/knapen_aot/videos/S_ILSVRC2015_train_00756000.mp4	0.0	307.2386829853058	2.507603883743286
48	229.13011693954468	fix_post	2		12.0	46.0	2.5	/experiments/knapen_aot/videos/S_ILSVRC2015_train_00756000.mp4	0.0	309.7462868690491	0.10007309913635254
49	229.23019003868103	fix_pre	0		65.0	47.0	2.5	/experiments/knapen_aot/videos/R_S_video_inspire_california_vineyard_sierra-mar_sunrise_110.1080-h264.mp4	0.0	309.8463599681854	0.5416069030761719
49	229.76376700401306	response	0	2		47.0	2.5	/experiments/knapen_aot/videos/R_S_video_inspire_california_vineyard_sierra-mar_sunrise_110.1080-h264.mp4	0.0	310.37993693351746	
49	229.7717969417572	movie	1		171.0	47.0	2.5	/experiments/knapen_aot/videos/R_S_video_inspire_california_vineyard_sierra-mar_sunrise_110.1080-h264.mp4	0.0	310.3879668712616	2.5084409713745117
49	232.2802379131317	fix_post	2		12.0	47.0	2.5	/experiments/knapen_aot/videos/R_S_video_inspire_california_vineyard_sierra-mar_sunrise_110.1080-h264.mp4	0.0	312.8964078426361	0.1000220775604248
50	232.38025999069214	fix_pre	0		305.0	48.0	2.5	blank	1.0	312.99642992019653	2.54146409034729
50	234.90606999397278	response	0	2		48.0	2.5	blank	1.0	315.5222399234772	
50	234.92172408103943	movie	1		301.0	48.0	2.5	blank	1.0	315.5378940105438	2.508431911468506
50	237.43015599250793	fix_post	2		12.0	48.0	2.5	blank	1.0	318.04632592201233	0.10000801086425781
51	237.5301640033722	fix_pre	0		60.0	49.0	2.5	/experiments/knapen_aot/videos/R_S_yt-Xs7TCzdnUJQ_79.mp4	0.0	318.1463339328766	0.499906063079834
51	238.02195501327515	response	0	2		49.0	2.5	/experiments/knapen_aot/videos/R_S_yt-Xs7TCzdnUJQ_79.mp4	0.0	318.63812494277954	
51	238.03007006645203	movie	1		296.0	49.0	2.5	/experiments/knapen_aot/videos/R_S_yt-Xs7TCzdnUJQ_79.mp4	0.0	318.6462399959564	2.5084140300750732
51	240.5384840965271	fix_post	2		12.0	49.0	2.5	/experiments/knapen_aot/videos/R_S_yt-Xs7TCzdnUJQ_79.mp4	0.0	321.1546540260315	0.09990501403808594
52	240.63838911056519	fix_pre	0		114.0	50.0	2.5	/experiments/knapen_aot/videos/S_comp_HK_H004_C008_PSNK_v19_SDR_PS_20180914_SDR_2K_AVC.mp4	0.0	321.2545590400696	0.9499919414520264
52	241.5802628993988	response	0	2		50.0	2.5	/experiments/knapen_aot/videos/S_comp_HK_H004_C008_PSNK_v19_SDR_PS_20180914_SDR_2K_AVC.mp4	0.0	322.1964328289032	
52	241.5883810520172	movie	1		167.0	50.0	2.5	/experiments/knapen_aot/videos/S_comp_HK_H004_C008_PSNK_v19_SDR_PS_20180914_SDR_2K_AVC.mp4	0.0	322.2045509815216	2.5084269046783447
52	244.09680795669556	fix_post	2		12.0	50.0	2.5	/experiments/knapen_aot/videos/S_comp_HK_H004_C008_PSNK_v19_SDR_PS_20180914_SDR_2K_AVC.mp4	0.0	324.71297788619995	0.10002613067626953
53	244.19683408737183	fix_pre	0		102.0	51.0	2.5	/experiments/knapen_aot/videos/R_S_yt-fk-z6WCvjjA_3.mp4	0.0	324.8130040168762	0.8498818874359131
53	245.03854608535767	response	0	2		51.0	2.5	/experiments/knapen_aot/videos/R_S_yt-fk-z6WCvjjA_3.mp4	0.0	325.65471601486206	
53	245.04671597480774	movie	1		301.0	51.0	2.5	/experiments/knapen_aot/videos/R_S_yt-fk-z6WCvjjA_3.mp4	0.0	325.66288590431213	2.5083091259002686
53	247.555025100708	fix_post	2		12.0	51.0	2.5	/experiments/knapen_aot/videos/R_S_yt-fk-z6WCvjjA_3.mp4	0.0	328.1711950302124	0.10006380081176758
54	247.65508890151978	fix_pre	0		31.0	52.0	2.5	/experiments/knapen_aot/videos/S_comp_GMT329_113NC_396B_1105_ITALY_v03_SDR_FINAL_20180706_SDR_2K_AVC.mp4	0.0	328.27125883102417	0.2589151859283447
54	247.90524411201477	response	0	2		52.0	2.5	/experiments/knapen_aot/videos/S_comp_GMT329_113NC_396B_1105_ITALY_v03_SDR_FINAL_20180706_SDR_2K_AVC.mp4	0.0	328.52141404151917	
54	247.91400408744812	movie	1		164.0	52.0	2.5	/experiments/knapen_aot/videos/S_comp_GMT329_113NC_396B_1105_ITALY_v03_SDR_FINAL_20180706_SDR_2K_AVC.mp4	0.0	328.5301740169525	2.507774829864502
54	250.42177891731262	fix_post	2		12.0	52.0	2.5	/experiments/knapen_aot/videos/S_comp_GMT329_113NC_396B_1105_ITALY_v03_SDR_FINAL_20180706_SDR_2K_AVC.mp4	0.0	331.037948846817	0.09994816780090332
55	250.52172708511353	fix_pre	0		137.0	53.0	2.5	/experiments/knapen_aot/videos/S_yt-ZzC953ahaxs_195.mp4	0.0	331.1378970146179	1.1421608924865723
55	251.65518307685852	response	0	2		53.0	2.5	/experiments/knapen_aot/videos/S_yt-ZzC953ahaxs_195.mp4	0.0	332.2713530063629	
55	251.6638879776001	movie	1		301.0	53.0	2.5	/experiments/knapen_aot/videos/S_yt-ZzC953ahaxs_195.mp4	0.0	332.2800579071045	2.507849931716919
55	254.17173790931702	fix_post	2		12.0	53.0	2.5	/experiments/knapen_aot/videos/S_yt-ZzC953ahaxs_195.mp4	0.0	334.7879078388214	0.10000109672546387
56	254.27173900604248	fix_pre	0		122.0	54.0	2.5	/experiments/knapen_aot/videos/S_yt-Xs7TCzdnUJQ_79.mp4	0.0	334.8879089355469	1.0171840190887451
56	255.2801969051361	response	0	2		54.0	2.5	/experiments/knapen_aot/videos/S_yt-Xs7TCzdnUJQ_79.mp4	0.0	335.8963668346405	
56	255.28892302513123	movie	1		301.0	54.0	2.5	/experiments/knapen_aot/videos/S_yt-Xs7TCzdnUJQ_79.mp4	0.0	335.9050929546356	2.5078048706054688
56	257.7967278957367	fix_post	2		12.0	54.0	2.5	/experiments/knapen_aot/videos/S_yt-Xs7TCzdnUJQ_79.mp4	0.0	338.4128978252411	0.09999799728393555
57	257.89672589302063	fix_pre	0		97.0	55.0	2.5	/experiments/knapen_aot/videos/S_yt-2SVpSaBAxsw_78.mp4	0.0	338.512895822525	0.8087821006774902
57	258.6968410015106	response	0	2		55.0	2.5	/experiments/knapen_aot/videos/S_yt-2SVpSaBAxsw_78.mp4	0.0	339.313010931015	
57	258.7055079936981	movie	1		301.0	55.0	2.5	/experiments/knapen_aot/videos/S_yt-2SVpSaBAxsw_78.mp4	0.0	339.3216779232025	2.507918119430542
57	261.21342611312866	fix_post	2		12.0	55.0	2.5	/experiments/knapen_aot/videos/S_yt-2SVpSaBAxsw_78.mp4	0.0	341.82959604263306	0.09991097450256348
58	261.3133370876312	fix_pre	0		79.0	56.0	2.5	blank	1.0	341.9295070171356	0.6583549976348877
58	261.9635269641876	response	0	2		56.0	2.5	blank	1.0	342.579696893692	
58	261.9716920852661	movie	1		301.0	56.0	2.5	blank	1.0	342.5878620147705	2.508314847946167
58	263.2884199619293	response	1	2		56.0	2.5	blank	1.0	343.9045898914337	
58	264.4800069332123	fix_post	2		12.0	56.0	2.5	blank	1.0	345.0961768627167	0.09995412826538086
59	264.57996106147766	fix_pre	0		74.0	57.0	2.5	/experiments/knapen_aot/videos/R_S_ILSVRC2015_train_00682003.mp4	0.0	345.19613099098206	0.6167068481445312
59	265.1884799003601	response	0	2		57.0	2.5	/experiments/knapen_aot/videos/R_S_ILSVRC2015_train_00682003.mp4	0.0	345.8046498298645	
59	265.1966679096222	movie	1		299.0	57.0	2.5	/experiments/knapen_aot/videos/R_S_ILSVRC2015_train_00682003.mp4	0.0	345.8128378391266	2.508345127105713
59	267.7050130367279	fix_post	2		12.0	57.0	2.5	/experiments/knapen_aot/videos/R_S_ILSVRC2015_train_00682003.mp4	0.0	348.3211829662323	0.09995388984680176
60	267.8049669265747	fix_pre	0		50.0	58.0	2.5	/experiments/knapen_aot/videos/S_yt-M_ApPnq00iE_67.mp4	0.0	348.4211368560791	0.41668200492858887
60	268.2134289741516	response	0	2		58.0	2.5	/experiments/knapen_aot/videos/S_yt-M_ApPnq00iE_67.mp4	0.0	348.829598903656	
60	268.2216489315033	movie	1		301.0	58.0	2.5	/experiments/knapen_aot/videos/S_yt-M_ApPnq00iE_67.mp4	0.0	348.8378188610077	2.5083131790161133
60	270.7299621105194	fix_post	2		12.0	58.0	2.5	/experiments/knapen_aot/videos/S_yt-M_ApPnq00iE_67.mp4	0.0	351.3461320400238	0.10044980049133301
61	270.83041191101074	fix_pre	0		59.0	59.0	2.5	/experiments/knapen_aot/videos/R_S_yt-GFcuvjHJmS4_86.mp4	0.0	351.44658184051514	0.49123215675354004
61	271.3134799003601	response	0	2		59.0	2.5	/experiments/knapen_aot/videos/R_S_yt-GFcuvjHJmS4_86.mp4	0.0	351.9296498298645	
61	271.3216440677643	movie	1		301.0	59.0	2.5	/experiments/knapen_aot/videos/R_S_yt-GFcuvjHJmS4_86.mp4	0.0	351.9378139972687	2.5083608627319336
61	273.8300049304962	fix_post	2		12.0	59.0	2.5	/experiments/knapen_aot/videos/R_S_yt-GFcuvjHJmS4_86.mp4	0.0	354.4461748600006	0.09993219375610352
62	273.9299371242523	fix_pre	0		64.0	60.0	2.5	/experiments/knapen_aot/videos/S_yt-gC3my54_ChQ_58.mp4	0.0	354.5461070537567	0.5333218574523926
62	274.4551239013672	response	0	2		60.0	2.5	/experiments/knapen_aot/videos/S_yt-gC3my54_ChQ_58.mp4	0.0	355.0712938308716	
62	274.4632589817047	movie	1		301.0	60.0	2.5	/experiments/knapen_aot/videos/S_yt-gC3my54_ChQ_58.mp4	0.0	355.0794289112091	2.508302927017212
62	276.9715619087219	fix_post	2		12.0	60.0	2.5	/experiments/knapen_aot/videos/S_yt-gC3my54_ChQ_58.mp4	0.0	357.5877318382263	0.1000511646270752
63	277.071613073349	fix_pre	0		78.0	61.0	2.5	/experiments/knapen_aot/videos/R_S_pexels-artem-podrez-5457692.mp4	0.0	357.6877830028534	0.6499550342559814
63	277.71357011795044	response	0	2		61.0	2.5	/experiments/knapen_aot/videos/R_S_pexels-artem-podrez-5457692.mp4	0.0	358.32974004745483	
63	277.721568107605	movie	1		168.0	61.0	2.5	/experiments/knapen_aot/videos/R_S_pexels-artem-podrez-5457692.mp4	0.0	358.3377380371094	2.5083768367767334
63	280.2299449443817	fix_post	2		12.0	61.0	2.5	/experiments/knapen_aot/videos/R_S_pexels-artem-podrez-5457692.mp4	0.0	360.8461148738861	0.10042405128479004
64	280.3303689956665	fix_pre	0		127.0	62.0	2.5	/experiments/knapen_aot/videos/S_yt-YeT4acsbqok_210.mp4	0.0	360.9465389251709	1.057858943939209
64	281.38000106811523	response	0	2		62.0	2.5	/experiments/knapen_aot/videos/S_yt-YeT4acsbqok_210.mp4	0.0	361.99617099761963	
64	281.3882279396057	movie	1		301.0	62.0	2.5	/experiments/knapen_aot/videos/S_yt-YeT4acsbqok_210.mp4	0.0	362.0043978691101	2.5083541870117188
64	283.89658212661743	fix_post	2		12.0	62.0	2.5	/experiments/knapen_aot/videos/S_yt-YeT4acsbqok_210.mp4	0.0	364.5127520561218	0.10041189193725586
65	283.9969940185547	fix_pre	0		96.0	63.0	2.5	blank	1.0	364.6131639480591	0.7995409965515137
65	284.7883379459381	response	0	2		63.0	2.5	blank	1.0	365.4045078754425	
65	284.7965350151062	movie	1		301.0	63.0	2.5	blank	1.0	365.4127049446106	2.508486032485962
65	286.32998299598694	response	1	2		63.0	2.5	blank	1.0	366.94615292549133	
65	287.30502104759216	fix_post	2		12.0	63.0	2.5	blank	1.0	367.92119097709656	0.09988689422607422
66	287.40490794181824	fix_pre	0		105.0	64.0	2.5	/experiments/knapen_aot/videos/S_Pexels_Videos_2795171.mp4	0.0	368.02107787132263	0.8749790191650391
66	288.271635055542	response	0	2		64.0	2.5	/experiments/knapen_aot/videos/S_Pexels_Videos_2795171.mp4	0.0	368.8878049850464	
66	288.2798869609833	movie	1		174.0	64.0	2.5	/experiments/knapen_aot/videos/S_Pexels_Videos_2795171.mp4	0.0	368.89605689048767	2.508270025253296
66	290.7881569862366	fix_post	2		12.0	64.0	2.5	/experiments/knapen_aot/videos/S_Pexels_Videos_2795171.mp4	0.0	371.40432691574097	0.10003209114074707
67	290.8881890773773	fix_pre	0		75.0	65.0	2.5	/experiments/knapen_aot/videos/S_yt-kawmL3oVw8c_2.mp4	0.0	371.5043590068817	0.6249899864196777
67	291.50492811203003	response	0	2		65.0	2.5	/experiments/knapen_aot/videos/S_yt-kawmL3oVw8c_2.mp4	0.0	372.1210980415344	
67	291.513179063797	movie	1		300.0	65.0	2.5	/experiments/knapen_aot/videos/S_yt-kawmL3oVw8c_2.mp4	0.0	372.1293489933014	2.5084049701690674
67	294.02158403396606	fix_post	2		12.0	65.0	2.5	/experiments/knapen_aot/videos/S_yt-kawmL3oVw8c_2.mp4	0.0	374.63775396347046	0.10031986236572266
68	294.1219038963318	fix_pre	0		240.0	66.0	2.5	/experiments/knapen_aot/videos/S_yt-ObT9gF8E_tU_250.mp4	0.0	374.7380738258362	1.999920129776001
68	296.1134080886841	response	0	2		66.0	2.5	/experiments/knapen_aot/videos/S_yt-ObT9gF8E_tU_250.mp4	0.0	376.7295780181885	
68	296.1218240261078	movie	1		301.0	66.0	2.5	/experiments/knapen_aot/videos/S_yt-ObT9gF8E_tU_250.mp4	0.0	376.7379939556122	2.5079500675201416
68	298.62977409362793	fix_post	2		12.0	66.0	2.5	/experiments/knapen_aot/videos/S_yt-ObT9gF8E_tU_250.mp4	0.0	379.2459440231323	0.10009002685546875
69	298.7298641204834	fix_pre	0		117.0	67.0	2.5	/experiments/knapen_aot/videos/R_S_ILSVRC2015_train_00396000.mp4	0.0	379.3460340499878	0.9753668308258057
69	299.69667410850525	response	0	2		67.0	2.5	/experiments/knapen_aot/videos/R_S_ILSVRC2015_train_00396000.mp4	0.0	380.31284403800964	
69	299.7052309513092	movie	1		301.0	67.0	2.5	/experiments/knapen_aot/videos/R_S_ILSVRC2015_train_00396000.mp4	0.0	380.3214008808136	2.507991075515747
69	302.21322202682495	fix_post	2		12.0	67.0	2.5	/experiments/knapen_aot/videos/R_S_ILSVRC2015_train_00396000.mp4	0.0	382.82939195632935	0.0999610424041748
70	302.3131830692291	fix_pre	0		55.0	68.0	2.5	/experiments/knapen_aot/videos/S_ILSVRC2015_train_00396000.mp4	0.0	382.9293529987335	0.45827794075012207
70	302.76335310935974	response	0	2		68.0	2.5	/experiments/knapen_aot/videos/S_ILSVRC2015_train_00396000.mp4	0.0	383.37952303886414	
70	302.77146100997925	movie	1		301.0	68.0	2.5	/experiments/knapen_aot/videos/S_ILSVRC2015_train_00396000.mp4	0.0	383.38763093948364	2.508323907852173
70	305.2797849178314	fix_post	2		12.0	68.0	2.5	/experiments/knapen_aot/videos/S_ILSVRC2015_train_00396000.mp4	0.0	385.8959548473358	0.10006403923034668
71	305.37984895706177	fix_pre	0		63.0	69.0	2.5	/experiments/knapen_aot/videos/S_ILSVRC2015_train_00404004.mp4	0.0	385.99601888656616	0.524960994720459
71	305.8966610431671	response	0	2		69.0	2.5	/experiments/knapen_aot/videos/S_ILSVRC2015_train_00404004.mp4	0.0	386.5128309726715	
71	305.9048099517822	movie	1		301.0	69.0	2.5	/experiments/knapen_aot/videos/S_ILSVRC2015_train_00404004.mp4	0.0	386.5209798812866	2.508329153060913
71	308.41313910484314	fix_post	2		12.0	69.0	2.5	/experiments/knapen_aot/videos/S_ILSVRC2015_train_00404004.mp4	0.0	389.02930903434753	0.10001683235168457
72	308.5131559371948	fix_pre	0		52.0	70.0	2.5	blank	1.0	389.1293258666992	0.4333000183105469
72	308.93826508522034	response	0	2		70.0	2.5	blank	1.0	389.55443501472473	
72	308.94645595550537	movie	1		301.0	70.0	2.5	blank	1.0	389.56262588500977	2.5083441734313965
72	310.1216011047363	response	1	2		70.0	2.5	blank	1.0	390.7377710342407	
72	311.45480012893677	fix_post	2		12.0	70.0	2.5	blank	1.0	392.07097005844116	0.09999990463256836
73	311.55480003356934	fix_pre	0		70.0	71.0	2.5	/experiments/knapen_aot/videos/R_S_yt-2SVpSaBAxsw_78.mp4	0.0	392.17096996307373	0.5833170413970947
73	312.1299419403076	response	0	2		71.0	2.5	/experiments/knapen_aot/videos/R_S_yt-2SVpSaBAxsw_78.mp4	0.0	392.746111869812	
73	312.13811707496643	movie	1		301.0	71.0	2.5	/experiments/knapen_aot/videos/R_S_yt-2SVpSaBAxsw_78.mp4	0.0	392.7542870044708	2.5082969665527344
73	314.64641404151917	fix_post	2		12.0	71.0	2.5	/experiments/knapen_aot/videos/R_S_yt-2SVpSaBAxsw_78.mp4	0.0	395.26258397102356	0.10001802444458008
74	314.74643206596375	fix_pre	0		71.0	72.0	2.5	/experiments/knapen_aot/videos/S_yt-fk-z6WCvjjA_3.mp4	0.0	395.36260199546814	0.5916440486907959
74	315.32241106033325	response	0	2		72.0	2.5	/experiments/knapen_aot/videos/S_yt-fk-z6WCvjjA_3.mp4	0.0	395.93858098983765	
74	315.33807611465454	movie	1		301.0	72.0	2.5	/experiments/knapen_aot/videos/S_yt-fk-z6WCvjjA_3.mp4	0.0	395.95424604415894	2.5083467960357666
74	317.8464229106903	fix_post	2		12.0	72.0	2.5	/experiments/knapen_aot/videos/S_yt-fk-z6WCvjjA_3.mp4	0.0	398.4625928401947	0.10000205039978027
75	317.9464249610901	fix_pre	0		198.0	73.0	2.5	/experiments/knapen_aot/videos/R_S_yt-WFiEvQuOqqg_18.mp4	0.0	398.5625948905945	1.6499650478363037
75	319.5881869792938	response	0	2		73.0	2.5	/experiments/knapen_aot/videos/R_S_yt-WFiEvQuOqqg_18.mp4	0.0	400.2043569087982	
75	319.5963900089264	movie	1		301.0	73.0	2.5	/experiments/knapen_aot/videos/R_S_yt-WFiEvQuOqqg_18.mp4	0.0	400.2125599384308	2.5083069801330566
75	322.10469698905945	fix_post	2		12.0	73.0	2.5	/experiments/knapen_aot/videos/R_S_yt-WFiEvQuOqqg_18.mp4	0.0	402.72086691856384	0.10018706321716309
76	322.2048840522766	fix_pre	0		128.0	74.0	2.5	/experiments/knapen_aot/videos/S_yt-SyePE8wOlxs_321.mp4	0.0	402.821053981781	1.066554069519043
76	323.2632610797882	response	0	2		74.0	2.5	/experiments/knapen_aot/videos/S_yt-SyePE8wOlxs_321.mp4	0.0	403.8794310092926	
76	323.27143812179565	movie	1		301.0	74.0	2.5	/experiments/knapen_aot/videos/S_yt-SyePE8wOlxs_321.mp4	0.0	403.88760805130005	2.508295774459839
76	325.7797338962555	fix_post	2		12.0	74.0	2.5	/experiments/knapen_aot/videos/S_yt-SyePE8wOlxs_321.mp4	0.0	406.3959038257599	0.1000051498413086
77	325.8797390460968	fix_pre	0		227.0	75.0	2.5	/experiments/knapen_aot/videos/R_S_BO_A014_C023_SDR_20190717_F240F3709_SDR_2K_AVC.mp4	0.0	406.4959089756012	1.8916990756988525
77	327.76315903663635	response	0	2		75.0	2.5	/experiments/knapen_aot/videos/R_S_BO_A014_C023_SDR_20190717_F240F3709_SDR_2K_AVC.mp4	0.0	408.37932896614075	
77	327.77143812179565	movie	1		167.0	75.0	2.5	/experiments/knapen_aot/videos/R_S_BO_A014_C023_SDR_20190717_F240F3709_SDR_2K_AVC.mp4	0.0	408.38760805130005	2.5082669258117676
77	330.2797050476074	fix_post	2		12.0	75.0	2.5	/experiments/knapen_aot/videos/R_S_BO_A014_C023_SDR_20190717_F240F3709_SDR_2K_AVC.mp4	0.0	410.8958749771118	0.09995603561401367
78	330.37966108322144	fix_pre	0		92.0	76.0	2.5	/experiments/knapen_aot/videos/S_yt-Pc1ZlCvsPpc_5.mp4	0.0	410.99583101272583	0.7666740417480469
78	331.1382019519806	response	0	2		76.0	2.5	/experiments/knapen_aot/videos/S_yt-Pc1ZlCvsPpc_5.mp4	0.0	411.754371881485	
78	331.1463351249695	movie	1		301.0	76.0	2.5	/experiments/knapen_aot/videos/S_yt-Pc1ZlCvsPpc_5.mp4	0.0	411.7625050544739	2.5084118843078613
78	333.65474700927734	fix_post	2		12.0	76.0	2.5	/experiments/knapen_aot/videos/S_yt-Pc1ZlCvsPpc_5.mp4	0.0	414.27091693878174	0.09999799728393555
79	333.7547450065613	fix_pre	0		199.0	77.0	2.5	blank	1.0	414.3709149360657	1.658445119857788
79	335.40491700172424	response	0	2		77.0	2.5	blank	1.0	416.02108693122864	
79	335.41319012641907	movie	1		301.0	77.0	2.5	blank	1.0	416.02936005592346	2.5082178115844727
79	336.163223028183	response	1	2		77.0	2.5	blank	1.0	416.7793929576874	
79	337.92140793800354	fix_post	2		12.0	77.0	2.5	blank	1.0	418.53757786750793	0.09996914863586426
80	338.0213770866394	fix_pre	0		40.0	78.0	2.5	/experiments/knapen_aot/videos/S_yt-RWN5qOIgqec_25.mp4	0.0	418.6375470161438	0.3333399295806885
80	338.3464229106903	response	0	2		78.0	2.5	/experiments/knapen_aot/videos/S_yt-RWN5qOIgqec_25.mp4	0.0	418.9625928401947	
80	338.3547170162201	movie	1		301.0	78.0	2.5	/experiments/knapen_aot/videos/S_yt-RWN5qOIgqec_25.mp4	0.0	418.9708869457245	2.508270025253296
80	340.8629870414734	fix_post	2		12.0	78.0	2.5	/experiments/knapen_aot/videos/S_yt-RWN5qOIgqec_25.mp4	0.0	421.4791569709778	0.10004687309265137
81	340.96303391456604	fix_pre	0		540.0	79.0	2.5	/experiments/knapen_aot/videos/S_yt-11S5tcT2Tm0_254.mp4	0.0	421.57920384407043	4.499930143356323
81	345.454754114151	response	0	2		79.0	2.5	/experiments/knapen_aot/videos/S_yt-11S5tcT2Tm0_254.mp4	0.0	426.0709240436554	
81	345.46296405792236	movie	1		300.0	79.0	2.5	/experiments/knapen_aot/videos/S_yt-11S5tcT2Tm0_254.mp4	0.0	426.07913398742676	2.5083680152893066
81	347.97133207321167	fix_post	2		12.0	79.0	2.5	/experiments/knapen_aot/videos/S_yt-11S5tcT2Tm0_254.mp4	0.0	428.58750200271606	0.09999704360961914
82	348.0713291168213	fix_pre	0		222.0	80.0	2.5	/experiments/knapen_aot/videos/S_yt-jcuaf9iSEkI_169.mp4	0.0	428.6874990463257	1.84995698928833
82	349.9131329059601	response	0	2		80.0	2.5	/experiments/knapen_aot/videos/S_yt-jcuaf9iSEkI_169.mp4	0.0	430.5293028354645	
82	349.9212861061096	movie	1		301.0	80.0	2.5	/experiments/knapen_aot/videos/S_yt-jcuaf9iSEkI_169.mp4	0.0	430.537456035614	2.508330821990967
82	352.4296169281006	fix_post	2		12.0	80.0	2.5	/experiments/knapen_aot/videos/S_yt-jcuaf9iSEkI_169.mp4	0.0	433.045786857605	0.09993910789489746
83	352.5295560359955	fix_pre	0		200.0	81.0	2.5	/experiments/knapen_aot/videos/R_S_Pexels_Videos_2795171.mp4	0.0	433.1457259654999	1.6666460037231445
83	354.18060302734375	response	0	2		81.0	2.5	/experiments/knapen_aot/videos/R_S_Pexels_Videos_2795171.mp4	0.0	434.79677295684814	
83	354.1962020397186	movie	1		166.0	81.0	2.5	/experiments/knapen_aot/videos/R_S_Pexels_Videos_2795171.mp4	0.0	434.812371969223	2.508410930633545
83	356.7046129703522	fix_post	2		12.0	81.0	2.5	/experiments/knapen_aot/videos/R_S_Pexels_Videos_2795171.mp4	0.0	437.32078289985657	0.10001802444458008
84	356.80463099479675	fix_pre	0		199.0	82.0	2.5	blank	1.0	437.42080092430115	1.6582391262054443
84	358.4547610282898	response	0	2		82.0	2.5	blank	1.0	439.0709309577942	
84	358.4628701210022	movie	1		301.0	82.0	2.5	blank	1.0	439.0790400505066	2.508431911468506
84	360.9713020324707	fix_post	2		12.0	82.0	2.5	blank	1.0	441.5874719619751	0.09993600845336914
85	361.0712380409241	fix_pre	0		67.0	83.0	2.5	/experiments/knapen_aot/videos/R_S_yt-Snha8C5YOiY_26.mp4	0.0	441.68740797042847	0.5583479404449463
85	361.6213779449463	response	0	2		83.0	2.5	/experiments/knapen_aot/videos/R_S_yt-Snha8C5YOiY_26.mp4	0.0	442.2375478744507	
85	361.629585981369	movie	1		301.0	83.0	2.5	/experiments/knapen_aot/videos/R_S_yt-Snha8C5YOiY_26.mp4	0.0	442.2457559108734	2.5083820819854736
85	364.1379680633545	fix_post	2		12.0	83.0	2.5	/experiments/knapen_aot/videos/R_S_yt-Snha8C5YOiY_26.mp4	0.0	444.7541379928589	0.0999300479888916
87	364.2378981113434	stim	0		839.0					444.8540680408478	6.994365930557251
87	368.43804597854614	response	0	2						449.05421590805054	
87	370.09113812446594	response	0	return						450.70730805397034	
87	370.9551959037781	response	0	2						451.57136583328247	
87	371.21879506111145	response	0	space						451.83496499061584	
