trial_nr	onset	event_type	phase	response	nr_frames	movie_index	movie_duration	movie_file	blank	onset_abs	duration
0	0.1588759422302246	stim	0		83.0					160.90474486351013	0.6910240650177002
0	0.8416681289672852	response	0	space						161.5875370502472	
1	0.8499000072479248	stim	0		121.0					161.59576892852783	1.0080621242523193
1	1.8579621315002441	stim	1		120.0					162.60383105278015	1.0000278949737549
1	1.9747540950775146	response	1	space						162.72062301635742	
2	2.857990026473999	fix_pre	0		21.0	0.0	2.5	/experiments/knapen_aot/videos/S_yt-6aqg1P9YqR8_38.mp4	0.0	163.6038589477539	0.17545509338378906
2	3.0247280597686768	response	0	space		0.0	2.5	/experiments/knapen_aot/videos/S_yt-6aqg1P9YqR8_38.mp4	0.0	163.77059698104858	
2	3.033445119857788	movie	1		301.0	0.0	2.5	/experiments/knapen_aot/videos/S_yt-6aqg1P9YqR8_38.mp4	0.0	163.7793140411377	2.507833957672119
2	5.541279077529907	fix_post	2		12.0	0.0	2.5	/experiments/knapen_aot/videos/S_yt-6aqg1P9YqR8_38.mp4	0.0	166.28714799880981	0.10001206398010254
3	5.64129114151001	fix_pre	0		7.0	1.0	2.5	/experiments/knapen_aot/videos/S_ILSVRC2015_train_00484001.mp4	0.0	166.38716006278992	0.058801889419555664
3	5.694048166275024	response	0	2		1.0	2.5	/experiments/knapen_aot/videos/S_ILSVRC2015_train_00484001.mp4	0.0	166.43991708755493	
3	5.700093030929565	movie	1		299.0	1.0	2.5	/experiments/knapen_aot/videos/S_ILSVRC2015_train_00484001.mp4	0.0	166.44596195220947	2.5077719688415527
3	8.207864999771118	fix_post	2		12.0	1.0	2.5	/experiments/knapen_aot/videos/S_ILSVRC2015_train_00484001.mp4	0.0	168.95373392105103	0.10005307197570801
4	8.307918071746826	fix_pre	0		11.0	2.0	2.5	/experiments/knapen_aot/videos/S_yt-sTBOjPxix5c_1072.mp4	0.0	169.05378699302673	0.09162306785583496
4	8.391417980194092	response	0	2		2.0	2.5	/experiments/knapen_aot/videos/S_yt-sTBOjPxix5c_1072.mp4	0.0	169.137286901474	
4	8.399541139602661	movie	1		301.0	2.0	2.5	/experiments/knapen_aot/videos/S_yt-sTBOjPxix5c_1072.mp4	0.0	169.14541006088257	2.5083110332489014
4	10.907852172851562	fix_post	2		12.0	2.0	2.5	/experiments/knapen_aot/videos/S_yt-sTBOjPxix5c_1072.mp4	0.0	171.65372109413147	0.10001993179321289
5	11.007872104644775	fix_pre	0		13.0	3.0	2.5	/experiments/knapen_aot/videos/R_S_yt-SS7pSyb0_d0_32.mp4	0.0	171.75374102592468	0.10880494117736816
5	11.107964038848877	response	0	2		3.0	2.5	/experiments/knapen_aot/videos/R_S_yt-SS7pSyb0_d0_32.mp4	0.0	171.85383296012878	
5	11.116677045822144	movie	1		301.0	3.0	2.5	/experiments/knapen_aot/videos/R_S_yt-SS7pSyb0_d0_32.mp4	0.0	171.86254596710205	2.50785493850708
5	13.624531984329224	fix_post	2		12.0	3.0	2.5	/experiments/knapen_aot/videos/R_S_yt-SS7pSyb0_d0_32.mp4	0.0	174.37040090560913	0.0999600887298584
6	13.724492073059082	fix_pre	0		16.0	4.0	2.5	/experiments/knapen_aot/videos/R_S_wc-TAGpcap1KdAS_212.mp4	0.0	174.470360994339	0.13335704803466797
6	13.849898099899292	response	0	2		4.0	2.5	/experiments/knapen_aot/videos/R_S_wc-TAGpcap1KdAS_212.mp4	0.0	174.5957670211792	
6	13.85784912109375	movie	1		301.0	4.0	2.5	/experiments/knapen_aot/videos/R_S_wc-TAGpcap1KdAS_212.mp4	0.0	174.60371804237366	2.508375883102417
6	16.366225004196167	fix_post	2		12.0	4.0	2.5	/experiments/knapen_aot/videos/R_S_wc-TAGpcap1KdAS_212.mp4	0.0	177.11209392547607	0.10011005401611328
7	16.46633505821228	fix_pre	0		13.0	5.0	2.5	blank	1.0	177.2122039794922	0.10876297950744629
7	16.566359996795654	response	0	2		5.0	2.5	blank	1.0	177.31222891807556	
7	16.575098037719727	movie	1		301.0	5.0	2.5	blank	1.0	177.32096695899963	2.507796049118042
7	19.08289408683777	fix_post	2		12.0	5.0	2.5	blank	1.0	179.82876300811768	0.09997892379760742
7	19.091276168823242	response	2	2		5.0	2.5	blank	1.0	179.83714509010315	
8	19.182873010635376	fix_pre	0		26.0	6.0	2.5	/experiments/knapen_aot/videos/R_S_yt-RKo978aBdzw_173.mp4	0.0	179.92874193191528	0.21660208702087402
8	19.3913631439209	response	0	2		6.0	2.5	/experiments/knapen_aot/videos/R_S_yt-RKo978aBdzw_173.mp4	0.0	180.1372320652008	
8	19.39947509765625	movie	1		301.0	6.0	2.5	/experiments/knapen_aot/videos/R_S_yt-RKo978aBdzw_173.mp4	0.0	180.14534401893616	2.5083539485931396
8	21.90782904624939	fix_post	2		12.0	6.0	2.5	/experiments/knapen_aot/videos/R_S_yt-RKo978aBdzw_173.mp4	0.0	182.6536979675293	0.10008502006530762
9	22.007914066314697	fix_pre	0		3.0	7.0	2.5	/experiments/knapen_aot/videos/R_S_yt-SyePE8wOlxs_321.mp4	0.0	182.7537829875946	0.025903940200805664
9	22.024676084518433	response	0	2		7.0	2.5	/experiments/knapen_aot/videos/R_S_yt-SyePE8wOlxs_321.mp4	0.0	182.77054500579834	
9	22.033818006515503	movie	1		301.0	7.0	2.5	/experiments/knapen_aot/videos/R_S_yt-SyePE8wOlxs_321.mp4	0.0	182.7796869277954	2.5073130130767822
9	24.541131019592285	fix_post	2		12.0	7.0	2.5	/experiments/knapen_aot/videos/R_S_yt-SyePE8wOlxs_321.mp4	0.0	185.2869999408722	0.09998106956481934
10	24.641112089157104	fix_pre	0		22.0	8.0	2.5	/experiments/knapen_aot/videos/S_video_inspire_sanfrancisco_castro_005.1080-h264.mp4	0.0	185.386981010437	0.18375802040100098
10	24.816310167312622	response	0	2		8.0	2.5	/experiments/knapen_aot/videos/S_video_inspire_sanfrancisco_castro_005.1080-h264.mp4	0.0	185.56217908859253	
10	24.824870109558105	movie	1		168.0	8.0	2.5	/experiments/knapen_aot/videos/S_video_inspire_sanfrancisco_castro_005.1080-h264.mp4	0.0	185.570739030838	2.5079450607299805
10	27.332815170288086	fix_post	2		12.0	8.0	2.5	/experiments/knapen_aot/videos/S_video_inspire_sanfrancisco_castro_005.1080-h264.mp4	0.0	188.078684091568	0.09995079040527344
11	27.43276596069336	fix_pre	0		9.0	9.0	2.5	/experiments/knapen_aot/videos/S_pexels-roman-odintsov-8232443_1.mp4	0.0	188.17863488197327	0.07505321502685547
11	27.499637126922607	response	0	2		9.0	2.5	/experiments/knapen_aot/videos/S_pexels-roman-odintsov-8232443_1.mp4	0.0	188.24550604820251	
11	27.507819175720215	movie	1		210.0	9.0	2.5	/experiments/knapen_aot/videos/S_pexels-roman-odintsov-8232443_1.mp4	0.0	188.25368809700012	2.5082919597625732
11	30.016111135482788	fix_post	2		12.0	9.0	2.5	/experiments/knapen_aot/videos/S_pexels-roman-odintsov-8232443_1.mp4	0.0	190.7619800567627	0.10040903091430664
12	30.116520166397095	fix_pre	0		8.0	10.0	2.5	/experiments/knapen_aot/videos/S_yt-D_f3_HIXG2g_87.mp4	0.0	190.862389087677	0.06628298759460449
12	30.174702167510986	response	0	2		10.0	2.5	/experiments/knapen_aot/videos/S_yt-D_f3_HIXG2g_87.mp4	0.0	190.9205710887909	
12	30.1828031539917	movie	1		301.0	10.0	2.5	/experiments/knapen_aot/videos/S_yt-D_f3_HIXG2g_87.mp4	0.0	190.9286720752716	2.508239984512329
12	32.69104313850403	fix_post	2		12.0	10.0	2.5	/experiments/knapen_aot/videos/S_yt-D_f3_HIXG2g_87.mp4	0.0	193.43691205978394	0.10007095336914062
13	32.79111409187317	fix_pre	0		18.0	11.0	2.5	/experiments/knapen_aot/videos/R_S_b4-3.mp4	0.0	193.53698301315308	0.15010285377502441
13	32.93294715881348	response	0	2		11.0	2.5	/experiments/knapen_aot/videos/R_S_b4-3.mp4	0.0	193.67881608009338	
13	32.94121694564819	movie	1		166.0	11.0	2.5	/experiments/knapen_aot/videos/R_S_b4-3.mp4	0.0	193.6870858669281	2.5082361698150635
13	35.44945311546326	fix_post	2		12.0	11.0	2.5	/experiments/knapen_aot/videos/R_S_b4-3.mp4	0.0	196.19532203674316	0.09993600845336914
14	35.549389123916626	fix_pre	0		41.0	12.0	2.5	blank	1.0	196.29525804519653	0.34171390533447266
14	35.882936000823975	response	0	2		12.0	2.5	blank	1.0	196.62880492210388	
14	35.8911030292511	movie	1		301.0	12.0	2.5	blank	1.0	196.636971950531	2.508342981338501
14	38.332890033721924	response	1	2		12.0	2.5	blank	1.0	199.07875895500183	
14	38.3994460105896	fix_post	2		12.0	12.0	2.5	blank	1.0	199.1453149318695	0.09992098808288574
15	38.499366998672485	fix_pre	0		24.0	13.0	2.5	/experiments/knapen_aot/videos/S_yt-tqxZlasEvZA_43.mp4	0.0	199.2452359199524	0.2003650665283203
15	38.6912260055542	response	0	2		13.0	2.5	/experiments/knapen_aot/videos/S_yt-tqxZlasEvZA_43.mp4	0.0	199.4370949268341	
15	38.699732065200806	movie	1		301.0	13.0	2.5	/experiments/knapen_aot/videos/S_yt-tqxZlasEvZA_43.mp4	0.0	199.4456009864807	2.508002996444702
15	41.20773506164551	fix_post	2		12.0	13.0	2.5	/experiments/knapen_aot/videos/S_yt-tqxZlasEvZA_43.mp4	0.0	201.95360398292542	0.10005903244018555
16	41.30779409408569	fix_pre	0		10.0	14.0	2.5	/experiments/knapen_aot/videos/S_yt-mDil5vGZb14_4049.mp4	0.0	202.0536630153656	0.08331108093261719
16	41.38295316696167	response	0	2		14.0	2.5	/experiments/knapen_aot/videos/S_yt-mDil5vGZb14_4049.mp4	0.0	202.12882208824158	
16	41.39110517501831	movie	1		301.0	14.0	2.5	/experiments/knapen_aot/videos/S_yt-mDil5vGZb14_4049.mp4	0.0	202.13697409629822	2.508295774459839
16	43.89940094947815	fix_post	2		12.0	14.0	2.5	/experiments/knapen_aot/videos/S_yt-mDil5vGZb14_4049.mp4	0.0	204.64526987075806	0.0999910831451416
17	43.99939203262329	fix_pre	0		19.0	15.0	2.5	/experiments/knapen_aot/videos/S_yt-utYnOeoj2Rw_3.mp4	0.0	204.7452609539032	0.1586930751800537
17	44.14951205253601	response	0	2		15.0	2.5	/experiments/knapen_aot/videos/S_yt-utYnOeoj2Rw_3.mp4	0.0	204.89538097381592	
17	44.158085107803345	movie	1		301.0	15.0	2.5	/experiments/knapen_aot/videos/S_yt-utYnOeoj2Rw_3.mp4	0.0	204.90395402908325	2.5078999996185303
17	46.665985107421875	fix_post	2		12.0	15.0	2.5	/experiments/knapen_aot/videos/S_yt-utYnOeoj2Rw_3.mp4	0.0	207.41185402870178	0.10007691383361816
18	46.76606202125549	fix_pre	0		35.0	16.0	2.5	/experiments/knapen_aot/videos/R_S_yt-ZzC953ahaxs_195.mp4	0.0	207.5119309425354	0.29164695739746094
18	47.04951000213623	response	0	2		16.0	2.5	/experiments/knapen_aot/videos/R_S_yt-ZzC953ahaxs_195.mp4	0.0	207.79537892341614	
18	47.057708978652954	movie	1		301.0	16.0	2.5	/experiments/knapen_aot/videos/R_S_yt-ZzC953ahaxs_195.mp4	0.0	207.80357789993286	2.5084149837493896
18	49.566123962402344	fix_post	2		12.0	16.0	2.5	/experiments/knapen_aot/videos/R_S_yt-ZzC953ahaxs_195.mp4	0.0	210.31199288368225	0.09995508193969727
19	49.66607904434204	fix_pre	0		25.0	17.0	2.5	/experiments/knapen_aot/videos/R_S_yt-Ndwek2tpIOA_169.mp4	0.0	210.41194796562195	0.20830702781677246
19	49.866214990615845	response	0	2		17.0	2.5	/experiments/knapen_aot/videos/R_S_yt-Ndwek2tpIOA_169.mp4	0.0	210.61208391189575	
19	49.87438607215881	movie	1		301.0	17.0	2.5	/experiments/knapen_aot/videos/R_S_yt-Ndwek2tpIOA_169.mp4	0.0	210.62025499343872	2.5083649158477783
19	52.38275098800659	fix_post	2		12.0	17.0	2.5	/experiments/knapen_aot/videos/R_S_yt-Ndwek2tpIOA_169.mp4	0.0	213.1286199092865	0.09999704360961914
20	52.48274803161621	fix_pre	0		20.0	18.0	2.5	/experiments/knapen_aot/videos/R_S_yt-rPYBHkUEwwc_10.mp4	0.0	213.22861695289612	0.16660213470458984
20	52.641234159469604	response	0	2		18.0	2.5	/experiments/knapen_aot/videos/R_S_yt-rPYBHkUEwwc_10.mp4	0.0	213.3871030807495	
20	52.6493501663208	movie	1		301.0	18.0	2.5	/experiments/knapen_aot/videos/R_S_yt-rPYBHkUEwwc_10.mp4	0.0	213.3952190876007	2.5082998275756836
20	55.157649993896484	fix_post	2		12.0	18.0	2.5	/experiments/knapen_aot/videos/R_S_yt-rPYBHkUEwwc_10.mp4	0.0	215.9035189151764	0.10002613067626953
20	55.18365406990051	response	2	2		18.0	2.5	/experiments/knapen_aot/videos/R_S_yt-rPYBHkUEwwc_10.mp4	0.0	215.92952299118042	
21	55.257676124572754	fix_pre	0		38.0	19.0	2.5	blank	1.0	216.00354504585266	0.31694984436035156
21	55.566169023513794	response	0	2		19.0	2.5	blank	1.0	216.3120379447937	
21	55.574625968933105	movie	1		301.0	19.0	2.5	blank	1.0	216.320494890213	2.5080649852752686
21	58.082690954208374	fix_post	2		12.0	19.0	2.5	blank	1.0	218.82855987548828	0.09999513626098633
22	58.18268609046936	fix_pre	0		15.0	20.0	2.5	/experiments/knapen_aot/videos/S_yt-dO0OuozAgt0_225.mp4	0.0	218.92855501174927	0.12494206428527832
22	58.29946208000183	response	0	2		20.0	2.5	/experiments/knapen_aot/videos/S_yt-dO0OuozAgt0_225.mp4	0.0	219.04533100128174	
22	58.30762815475464	movie	1		301.0	20.0	2.5	/experiments/knapen_aot/videos/S_yt-dO0OuozAgt0_225.mp4	0.0	219.05349707603455	2.5084939002990723
22	60.81612205505371	fix_post	2		12.0	20.0	2.5	/experiments/knapen_aot/videos/S_yt-dO0OuozAgt0_225.mp4	0.0	221.56199097633362	0.09991693496704102
23	60.91603899002075	fix_pre	0		10.0	21.0	2.5	/experiments/knapen_aot/videos/R_S_yt-M_ApPnq00iE_67.mp4	0.0	221.66190791130066	0.08337116241455078
23	60.984375	response	0	2		21.0	2.5	/experiments/knapen_aot/videos/R_S_yt-M_ApPnq00iE_67.mp4	0.0	221.7302439212799	
23	60.9994101524353	movie	1		301.0	21.0	2.5	/experiments/knapen_aot/videos/R_S_yt-M_ApPnq00iE_67.mp4	0.0	221.7452790737152	2.508296012878418
23	63.50770616531372	fix_post	2		12.0	21.0	2.5	/experiments/knapen_aot/videos/R_S_yt-M_ApPnq00iE_67.mp4	0.0	224.25357508659363	0.0999898910522461
24	63.60769605636597	fix_pre	0		14.0	22.0	2.5	/experiments/knapen_aot/videos/S_I004_C014_SDR_2K_AVC.mp4	0.0	224.35356497764587	0.11663508415222168
24	63.716148138046265	response	0	2		22.0	2.5	/experiments/knapen_aot/videos/S_I004_C014_SDR_2K_AVC.mp4	0.0	224.46201705932617	
24	63.72433114051819	movie	1		171.0	22.0	2.5	/experiments/knapen_aot/videos/S_I004_C014_SDR_2K_AVC.mp4	0.0	224.4702000617981	2.508401870727539
24	66.23273301124573	fix_post	2		12.0	22.0	2.5	/experiments/knapen_aot/videos/S_I004_C014_SDR_2K_AVC.mp4	0.0	226.97860193252563	0.09994697570800781
25	66.33267998695374	fix_pre	0		29.0	23.0	2.5	/experiments/knapen_aot/videos/R_S_yt-xvIZtEVkebk_462.mp4	0.0	227.07854890823364	0.2418520450592041
25	66.56622314453125	response	0	2		23.0	2.5	/experiments/knapen_aot/videos/R_S_yt-xvIZtEVkebk_462.mp4	0.0	227.31209206581116	
25	66.57453203201294	movie	1		301.0	23.0	2.5	/experiments/knapen_aot/videos/R_S_yt-xvIZtEVkebk_462.mp4	0.0	227.32040095329285	2.5080931186676025
25	69.08262515068054	fix_post	2		12.0	23.0	2.5	/experiments/knapen_aot/videos/R_S_yt-xvIZtEVkebk_462.mp4	0.0	229.82849407196045	0.10002493858337402
26	69.18265008926392	fix_pre	0		9.0	24.0	2.5	/experiments/knapen_aot/videos/R_S_yt-Q6BFO3Yz0zY_363.mp4	0.0	229.92851901054382	0.07495689392089844
26	69.24943614006042	response	0	2		24.0	2.5	/experiments/knapen_aot/videos/R_S_yt-Q6BFO3Yz0zY_363.mp4	0.0	229.99530506134033	
26	69.25760698318481	movie	1		301.0	24.0	2.5	/experiments/knapen_aot/videos/R_S_yt-Q6BFO3Yz0zY_363.mp4	0.0	230.00347590446472	2.508319139480591
26	71.7659261226654	fix_post	2		12.0	24.0	2.5	/experiments/knapen_aot/videos/R_S_yt-Q6BFO3Yz0zY_363.mp4	0.0	232.5117950439453	0.10017085075378418
27	71.86609697341919	fix_pre	0		16.0	25.0	2.5	/experiments/knapen_aot/videos/R_S_yt-KLInd-KrK_w_19.mp4	0.0	232.6119658946991	0.13322114944458008
27	71.99115514755249	response	0	2		25.0	2.5	/experiments/knapen_aot/videos/R_S_yt-KLInd-KrK_w_19.mp4	0.0	232.7370240688324	
27	71.99931812286377	movie	1		301.0	25.0	2.5	/experiments/knapen_aot/videos/R_S_yt-KLInd-KrK_w_19.mp4	0.0	232.74518704414368	2.5082778930664062
27	74.50759601593018	fix_post	2		12.0	25.0	2.5	/experiments/knapen_aot/videos/R_S_yt-KLInd-KrK_w_19.mp4	0.0	235.25346493721008	0.09999608993530273
28	74.60759210586548	fix_pre	0		9.0	26.0	2.5	/experiments/knapen_aot/videos/R_S_I004_C014_SDR_2K_AVC.mp4	0.0	235.35346102714539	0.07508587837219238
28	74.67438697814941	response	0	2		26.0	2.5	/experiments/knapen_aot/videos/R_S_I004_C014_SDR_2K_AVC.mp4	0.0	235.42025589942932	
28	74.68267798423767	movie	1		175.0	26.0	2.5	/experiments/knapen_aot/videos/R_S_I004_C014_SDR_2K_AVC.mp4	0.0	235.42854690551758	2.5082461833953857
28	77.19092416763306	fix_post	2		12.0	26.0	2.5	/experiments/knapen_aot/videos/R_S_I004_C014_SDR_2K_AVC.mp4	0.0	237.93679308891296	0.09993696212768555
28	77.24155306816101	response	2	2		26.0	2.5	/experiments/knapen_aot/videos/R_S_I004_C014_SDR_2K_AVC.mp4	0.0	237.98742198944092	
29	77.29086112976074	fix_pre	0		33.0	27.0	2.5	blank	1.0	238.03673005104065	0.2750718593597412
29	77.55771517753601	response	0	2		27.0	2.5	blank	1.0	238.30358409881592	
29	77.56593298912048	movie	1		301.0	27.0	2.5	blank	1.0	238.3118019104004	2.508449077606201
29	80.07438206672668	fix_post	2		12.0	27.0	2.5	blank	1.0	240.8202509880066	0.09991788864135742
30	80.17429995536804	fix_pre	0		24.0	28.0	2.5	/experiments/knapen_aot/videos/S_yt-Dwgpjoikt84_122.mp4	0.0	240.92016887664795	0.19999408721923828
30	80.36600804328918	response	0	2		28.0	2.5	/experiments/knapen_aot/videos/S_yt-Dwgpjoikt84_122.mp4	0.0	241.1118769645691	
30	80.37429404258728	movie	1		297.0	28.0	2.5	/experiments/knapen_aot/videos/S_yt-Dwgpjoikt84_122.mp4	0.0	241.1201629638672	2.5083250999450684
30	82.88261914253235	fix_post	2		12.0	28.0	2.5	/experiments/knapen_aot/videos/S_yt-Dwgpjoikt84_122.mp4	0.0	243.62848806381226	0.09999680519104004
31	82.98261594772339	fix_pre	0		9.0	29.0	2.5	/experiments/knapen_aot/videos/R_S_yt-xSGPe0KemD4_384.mp4	0.0	243.7284848690033	0.07496500015258789
31	83.04947113990784	response	0	2		29.0	2.5	/experiments/knapen_aot/videos/R_S_yt-xSGPe0KemD4_384.mp4	0.0	243.79534006118774	
31	83.05758094787598	movie	1		301.0	29.0	2.5	/experiments/knapen_aot/videos/R_S_yt-xSGPe0KemD4_384.mp4	0.0	243.80344986915588	2.5083420276641846
31	85.56592297554016	fix_post	2		12.0	29.0	2.5	/experiments/knapen_aot/videos/R_S_yt-xSGPe0KemD4_384.mp4	0.0	246.31179189682007	0.09994816780090332
32	85.66587114334106	fix_pre	0		16.0	30.0	2.5	/experiments/knapen_aot/videos/R_S_82eJpVKGnC0_188.mp4	0.0	246.41174006462097	0.1334209442138672
32	85.78354597091675	response	0	2		30.0	2.5	/experiments/knapen_aot/videos/R_S_82eJpVKGnC0_188.mp4	0.0	246.52941489219666	
32	85.79929208755493	movie	1		301.0	30.0	2.5	/experiments/knapen_aot/videos/R_S_82eJpVKGnC0_188.mp4	0.0	246.54516100883484	2.5082318782806396
32	88.30752396583557	fix_post	2		12.0	30.0	2.5	/experiments/knapen_aot/videos/R_S_82eJpVKGnC0_188.mp4	0.0	249.05339288711548	0.10013198852539062
33	88.40765595436096	fix_pre	0		9.0	31.0	2.5	/experiments/knapen_aot/videos/R_S_wc-ikynRrpJVaWp_12.mp4	0.0	249.15352487564087	0.07486510276794434
33	88.47433495521545	response	0	2		31.0	2.5	/experiments/knapen_aot/videos/R_S_wc-ikynRrpJVaWp_12.mp4	0.0	249.22020387649536	
33	88.4825210571289	movie	1		174.0	31.0	2.5	/experiments/knapen_aot/videos/R_S_wc-ikynRrpJVaWp_12.mp4	0.0	249.2283899784088	2.5084478855133057
33	90.99096894264221	fix_post	2		12.0	31.0	2.5	/experiments/knapen_aot/videos/R_S_wc-ikynRrpJVaWp_12.mp4	0.0	251.73683786392212	0.09992218017578125
34	91.090891122818	fix_pre	0		18.0	32.0	2.5	/experiments/knapen_aot/videos/S_yt-zlbtESb7Fcw_28.mp4	0.0	251.8367600440979	0.15002894401550293
34	91.232666015625	response	0	2		32.0	2.5	/experiments/knapen_aot/videos/S_yt-zlbtESb7Fcw_28.mp4	0.0	251.9785349369049	
34	91.2409200668335	movie	1		301.0	32.0	2.5	/experiments/knapen_aot/videos/S_yt-zlbtESb7Fcw_28.mp4	0.0	251.9867889881134	2.508315086364746
34	93.74923515319824	fix_post	2		12.0	32.0	2.5	/experiments/knapen_aot/videos/S_yt-zlbtESb7Fcw_28.mp4	0.0	254.49510407447815	0.09994888305664062
35	93.84918403625488	fix_pre	0		16.0	33.0	2.5	/experiments/knapen_aot/videos/S_yt-utYnOeoj2Rw_3.mp4	0.0	254.5950529575348	0.13335800170898438
35	93.9742980003357	response	0	2		33.0	2.5	/experiments/knapen_aot/videos/S_yt-utYnOeoj2Rw_3.mp4	0.0	254.7201669216156	
35	93.98254203796387	movie	1		301.0	33.0	2.5	/experiments/knapen_aot/videos/S_yt-utYnOeoj2Rw_3.mp4	0.0	254.72841095924377	2.5084009170532227
35	96.49094295501709	fix_post	2		12.0	33.0	2.5	/experiments/knapen_aot/videos/S_yt-utYnOeoj2Rw_3.mp4	0.0	257.236811876297	0.09987115859985352
35	96.56758713722229	response	2	2		33.0	2.5	/experiments/knapen_aot/videos/S_yt-utYnOeoj2Rw_3.mp4	0.0	257.3134560585022	
36	96.59081411361694	fix_pre	0		42.0	34.0	2.5	/experiments/knapen_aot/videos/S_comp_1223LV_FLARE_v21_SDR_PS_FINAL_20180709_F0F5700_SDR_2K_AVC.mp4	0.0	257.33668303489685	0.3500528335571289
36	96.932608127594	response	0	2		34.0	2.5	/experiments/knapen_aot/videos/S_comp_1223LV_FLARE_v21_SDR_PS_FINAL_20180709_F0F5700_SDR_2K_AVC.mp4	0.0	257.6784770488739	
36	96.94086694717407	movie	1		164.0	34.0	2.5	/experiments/knapen_aot/videos/S_comp_1223LV_FLARE_v21_SDR_PS_FINAL_20180709_F0F5700_SDR_2K_AVC.mp4	0.0	257.686735868454	2.508312225341797
36	99.44917917251587	fix_post	2		12.0	34.0	2.5	/experiments/knapen_aot/videos/S_comp_1223LV_FLARE_v21_SDR_PS_FINAL_20180709_F0F5700_SDR_2K_AVC.mp4	0.0	260.1950480937958	0.10001897811889648
37	99.54919815063477	fix_pre	0		5.0	35.0	2.5	blank	1.0	260.2950670719147	0.041728973388671875
37	99.57611012458801	response	0	2		35.0	2.5	blank	1.0	260.3219790458679	
37	99.59092712402344	movie	1		301.0	35.0	2.5	blank	1.0	260.33679604530334	2.5082578659057617
37	102.0991849899292	fix_post	2		12.0	35.0	2.5	blank	1.0	262.8450539112091	0.09996700286865234
38	102.19915199279785	fix_pre	0		25.0	36.0	2.5	/experiments/knapen_aot/videos/R_S_yt-lv6mhnH7_g4_134.mp4	0.0	262.94502091407776	0.20834803581237793
38	102.3992350101471	response	0	2		36.0	2.5	/experiments/knapen_aot/videos/R_S_yt-lv6mhnH7_g4_134.mp4	0.0	263.145103931427	
38	102.40750002861023	movie	1		301.0	36.0	2.5	/experiments/knapen_aot/videos/R_S_yt-lv6mhnH7_g4_134.mp4	0.0	263.15336894989014	2.5083200931549072
38	104.91582012176514	fix_post	2		12.0	36.0	2.5	/experiments/knapen_aot/videos/R_S_yt-lv6mhnH7_g4_134.mp4	0.0	265.66168904304504	0.10000085830688477
39	105.01582098007202	fix_pre	0		17.0	37.0	2.5	/experiments/knapen_aot/videos/S_yt-Fm97IY0Z2LU_110.mp4	0.0	265.76168990135193	0.1416311264038086
39	105.14924311637878	response	0	2		37.0	2.5	/experiments/knapen_aot/videos/S_yt-Fm97IY0Z2LU_110.mp4	0.0	265.8951120376587	
39	105.15745210647583	movie	1		301.0	37.0	2.5	/experiments/knapen_aot/videos/S_yt-Fm97IY0Z2LU_110.mp4	0.0	265.90332102775574	2.5083649158477783
39	107.66581702232361	fix_post	2		12.0	37.0	2.5	/experiments/knapen_aot/videos/S_yt-Fm97IY0Z2LU_110.mp4	0.0	268.4116859436035	0.10002398490905762
40	107.76584100723267	fix_pre	0		34.0	38.0	2.5	/experiments/knapen_aot/videos/R_S_ILSVRC2015_train_00559000.mp4	0.0	268.5117099285126	0.2832961082458496
40	108.04099297523499	response	0	2		38.0	2.5	/experiments/knapen_aot/videos/R_S_ILSVRC2015_train_00559000.mp4	0.0	268.7868618965149	
40	108.04913711547852	movie	1		301.0	38.0	2.5	/experiments/knapen_aot/videos/R_S_ILSVRC2015_train_00559000.mp4	0.0	268.7950060367584	2.5082929134368896
40	110.5574300289154	fix_post	2		12.0	38.0	2.5	/experiments/knapen_aot/videos/R_S_ILSVRC2015_train_00559000.mp4	0.0	271.3032989501953	0.10007214546203613
41	110.65750217437744	fix_pre	0		18.0	39.0	2.5	/experiments/knapen_aot/videos/R_S_yt-Fm97IY0Z2LU_110.mp4	0.0	271.40337109565735	0.14998888969421387
41	110.79928517341614	response	0	2		39.0	2.5	/experiments/knapen_aot/videos/R_S_yt-Fm97IY0Z2LU_110.mp4	0.0	271.54515409469604	
41	110.80749106407166	movie	1		301.0	39.0	2.5	/experiments/knapen_aot/videos/R_S_yt-Fm97IY0Z2LU_110.mp4	0.0	271.55335998535156	2.5085160732269287
41	113.31600713729858	fix_post	2		12.0	39.0	2.5	/experiments/knapen_aot/videos/R_S_yt-Fm97IY0Z2LU_110.mp4	0.0	274.0618760585785	0.09980082511901855
42	113.4158079624176	fix_pre	0		43.0	40.0	2.5	blank	1.0	274.1616768836975	0.3583371639251709
42	113.7659821510315	response	0	2		40.0	2.5	blank	1.0	274.5118510723114	
42	113.77414512634277	movie	1		301.0	40.0	2.5	blank	1.0	274.5200140476227	2.508301019668579
42	116.28244614601135	fix_post	2		12.0	40.0	2.5	blank	1.0	277.02831506729126	0.09991788864135742
43	116.38236403465271	fix_pre	0		34.0	41.0	2.5	/experiments/knapen_aot/videos/S_yt-Fm97IY0Z2LU_79.mp4	0.0	277.1282329559326	0.28342700004577637
43	116.6500780582428	response	0	2		41.0	2.5	/experiments/knapen_aot/videos/S_yt-Fm97IY0Z2LU_79.mp4	0.0	277.3959469795227	
43	116.66579103469849	movie	1		301.0	41.0	2.5	/experiments/knapen_aot/videos/S_yt-Fm97IY0Z2LU_79.mp4	0.0	277.4116599559784	2.508328914642334
43	119.17411994934082	fix_post	2		12.0	41.0	2.5	/experiments/knapen_aot/videos/S_yt-Fm97IY0Z2LU_79.mp4	0.0	279.9199888706207	0.10000014305114746
44	119.27412009239197	fix_pre	0		23.0	42.0	2.5	/experiments/knapen_aot/videos/S_bing-www_nbcnews_com_storyline_isis-terror_fall-isis-stronghold-raqqa-will-change-war-extremists-not-end-n808621_86.mp4	0.0	280.0199890136719	0.191633939743042
44	119.45761895179749	response	0	2		42.0	2.5	/experiments/knapen_aot/videos/S_bing-www_nbcnews_com_storyline_isis-terror_fall-isis-stronghold-raqqa-will-change-war-extremists-not-end-n808621_86.mp4	0.0	280.2034878730774	
44	119.46575403213501	movie	1		161.0	42.0	2.5	/experiments/knapen_aot/videos/S_bing-www_nbcnews_com_storyline_isis-terror_fall-isis-stronghold-raqqa-will-change-war-extremists-not-end-n808621_86.mp4	0.0	280.2116229534149	2.508301019668579
44	121.97405505180359	fix_post	2		12.0	42.0	2.5	/experiments/knapen_aot/videos/S_bing-www_nbcnews_com_storyline_isis-terror_fall-isis-stronghold-raqqa-will-change-war-extremists-not-end-n808621_86.mp4	0.0	282.7199239730835	0.10007691383361816
45	122.0741319656372	fix_pre	0		10.0	43.0	2.5	/experiments/knapen_aot/videos/R_S_ILSVRC2015_train_00067005.mp4	0.0	282.8200008869171	0.08324217796325684
45	122.14920496940613	response	0	2		43.0	2.5	/experiments/knapen_aot/videos/R_S_ILSVRC2015_train_00067005.mp4	0.0	282.89507389068604	
45	122.15737414360046	movie	1		300.0	43.0	2.5	/experiments/knapen_aot/videos/R_S_ILSVRC2015_train_00067005.mp4	0.0	282.90324306488037	2.5083909034729004
45	124.66576504707336	fix_post	2		12.0	43.0	2.5	/experiments/knapen_aot/videos/R_S_ILSVRC2015_train_00067005.mp4	0.0	285.41163396835327	0.10003209114074707
46	124.76579713821411	fix_pre	0		13.0	44.0	2.5	/experiments/knapen_aot/videos/R_S_production_ID_4325585.mp4	0.0	285.511666059494	0.10834598541259766
46	124.86588501930237	response	0	2		44.0	2.5	/experiments/knapen_aot/videos/R_S_production_ID_4325585.mp4	0.0	285.6117539405823	
46	124.87414312362671	movie	1		189.0	44.0	2.5	/experiments/knapen_aot/videos/R_S_production_ID_4325585.mp4	0.0	285.6200120449066	2.508319854736328
46	127.38246297836304	fix_post	2		12.0	44.0	2.5	/experiments/knapen_aot/videos/R_S_production_ID_4325585.mp4	0.0	288.12833189964294	0.09999704360961914
47	127.48246002197266	fix_pre	0		7.0	45.0	2.5	/experiments/knapen_aot/videos/R_S_yt-b0IfGcoHfD0_83.mp4	0.0	288.22832894325256	0.05841207504272461
47	127.53280711174011	response	0	2		45.0	2.5	/experiments/knapen_aot/videos/R_S_yt-b0IfGcoHfD0_83.mp4	0.0	288.27867603302	
47	127.54087209701538	movie	1		301.0	45.0	2.5	/experiments/knapen_aot/videos/R_S_yt-b0IfGcoHfD0_83.mp4	0.0	288.2867410182953	2.5082390308380127
47	130.0491111278534	fix_post	2		12.0	45.0	2.5	/experiments/knapen_aot/videos/R_S_yt-b0IfGcoHfD0_83.mp4	0.0	290.7949800491333	0.09999585151672363
48	130.14910697937012	fix_pre	0		14.0	46.0	2.5	/experiments/knapen_aot/videos/S_pexels-ron-lach-8259631.mp4	0.0	290.89497590065	0.11664819717407227
48	130.2575340270996	response	0	2		46.0	2.5	/experiments/knapen_aot/videos/S_pexels-ron-lach-8259631.mp4	0.0	291.0034029483795	
48	130.2657551765442	movie	1		195.0	46.0	2.5	/experiments/knapen_aot/videos/S_pexels-ron-lach-8259631.mp4	0.0	291.0116240978241	2.508333921432495
48	132.77408909797668	fix_post	2		12.0	46.0	2.5	/experiments/knapen_aot/videos/S_pexels-ron-lach-8259631.mp4	0.0	293.5199580192566	0.09998106956481934
49	132.8740701675415	fix_pre	0		16.0	47.0	2.5	/experiments/knapen_aot/videos/S_yt-hRAqAwRhmwE_58.mp4	0.0	293.6199390888214	0.13326191902160645
49	132.99925017356873	response	0	2		47.0	2.5	/experiments/knapen_aot/videos/S_yt-hRAqAwRhmwE_58.mp4	0.0	293.74511909484863	
49	133.0073320865631	movie	1		301.0	47.0	2.5	/experiments/knapen_aot/videos/S_yt-hRAqAwRhmwE_58.mp4	0.0	293.753201007843	2.5084009170532227
49	135.51573300361633	fix_post	2		12.0	47.0	2.5	/experiments/knapen_aot/videos/S_yt-hRAqAwRhmwE_58.mp4	0.0	296.26160192489624	0.10008811950683594
50	135.61582112312317	fix_pre	0		7.0	48.0	2.5	/experiments/knapen_aot/videos/R_S_yt-TvU-aYjNa2c_21.mp4	0.0	296.3616900444031	0.05826687812805176
50	135.65903401374817	response	0	2		48.0	2.5	/experiments/knapen_aot/videos/R_S_yt-TvU-aYjNa2c_21.mp4	0.0	296.4049029350281	
50	135.67408800125122	movie	1		301.0	48.0	2.5	/experiments/knapen_aot/videos/R_S_yt-TvU-aYjNa2c_21.mp4	0.0	296.4199569225311	2.508312940597534
50	138.18240094184875	fix_post	2		12.0	48.0	2.5	/experiments/knapen_aot/videos/R_S_yt-TvU-aYjNa2c_21.mp4	0.0	298.92826986312866	0.09998512268066406
51	138.28238606452942	fix_pre	0		21.0	49.0	2.5	blank	1.0	299.0282549858093	0.17498207092285156
51	138.44916105270386	response	0	2		49.0	2.5	blank	1.0	299.19502997398376	
51	138.45736813545227	movie	1		301.0	49.0	2.5	blank	1.0	299.2032370567322	2.5083398818969727
51	140.96570801734924	fix_post	2		12.0	49.0	2.5	blank	1.0	301.71157693862915	0.09990310668945312
52	141.0656111240387	fix_pre	0		19.0	50.0	2.5	/experiments/knapen_aot/videos/R_S_comp_LA_A005_C009_PSNK_ALT_v09_SDR_PS_201809134_SDR_2K_AVC.mp4	0.0	301.8114800453186	0.15839791297912598
52	141.21571898460388	response	0	2		50.0	2.5	/experiments/knapen_aot/videos/R_S_comp_LA_A005_C009_PSNK_ALT_v09_SDR_PS_201809134_SDR_2K_AVC.mp4	0.0	301.9615879058838	
52	141.22400903701782	movie	1		171.0	50.0	2.5	/experiments/knapen_aot/videos/R_S_comp_LA_A005_C009_PSNK_ALT_v09_SDR_PS_201809134_SDR_2K_AVC.mp4	0.0	301.96987795829773	2.5083301067352295
52	143.73233914375305	fix_post	2		12.0	50.0	2.5	/experiments/knapen_aot/videos/R_S_comp_LA_A005_C009_PSNK_ALT_v09_SDR_PS_201809134_SDR_2K_AVC.mp4	0.0	304.47820806503296	0.10000491142272949
53	143.83234405517578	fix_pre	0		7.0	51.0	2.5	/experiments/knapen_aot/videos/S_yt-R6a0Jzo_u1Y_254.mp4	0.0	304.5782129764557	0.0582890510559082
53	143.88260197639465	response	0	2		51.0	2.5	/experiments/knapen_aot/videos/S_yt-R6a0Jzo_u1Y_254.mp4	0.0	304.62847089767456	
53	143.8906331062317	movie	1		301.0	51.0	2.5	/experiments/knapen_aot/videos/S_yt-R6a0Jzo_u1Y_254.mp4	0.0	304.6365020275116	2.508312940597534
53	146.39894604682922	fix_post	2		12.0	51.0	2.5	/experiments/knapen_aot/videos/S_yt-R6a0Jzo_u1Y_254.mp4	0.0	307.14481496810913	0.10005402565002441
54	146.49900007247925	fix_pre	0		28.0	52.0	2.5	/experiments/knapen_aot/videos/R_S_wc-ZGCMbPfXQ71L_31.mp4	0.0	307.24486899375916	0.23445987701416016
54	146.72412705421448	response	0	2		52.0	2.5	/experiments/knapen_aot/videos/R_S_wc-ZGCMbPfXQ71L_31.mp4	0.0	307.4699959754944	
54	146.7334599494934	movie	1		164.0	52.0	2.5	/experiments/knapen_aot/videos/R_S_wc-ZGCMbPfXQ71L_31.mp4	0.0	307.4793288707733	2.507183074951172
54	149.24064302444458	fix_post	2		12.0	52.0	2.5	/experiments/knapen_aot/videos/R_S_wc-ZGCMbPfXQ71L_31.mp4	0.0	309.9865119457245	0.1000220775604248
55	149.340665102005	fix_pre	0		15.0	53.0	2.5	/experiments/knapen_aot/videos/S_bing-www_nytimes_com_video_dining_1247468118505_grilled-chicken-breasts-with-herb-butter_html_132.mp4	0.0	310.0865340232849	0.1248788833618164
55	149.45745515823364	response	0	2		53.0	2.5	/experiments/knapen_aot/videos/S_bing-www_nytimes_com_video_dining_1247468118505_grilled-chicken-breasts-with-herb-butter_html_132.mp4	0.0	310.20332407951355	
55	149.46554398536682	movie	1		170.0	53.0	2.5	/experiments/knapen_aot/videos/S_bing-www_nytimes_com_video_dining_1247468118505_grilled-chicken-breasts-with-herb-butter_html_132.mp4	0.0	310.21141290664673	2.5084359645843506
55	151.97397994995117	fix_post	2		12.0	53.0	2.5	/experiments/knapen_aot/videos/S_bing-www_nytimes_com_video_dining_1247468118505_grilled-chicken-breasts-with-herb-butter_html_132.mp4	0.0	312.7198488712311	0.10000109672546387
56	152.07398104667664	fix_pre	0		27.0	54.0	2.5	/experiments/knapen_aot/videos/R_S_bing-www_dailymotion_com_video_x4kcklg_53.mp4	0.0	312.81984996795654	0.22493791580200195
56	152.29066705703735	response	0	2		54.0	2.5	/experiments/knapen_aot/videos/R_S_bing-www_dailymotion_com_video_x4kcklg_53.mp4	0.0	313.03653597831726	
56	152.29891896247864	movie	1		171.0	54.0	2.5	/experiments/knapen_aot/videos/R_S_bing-www_dailymotion_com_video_x4kcklg_53.mp4	0.0	313.04478788375854	2.5083580017089844
56	154.80727696418762	fix_post	2		12.0	54.0	2.5	/experiments/knapen_aot/videos/R_S_bing-www_dailymotion_com_video_x4kcklg_53.mp4	0.0	315.55314588546753	0.09998011589050293
57	154.90725708007812	fix_pre	0		22.0	55.0	2.5	blank	1.0	315.65312600135803	0.19163799285888672
57	155.09071016311646	response	0	2		55.0	2.5	blank	1.0	315.83657908439636	
57	155.098895072937	movie	1		301.0	55.0	2.5	blank	1.0	315.8447639942169	2.5082929134368896
57	157.6071879863739	fix_post	2		12.0	55.0	2.5	blank	1.0	318.3530569076538	0.1000370979309082
58	157.7072250843048	fix_pre	0		41.0	56.0	2.5	/experiments/knapen_aot/videos/S_yt-FsXOl6JjzSY_15.mp4	0.0	318.4530940055847	0.3416478633880615
58	158.04074001312256	response	0	2		56.0	2.5	/experiments/knapen_aot/videos/S_yt-FsXOl6JjzSY_15.mp4	0.0	318.78660893440247	
58	158.04887294769287	movie	1		301.0	56.0	2.5	/experiments/knapen_aot/videos/S_yt-FsXOl6JjzSY_15.mp4	0.0	318.7947418689728	2.508334159851074
58	160.55720710754395	fix_post	2		12.0	56.0	2.5	/experiments/knapen_aot/videos/S_yt-FsXOl6JjzSY_15.mp4	0.0	321.30307602882385	0.10003089904785156
59	160.6572380065918	fix_pre	0		29.0	57.0	2.5	/experiments/knapen_aot/videos/S_yt-N7ztk2fa3Ls_137.mp4	0.0	321.4031069278717	0.24277710914611816
59	160.8907721042633	response	0	2		57.0	2.5	/experiments/knapen_aot/videos/S_yt-N7ztk2fa3Ls_137.mp4	0.0	321.6366410255432	
59	160.90001511573792	movie	1		301.0	57.0	2.5	/experiments/knapen_aot/videos/S_yt-N7ztk2fa3Ls_137.mp4	0.0	321.6458840370178	2.507213830947876
59	163.4072289466858	fix_post	2		12.0	57.0	2.5	/experiments/knapen_aot/videos/S_yt-N7ztk2fa3Ls_137.mp4	0.0	324.1530978679657	0.10000014305114746
60	163.50722908973694	fix_pre	0		43.0	58.0	2.5	/experiments/knapen_aot/videos/S_comp_GMT329_113NC_396B_1105_CHINA_v04_SDR_FINAL_20180706_F900F2700_SDR_2K_AVC.mp4	0.0	324.25309801101685	0.35831403732299805
60	163.85724210739136	response	0	2		58.0	2.5	/experiments/knapen_aot/videos/S_comp_GMT329_113NC_396B_1105_CHINA_v04_SDR_FINAL_20180706_F900F2700_SDR_2K_AVC.mp4	0.0	324.60311102867126	
60	163.86554312705994	movie	1		162.0	58.0	2.5	/experiments/knapen_aot/videos/S_comp_GMT329_113NC_396B_1105_CHINA_v04_SDR_FINAL_20180706_F900F2700_SDR_2K_AVC.mp4	0.0	324.61141204833984	2.5083839893341064
60	166.37392711639404	fix_post	2		12.0	58.0	2.5	/experiments/knapen_aot/videos/S_comp_GMT329_113NC_396B_1105_CHINA_v04_SDR_FINAL_20180706_F900F2700_SDR_2K_AVC.mp4	0.0	327.11979603767395	0.10001182556152344
61	166.47393894195557	fix_pre	0		27.0	59.0	2.5	/experiments/knapen_aot/videos/R_S_ILSVRC2015_train_00219004.mp4	0.0	327.2198078632355	0.2249600887298584
61	166.69073700904846	response	0	2		59.0	2.5	/experiments/knapen_aot/videos/R_S_ILSVRC2015_train_00219004.mp4	0.0	327.43660593032837	
61	166.69889903068542	movie	1		301.0	59.0	2.5	/experiments/knapen_aot/videos/R_S_ILSVRC2015_train_00219004.mp4	0.0	327.44476795196533	2.5082449913024902
61	169.20714402198792	fix_post	2		12.0	59.0	2.5	/experiments/knapen_aot/videos/R_S_ILSVRC2015_train_00219004.mp4	0.0	329.9530129432678	0.10003495216369629
62	169.3071789741516	fix_pre	0		11.0	60.0	2.5	/experiments/knapen_aot/videos/R_S_3WAnGcPubBY_179.mp4	0.0	330.0530478954315	0.09277105331420898
62	169.39063096046448	response	0	2		60.0	2.5	/experiments/knapen_aot/videos/R_S_3WAnGcPubBY_179.mp4	0.0	330.1364998817444	
62	169.39995002746582	movie	1		301.0	60.0	2.5	/experiments/knapen_aot/videos/R_S_3WAnGcPubBY_179.mp4	0.0	330.1458189487457	2.507310152053833
62	171.90726017951965	fix_post	2		12.0	60.0	2.5	/experiments/knapen_aot/videos/R_S_3WAnGcPubBY_179.mp4	0.0	332.65312910079956	0.09998393058776855
63	172.00724411010742	fix_pre	0		36.0	61.0	2.5	/experiments/knapen_aot/videos/R_S_yt-R6a0Jzo_u1Y_254.mp4	0.0	332.75311303138733	0.2999858856201172
63	172.29902696609497	response	0	2		61.0	2.5	/experiments/knapen_aot/videos/R_S_yt-R6a0Jzo_u1Y_254.mp4	0.0	333.0448958873749	
63	172.30722999572754	movie	1		301.0	61.0	2.5	/experiments/knapen_aot/videos/R_S_yt-R6a0Jzo_u1Y_254.mp4	0.0	333.05309891700745	2.5082011222839355
63	174.81543111801147	fix_post	2		12.0	61.0	2.5	/experiments/knapen_aot/videos/R_S_yt-R6a0Jzo_u1Y_254.mp4	0.0	335.5613000392914	0.10009384155273438
64	174.9155249595642	fix_pre	0		43.0	62.0	2.5	/experiments/knapen_aot/videos/R_S_ILSVRC2015_train_00408000.mp4	0.0	335.6613938808441	0.35930418968200684
64	175.26560711860657	response	0	2		62.0	2.5	/experiments/knapen_aot/videos/R_S_ILSVRC2015_train_00408000.mp4	0.0	336.0114760398865	
64	175.27482914924622	movie	1		301.0	62.0	2.5	/experiments/knapen_aot/videos/R_S_ILSVRC2015_train_00408000.mp4	0.0	336.0206980705261	2.50738787651062
64	177.78221702575684	fix_post	2		12.0	62.0	2.5	/experiments/knapen_aot/videos/R_S_ILSVRC2015_train_00408000.mp4	0.0	338.52808594703674	0.09999299049377441
65	177.8822100162506	fix_pre	0		12.0	63.0	2.5	blank	1.0	338.6280789375305	0.1009819507598877
65	177.97403001785278	response	0	2		63.0	2.5	blank	1.0	338.7198989391327	
65	177.9831919670105	movie	1		301.0	63.0	2.5	blank	1.0	338.7290608882904	2.507277011871338
65	180.49046897888184	fix_post	2		12.0	63.0	2.5	blank	1.0	341.23633790016174	0.10005903244018555
66	180.59052801132202	fix_pre	0		21.0	64.0	2.5	/experiments/knapen_aot/videos/R_S_yt-11VGDAOVEag_8.mp4	0.0	341.33639693260193	0.1749739646911621
66	180.75728106498718	response	0	2		64.0	2.5	/experiments/knapen_aot/videos/R_S_yt-11VGDAOVEag_8.mp4	0.0	341.5031499862671	
66	180.76550197601318	movie	1		301.0	64.0	2.5	/experiments/knapen_aot/videos/R_S_yt-11VGDAOVEag_8.mp4	0.0	341.5113708972931	2.508336067199707
66	183.2738380432129	fix_post	2		12.0	64.0	2.5	/experiments/knapen_aot/videos/R_S_yt-11VGDAOVEag_8.mp4	0.0	344.0197069644928	0.10005402565002441
67	183.37389206886292	fix_pre	0		130.0	65.0	2.5	/experiments/knapen_aot/videos/R_S_video-9.mp4	0.0	344.1197609901428	1.0832929611206055
67	184.44894003868103	response	0	2		65.0	2.5	/experiments/knapen_aot/videos/R_S_video-9.mp4	0.0	345.19480895996094	
67	184.45718502998352	movie	1		196.0	65.0	2.5	/experiments/knapen_aot/videos/R_S_video-9.mp4	0.0	345.2030539512634	2.508255958557129
67	186.96544098854065	fix_post	2		12.0	65.0	2.5	/experiments/knapen_aot/videos/R_S_video-9.mp4	0.0	347.71130990982056	0.09999799728393555
67	187.0405969619751	response	2	2		65.0	2.5	/experiments/knapen_aot/videos/R_S_video-9.mp4	0.0	347.786465883255	
68	187.06543898582458	fix_pre	0		39.0	66.0	2.5	/experiments/knapen_aot/videos/S_b4-3.mp4	0.0	347.8113079071045	0.32500696182250977
68	187.3824019432068	response	0	2		66.0	2.5	/experiments/knapen_aot/videos/S_b4-3.mp4	0.0	348.1282708644867	
68	187.3904459476471	movie	1		165.0	66.0	2.5	/experiments/knapen_aot/videos/S_b4-3.mp4	0.0	348.136314868927	2.5083022117614746
68	189.89874815940857	fix_post	2		12.0	66.0	2.5	/experiments/knapen_aot/videos/S_b4-3.mp4	0.0	350.6446170806885	0.10003995895385742
69	189.99878811836243	fix_pre	0		19.0	67.0	2.5	/experiments/knapen_aot/videos/S_wc-ZGCMbPfXQ71L_31.mp4	0.0	350.74465703964233	0.15839290618896484
69	190.14891695976257	response	0	2		67.0	2.5	/experiments/knapen_aot/videos/S_wc-ZGCMbPfXQ71L_31.mp4	0.0	350.8947858810425	
69	190.1571810245514	movie	1		163.0	67.0	2.5	/experiments/knapen_aot/videos/S_wc-ZGCMbPfXQ71L_31.mp4	0.0	350.9030499458313	2.5083160400390625
69	192.66549706459045	fix_post	2		12.0	67.0	2.5	/experiments/knapen_aot/videos/S_wc-ZGCMbPfXQ71L_31.mp4	0.0	353.41136598587036	0.09999704360961914
70	192.76549410820007	fix_pre	0		17.0	68.0	2.5	blank	1.0	353.51136302948	0.1416950225830078
70	192.89150595664978	response	0	2		68.0	2.5	blank	1.0	353.6373748779297	
70	192.90718913078308	movie	1		301.0	68.0	2.5	blank	1.0	353.653058052063	2.508291006088257
70	195.41548013687134	fix_post	2		12.0	68.0	2.5	blank	1.0	356.16134905815125	0.10000991821289062
71	195.51549005508423	fix_pre	0		17.0	69.0	2.5	/experiments/knapen_aot/videos/R_S_yt-qazCIJqjxUU_3.mp4	0.0	356.26135897636414	0.14168095588684082
71	195.64893317222595	response	0	2		69.0	2.5	/experiments/knapen_aot/videos/R_S_yt-qazCIJqjxUU_3.mp4	0.0	356.39480209350586	
71	195.65717101097107	movie	1		301.0	69.0	2.5	/experiments/knapen_aot/videos/R_S_yt-qazCIJqjxUU_3.mp4	0.0	356.403039932251	2.508355140686035
71	198.1655261516571	fix_post	2		12.0	69.0	2.5	/experiments/knapen_aot/videos/R_S_yt-qazCIJqjxUU_3.mp4	0.0	358.911395072937	0.09988784790039062
72	198.2654139995575	fix_pre	0		21.0	70.0	2.5	/experiments/knapen_aot/videos/R_S_ILSVRC2015_train_00484001.mp4	0.0	359.0112829208374	0.17593002319335938
72	198.43229603767395	response	0	2		70.0	2.5	/experiments/knapen_aot/videos/R_S_ILSVRC2015_train_00484001.mp4	0.0	359.17816495895386	
72	198.44134402275085	movie	1		301.0	70.0	2.5	/experiments/knapen_aot/videos/R_S_ILSVRC2015_train_00484001.mp4	0.0	359.18721294403076	2.5073649883270264
72	200.94870901107788	fix_post	2		12.0	70.0	2.5	/experiments/knapen_aot/videos/R_S_ILSVRC2015_train_00484001.mp4	0.0	361.6945779323578	0.10004401206970215
73	201.04875302314758	fix_pre	0		16.0	71.0	2.5	/experiments/knapen_aot/videos/S_yt-N7ztk2fa3Ls_137.mp4	0.0	361.7946219444275	0.13335204124450684
73	201.17396211624146	response	0	2		71.0	2.5	/experiments/knapen_aot/videos/S_yt-N7ztk2fa3Ls_137.mp4	0.0	361.91983103752136	
73	201.1821050643921	movie	1		301.0	71.0	2.5	/experiments/knapen_aot/videos/S_yt-N7ztk2fa3Ls_137.mp4	0.0	361.927973985672	2.508368968963623
73	203.6904740333557	fix_post	2		12.0	71.0	2.5	/experiments/knapen_aot/videos/S_yt-N7ztk2fa3Ls_137.mp4	0.0	364.4363429546356	0.09999704360961914
74	203.79047107696533	fix_pre	0		9.0	72.0	2.5	/experiments/knapen_aot/videos/S_yt-rY_ra5Tb9XU_51.mp4	0.0	364.53633999824524	0.07498598098754883
74	203.85726308822632	response	0	2		72.0	2.5	/experiments/knapen_aot/videos/S_yt-rY_ra5Tb9XU_51.mp4	0.0	364.6031320095062	
74	203.86545705795288	movie	1		301.0	72.0	2.5	/experiments/knapen_aot/videos/S_yt-rY_ra5Tb9XU_51.mp4	0.0	364.6113259792328	2.5083138942718506
74	206.37377095222473	fix_post	2		12.0	72.0	2.5	/experiments/knapen_aot/videos/S_yt-rY_ra5Tb9XU_51.mp4	0.0	367.11963987350464	0.0999760627746582
75	206.4737470149994	fix_pre	0		18.0	73.0	2.5	/experiments/knapen_aot/videos/R_S_ILSVRC2015_train_00165013.mp4	0.0	367.2196159362793	0.1499929428100586
75	206.61555004119873	response	0	2		73.0	2.5	/experiments/knapen_aot/videos/R_S_ILSVRC2015_train_00165013.mp4	0.0	367.36141896247864	
75	206.62373995780945	movie	1		301.0	73.0	2.5	/experiments/knapen_aot/videos/R_S_ILSVRC2015_train_00165013.mp4	0.0	367.36960887908936	2.508376121520996
75	209.13211607933044	fix_post	2		12.0	73.0	2.5	/experiments/knapen_aot/videos/R_S_ILSVRC2015_train_00165013.mp4	0.0	369.87798500061035	0.10081887245178223
76	209.23293495178223	fix_pre	0		17.0	74.0	2.5	/experiments/knapen_aot/videos/S_ILSVRC2015_train_00463000.mp4	0.0	369.97880387306213	0.1407930850982666
76	209.36553716659546	response	0	2		74.0	2.5	/experiments/knapen_aot/videos/S_ILSVRC2015_train_00463000.mp4	0.0	370.11140608787537	
76	209.3737280368805	movie	1		301.0	74.0	2.5	/experiments/knapen_aot/videos/S_ILSVRC2015_train_00463000.mp4	0.0	370.1195969581604	2.5083460807800293
76	211.88207411766052	fix_post	2		12.0	74.0	2.5	/experiments/knapen_aot/videos/S_ILSVRC2015_train_00463000.mp4	0.0	372.62794303894043	0.10090804100036621
77	211.9829821586609	fix_pre	0		30.0	75.0	2.5	/experiments/knapen_aot/videos/R_S_yt-qE70lj3-A78_228.mp4	0.0	372.7288510799408	0.24989891052246094
77	212.22384214401245	response	0	2		75.0	2.5	/experiments/knapen_aot/videos/R_S_yt-qE70lj3-A78_228.mp4	0.0	372.96971106529236	
77	212.23288106918335	movie	1		300.0	75.0	2.5	/experiments/knapen_aot/videos/R_S_yt-qE70lj3-A78_228.mp4	0.0	372.97874999046326	2.507436990737915
77	214.74031805992126	fix_post	2		12.0	75.0	2.5	/experiments/knapen_aot/videos/R_S_yt-qE70lj3-A78_228.mp4	0.0	375.4861869812012	0.10003900527954102
78	214.8403570652008	fix_pre	0		12.0	76.0	2.5	/experiments/knapen_aot/videos/S_yt-O4wUEZwHLyI_114.mp4	0.0	375.5862259864807	0.10081601142883301
78	214.9322121143341	response	0	2		76.0	2.5	/experiments/knapen_aot/videos/S_yt-O4wUEZwHLyI_114.mp4	0.0	375.678081035614	
78	214.94117307662964	movie	1		301.0	76.0	2.5	/experiments/knapen_aot/videos/S_yt-O4wUEZwHLyI_114.mp4	0.0	375.68704199790955	2.5074779987335205
78	217.44865107536316	fix_post	2		12.0	76.0	2.5	/experiments/knapen_aot/videos/S_yt-O4wUEZwHLyI_114.mp4	0.0	378.19451999664307	0.1000220775604248
79	217.54867315292358	fix_pre	0		42.0	77.0	2.5	blank	1.0	378.2945420742035	0.35078883171081543
79	217.89044713974	response	0	2		77.0	2.5	blank	1.0	378.6363160610199	
79	217.8994619846344	movie	1		301.0	77.0	2.5	blank	1.0	378.6453309059143	2.507533073425293
79	220.4069950580597	fix_post	2		12.0	77.0	2.5	blank	1.0	381.1528639793396	0.09995698928833008
80	220.50695204734802	fix_pre	0		24.0	78.0	2.5	/experiments/knapen_aot/videos/S_yt-bhiGMKSAz2g_370.mp4	0.0	381.25282096862793	0.19999194145202637
80	220.6987931728363	response	0	2		78.0	2.5	/experiments/knapen_aot/videos/S_yt-bhiGMKSAz2g_370.mp4	0.0	381.4446620941162	
80	220.70694398880005	movie	1		301.0	78.0	2.5	/experiments/knapen_aot/videos/S_yt-bhiGMKSAz2g_370.mp4	0.0	381.45281291007996	2.5083370208740234
80	223.21528100967407	fix_post	2		12.0	78.0	2.5	/experiments/knapen_aot/videos/S_yt-bhiGMKSAz2g_370.mp4	0.0	383.961149930954	0.09998703002929688
81	223.31526803970337	fix_pre	0		21.0	79.0	2.5	/experiments/knapen_aot/videos/R_S_yt-rB3YVZvA78w_20.mp4	0.0	384.0611369609833	0.17502498626708984
81	223.48209810256958	response	0	2		79.0	2.5	/experiments/knapen_aot/videos/R_S_yt-rB3YVZvA78w_20.mp4	0.0	384.2279670238495	
81	223.49029302597046	movie	1		301.0	79.0	2.5	/experiments/knapen_aot/videos/R_S_yt-rB3YVZvA78w_20.mp4	0.0	384.23616194725037	2.508316993713379
81	225.99861001968384	fix_post	2		12.0	79.0	2.5	/experiments/knapen_aot/videos/R_S_yt-rB3YVZvA78w_20.mp4	0.0	386.74447894096375	0.0999910831451416
82	226.09860110282898	fix_pre	0		27.0	80.0	2.5	/experiments/knapen_aot/videos/R_S_pexels-mikhail-nilov-8410088.mp4	0.0	386.8444700241089	0.22502684593200684
82	226.31545114517212	response	0	2		80.0	2.5	/experiments/knapen_aot/videos/R_S_pexels-mikhail-nilov-8410088.mp4	0.0	387.061320066452	
82	226.323627948761	movie	1		165.0	80.0	2.5	/experiments/knapen_aot/videos/R_S_pexels-mikhail-nilov-8410088.mp4	0.0	387.0694968700409	2.5083601474761963
82	228.83198809623718	fix_post	2		12.0	80.0	2.5	/experiments/knapen_aot/videos/R_S_pexels-mikhail-nilov-8410088.mp4	0.0	389.5778570175171	0.1000208854675293
83	228.9320089817047	fix_pre	0		19.0	81.0	2.5	/experiments/knapen_aot/videos/S_yt-SyePE8wOlxs_321.mp4	0.0	389.6778779029846	0.15833497047424316
83	229.08217597007751	response	0	2		81.0	2.5	/experiments/knapen_aot/videos/S_yt-SyePE8wOlxs_321.mp4	0.0	389.8280448913574	
83	229.09034395217896	movie	1		301.0	81.0	2.5	/experiments/knapen_aot/videos/S_yt-SyePE8wOlxs_321.mp4	0.0	389.83621287345886	2.5081732273101807
83	231.59851717948914	fix_post	2		12.0	81.0	2.5	/experiments/knapen_aot/videos/S_yt-SyePE8wOlxs_321.mp4	0.0	392.34438610076904	0.10006093978881836
84	231.69857811927795	fix_pre	0		23.0	82.0	2.5	/experiments/knapen_aot/videos/S_comp_DB_D011_D009_SIGNCMP_v15_6Mbps.mp4	0.0	392.44444704055786	0.1916499137878418
84	231.88204407691956	response	0	2		82.0	2.5	/experiments/knapen_aot/videos/S_comp_DB_D011_D009_SIGNCMP_v15_6Mbps.mp4	0.0	392.62791299819946	
84	231.8902280330658	movie	1		166.0	82.0	2.5	/experiments/knapen_aot/videos/S_comp_DB_D011_D009_SIGNCMP_v15_6Mbps.mp4	0.0	392.6360969543457	2.5083401203155518
84	234.39856815338135	fix_post	2		12.0	82.0	2.5	/experiments/knapen_aot/videos/S_comp_DB_D011_D009_SIGNCMP_v15_6Mbps.mp4	0.0	395.14443707466125	0.1000068187713623
85	234.4985749721527	fix_pre	0		23.0	83.0	2.5	blank	1.0	395.2444438934326	0.19245219230651855
85	234.68208599090576	response	0	2		83.0	2.5	blank	1.0	395.42795491218567	
85	234.69102716445923	movie	1		301.0	83.0	2.5	blank	1.0	395.43689608573914	2.507551908493042
85	237.19857907295227	fix_post	2		12.0	83.0	2.5	blank	1.0	397.9444479942322	0.10000896453857422
87	237.29858803749084	stim	0		127.0					398.04445695877075	1.0582330226898193
87	237.44867300987244	response	0	2						398.19454193115234	
87	238.3490080833435	response	0	space						399.0948770046234	
