trial_nr	onset	event_type	phase	response	nr_frames	movie_index	movie_duration	movie_file	blank	onset_abs	duration
0	0.12548589706420898	stim	0		38.0					63.11214780807495	0.3138551712036133
0	0.4312930107116699	response	0	space						63.41795492172241	
1	0.43934106826782227	stim	0		121.0					63.426002979278564	1.0083329677581787
1	0.8726840019226074	response	0	space						63.85934591293335	
1	1.1226909160614014	response	0	space						64.10935282707214	
1	1.289423942565918	response	0	space						64.27608585357666	
1	1.447674036026001	stim	1		120.0					64.43433594703674	0.9997339248657227
1	1.5643620491027832	response	1	space						64.55102396011353	
1	1.8056609630584717	response	1	space						64.79232287406921	
1	2.0390210151672363	response	1	space						65.02568292617798	
1	2.288968086242676	response	1	space						65.27562999725342	
2	2.4474079608917236	fix_pre	0		15.0	0.0	2.5	/experiments/knapen_aot/videos/S_yt-mWlx1SIXl5M_850.mp4	0.0	65.43406987190247	0.12489509582519531
2	2.5566089153289795	response	0	space		0.0	2.5	/experiments/knapen_aot/videos/S_yt-mWlx1SIXl5M_850.mp4	0.0	65.54327082633972	
2	2.572303056716919	movie	1		300.0	0.0	2.5	/experiments/knapen_aot/videos/S_yt-mWlx1SIXl5M_850.mp4	0.0	65.55896496772766	2.5083768367767334
2	4.5412609577178955	response	1	4		0.0	2.5	/experiments/knapen_aot/videos/S_yt-mWlx1SIXl5M_850.mp4	0.0	67.52792286872864	
2	5.080679893493652	fix_post	2		12.0	0.0	2.5	/experiments/knapen_aot/videos/S_yt-mWlx1SIXl5M_850.mp4	0.0	68.0673418045044	0.10018515586853027
3	5.180865049362183	fix_pre	0		371.0	1.0	2.5	/experiments/knapen_aot/videos/R_S_yt-EAMpitsjbbA_153.mp4	0.0	68.16752696037292	3.0913197994232178
3	8.263993978500366	response	0	4		1.0	2.5	/experiments/knapen_aot/videos/R_S_yt-EAMpitsjbbA_153.mp4	0.0	71.25065588951111	
3	8.2721848487854	movie	1		301.0	1.0	2.5	/experiments/knapen_aot/videos/R_S_yt-EAMpitsjbbA_153.mp4	0.0	71.25884675979614	2.5084190368652344
3	10.780603885650635	fix_post	2		12.0	1.0	2.5	/experiments/knapen_aot/videos/R_S_yt-EAMpitsjbbA_153.mp4	0.0	73.76726579666138	0.09998011589050293
4	10.880584001541138	fix_pre	0		82.0	2.0	2.5	/experiments/knapen_aot/videos/S_yt-bQRBtP9zkms_111.mp4	0.0	73.86724591255188	0.6833419799804688
4	11.548173904418945	response	0	4		2.0	2.5	/experiments/knapen_aot/videos/S_yt-bQRBtP9zkms_111.mp4	0.0	74.53483581542969	
4	11.563925981521606	movie	1		301.0	2.0	2.5	/experiments/knapen_aot/videos/S_yt-bQRBtP9zkms_111.mp4	0.0	74.55058789253235	2.5083179473876953
4	14.072243928909302	fix_post	2		12.0	2.0	2.5	/experiments/knapen_aot/videos/S_yt-bQRBtP9zkms_111.mp4	0.0	77.05890583992004	0.09998106956481934
5	14.172224998474121	fix_pre	0		36.0	3.0	2.5	/experiments/knapen_aot/videos/S_WCwb-DeQOSg_85.mp4	0.0	77.15888690948486	0.2999999523162842
5	14.464056015014648	response	0	4		3.0	2.5	/experiments/knapen_aot/videos/S_WCwb-DeQOSg_85.mp4	0.0	77.45071792602539	
5	14.472224950790405	movie	1		301.0	3.0	2.5	/experiments/knapen_aot/videos/S_WCwb-DeQOSg_85.mp4	0.0	77.45888686180115	2.5086240768432617
5	16.980849027633667	fix_post	2		12.0	3.0	2.5	/experiments/knapen_aot/videos/S_WCwb-DeQOSg_85.mp4	0.0	79.96751093864441	0.09973692893981934
6	17.080585956573486	fix_pre	0		32.0	4.0	2.5	/experiments/knapen_aot/videos/R_S_yt-waWM9vAfsIw_116.mp4	0.0	80.06724786758423	0.26660609245300293
6	17.339037895202637	response	0	4		4.0	2.5	/experiments/knapen_aot/videos/R_S_yt-waWM9vAfsIw_116.mp4	0.0	80.32569980621338	
6	17.34719204902649	movie	1		301.0	4.0	2.5	/experiments/knapen_aot/videos/R_S_yt-waWM9vAfsIw_116.mp4	0.0	80.33385396003723	2.5083978176116943
6	18.230618000030518	response	1	4		4.0	2.5	/experiments/knapen_aot/videos/R_S_yt-waWM9vAfsIw_116.mp4	0.0	81.21727991104126	
6	19.756577014923096	response	1	4		4.0	2.5	/experiments/knapen_aot/videos/R_S_yt-waWM9vAfsIw_116.mp4	0.0	82.74323892593384	
6	19.855589866638184	fix_post	2		12.0	4.0	2.5	/experiments/knapen_aot/videos/R_S_yt-waWM9vAfsIw_116.mp4	0.0	82.84225177764893	0.09996414184570312
7	19.955554008483887	fix_pre	0		41.0	5.0	2.5	/experiments/knapen_aot/videos/R_S_yt-mWlx1SIXl5M_850.mp4	0.0	82.94221591949463	0.34252190589904785
7	20.288958072662354	response	0	4		5.0	2.5	/experiments/knapen_aot/videos/R_S_yt-mWlx1SIXl5M_850.mp4	0.0	83.2756199836731	
7	20.298075914382935	movie	1		301.0	5.0	2.5	/experiments/knapen_aot/videos/R_S_yt-mWlx1SIXl5M_850.mp4	0.0	83.28473782539368	2.5075149536132812
7	22.805590867996216	fix_post	2		12.0	5.0	2.5	/experiments/knapen_aot/videos/R_S_yt-mWlx1SIXl5M_850.mp4	0.0	85.79225277900696	0.09996199607849121
8	22.905552864074707	fix_pre	0		41.0	6.0	2.5	/experiments/knapen_aot/videos/S_ahJft-G235A_122.mp4	0.0	85.89221477508545	0.341630220413208
8	23.23895502090454	response	0	4		6.0	2.5	/experiments/knapen_aot/videos/S_ahJft-G235A_122.mp4	0.0	86.22561693191528	
8	23.247183084487915	movie	1		301.0	6.0	2.5	/experiments/knapen_aot/videos/S_ahJft-G235A_122.mp4	0.0	86.23384499549866	2.5083518028259277
8	24.605697870254517	response	1	4		6.0	2.5	/experiments/knapen_aot/videos/S_ahJft-G235A_122.mp4	0.0	87.59235978126526	
8	25.755534887313843	fix_post	2		12.0	6.0	2.5	/experiments/knapen_aot/videos/S_ahJft-G235A_122.mp4	0.0	88.74219679832458	0.09995603561401367
9	25.855490922927856	fix_pre	0		49.0	7.0	2.5	blank	1.0	88.8421528339386	0.4083061218261719
9	26.255611896514893	response	0	4		7.0	2.5	blank	1.0	89.24227380752563	
9	26.26379704475403	movie	1		301.0	7.0	2.5	blank	1.0	89.25045895576477	2.5084128379821777
9	28.772209882736206	fix_post	2		12.0	7.0	2.5	blank	1.0	91.75887179374695	0.09998106956481934
10	28.872190952301025	fix_pre	0		51.0	8.0	2.5	/experiments/knapen_aot/videos/S_comp_LW_L001_C006_PSNK_DENOISE_v02_SDR_PS_FINAL_20180709_SDR_2K_AVC.mp4	0.0	91.85885286331177	0.42554402351379395
10	29.288965940475464	response	0	4		8.0	2.5	/experiments/knapen_aot/videos/S_comp_LW_L001_C006_PSNK_DENOISE_v02_SDR_PS_FINAL_20180709_SDR_2K_AVC.mp4	0.0	92.2756278514862	
10	29.29773497581482	movie	1		163.0	8.0	2.5	/experiments/knapen_aot/videos/S_comp_LW_L001_C006_PSNK_DENOISE_v02_SDR_PS_FINAL_20180709_SDR_2K_AVC.mp4	0.0	92.28439688682556	2.5077669620513916
10	31.41395592689514	response	1	4		8.0	2.5	/experiments/knapen_aot/videos/S_comp_LW_L001_C006_PSNK_DENOISE_v02_SDR_PS_FINAL_20180709_SDR_2K_AVC.mp4	0.0	94.40061783790588	
10	31.80550193786621	fix_post	2		12.0	8.0	2.5	/experiments/knapen_aot/videos/S_comp_LW_L001_C006_PSNK_DENOISE_v02_SDR_PS_FINAL_20180709_SDR_2K_AVC.mp4	0.0	94.79216384887695	0.09995794296264648
11	31.905459880828857	fix_pre	0		26.0	9.0	2.5	/experiments/knapen_aot/videos/S_ILSVRC2015_train_00165008.mp4	0.0	94.8921217918396	0.21663117408752441
11	32.10634708404541	response	0	4		9.0	2.5	/experiments/knapen_aot/videos/S_ILSVRC2015_train_00165008.mp4	0.0	95.09300899505615	
11	32.12209105491638	movie	1		301.0	9.0	2.5	/experiments/knapen_aot/videos/S_ILSVRC2015_train_00165008.mp4	0.0	95.10875296592712	2.508394956588745
11	34.63048601150513	fix_post	2		12.0	9.0	2.5	/experiments/knapen_aot/videos/S_ILSVRC2015_train_00165008.mp4	0.0	97.61714792251587	0.10009384155273438
12	34.73057985305786	fix_pre	0		145.0	10.0	2.5	/experiments/knapen_aot/videos/R_S_yt-7XDVHp75fu4_93.mp4	0.0	97.7172417640686	1.2082130908966064
12	35.930603981018066	response	0	4		10.0	2.5	/experiments/knapen_aot/videos/R_S_yt-7XDVHp75fu4_93.mp4	0.0	98.91726589202881	
12	35.93879294395447	movie	1		301.0	10.0	2.5	/experiments/knapen_aot/videos/R_S_yt-7XDVHp75fu4_93.mp4	0.0	98.92545485496521	2.5083000659942627
12	38.44709300994873	fix_post	2		12.0	10.0	2.5	/experiments/knapen_aot/videos/R_S_yt-7XDVHp75fu4_93.mp4	0.0	101.43375492095947	0.10013389587402344
13	38.547226905822754	fix_pre	0		22.0	11.0	2.5	/experiments/knapen_aot/videos/R_S_yt-7Ya-rGPO8cM_159.mp4	0.0	101.5338888168335	0.18323302268981934
13	38.714781045913696	response	0	4		11.0	2.5	/experiments/knapen_aot/videos/R_S_yt-7Ya-rGPO8cM_159.mp4	0.0	101.70144295692444	
13	38.73045992851257	movie	1		301.0	11.0	2.5	/experiments/knapen_aot/videos/R_S_yt-7Ya-rGPO8cM_159.mp4	0.0	101.71712183952332	2.5083250999450684
13	41.23878502845764	fix_post	2		12.0	11.0	2.5	/experiments/knapen_aot/videos/R_S_yt-7Ya-rGPO8cM_159.mp4	0.0	104.22544693946838	0.10000205039978027
14	41.33878707885742	fix_pre	0		20.0	12.0	2.5	blank	1.0	104.32544898986816	0.16725778579711914
14	41.49720001220703	response	0	4		12.0	2.5	blank	1.0	104.48386192321777	
14	41.50604486465454	movie	1		301.0	12.0	2.5	blank	1.0	104.49270677566528	2.5077321529388428
14	44.013777017593384	fix_post	2		12.0	12.0	2.5	blank	1.0	107.00043892860413	0.10001802444458008
15	44.113795042037964	fix_pre	0		28.0	13.0	2.5	/experiments/knapen_aot/videos/R_S_comp_HK_H004_C008_PSNK_v19_SDR_PS_20180914_SDR_2K_AVC.mp4	0.0	107.1004569530487	0.2333359718322754
15	44.338878870010376	response	0	4		13.0	2.5	/experiments/knapen_aot/videos/R_S_comp_HK_H004_C008_PSNK_v19_SDR_PS_20180914_SDR_2K_AVC.mp4	0.0	107.32554078102112	
15	44.34713101387024	movie	1		168.0	13.0	2.5	/experiments/knapen_aot/videos/R_S_comp_HK_H004_C008_PSNK_v19_SDR_PS_20180914_SDR_2K_AVC.mp4	0.0	107.33379292488098	2.508327007293701
15	45.14723205566406	response	1	4		13.0	2.5	/experiments/knapen_aot/videos/R_S_comp_HK_H004_C008_PSNK_v19_SDR_PS_20180914_SDR_2K_AVC.mp4	0.0	108.1338939666748	
15	46.49724888801575	response	1	4		13.0	2.5	/experiments/knapen_aot/videos/R_S_comp_HK_H004_C008_PSNK_v19_SDR_PS_20180914_SDR_2K_AVC.mp4	0.0	109.48391079902649	
15	46.85545802116394	fix_post	2		12.0	13.0	2.5	/experiments/knapen_aot/videos/R_S_comp_HK_H004_C008_PSNK_v19_SDR_PS_20180914_SDR_2K_AVC.mp4	0.0	109.84211993217468	0.09999895095825195
16	46.95545697212219	fix_pre	0		108.0	14.0	2.5	/experiments/knapen_aot/videos/R_S_yt-lazG9z4VQAw_99.mp4	0.0	109.94211888313293	0.8999679088592529
16	47.84715485572815	response	0	4		14.0	2.5	/experiments/knapen_aot/videos/R_S_yt-lazG9z4VQAw_99.mp4	0.0	110.83381676673889	
16	47.855424880981445	movie	1		301.0	14.0	2.5	/experiments/knapen_aot/videos/R_S_yt-lazG9z4VQAw_99.mp4	0.0	110.84208679199219	2.508357048034668
16	50.36378192901611	fix_post	2		12.0	14.0	2.5	/experiments/knapen_aot/videos/R_S_yt-lazG9z4VQAw_99.mp4	0.0	113.35044384002686	0.09995913505554199
17	50.463741064071655	fix_pre	0		14.0	15.0	2.5	/experiments/knapen_aot/videos/R_S_S006_C007_SDR_2K_AVC.mp4	0.0	113.4504029750824	0.1167459487915039
17	50.57215189933777	response	0	4		15.0	2.5	/experiments/knapen_aot/videos/R_S_S006_C007_SDR_2K_AVC.mp4	0.0	113.55881381034851	
17	50.58048701286316	movie	1		167.0	15.0	2.5	/experiments/knapen_aot/videos/R_S_S006_C007_SDR_2K_AVC.mp4	0.0	113.5671489238739	2.508404016494751
17	53.08889102935791	fix_post	2		12.0	15.0	2.5	/experiments/knapen_aot/videos/R_S_S006_C007_SDR_2K_AVC.mp4	0.0	116.07555294036865	0.09988784790039062
17	53.15545892715454	response	2	4		15.0	2.5	/experiments/knapen_aot/videos/R_S_S006_C007_SDR_2K_AVC.mp4	0.0	116.14212083816528	
18	53.1887788772583	fix_pre	0		50.0	16.0	2.5	/experiments/knapen_aot/videos/R_S_yt-eLQydFSMGCU_75.mp4	0.0	116.17544078826904	0.4165492057800293
18	53.59716606140137	response	0	4		16.0	2.5	/experiments/knapen_aot/videos/R_S_yt-eLQydFSMGCU_75.mp4	0.0	116.58382797241211	
18	53.60532808303833	movie	1		301.0	16.0	2.5	/experiments/knapen_aot/videos/R_S_yt-eLQydFSMGCU_75.mp4	0.0	116.59198999404907	2.5084218978881836
18	55.105496883392334	response	1	4		16.0	2.5	/experiments/knapen_aot/videos/R_S_yt-eLQydFSMGCU_75.mp4	0.0	118.09215879440308	
18	56.113749980926514	fix_post	2		12.0	16.0	2.5	/experiments/knapen_aot/videos/R_S_yt-eLQydFSMGCU_75.mp4	0.0	119.10041189193726	0.09995198249816895
19	56.21370196342468	fix_pre	0		11.0	17.0	2.5	/experiments/knapen_aot/videos/R_S_comp_HK_H004_C008_PSNK_v19_SDR_PS_20180914_SDR_2K_AVC.mp4	0.0	119.20036387443542	0.09165191650390625
19	56.29712200164795	response	0	4		17.0	2.5	/experiments/knapen_aot/videos/R_S_comp_HK_H004_C008_PSNK_v19_SDR_PS_20180914_SDR_2K_AVC.mp4	0.0	119.28378391265869	
19	56.30535387992859	movie	1		167.0	17.0	2.5	/experiments/knapen_aot/videos/R_S_comp_HK_H004_C008_PSNK_v19_SDR_PS_20180914_SDR_2K_AVC.mp4	0.0	119.29201579093933	2.5083210468292236
19	58.81367492675781	fix_post	2		12.0	17.0	2.5	/experiments/knapen_aot/videos/R_S_comp_HK_H004_C008_PSNK_v19_SDR_PS_20180914_SDR_2K_AVC.mp4	0.0	121.80033683776855	0.10003900527954102
20	58.91371393203735	fix_pre	0		24.0	18.0	2.5	/experiments/knapen_aot/videos/S_yt-2V2tq9-O_Nc_1669.mp4	0.0	121.9003758430481	0.19996404647827148
20	59.10547184944153	response	0	4		18.0	2.5	/experiments/knapen_aot/videos/S_yt-2V2tq9-O_Nc_1669.mp4	0.0	122.09213376045227	
20	59.113677978515625	movie	1		301.0	18.0	2.5	/experiments/knapen_aot/videos/S_yt-2V2tq9-O_Nc_1669.mp4	0.0	122.10033988952637	2.508389949798584
20	61.62206792831421	fix_post	2		12.0	18.0	2.5	/experiments/knapen_aot/videos/S_yt-2V2tq9-O_Nc_1669.mp4	0.0	124.60872983932495	0.09999513626098633
21	61.722063064575195	fix_pre	0		7.0	19.0	2.5	/experiments/knapen_aot/videos/S_yt-YFl_NAWBFAw_166.mp4	0.0	124.70872497558594	0.058267831802368164
21	61.77218794822693	response	0	4		19.0	2.5	/experiments/knapen_aot/videos/S_yt-YFl_NAWBFAw_166.mp4	0.0	124.75884985923767	
21	61.78033089637756	movie	1		301.0	19.0	2.5	/experiments/knapen_aot/videos/S_yt-YFl_NAWBFAw_166.mp4	0.0	124.7669928073883	2.5083789825439453
21	64.28870987892151	fix_post	2		12.0	19.0	2.5	/experiments/knapen_aot/videos/S_yt-YFl_NAWBFAw_166.mp4	0.0	127.27537178993225	0.09996509552001953
22	64.38867497444153	fix_pre	0		24.0	20.0	2.5	/experiments/knapen_aot/videos/R_S_yt-2ftSsLqRQnA_84.mp4	0.0	127.37533688545227	0.2003951072692871
22	64.58046889305115	response	0	4		20.0	2.5	/experiments/knapen_aot/videos/R_S_yt-2ftSsLqRQnA_84.mp4	0.0	127.56713080406189	
22	64.58907008171082	movie	1		301.0	20.0	2.5	/experiments/knapen_aot/videos/R_S_yt-2ftSsLqRQnA_84.mp4	0.0	127.57573199272156	2.5080177783966064
22	67.09708786010742	fix_post	2		12.0	20.0	2.5	/experiments/knapen_aot/videos/R_S_yt-2ftSsLqRQnA_84.mp4	0.0	130.08374977111816	0.09993410110473633
23	67.19702196121216	fix_pre	0		24.0	21.0	2.5	blank	1.0	130.1836838722229	0.19997096061706543
23	67.38883185386658	response	0	4		21.0	2.5	blank	1.0	130.37549376487732	
23	67.39699292182922	movie	1		301.0	21.0	2.5	blank	1.0	130.38365483283997	2.5083260536193848
23	69.08039498329163	response	1	4		21.0	2.5	blank	1.0	132.06705689430237	
23	69.90531897544861	fix_post	2		12.0	21.0	2.5	blank	1.0	132.89198088645935	0.1002190113067627
24	70.00553798675537	fix_pre	0		37.0	22.0	2.5	/experiments/knapen_aot/videos/R_S_yt-aiDGx4AN8J0_9.mp4	0.0	132.9921998977661	0.3081350326538086
24	70.30539107322693	response	0	4		22.0	2.5	/experiments/knapen_aot/videos/R_S_yt-aiDGx4AN8J0_9.mp4	0.0	133.29205298423767	
24	70.31367301940918	movie	1		300.0	22.0	2.5	/experiments/knapen_aot/videos/R_S_yt-aiDGx4AN8J0_9.mp4	0.0	133.30033493041992	2.5085220336914062
24	71.21765089035034	response	1	4		22.0	2.5	/experiments/knapen_aot/videos/R_S_yt-aiDGx4AN8J0_9.mp4	0.0	134.20431280136108	
24	72.71372985839844	response	1	4		22.0	2.5	/experiments/knapen_aot/videos/R_S_yt-aiDGx4AN8J0_9.mp4	0.0	135.70039176940918	
24	72.82219505310059	fix_post	2		12.0	22.0	2.5	/experiments/knapen_aot/videos/R_S_yt-aiDGx4AN8J0_9.mp4	0.0	135.80885696411133	0.09979391098022461
25	72.92198896408081	fix_pre	0		40.0	23.0	2.5	/experiments/knapen_aot/videos/R_S_yt-PRqnM7xDsus_24.mp4	0.0	135.90865087509155	0.3336150646209717
25	73.2470600605011	response	0	4		23.0	2.5	/experiments/knapen_aot/videos/R_S_yt-PRqnM7xDsus_24.mp4	0.0	136.23372197151184	
25	73.25560402870178	movie	1		301.0	23.0	2.5	/experiments/knapen_aot/videos/R_S_yt-PRqnM7xDsus_24.mp4	0.0	136.24226593971252	2.507964849472046
25	75.09714889526367	response	1	4		23.0	2.5	/experiments/knapen_aot/videos/R_S_yt-PRqnM7xDsus_24.mp4	0.0	138.0838108062744	
25	75.76356887817383	fix_post	2		12.0	23.0	2.5	/experiments/knapen_aot/videos/R_S_yt-PRqnM7xDsus_24.mp4	0.0	138.75023078918457	0.10007810592651367
26	75.86364698410034	fix_pre	0		6.0	24.0	2.5	/experiments/knapen_aot/videos/S_yt-Tt_LkR4iAt4_11.mp4	0.0	138.85030889511108	0.049941062927246094
26	75.90534090995789	response	0	4		24.0	2.5	/experiments/knapen_aot/videos/S_yt-Tt_LkR4iAt4_11.mp4	0.0	138.89200282096863	
26	75.91358804702759	movie	1		301.0	24.0	2.5	/experiments/knapen_aot/videos/S_yt-Tt_LkR4iAt4_11.mp4	0.0	138.90024995803833	2.5083398818969727
26	78.42192792892456	fix_post	2		12.0	24.0	2.5	/experiments/knapen_aot/videos/S_yt-Tt_LkR4iAt4_11.mp4	0.0	141.4085898399353	0.10003304481506348
26	78.47207593917847	response	2	4		24.0	2.5	/experiments/knapen_aot/videos/S_yt-Tt_LkR4iAt4_11.mp4	0.0	141.4587378501892	
27	78.52196097373962	fix_pre	0		56.0	25.0	2.5	/experiments/knapen_aot/videos/S_ILSVRC2015_train_00715000.mp4	0.0	141.50862288475037	0.46655893325805664
27	78.98040986061096	response	0	4		25.0	2.5	/experiments/knapen_aot/videos/S_ILSVRC2015_train_00715000.mp4	0.0	141.9670717716217	
27	78.98851990699768	movie	1		301.0	25.0	2.5	/experiments/knapen_aot/videos/S_ILSVRC2015_train_00715000.mp4	0.0	141.97518181800842	2.5085179805755615
27	81.49703788757324	fix_post	2		12.0	25.0	2.5	/experiments/knapen_aot/videos/S_ILSVRC2015_train_00715000.mp4	0.0	144.48369979858398	0.09990715980529785
28	81.59694504737854	fix_pre	0		33.0	26.0	2.5	blank	1.0	144.58360695838928	0.27495694160461426
28	81.86375188827515	response	0	4		26.0	2.5	blank	1.0	144.8504137992859	
28	81.87190198898315	movie	1		301.0	26.0	2.5	blank	1.0	144.8585638999939	2.5083580017089844
28	83.22196388244629	response	1	4		26.0	2.5	blank	1.0	146.20862579345703	
28	84.38025999069214	fix_post	2		12.0	26.0	2.5	blank	1.0	147.36692190170288	0.1000208854675293
29	84.48028087615967	fix_pre	0		5.0	27.0	2.5	/experiments/knapen_aot/videos/R_S_FZ0hLmjCR0s_26.mp4	0.0	147.4669427871704	0.041680097579956055
29	84.51376104354858	response	0	4		27.0	2.5	/experiments/knapen_aot/videos/R_S_FZ0hLmjCR0s_26.mp4	0.0	147.50042295455933	
29	84.52196097373962	movie	1		301.0	27.0	2.5	/experiments/knapen_aot/videos/R_S_FZ0hLmjCR0s_26.mp4	0.0	147.50862288475037	2.5082969665527344
29	87.03025794029236	fix_post	2		12.0	27.0	2.5	/experiments/knapen_aot/videos/R_S_FZ0hLmjCR0s_26.mp4	0.0	150.0169198513031	0.10036611557006836
30	87.13062405586243	fix_pre	0		22.0	28.0	2.5	/experiments/knapen_aot/videos/S_Pz_NXxhQCJc_70.mp4	0.0	150.11728596687317	0.18294787406921387
30	87.30532097816467	response	0	4		28.0	2.5	/experiments/knapen_aot/videos/S_Pz_NXxhQCJc_70.mp4	0.0	150.29198288917542	
30	87.31357192993164	movie	1		301.0	28.0	2.5	/experiments/knapen_aot/videos/S_Pz_NXxhQCJc_70.mp4	0.0	150.30023384094238	2.5084280967712402
30	88.88066792488098	response	1	4		28.0	2.5	/experiments/knapen_aot/videos/S_Pz_NXxhQCJc_70.mp4	0.0	151.86732983589172	
30	89.69702887535095	response	1	4		28.0	2.5	/experiments/knapen_aot/videos/S_Pz_NXxhQCJc_70.mp4	0.0	152.6836907863617	
30	89.82200002670288	fix_post	2		12.0	28.0	2.5	/experiments/knapen_aot/videos/S_Pz_NXxhQCJc_70.mp4	0.0	152.80866193771362	0.10026693344116211
31	89.92226696014404	fix_pre	0		31.0	29.0	2.5	/experiments/knapen_aot/videos/R_S_yt-o_Hakzj8PRg_2864.mp4	0.0	152.90892887115479	0.25792789459228516
31	90.17201685905457	response	0	4		29.0	2.5	/experiments/knapen_aot/videos/R_S_yt-o_Hakzj8PRg_2864.mp4	0.0	153.1586787700653	
31	90.18019485473633	movie	1		300.0	29.0	2.5	/experiments/knapen_aot/videos/R_S_yt-o_Hakzj8PRg_2864.mp4	0.0	153.16685676574707	2.5083980560302734
31	91.34698700904846	response	1	4		29.0	2.5	/experiments/knapen_aot/videos/R_S_yt-o_Hakzj8PRg_2864.mp4	0.0	154.3336489200592	
31	92.43370985984802	response	1	4		29.0	2.5	/experiments/knapen_aot/videos/R_S_yt-o_Hakzj8PRg_2864.mp4	0.0	155.42037177085876	
31	92.6885929107666	fix_post	2		12.0	29.0	2.5	/experiments/knapen_aot/videos/R_S_yt-o_Hakzj8PRg_2864.mp4	0.0	155.67525482177734	0.09994912147521973
32	92.78854203224182	fix_pre	0		34.0	30.0	2.5	/experiments/knapen_aot/videos/R_S_ILSVRC2015_train_00404003.mp4	0.0	155.77520394325256	0.28332996368408203
32	93.06371307373047	response	0	4		30.0	2.5	/experiments/knapen_aot/videos/R_S_ILSVRC2015_train_00404003.mp4	0.0	156.0503749847412	
32	93.0718719959259	movie	1		301.0	30.0	2.5	/experiments/knapen_aot/videos/R_S_ILSVRC2015_train_00404003.mp4	0.0	156.05853390693665	2.5083260536193848
32	93.54361605644226	response	1	4		30.0	2.5	/experiments/knapen_aot/videos/R_S_ILSVRC2015_train_00404003.mp4	0.0	156.530277967453	
32	94.24874186515808	response	1	4		30.0	2.5	/experiments/knapen_aot/videos/R_S_ILSVRC2015_train_00404003.mp4	0.0	157.23540377616882	
32	95.58019804954529	fix_post	2		12.0	30.0	2.5	/experiments/knapen_aot/videos/R_S_ILSVRC2015_train_00404003.mp4	0.0	158.56685996055603	0.10007381439208984
33	95.68027186393738	fix_pre	0		13.0	31.0	2.5	/experiments/knapen_aot/videos/R_S_g201_CA_A016_C002_SDR_20191114_SDR_2K_AVC.mp4	0.0	158.66693377494812	0.10823607444763184
33	95.78034591674805	response	0	4		31.0	2.5	/experiments/knapen_aot/videos/R_S_g201_CA_A016_C002_SDR_20191114_SDR_2K_AVC.mp4	0.0	158.7670078277588	
33	95.78850793838501	movie	1		200.0	31.0	2.5	/experiments/knapen_aot/videos/R_S_g201_CA_A016_C002_SDR_20191114_SDR_2K_AVC.mp4	0.0	158.77516984939575	2.5084280967712402
33	96.46211099624634	response	1	4		31.0	2.5	/experiments/knapen_aot/videos/R_S_g201_CA_A016_C002_SDR_20191114_SDR_2K_AVC.mp4	0.0	159.44877290725708	
33	97.15143489837646	response	1	4		31.0	2.5	/experiments/knapen_aot/videos/R_S_g201_CA_A016_C002_SDR_20191114_SDR_2K_AVC.mp4	0.0	160.1380968093872	
33	97.97200107574463	response	1	4		31.0	2.5	/experiments/knapen_aot/videos/R_S_g201_CA_A016_C002_SDR_20191114_SDR_2K_AVC.mp4	0.0	160.95866298675537	
33	98.29693603515625	fix_post	2		12.0	31.0	2.5	/experiments/knapen_aot/videos/R_S_g201_CA_A016_C002_SDR_20191114_SDR_2K_AVC.mp4	0.0	161.283597946167	0.09995102882385254
34	98.3968870639801	fix_pre	0		31.0	32.0	2.5	/experiments/knapen_aot/videos/S_comp_GL_G002_C002_PSNK_v03_SDR_PS_20180925_SDR_2K_AVC.mp4	0.0	161.38354897499084	0.25829601287841797
34	98.64694094657898	response	0	4		32.0	2.5	/experiments/knapen_aot/videos/S_comp_GL_G002_C002_PSNK_v03_SDR_PS_20180925_SDR_2K_AVC.mp4	0.0	161.63360285758972	
34	98.65518307685852	movie	1		170.0	32.0	2.5	/experiments/knapen_aot/videos/S_comp_GL_G002_C002_PSNK_v03_SDR_PS_20180925_SDR_2K_AVC.mp4	0.0	161.64184498786926	2.508327007293701
34	100.00534296035767	response	1	4		32.0	2.5	/experiments/knapen_aot/videos/S_comp_GL_G002_C002_PSNK_v03_SDR_PS_20180925_SDR_2K_AVC.mp4	0.0	162.9920048713684	
34	101.0219738483429	response	1	4		32.0	2.5	/experiments/knapen_aot/videos/S_comp_GL_G002_C002_PSNK_v03_SDR_PS_20180925_SDR_2K_AVC.mp4	0.0	164.00863575935364	
34	101.16351008415222	fix_post	2		12.0	32.0	2.5	/experiments/knapen_aot/videos/S_comp_GL_G002_C002_PSNK_v03_SDR_PS_20180925_SDR_2K_AVC.mp4	0.0	164.15017199516296	0.10001778602600098
35	101.26352787017822	fix_pre	0		53.0	33.0	2.5	/experiments/knapen_aot/videos/R_S_yt-bH4nJibL4Jo_164.mp4	0.0	164.25018978118896	0.44160008430480957
35	101.69703507423401	response	0	4		33.0	2.5	/experiments/knapen_aot/videos/R_S_yt-bH4nJibL4Jo_164.mp4	0.0	164.68369698524475	
35	101.70512795448303	movie	1		301.0	33.0	2.5	/experiments/knapen_aot/videos/R_S_yt-bH4nJibL4Jo_164.mp4	0.0	164.69178986549377	2.5084409713745117
35	103.46012496948242	response	1	4		33.0	2.5	/experiments/knapen_aot/videos/R_S_yt-bH4nJibL4Jo_164.mp4	0.0	166.44678688049316	
35	104.21356892585754	fix_post	2		12.0	33.0	2.5	/experiments/knapen_aot/videos/R_S_yt-bH4nJibL4Jo_164.mp4	0.0	167.2002308368683	0.09991598129272461
36	104.31348490715027	fix_pre	0		29.0	34.0	2.5	blank	1.0	167.300146818161	0.24164509773254395
36	104.54691100120544	response	0	4		34.0	2.5	blank	1.0	167.5335729122162	
36	104.55513000488281	movie	1		301.0	34.0	2.5	blank	1.0	167.54179191589355	2.5083210468292236
36	107.06345105171204	fix_post	2		12.0	34.0	2.5	blank	1.0	170.05011296272278	0.10006380081176758
37	107.1635148525238	fix_pre	0		41.0	35.0	2.5	/experiments/knapen_aot/videos/S_ILSVRC2015_train_00441000.mp4	0.0	170.15017676353455	0.34177708625793457
37	107.49693894386292	response	0	4		35.0	2.5	/experiments/knapen_aot/videos/S_ILSVRC2015_train_00441000.mp4	0.0	170.48360085487366	
37	107.50529193878174	movie	1		301.0	35.0	2.5	/experiments/knapen_aot/videos/S_ILSVRC2015_train_00441000.mp4	0.0	170.49195384979248	2.5082709789276123
37	108.2720410823822	response	1	4		35.0	2.5	/experiments/knapen_aot/videos/S_ILSVRC2015_train_00441000.mp4	0.0	171.25870299339294	
37	108.99255204200745	response	1	4		35.0	2.5	/experiments/knapen_aot/videos/S_ILSVRC2015_train_00441000.mp4	0.0	171.9792139530182	
37	109.75540590286255	response	1	4		35.0	2.5	/experiments/knapen_aot/videos/S_ILSVRC2015_train_00441000.mp4	0.0	172.7420678138733	
37	110.01356291770935	fix_post	2		12.0	35.0	2.5	/experiments/knapen_aot/videos/S_ILSVRC2015_train_00441000.mp4	0.0	173.0002248287201	0.09990406036376953
38	110.11346697807312	fix_pre	0		36.0	36.0	2.5	/experiments/knapen_aot/videos/R_S_yt-zlbtESb7Fcw_28.mp4	0.0	173.10012888908386	0.2999999523162842
38	110.405277967453	response	0	4		36.0	2.5	/experiments/knapen_aot/videos/R_S_yt-zlbtESb7Fcw_28.mp4	0.0	173.39193987846375	
38	110.4134669303894	movie	1		301.0	36.0	2.5	/experiments/knapen_aot/videos/R_S_yt-zlbtESb7Fcw_28.mp4	0.0	173.40012884140015	2.5085809230804443
38	110.83180904388428	response	1	4		36.0	2.5	/experiments/knapen_aot/videos/R_S_yt-zlbtESb7Fcw_28.mp4	0.0	173.81847095489502	
38	112.92204785346985	fix_post	2		12.0	36.0	2.5	/experiments/knapen_aot/videos/R_S_yt-zlbtESb7Fcw_28.mp4	0.0	175.9087097644806	0.09976911544799805
39	113.02181696891785	fix_pre	0		35.0	37.0	2.5	/experiments/knapen_aot/videos/S_yt-roThCERxVCs_133.mp4	0.0	176.0084788799286	0.2915370464324951
39	113.30523896217346	response	0	4		37.0	2.5	/experiments/knapen_aot/videos/S_yt-roThCERxVCs_133.mp4	0.0	176.2919008731842	
39	113.31335401535034	movie	1		301.0	37.0	2.5	/experiments/knapen_aot/videos/S_yt-roThCERxVCs_133.mp4	0.0	176.30001592636108	2.508457899093628
39	115.82181191444397	fix_post	2		12.0	37.0	2.5	/experiments/knapen_aot/videos/S_yt-roThCERxVCs_133.mp4	0.0	178.8084738254547	0.10014200210571289
40	115.92195391654968	fix_pre	0		35.0	38.0	2.5	/experiments/knapen_aot/videos/R_S_yt-s-J3C6e5A3Q_18.mp4	0.0	178.90861582756042	0.29163408279418945
40	116.20520186424255	response	0	4		38.0	2.5	/experiments/knapen_aot/videos/R_S_yt-s-J3C6e5A3Q_18.mp4	0.0	179.1918637752533	
40	116.21358799934387	movie	1		301.0	38.0	2.5	/experiments/knapen_aot/videos/R_S_yt-s-J3C6e5A3Q_18.mp4	0.0	179.20024991035461	2.508178949356079
40	116.96722793579102	response	1	4		38.0	2.5	/experiments/knapen_aot/videos/R_S_yt-s-J3C6e5A3Q_18.mp4	0.0	179.95388984680176	
40	118.72176694869995	fix_post	2		12.0	38.0	2.5	/experiments/knapen_aot/videos/R_S_yt-s-J3C6e5A3Q_18.mp4	0.0	181.7084288597107	0.10000896453857422
41	118.82177591323853	fix_pre	0		19.0	39.0	2.5	/experiments/knapen_aot/videos/S_yt-EKPrSw5xF7k_112.mp4	0.0	181.80843782424927	0.15832209587097168
41	118.96436405181885	response	0	4		39.0	2.5	/experiments/knapen_aot/videos/S_yt-EKPrSw5xF7k_112.mp4	0.0	181.9510259628296	
41	118.9800980091095	movie	1		301.0	39.0	2.5	/experiments/knapen_aot/videos/S_yt-EKPrSw5xF7k_112.mp4	0.0	181.96675992012024	2.5083940029144287
41	120.83887004852295	response	1	4		39.0	2.5	/experiments/knapen_aot/videos/S_yt-EKPrSw5xF7k_112.mp4	0.0	183.8255319595337	
41	121.48849201202393	fix_post	2		12.0	39.0	2.5	/experiments/knapen_aot/videos/S_yt-EKPrSw5xF7k_112.mp4	0.0	184.47515392303467	0.10032796859741211
42	121.58881998062134	fix_pre	0		131.0	40.0	2.5	/experiments/knapen_aot/videos/R_S_yt-TbdZrcl_Jso_5.mp4	0.0	184.57548189163208	1.0912489891052246
42	122.67213988304138	response	0	4		40.0	2.5	/experiments/knapen_aot/videos/R_S_yt-TbdZrcl_Jso_5.mp4	0.0	185.65880179405212	
42	122.68006896972656	movie	1		301.0	40.0	2.5	/experiments/knapen_aot/videos/R_S_yt-TbdZrcl_Jso_5.mp4	0.0	185.6667308807373	2.5083460807800293
42	125.18841505050659	fix_post	2		12.0	40.0	2.5	/experiments/knapen_aot/videos/R_S_yt-TbdZrcl_Jso_5.mp4	0.0	188.17507696151733	0.10019588470458984
43	125.28861093521118	fix_pre	0		9.0	41.0	2.5	blank	1.0	188.27527284622192	0.07477903366088867
43	125.35515308380127	response	0	4		41.0	2.5	blank	1.0	188.341814994812	
43	125.36338996887207	movie	1		301.0	41.0	2.5	blank	1.0	188.3500518798828	2.5083630084991455
43	127.87175297737122	fix_post	2		12.0	41.0	2.5	blank	1.0	190.85841488838196	0.10002493858337402
44	127.97177791595459	fix_pre	0		26.0	42.0	2.5	/experiments/knapen_aot/videos/S_comp_GL_G010_C006_PSNK_NOSUN_v12_SDR_PS_FINAL_20180709_SDR_2K_AVC.mp4	0.0	190.95843982696533	0.21656298637390137
44	128.18018293380737	response	0	4		42.0	2.5	/experiments/knapen_aot/videos/S_comp_GL_G010_C006_PSNK_NOSUN_v12_SDR_PS_FINAL_20180709_SDR_2K_AVC.mp4	0.0	191.16684484481812	
44	128.1883409023285	movie	1		168.0	42.0	2.5	/experiments/knapen_aot/videos/S_comp_GL_G010_C006_PSNK_NOSUN_v12_SDR_PS_FINAL_20180709_SDR_2K_AVC.mp4	0.0	191.17500281333923	2.5084500312805176
44	130.19568490982056	response	1	4		42.0	2.5	/experiments/knapen_aot/videos/S_comp_GL_G010_C006_PSNK_NOSUN_v12_SDR_PS_FINAL_20180709_SDR_2K_AVC.mp4	0.0	193.1823468208313	
44	130.696790933609	fix_post	2		12.0	42.0	2.5	/experiments/knapen_aot/videos/S_comp_GL_G010_C006_PSNK_NOSUN_v12_SDR_PS_FINAL_20180709_SDR_2K_AVC.mp4	0.0	193.68345284461975	0.10027599334716797
45	130.79706692695618	fix_pre	0		54.0	43.0	2.5	/experiments/knapen_aot/videos/R_S_ILSVRC2015_train_00165008.mp4	0.0	193.78372883796692	0.44960904121398926
45	131.23844695091248	response	0	4		43.0	2.5	/experiments/knapen_aot/videos/R_S_ILSVRC2015_train_00165008.mp4	0.0	194.22510886192322	
45	131.24667596817017	movie	1		301.0	43.0	2.5	/experiments/knapen_aot/videos/R_S_ILSVRC2015_train_00165008.mp4	0.0	194.2333378791809	2.508713960647583
45	133.08164501190186	response	1	4		43.0	2.5	/experiments/knapen_aot/videos/R_S_ILSVRC2015_train_00165008.mp4	0.0	196.0683069229126	
45	133.75538992881775	fix_post	2		12.0	43.0	2.5	/experiments/knapen_aot/videos/R_S_ILSVRC2015_train_00165008.mp4	0.0	196.7420518398285	0.09965205192565918
46	133.8550419807434	fix_pre	0		54.0	44.0	2.5	/experiments/knapen_aot/videos/R_S_yt-OLDm2slgfA4_3.mp4	0.0	196.84170389175415	0.4500129222869873
46	134.29676699638367	response	0	4		44.0	2.5	/experiments/knapen_aot/videos/R_S_yt-OLDm2slgfA4_3.mp4	0.0	197.2834289073944	
46	134.3050549030304	movie	1		301.0	44.0	2.5	/experiments/knapen_aot/videos/R_S_yt-OLDm2slgfA4_3.mp4	0.0	197.29171681404114	2.5083420276641846
46	136.81339693069458	fix_post	2		12.0	44.0	2.5	/experiments/knapen_aot/videos/R_S_yt-OLDm2slgfA4_3.mp4	0.0	199.80005884170532	0.10000205039978027
47	136.91339898109436	fix_pre	0		634.0	45.0	2.5	/experiments/knapen_aot/videos/S_yt-RlHmMGUjT9E_130.mp4	0.0	199.9000608921051	5.283153057098389
47	142.18839693069458	response	0	4		45.0	2.5	/experiments/knapen_aot/videos/S_yt-RlHmMGUjT9E_130.mp4	0.0	205.17505884170532	
47	142.19655203819275	movie	1		301.0	45.0	2.5	/experiments/knapen_aot/videos/S_yt-RlHmMGUjT9E_130.mp4	0.0	205.1832139492035	2.508404016494751
47	144.7049560546875	fix_post	2		12.0	45.0	2.5	/experiments/knapen_aot/videos/S_yt-RlHmMGUjT9E_130.mp4	0.0	207.69161796569824	0.10003781318664551
48	144.80499386787415	fix_pre	0		51.0	46.0	2.5	/experiments/knapen_aot/videos/R_S_Pexels_Videos_278654_1.mp4	0.0	207.7916557788849	0.42495012283325195
48	145.22177004814148	response	0	4		46.0	2.5	/experiments/knapen_aot/videos/R_S_Pexels_Videos_278654_1.mp4	0.0	208.20843195915222	
48	145.2299439907074	movie	1		164.0	46.0	2.5	/experiments/knapen_aot/videos/R_S_Pexels_Videos_278654_1.mp4	0.0	208.21660590171814	2.5083658695220947
48	147.7383098602295	fix_post	2		12.0	46.0	2.5	/experiments/knapen_aot/videos/R_S_Pexels_Videos_278654_1.mp4	0.0	210.72497177124023	0.10007500648498535
49	147.83838486671448	fix_pre	0		21.0	47.0	2.5	/experiments/knapen_aot/videos/S_comp_A012_C014_1223PT_v53_SDR_PS_FINAL_20180709_F0F8700_SDR_2K_AVC.mp4	0.0	210.82504677772522	0.17486310005187988
49	147.99766898155212	response	0	4		47.0	2.5	/experiments/knapen_aot/videos/S_comp_A012_C014_1223PT_v53_SDR_PS_FINAL_20180709_F0F8700_SDR_2K_AVC.mp4	0.0	210.98433089256287	
49	148.01324796676636	movie	1		164.0	47.0	2.5	/experiments/knapen_aot/videos/S_comp_A012_C014_1223PT_v53_SDR_PS_FINAL_20180709_F0F8700_SDR_2K_AVC.mp4	0.0	210.9999098777771	2.508359909057617
49	149.654443025589	response	1	4		47.0	2.5	/experiments/knapen_aot/videos/S_comp_A012_C014_1223PT_v53_SDR_PS_FINAL_20180709_F0F8700_SDR_2K_AVC.mp4	0.0	212.64110493659973	
49	150.52160787582397	fix_post	2		12.0	47.0	2.5	/experiments/knapen_aot/videos/S_comp_A012_C014_1223PT_v53_SDR_PS_FINAL_20180709_F0F8700_SDR_2K_AVC.mp4	0.0	213.50826978683472	0.10005497932434082
50	150.62166285514832	fix_pre	0		61.0	48.0	2.5	blank	1.0	213.60832476615906	0.5083072185516357
50	151.12172508239746	response	0	4		48.0	2.5	blank	1.0	214.1083869934082	
50	151.12997007369995	movie	1		301.0	48.0	2.5	blank	1.0	214.1166319847107	2.508349895477295
50	152.84665298461914	response	1	4		48.0	2.5	blank	1.0	215.83331489562988	
50	153.63831996917725	fix_post	2		12.0	48.0	2.5	blank	1.0	216.624981880188	0.10000300407409668
51	153.73832297325134	fix_pre	0		46.0	49.0	2.5	/experiments/knapen_aot/videos/R_S_yt-KLInd-KrK_w_19.mp4	0.0	216.72498488426208	0.3832969665527344
51	154.11342191696167	response	0	4		49.0	2.5	/experiments/knapen_aot/videos/R_S_yt-KLInd-KrK_w_19.mp4	0.0	217.1000838279724	
51	154.12161993980408	movie	1		301.0	49.0	2.5	/experiments/knapen_aot/videos/R_S_yt-KLInd-KrK_w_19.mp4	0.0	217.10828185081482	2.5083229541778564
51	155.29709696769714	response	1	4		49.0	2.5	/experiments/knapen_aot/videos/R_S_yt-KLInd-KrK_w_19.mp4	0.0	218.28375887870789	
51	156.43836307525635	response	1	4		49.0	2.5	/experiments/knapen_aot/videos/R_S_yt-KLInd-KrK_w_19.mp4	0.0	219.4250249862671	
51	156.62994289398193	fix_post	2		12.0	49.0	2.5	/experiments/knapen_aot/videos/R_S_yt-KLInd-KrK_w_19.mp4	0.0	219.61660480499268	0.10003519058227539
52	156.7299780845642	fix_pre	0		45.0	50.0	2.5	/experiments/knapen_aot/videos/R_S_yt-GO26QIueqRw_385.mp4	0.0	219.71663999557495	0.3749229907989502
52	157.0967559814453	response	0	4		50.0	2.5	/experiments/knapen_aot/videos/R_S_yt-GO26QIueqRw_385.mp4	0.0	220.08341789245605	
52	157.10490107536316	movie	1		301.0	50.0	2.5	/experiments/knapen_aot/videos/R_S_yt-GO26QIueqRw_385.mp4	0.0	220.0915629863739	2.508596897125244
52	159.6134979724884	fix_post	2		12.0	50.0	2.5	/experiments/knapen_aot/videos/R_S_yt-GO26QIueqRw_385.mp4	0.0	222.60015988349915	0.09981393814086914
53	159.71331191062927	fix_pre	0		174.0	51.0	2.5	/experiments/knapen_aot/videos/R_S_pexels-mart-production-7277934.mp4	0.0	222.69997382164001	1.449887990951538
53	161.14754605293274	response	0	4		51.0	2.5	/experiments/knapen_aot/videos/R_S_pexels-mart-production-7277934.mp4	0.0	224.13420796394348	
53	161.1631999015808	movie	1		165.0	51.0	2.5	/experiments/knapen_aot/videos/R_S_pexels-mart-production-7277934.mp4	0.0	224.14986181259155	2.508465051651001
53	163.03014087677002	response	1	4		51.0	2.5	/experiments/knapen_aot/videos/R_S_pexels-mart-production-7277934.mp4	0.0	226.01680278778076	
53	163.6716649532318	fix_post	2		12.0	51.0	2.5	/experiments/knapen_aot/videos/R_S_pexels-mart-production-7277934.mp4	0.0	226.65832686424255	0.09992289543151855
54	163.77158784866333	fix_pre	0		161.0	52.0	2.5	/experiments/knapen_aot/videos/S_ILSVRC2015_train_00441000.mp4	0.0	226.75824975967407	1.3416111469268799
54	165.10496497154236	response	0	4		52.0	2.5	/experiments/knapen_aot/videos/S_ILSVRC2015_train_00441000.mp4	0.0	228.0916268825531	
54	165.1131989955902	movie	1		301.0	52.0	2.5	/experiments/knapen_aot/videos/S_ILSVRC2015_train_00441000.mp4	0.0	228.09986090660095	2.5084540843963623
54	167.62165307998657	fix_post	2		12.0	52.0	2.5	/experiments/knapen_aot/videos/S_ILSVRC2015_train_00441000.mp4	0.0	230.60831499099731	0.09995198249816895
55	167.72160506248474	fix_pre	0		412.0	53.0	2.5	/experiments/knapen_aot/videos/R_S_yt-nqRBIR8dFYc_328.mp4	0.0	230.70826697349548	3.433264970779419
55	171.1390779018402	response	0	4		53.0	2.5	/experiments/knapen_aot/videos/R_S_yt-nqRBIR8dFYc_328.mp4	0.0	234.12573981285095	
55	171.15487003326416	movie	1		301.0	53.0	2.5	/experiments/knapen_aot/videos/R_S_yt-nqRBIR8dFYc_328.mp4	0.0	234.1415319442749	2.508359909057617
55	172.77163887023926	response	1	4		53.0	2.5	/experiments/knapen_aot/videos/R_S_yt-nqRBIR8dFYc_328.mp4	0.0	235.75830078125	
55	173.66322994232178	fix_post	2		12.0	53.0	2.5	/experiments/knapen_aot/videos/R_S_yt-nqRBIR8dFYc_328.mp4	0.0	236.64989185333252	0.09997797012329102
56	173.76320791244507	fix_pre	0		29.0	54.0	2.5	blank	1.0	236.7498698234558	0.24172210693359375
56	173.99667406082153	response	0	4		54.0	2.5	blank	1.0	236.98333597183228	
56	174.00493001937866	movie	1		301.0	54.0	2.5	blank	1.0	236.9915919303894	2.5082478523254395
56	176.1132049560547	response	1	4		54.0	2.5	blank	1.0	239.09986686706543	
56	176.5131778717041	fix_post	2		12.0	54.0	2.5	blank	1.0	239.49983978271484	0.10003209114074707
57	176.61320996284485	fix_pre	0		23.0	55.0	2.5	/experiments/knapen_aot/videos/S_yt-jzDaQD-g168_103.mp4	0.0	239.5998718738556	0.19161200523376465
57	176.79661893844604	response	0	4		55.0	2.5	/experiments/knapen_aot/videos/S_yt-jzDaQD-g168_103.mp4	0.0	239.7832808494568	
57	176.8048219680786	movie	1		301.0	55.0	2.5	/experiments/knapen_aot/videos/S_yt-jzDaQD-g168_103.mp4	0.0	239.79148387908936	2.508389949798584
57	179.3132119178772	fix_post	2		12.0	55.0	2.5	/experiments/knapen_aot/videos/S_yt-jzDaQD-g168_103.mp4	0.0	242.29987382888794	0.09988212585449219
58	179.4130940437317	fix_pre	0		33.0	56.0	2.5	/experiments/knapen_aot/videos/R_S_video_inspire_florida_miami_brickell_sunset_00036.1080-h264.mp4	0.0	242.39975595474243	0.27503085136413574
58	179.6799030303955	response	0	4		56.0	2.5	/experiments/knapen_aot/videos/R_S_video_inspire_florida_miami_brickell_sunset_00036.1080-h264.mp4	0.0	242.66656494140625	
58	179.68812489509583	movie	1		168.0	56.0	2.5	/experiments/knapen_aot/videos/R_S_video_inspire_florida_miami_brickell_sunset_00036.1080-h264.mp4	0.0	242.67478680610657	2.508376121520996
58	181.82165002822876	response	1	4		56.0	2.5	/experiments/knapen_aot/videos/R_S_video_inspire_florida_miami_brickell_sunset_00036.1080-h264.mp4	0.0	244.8083119392395	
58	182.19650101661682	fix_post	2		12.0	56.0	2.5	/experiments/knapen_aot/videos/R_S_video_inspire_florida_miami_brickell_sunset_00036.1080-h264.mp4	0.0	245.18316292762756	0.1000359058380127
59	182.29653692245483	fix_pre	0		290.0	57.0	2.5	/experiments/knapen_aot/videos/R_S_yt-wVMhACNFF-M_154.mp4	0.0	245.28319883346558	2.416511058807373
59	184.70490407943726	response	0	4		57.0	2.5	/experiments/knapen_aot/videos/R_S_yt-wVMhACNFF-M_154.mp4	0.0	247.691565990448	
59	184.7130479812622	movie	1		301.0	57.0	2.5	/experiments/knapen_aot/videos/R_S_yt-wVMhACNFF-M_154.mp4	0.0	247.69970989227295	2.5086100101470947
59	186.19655108451843	response	1	4		57.0	2.5	/experiments/knapen_aot/videos/R_S_yt-wVMhACNFF-M_154.mp4	0.0	249.18321299552917	
59	187.2216579914093	fix_post	2		12.0	57.0	2.5	/experiments/knapen_aot/videos/R_S_yt-wVMhACNFF-M_154.mp4	0.0	250.20831990242004	0.09977602958679199
60	187.3214340209961	fix_pre	0		232.0	58.0	2.5	/experiments/knapen_aot/videos/R_S_yt-GO26QIueqRw_385.mp4	0.0	250.30809593200684	1.9332590103149414
60	189.2465739250183	response	0	4		58.0	2.5	/experiments/knapen_aot/videos/R_S_yt-GO26QIueqRw_385.mp4	0.0	252.23323583602905	
60	189.25469303131104	movie	1		301.0	58.0	2.5	/experiments/knapen_aot/videos/R_S_yt-GO26QIueqRw_385.mp4	0.0	252.24135494232178	2.5084500312805176
60	190.6882050037384	response	1	4		58.0	2.5	/experiments/knapen_aot/videos/R_S_yt-GO26QIueqRw_385.mp4	0.0	253.67486691474915	
60	191.76314306259155	fix_post	2		12.0	58.0	2.5	/experiments/knapen_aot/videos/R_S_yt-GO26QIueqRw_385.mp4	0.0	254.7498049736023	0.0999898910522461
60	191.79655194282532	response	2	4		58.0	2.5	/experiments/knapen_aot/videos/R_S_yt-GO26QIueqRw_385.mp4	0.0	254.78321385383606	
61	191.8631329536438	fix_pre	0		205.0	59.0	2.5	/experiments/knapen_aot/videos/S_ILSVRC2015_train_00595000.mp4	0.0	254.84979486465454	1.708277940750122
61	193.55576586723328	response	0	4		59.0	2.5	/experiments/knapen_aot/videos/S_ILSVRC2015_train_00595000.mp4	0.0	256.542427778244	
61	193.57141089439392	movie	1		301.0	59.0	2.5	/experiments/knapen_aot/videos/S_ILSVRC2015_train_00595000.mp4	0.0	256.55807280540466	2.5083580017089844
61	196.0797688961029	fix_post	2		12.0	59.0	2.5	/experiments/knapen_aot/videos/S_ILSVRC2015_train_00595000.mp4	0.0	259.06643080711365	0.10010313987731934
62	196.17987203598022	fix_pre	0		14.0	60.0	2.5	/experiments/knapen_aot/videos/S_production_ID_4325585.mp4	0.0	259.16653394699097	0.11655402183532715
62	196.28819108009338	response	0	4		60.0	2.5	/experiments/knapen_aot/videos/S_production_ID_4325585.mp4	0.0	259.2748529911041	
62	196.29642605781555	movie	1		198.0	60.0	2.5	/experiments/knapen_aot/videos/S_production_ID_4325585.mp4	0.0	259.2830879688263	2.5083580017089844
62	198.80478405952454	fix_post	2		12.0	60.0	2.5	/experiments/knapen_aot/videos/S_production_ID_4325585.mp4	0.0	261.7914459705353	0.0999758243560791
63	198.90475988388062	fix_pre	0		32.0	61.0	2.5	blank	1.0	261.89142179489136	0.26662707328796387
63	199.155690908432	response	0	4		61.0	2.5	blank	1.0	262.14235281944275	
63	199.17138695716858	movie	1		301.0	61.0	2.5	blank	1.0	262.1580488681793	2.508347988128662
63	201.67973494529724	fix_post	2		12.0	61.0	2.5	blank	1.0	264.666396856308	0.10005998611450195
64	201.77979493141174	fix_pre	0		261.0	62.0	2.5	/experiments/knapen_aot/videos/S_yt-lfDIg8kaXhA_169.mp4	0.0	264.7664568424225	2.176054000854492
64	203.94654297828674	response	0	4		62.0	2.5	/experiments/knapen_aot/videos/S_yt-lfDIg8kaXhA_169.mp4	0.0	266.9332048892975	
64	203.95584893226624	movie	1		301.0	62.0	2.5	/experiments/knapen_aot/videos/S_yt-lfDIg8kaXhA_169.mp4	0.0	266.942510843277	2.507209062576294
64	206.46305799484253	fix_post	2		12.0	62.0	2.5	/experiments/knapen_aot/videos/S_yt-lfDIg8kaXhA_169.mp4	0.0	269.44971990585327	0.09999895095825195
65	206.56305694580078	fix_pre	0		400.0	63.0	2.5	/experiments/knapen_aot/videos/R_S_ILSVRC2015_train_00324001.mp4	0.0	269.5497188568115	3.333298921585083
65	209.88809394836426	response	0	4		63.0	2.5	/experiments/knapen_aot/videos/R_S_ILSVRC2015_train_00324001.mp4	0.0	272.874755859375	
65	209.89635586738586	movie	1		301.0	63.0	2.5	/experiments/knapen_aot/videos/R_S_ILSVRC2015_train_00324001.mp4	0.0	272.8830177783966	2.5087029933929443
65	211.7631208896637	response	1	4		63.0	2.5	/experiments/knapen_aot/videos/R_S_ILSVRC2015_train_00324001.mp4	0.0	274.74978280067444	
65	212.15728402137756	response	1	4		63.0	2.5	/experiments/knapen_aot/videos/R_S_ILSVRC2015_train_00324001.mp4	0.0	275.1439459323883	
65	212.4050588607788	fix_post	2		12.0	63.0	2.5	/experiments/knapen_aot/videos/R_S_ILSVRC2015_train_00324001.mp4	0.0	275.39172077178955	0.09972620010375977
66	212.50478506088257	fix_pre	0		405.0	64.0	2.5	/experiments/knapen_aot/videos/S_yt-xqjVM0Vj4mI_161.mp4	0.0	275.4914469718933	3.3748779296875
66	215.8714370727539	response	0	4		64.0	2.5	/experiments/knapen_aot/videos/S_yt-xqjVM0Vj4mI_161.mp4	0.0	278.85809898376465	
66	215.87966299057007	movie	1		301.0	64.0	2.5	/experiments/knapen_aot/videos/S_yt-xqjVM0Vj4mI_161.mp4	0.0	278.8663249015808	2.5084450244903564
66	218.38810801506042	fix_post	2		12.0	64.0	2.5	/experiments/knapen_aot/videos/S_yt-xqjVM0Vj4mI_161.mp4	0.0	281.37476992607117	0.09989285469055176
67	218.48800086975098	fix_pre	0		25.0	65.0	2.5	/experiments/knapen_aot/videos/S_yt-JkKOG9Fxykc_94.mp4	0.0	281.4746627807617	0.20825815200805664
67	218.68810296058655	response	0	4		65.0	2.5	/experiments/knapen_aot/videos/S_yt-JkKOG9Fxykc_94.mp4	0.0	281.6747648715973	
67	218.69625902175903	movie	1		301.0	65.0	2.5	/experiments/knapen_aot/videos/S_yt-JkKOG9Fxykc_94.mp4	0.0	281.6829209327698	2.5084359645843506
67	221.20469498634338	fix_post	2		12.0	65.0	2.5	/experiments/knapen_aot/videos/S_yt-JkKOG9Fxykc_94.mp4	0.0	284.1913568973541	0.09998607635498047
68	221.30468106269836	fix_pre	0		33.0	66.0	2.5	/experiments/knapen_aot/videos/S_G009_C014_UHD_SDR_2K_AVC.mp4	0.0	284.2913429737091	0.2759878635406494
68	221.57147908210754	response	0	4		66.0	2.5	/experiments/knapen_aot/videos/S_G009_C014_UHD_SDR_2K_AVC.mp4	0.0	284.5581409931183	
68	221.580668926239	movie	1		170.0	66.0	2.5	/experiments/knapen_aot/videos/S_G009_C014_UHD_SDR_2K_AVC.mp4	0.0	284.56733083724976	2.507266044616699
68	224.0879349708557	fix_post	2		12.0	66.0	2.5	/experiments/knapen_aot/videos/S_G009_C014_UHD_SDR_2K_AVC.mp4	0.0	287.07459688186646	0.10008597373962402
69	224.18802094459534	fix_pre	0		4.0	67.0	2.5	/experiments/knapen_aot/videos/S_yt-uT4MXm0UBJM_64.mp4	0.0	287.1746828556061	0.0332789421081543
69	224.21309185028076	response	0	4		67.0	2.5	/experiments/knapen_aot/videos/S_yt-uT4MXm0UBJM_64.mp4	0.0	287.1997537612915	
69	224.2212998867035	movie	1		301.0	67.0	2.5	/experiments/knapen_aot/videos/S_yt-uT4MXm0UBJM_64.mp4	0.0	287.20796179771423	2.508449077606201
69	226.7297489643097	fix_post	2		12.0	67.0	2.5	/experiments/knapen_aot/videos/S_yt-uT4MXm0UBJM_64.mp4	0.0	289.71641087532043	0.09989595413208008
70	226.82964491844177	fix_pre	0		61.0	68.0	2.5	/experiments/knapen_aot/videos/S_ILSVRC2015_train_00087003.mp4	0.0	289.8163068294525	0.5082910060882568
70	227.32966494560242	response	0	4		68.0	2.5	/experiments/knapen_aot/videos/S_ILSVRC2015_train_00087003.mp4	0.0	290.31632685661316	
70	227.33793592453003	movie	1		301.0	68.0	2.5	/experiments/knapen_aot/videos/S_ILSVRC2015_train_00087003.mp4	0.0	290.32459783554077	2.508366107940674
70	229.8463020324707	fix_post	2		12.0	68.0	2.5	/experiments/knapen_aot/videos/S_ILSVRC2015_train_00087003.mp4	0.0	292.83296394348145	0.09996795654296875
71	229.94626998901367	fix_pre	0		20.0	69.0	2.5	blank	1.0	292.9329319000244	0.1665799617767334
71	230.10467386245728	response	0	4		69.0	2.5	blank	1.0	293.091335773468	
71	230.1128499507904	movie	1		301.0	69.0	2.5	blank	1.0	293.09951186180115	2.508449077606201
71	232.6212990283966	fix_post	2		12.0	69.0	2.5	blank	1.0	295.60796093940735	0.09998583793640137
72	232.721284866333	fix_pre	0		333.0	70.0	2.5	/experiments/knapen_aot/videos/S_yt-_BvMLZo0MG0_1226.mp4	0.0	295.70794677734375	2.7758901119232178
72	235.48810195922852	response	0	4		70.0	2.5	/experiments/knapen_aot/videos/S_yt-_BvMLZo0MG0_1226.mp4	0.0	298.47476387023926	
72	235.49717497825623	movie	1		301.0	70.0	2.5	/experiments/knapen_aot/videos/S_yt-_BvMLZo0MG0_1226.mp4	0.0	298.48383688926697	2.507457971572876
72	238.0046329498291	fix_post	2		12.0	70.0	2.5	/experiments/knapen_aot/videos/S_yt-_BvMLZo0MG0_1226.mp4	0.0	300.99129486083984	0.09993290901184082
73	238.10456585884094	fix_pre	0		53.0	71.0	2.5	/experiments/knapen_aot/videos/R_S_ahUa35lQM6E_44.mp4	0.0	301.0912277698517	0.4416520595550537
73	238.53797698020935	response	0	4		71.0	2.5	/experiments/knapen_aot/videos/R_S_ahUa35lQM6E_44.mp4	0.0	301.5246388912201	
73	238.546217918396	movie	1		301.0	71.0	2.5	/experiments/knapen_aot/videos/R_S_ahUa35lQM6E_44.mp4	0.0	301.53287982940674	2.5083351135253906
73	241.0545530319214	fix_post	2		12.0	71.0	2.5	/experiments/knapen_aot/videos/R_S_ahUa35lQM6E_44.mp4	0.0	304.04121494293213	0.10012292861938477
74	241.15467596054077	fix_pre	0		56.0	72.0	2.5	/experiments/knapen_aot/videos/R_S_Pexels_Videos_2795171.mp4	0.0	304.1413378715515	0.4674201011657715
74	241.61303997039795	response	0	4		72.0	2.5	/experiments/knapen_aot/videos/R_S_Pexels_Videos_2795171.mp4	0.0	304.5997018814087	
74	241.62209606170654	movie	1		162.0	72.0	2.5	/experiments/knapen_aot/videos/R_S_Pexels_Videos_2795171.mp4	0.0	304.6087579727173	2.507524013519287
74	243.65471005439758	response	1	4		72.0	2.5	/experiments/knapen_aot/videos/R_S_Pexels_Videos_2795171.mp4	0.0	306.6413719654083	
74	244.12962007522583	fix_post	2		12.0	72.0	2.5	/experiments/knapen_aot/videos/R_S_Pexels_Videos_2795171.mp4	0.0	307.1162819862366	0.10000991821289062
75	244.22962999343872	fix_pre	0		55.0	73.0	2.5	/experiments/knapen_aot/videos/R_S_ILSVRC2015_train_00303008.mp4	0.0	307.21629190444946	0.45821499824523926
75	244.6797080039978	response	0	4		73.0	2.5	/experiments/knapen_aot/videos/R_S_ILSVRC2015_train_00303008.mp4	0.0	307.66636991500854	
75	244.68784499168396	movie	1		301.0	73.0	2.5	/experiments/knapen_aot/videos/R_S_ILSVRC2015_train_00303008.mp4	0.0	307.6745069026947	2.508430004119873
75	247.19627499580383	fix_post	2		12.0	73.0	2.5	/experiments/knapen_aot/videos/R_S_ILSVRC2015_train_00303008.mp4	0.0	310.1829369068146	0.10005307197570801
76	247.29632806777954	fix_pre	0		58.0	74.0	2.5	/experiments/knapen_aot/videos/S_yt-V_2XgfjJfeQ_67.mp4	0.0	310.2829899787903	0.4831428527832031
76	247.77133893966675	response	0	4		74.0	2.5	/experiments/knapen_aot/videos/S_yt-V_2XgfjJfeQ_67.mp4	0.0	310.7580008506775	
76	247.77947092056274	movie	1		301.0	74.0	2.5	/experiments/knapen_aot/videos/S_yt-V_2XgfjJfeQ_67.mp4	0.0	310.7661328315735	2.508435010910034
76	250.28790593147278	fix_post	2		12.0	74.0	2.5	/experiments/knapen_aot/videos/S_yt-V_2XgfjJfeQ_67.mp4	0.0	313.2745678424835	0.10007500648498535
77	250.38798093795776	fix_pre	0		102.0	75.0	2.5	blank	1.0	313.3746428489685	0.8498549461364746
77	251.22967386245728	response	0	4		75.0	2.5	blank	1.0	314.216335773468	
77	251.23783588409424	movie	1		301.0	75.0	2.5	blank	1.0	314.224497795105	2.5083940029144287
77	253.74622988700867	fix_post	2		12.0	75.0	2.5	blank	1.0	316.7328917980194	0.09998011589050293
78	253.84621000289917	fix_pre	0		21.0	76.0	2.5	/experiments/knapen_aot/videos/R_S_Pexels_Videos_2376809.mp4	0.0	316.8328719139099	0.17493104934692383
78	254.01294994354248	response	0	4		76.0	2.5	/experiments/knapen_aot/videos/R_S_Pexels_Videos_2376809.mp4	0.0	316.9996118545532	
78	254.0211410522461	movie	1		166.0	76.0	2.5	/experiments/knapen_aot/videos/R_S_Pexels_Videos_2376809.mp4	0.0	317.00780296325684	2.5083539485931396
78	256.52949500083923	fix_post	2		12.0	76.0	2.5	/experiments/knapen_aot/videos/R_S_Pexels_Videos_2376809.mp4	0.0	319.51615691185	0.09999990463256836
79	256.6294949054718	fix_pre	0		26.0	77.0	2.5	/experiments/knapen_aot/videos/S_pexels-mart-production-7698911_1.mp4	0.0	319.61615681648254	0.21662306785583496
79	256.83797001838684	response	0	4		77.0	2.5	/experiments/knapen_aot/videos/S_pexels-mart-production-7698911_1.mp4	0.0	319.8246319293976	
79	256.84611797332764	movie	1		201.0	77.0	2.5	/experiments/knapen_aot/videos/S_pexels-mart-production-7698911_1.mp4	0.0	319.8327798843384	2.5083649158477783
79	259.3544828891754	fix_post	2		12.0	77.0	2.5	/experiments/knapen_aot/videos/S_pexels-mart-production-7698911_1.mp4	0.0	322.34114480018616	0.10002517700195312
80	259.45450806617737	fix_pre	0		12.0	78.0	2.5	/experiments/knapen_aot/videos/R_S_video_inspire_florida_miami_brickell_sunset_00036.1080-h264.mp4	0.0	322.4411699771881	0.09998178482055664
80	259.54628705978394	response	0	4		78.0	2.5	/experiments/knapen_aot/videos/R_S_video_inspire_florida_miami_brickell_sunset_00036.1080-h264.mp4	0.0	322.5329489707947	
80	259.5544898509979	movie	1		169.0	78.0	2.5	/experiments/knapen_aot/videos/R_S_video_inspire_florida_miami_brickell_sunset_00036.1080-h264.mp4	0.0	322.54115176200867	2.5083770751953125
80	261.037957906723	response	1	4		78.0	2.5	/experiments/knapen_aot/videos/R_S_video_inspire_florida_miami_brickell_sunset_00036.1080-h264.mp4	0.0	324.02461981773376	
80	262.06286692619324	fix_post	2		12.0	78.0	2.5	/experiments/knapen_aot/videos/R_S_video_inspire_florida_miami_brickell_sunset_00036.1080-h264.mp4	0.0	325.049528837204	0.0999441146850586
81	262.1628110408783	fix_pre	0		27.0	79.0	2.5	/experiments/knapen_aot/videos/R_S_yt-JtR6WZXT2kU_8.mp4	0.0	325.14947295188904	0.22502899169921875
81	262.37954592704773	response	0	4		79.0	2.5	/experiments/knapen_aot/videos/R_S_yt-JtR6WZXT2kU_8.mp4	0.0	325.3662078380585	
81	262.3878400325775	movie	1		301.0	79.0	2.5	/experiments/knapen_aot/videos/R_S_yt-JtR6WZXT2kU_8.mp4	0.0	325.37450194358826	2.5083048343658447
81	264.14632987976074	response	1	4		79.0	2.5	/experiments/knapen_aot/videos/R_S_yt-JtR6WZXT2kU_8.mp4	0.0	327.1329917907715	
81	264.89614486694336	fix_post	2		12.0	79.0	2.5	/experiments/knapen_aot/videos/R_S_yt-JtR6WZXT2kU_8.mp4	0.0	327.8828067779541	0.0999610424041748
82	264.99610590934753	fix_pre	0		6.0	80.0	2.5	/experiments/knapen_aot/videos/S_yt-EKPrSw5xF7k_112.mp4	0.0	327.9827678203583	0.04996204376220703
82	265.0379059314728	response	0	4		80.0	2.5	/experiments/knapen_aot/videos/S_yt-EKPrSw5xF7k_112.mp4	0.0	328.0245678424835	
82	265.04606795310974	movie	1		301.0	80.0	2.5	/experiments/knapen_aot/videos/S_yt-EKPrSw5xF7k_112.mp4	0.0	328.0327298641205	2.508410930633545
82	266.39622497558594	response	1	4		80.0	2.5	/experiments/knapen_aot/videos/S_yt-EKPrSw5xF7k_112.mp4	0.0	329.3828868865967	
82	267.5544788837433	fix_post	2		12.0	80.0	2.5	/experiments/knapen_aot/videos/S_yt-EKPrSw5xF7k_112.mp4	0.0	330.541140794754	0.09993100166320801
82	267.57205986976624	response	2	4		80.0	2.5	/experiments/knapen_aot/videos/S_yt-EKPrSw5xF7k_112.mp4	0.0	330.558721780777	
83	267.6544098854065	fix_pre	0		47.0	81.0	2.5	/experiments/knapen_aot/videos/R_S_yt-y6zr69M0yHI_76.mp4	0.0	330.64107179641724	0.3916490077972412
83	268.03782987594604	response	0	4		81.0	2.5	/experiments/knapen_aot/videos/R_S_yt-y6zr69M0yHI_76.mp4	0.0	331.0244917869568	
83	268.04605889320374	movie	1		301.0	81.0	2.5	/experiments/knapen_aot/videos/R_S_yt-y6zr69M0yHI_76.mp4	0.0	331.0327208042145	2.5083930492401123
83	269.8961908817291	response	1	4		81.0	2.5	/experiments/knapen_aot/videos/R_S_yt-y6zr69M0yHI_76.mp4	0.0	332.88285279273987	
83	270.55445194244385	fix_post	2		12.0	81.0	2.5	/experiments/knapen_aot/videos/R_S_yt-y6zr69M0yHI_76.mp4	0.0	333.5411138534546	0.09997797012329102
84	270.65442991256714	fix_pre	0		139.0	82.0	2.5	blank	1.0	333.6410918235779	1.1582510471343994
84	271.7970209121704	response	0	4		82.0	2.5	blank	1.0	334.78368282318115	
84	271.81268095970154	movie	1		301.0	82.0	2.5	blank	1.0	334.7993428707123	2.5083909034729004
84	274.32107186317444	fix_post	2		12.0	82.0	2.5	blank	1.0	337.3077337741852	0.10008621215820312
85	274.42115807533264	fix_pre	0		181.0	83.0	2.5	/experiments/knapen_aot/videos/S_yt-MUfa26F8dfE_97.mp4	0.0	337.4078199863434	1.5082228183746338
85	275.9211950302124	response	0	4		83.0	2.5	/experiments/knapen_aot/videos/S_yt-MUfa26F8dfE_97.mp4	0.0	338.90785694122314	
85	275.9293808937073	movie	1		301.0	83.0	2.5	/experiments/knapen_aot/videos/S_yt-MUfa26F8dfE_97.mp4	0.0	338.916042804718	2.508347988128662
85	277.02948904037476	response	1	4		83.0	2.5	/experiments/knapen_aot/videos/S_yt-MUfa26F8dfE_97.mp4	0.0	340.0161509513855	
85	278.3711349964142	response	1	4		83.0	2.5	/experiments/knapen_aot/videos/S_yt-MUfa26F8dfE_97.mp4	0.0	341.3577969074249	
85	278.43772888183594	fix_post	2		12.0	83.0	2.5	/experiments/knapen_aot/videos/S_yt-MUfa26F8dfE_97.mp4	0.0	341.4243907928467	0.10073208808898926
87	278.5384609699249	stim	0		110.0					341.52512288093567	0.9166240692138672
87	279.2628619670868	response	0	4						342.24952387809753	
87	279.4498698711395	response	0	space						342.43653178215027	
