trial_nr	onset	event_type	phase	response	nr_frames	movie_index	movie_duration	movie_file	blank	onset_abs	duration
0	0.15722894668579102	stim	0		47.0					119.58757400512695	0.391848087310791
0	0.5407569408416748	response	0	space						119.97110199928284	
1	0.549077033996582	stim	0		121.0					119.97942209243774	1.0078380107879639
1	1.1074190139770508	response	0	space						120.53776407241821	
1	1.556915044784546	stim	1		120.0					120.98726010322571	1.0000300407409668
1	1.6986620426177979	response	1	space						121.12900710105896	
1	2.4403610229492188	response	1	space						121.87070608139038	
2	2.5569450855255127	fix_pre	0		33.0	0.0	2.5	/experiments/knapen_aot/oldvideos/R_S_yt-EApB0DJ3ECg_66.mp4	0.0	121.98729014396667	0.27608394622802734
2	2.8236489295959473	response	0	space		0.0	2.5	/experiments/knapen_aot/oldvideos/R_S_yt-EApB0DJ3ECg_66.mp4	0.0	122.25399398803711	
2	2.83302903175354	movie	1		301.0	0.0	2.5	/experiments/knapen_aot/oldvideos/R_S_yt-EApB0DJ3ECg_66.mp4	0.0	122.2633740901947	2.5072169303894043
2	5.340245962142944	fix_post	2		12.0	0.0	2.5	/experiments/knapen_aot/oldvideos/R_S_yt-EApB0DJ3ECg_66.mp4	0.0	124.7705910205841	0.10002613067626953
3	5.440272092819214	fix_pre	0		22.0	1.0	2.5	/experiments/knapen_aot/oldvideos/S_WO9z7lBUvOs_151.mp4	0.0	124.87061715126038	0.18430089950561523
3	5.616564989089966	response	0	2		1.0	2.5	/experiments/knapen_aot/oldvideos/S_WO9z7lBUvOs_151.mp4	0.0	125.04691004753113	
3	5.624572992324829	movie	1		301.0	1.0	2.5	/experiments/knapen_aot/oldvideos/S_WO9z7lBUvOs_151.mp4	0.0	125.05491805076599	2.507305145263672
3	7.940340042114258	response	1	2		1.0	2.5	/experiments/knapen_aot/oldvideos/S_WO9z7lBUvOs_151.mp4	0.0	127.37068510055542	
3	8.131878137588501	fix_post	2		12.0	1.0	2.5	/experiments/knapen_aot/oldvideos/S_WO9z7lBUvOs_151.mp4	0.0	127.56222319602966	0.09999990463256836
3	8.223597049713135	response	2	2		1.0	2.5	/experiments/knapen_aot/oldvideos/S_WO9z7lBUvOs_151.mp4	0.0	127.6539421081543	
4	8.23187804222107	fix_pre	0		48.0	2.0	2.5	/experiments/knapen_aot/oldvideos/R_S_yt-PYHK810V_n8_1375.mp4	0.0	127.66222310066223	0.4000070095062256
4	8.623614072799683	response	0	2		2.0	2.5	/experiments/knapen_aot/oldvideos/R_S_yt-PYHK810V_n8_1375.mp4	0.0	128.05395913124084	
4	8.631885051727295	movie	1		301.0	2.0	2.5	/experiments/knapen_aot/oldvideos/R_S_yt-PYHK810V_n8_1375.mp4	0.0	128.06223011016846	2.508344888687134
4	11.140229940414429	fix_post	2		12.0	2.0	2.5	/experiments/knapen_aot/oldvideos/R_S_yt-PYHK810V_n8_1375.mp4	0.0	130.5705749988556	0.10005903244018555
5	11.240288972854614	fix_pre	0		11.0	3.0	2.5	/experiments/knapen_aot/oldvideos/S_production_ID_4540332.mp4	0.0	130.67063403129578	0.09261393547058105
5	11.32365608215332	response	0	2		3.0	2.5	/experiments/knapen_aot/oldvideos/S_production_ID_4540332.mp4	0.0	130.75400114059448	
5	11.332902908325195	movie	1		164.0	3.0	2.5	/experiments/knapen_aot/oldvideos/S_production_ID_4540332.mp4	0.0	130.76324796676636	2.5073390007019043
5	13.8402419090271	fix_post	2		12.0	3.0	2.5	/experiments/knapen_aot/oldvideos/S_production_ID_4540332.mp4	0.0	133.27058696746826	0.10018515586853027
6	13.94042706489563	fix_pre	0		3.0	4.0	2.5	/experiments/knapen_aot/oldvideos/R_S_yt-wIZprsJwxBM_298.mp4	0.0	133.3707721233368	0.024788856506347656
6	13.957099914550781	response	0	2		4.0	2.5	/experiments/knapen_aot/oldvideos/R_S_yt-wIZprsJwxBM_298.mp4	0.0	133.38744497299194	
6	13.965215921401978	movie	1		301.0	4.0	2.5	/experiments/knapen_aot/oldvideos/R_S_yt-wIZprsJwxBM_298.mp4	0.0	133.39556097984314	2.5082712173461914
6	16.47348713874817	fix_post	2		12.0	4.0	2.5	/experiments/knapen_aot/oldvideos/R_S_yt-wIZprsJwxBM_298.mp4	0.0	135.90383219718933	0.1000509262084961
7	16.573538064956665	fix_pre	0		7.0	5.0	2.5	/experiments/knapen_aot/oldvideos/S_yt-EApB0DJ3ECg_66.mp4	0.0	136.00388312339783	0.05837893486022949
7	16.623640060424805	response	0	2		5.0	2.5	/experiments/knapen_aot/oldvideos/S_yt-EApB0DJ3ECg_66.mp4	0.0	136.05398511886597	
7	16.631916999816895	movie	1		301.0	5.0	2.5	/experiments/knapen_aot/oldvideos/S_yt-EApB0DJ3ECg_66.mp4	0.0	136.06226205825806	2.508319139480591
7	19.140236139297485	fix_post	2		12.0	5.0	2.5	/experiments/knapen_aot/oldvideos/S_yt-EApB0DJ3ECg_66.mp4	0.0	138.57058119773865	0.09989190101623535
8	19.24012804031372	fix_pre	0		13.0	6.0	2.5	blank	1.0	138.67047309875488	0.10833191871643066
8	19.34027910232544	response	0	2		6.0	2.5	blank	1.0	138.7706241607666	
8	19.34845995903015	movie	1		301.0	6.0	2.5	blank	1.0	138.7788050174713	2.508404016494751
8	21.856863975524902	fix_post	2		12.0	6.0	2.5	blank	1.0	141.28720903396606	0.09994912147521973
9	21.956813097000122	fix_pre	0		37.0	7.0	2.5	/experiments/knapen_aot/oldvideos/S_comp_GMT312_162NC_139M_1041_AFRICA_NIGHT_v14_SDR_FINAL_20180706_SDR_2K_AVC.mp4	0.0	141.38715815544128	0.3083188533782959
9	22.25699806213379	response	0	2		7.0	2.5	/experiments/knapen_aot/oldvideos/S_comp_GMT312_162NC_139M_1041_AFRICA_NIGHT_v14_SDR_FINAL_20180706_SDR_2K_AVC.mp4	0.0	141.68734312057495	
9	22.265131950378418	movie	1		165.0	7.0	2.5	/experiments/knapen_aot/oldvideos/S_comp_GMT312_162NC_139M_1041_AFRICA_NIGHT_v14_SDR_FINAL_20180706_SDR_2K_AVC.mp4	0.0	141.69547700881958	2.5084030628204346
9	24.773535013198853	fix_post	2		12.0	7.0	2.5	/experiments/knapen_aot/oldvideos/S_comp_GMT312_162NC_139M_1041_AFRICA_NIGHT_v14_SDR_FINAL_20180706_SDR_2K_AVC.mp4	0.0	144.20388007164001	0.09995198249816895
10	24.87348699569702	fix_pre	0		1.0	8.0	2.5	/experiments/knapen_aot/oldvideos/S_yt-d5jBQ-LOW2I_17.mp4	0.0	144.30383205413818	0.00835108757019043
10	24.87514591217041	response	0	2		8.0	2.5	/experiments/knapen_aot/oldvideos/S_yt-d5jBQ-LOW2I_17.mp4	0.0	144.30549097061157	
10	24.881838083267212	movie	1		301.0	8.0	2.5	/experiments/knapen_aot/oldvideos/S_yt-d5jBQ-LOW2I_17.mp4	0.0	144.31218314170837	2.50834584236145
10	27.390183925628662	fix_post	2		12.0	8.0	2.5	/experiments/knapen_aot/oldvideos/S_yt-d5jBQ-LOW2I_17.mp4	0.0	146.82052898406982	0.10002708435058594
11	27.490211009979248	fix_pre	0		22.0	9.0	2.5	/experiments/knapen_aot/oldvideos/R_S_Y005_C003_SDR_2K_AVC.mp4	0.0	146.9205560684204	0.18324708938598633
11	27.665213108062744	response	0	2		9.0	2.5	/experiments/knapen_aot/oldvideos/R_S_Y005_C003_SDR_2K_AVC.mp4	0.0	147.0955581665039	
11	27.673458099365234	movie	1		166.0	9.0	2.5	/experiments/knapen_aot/oldvideos/R_S_Y005_C003_SDR_2K_AVC.mp4	0.0	147.1038031578064	2.5084240436553955
11	30.18188214302063	fix_post	2		12.0	9.0	2.5	/experiments/knapen_aot/oldvideos/R_S_Y005_C003_SDR_2K_AVC.mp4	0.0	149.6122272014618	0.0999898910522461
12	30.281872034072876	fix_pre	0		9.0	10.0	2.5	/experiments/knapen_aot/oldvideos/S_video-5.mp4	0.0	149.71221709251404	0.07487797737121582
12	30.348642110824585	response	0	2		10.0	2.5	/experiments/knapen_aot/oldvideos/S_video-5.mp4	0.0	149.77898716926575	
12	30.356750011444092	movie	1		182.0	10.0	2.5	/experiments/knapen_aot/oldvideos/S_video-5.mp4	0.0	149.78709506988525	2.508439064025879
12	32.86518907546997	fix_post	2		12.0	10.0	2.5	/experiments/knapen_aot/oldvideos/S_video-5.mp4	0.0	152.29553413391113	0.09996199607849121
13	32.96515107154846	fix_pre	0		1.0	11.0	2.5	/experiments/knapen_aot/oldvideos/R_S_bing-www_yahoo_com_entertainment_anastasia-karanikolaou-chantel-jeffries-discuss-182400502_html_9.mp4	0.0	152.39549612998962	0.008270978927612305
13	32.967068910598755	response	0	2		11.0	2.5	/experiments/knapen_aot/oldvideos/R_S_bing-www_yahoo_com_entertainment_anastasia-karanikolaou-chantel-jeffries-discuss-182400502_html_9.mp4	0.0	152.39741396903992	
13	32.973422050476074	movie	1		164.0	11.0	2.5	/experiments/knapen_aot/oldvideos/R_S_bing-www_yahoo_com_entertainment_anastasia-karanikolaou-chantel-jeffries-discuss-182400502_html_9.mp4	0.0	152.40376710891724	2.5084989070892334
13	35.48192095756531	fix_post	2		12.0	11.0	2.5	/experiments/knapen_aot/oldvideos/R_S_bing-www_yahoo_com_entertainment_anastasia-karanikolaou-chantel-jeffries-discuss-182400502_html_9.mp4	0.0	154.91226601600647	0.10074710845947266
14	35.58266806602478	fix_pre	0		3.0	12.0	2.5	/experiments/knapen_aot/oldvideos/S_ILSVRC2015_train_00762000.mp4	0.0	155.01301312446594	0.024065017700195312
14	35.598654985427856	response	0	2		12.0	2.5	/experiments/knapen_aot/oldvideos/S_ILSVRC2015_train_00762000.mp4	0.0	155.02900004386902	
14	35.606733083724976	movie	1		301.0	12.0	2.5	/experiments/knapen_aot/oldvideos/S_ILSVRC2015_train_00762000.mp4	0.0	155.03707814216614	2.508409023284912
14	38.11514210700989	fix_post	2		12.0	12.0	2.5	/experiments/knapen_aot/oldvideos/S_ILSVRC2015_train_00762000.mp4	0.0	157.54548716545105	0.10002303123474121
15	38.21516513824463	fix_pre	0		1.0	13.0	2.5	blank	1.0	157.6455101966858	0.008292913436889648
15	38.20822191238403	response	0	2		13.0	2.5	blank	1.0	157.6385669708252	
15	38.22345805168152	movie	1		301.0	13.0	2.5	blank	1.0	157.65380311012268	2.508341073989868
15	40.73179912567139	fix_post	2		12.0	13.0	2.5	blank	1.0	160.16214418411255	0.1000218391418457
16	40.83182096481323	fix_pre	0		55.0	14.0	2.5	/experiments/knapen_aot/oldvideos/R_S_yt-GjFQxAklviE_25.mp4	0.0	160.2621660232544	0.45914411544799805
16	41.28196597099304	response	0	2		14.0	2.5	/experiments/knapen_aot/oldvideos/R_S_yt-GjFQxAklviE_25.mp4	0.0	160.7123110294342	
16	41.29096508026123	movie	1		301.0	14.0	2.5	/experiments/knapen_aot/oldvideos/R_S_yt-GjFQxAklviE_25.mp4	0.0	160.7213101387024	2.5074899196624756
16	43.798454999923706	fix_post	2		12.0	14.0	2.5	/experiments/knapen_aot/oldvideos/R_S_yt-GjFQxAklviE_25.mp4	0.0	163.22880005836487	0.09997391700744629
17	43.89842891693115	fix_pre	0		42.0	15.0	2.5	/experiments/knapen_aot/oldvideos/R_S_yt-3DM_SqT4RII_10.mp4	0.0	163.32877397537231	0.3509202003479004
17	44.24030900001526	response	0	2		15.0	2.5	/experiments/knapen_aot/oldvideos/R_S_yt-3DM_SqT4RII_10.mp4	0.0	163.67065405845642	
17	44.24934911727905	movie	1		301.0	15.0	2.5	/experiments/knapen_aot/oldvideos/R_S_yt-3DM_SqT4RII_10.mp4	0.0	163.67969417572021	2.507434844970703
17	46.756783962249756	fix_post	2		12.0	15.0	2.5	/experiments/knapen_aot/oldvideos/R_S_yt-3DM_SqT4RII_10.mp4	0.0	166.18712902069092	0.10001206398010254
18	46.85679602622986	fix_pre	0		11.0	16.0	2.5	/experiments/knapen_aot/oldvideos/S_yt-EuyfT0PuOoQ_91.mp4	0.0	166.28714108467102	0.0916450023651123
18	46.94025206565857	response	0	2		16.0	2.5	/experiments/knapen_aot/oldvideos/S_yt-EuyfT0PuOoQ_91.mp4	0.0	166.37059712409973	
18	46.94844102859497	movie	1		301.0	16.0	2.5	/experiments/knapen_aot/oldvideos/S_yt-EuyfT0PuOoQ_91.mp4	0.0	166.37878608703613	2.5083179473876953
18	49.456758975982666	fix_post	2		12.0	16.0	2.5	/experiments/knapen_aot/oldvideos/S_yt-EuyfT0PuOoQ_91.mp4	0.0	168.88710403442383	0.10003209114074707
19	49.55679106712341	fix_pre	0		33.0	17.0	2.5	/experiments/knapen_aot/oldvideos/S_yt-2ftSsLqRQnA_84.mp4	0.0	168.98713612556458	0.27573490142822266
19	49.82357406616211	response	0	2		17.0	2.5	/experiments/knapen_aot/oldvideos/S_yt-2ftSsLqRQnA_84.mp4	0.0	169.25391912460327	
19	49.832525968551636	movie	1		301.0	17.0	2.5	/experiments/knapen_aot/oldvideos/S_yt-2ftSsLqRQnA_84.mp4	0.0	169.2628710269928	2.5075769424438477
19	52.34010291099548	fix_post	2		12.0	17.0	2.5	/experiments/knapen_aot/oldvideos/S_yt-2ftSsLqRQnA_84.mp4	0.0	171.77044796943665	0.09999799728393555
20	52.44010090827942	fix_pre	0		20.0	18.0	2.5	/experiments/knapen_aot/oldvideos/R_S_video-5.mp4	0.0	171.87044596672058	0.1665802001953125
20	52.59856605529785	response	0	2		18.0	2.5	/experiments/knapen_aot/oldvideos/R_S_video-5.mp4	0.0	172.028911113739	
20	52.60668110847473	movie	1		169.0	18.0	2.5	/experiments/knapen_aot/oldvideos/R_S_video-5.mp4	0.0	172.0370261669159	2.508420944213867
20	55.1151020526886	fix_post	2		12.0	18.0	2.5	/experiments/knapen_aot/oldvideos/R_S_video-5.mp4	0.0	174.54544711112976	0.09995794296264648
21	55.215059995651245	fix_pre	0		3.0	19.0	2.5	blank	1.0	174.6454050540924	0.02505207061767578
21	55.231887102127075	response	0	2		19.0	2.5	blank	1.0	174.66223216056824	
21	55.24011206626892	movie	1		301.0	19.0	2.5	blank	1.0	174.67045712471008	2.508254051208496
21	57.74836611747742	fix_post	2		12.0	19.0	2.5	blank	1.0	177.17871117591858	0.10025691986083984
22	57.84862303733826	fix_pre	0		17.0	20.0	2.5	/experiments/knapen_aot/oldvideos/R_S_pexels-kindel-media-8165572.mp4	0.0	177.27896809577942	0.1414029598236084
22	57.981833934783936	response	0	2		20.0	2.5	/experiments/knapen_aot/oldvideos/R_S_pexels-kindel-media-8165572.mp4	0.0	177.4121789932251	
22	57.990025997161865	movie	1		167.0	20.0	2.5	/experiments/knapen_aot/oldvideos/R_S_pexels-kindel-media-8165572.mp4	0.0	177.42037105560303	2.5083560943603516
22	60.49838209152222	fix_post	2		12.0	20.0	2.5	/experiments/knapen_aot/oldvideos/R_S_pexels-kindel-media-8165572.mp4	0.0	179.92872714996338	0.10002398490905762
22	60.556796073913574	response	2	2		20.0	2.5	/experiments/knapen_aot/oldvideos/R_S_pexels-kindel-media-8165572.mp4	0.0	179.98714113235474	
23	60.598406076431274	fix_pre	0		41.0	21.0	2.5	/experiments/knapen_aot/oldvideos/S_wc-oyG6AjP_W2EL_15.mp4	0.0	180.02875113487244	0.34161996841430664
23	60.93180799484253	response	0	2		21.0	2.5	/experiments/knapen_aot/oldvideos/S_wc-oyG6AjP_W2EL_15.mp4	0.0	180.3621530532837	
23	60.94002604484558	movie	1		301.0	21.0	2.5	/experiments/knapen_aot/oldvideos/S_wc-oyG6AjP_W2EL_15.mp4	0.0	180.37037110328674	2.508331060409546
23	63.44835710525513	fix_post	2		12.0	21.0	2.5	/experiments/knapen_aot/oldvideos/S_wc-oyG6AjP_W2EL_15.mp4	0.0	182.8787021636963	0.10002493858337402
24	63.5483820438385	fix_pre	0		32.0	22.0	2.5	/experiments/knapen_aot/oldvideos/S_bing-www_yahoo_com_entertainment_anastasia-karanikolaou-chantel-jeffries-discuss-182400502_html_9.mp4	0.0	182.97872710227966	0.2666208744049072
24	63.80684208869934	response	0	2		22.0	2.5	/experiments/knapen_aot/oldvideos/S_bing-www_yahoo_com_entertainment_anastasia-karanikolaou-chantel-jeffries-discuss-182400502_html_9.mp4	0.0	183.2371871471405	
24	63.81500291824341	movie	1		162.0	22.0	2.5	/experiments/knapen_aot/oldvideos/S_bing-www_yahoo_com_entertainment_anastasia-karanikolaou-chantel-jeffries-discuss-182400502_html_9.mp4	0.0	183.24534797668457	2.5082881450653076
24	66.32329106330872	fix_post	2		12.0	22.0	2.5	/experiments/knapen_aot/oldvideos/S_bing-www_yahoo_com_entertainment_anastasia-karanikolaou-chantel-jeffries-discuss-182400502_html_9.mp4	0.0	185.75363612174988	0.10018706321716309
25	66.42347812652588	fix_pre	0		7.0	23.0	2.5	/experiments/knapen_aot/oldvideos/R_S_yt-fjOsq03OC2c_188.mp4	0.0	185.85382318496704	0.058187007904052734
25	66.47345399856567	response	0	2		23.0	2.5	/experiments/knapen_aot/oldvideos/R_S_yt-fjOsq03OC2c_188.mp4	0.0	185.90379905700684	
25	66.48166513442993	movie	1		301.0	23.0	2.5	/experiments/knapen_aot/oldvideos/R_S_yt-fjOsq03OC2c_188.mp4	0.0	185.9120101928711	2.508366823196411
25	68.99003195762634	fix_post	2		12.0	23.0	2.5	/experiments/knapen_aot/oldvideos/R_S_yt-fjOsq03OC2c_188.mp4	0.0	188.4203770160675	0.099945068359375
26	69.08997702598572	fix_pre	0		16.0	24.0	2.5	/experiments/knapen_aot/oldvideos/S_production_ID_4584682.mp4	0.0	188.52032208442688	0.13339900970458984
26	69.21510696411133	response	0	2		24.0	2.5	/experiments/knapen_aot/oldvideos/S_production_ID_4584682.mp4	0.0	188.6454520225525	
26	69.22337603569031	movie	1		163.0	24.0	2.5	/experiments/knapen_aot/oldvideos/S_production_ID_4584682.mp4	0.0	188.65372109413147	2.5083370208740234
26	71.73171305656433	fix_post	2		12.0	24.0	2.5	/experiments/knapen_aot/oldvideos/S_production_ID_4584682.mp4	0.0	191.1620581150055	0.09993696212768555
27	71.83165001869202	fix_pre	0		11.0	25.0	2.5	/experiments/knapen_aot/oldvideos/R_S_ILSVRC2015_train_00418001.mp4	0.0	191.26199507713318	0.0916440486907959
27	71.91511011123657	response	0	2		25.0	2.5	/experiments/knapen_aot/oldvideos/R_S_ILSVRC2015_train_00418001.mp4	0.0	191.34545516967773	
27	71.92329406738281	movie	1		301.0	25.0	2.5	/experiments/knapen_aot/oldvideos/R_S_ILSVRC2015_train_00418001.mp4	0.0	191.35363912582397	2.5083529949188232
27	73.96507596969604	response	1	2		25.0	2.5	/experiments/knapen_aot/oldvideos/R_S_ILSVRC2015_train_00418001.mp4	0.0	193.3954210281372	
27	74.25667405128479	response	1	2		25.0	2.5	/experiments/knapen_aot/oldvideos/R_S_ILSVRC2015_train_00418001.mp4	0.0	193.68701910972595	
27	74.43164706230164	fix_post	2		12.0	25.0	2.5	/experiments/knapen_aot/oldvideos/R_S_ILSVRC2015_train_00418001.mp4	0.0	193.8619921207428	0.09998202323913574
27	74.50670313835144	response	2	2		25.0	2.5	/experiments/knapen_aot/oldvideos/R_S_ILSVRC2015_train_00418001.mp4	0.0	193.9370481967926	
28	74.53162908554077	fix_pre	0		21.0	26.0	2.5	/experiments/knapen_aot/oldvideos/S_flickr-hapanine-31880782705_22.mp4	0.0	193.96197414398193	0.17555689811706543
28	74.69834613800049	response	0	2		26.0	2.5	/experiments/knapen_aot/oldvideos/S_flickr-hapanine-31880782705_22.mp4	0.0	194.12869119644165	
28	74.70718598365784	movie	1		161.0	26.0	2.5	/experiments/knapen_aot/oldvideos/S_flickr-hapanine-31880782705_22.mp4	0.0	194.137531042099	2.507838010787964
28	77.2150239944458	fix_post	2		12.0	26.0	2.5	/experiments/knapen_aot/oldvideos/S_flickr-hapanine-31880782705_22.mp4	0.0	196.64536905288696	0.0999300479888916
29	77.31495404243469	fix_pre	0		5.0	27.0	2.5	/experiments/knapen_aot/oldvideos/S_video_inspire_california_vineyard_sierra-mar_sunrise_110.1080-h264.mp4	0.0	196.74529910087585	0.041610002517700195
29	77.34838104248047	response	0	2		27.0	2.5	/experiments/knapen_aot/oldvideos/S_video_inspire_california_vineyard_sierra-mar_sunrise_110.1080-h264.mp4	0.0	196.77872610092163	
29	77.35656404495239	movie	1		167.0	27.0	2.5	/experiments/knapen_aot/oldvideos/S_video_inspire_california_vineyard_sierra-mar_sunrise_110.1080-h264.mp4	0.0	196.78690910339355	2.508359909057617
29	79.86492395401001	fix_post	2		12.0	27.0	2.5	/experiments/knapen_aot/oldvideos/S_video_inspire_california_vineyard_sierra-mar_sunrise_110.1080-h264.mp4	0.0	199.29526901245117	0.09992218017578125
30	79.96484613418579	fix_pre	0		2.0	28.0	2.5	blank	1.0	199.39519119262695	0.01681995391845703
30	79.96749711036682	response	0	2		28.0	2.5	blank	1.0	199.39784216880798	
30	79.98166608810425	movie	1		301.0	28.0	2.5	blank	1.0	199.4120111465454	2.5082168579101562
30	82.4898829460144	fix_post	2		12.0	28.0	2.5	blank	1.0	201.92022800445557	0.1000971794128418
31	82.58998012542725	fix_pre	0		17.0	29.0	2.5	/experiments/knapen_aot/oldvideos/S_ILSVRC2015_train_00479004.mp4	0.0	202.0203251838684	0.14156079292297363
31	82.72332000732422	response	0	2		29.0	2.5	/experiments/knapen_aot/oldvideos/S_ILSVRC2015_train_00479004.mp4	0.0	202.15366506576538	
31	82.73154091835022	movie	1		301.0	29.0	2.5	/experiments/knapen_aot/oldvideos/S_ILSVRC2015_train_00479004.mp4	0.0	202.16188597679138	2.5083401203155518
31	85.23988103866577	fix_post	2		12.0	29.0	2.5	/experiments/knapen_aot/oldvideos/S_ILSVRC2015_train_00479004.mp4	0.0	204.67022609710693	0.10002398490905762
32	85.33990502357483	fix_pre	0		27.0	30.0	2.5	/experiments/knapen_aot/oldvideos/S_JApTAOdfunE_1251.mp4	0.0	204.770250082016	0.22496795654296875
32	85.55658197402954	response	0	2		30.0	2.5	/experiments/knapen_aot/oldvideos/S_JApTAOdfunE_1251.mp4	0.0	204.9869270324707	
32	85.5648729801178	movie	1		301.0	30.0	2.5	/experiments/knapen_aot/oldvideos/S_JApTAOdfunE_1251.mp4	0.0	204.99521803855896	2.5083720684051514
32	88.07324504852295	fix_post	2		12.0	30.0	2.5	/experiments/knapen_aot/oldvideos/S_JApTAOdfunE_1251.mp4	0.0	207.5035901069641	0.10003995895385742
33	88.1732850074768	fix_pre	0		20.0	31.0	2.5	/experiments/knapen_aot/oldvideos/R_S_comp_GMT312_162NC_139M_1041_AFRICA_NIGHT_v14_SDR_FINAL_20180706_SDR_2K_AVC.mp4	0.0	207.60363006591797	0.16656994819641113
33	88.33165907859802	response	0	2		31.0	2.5	/experiments/knapen_aot/oldvideos/R_S_comp_GMT312_162NC_139M_1041_AFRICA_NIGHT_v14_SDR_FINAL_20180706_SDR_2K_AVC.mp4	0.0	207.76200413703918	
33	88.33985495567322	movie	1		165.0	31.0	2.5	/experiments/knapen_aot/oldvideos/R_S_comp_GMT312_162NC_139M_1041_AFRICA_NIGHT_v14_SDR_FINAL_20180706_SDR_2K_AVC.mp4	0.0	207.77020001411438	2.508430004119873
33	90.84828495979309	fix_post	2		12.0	31.0	2.5	/experiments/knapen_aot/oldvideos/R_S_comp_GMT312_162NC_139M_1041_AFRICA_NIGHT_v14_SDR_FINAL_20180706_SDR_2K_AVC.mp4	0.0	210.27863001823425	0.09995508193969727
34	90.94824004173279	fix_pre	0		16.0	32.0	2.5	/experiments/knapen_aot/oldvideos/R_S_production_ID_4101309.mp4	0.0	210.37858510017395	0.13392400741577148
34	91.07331705093384	response	0	2		32.0	2.5	/experiments/knapen_aot/oldvideos/R_S_production_ID_4101309.mp4	0.0	210.503662109375	
34	91.08216404914856	movie	1		202.0	32.0	2.5	/experiments/knapen_aot/oldvideos/R_S_production_ID_4101309.mp4	0.0	210.51250910758972	2.5076870918273926
34	93.58985114097595	fix_post	2		12.0	32.0	2.5	/experiments/knapen_aot/oldvideos/R_S_production_ID_4101309.mp4	0.0	213.02019619941711	0.10003876686096191
35	93.68988990783691	fix_pre	0		16.0	33.0	2.5	/experiments/knapen_aot/oldvideos/S_pexels-mart-production-7698911_1.mp4	0.0	213.12023496627808	0.13324713706970215
35	93.8149471282959	response	0	2		33.0	2.5	/experiments/knapen_aot/oldvideos/S_pexels-mart-production-7698911_1.mp4	0.0	213.24529218673706	
35	93.82313704490662	movie	1		198.0	33.0	2.5	/experiments/knapen_aot/oldvideos/S_pexels-mart-production-7698911_1.mp4	0.0	213.25348210334778	2.508352041244507
35	96.33148908615112	fix_post	2		12.0	33.0	2.5	/experiments/knapen_aot/oldvideos/S_pexels-mart-production-7698911_1.mp4	0.0	215.76183414459229	0.10004591941833496
36	96.43153500556946	fix_pre	0		14.0	34.0	2.5	blank	1.0	215.86188006401062	0.11661505699157715
36	96.53993606567383	response	0	2		34.0	2.5	blank	1.0	215.970281124115	
36	96.54815006256104	movie	1		301.0	34.0	2.5	blank	1.0	215.9784951210022	2.508368968963623
36	99.05651903152466	fix_post	2		12.0	34.0	2.5	blank	1.0	218.48686408996582	0.10003209114074707
37	99.1565511226654	fix_pre	0		19.0	35.0	2.5	/experiments/knapen_aot/oldvideos/S_yt-H45g6700wbc_159.mp4	0.0	218.58689618110657	0.15823984146118164
37	99.30660891532898	response	0	2		35.0	2.5	/experiments/knapen_aot/oldvideos/S_yt-H45g6700wbc_159.mp4	0.0	218.73695397377014	
37	99.31479096412659	movie	1		301.0	35.0	2.5	/experiments/knapen_aot/oldvideos/S_yt-H45g6700wbc_159.mp4	0.0	218.74513602256775	2.508384943008423
37	101.82317590713501	fix_post	2		12.0	35.0	2.5	/experiments/knapen_aot/oldvideos/S_yt-H45g6700wbc_159.mp4	0.0	221.25352096557617	0.09997701644897461
38	101.92315292358398	fix_pre	0		29.0	36.0	2.5	/experiments/knapen_aot/oldvideos/S_yt-TSSPDwAQLXs_158.mp4	0.0	221.35349798202515	0.24206805229187012
38	102.1566379070282	response	0	2		36.0	2.5	/experiments/knapen_aot/oldvideos/S_yt-TSSPDwAQLXs_158.mp4	0.0	221.58698296546936	
38	102.16522097587585	movie	1		301.0	36.0	2.5	/experiments/knapen_aot/oldvideos/S_yt-TSSPDwAQLXs_158.mp4	0.0	221.59556603431702	2.5079569816589355
38	104.67317795753479	fix_post	2		12.0	36.0	2.5	/experiments/knapen_aot/oldvideos/S_yt-TSSPDwAQLXs_158.mp4	0.0	224.10352301597595	0.10006904602050781
39	104.7732470035553	fix_pre	0		12.0	37.0	2.5	/experiments/knapen_aot/oldvideos/S_pexels-koolshooters-7691440.mp4	0.0	224.20359206199646	0.10038208961486816
39	104.86493110656738	response	0	2		37.0	2.5	/experiments/knapen_aot/oldvideos/S_pexels-koolshooters-7691440.mp4	0.0	224.29527616500854	
39	104.87362909317017	movie	1		164.0	37.0	2.5	/experiments/knapen_aot/oldvideos/S_pexels-koolshooters-7691440.mp4	0.0	224.30397415161133	2.507859945297241
39	107.38148903846741	fix_post	2		12.0	37.0	2.5	/experiments/knapen_aot/oldvideos/S_pexels-koolshooters-7691440.mp4	0.0	226.81183409690857	0.09997105598449707
40	107.4814600944519	fix_pre	0		8.0	38.0	2.5	/experiments/knapen_aot/oldvideos/R_S_comp_GMT312_162NC_139M_1041_AFRICA_NIGHT_v14_SDR_FINAL_20180706_SDR_2K_AVC.mp4	0.0	226.91180515289307	0.06667494773864746
40	107.53239107131958	response	0	2		38.0	2.5	/experiments/knapen_aot/oldvideos/R_S_comp_GMT312_162NC_139M_1041_AFRICA_NIGHT_v14_SDR_FINAL_20180706_SDR_2K_AVC.mp4	0.0	226.96273612976074	
40	107.54813504219055	movie	1		164.0	38.0	2.5	/experiments/knapen_aot/oldvideos/R_S_comp_GMT312_162NC_139M_1041_AFRICA_NIGHT_v14_SDR_FINAL_20180706_SDR_2K_AVC.mp4	0.0	226.9784801006317	2.508415937423706
40	110.05655097961426	fix_post	2		12.0	38.0	2.5	/experiments/knapen_aot/oldvideos/R_S_comp_GMT312_162NC_139M_1041_AFRICA_NIGHT_v14_SDR_FINAL_20180706_SDR_2K_AVC.mp4	0.0	229.48689603805542	0.09997200965881348
41	110.15652298927307	fix_pre	0		5.0	39.0	2.5	/experiments/knapen_aot/oldvideos/R_S_yt-KQq7vTlXUiQ_173.mp4	0.0	229.58686804771423	0.04156804084777832
41	110.18249893188477	response	0	2		39.0	2.5	/experiments/knapen_aot/oldvideos/R_S_yt-KQq7vTlXUiQ_173.mp4	0.0	229.61284399032593	
41	110.19809103012085	movie	1		301.0	39.0	2.5	/experiments/knapen_aot/oldvideos/R_S_yt-KQq7vTlXUiQ_173.mp4	0.0	229.628436088562	2.508336067199707
41	112.70642709732056	fix_post	2		12.0	39.0	2.5	/experiments/knapen_aot/oldvideos/R_S_yt-KQq7vTlXUiQ_173.mp4	0.0	232.13677215576172	0.10005903244018555
42	112.80648612976074	fix_pre	0		37.0	40.0	2.5	blank	1.0	232.2368311882019	0.30831480026245117
42	113.10651111602783	response	0	2		40.0	2.5	blank	1.0	232.536856174469	
42	113.1148009300232	movie	1		301.0	40.0	2.5	blank	1.0	232.54514598846436	2.5083420276641846
42	115.62314295768738	fix_post	2		12.0	40.0	2.5	blank	1.0	235.05348801612854	0.0999760627746582
43	115.72311902046204	fix_pre	0		24.0	41.0	2.5	/experiments/knapen_aot/oldvideos/S_yt-aiDGx4AN8J0_9.mp4	0.0	235.1534640789032	0.2000110149383545
43	115.91491913795471	response	0	2		41.0	2.5	/experiments/knapen_aot/oldvideos/S_yt-aiDGx4AN8J0_9.mp4	0.0	235.34526419639587	
43	115.92313003540039	movie	1		301.0	41.0	2.5	/experiments/knapen_aot/oldvideos/S_yt-aiDGx4AN8J0_9.mp4	0.0	235.35347509384155	2.508496046066284
43	118.43162608146667	fix_post	2		12.0	41.0	2.5	/experiments/knapen_aot/oldvideos/S_yt-aiDGx4AN8J0_9.mp4	0.0	237.86197113990784	0.09977984428405762
44	118.53140592575073	fix_pre	0		64.0	42.0	2.5	/experiments/knapen_aot/oldvideos/R_S_yt-kxWtOXNIsRA_329.mp4	0.0	237.9617509841919	0.5333490371704102
44	119.05658197402954	response	0	2		42.0	2.5	/experiments/knapen_aot/oldvideos/R_S_yt-kxWtOXNIsRA_329.mp4	0.0	238.4869270324707	
44	119.06475496292114	movie	1		301.0	42.0	2.5	/experiments/knapen_aot/oldvideos/R_S_yt-kxWtOXNIsRA_329.mp4	0.0	238.4951000213623	2.508296012878418
44	121.57305097579956	fix_post	2		12.0	42.0	2.5	/experiments/knapen_aot/oldvideos/R_S_yt-kxWtOXNIsRA_329.mp4	0.0	241.00339603424072	0.10008907318115234
45	121.67314004898071	fix_pre	0		23.0	43.0	2.5	/experiments/knapen_aot/oldvideos/R_S_production_ID_4820325.mp4	0.0	241.10348510742188	0.19156694412231445
45	121.85652112960815	response	0	2		43.0	2.5	/experiments/knapen_aot/oldvideos/R_S_production_ID_4820325.mp4	0.0	241.28686618804932	
45	121.86470699310303	movie	1		168.0	43.0	2.5	/experiments/knapen_aot/oldvideos/R_S_production_ID_4820325.mp4	0.0	241.2950520515442	2.5085220336914062
45	124.37322902679443	fix_post	2		12.0	43.0	2.5	/experiments/knapen_aot/oldvideos/R_S_production_ID_4820325.mp4	0.0	243.8035740852356	0.09985208511352539
46	124.47308111190796	fix_pre	0		16.0	44.0	2.5	/experiments/knapen_aot/oldvideos/S_yt-uSHBdUi8_V0_24.mp4	0.0	243.90342617034912	0.13330984115600586
46	124.59814310073853	response	0	2		44.0	2.5	/experiments/knapen_aot/oldvideos/S_yt-uSHBdUi8_V0_24.mp4	0.0	244.0284881591797	
46	124.60639095306396	movie	1		301.0	44.0	2.5	/experiments/knapen_aot/oldvideos/S_yt-uSHBdUi8_V0_24.mp4	0.0	244.03673601150513	2.5084660053253174
46	127.11485695838928	fix_post	2		12.0	44.0	2.5	/experiments/knapen_aot/oldvideos/S_yt-uSHBdUi8_V0_24.mp4	0.0	246.54520201683044	0.09991002082824707
47	127.21476697921753	fix_pre	0		19.0	45.0	2.5	/experiments/knapen_aot/oldvideos/R_S_yt-H45g6700wbc_159.mp4	0.0	246.6451120376587	0.15860605239868164
47	127.36484098434448	response	0	2		45.0	2.5	/experiments/knapen_aot/oldvideos/R_S_yt-H45g6700wbc_159.mp4	0.0	246.79518604278564	
47	127.37337303161621	movie	1		301.0	45.0	2.5	/experiments/knapen_aot/oldvideos/R_S_yt-H45g6700wbc_159.mp4	0.0	246.80371809005737	2.5080249309539795
47	129.8813979625702	fix_post	2		12.0	45.0	2.5	/experiments/knapen_aot/oldvideos/R_S_yt-H45g6700wbc_159.mp4	0.0	249.31174302101135	0.0999600887298584
48	129.98135805130005	fix_pre	0		44.0	46.0	2.5	/experiments/knapen_aot/oldvideos/R_S_pexels-pavel-danilyuk-8057714.mp4	0.0	249.4117031097412	0.36663198471069336
48	130.33980703353882	response	0	2		46.0	2.5	/experiments/knapen_aot/oldvideos/R_S_pexels-pavel-danilyuk-8057714.mp4	0.0	249.77015209197998	
48	130.34799003601074	movie	1		166.0	46.0	2.5	/experiments/knapen_aot/oldvideos/R_S_pexels-pavel-danilyuk-8057714.mp4	0.0	249.7783350944519	2.508420944213867
48	132.8564109802246	fix_post	2		12.0	46.0	2.5	/experiments/knapen_aot/oldvideos/R_S_pexels-pavel-danilyuk-8057714.mp4	0.0	252.28675603866577	0.10030508041381836
49	132.95671606063843	fix_pre	0		24.0	47.0	2.5	/experiments/knapen_aot/oldvideos/S_production_ID_4101242.mp4	0.0	252.3870611190796	0.19967198371887207
49	133.1481430530548	response	0	2		47.0	2.5	/experiments/knapen_aot/oldvideos/S_production_ID_4101242.mp4	0.0	252.57848811149597	
49	133.1563880443573	movie	1		204.0	47.0	2.5	/experiments/knapen_aot/oldvideos/S_production_ID_4101242.mp4	0.0	252.58673310279846	2.508331060409546
49	135.66471910476685	fix_post	2		12.0	47.0	2.5	/experiments/knapen_aot/oldvideos/S_production_ID_4101242.mp4	0.0	255.095064163208	0.09996485710144043
50	135.7646839618683	fix_pre	0		23.0	48.0	2.5	blank	1.0	255.19502902030945	0.19197416305541992
50	135.94820404052734	response	0	2		48.0	2.5	blank	1.0	255.3785490989685	
50	135.9566581249237	movie	1		301.0	48.0	2.5	blank	1.0	255.38700318336487	2.5080389976501465
50	138.46469712257385	fix_post	2		12.0	48.0	2.5	blank	1.0	257.895042181015	0.09998178482055664
51	138.5646789073944	fix_pre	0		26.0	49.0	2.5	/experiments/knapen_aot/oldvideos/S_ILSVRC2015_train_00460000.mp4	0.0	257.99502396583557	0.21674108505249023
51	138.77310609817505	response	0	2		49.0	2.5	/experiments/knapen_aot/oldvideos/S_ILSVRC2015_train_00460000.mp4	0.0	258.2034511566162	
51	138.7814199924469	movie	1		301.0	49.0	2.5	/experiments/knapen_aot/oldvideos/S_ILSVRC2015_train_00460000.mp4	0.0	258.21176505088806	2.5082859992980957
51	141.289705991745	fix_post	2		12.0	49.0	2.5	/experiments/knapen_aot/oldvideos/S_ILSVRC2015_train_00460000.mp4	0.0	260.72005105018616	0.09992504119873047
52	141.38963103294373	fix_pre	0		27.0	50.0	2.5	/experiments/knapen_aot/oldvideos/S_yt-UBqUhu-GEVg_6.mp4	0.0	260.8199760913849	0.22500991821289062
52	141.60652709007263	response	0	2		50.0	2.5	/experiments/knapen_aot/oldvideos/S_yt-UBqUhu-GEVg_6.mp4	0.0	261.0368721485138	
52	141.61464095115662	movie	1		301.0	50.0	2.5	/experiments/knapen_aot/oldvideos/S_yt-UBqUhu-GEVg_6.mp4	0.0	261.0449860095978	2.508409023284912
52	144.12304997444153	fix_post	2		12.0	50.0	2.5	/experiments/knapen_aot/oldvideos/S_yt-UBqUhu-GEVg_6.mp4	0.0	263.5533950328827	0.09994101524353027
53	144.22299098968506	fix_pre	0		29.0	51.0	2.5	/experiments/knapen_aot/oldvideos/R_S_yt-i1h9ZiYZ86U_28.mp4	0.0	263.6533360481262	0.24164104461669922
53	144.45646500587463	response	0	2		51.0	2.5	/experiments/knapen_aot/oldvideos/R_S_yt-i1h9ZiYZ86U_28.mp4	0.0	263.8868100643158	
53	144.46463203430176	movie	1		301.0	51.0	2.5	/experiments/knapen_aot/oldvideos/R_S_yt-i1h9ZiYZ86U_28.mp4	0.0	263.8949770927429	2.5084068775177
53	146.97303891181946	fix_post	2		12.0	51.0	2.5	/experiments/knapen_aot/oldvideos/R_S_yt-i1h9ZiYZ86U_28.mp4	0.0	266.4033839702606	0.09995222091674805
54	147.0729911327362	fix_pre	0		15.0	52.0	2.5	/experiments/knapen_aot/oldvideos/S_wc-DcFDe419cL3d_17.mp4	0.0	266.50333619117737	0.12494397163391113
54	147.1897361278534	response	0	2		52.0	2.5	/experiments/knapen_aot/oldvideos/S_wc-DcFDe419cL3d_17.mp4	0.0	266.62008118629456	
54	147.19793510437012	movie	1		167.0	52.0	2.5	/experiments/knapen_aot/oldvideos/S_wc-DcFDe419cL3d_17.mp4	0.0	266.6282801628113	2.508349895477295
54	149.7062849998474	fix_post	2		12.0	52.0	2.5	/experiments/knapen_aot/oldvideos/S_wc-DcFDe419cL3d_17.mp4	0.0	269.1366300582886	0.10002994537353516
55	149.80631494522095	fix_pre	0		20.0	53.0	2.5	/experiments/knapen_aot/oldvideos/R_S_yt-PltpRRYmQQk_62.mp4	0.0	269.2366600036621	0.16669917106628418
55	149.96469902992249	response	0	2		53.0	2.5	/experiments/knapen_aot/oldvideos/R_S_yt-PltpRRYmQQk_62.mp4	0.0	269.39504408836365	
55	149.97301411628723	movie	1		301.0	53.0	2.5	/experiments/knapen_aot/oldvideos/R_S_yt-PltpRRYmQQk_62.mp4	0.0	269.4033591747284	2.5082249641418457
55	152.48123908042908	fix_post	2		12.0	53.0	2.5	/experiments/knapen_aot/oldvideos/R_S_yt-PltpRRYmQQk_62.mp4	0.0	271.91158413887024	0.10002803802490234
56	152.58126711845398	fix_pre	0		10.0	54.0	2.5	/experiments/knapen_aot/oldvideos/R_S_comp_N008_C009_PS_v01_SDR_PS_20180925_SDR_2K_AVC.mp4	0.0	272.01161217689514	0.08363580703735352
56	152.6487331390381	response	0	2		54.0	2.5	/experiments/knapen_aot/oldvideos/R_S_comp_N008_C009_PS_v01_SDR_PS_20180925_SDR_2K_AVC.mp4	0.0	272.07907819747925	
56	152.66490292549133	movie	1		169.0	54.0	2.5	/experiments/knapen_aot/oldvideos/R_S_comp_N008_C009_PS_v01_SDR_PS_20180925_SDR_2K_AVC.mp4	0.0	272.0952479839325	2.508012056350708
56	155.17291498184204	fix_post	2		12.0	54.0	2.5	/experiments/knapen_aot/oldvideos/R_S_comp_N008_C009_PS_v01_SDR_PS_20180925_SDR_2K_AVC.mp4	0.0	274.6032600402832	0.10009598731994629
57	155.273010969162	fix_pre	0		29.0	55.0	2.5	/experiments/knapen_aot/oldvideos/S_yt-1_xoCNmTn3Y_1.mp4	0.0	274.70335602760315	0.2415311336517334
57	155.5062849521637	response	0	2		55.0	2.5	/experiments/knapen_aot/oldvideos/S_yt-1_xoCNmTn3Y_1.mp4	0.0	274.93663001060486	
57	155.51454210281372	movie	1		301.0	55.0	2.5	/experiments/knapen_aot/oldvideos/S_yt-1_xoCNmTn3Y_1.mp4	0.0	274.9448871612549	2.508319854736328
57	158.02286195755005	fix_post	2		12.0	55.0	2.5	/experiments/knapen_aot/oldvideos/S_yt-1_xoCNmTn3Y_1.mp4	0.0	277.4532070159912	0.10024905204772949
58	158.12311100959778	fix_pre	0		21.0	56.0	2.5	blank	1.0	277.55345606803894	0.1747739315032959
58	158.28977012634277	response	0	2		56.0	2.5	blank	1.0	277.72011518478394	
58	158.29788494110107	movie	1		301.0	56.0	2.5	blank	1.0	277.72822999954224	2.5083351135253906
58	160.80622005462646	fix_post	2		12.0	56.0	2.5	blank	1.0	280.2365651130676	0.09998393058776855
59	160.90620398521423	fix_pre	0		11.0	57.0	2.5	/experiments/knapen_aot/oldvideos/S_ILSVRC2015_train_00556000.mp4	0.0	280.3365490436554	0.09187507629394531
59	160.98962712287903	response	0	2		57.0	2.5	/experiments/knapen_aot/oldvideos/S_ILSVRC2015_train_00556000.mp4	0.0	280.4199721813202	
59	160.99807906150818	movie	1		301.0	57.0	2.5	/experiments/knapen_aot/oldvideos/S_ILSVRC2015_train_00556000.mp4	0.0	280.42842411994934	2.5081028938293457
59	163.50618195533752	fix_post	2		12.0	57.0	2.5	/experiments/knapen_aot/oldvideos/S_ILSVRC2015_train_00556000.mp4	0.0	282.9365270137787	0.10001111030578613
60	163.6061930656433	fix_pre	0		5.0	58.0	2.5	/experiments/knapen_aot/oldvideos/S_yt-O6FS0xnF0CU_106.mp4	0.0	283.0365381240845	0.04164290428161621
60	163.63962602615356	response	0	2		58.0	2.5	/experiments/knapen_aot/oldvideos/S_yt-O6FS0xnF0CU_106.mp4	0.0	283.0699710845947	
60	163.64783596992493	movie	1		301.0	58.0	2.5	/experiments/knapen_aot/oldvideos/S_yt-O6FS0xnF0CU_106.mp4	0.0	283.0781810283661	2.508392095565796
60	166.15622806549072	fix_post	2		12.0	58.0	2.5	/experiments/knapen_aot/oldvideos/S_yt-O6FS0xnF0CU_106.mp4	0.0	285.5865731239319	0.10016703605651855
61	166.25639510154724	fix_pre	0		6.0	59.0	2.5	/experiments/knapen_aot/oldvideos/S_ILSVRC2015_train_00415003.mp4	0.0	285.6867401599884	0.04981589317321777
61	166.29792594909668	response	0	2		59.0	2.5	/experiments/knapen_aot/oldvideos/S_ILSVRC2015_train_00415003.mp4	0.0	285.72827100753784	
61	166.30621099472046	movie	1		301.0	59.0	2.5	/experiments/knapen_aot/oldvideos/S_ILSVRC2015_train_00415003.mp4	0.0	285.7365560531616	2.508291006088257
61	168.81450200080872	fix_post	2		12.0	59.0	2.5	/experiments/knapen_aot/oldvideos/S_ILSVRC2015_train_00415003.mp4	0.0	288.2448470592499	0.10022211074829102
62	168.914724111557	fix_pre	0		30.0	60.0	2.5	/experiments/knapen_aot/oldvideos/S_ILSVRC2015_train_00457000.mp4	0.0	288.34506916999817	0.24986982345581055
62	169.15627598762512	response	0	2		60.0	2.5	/experiments/knapen_aot/oldvideos/S_ILSVRC2015_train_00457000.mp4	0.0	288.5866210460663	
62	169.16459393501282	movie	1		301.0	60.0	2.5	/experiments/knapen_aot/oldvideos/S_ILSVRC2015_train_00457000.mp4	0.0	288.594938993454	2.5082240104675293
62	171.67281794548035	fix_post	2		12.0	60.0	2.5	/experiments/knapen_aot/oldvideos/S_ILSVRC2015_train_00457000.mp4	0.0	291.1031630039215	0.09999418258666992
63	171.77281212806702	fix_pre	0		85.0	61.0	2.5	/experiments/knapen_aot/oldvideos/S_yt-AiXq1oDrEXI_123.mp4	0.0	291.2031571865082	0.7083048820495605
63	172.4729061126709	response	0	2		61.0	2.5	/experiments/knapen_aot/oldvideos/S_yt-AiXq1oDrEXI_123.mp4	0.0	291.90325117111206	
63	172.48111701011658	movie	1		301.0	61.0	2.5	/experiments/knapen_aot/oldvideos/S_yt-AiXq1oDrEXI_123.mp4	0.0	291.91146206855774	2.508357048034668
63	174.98947405815125	fix_post	2		12.0	61.0	2.5	/experiments/knapen_aot/oldvideos/S_yt-AiXq1oDrEXI_123.mp4	0.0	294.4198191165924	0.10004186630249023
64	175.08951592445374	fix_pre	0		25.0	62.0	2.5	blank	1.0	294.5198609828949	0.20829105377197266
64	175.28964400291443	response	0	2		62.0	2.5	blank	1.0	294.7199890613556	
64	175.2978069782257	movie	1		301.0	62.0	2.5	blank	1.0	294.72815203666687	2.508310079574585
64	177.8061170578003	fix_post	2		12.0	62.0	2.5	blank	1.0	297.23646211624146	0.10002589225769043
65	177.90614295005798	fix_pre	0		42.0	63.0	2.5	/experiments/knapen_aot/oldvideos/S_yt-W4Shvmb1JYs_258.mp4	0.0	297.33648800849915	0.3499751091003418
65	178.24787211418152	response	0	2		63.0	2.5	/experiments/knapen_aot/oldvideos/S_yt-W4Shvmb1JYs_258.mp4	0.0	297.6782171726227	
65	178.25611805915833	movie	1		301.0	63.0	2.5	/experiments/knapen_aot/oldvideos/S_yt-W4Shvmb1JYs_258.mp4	0.0	297.6864631175995	2.5083210468292236
65	180.76443910598755	fix_post	2		12.0	63.0	2.5	/experiments/knapen_aot/oldvideos/S_yt-W4Shvmb1JYs_258.mp4	0.0	300.1947841644287	0.10002803802490234
66	180.86446714401245	fix_pre	0		22.0	64.0	2.5	/experiments/knapen_aot/oldvideos/R_S_production_ID_3735542.mp4	0.0	300.2948122024536	0.18345093727111816
66	181.0395679473877	response	0	2		64.0	2.5	/experiments/knapen_aot/oldvideos/R_S_production_ID_3735542.mp4	0.0	300.46991300582886	
66	181.04791808128357	movie	1		165.0	64.0	2.5	/experiments/knapen_aot/oldvideos/R_S_production_ID_3735542.mp4	0.0	300.47826313972473	2.508657932281494
66	183.55657601356506	fix_post	2		12.0	64.0	2.5	/experiments/knapen_aot/oldvideos/R_S_production_ID_3735542.mp4	0.0	302.9869210720062	0.0995340347290039
67	183.65611004829407	fix_pre	0		20.0	65.0	2.5	/experiments/knapen_aot/oldvideos/R_S_zAKvYNtmhuc_772.mp4	0.0	303.08645510673523	0.16665101051330566
67	183.80706191062927	response	0	2		65.0	2.5	/experiments/knapen_aot/oldvideos/R_S_zAKvYNtmhuc_772.mp4	0.0	303.23740696907043	
67	183.82276105880737	movie	1		301.0	65.0	2.5	/experiments/knapen_aot/oldvideos/R_S_zAKvYNtmhuc_772.mp4	0.0	303.25310611724854	2.5084400177001953
67	186.33120107650757	fix_post	2		12.0	65.0	2.5	/experiments/knapen_aot/oldvideos/R_S_zAKvYNtmhuc_772.mp4	0.0	305.76154613494873	0.09989500045776367
68	186.43109607696533	fix_pre	0		114.0	66.0	2.5	/experiments/knapen_aot/oldvideos/S_yt-3JApfnMu5cU_378.mp4	0.0	305.8614411354065	0.9499599933624268
68	187.37285995483398	response	0	2		66.0	2.5	/experiments/knapen_aot/oldvideos/S_yt-3JApfnMu5cU_378.mp4	0.0	306.80320501327515	
68	187.38105607032776	movie	1		301.0	66.0	2.5	/experiments/knapen_aot/oldvideos/S_yt-3JApfnMu5cU_378.mp4	0.0	306.8114011287689	2.508368968963623
68	189.88942503929138	fix_post	2		12.0	66.0	2.5	/experiments/knapen_aot/oldvideos/S_yt-3JApfnMu5cU_378.mp4	0.0	309.31977009773254	0.10001802444458008
69	189.98944306373596	fix_pre	0		25.0	67.0	2.5	/experiments/knapen_aot/oldvideos/R_S_ILSVRC2015_train_00565000.mp4	0.0	309.4197881221771	0.208251953125
69	190.1895010471344	response	0	2		67.0	2.5	/experiments/knapen_aot/oldvideos/R_S_ILSVRC2015_train_00565000.mp4	0.0	309.61984610557556	
69	190.19769501686096	movie	1		301.0	67.0	2.5	/experiments/knapen_aot/oldvideos/R_S_ILSVRC2015_train_00565000.mp4	0.0	309.6280400753021	2.5083820819854736
69	192.70607709884644	fix_post	2		12.0	67.0	2.5	/experiments/knapen_aot/oldvideos/R_S_ILSVRC2015_train_00565000.mp4	0.0	312.1364221572876	0.09999394416809082
70	192.80607104301453	fix_pre	0		37.0	68.0	2.5	blank	1.0	312.2364161014557	0.3082609176635742
70	193.10621809959412	response	0	2		68.0	2.5	blank	1.0	312.5365631580353	
70	193.1143319606781	movie	1		301.0	68.0	2.5	blank	1.0	312.54467701911926	2.5084121227264404
70	195.62274408340454	fix_post	2		12.0	68.0	2.5	blank	1.0	315.0530891418457	0.09997892379760742
71	195.72272300720215	fix_pre	0		56.0	69.0	2.5	/experiments/knapen_aot/oldvideos/S_yt-fqbi4rGc9dk_65.mp4	0.0	315.1530680656433	0.466602087020874
71	196.18118810653687	response	0	2		69.0	2.5	/experiments/knapen_aot/oldvideos/S_yt-fqbi4rGc9dk_65.mp4	0.0	315.611533164978	
71	196.18932509422302	movie	1		301.0	69.0	2.5	/experiments/knapen_aot/oldvideos/S_yt-fqbi4rGc9dk_65.mp4	0.0	315.6196701526642	2.508405923843384
71	198.6977310180664	fix_post	2		12.0	69.0	2.5	/experiments/knapen_aot/oldvideos/S_yt-fqbi4rGc9dk_65.mp4	0.0	318.12807607650757	0.0999898910522461
72	198.79772090911865	fix_pre	0		27.0	70.0	2.5	/experiments/knapen_aot/oldvideos/R_S_yt-8vm83GUgYxI_1.mp4	0.0	318.2280659675598	0.22485613822937012
72	199.0144441127777	response	0	2		70.0	2.5	/experiments/knapen_aot/oldvideos/R_S_yt-8vm83GUgYxI_1.mp4	0.0	318.4447891712189	
72	199.02257704734802	movie	1		301.0	70.0	2.5	/experiments/knapen_aot/oldvideos/R_S_yt-8vm83GUgYxI_1.mp4	0.0	318.4529221057892	2.508523941040039
72	201.53110098838806	fix_post	2		12.0	70.0	2.5	/experiments/knapen_aot/oldvideos/R_S_yt-8vm83GUgYxI_1.mp4	0.0	320.9614460468292	0.09996414184570312
73	201.63106513023376	fix_pre	0		79.0	71.0	2.5	/experiments/knapen_aot/oldvideos/R_S_yt-Wf-RauSbVgA_56.mp4	0.0	321.0614101886749	0.6583077907562256
73	202.28116106987	response	0	2		71.0	2.5	/experiments/knapen_aot/oldvideos/R_S_yt-Wf-RauSbVgA_56.mp4	0.0	321.71150612831116	
73	202.28937292099	movie	1		301.0	71.0	2.5	/experiments/knapen_aot/oldvideos/R_S_yt-Wf-RauSbVgA_56.mp4	0.0	321.71971797943115	2.5082340240478516
73	204.79760694503784	fix_post	2		12.0	71.0	2.5	/experiments/knapen_aot/oldvideos/R_S_yt-Wf-RauSbVgA_56.mp4	0.0	324.227952003479	0.10026907920837402
74	204.89787602424622	fix_pre	0		19.0	72.0	2.5	/experiments/knapen_aot/oldvideos/S_yt-jUGt_Byqczw_599.mp4	0.0	324.3282210826874	0.15803003311157227
74	205.04776191711426	response	0	2		72.0	2.5	/experiments/knapen_aot/oldvideos/S_yt-jUGt_Byqczw_599.mp4	0.0	324.4781069755554	
74	205.0559060573578	movie	1		301.0	72.0	2.5	/experiments/knapen_aot/oldvideos/S_yt-jUGt_Byqczw_599.mp4	0.0	324.48625111579895	2.508504867553711
74	206.78254914283752	response	1	2		72.0	2.5	/experiments/knapen_aot/oldvideos/S_yt-jUGt_Byqczw_599.mp4	0.0	326.2128942012787	
74	207.5644109249115	fix_post	2		12.0	72.0	2.5	/experiments/knapen_aot/oldvideos/S_yt-jUGt_Byqczw_599.mp4	0.0	326.99475598335266	0.10007119178771973
75	207.66448211669922	fix_pre	0		161.0	73.0	2.5	/experiments/knapen_aot/oldvideos/S_comp_LA_A006_C004_v01_SDR_FINAL_PS_20180730_SDR_2K_AVC.mp4	0.0	327.0948271751404	1.341506004333496
75	208.99782299995422	response	0	2		73.0	2.5	/experiments/knapen_aot/oldvideos/S_comp_LA_A006_C004_v01_SDR_FINAL_PS_20180730_SDR_2K_AVC.mp4	0.0	328.4281680583954	
75	209.00598812103271	movie	1		166.0	73.0	2.5	/experiments/knapen_aot/oldvideos/S_comp_LA_A006_C004_v01_SDR_FINAL_PS_20180730_SDR_2K_AVC.mp4	0.0	328.4363331794739	2.508344888687134
75	211.51433300971985	fix_post	2		12.0	73.0	2.5	/experiments/knapen_aot/oldvideos/S_comp_LA_A006_C004_v01_SDR_FINAL_PS_20180730_SDR_2K_AVC.mp4	0.0	330.944678068161	0.09996199607849121
76	211.61429500579834	fix_pre	0		19.0	74.0	2.5	/experiments/knapen_aot/oldvideos/R_S_yt-MXLxcvKZDHw_22.mp4	0.0	331.0446400642395	0.15846490859985352
76	211.75696992874146	response	0	2		74.0	2.5	/experiments/knapen_aot/oldvideos/R_S_yt-MXLxcvKZDHw_22.mp4	0.0	331.1873149871826	
76	211.7727599143982	movie	1		301.0	74.0	2.5	/experiments/knapen_aot/oldvideos/R_S_yt-MXLxcvKZDHw_22.mp4	0.0	331.20310497283936	2.5082411766052246
76	214.28100109100342	fix_post	2		12.0	74.0	2.5	/experiments/knapen_aot/oldvideos/R_S_yt-MXLxcvKZDHw_22.mp4	0.0	333.7113461494446	0.09989404678344727
77	214.38089513778687	fix_pre	0		34.0	75.0	2.5	/experiments/knapen_aot/oldvideos/S_yt-R-SETZtYWaA_336.mp4	0.0	333.811240196228	0.28339385986328125
77	214.65606594085693	response	0	2		75.0	2.5	/experiments/knapen_aot/oldvideos/S_yt-R-SETZtYWaA_336.mp4	0.0	334.0864109992981	
77	214.66428899765015	movie	1		301.0	75.0	2.5	/experiments/knapen_aot/oldvideos/S_yt-R-SETZtYWaA_336.mp4	0.0	334.0946340560913	2.508419990539551
77	217.1727089881897	fix_post	2		12.0	75.0	2.5	/experiments/knapen_aot/oldvideos/S_yt-R-SETZtYWaA_336.mp4	0.0	336.60305404663086	0.09993815422058105
78	217.27264714241028	fix_pre	0		96.0	76.0	2.5	/experiments/knapen_aot/oldvideos/S_yt-jQrMcUCmAaM_44.mp4	0.0	336.70299220085144	0.7998878955841064
78	218.06436014175415	response	0	2		76.0	2.5	/experiments/knapen_aot/oldvideos/S_yt-jQrMcUCmAaM_44.mp4	0.0	337.4947052001953	
78	218.07253503799438	movie	1		301.0	76.0	2.5	/experiments/knapen_aot/oldvideos/S_yt-jQrMcUCmAaM_44.mp4	0.0	337.50288009643555	2.5087780952453613
78	220.58131313323975	fix_post	2		12.0	76.0	2.5	/experiments/knapen_aot/oldvideos/S_yt-jQrMcUCmAaM_44.mp4	0.0	340.0116581916809	0.0996239185333252
79	220.68093705177307	fix_pre	0		20.0	77.0	2.5	blank	1.0	340.11128211021423	0.16676998138427734
79	220.8393669128418	response	0	2		77.0	2.5	blank	1.0	340.26971197128296	
79	220.84770703315735	movie	1		301.0	77.0	2.5	blank	1.0	340.2780520915985	2.508352041244507
79	223.35605907440186	fix_post	2		12.0	77.0	2.5	blank	1.0	342.786404132843	0.0999000072479248
80	223.45595908164978	fix_pre	0		39.0	78.0	2.5	/experiments/knapen_aot/oldvideos/S_production_ID_5119260.mp4	0.0	342.88630414009094	0.3262460231781006
80	223.77268600463867	response	0	2		78.0	2.5	/experiments/knapen_aot/oldvideos/S_production_ID_5119260.mp4	0.0	343.20303106307983	
80	223.78220510482788	movie	1		167.0	78.0	2.5	/experiments/knapen_aot/oldvideos/S_production_ID_5119260.mp4	0.0	343.21255016326904	2.50710391998291
80	226.2893090248108	fix_post	2		12.0	78.0	2.5	/experiments/knapen_aot/oldvideos/S_production_ID_5119260.mp4	0.0	345.71965408325195	0.09990191459655762
81	226.38921093940735	fix_pre	0		22.0	79.0	2.5	/experiments/knapen_aot/oldvideos/R_S_yt-urJgH6tpfkU_204.mp4	0.0	345.8195559978485	0.18329119682312012
81	226.5643241405487	response	0	2		79.0	2.5	/experiments/knapen_aot/oldvideos/R_S_yt-urJgH6tpfkU_204.mp4	0.0	345.99466919898987	
81	226.57250213623047	movie	1		301.0	79.0	2.5	/experiments/knapen_aot/oldvideos/R_S_yt-urJgH6tpfkU_204.mp4	0.0	346.00284719467163	2.5083649158477783
81	229.08086705207825	fix_post	2		12.0	79.0	2.5	/experiments/knapen_aot/oldvideos/R_S_yt-urJgH6tpfkU_204.mp4	0.0	348.5112121105194	0.10004186630249023
82	229.18090891838074	fix_pre	0		23.0	80.0	2.5	/experiments/knapen_aot/oldvideos/S_yt-YEiNSML5iiQ_18.mp4	0.0	348.6112539768219	0.19163799285888672
82	229.36433696746826	response	0	2		80.0	2.5	/experiments/knapen_aot/oldvideos/S_yt-YEiNSML5iiQ_18.mp4	0.0	348.7946820259094	
82	229.37254691123962	movie	1		301.0	80.0	2.5	/experiments/knapen_aot/oldvideos/S_yt-YEiNSML5iiQ_18.mp4	0.0	348.8028919696808	2.5087270736694336
82	231.88127398490906	fix_post	2		12.0	80.0	2.5	/experiments/knapen_aot/oldvideos/S_yt-YEiNSML5iiQ_18.mp4	0.0	351.3116190433502	0.0996711254119873
83	231.98094511032104	fix_pre	0		45.0	81.0	2.5	/experiments/knapen_aot/oldvideos/R_S_yt-d5jBQ-LOW2I_17.mp4	0.0	351.4112901687622	0.37488389015197754
83	232.34763407707214	response	0	2		81.0	2.5	/experiments/knapen_aot/oldvideos/R_S_yt-d5jBQ-LOW2I_17.mp4	0.0	351.7779791355133	
83	232.35582900047302	movie	1		301.0	81.0	2.5	/experiments/knapen_aot/oldvideos/R_S_yt-d5jBQ-LOW2I_17.mp4	0.0	351.7861740589142	2.5087509155273438
83	234.86457991600037	fix_post	2		12.0	81.0	2.5	/experiments/knapen_aot/oldvideos/R_S_yt-d5jBQ-LOW2I_17.mp4	0.0	354.2949249744415	0.09988713264465332
84	234.96446704864502	fix_pre	0		34.0	82.0	2.5	/experiments/knapen_aot/oldvideos/R_S_8J_zE6r82MY_71.mp4	0.0	354.3948121070862	0.28302693367004395
84	235.23926997184753	response	0	2		82.0	2.5	/experiments/knapen_aot/oldvideos/R_S_8J_zE6r82MY_71.mp4	0.0	354.6696150302887	
84	235.24749398231506	movie	1		301.0	82.0	2.5	/experiments/knapen_aot/oldvideos/R_S_8J_zE6r82MY_71.mp4	0.0	354.6778390407562	2.508419990539551
84	237.75591397285461	fix_post	2		12.0	82.0	2.5	/experiments/knapen_aot/oldvideos/R_S_8J_zE6r82MY_71.mp4	0.0	357.1862590312958	0.09995412826538086
85	237.85586810112	fix_pre	0		20.0	83.0	2.5	blank	1.0	357.28621315956116	0.1665329933166504
85	238.01426911354065	response	0	2		83.0	2.5	blank	1.0	357.4446141719818	
85	238.02240109443665	movie	1		301.0	83.0	2.5	blank	1.0	357.4527461528778	2.5086829662323
85	240.53108406066895	fix_post	2		12.0	83.0	2.5	blank	1.0	359.9614291191101	0.09975004196166992
87	240.63083410263062	stim	0		187.0					360.0611791610718	1.560865879058838
87	242.18463802337646	response	0	space						361.6149830818176	
