trial_nr	onset	event_type	phase	response	nr_frames	movie_index	movie_duration	movie_file	blank	onset_abs	duration
0	0.12657904624938965	stim	0		64.0					75.74494194984436	0.5331480503082275
0	0.6491570472717285	response	0	space						76.2675199508667	
1	0.6597270965576172	stim	0		121.0					76.27809000015259	1.0056869983673096
1	1.6654140949249268	stim	1		120.0					77.2837769985199	0.9999499320983887
1	1.898906946182251	response	1	space						77.51726984977722	
2	2.6653640270233154	fix_pre	0		66.0	0.0	2.5	/experiments/knapen_aot/videos/R_S_yt-2IN85w8ptmM_51.mp4	0.0	78.28372693061829	0.5500349998474121
2	3.1997320652008057	response	0	space		0.0	2.5	/experiments/knapen_aot/videos/R_S_yt-2IN85w8ptmM_51.mp4	0.0	78.81809496879578	
2	3.2153990268707275	movie	1		300.0	0.0	2.5	/experiments/knapen_aot/videos/R_S_yt-2IN85w8ptmM_51.mp4	0.0	78.8337619304657	2.508352041244507
2	5.723751068115234	fix_post	2		12.0	0.0	2.5	/experiments/knapen_aot/videos/R_S_yt-2IN85w8ptmM_51.mp4	0.0	81.3421139717102	0.10001206398010254
3	5.823763132095337	fix_pre	0		18.0	1.0	2.5	/experiments/knapen_aot/videos/S_yt-pPIHiIYSjW8_653.mp4	0.0	81.44212603569031	0.14993596076965332
3	5.962785959243774	response	0	2		1.0	2.5	/experiments/knapen_aot/videos/S_yt-pPIHiIYSjW8_653.mp4	0.0	81.58114886283875	
3	5.97369909286499	movie	1		301.0	1.0	2.5	/experiments/knapen_aot/videos/S_yt-pPIHiIYSjW8_653.mp4	0.0	81.59206199645996	2.5083580017089844
3	7.757166147232056	response	1	4		1.0	2.5	/experiments/knapen_aot/videos/S_yt-pPIHiIYSjW8_653.mp4	0.0	83.37552905082703	
3	8.482057094573975	fix_post	2		12.0	1.0	2.5	/experiments/knapen_aot/videos/S_yt-pPIHiIYSjW8_653.mp4	0.0	84.10041999816895	0.1008749008178711
4	8.582931995391846	fix_pre	0		19.0	2.0	2.5	/experiments/knapen_aot/videos/S_video_inspire_texas_pecos_foggy-landscape_00018.1080-h264.mp4	0.0	84.20129489898682	0.15745306015014648
4	8.732216119766235	response	0	4		2.0	2.5	/experiments/knapen_aot/videos/S_video_inspire_texas_pecos_foggy-landscape_00018.1080-h264.mp4	0.0	84.3505790233612	
4	8.740385055541992	movie	1		166.0	2.0	2.5	/experiments/knapen_aot/videos/S_video_inspire_texas_pecos_foggy-landscape_00018.1080-h264.mp4	0.0	84.35874795913696	2.5083119869232178
4	11.24869704246521	fix_post	2		12.0	2.0	2.5	/experiments/knapen_aot/videos/S_video_inspire_texas_pecos_foggy-landscape_00018.1080-h264.mp4	0.0	86.86705994606018	0.09994196891784668
5	11.348639011383057	fix_pre	0		23.0	3.0	2.5	/experiments/knapen_aot/videos/S_BsNCrwV7d8Q_9.mp4	0.0	86.96700191497803	0.19254803657531738
5	11.532132148742676	response	0	2		3.0	2.5	/experiments/knapen_aot/videos/S_BsNCrwV7d8Q_9.mp4	0.0	87.15049505233765	
5	11.541187047958374	movie	1		301.0	3.0	2.5	/experiments/knapen_aot/videos/S_BsNCrwV7d8Q_9.mp4	0.0	87.15954995155334	2.5074639320373535
5	14.048650979995728	fix_post	2		12.0	3.0	2.5	/experiments/knapen_aot/videos/S_BsNCrwV7d8Q_9.mp4	0.0	89.6670138835907	0.09996700286865234
6	14.14861798286438	fix_pre	0		25.0	4.0	2.5	/experiments/knapen_aot/videos/S_yt-hQ5pge893b4_6.mp4	0.0	89.76698088645935	0.20837807655334473
6	14.348786115646362	response	0	2		4.0	2.5	/experiments/knapen_aot/videos/S_yt-hQ5pge893b4_6.mp4	0.0	89.96714901924133	
6	14.356996059417725	movie	1		300.0	4.0	2.5	/experiments/knapen_aot/videos/S_yt-hQ5pge893b4_6.mp4	0.0	89.9753589630127	2.5083279609680176
6	16.865324020385742	fix_post	2		12.0	4.0	2.5	/experiments/knapen_aot/videos/S_yt-hQ5pge893b4_6.mp4	0.0	92.48368692398071	0.1000521183013916
7	16.965376138687134	fix_pre	0		26.0	5.0	2.5	/experiments/knapen_aot/videos/S_yt-gikcYT6ZLzA_7.mp4	0.0	92.5837390422821	0.21663999557495117
7	17.17379403114319	response	0	4		5.0	2.5	/experiments/knapen_aot/videos/S_yt-gikcYT6ZLzA_7.mp4	0.0	92.79215693473816	
7	17.182016134262085	movie	1		301.0	5.0	2.5	/experiments/knapen_aot/videos/S_yt-gikcYT6ZLzA_7.mp4	0.0	92.80037903785706	2.508302927017212
7	19.690319061279297	fix_post	2		12.0	5.0	2.5	/experiments/knapen_aot/videos/S_yt-gikcYT6ZLzA_7.mp4	0.0	95.30868196487427	0.09997391700744629
8	19.790292978286743	fix_pre	0		24.0	6.0	2.5	blank	1.0	95.40865588188171	0.20006704330444336
8	19.982067108154297	response	0	2		6.0	2.5	blank	1.0	95.60043001174927	
8	19.990360021591187	movie	1		301.0	6.0	2.5	blank	1.0	95.60872292518616	2.5082409381866455
8	22.498600959777832	fix_post	2		12.0	6.0	2.5	blank	1.0	98.1169638633728	0.09997105598449707
9	22.59857201576233	fix_pre	0		23.0	7.0	2.5	/experiments/knapen_aot/videos/S_yt-Ek1jcvett9E_33.mp4	0.0	98.2169349193573	0.1924729347229004
9	22.782094955444336	response	0	4		7.0	2.5	/experiments/knapen_aot/videos/S_yt-Ek1jcvett9E_33.mp4	0.0	98.4004578590393	
9	22.79104495048523	movie	1		301.0	7.0	2.5	/experiments/knapen_aot/videos/S_yt-Ek1jcvett9E_33.mp4	0.0	98.4094078540802	2.507559061050415
9	25.298604011535645	fix_post	2		12.0	7.0	2.5	/experiments/knapen_aot/videos/S_yt-Ek1jcvett9E_33.mp4	0.0	100.91696691513062	0.09999203681945801
10	25.398596048355103	fix_pre	0		17.0	8.0	2.5	/experiments/knapen_aot/videos/S_ILSVRC2015_train_00569006.mp4	0.0	101.01695895195007	0.14244794845581055
10	25.532042980194092	response	0	2		8.0	2.5	/experiments/knapen_aot/videos/S_ILSVRC2015_train_00569006.mp4	0.0	101.15040588378906	
10	25.541043996810913	movie	1		301.0	8.0	2.5	/experiments/knapen_aot/videos/S_ILSVRC2015_train_00569006.mp4	0.0	101.15940690040588	2.5075621604919434
10	28.048606157302856	fix_post	2		12.0	8.0	2.5	/experiments/knapen_aot/videos/S_ILSVRC2015_train_00569006.mp4	0.0	103.66696906089783	0.09997797012329102
11	28.148584127426147	fix_pre	0		33.0	9.0	2.5	/experiments/knapen_aot/videos/S_ILSVRC2015_train_00628000.mp4	0.0	103.76694703102112	0.27498388290405273
11	28.415582180023193	response	0	2		9.0	2.5	/experiments/knapen_aot/videos/S_ILSVRC2015_train_00628000.mp4	0.0	104.03394508361816	
11	28.4235680103302	movie	1		299.0	9.0	2.5	/experiments/knapen_aot/videos/S_ILSVRC2015_train_00628000.mp4	0.0	104.04193091392517	2.508352041244507
11	30.931920051574707	fix_post	2		12.0	9.0	2.5	/experiments/knapen_aot/videos/S_ILSVRC2015_train_00628000.mp4	0.0	106.55028295516968	0.10004210472106934
12	31.031962156295776	fix_pre	0		28.0	10.0	2.5	/experiments/knapen_aot/videos/S_yt-IlW1U39Dga4_5.mp4	0.0	106.65032505989075	0.23325800895690918
12	31.257078170776367	response	0	2		10.0	2.5	/experiments/knapen_aot/videos/S_yt-IlW1U39Dga4_5.mp4	0.0	106.87544107437134	
12	31.265220165252686	movie	1		301.0	10.0	2.5	/experiments/knapen_aot/videos/S_yt-IlW1U39Dga4_5.mp4	0.0	106.88358306884766	2.508340835571289
12	33.773561000823975	fix_post	2		12.0	10.0	2.5	/experiments/knapen_aot/videos/S_yt-IlW1U39Dga4_5.mp4	0.0	109.39192390441895	0.09999704360961914
13	33.873558044433594	fix_pre	0		17.0	11.0	2.5	/experiments/knapen_aot/videos/R_S_yt-tneuR3EtSZE_72.mp4	0.0	109.49192094802856	0.14165592193603516
13	34.00701594352722	response	0	4		11.0	2.5	/experiments/knapen_aot/videos/R_S_yt-tneuR3EtSZE_72.mp4	0.0	109.62537884712219	
13	34.01521396636963	movie	1		301.0	11.0	2.5	/experiments/knapen_aot/videos/R_S_yt-tneuR3EtSZE_72.mp4	0.0	109.6335768699646	2.5083181858062744
13	36.5235321521759	fix_post	2		12.0	11.0	2.5	/experiments/knapen_aot/videos/R_S_yt-tneuR3EtSZE_72.mp4	0.0	112.14189505577087	0.09999990463256836
14	36.62353205680847	fix_pre	0		40.0	12.0	2.5	/experiments/knapen_aot/videos/S_yt-jzDaQD-g168_103.mp4	0.0	112.24189496040344	0.33400607109069824
14	36.94868612289429	response	0	2		12.0	2.5	/experiments/knapen_aot/videos/S_yt-jzDaQD-g168_103.mp4	0.0	112.56704902648926	
14	36.95753812789917	movie	1		301.0	12.0	2.5	/experiments/knapen_aot/videos/S_yt-jzDaQD-g168_103.mp4	0.0	112.57590103149414	2.5076608657836914
14	39.46519899368286	fix_post	2		12.0	12.0	2.5	/experiments/knapen_aot/videos/S_yt-jzDaQD-g168_103.mp4	0.0	115.08356189727783	0.10000896453857422
15	39.565207958221436	fix_pre	0		26.0	13.0	2.5	blank	1.0	115.1835708618164	0.21668004989624023
15	39.76627516746521	response	0	4		13.0	2.5	blank	1.0	115.38463807106018	
15	39.781888008117676	movie	1		301.0	13.0	2.5	blank	1.0	115.40025091171265	2.508286952972412
15	42.29017496109009	fix_post	2		12.0	13.0	2.5	blank	1.0	117.90853786468506	0.10002899169921875
16	42.39020395278931	fix_pre	0		25.0	14.0	2.5	/experiments/knapen_aot/videos/S_pexels-anthony-shkraba-7569650.mp4	0.0	118.00856685638428	0.20829415321350098
16	42.590293169021606	response	0	2		14.0	2.5	/experiments/knapen_aot/videos/S_pexels-anthony-shkraba-7569650.mp4	0.0	118.20865607261658	
16	42.59849810600281	movie	1		190.0	14.0	2.5	/experiments/knapen_aot/videos/S_pexels-anthony-shkraba-7569650.mp4	0.0	118.21686100959778	2.50838303565979
16	45.1068811416626	fix_post	2		12.0	14.0	2.5	/experiments/knapen_aot/videos/S_pexels-anthony-shkraba-7569650.mp4	0.0	120.72524404525757	0.10000300407409668
17	45.206884145736694	fix_pre	0		16.0	15.0	2.5	/experiments/knapen_aot/videos/R_S_yt-nqRBIR8dFYc_328.mp4	0.0	120.82524704933167	0.13336896896362305
17	45.331949949264526	response	0	4		15.0	2.5	/experiments/knapen_aot/videos/R_S_yt-nqRBIR8dFYc_328.mp4	0.0	120.9503128528595	
17	45.34025311470032	movie	1		301.0	15.0	2.5	/experiments/knapen_aot/videos/R_S_yt-nqRBIR8dFYc_328.mp4	0.0	120.95861601829529	2.5083320140838623
17	47.84858512878418	fix_post	2		12.0	15.0	2.5	/experiments/knapen_aot/videos/R_S_yt-nqRBIR8dFYc_328.mp4	0.0	123.46694803237915	0.0999748706817627
18	47.94855999946594	fix_pre	0		12.0	16.0	2.5	/experiments/knapen_aot/videos/S_yt-mQESmS4uqRU_208.mp4	0.0	123.56692290306091	0.10000109672546387
18	48.04032897949219	response	0	2		16.0	2.5	/experiments/knapen_aot/videos/S_yt-mQESmS4uqRU_208.mp4	0.0	123.65869188308716	
18	48.048561096191406	movie	1		301.0	16.0	2.5	/experiments/knapen_aot/videos/S_yt-mQESmS4uqRU_208.mp4	0.0	123.66692399978638	2.5083260536193848
18	50.55688714981079	fix_post	2		12.0	16.0	2.5	/experiments/knapen_aot/videos/S_yt-mQESmS4uqRU_208.mp4	0.0	126.17525005340576	0.09991598129272461
19	50.656803131103516	fix_pre	0		17.0	17.0	2.5	/experiments/knapen_aot/videos/R_S_yt-gaXgXGEanCk_140.mp4	0.0	126.27516603469849	0.14165997505187988
19	50.790266036987305	response	0	2		17.0	2.5	/experiments/knapen_aot/videos/R_S_yt-gaXgXGEanCk_140.mp4	0.0	126.40862894058228	
19	50.798463106155396	movie	1		301.0	17.0	2.5	/experiments/knapen_aot/videos/R_S_yt-gaXgXGEanCk_140.mp4	0.0	126.41682600975037	2.5083539485931396
19	53.306817054748535	fix_post	2		12.0	17.0	2.5	/experiments/knapen_aot/videos/R_S_yt-gaXgXGEanCk_140.mp4	0.0	128.9251799583435	0.0999760627746582
20	53.40679311752319	fix_pre	0		17.0	18.0	2.5	/experiments/knapen_aot/videos/S_yt-7bSTxOajpjc_58.mp4	0.0	129.02515602111816	0.14168691635131836
20	53.54028296470642	response	0	2		18.0	2.5	/experiments/knapen_aot/videos/S_yt-7bSTxOajpjc_58.mp4	0.0	129.1586458683014	
20	53.54848003387451	movie	1		301.0	18.0	2.5	/experiments/knapen_aot/videos/S_yt-7bSTxOajpjc_58.mp4	0.0	129.16684293746948	2.5082850456237793
20	56.05676507949829	fix_post	2		12.0	18.0	2.5	/experiments/knapen_aot/videos/S_yt-7bSTxOajpjc_58.mp4	0.0	131.67512798309326	0.10008001327514648
21	56.15684509277344	fix_pre	0		96.0	19.0	2.5	blank	1.0	131.7752079963684	0.8005530834197998
21	56.94864511489868	response	0	2		19.0	2.5	blank	1.0	132.56700801849365	
21	56.95739817619324	movie	1		301.0	19.0	2.5	blank	1.0	132.5757610797882	2.50773286819458
21	59.46513104438782	fix_post	2		12.0	19.0	2.5	blank	1.0	135.0834939479828	0.09995698928833008
22	59.56508803367615	fix_pre	0		26.0	20.0	2.5	/experiments/knapen_aot/videos/S_ILSVRC2015_train_00369000.mp4	0.0	135.18345093727112	0.2166759967803955
22	59.773566007614136	response	0	2		20.0	2.5	/experiments/knapen_aot/videos/S_ILSVRC2015_train_00369000.mp4	0.0	135.3919289112091	
22	59.78176403045654	movie	1		298.0	20.0	2.5	/experiments/knapen_aot/videos/S_ILSVRC2015_train_00369000.mp4	0.0	135.4001269340515	2.5083749294281006
22	62.290138959884644	fix_post	2		12.0	20.0	2.5	/experiments/knapen_aot/videos/S_ILSVRC2015_train_00369000.mp4	0.0	137.90850186347961	0.09999918937683105
23	62.390138149261475	fix_pre	0		13.0	21.0	2.5	/experiments/knapen_aot/videos/R_S_production_ID_4707837.mp4	0.0	138.00850105285645	0.10883784294128418
23	62.4902720451355	response	0	2		21.0	2.5	/experiments/knapen_aot/videos/R_S_production_ID_4707837.mp4	0.0	138.10863494873047	
23	62.49897599220276	movie	1		167.0	21.0	2.5	/experiments/knapen_aot/videos/R_S_production_ID_4707837.mp4	0.0	138.11733889579773	2.507794141769409
23	65.00677013397217	fix_post	2		12.0	21.0	2.5	/experiments/knapen_aot/videos/R_S_production_ID_4707837.mp4	0.0	140.62513303756714	0.10000085830688477
24	65.10677099227905	fix_pre	0		17.0	22.0	2.5	/experiments/knapen_aot/videos/R_S_yt-jzDaQD-g168_103.mp4	0.0	140.72513389587402	0.14216303825378418
24	65.24015998840332	response	0	2		22.0	2.5	/experiments/knapen_aot/videos/R_S_yt-jzDaQD-g168_103.mp4	0.0	140.8585228919983	
24	65.24893403053284	movie	1		301.0	22.0	2.5	/experiments/knapen_aot/videos/R_S_yt-jzDaQD-g168_103.mp4	0.0	140.8672969341278	2.507758140563965
24	67.7566921710968	fix_post	2		12.0	22.0	2.5	/experiments/knapen_aot/videos/R_S_yt-jzDaQD-g168_103.mp4	0.0	143.37505507469177	0.10014581680297852
25	67.85683798789978	fix_pre	0		90.0	23.0	2.5	/experiments/knapen_aot/videos/S_yt-TBY8F6UMnJQ_51.mp4	0.0	143.47520089149475	0.7498741149902344
25	68.59109210968018	response	0	2		23.0	2.5	/experiments/knapen_aot/videos/S_yt-TBY8F6UMnJQ_51.mp4	0.0	144.20945501327515	
25	68.60671210289001	movie	1		301.0	23.0	2.5	/experiments/knapen_aot/videos/S_yt-TBY8F6UMnJQ_51.mp4	0.0	144.22507500648499	2.508373975753784
25	71.1150860786438	fix_post	2		12.0	23.0	2.5	/experiments/knapen_aot/videos/S_yt-TBY8F6UMnJQ_51.mp4	0.0	146.73344898223877	0.10007309913635254
26	71.21515917778015	fix_pre	0		9.0	24.0	2.5	/experiments/knapen_aot/videos/S_yt-RHPOCG1mII0_138.mp4	0.0	146.83352208137512	0.07546281814575195
26	71.2818341255188	response	0	2		24.0	2.5	/experiments/knapen_aot/videos/S_yt-RHPOCG1mII0_138.mp4	0.0	146.90019702911377	
26	71.2906219959259	movie	1		301.0	24.0	2.5	/experiments/knapen_aot/videos/S_yt-RHPOCG1mII0_138.mp4	0.0	146.90898489952087	2.507833957672119
26	73.79845595359802	fix_post	2		12.0	24.0	2.5	/experiments/knapen_aot/videos/S_yt-RHPOCG1mII0_138.mp4	0.0	149.416818857193	0.09998321533203125
27	73.89843916893005	fix_pre	0		26.0	25.0	2.5	/experiments/knapen_aot/videos/R_S_yt-Ek1jcvett9E_33.mp4	0.0	149.51680207252502	0.21661686897277832
27	74.10686612129211	response	0	2		25.0	2.5	/experiments/knapen_aot/videos/R_S_yt-Ek1jcvett9E_33.mp4	0.0	149.72522902488708	
27	74.11505603790283	movie	1		301.0	25.0	2.5	/experiments/knapen_aot/videos/R_S_yt-Ek1jcvett9E_33.mp4	0.0	149.7334189414978	2.508302927017212
27	76.62335896492004	fix_post	2		12.0	25.0	2.5	/experiments/knapen_aot/videos/R_S_yt-Ek1jcvett9E_33.mp4	0.0	152.24172186851501	0.10004115104675293
28	76.7234001159668	fix_pre	0		28.0	26.0	2.5	blank	1.0	152.34176301956177	0.23386788368225098
28	76.94106602668762	response	0	2		26.0	2.5	blank	1.0	152.5594289302826	
28	76.95726799964905	movie	1		301.0	26.0	2.5	blank	1.0	152.57563090324402	2.5077431201934814
28	79.46501111984253	fix_post	2		12.0	26.0	2.5	blank	1.0	155.0833740234375	0.09997987747192383
29	79.56499099731445	fix_pre	0		24.0	27.0	2.5	/experiments/knapen_aot/videos/S_yt-dO0OuozAgt0_225.mp4	0.0	155.18335390090942	0.20004510879516602
29	79.75678014755249	response	0	4		27.0	2.5	/experiments/knapen_aot/videos/S_yt-dO0OuozAgt0_225.mp4	0.0	155.37514305114746	
29	79.76503610610962	movie	1		301.0	27.0	2.5	/experiments/knapen_aot/videos/S_yt-dO0OuozAgt0_225.mp4	0.0	155.3833990097046	2.508296012878418
29	82.27333211898804	fix_post	2		12.0	27.0	2.5	/experiments/knapen_aot/videos/S_yt-dO0OuozAgt0_225.mp4	0.0	157.891695022583	0.10049891471862793
30	82.37383103370667	fix_pre	0		8.0	28.0	2.5	/experiments/knapen_aot/videos/R_S_yt-2IxVZeiSv3g_28.mp4	0.0	157.99219393730164	0.06634402275085449
30	82.42441201210022	response	0	2		28.0	2.5	/experiments/knapen_aot/videos/R_S_yt-2IxVZeiSv3g_28.mp4	0.0	158.0427749156952	
30	82.44017505645752	movie	1		301.0	28.0	2.5	/experiments/knapen_aot/videos/R_S_yt-2IxVZeiSv3g_28.mp4	0.0	158.0585379600525	2.5082058906555176
30	84.94838094711304	fix_post	2		12.0	28.0	2.5	/experiments/knapen_aot/videos/R_S_yt-2IxVZeiSv3g_28.mp4	0.0	160.566743850708	0.09988212585449219
30	85.04016995429993	response	2	2		28.0	2.5	/experiments/knapen_aot/videos/R_S_yt-2IxVZeiSv3g_28.mp4	0.0	160.6585328578949	
31	85.04826307296753	fix_pre	0		56.0	29.0	2.5	/experiments/knapen_aot/videos/R_S_yt-1_xoCNmTn3Y_1.mp4	0.0	160.6666259765625	0.4667229652404785
31	85.50671911239624	response	0	4		29.0	2.5	/experiments/knapen_aot/videos/R_S_yt-1_xoCNmTn3Y_1.mp4	0.0	161.1250820159912	
31	85.51498603820801	movie	1		301.0	29.0	2.5	/experiments/knapen_aot/videos/R_S_yt-1_xoCNmTn3Y_1.mp4	0.0	161.13334894180298	2.5083470344543457
31	88.02333307266235	fix_post	2		12.0	29.0	2.5	/experiments/knapen_aot/videos/R_S_yt-1_xoCNmTn3Y_1.mp4	0.0	163.64169597625732	0.10002899169921875
32	88.12336206436157	fix_pre	0		24.0	30.0	2.5	/experiments/knapen_aot/videos/R_S_yt-lzXao6Reec4_14.mp4	0.0	163.74172496795654	0.19997191429138184
32	88.31516408920288	response	0	2		30.0	2.5	/experiments/knapen_aot/videos/R_S_yt-lzXao6Reec4_14.mp4	0.0	163.93352699279785	
32	88.32333397865295	movie	1		301.0	30.0	2.5	/experiments/knapen_aot/videos/R_S_yt-lzXao6Reec4_14.mp4	0.0	163.94169688224792	2.50839900970459
32	90.83173298835754	fix_post	2		11.0	30.0	2.5	/experiments/knapen_aot/videos/R_S_yt-lzXao6Reec4_14.mp4	0.0	166.45009589195251	0.0999901294708252
33	90.93172311782837	fix_pre	0		19.0	31.0	2.5	/experiments/knapen_aot/videos/R_S_yt-Jro_TRE8NUQ_234.mp4	0.0	166.55008602142334	0.1582658290863037
33	91.08183598518372	response	0	4		31.0	2.5	/experiments/knapen_aot/videos/R_S_yt-Jro_TRE8NUQ_234.mp4	0.0	166.7001988887787	
33	91.08998894691467	movie	1		301.0	31.0	2.5	/experiments/knapen_aot/videos/R_S_yt-Jro_TRE8NUQ_234.mp4	0.0	166.70835185050964	2.508310079574585
33	93.59829902648926	fix_post	2		12.0	31.0	2.5	/experiments/knapen_aot/videos/R_S_yt-Jro_TRE8NUQ_234.mp4	0.0	169.21666193008423	0.10001492500305176
34	93.69831395149231	fix_pre	0		92.0	32.0	2.5	/experiments/knapen_aot/videos/S_yt-YOLaQ53ooks_195.mp4	0.0	169.31667685508728	0.7666451930999756
34	94.4567940235138	response	0	2		32.0	2.5	/experiments/knapen_aot/videos/S_yt-YOLaQ53ooks_195.mp4	0.0	170.07515692710876	
34	94.46495914459229	movie	1		300.0	32.0	2.5	/experiments/knapen_aot/videos/S_yt-YOLaQ53ooks_195.mp4	0.0	170.08332204818726	2.508296012878418
34	96.9732551574707	fix_post	2		12.0	32.0	2.5	/experiments/knapen_aot/videos/S_yt-YOLaQ53ooks_195.mp4	0.0	172.59161806106567	0.10006284713745117
35	97.07331800460815	fix_pre	0		33.0	33.0	2.5	/experiments/knapen_aot/videos/R_S_ioSkDvwpEaU_35.mp4	0.0	172.69168090820312	0.2749791145324707
35	97.3400731086731	response	0	2		33.0	2.5	/experiments/knapen_aot/videos/R_S_ioSkDvwpEaU_35.mp4	0.0	172.95843601226807	
35	97.34829711914062	movie	1		301.0	33.0	2.5	/experiments/knapen_aot/videos/R_S_ioSkDvwpEaU_35.mp4	0.0	172.9666600227356	2.508307933807373
35	99.856605052948	fix_post	2		12.0	33.0	2.5	/experiments/knapen_aot/videos/R_S_ioSkDvwpEaU_35.mp4	0.0	175.47496795654297	0.1004190444946289
36	99.95702409744263	fix_pre	0		18.0	34.0	2.5	blank	1.0	175.5753870010376	0.14952301979064941
36	100.09840106964111	response	0	4		34.0	2.5	blank	1.0	175.71676397323608	
36	100.10654711723328	movie	1		301.0	34.0	2.5	blank	1.0	175.72491002082825	2.508380889892578
36	102.61492800712585	fix_post	2		12.0	34.0	2.5	blank	1.0	178.23329091072083	0.10001897811889648
37	102.71494698524475	fix_pre	0		29.0	35.0	2.5	/experiments/knapen_aot/videos/R_S_yt--jzScB82vKI_212.mp4	0.0	178.33330988883972	0.24197101593017578
37	102.9484031200409	response	0	2		35.0	2.5	/experiments/knapen_aot/videos/R_S_yt--jzScB82vKI_212.mp4	0.0	178.56676602363586	
37	102.95691800117493	movie	1		301.0	35.0	2.5	/experiments/knapen_aot/videos/R_S_yt--jzScB82vKI_212.mp4	0.0	178.5752809047699	2.5080080032348633
37	105.46492600440979	fix_post	2		12.0	35.0	2.5	/experiments/knapen_aot/videos/R_S_yt--jzScB82vKI_212.mp4	0.0	181.08328890800476	0.09997797012329102
38	105.56490397453308	fix_pre	0		14.0	36.0	2.5	/experiments/knapen_aot/videos/R_S_yt-k-MRlbCOzZU_163.mp4	0.0	181.18326687812805	0.1166841983795166
38	105.67342114448547	response	0	4		36.0	2.5	/experiments/knapen_aot/videos/R_S_yt-k-MRlbCOzZU_163.mp4	0.0	181.29178404808044	
38	105.6815881729126	movie	1		301.0	36.0	2.5	/experiments/knapen_aot/videos/R_S_yt-k-MRlbCOzZU_163.mp4	0.0	181.29995107650757	2.5083417892456055
38	108.1899299621582	fix_post	2		12.0	36.0	2.5	/experiments/knapen_aot/videos/R_S_yt-k-MRlbCOzZU_163.mp4	0.0	183.80829286575317	0.09996318817138672
39	108.28989315032959	fix_pre	0		48.0	37.0	2.5	/experiments/knapen_aot/videos/R_S_yt-3DM_SqT4RII_10.mp4	0.0	183.90825605392456	0.4000229835510254
39	108.68178200721741	response	0	2		37.0	2.5	/experiments/knapen_aot/videos/R_S_yt-3DM_SqT4RII_10.mp4	0.0	184.30014491081238	
39	108.68991613388062	movie	1		301.0	37.0	2.5	/experiments/knapen_aot/videos/R_S_yt-3DM_SqT4RII_10.mp4	0.0	184.3082790374756	2.5083389282226562
39	111.19825506210327	fix_post	2		12.0	37.0	2.5	/experiments/knapen_aot/videos/R_S_yt-3DM_SqT4RII_10.mp4	0.0	186.81661796569824	0.10001897811889648
40	111.29827404022217	fix_pre	0		26.0	38.0	2.5	/experiments/knapen_aot/videos/S_yt-gaXgXGEanCk_140.mp4	0.0	186.91663694381714	0.21659302711486816
40	111.50673508644104	response	0	4		38.0	2.5	/experiments/knapen_aot/videos/S_yt-gaXgXGEanCk_140.mp4	0.0	187.125097990036	
40	111.51486706733704	movie	1		301.0	38.0	2.5	/experiments/knapen_aot/videos/S_yt-gaXgXGEanCk_140.mp4	0.0	187.133229970932	2.5083250999450684
40	114.0231921672821	fix_post	2		12.0	38.0	2.5	/experiments/knapen_aot/videos/S_yt-gaXgXGEanCk_140.mp4	0.0	189.64155507087708	0.09996700286865234
41	114.12315917015076	fix_pre	0		18.0	39.0	2.5	/experiments/knapen_aot/videos/S_yt-yyIimWrvRyI_246.mp4	0.0	189.74152207374573	0.15004181861877441
41	114.26500916481018	response	0	2		39.0	2.5	/experiments/knapen_aot/videos/S_yt-yyIimWrvRyI_246.mp4	0.0	189.88337206840515	
41	114.27320098876953	movie	1		301.0	39.0	2.5	/experiments/knapen_aot/videos/S_yt-yyIimWrvRyI_246.mp4	0.0	189.8915638923645	2.508305072784424
41	116.78150606155396	fix_post	2		12.0	39.0	2.5	/experiments/knapen_aot/videos/S_yt-yyIimWrvRyI_246.mp4	0.0	192.39986896514893	0.09999990463256836
42	116.88150596618652	fix_pre	0		22.0	40.0	2.5	blank	1.0	192.4998688697815	0.18334603309631348
42	117.05668807029724	response	0	2		40.0	2.5	blank	1.0	192.6750509738922	
42	117.06485199928284	movie	1		301.0	40.0	2.5	blank	1.0	192.6832149028778	2.5083601474761963
42	119.57321214675903	fix_post	2		12.0	40.0	2.5	blank	1.0	195.191575050354	0.09999799728393555
43	119.67321014404297	fix_pre	0		53.0	41.0	2.5	/experiments/knapen_aot/videos/S_ILSVRC2015_train_00682003.mp4	0.0	195.29157304763794	0.4416508674621582
43	120.10668802261353	response	0	4		41.0	2.5	/experiments/knapen_aot/videos/S_ILSVRC2015_train_00682003.mp4	0.0	195.7250509262085	
43	120.11486101150513	movie	1		301.0	41.0	2.5	/experiments/knapen_aot/videos/S_ILSVRC2015_train_00682003.mp4	0.0	195.7332239151001	2.5085949897766113
43	122.62345600128174	fix_post	2		12.0	41.0	2.5	/experiments/knapen_aot/videos/S_ILSVRC2015_train_00682003.mp4	0.0	198.2418189048767	0.09975194931030273
44	122.72320795059204	fix_pre	0		34.0	42.0	2.5	/experiments/knapen_aot/videos/R_S_yt-2cwARrUMj40_67.mp4	0.0	198.341570854187	0.28324317932128906
44	122.99828696250916	response	0	2		42.0	2.5	/experiments/knapen_aot/videos/R_S_yt-2cwARrUMj40_67.mp4	0.0	198.61664986610413	
44	123.00645112991333	movie	1		301.0	42.0	2.5	/experiments/knapen_aot/videos/R_S_yt-2cwARrUMj40_67.mp4	0.0	198.6248140335083	2.5083818435668945
44	125.51483297348022	fix_post	2		12.0	42.0	2.5	/experiments/knapen_aot/videos/R_S_yt-2cwARrUMj40_67.mp4	0.0	201.1331958770752	0.10004210472106934
45	125.6148750782013	fix_pre	0		17.0	43.0	2.5	/experiments/knapen_aot/videos/R_S_P001_C005_UHD_SDR_2K_AVC.mp4	0.0	201.23323798179626	0.14160895347595215
45	125.74829506874084	response	0	4		43.0	2.5	/experiments/knapen_aot/videos/R_S_P001_C005_UHD_SDR_2K_AVC.mp4	0.0	201.36665797233582	
45	125.75648403167725	movie	1		172.0	43.0	2.5	/experiments/knapen_aot/videos/R_S_P001_C005_UHD_SDR_2K_AVC.mp4	0.0	201.37484693527222	2.5083179473876953
45	128.26480197906494	fix_post	2		12.0	43.0	2.5	/experiments/knapen_aot/videos/R_S_P001_C005_UHD_SDR_2K_AVC.mp4	0.0	203.8831648826599	0.10003399848937988
46	128.36483597755432	fix_pre	0		15.0	44.0	2.5	/experiments/knapen_aot/videos/S_yt-O6FS0xnF0CU_106.mp4	0.0	203.9831988811493	0.12496113777160645
46	128.48160314559937	response	0	2		44.0	2.5	/experiments/knapen_aot/videos/S_yt-O6FS0xnF0CU_106.mp4	0.0	204.09996604919434	
46	128.48979711532593	movie	1		301.0	44.0	2.5	/experiments/knapen_aot/videos/S_yt-O6FS0xnF0CU_106.mp4	0.0	204.1081600189209	2.5085558891296387
46	130.99835300445557	fix_post	2		12.0	44.0	2.5	/experiments/knapen_aot/videos/S_yt-O6FS0xnF0CU_106.mp4	0.0	206.61671590805054	0.09975814819335938
47	131.09811115264893	fix_pre	0		14.0	45.0	2.5	/experiments/knapen_aot/videos/R_S_yt-OrTpetjDNKs_31.mp4	0.0	206.7164740562439	0.11664700508117676
47	131.20662808418274	response	0	4		45.0	2.5	/experiments/knapen_aot/videos/R_S_yt-OrTpetjDNKs_31.mp4	0.0	206.8249909877777	
47	131.2147581577301	movie	1		301.0	45.0	2.5	/experiments/knapen_aot/videos/R_S_yt-OrTpetjDNKs_31.mp4	0.0	206.83312106132507	2.508335828781128
47	133.72309398651123	fix_post	2		12.0	45.0	2.5	/experiments/knapen_aot/videos/R_S_yt-OrTpetjDNKs_31.mp4	0.0	209.3414568901062	0.10004997253417969
48	133.8231439590454	fix_pre	0		128.0	46.0	2.5	/experiments/knapen_aot/videos/R_S_yt-EAMpitsjbbA_153.mp4	0.0	209.44150686264038	1.066622018814087
48	134.8816101551056	response	0	2		46.0	2.5	/experiments/knapen_aot/videos/R_S_yt-EAMpitsjbbA_153.mp4	0.0	210.49997305870056	
48	134.8897659778595	movie	1		301.0	46.0	2.5	/experiments/knapen_aot/videos/R_S_yt-EAMpitsjbbA_153.mp4	0.0	210.50812888145447	2.508404016494751
48	137.39816999435425	fix_post	2		12.0	46.0	2.5	/experiments/knapen_aot/videos/R_S_yt-EAMpitsjbbA_153.mp4	0.0	213.01653289794922	0.10010409355163574
49	137.49827408790588	fix_pre	0		69.0	47.0	2.5	/experiments/knapen_aot/videos/R_S_ILSVRC2015_train_00074011.mp4	0.0	213.11663699150085	0.5748889446258545
49	138.0649061203003	response	0	2		47.0	2.5	/experiments/knapen_aot/videos/R_S_ILSVRC2015_train_00074011.mp4	0.0	213.68326902389526	
49	138.07316303253174	movie	1		300.0	47.0	2.5	/experiments/knapen_aot/videos/R_S_ILSVRC2015_train_00074011.mp4	0.0	213.6915259361267	2.508466958999634
49	140.58162999153137	fix_post	2		12.0	47.0	2.5	/experiments/knapen_aot/videos/R_S_ILSVRC2015_train_00074011.mp4	0.0	216.19999289512634	0.09981513023376465
50	140.68144512176514	fix_pre	0		13.0	48.0	2.5	blank	1.0	216.2998080253601	0.10856389999389648
50	140.78152108192444	response	0	4		48.0	2.5	blank	1.0	216.3998839855194	
50	140.79000902175903	movie	1		301.0	48.0	2.5	blank	1.0	216.408371925354	2.508078098297119
50	143.29808712005615	fix_post	2		12.0	48.0	2.5	blank	1.0	218.91645002365112	0.10001087188720703
51	143.39809799194336	fix_pre	0		41.0	49.0	2.5	/experiments/knapen_aot/videos/R_S_yt-9t5-3Qe_t9A_591.mp4	0.0	219.01646089553833	0.34159398078918457
51	143.723974943161	response	0	2		49.0	2.5	/experiments/knapen_aot/videos/R_S_yt-9t5-3Qe_t9A_591.mp4	0.0	219.34233784675598	
51	143.73969197273254	movie	1		301.0	49.0	2.5	/experiments/knapen_aot/videos/R_S_yt-9t5-3Qe_t9A_591.mp4	0.0	219.35805487632751	2.5085740089416504
51	146.2482659816742	fix_post	2		12.0	49.0	2.5	/experiments/knapen_aot/videos/R_S_yt-9t5-3Qe_t9A_591.mp4	0.0	221.86662888526917	0.09982109069824219
52	146.34808707237244	fix_pre	0		10.0	50.0	2.5	/experiments/knapen_aot/videos/R_S_yt-gzjV6YoK6X0_3.mp4	0.0	221.9664499759674	0.08332395553588867
52	146.42317700386047	response	0	2		50.0	2.5	/experiments/knapen_aot/videos/R_S_yt-gzjV6YoK6X0_3.mp4	0.0	222.04153990745544	
52	146.43141102790833	movie	1		301.0	50.0	2.5	/experiments/knapen_aot/videos/R_S_yt-gzjV6YoK6X0_3.mp4	0.0	222.0497739315033	2.508312940597534
52	148.93972396850586	fix_post	2		12.0	50.0	2.5	/experiments/knapen_aot/videos/R_S_yt-gzjV6YoK6X0_3.mp4	0.0	224.55808687210083	0.10013008117675781
53	149.03985404968262	fix_pre	0		34.0	51.0	2.5	/experiments/knapen_aot/videos/R_S_yt-wLylWnZs3z0_27.mp4	0.0	224.6582169532776	0.28316593170166016
53	149.31488704681396	response	0	2		51.0	2.5	/experiments/knapen_aot/videos/R_S_yt-wLylWnZs3z0_27.mp4	0.0	224.93324995040894	
53	149.32301998138428	movie	1		301.0	51.0	2.5	/experiments/knapen_aot/videos/R_S_yt-wLylWnZs3z0_27.mp4	0.0	224.94138288497925	2.5085041522979736
53	151.83152413368225	fix_post	2		12.0	51.0	2.5	/experiments/knapen_aot/videos/R_S_yt-wLylWnZs3z0_27.mp4	0.0	227.44988703727722	0.09990286827087402
54	151.93142700195312	fix_pre	0		34.0	52.0	2.5	/experiments/knapen_aot/videos/S_yt-t23g0U_hAgg_32.mp4	0.0	227.5497899055481	0.2834019660949707
54	152.20657801628113	response	0	2		52.0	2.5	/experiments/knapen_aot/videos/S_yt-t23g0U_hAgg_32.mp4	0.0	227.8249409198761	
54	152.2148289680481	movie	1		301.0	52.0	2.5	/experiments/knapen_aot/videos/S_yt-t23g0U_hAgg_32.mp4	0.0	227.83319187164307	2.5082430839538574
54	154.72307205200195	fix_post	2		12.0	52.0	2.5	/experiments/knapen_aot/videos/S_yt-t23g0U_hAgg_32.mp4	0.0	230.34143495559692	0.09994697570800781
55	154.82301902770996	fix_pre	0		104.0	53.0	2.5	/experiments/knapen_aot/videos/S_pexels-mikhail-nilov-8410063_1.mp4	0.0	230.44138193130493	0.8667020797729492
55	155.6815640926361	response	0	2		53.0	2.5	/experiments/knapen_aot/videos/S_pexels-mikhail-nilov-8410063_1.mp4	0.0	231.29992699623108	
55	155.6897211074829	movie	1		167.0	53.0	2.5	/experiments/knapen_aot/videos/S_pexels-mikhail-nilov-8410063_1.mp4	0.0	231.30808401107788	2.5083348751068115
55	158.19805598258972	fix_post	2		12.0	53.0	2.5	/experiments/knapen_aot/videos/S_pexels-mikhail-nilov-8410063_1.mp4	0.0	233.8164188861847	0.10001802444458008
56	158.2980740070343	fix_pre	0		8.0	54.0	2.5	blank	1.0	233.91643691062927	0.0666360855102539
56	158.35666704177856	response	0	2		54.0	2.5	blank	1.0	233.97502994537354	
56	158.36471009254456	movie	1		301.0	54.0	2.5	blank	1.0	233.98307299613953	2.5084269046783447
56	160.8731369972229	fix_post	2		12.0	54.0	2.5	blank	1.0	236.49149990081787	0.09987401962280273
57	160.9730110168457	fix_pre	0		14.0	55.0	2.5	/experiments/knapen_aot/videos/S_yt-9t5-3Qe_t9A_591.mp4	0.0	236.59137392044067	0.11658716201782227
57	161.08151197433472	response	0	2		55.0	2.5	/experiments/knapen_aot/videos/S_yt-9t5-3Qe_t9A_591.mp4	0.0	236.6998748779297	
57	161.08959817886353	movie	1		301.0	55.0	2.5	/experiments/knapen_aot/videos/S_yt-9t5-3Qe_t9A_591.mp4	0.0	236.7079610824585	2.508431911468506
57	163.59803009033203	fix_post	2		12.0	55.0	2.5	/experiments/knapen_aot/videos/S_yt-9t5-3Qe_t9A_591.mp4	0.0	239.216392993927	0.09996604919433594
58	163.69799613952637	fix_pre	0		48.0	56.0	2.5	/experiments/knapen_aot/videos/R_S_yt-9pUeQix6EW8_7.mp4	0.0	239.31635904312134	0.40001797676086426
58	164.08986496925354	response	0	2		56.0	2.5	/experiments/knapen_aot/videos/R_S_yt-9pUeQix6EW8_7.mp4	0.0	239.7082278728485	
58	164.09801411628723	movie	1		301.0	56.0	2.5	/experiments/knapen_aot/videos/R_S_yt-9pUeQix6EW8_7.mp4	0.0	239.7163770198822	2.5082428455352783
58	166.6062569618225	fix_post	2		12.0	56.0	2.5	/experiments/knapen_aot/videos/R_S_yt-9pUeQix6EW8_7.mp4	0.0	242.22461986541748	0.10011601448059082
59	166.7063729763031	fix_pre	0		31.0	57.0	2.5	/experiments/knapen_aot/videos/R_S_yt-GO26QIueqRw_385.mp4	0.0	242.32473587989807	0.25827908515930176
59	166.95641899108887	response	0	2		57.0	2.5	/experiments/knapen_aot/videos/R_S_yt-GO26QIueqRw_385.mp4	0.0	242.57478189468384	
59	166.9646520614624	movie	1		301.0	57.0	2.5	/experiments/knapen_aot/videos/R_S_yt-GO26QIueqRw_385.mp4	0.0	242.58301496505737	2.5083529949188232
59	169.47300505638123	fix_post	2		12.0	57.0	2.5	/experiments/knapen_aot/videos/R_S_yt-GO26QIueqRw_385.mp4	0.0	245.0913679599762	0.10001492500305176
60	169.57301998138428	fix_pre	0		21.0	58.0	2.5	/experiments/knapen_aot/videos/R_S_yt-hMyqUMAbFAk_303.mp4	0.0	245.19138288497925	0.17498302459716797
60	169.73977994918823	response	0	2		58.0	2.5	/experiments/knapen_aot/videos/R_S_yt-hMyqUMAbFAk_303.mp4	0.0	245.3581428527832	
60	169.74800300598145	movie	1		300.0	58.0	2.5	/experiments/knapen_aot/videos/R_S_yt-hMyqUMAbFAk_303.mp4	0.0	245.36636590957642	2.50829815864563
60	172.25630116462708	fix_post	2		12.0	58.0	2.5	/experiments/knapen_aot/videos/R_S_yt-hMyqUMAbFAk_303.mp4	0.0	247.87466406822205	0.10003089904785156
61	172.35633206367493	fix_pre	0		10.0	59.0	2.5	/experiments/knapen_aot/videos/S_yt-zSSnQYeO_DE_338.mp4	0.0	247.9746949672699	0.08326601982116699
61	172.43141198158264	response	0	2		59.0	2.5	/experiments/knapen_aot/videos/S_yt-zSSnQYeO_DE_338.mp4	0.0	248.0497748851776	
61	172.4395980834961	movie	1		301.0	59.0	2.5	/experiments/knapen_aot/videos/S_yt-zSSnQYeO_DE_338.mp4	0.0	248.05796098709106	2.508357048034668
61	174.94795513153076	fix_post	2		12.0	59.0	2.5	/experiments/knapen_aot/videos/S_yt-zSSnQYeO_DE_338.mp4	0.0	250.56631803512573	0.10005497932434082
62	175.0480101108551	fix_pre	0		12.0	60.0	2.5	/experiments/knapen_aot/videos/R_S_JApTAOdfunE_1251.mp4	0.0	250.66637301445007	0.09997701644897461
62	175.13977813720703	response	0	2		60.0	2.5	/experiments/knapen_aot/videos/R_S_JApTAOdfunE_1251.mp4	0.0	250.758141040802	
62	175.14798712730408	movie	1		301.0	60.0	2.5	/experiments/knapen_aot/videos/R_S_JApTAOdfunE_1251.mp4	0.0	250.76635003089905	2.50826096534729
62	177.65624809265137	fix_post	2		12.0	60.0	2.5	/experiments/knapen_aot/videos/R_S_JApTAOdfunE_1251.mp4	0.0	253.27461099624634	0.10002708435058594
63	177.75627517700195	fix_pre	0		19.0	61.0	2.5	blank	1.0	253.37463808059692	0.15827298164367676
63	177.9064280986786	response	0	2		61.0	2.5	blank	1.0	253.52479100227356	
63	177.91454815864563	movie	1		301.0	61.0	2.5	blank	1.0	253.5329110622406	2.50832200050354
63	180.42287015914917	fix_post	2		12.0	61.0	2.5	blank	1.0	256.04123306274414	0.10001492500305176
64	180.52288508415222	fix_pre	0		39.0	62.0	2.5	/experiments/knapen_aot/videos/S_ILSVRC2015_train_00601000.mp4	0.0	256.1412479877472	0.32500696182250977
64	180.8397340774536	response	0	2		62.0	2.5	/experiments/knapen_aot/videos/S_ILSVRC2015_train_00601000.mp4	0.0	256.4580969810486	
64	180.84789204597473	movie	1		301.0	62.0	2.5	/experiments/knapen_aot/videos/S_ILSVRC2015_train_00601000.mp4	0.0	256.4662549495697	2.5083811283111572
64	183.3562731742859	fix_post	2		12.0	62.0	2.5	/experiments/knapen_aot/videos/S_ILSVRC2015_train_00601000.mp4	0.0	258.97463607788086	0.09997391700744629
65	183.45624709129333	fix_pre	0		34.0	63.0	2.5	/experiments/knapen_aot/videos/S_yt-wLylWnZs3z0_27.mp4	0.0	259.0746099948883	0.2832789421081543
65	183.73139810562134	response	0	4		63.0	2.5	/experiments/knapen_aot/videos/S_yt-wLylWnZs3z0_27.mp4	0.0	259.3497610092163	
65	183.7395260334015	movie	1		301.0	63.0	2.5	/experiments/knapen_aot/videos/S_yt-wLylWnZs3z0_27.mp4	0.0	259.35788893699646	2.508345127105713
65	186.2478711605072	fix_post	2		12.0	63.0	2.5	/experiments/knapen_aot/videos/S_yt-wLylWnZs3z0_27.mp4	0.0	261.8662340641022	0.10004997253417969
66	186.34792113304138	fix_pre	0		10.0	64.0	2.5	/experiments/knapen_aot/videos/R_S_yt-HwGg4-zeWi8_364.mp4	0.0	261.96628403663635	0.0832829475402832
66	186.42306995391846	response	0	2		64.0	2.5	/experiments/knapen_aot/videos/R_S_yt-HwGg4-zeWi8_364.mp4	0.0	262.0414328575134	
66	186.43120408058167	movie	1		301.0	64.0	2.5	/experiments/knapen_aot/videos/R_S_yt-HwGg4-zeWi8_364.mp4	0.0	262.04956698417664	2.508357048034668
66	188.93956112861633	fix_post	2		12.0	64.0	2.5	/experiments/knapen_aot/videos/R_S_yt-HwGg4-zeWi8_364.mp4	0.0	264.5579240322113	0.10000991821289062
67	189.03957104682922	fix_pre	0		20.0	65.0	2.5	/experiments/knapen_aot/videos/S_yt-9t5-3Qe_t9A_591.mp4	0.0	264.6579339504242	0.16663312911987305
67	189.19803714752197	response	0	2		65.0	2.5	/experiments/knapen_aot/videos/S_yt-9t5-3Qe_t9A_591.mp4	0.0	264.81640005111694	
67	189.2062041759491	movie	1		301.0	65.0	2.5	/experiments/knapen_aot/videos/S_yt-9t5-3Qe_t9A_591.mp4	0.0	264.82456707954407	2.5083868503570557
67	191.71459102630615	fix_post	2		12.0	65.0	2.5	/experiments/knapen_aot/videos/S_yt-9t5-3Qe_t9A_591.mp4	0.0	267.3329539299011	0.09996509552001953
68	191.81455612182617	fix_pre	0		7.0	66.0	2.5	/experiments/knapen_aot/videos/S_yt-wz2opOBqClo_14.mp4	0.0	267.43291902542114	0.05828499794006348
68	191.864727973938	response	0	2		66.0	2.5	/experiments/knapen_aot/videos/S_yt-wz2opOBqClo_14.mp4	0.0	267.48309087753296	
68	191.87284111976624	movie	1		300.0	66.0	2.5	/experiments/knapen_aot/videos/S_yt-wz2opOBqClo_14.mp4	0.0	267.4912040233612	2.508359909057617
68	194.38120102882385	fix_post	2		12.0	66.0	2.5	/experiments/knapen_aot/videos/S_yt-wz2opOBqClo_14.mp4	0.0	269.9995639324188	0.10001111030578613
69	194.48121213912964	fix_pre	0		130.0	67.0	2.5	/experiments/knapen_aot/videos/R_S_pexels-c-technical-6344801.mp4	0.0	270.0995750427246	1.0832889080047607
69	195.5488350391388	response	0	2		67.0	2.5	/experiments/knapen_aot/videos/R_S_pexels-c-technical-6344801.mp4	0.0	271.16719794273376	
69	195.5645010471344	movie	1		199.0	67.0	2.5	/experiments/knapen_aot/videos/R_S_pexels-c-technical-6344801.mp4	0.0	271.18286395072937	2.5083229541778564
69	198.07282400131226	fix_post	2		12.0	67.0	2.5	/experiments/knapen_aot/videos/R_S_pexels-c-technical-6344801.mp4	0.0	273.6911869049072	0.0999300479888916
70	198.17275404930115	fix_pre	0		32.0	68.0	2.5	/experiments/knapen_aot/videos/S_production_ID_4765899.mp4	0.0	273.7911169528961	0.2667219638824463
70	198.43129515647888	response	0	2		68.0	2.5	/experiments/knapen_aot/videos/S_production_ID_4765899.mp4	0.0	274.04965806007385	
70	198.4394760131836	movie	1		168.0	68.0	2.5	/experiments/knapen_aot/videos/S_production_ID_4765899.mp4	0.0	274.05783891677856	2.5083580017089844
70	200.94783401489258	fix_post	2		12.0	68.0	2.5	/experiments/knapen_aot/videos/S_production_ID_4765899.mp4	0.0	276.56619691848755	0.09999704360961914
71	201.0478310585022	fix_pre	0		130.0	69.0	2.5	/experiments/knapen_aot/videos/S_yt-OrTpetjDNKs_31.mp4	0.0	276.66619396209717	1.0833430290222168
71	202.12298011779785	response	0	2		69.0	2.5	/experiments/knapen_aot/videos/S_yt-OrTpetjDNKs_31.mp4	0.0	277.7413430213928	
71	202.1311740875244	movie	1		300.0	69.0	2.5	/experiments/knapen_aot/videos/S_yt-OrTpetjDNKs_31.mp4	0.0	277.7495369911194	2.508288860321045
71	204.63946294784546	fix_post	2		12.0	69.0	2.5	/experiments/knapen_aot/videos/S_yt-OrTpetjDNKs_31.mp4	0.0	280.25782585144043	0.10007619857788086
72	204.73953914642334	fix_pre	0		11.0	70.0	2.5	blank	1.0	280.3579020500183	0.09166979789733887
72	204.81543898582458	response	0	4		70.0	2.5	blank	1.0	280.43380188941956	
72	204.83120894432068	movie	1		301.0	70.0	2.5	blank	1.0	280.44957184791565	2.508291006088257
72	207.33949995040894	fix_post	2		12.0	70.0	2.5	blank	1.0	282.9578628540039	0.0999901294708252
73	207.43949007987976	fix_pre	0		21.0	71.0	2.5	/experiments/knapen_aot/videos/R_S_yt-fCjjH_4i8Fg_115.mp4	0.0	283.05785298347473	0.1749708652496338
73	207.60614395141602	response	0	2		71.0	2.5	/experiments/knapen_aot/videos/R_S_yt-fCjjH_4i8Fg_115.mp4	0.0	283.224506855011	
73	207.6144609451294	movie	1		301.0	71.0	2.5	/experiments/knapen_aot/videos/R_S_yt-fCjjH_4i8Fg_115.mp4	0.0	283.23282384872437	2.5083580017089844
73	210.12281894683838	fix_post	2		12.0	71.0	2.5	/experiments/knapen_aot/videos/R_S_yt-fCjjH_4i8Fg_115.mp4	0.0	285.74118185043335	0.10002303123474121
74	210.22284197807312	fix_pre	0		16.0	72.0	2.5	/experiments/knapen_aot/videos/S_yt-2cwARrUMj40_67.mp4	0.0	285.8412048816681	0.13319611549377441
74	210.34795713424683	response	0	2		72.0	2.5	/experiments/knapen_aot/videos/S_yt-2cwARrUMj40_67.mp4	0.0	285.9663200378418	
74	210.3560380935669	movie	1		301.0	72.0	2.5	/experiments/knapen_aot/videos/S_yt-2cwARrUMj40_67.mp4	0.0	285.97440099716187	2.5084049701690674
74	212.86444306373596	fix_post	2		12.0	72.0	2.5	/experiments/knapen_aot/videos/S_yt-2cwARrUMj40_67.mp4	0.0	288.48280596733093	0.10002803802490234
75	212.96447110176086	fix_pre	0		14.0	73.0	2.5	/experiments/knapen_aot/videos/S_yt-gaCbT4RR9Tw_191.mp4	0.0	288.58283400535583	0.11670398712158203
75	213.07293510437012	response	0	4		73.0	2.5	/experiments/knapen_aot/videos/S_yt-gaCbT4RR9Tw_191.mp4	0.0	288.6912980079651	
75	213.08117508888245	movie	1		301.0	73.0	2.5	/experiments/knapen_aot/videos/S_yt-gaCbT4RR9Tw_191.mp4	0.0	288.6995379924774	2.508297920227051
75	215.5894730091095	fix_post	2		12.0	73.0	2.5	/experiments/knapen_aot/videos/S_yt-gaCbT4RR9Tw_191.mp4	0.0	291.20783591270447	0.09991693496704102
76	215.68938994407654	fix_pre	0		27.0	74.0	2.5	/experiments/knapen_aot/videos/R_S_yt-QXsedpZh800_275.mp4	0.0	291.3077528476715	0.22503900527954102
76	215.90619897842407	response	0	2		74.0	2.5	/experiments/knapen_aot/videos/R_S_yt-QXsedpZh800_275.mp4	0.0	291.52456188201904	
76	215.91442894935608	movie	1		301.0	74.0	2.5	/experiments/knapen_aot/videos/R_S_yt-QXsedpZh800_275.mp4	0.0	291.53279185295105	2.5082900524139404
76	218.42271900177002	fix_post	2		12.0	74.0	2.5	/experiments/knapen_aot/videos/R_S_yt-QXsedpZh800_275.mp4	0.0	294.041081905365	0.10008001327514648
77	218.52279901504517	fix_pre	0		139.0	75.0	2.5	/experiments/knapen_aot/videos/S__6qAy77ODUI_175.mp4	0.0	294.14116191864014	1.1583940982818604
77	219.67288994789124	response	0	2		75.0	2.5	/experiments/knapen_aot/videos/S__6qAy77ODUI_175.mp4	0.0	295.2912528514862	
77	219.68119311332703	movie	1		301.0	75.0	2.5	/experiments/knapen_aot/videos/S__6qAy77ODUI_175.mp4	0.0	295.299556016922	2.5082600116729736
77	222.189453125	fix_post	2		12.0	75.0	2.5	/experiments/knapen_aot/videos/S__6qAy77ODUI_175.mp4	0.0	297.80781602859497	0.09998297691345215
78	222.28943610191345	fix_pre	0		17.0	76.0	2.5	blank	1.0	297.9077990055084	0.1416940689086914
78	222.42285895347595	response	0	2		76.0	2.5	blank	1.0	298.0412218570709	
78	222.43113017082214	movie	1		301.0	76.0	2.5	blank	1.0	298.0494930744171	2.508283853530884
78	224.93941402435303	fix_post	2		12.0	76.0	2.5	blank	1.0	300.557776927948	0.09997797012329102
79	225.03939199447632	fix_pre	0		21.0	77.0	2.5	/experiments/knapen_aot/videos/S_yt-k-MRlbCOzZU_163.mp4	0.0	300.6577548980713	0.17496895790100098
79	225.20622897148132	response	0	2		77.0	2.5	/experiments/knapen_aot/videos/S_yt-k-MRlbCOzZU_163.mp4	0.0	300.8245918750763	
79	225.21436095237732	movie	1		300.0	77.0	2.5	/experiments/knapen_aot/videos/S_yt-k-MRlbCOzZU_163.mp4	0.0	300.8327238559723	2.5083141326904297
79	227.72267508506775	fix_post	2		12.0	77.0	2.5	/experiments/knapen_aot/videos/S_yt-k-MRlbCOzZU_163.mp4	0.0	303.3410379886627	0.10007786750793457
80	227.82275295257568	fix_pre	0		12.0	78.0	2.5	/experiments/knapen_aot/videos/R_S_video_inspire_texas_pecos_foggy-landscape_00018.1080-h264.mp4	0.0	303.44111585617065	0.1000220775604248
80	227.91449213027954	response	0	2		78.0	2.5	/experiments/knapen_aot/videos/R_S_video_inspire_texas_pecos_foggy-landscape_00018.1080-h264.mp4	0.0	303.5328550338745	
80	227.9227750301361	movie	1		172.0	78.0	2.5	/experiments/knapen_aot/videos/R_S_video_inspire_texas_pecos_foggy-landscape_00018.1080-h264.mp4	0.0	303.5411379337311	2.508331060409546
80	230.43110609054565	fix_post	2		12.0	78.0	2.5	/experiments/knapen_aot/videos/R_S_video_inspire_texas_pecos_foggy-landscape_00018.1080-h264.mp4	0.0	306.0494689941406	0.10000205039978027
81	230.53110814094543	fix_pre	0		27.0	79.0	2.5	/experiments/knapen_aot/videos/R_S_yt-yJmHtBFyhH4_15.mp4	0.0	306.1494710445404	0.2249908447265625
81	230.7479109764099	response	0	4		79.0	2.5	/experiments/knapen_aot/videos/R_S_yt-yJmHtBFyhH4_15.mp4	0.0	306.3662738800049	
81	230.756098985672	movie	1		301.0	79.0	2.5	/experiments/knapen_aot/videos/R_S_yt-yJmHtBFyhH4_15.mp4	0.0	306.37446188926697	2.5082221031188965
81	233.2643210887909	fix_post	2		12.0	79.0	2.5	/experiments/knapen_aot/videos/R_S_yt-yJmHtBFyhH4_15.mp4	0.0	308.88268399238586	0.10003995895385742
82	233.36436104774475	fix_pre	0		108.0	80.0	2.5	/experiments/knapen_aot/videos/S_yt-JTBXPfbkjsA_11.mp4	0.0	308.9827239513397	0.9001359939575195
82	234.2561960220337	response	0	2		80.0	2.5	/experiments/knapen_aot/videos/S_yt-JTBXPfbkjsA_11.mp4	0.0	309.87455892562866	
82	234.26449704170227	movie	1		300.0	80.0	2.5	/experiments/knapen_aot/videos/S_yt-JTBXPfbkjsA_11.mp4	0.0	309.88285994529724	2.508181095123291
82	236.77267813682556	fix_post	2		12.0	80.0	2.5	/experiments/knapen_aot/videos/S_yt-JTBXPfbkjsA_11.mp4	0.0	312.39104104042053	0.10000991821289062
83	236.87268805503845	fix_pre	0		35.0	81.0	2.5	/experiments/knapen_aot/videos/R_S_yt-k-MRlbCOzZU_163.mp4	0.0	312.4910509586334	0.2915940284729004
83	237.1486370563507	response	0	2		81.0	2.5	/experiments/knapen_aot/videos/R_S_yt-k-MRlbCOzZU_163.mp4	0.0	312.7669999599457	
83	237.16428208351135	movie	1		301.0	81.0	2.5	/experiments/knapen_aot/videos/R_S_yt-k-MRlbCOzZU_163.mp4	0.0	312.7826449871063	2.508297920227051
83	239.6725800037384	fix_post	2		12.0	81.0	2.5	/experiments/knapen_aot/videos/R_S_yt-k-MRlbCOzZU_163.mp4	0.0	315.2909429073334	0.10014104843139648
84	239.7727210521698	fix_pre	0		159.0	82.0	2.5	/experiments/knapen_aot/videos/S_video-5.mp4	0.0	315.39108395576477	1.3249430656433105
84	241.0894651412964	response	0	2		82.0	2.5	/experiments/knapen_aot/videos/S_video-5.mp4	0.0	316.70782804489136	
84	241.0976641178131	movie	1		171.0	82.0	2.5	/experiments/knapen_aot/videos/S_video-5.mp4	0.0	316.7160270214081	2.5083539485931396
84	243.60601806640625	fix_post	2		12.0	82.0	2.5	/experiments/knapen_aot/videos/S_video-5.mp4	0.0	319.2243809700012	0.09997200965881348
85	243.70599007606506	fix_pre	0		19.0	83.0	2.5	blank	1.0	319.32435297966003	0.1583878993988037
85	243.8561191558838	response	0	2		83.0	2.5	blank	1.0	319.47448205947876	
85	243.86437797546387	movie	1		301.0	83.0	2.5	blank	1.0	319.48274087905884	2.50822114944458
85	246.37259912490845	fix_post	2		12.0	83.0	2.5	blank	1.0	321.9909620285034	0.09997892379760742
87	246.47257804870605	stim	0		235.0					322.090940952301	1.9584269523620605
87	246.58112001419067	response	0	2						322.19948291778564	
87	248.42428612709045	response	0	space						324.0426490306854	
