trial_nr	onset	event_type	phase	response	nr_frames	movie_index	movie_duration	movie_file	blank	onset_abs	duration
0	0.12487292289733887	stim	0		40.0					63.44641399383545	0.33332300186157227
0	0.450070858001709	response	0	space						63.77161192893982	
1	0.45819592475891113	stim	0		121.0					63.77973699569702	1.0080149173736572
1	1.4662108421325684	stim	1		120.0					64.78775191307068	1.0000200271606445
1	1.9164869785308838	response	1	space						65.238028049469	
1	2.2912819385528564	response	1	space						65.61282300949097	
2	2.466230869293213	fix_pre	0		33.0	0.0	2.5	/experiments/knapen_aot/videos/R_S_WCwb-DeQOSg_85.mp4	0.0	65.78777194023132	0.2749810218811035
2	2.733114004135132	response	0	space		0.0	2.5	/experiments/knapen_aot/videos/R_S_WCwb-DeQOSg_85.mp4	0.0	66.05465507507324	
2	2.7412118911743164	movie	1		301.0	0.0	2.5	/experiments/knapen_aot/videos/R_S_WCwb-DeQOSg_85.mp4	0.0	66.06275296211243	2.508303165435791
2	5.249515056610107	fix_post	2		12.0	0.0	2.5	/experiments/knapen_aot/videos/R_S_WCwb-DeQOSg_85.mp4	0.0	68.57105612754822	0.10008788108825684
3	5.349602937698364	fix_pre	0		118.0	1.0	2.5	/experiments/knapen_aot/videos/S_Pexels_Videos_2791797.mp4	0.0	68.67114400863647	0.988145112991333
3	6.328423023223877	response	0	2		1.0	2.5	/experiments/knapen_aot/videos/S_Pexels_Videos_2791797.mp4	0.0	69.64996409416199	
3	6.337748050689697	movie	1		164.0	1.0	2.5	/experiments/knapen_aot/videos/S_Pexels_Videos_2791797.mp4	0.0	69.65928912162781	2.5034799575805664
3	8.841228008270264	fix_post	2		12.0	1.0	2.5	/experiments/knapen_aot/videos/S_Pexels_Videos_2791797.mp4	0.0	72.16276907920837	0.09995794296264648
4	8.94118595123291	fix_pre	0		79.0	2.0	2.5	/experiments/knapen_aot/videos/S_yt-osz-TXlRdXs_2.mp4	0.0	72.26272702217102	0.6583950519561768
4	9.591413021087646	response	0	2		2.0	2.5	/experiments/knapen_aot/videos/S_yt-osz-TXlRdXs_2.mp4	0.0	72.91295409202576	
4	9.599581003189087	movie	1		301.0	2.0	2.5	/experiments/knapen_aot/videos/S_yt-osz-TXlRdXs_2.mp4	0.0	72.9211220741272	2.5083279609680176
4	12.107908964157104	fix_post	2		12.0	2.0	2.5	/experiments/knapen_aot/videos/S_yt-osz-TXlRdXs_2.mp4	0.0	75.42945003509521	0.09999608993530273
5	12.207905054092407	fix_pre	0		104.0	3.0	2.5	/experiments/knapen_aot/videos/S_ILSVRC2015_train_00379000.mp4	0.0	75.52944612503052	0.8666069507598877
5	13.066370964050293	response	0	2		3.0	2.5	/experiments/knapen_aot/videos/S_ILSVRC2015_train_00379000.mp4	0.0	76.3879120349884	
5	13.074512004852295	movie	1		297.0	3.0	2.5	/experiments/knapen_aot/videos/S_ILSVRC2015_train_00379000.mp4	0.0	76.3960530757904	2.508405923843384
5	15.582917928695679	fix_post	2		12.0	3.0	2.5	/experiments/knapen_aot/videos/S_ILSVRC2015_train_00379000.mp4	0.0	78.90445899963379	0.10000300407409668
6	15.682920932769775	fix_pre	0		79.0	4.0	2.5	/experiments/knapen_aot/videos/R_S_ILSVRC2015_train_00434000.mp4	0.0	79.00446200370789	0.6582889556884766
6	16.33312487602234	response	0	2		4.0	2.5	/experiments/knapen_aot/videos/R_S_ILSVRC2015_train_00434000.mp4	0.0	79.65466594696045	
6	16.341209888458252	movie	1		301.0	4.0	2.5	/experiments/knapen_aot/videos/R_S_ILSVRC2015_train_00434000.mp4	0.0	79.66275095939636	2.5083260536193848
6	18.849535942077637	fix_post	2		12.0	4.0	2.5	/experiments/knapen_aot/videos/R_S_ILSVRC2015_train_00434000.mp4	0.0	82.17107701301575	0.10001707077026367
7	18.9495530128479	fix_pre	0		65.0	5.0	2.5	/experiments/knapen_aot/videos/S_yt-kKRGgUhVRzc_74.mp4	0.0	82.27109408378601	0.5416388511657715
7	19.48306894302368	response	0	2		5.0	2.5	/experiments/knapen_aot/videos/S_yt-kKRGgUhVRzc_74.mp4	0.0	82.80461001396179	
7	19.491191864013672	movie	1		301.0	5.0	2.5	/experiments/knapen_aot/videos/S_yt-kKRGgUhVRzc_74.mp4	0.0	82.81273293495178	2.5083770751953125
7	21.999568939208984	fix_post	2		12.0	5.0	2.5	/experiments/knapen_aot/videos/S_yt-kKRGgUhVRzc_74.mp4	0.0	85.3211100101471	0.09998798370361328
8	22.099556922912598	fix_pre	0		104.0	6.0	2.5	/experiments/knapen_aot/videos/R_S_yt-mdLT282PVbE_6.mp4	0.0	85.42109799385071	0.8666279315948486
8	22.95797300338745	response	0	2		6.0	2.5	/experiments/knapen_aot/videos/R_S_yt-mdLT282PVbE_6.mp4	0.0	86.27951407432556	
8	22.966184854507446	movie	1		301.0	6.0	2.5	/experiments/knapen_aot/videos/R_S_yt-mdLT282PVbE_6.mp4	0.0	86.28772592544556	2.508324146270752
8	25.4745090007782	fix_post	2		12.0	6.0	2.5	/experiments/knapen_aot/videos/R_S_yt-mdLT282PVbE_6.mp4	0.0	88.79605007171631	0.09999203681945801
9	25.574501037597656	fix_pre	0		112.0	7.0	2.5	blank	1.0	88.89604210853577	0.9332787990570068
9	26.499783992767334	response	0	2		7.0	2.5	blank	1.0	89.82132506370544	
9	26.507779836654663	movie	1		301.0	7.0	2.5	blank	1.0	89.82932090759277	2.5084190368652344
9	29.016198873519897	fix_post	2		12.0	7.0	2.5	blank	1.0	92.33773994445801	0.09993696212768555
10	29.116135835647583	fix_pre	0		81.0	8.0	2.5	/experiments/knapen_aot/videos/S_yt-J8E_BpSJMpk_5.mp4	0.0	92.4376769065857	0.6750171184539795
10	29.782932996749878	response	0	2		8.0	2.5	/experiments/knapen_aot/videos/S_yt-J8E_BpSJMpk_5.mp4	0.0	93.10447406768799	
10	29.791152954101562	movie	1		301.0	8.0	2.5	/experiments/knapen_aot/videos/S_yt-J8E_BpSJMpk_5.mp4	0.0	93.11269402503967	2.508327007293701
10	32.299479961395264	fix_post	2		12.0	8.0	2.5	/experiments/knapen_aot/videos/S_yt-J8E_BpSJMpk_5.mp4	0.0	95.62102103233337	0.10000109672546387
11	32.39948105812073	fix_pre	0		73.0	9.0	2.5	/experiments/knapen_aot/videos/R_S_yt-54kx8P3L1ns_6.mp4	0.0	95.72102212905884	0.6082828044891357
11	32.99957585334778	response	0	2		9.0	2.5	/experiments/knapen_aot/videos/R_S_yt-54kx8P3L1ns_6.mp4	0.0	96.32111692428589	
11	33.00776386260986	movie	1		301.0	9.0	2.5	/experiments/knapen_aot/videos/R_S_yt-54kx8P3L1ns_6.mp4	0.0	96.32930493354797	2.508510112762451
11	35.516273975372314	fix_post	2		12.0	9.0	2.5	/experiments/knapen_aot/videos/R_S_yt-54kx8P3L1ns_6.mp4	0.0	98.83781504631042	0.09988594055175781
12	35.61615991592407	fix_pre	0		66.0	10.0	2.5	/experiments/knapen_aot/videos/S_comp_L004_C011_PS_v01_SDR_PS_20180925_SDR_2K_AVC.mp4	0.0	98.93770098686218	0.5499820709228516
12	36.157981872558594	response	0	2		10.0	2.5	/experiments/knapen_aot/videos/S_comp_L004_C011_PS_v01_SDR_PS_20180925_SDR_2K_AVC.mp4	0.0	99.4795229434967	
12	36.166141986846924	movie	1		164.0	10.0	2.5	/experiments/knapen_aot/videos/S_comp_L004_C011_PS_v01_SDR_PS_20180925_SDR_2K_AVC.mp4	0.0	99.48768305778503	2.508297920227051
12	38.674439907073975	fix_post	2		12.0	10.0	2.5	/experiments/knapen_aot/videos/S_comp_L004_C011_PS_v01_SDR_PS_20180925_SDR_2K_AVC.mp4	0.0	101.99598097801208	0.09999299049377441
13	38.77443289756775	fix_pre	0		63.0	11.0	2.5	/experiments/knapen_aot/videos/R_S_yt-tX5U0Lyo6Gs_376.mp4	0.0	102.09597396850586	0.5249660015106201
13	39.291229009628296	response	0	2		11.0	2.5	/experiments/knapen_aot/videos/R_S_yt-tX5U0Lyo6Gs_376.mp4	0.0	102.6127700805664	
13	39.29939889907837	movie	1		301.0	11.0	2.5	/experiments/knapen_aot/videos/R_S_yt-tX5U0Lyo6Gs_376.mp4	0.0	102.62093997001648	2.5083470344543457
13	41.807745933532715	fix_post	2		12.0	11.0	2.5	/experiments/knapen_aot/videos/R_S_yt-tX5U0Lyo6Gs_376.mp4	0.0	105.12928700447083	0.1000070571899414
14	41.907752990722656	fix_pre	0		82.0	12.0	2.5	/experiments/knapen_aot/videos/S_yt-xrPrnzvWUkY_7.mp4	0.0	105.22929406166077	0.6833088397979736
14	42.582836866378784	response	0	2		12.0	2.5	/experiments/knapen_aot/videos/S_yt-xrPrnzvWUkY_7.mp4	0.0	105.9043779373169	
14	42.59106183052063	movie	1		301.0	12.0	2.5	/experiments/knapen_aot/videos/S_yt-xrPrnzvWUkY_7.mp4	0.0	105.91260290145874	2.5084211826324463
14	45.099483013153076	fix_post	2		12.0	12.0	2.5	/experiments/knapen_aot/videos/S_yt-xrPrnzvWUkY_7.mp4	0.0	108.42102408409119	0.10000801086425781
15	45.199491024017334	fix_pre	0		109.0	13.0	2.5	blank	1.0	108.52103209495544	0.9087610244750977
15	46.099599838256836	response	0	2		13.0	2.5	blank	1.0	109.42114090919495	
15	46.10825204849243	movie	1		301.0	13.0	2.5	blank	1.0	109.42979311943054	2.507869005203247
15	48.61612105369568	fix_post	2		12.0	13.0	2.5	blank	1.0	111.93766212463379	0.10000491142272949
16	48.71612596511841	fix_pre	0		75.0	14.0	2.5	/experiments/knapen_aot/videos/R_S_yt-3NMDWrZr1Z4_255.mp4	0.0	112.03766703605652	0.6249589920043945
16	49.332902908325195	response	0	2		14.0	2.5	/experiments/knapen_aot/videos/R_S_yt-3NMDWrZr1Z4_255.mp4	0.0	112.6544439792633	
16	49.3410849571228	movie	1		301.0	14.0	2.5	/experiments/knapen_aot/videos/R_S_yt-3NMDWrZr1Z4_255.mp4	0.0	112.66262602806091	2.50850510597229
16	51.84959006309509	fix_post	2		12.0	14.0	2.5	/experiments/knapen_aot/videos/R_S_yt-3NMDWrZr1Z4_255.mp4	0.0	115.1711311340332	0.09984683990478516
17	51.94943690299988	fix_pre	0		88.0	15.0	2.5	/experiments/knapen_aot/videos/R_S_yt-158C6xUMi5Y_75.mp4	0.0	115.27097797393799	0.7332980632781982
17	52.67464804649353	response	0	2		15.0	2.5	/experiments/knapen_aot/videos/R_S_yt-158C6xUMi5Y_75.mp4	0.0	115.99618911743164	
17	52.682734966278076	movie	1		301.0	15.0	2.5	/experiments/knapen_aot/videos/R_S_yt-158C6xUMi5Y_75.mp4	0.0	116.00427603721619	2.5083370208740234
17	55.1910719871521	fix_post	2		12.0	15.0	2.5	/experiments/knapen_aot/videos/R_S_yt-158C6xUMi5Y_75.mp4	0.0	118.51261305809021	0.10000991821289062
18	55.29108190536499	fix_pre	0		92.0	16.0	2.5	/experiments/knapen_aot/videos/R_S_yt-fQGoTMausn8_88.mp4	0.0	118.6126229763031	0.7666380405426025
18	56.04951000213623	response	0	2		16.0	2.5	/experiments/knapen_aot/videos/R_S_yt-fQGoTMausn8_88.mp4	0.0	119.37105107307434	
18	56.05771994590759	movie	1		301.0	16.0	2.5	/experiments/knapen_aot/videos/R_S_yt-fQGoTMausn8_88.mp4	0.0	119.3792610168457	2.508366107940674
18	58.56608605384827	fix_post	2		12.0	16.0	2.5	/experiments/knapen_aot/videos/R_S_yt-fQGoTMausn8_88.mp4	0.0	121.88762712478638	0.09998083114624023
19	58.66606688499451	fix_pre	0		117.0	17.0	2.5	/experiments/knapen_aot/videos/R_S_yt-kNZUFy3cbjQ_9.mp4	0.0	121.98760795593262	0.9749140739440918
19	59.63281989097595	response	0	2		17.0	2.5	/experiments/knapen_aot/videos/R_S_yt-kNZUFy3cbjQ_9.mp4	0.0	122.95436096191406	
19	59.6409809589386	movie	1		301.0	17.0	2.5	/experiments/knapen_aot/videos/R_S_yt-kNZUFy3cbjQ_9.mp4	0.0	122.96252202987671	2.508435010910034
19	62.14941596984863	fix_post	2		12.0	17.0	2.5	/experiments/knapen_aot/videos/R_S_yt-kNZUFy3cbjQ_9.mp4	0.0	125.47095704078674	0.09996294975280762
20	62.24937891960144	fix_pre	0		71.0	18.0	2.5	/experiments/knapen_aot/videos/S_g201_AK_A003_C014_SDR_20191113_SDR_2K_AVC.mp4	0.0	125.57091999053955	0.5916440486907959
20	62.832823038101196	response	0	2		18.0	2.5	/experiments/knapen_aot/videos/S_g201_AK_A003_C014_SDR_20191113_SDR_2K_AVC.mp4	0.0	126.1543641090393	
20	62.841022968292236	movie	1		163.0	18.0	2.5	/experiments/knapen_aot/videos/S_g201_AK_A003_C014_SDR_20191113_SDR_2K_AVC.mp4	0.0	126.16256403923035	2.5083189010620117
20	65.34934186935425	fix_post	2		12.0	18.0	2.5	/experiments/knapen_aot/videos/S_g201_AK_A003_C014_SDR_20191113_SDR_2K_AVC.mp4	0.0	128.67088294029236	0.10004115104675293
21	65.449383020401	fix_pre	0		67.0	19.0	2.5	blank	1.0	128.7709240913391	0.5582809448242188
21	65.99950194358826	response	0	2		19.0	2.5	blank	1.0	129.32104301452637	
21	66.00766396522522	movie	1		301.0	19.0	2.5	blank	1.0	129.32920503616333	2.5083820819854736
21	68.5160460472107	fix_post	2		12.0	19.0	2.5	blank	1.0	131.8375871181488	0.09998488426208496
22	68.61603093147278	fix_pre	0		78.0	20.0	2.5	/experiments/knapen_aot/videos/S_pexels-mart-production-7279749.mp4	0.0	131.9375720024109	0.6499669551849365
22	69.257817029953	response	0	2		20.0	2.5	/experiments/knapen_aot/videos/S_pexels-mart-production-7279749.mp4	0.0	132.5793581008911	
22	69.26599788665771	movie	1		165.0	20.0	2.5	/experiments/knapen_aot/videos/S_pexels-mart-production-7279749.mp4	0.0	132.58753895759583	2.5083580017089844
22	71.7743558883667	fix_post	2		12.0	20.0	2.5	/experiments/knapen_aot/videos/S_pexels-mart-production-7279749.mp4	0.0	135.0958969593048	0.10000109672546387
23	71.87435698509216	fix_pre	0		70.0	21.0	2.5	/experiments/knapen_aot/videos/R_S_ILSVRC2015_train_00460000.mp4	0.0	135.19589805603027	0.5842390060424805
23	72.44948601722717	response	0	2		21.0	2.5	/experiments/knapen_aot/videos/R_S_ILSVRC2015_train_00460000.mp4	0.0	135.77102708816528	
23	72.45859599113464	movie	1		300.0	21.0	2.5	/experiments/knapen_aot/videos/R_S_ILSVRC2015_train_00460000.mp4	0.0	135.78013706207275	2.5073659420013428
23	74.96596193313599	fix_post	2		12.0	21.0	2.5	/experiments/knapen_aot/videos/R_S_ILSVRC2015_train_00460000.mp4	0.0	138.2875030040741	0.0999610424041748
24	75.06592297554016	fix_pre	0		89.0	22.0	2.5	/experiments/knapen_aot/videos/S_yt-QqSceHxY3d0_356.mp4	0.0	138.38746404647827	0.7416629791259766
24	75.79938793182373	response	0	2		22.0	2.5	/experiments/knapen_aot/videos/S_yt-QqSceHxY3d0_356.mp4	0.0	139.12092900276184	
24	75.80758595466614	movie	1		301.0	22.0	2.5	/experiments/knapen_aot/videos/S_yt-QqSceHxY3d0_356.mp4	0.0	139.12912702560425	2.5084049701690674
24	78.3159909248352	fix_post	2		12.0	22.0	2.5	/experiments/knapen_aot/videos/S_yt-QqSceHxY3d0_356.mp4	0.0	141.63753199577332	0.10003304481506348
25	78.41602396965027	fix_pre	0		98.0	23.0	2.5	/experiments/knapen_aot/videos/S_yt-26009GpQuUg_3.mp4	0.0	141.73756504058838	0.8169119358062744
25	79.22442197799683	response	0	2		23.0	2.5	/experiments/knapen_aot/videos/S_yt-26009GpQuUg_3.mp4	0.0	142.54596304893494	
25	79.23293590545654	movie	1		301.0	23.0	2.5	/experiments/knapen_aot/videos/S_yt-26009GpQuUg_3.mp4	0.0	142.55447697639465	2.508065938949585
25	81.74100184440613	fix_post	2		12.0	23.0	2.5	/experiments/knapen_aot/videos/S_yt-26009GpQuUg_3.mp4	0.0	145.06254291534424	0.0999901294708252
26	81.84099197387695	fix_pre	0		136.0	24.0	2.5	/experiments/knapen_aot/videos/R_S_ILSVRC2015_train_00574000.mp4	0.0	145.16253304481506	1.1332790851593018
26	82.96613502502441	response	0	2		24.0	2.5	/experiments/knapen_aot/videos/R_S_ILSVRC2015_train_00574000.mp4	0.0	146.28767609596252	
26	82.97427105903625	movie	1		301.0	24.0	2.5	/experiments/knapen_aot/videos/R_S_ILSVRC2015_train_00574000.mp4	0.0	146.29581212997437	2.508622884750366
26	85.48289394378662	fix_post	2		12.0	24.0	2.5	/experiments/knapen_aot/videos/R_S_ILSVRC2015_train_00574000.mp4	0.0	148.80443501472473	0.09974288940429688
27	85.58263683319092	fix_pre	0		116.0	25.0	2.5	/experiments/knapen_aot/videos/R_S_ILSVRC2015_train_00303005.mp4	0.0	148.90417790412903	0.9665231704711914
27	86.54099202156067	response	0	2		25.0	2.5	/experiments/knapen_aot/videos/R_S_ILSVRC2015_train_00303005.mp4	0.0	149.86253309249878	
27	86.54916000366211	movie	1		301.0	25.0	2.5	/experiments/knapen_aot/videos/R_S_ILSVRC2015_train_00303005.mp4	0.0	149.87070107460022	2.5083529949188232
27	89.05751299858093	fix_post	2		12.0	25.0	2.5	/experiments/knapen_aot/videos/R_S_ILSVRC2015_train_00303005.mp4	0.0	152.37905406951904	0.10005998611450195
28	89.15757298469543	fix_pre	0		78.0	26.0	2.5	/experiments/knapen_aot/videos/R_S_ILSVRC2015_train_00384000.mp4	0.0	152.47911405563354	0.6499059200286865
28	89.79935693740845	response	0	2		26.0	2.5	/experiments/knapen_aot/videos/R_S_ILSVRC2015_train_00384000.mp4	0.0	153.12089800834656	
28	89.80747890472412	movie	1		301.0	26.0	2.5	/experiments/knapen_aot/videos/R_S_ILSVRC2015_train_00384000.mp4	0.0	153.12901997566223	2.5084500312805176
28	92.31592893600464	fix_post	2		12.0	26.0	2.5	/experiments/knapen_aot/videos/R_S_ILSVRC2015_train_00384000.mp4	0.0	155.63747000694275	0.09999895095825195
29	92.41592788696289	fix_pre	0		95.0	27.0	2.5	blank	1.0	155.737468957901	0.7916700839996338
29	93.19930005073547	response	0	2		27.0	2.5	blank	1.0	156.52084112167358	
29	93.20759797096252	movie	1		301.0	27.0	2.5	blank	1.0	156.52913904190063	2.508302927017212
29	95.71590089797974	fix_post	2		12.0	27.0	2.5	blank	1.0	159.03744196891785	0.10016202926635742
30	95.8160629272461	fix_pre	0		109.0	28.0	2.5	/experiments/knapen_aot/videos/S_pexels-c-technical-6344801.mp4	0.0	159.1376039981842	0.9081270694732666
30	96.716059923172	response	0	2		28.0	2.5	/experiments/knapen_aot/videos/S_pexels-c-technical-6344801.mp4	0.0	160.0376009941101	
30	96.72418999671936	movie	1		200.0	28.0	2.5	/experiments/knapen_aot/videos/S_pexels-c-technical-6344801.mp4	0.0	160.04573106765747	2.5084939002990723
30	99.23268389701843	fix_post	2		12.0	28.0	2.5	/experiments/knapen_aot/videos/S_pexels-c-technical-6344801.mp4	0.0	162.55422496795654	0.09982895851135254
31	99.33251285552979	fix_pre	0		54.0	29.0	2.5	/experiments/knapen_aot/videos/S_yt-rlVzHENWufE_61.mp4	0.0	162.6540539264679	0.44995617866516113
31	99.77434301376343	response	0	2		29.0	2.5	/experiments/knapen_aot/videos/S_yt-rlVzHENWufE_61.mp4	0.0	163.09588408470154	
31	99.78246903419495	movie	1		301.0	29.0	2.5	/experiments/knapen_aot/videos/S_yt-rlVzHENWufE_61.mp4	0.0	163.10401010513306	2.508368968963623
31	102.29083800315857	fix_post	2		12.0	29.0	2.5	/experiments/knapen_aot/videos/S_yt-rlVzHENWufE_61.mp4	0.0	165.61237907409668	0.09997892379760742
32	102.39081692695618	fix_pre	0		107.0	30.0	2.5	/experiments/knapen_aot/videos/R_S_EFR8AteY59I_15.mp4	0.0	165.7123579978943	0.8916120529174805
32	103.2743079662323	response	0	2		30.0	2.5	/experiments/knapen_aot/videos/R_S_EFR8AteY59I_15.mp4	0.0	166.5958490371704	
32	103.28242897987366	movie	1		300.0	30.0	2.5	/experiments/knapen_aot/videos/R_S_EFR8AteY59I_15.mp4	0.0	166.60397005081177	2.5083940029144287
32	105.79082298278809	fix_post	2		12.0	30.0	2.5	/experiments/knapen_aot/videos/R_S_EFR8AteY59I_15.mp4	0.0	169.1123640537262	0.10002803802490234
33	105.89085102081299	fix_pre	0		52.0	31.0	2.5	/experiments/knapen_aot/videos/R_S_yt_R-JaY8f33fOCw_25.mp4	0.0	169.2123920917511	0.4332599639892578
33	106.31599998474121	response	0	2		31.0	2.5	/experiments/knapen_aot/videos/R_S_yt_R-JaY8f33fOCw_25.mp4	0.0	169.63754105567932	
33	106.32411098480225	movie	1		301.0	31.0	2.5	/experiments/knapen_aot/videos/R_S_yt_R-JaY8f33fOCw_25.mp4	0.0	169.64565205574036	2.50838303565979
33	108.83249402046204	fix_post	2		12.0	31.0	2.5	/experiments/knapen_aot/videos/R_S_yt_R-JaY8f33fOCw_25.mp4	0.0	172.15403509140015	0.10004591941833496
34	108.93253993988037	fix_pre	0		115.0	32.0	2.5	/experiments/knapen_aot/videos/R_S_gHYomsO1dSU_5.mp4	0.0	172.25408101081848	0.9582810401916504
34	109.87535405158997	response	0	2		32.0	2.5	/experiments/knapen_aot/videos/R_S_gHYomsO1dSU_5.mp4	0.0	173.19689512252808	
34	109.89082098007202	movie	1		301.0	32.0	2.5	/experiments/knapen_aot/videos/R_S_gHYomsO1dSU_5.mp4	0.0	173.21236205101013	2.5084738731384277
34	112.39929485321045	fix_post	2		12.0	32.0	2.5	/experiments/knapen_aot/videos/R_S_gHYomsO1dSU_5.mp4	0.0	175.72083592414856	0.0997471809387207
35	112.49904203414917	fix_pre	0		66.0	33.0	2.5	blank	1.0	175.82058310508728	0.5500099658966064
35	113.04107093811035	response	0	2		33.0	2.5	blank	1.0	176.36261200904846	
35	113.04905200004578	movie	1		301.0	33.0	2.5	blank	1.0	176.3705930709839	2.5084378719329834
35	115.55748987197876	fix_post	2		12.0	33.0	2.5	blank	1.0	178.87903094291687	0.10002899169921875
36	115.65751886367798	fix_pre	0		129.0	34.0	2.5	/experiments/knapen_aot/videos/R_S_yt-YyKEeu2gLrI_158.mp4	0.0	178.9790599346161	1.0749740600585938
36	116.72427105903625	response	0	2		34.0	2.5	/experiments/knapen_aot/videos/R_S_yt-YyKEeu2gLrI_158.mp4	0.0	180.04581212997437	
36	116.73249292373657	movie	1		301.0	34.0	2.5	/experiments/knapen_aot/videos/R_S_yt-YyKEeu2gLrI_158.mp4	0.0	180.05403399467468	2.508225917816162
36	119.24071884155273	fix_post	2		12.0	34.0	2.5	/experiments/knapen_aot/videos/R_S_yt-YyKEeu2gLrI_158.mp4	0.0	182.56225991249084	0.10008907318115234
37	119.34080791473389	fix_pre	0		72.0	35.0	2.5	/experiments/knapen_aot/videos/S_yt-Wr5vs_0Iypw_161.mp4	0.0	182.662348985672	0.6000070571899414
37	119.93256497383118	response	0	2		35.0	2.5	/experiments/knapen_aot/videos/S_yt-Wr5vs_0Iypw_161.mp4	0.0	183.2541060447693	
37	119.94081497192383	movie	1		301.0	35.0	2.5	/experiments/knapen_aot/videos/S_yt-Wr5vs_0Iypw_161.mp4	0.0	183.26235604286194	2.5082199573516846
37	122.44903492927551	fix_post	2		12.0	35.0	2.5	/experiments/knapen_aot/videos/S_yt-Wr5vs_0Iypw_161.mp4	0.0	185.77057600021362	0.10004806518554688
38	122.54908299446106	fix_pre	0		92.0	36.0	2.5	/experiments/knapen_aot/videos/R_S_yt-XF0fyyFEgWo_280.mp4	0.0	185.87062406539917	0.7666919231414795
38	123.3075339794159	response	0	2		36.0	2.5	/experiments/knapen_aot/videos/R_S_yt-XF0fyyFEgWo_280.mp4	0.0	186.629075050354	
38	123.31577491760254	movie	1		301.0	36.0	2.5	/experiments/knapen_aot/videos/R_S_yt-XF0fyyFEgWo_280.mp4	0.0	186.63731598854065	2.5082550048828125
38	125.82402992248535	fix_post	2		12.0	36.0	2.5	/experiments/knapen_aot/videos/R_S_yt-XF0fyyFEgWo_280.mp4	0.0	189.14557099342346	0.10006904602050781
39	125.92409896850586	fix_pre	0		67.0	37.0	2.5	/experiments/knapen_aot/videos/R_S_yt-1sn8u-rQRas_7.mp4	0.0	189.24564003944397	0.5583529472351074
39	126.47413086891174	response	0	2		37.0	2.5	/experiments/knapen_aot/videos/R_S_yt-1sn8u-rQRas_7.mp4	0.0	189.79567193984985	
39	126.48245191574097	movie	1		301.0	37.0	2.5	/experiments/knapen_aot/videos/R_S_yt-1sn8u-rQRas_7.mp4	0.0	189.80399298667908	2.508273124694824
39	128.9907250404358	fix_post	2		12.0	37.0	2.5	/experiments/knapen_aot/videos/R_S_yt-1sn8u-rQRas_7.mp4	0.0	192.3122661113739	0.0999908447265625
40	129.09071588516235	fix_pre	0		51.0	38.0	2.5	/experiments/knapen_aot/videos/S_yt-K-iCphzt_RE_17.mp4	0.0	192.41225695610046	0.4250020980834961
40	129.50751900672913	response	0	2		38.0	2.5	/experiments/knapen_aot/videos/S_yt-K-iCphzt_RE_17.mp4	0.0	192.82906007766724	
40	129.51571798324585	movie	1		301.0	38.0	2.5	/experiments/knapen_aot/videos/S_yt-K-iCphzt_RE_17.mp4	0.0	192.83725905418396	2.508388042449951
40	132.0241060256958	fix_post	2		12.0	38.0	2.5	/experiments/knapen_aot/videos/S_yt-K-iCphzt_RE_17.mp4	0.0	195.3456470966339	0.09999299049377441
41	132.12409901618958	fix_pre	0		89.0	39.0	2.5	/experiments/knapen_aot/videos/S_yt-v9WGfC67DPk_50.mp4	0.0	195.44564008712769	0.7415938377380371
41	132.8574869632721	response	0	2		39.0	2.5	/experiments/knapen_aot/videos/S_yt-v9WGfC67DPk_50.mp4	0.0	196.1790280342102	
41	132.8656928539276	movie	1		301.0	39.0	2.5	/experiments/knapen_aot/videos/S_yt-v9WGfC67DPk_50.mp4	0.0	196.18723392486572	2.5084002017974854
41	135.3740930557251	fix_post	2		12.0	39.0	2.5	/experiments/knapen_aot/videos/S_yt-v9WGfC67DPk_50.mp4	0.0	198.6956341266632	0.09996199607849121
42	135.4740550518036	fix_pre	0		91.0	40.0	2.5	/experiments/knapen_aot/videos/S_comp_CH_C007_C011_PSNK_v02_SDR_PS_FINAL_20180709_SDR_2K_AVC.mp4	0.0	198.7955961227417	0.7582159042358398
42	136.22412586212158	response	0	2		40.0	2.5	/experiments/knapen_aot/videos/S_comp_CH_C007_C011_PSNK_v02_SDR_PS_FINAL_20180709_SDR_2K_AVC.mp4	0.0	199.5456669330597	
42	136.23227095603943	movie	1		172.0	40.0	2.5	/experiments/knapen_aot/videos/S_comp_CH_C007_C011_PSNK_v02_SDR_PS_FINAL_20180709_SDR_2K_AVC.mp4	0.0	199.55381202697754	2.5084428787231445
42	138.74071383476257	fix_post	2		12.0	40.0	2.5	/experiments/knapen_aot/videos/S_comp_CH_C007_C011_PSNK_v02_SDR_PS_FINAL_20180709_SDR_2K_AVC.mp4	0.0	202.06225490570068	0.0999910831451416
43	138.84070491790771	fix_pre	0		65.0	41.0	2.5	blank	1.0	202.16224598884583	0.5416259765625
43	139.37413501739502	response	0	2		41.0	2.5	blank	1.0	202.69567608833313	
43	139.38233089447021	movie	1		301.0	41.0	2.5	blank	1.0	202.70387196540833	2.5083329677581787
43	141.8906638622284	fix_post	2		12.0	41.0	2.5	blank	1.0	205.2122049331665	0.09998917579650879
44	141.9906530380249	fix_pre	0		57.0	42.0	2.5	/experiments/knapen_aot/videos/S_ILSVRC2015_train_00434000.mp4	0.0	205.312194108963	0.47497987747192383
44	142.45740294456482	response	0	2		42.0	2.5	/experiments/knapen_aot/videos/S_ILSVRC2015_train_00434000.mp4	0.0	205.77894401550293	
44	142.46563291549683	movie	1		301.0	42.0	2.5	/experiments/knapen_aot/videos/S_ILSVRC2015_train_00434000.mp4	0.0	205.78717398643494	2.5083580017089844
44	144.9739909172058	fix_post	2		12.0	42.0	2.5	/experiments/knapen_aot/videos/S_ILSVRC2015_train_00434000.mp4	0.0	208.29553198814392	0.10001397132873535
45	145.07400488853455	fix_pre	0		69.0	43.0	2.5	/experiments/knapen_aot/videos/R_S_pexels-vlada-karpovich-8044792.mp4	0.0	208.39554595947266	0.5750041007995605
45	145.64084386825562	response	0	2		43.0	2.5	/experiments/knapen_aot/videos/R_S_pexels-vlada-karpovich-8044792.mp4	0.0	208.96238493919373	
45	145.6490089893341	movie	1		165.0	43.0	2.5	/experiments/knapen_aot/videos/R_S_pexels-vlada-karpovich-8044792.mp4	0.0	208.97055006027222	2.5083119869232178
45	148.15732097625732	fix_post	2		12.0	43.0	2.5	/experiments/knapen_aot/videos/R_S_pexels-vlada-karpovich-8044792.mp4	0.0	211.47886204719543	0.09990787506103516
46	148.25722885131836	fix_pre	0		89.0	44.0	2.5	/experiments/knapen_aot/videos/R_S_flickr-claywakening-27928940166_2.mp4	0.0	211.57876992225647	0.741746187210083
46	148.99082493782043	response	0	2		44.0	2.5	/experiments/knapen_aot/videos/R_S_flickr-claywakening-27928940166_2.mp4	0.0	212.31236600875854	
46	148.99897503852844	movie	1		170.0	44.0	2.5	/experiments/knapen_aot/videos/R_S_flickr-claywakening-27928940166_2.mp4	0.0	212.32051610946655	2.508270025253296
46	151.50724506378174	fix_post	2		12.0	44.0	2.5	/experiments/knapen_aot/videos/R_S_flickr-claywakening-27928940166_2.mp4	0.0	214.82878613471985	0.1000528335571289
47	151.60729789733887	fix_pre	0		66.0	45.0	2.5	/experiments/knapen_aot/videos/R_S_yt-BW6jWEVbxxk_4.mp4	0.0	214.92883896827698	0.5499739646911621
47	152.1416449546814	response	0	2		45.0	2.5	/experiments/knapen_aot/videos/R_S_yt-BW6jWEVbxxk_4.mp4	0.0	215.4631860256195	
47	152.15727186203003	movie	1		301.0	45.0	2.5	/experiments/knapen_aot/videos/R_S_yt-BW6jWEVbxxk_4.mp4	0.0	215.47881293296814	2.5083701610565186
47	154.66564202308655	fix_post	2		11.0	45.0	2.5	/experiments/knapen_aot/videos/R_S_yt-BW6jWEVbxxk_4.mp4	0.0	217.98718309402466	0.10000801086425781
48	154.7656500339508	fix_pre	0		94.0	46.0	2.5	/experiments/knapen_aot/videos/S_yt-J8E_BpSJMpk_5.mp4	0.0	218.08719110488892	0.7833290100097656
48	155.54079794883728	response	0	2		46.0	2.5	/experiments/knapen_aot/videos/S_yt-J8E_BpSJMpk_5.mp4	0.0	218.8623390197754	
48	155.54897904396057	movie	1		301.0	46.0	2.5	/experiments/knapen_aot/videos/S_yt-J8E_BpSJMpk_5.mp4	0.0	218.87052011489868	2.508307933807373
48	158.05728697776794	fix_post	2		12.0	46.0	2.5	/experiments/knapen_aot/videos/S_yt-J8E_BpSJMpk_5.mp4	0.0	221.37882804870605	0.09992289543151855
49	158.15720987319946	fix_pre	0		77.0	47.0	2.5	/experiments/knapen_aot/videos/S_ILSVRC2015_train_00484001.mp4	0.0	221.47875094413757	0.6416599750518799
49	158.79073190689087	response	0	2		47.0	2.5	/experiments/knapen_aot/videos/S_ILSVRC2015_train_00484001.mp4	0.0	222.11227297782898	
49	158.79886984825134	movie	1		300.0	47.0	2.5	/experiments/knapen_aot/videos/S_ILSVRC2015_train_00484001.mp4	0.0	222.12041091918945	2.5083041191101074
49	161.30717396736145	fix_post	2		12.0	47.0	2.5	/experiments/knapen_aot/videos/S_ILSVRC2015_train_00484001.mp4	0.0	224.62871503829956	0.10004496574401855
50	161.40721893310547	fix_pre	0		82.0	48.0	2.5	/experiments/knapen_aot/videos/R_S_pexels-rodnae-productions-7467585.mp4	0.0	224.72876000404358	0.6833479404449463
50	162.0823838710785	response	0	2		48.0	2.5	/experiments/knapen_aot/videos/R_S_pexels-rodnae-productions-7467585.mp4	0.0	225.4039249420166	
50	162.09056687355042	movie	1		165.0	48.0	2.5	/experiments/knapen_aot/videos/R_S_pexels-rodnae-productions-7467585.mp4	0.0	225.41210794448853	2.5083680152893066
50	164.59893488883972	fix_post	2		12.0	48.0	2.5	/experiments/knapen_aot/videos/R_S_pexels-rodnae-productions-7467585.mp4	0.0	227.92047595977783	0.10001897811889648
51	164.69895386695862	fix_pre	0		68.0	49.0	2.5	blank	1.0	228.02049493789673	0.5666301250457764
51	165.2573790550232	response	0	2		49.0	2.5	blank	1.0	228.5789201259613	
51	165.2655839920044	movie	1		301.0	49.0	2.5	blank	1.0	228.5871250629425	2.508342981338501
51	167.7739269733429	fix_post	2		12.0	49.0	2.5	blank	1.0	231.095468044281	0.10002303123474121
52	167.87395000457764	fix_pre	0		82.0	50.0	2.5	/experiments/knapen_aot/videos/S_Pexels_Videos_2791797.mp4	0.0	231.19549107551575	0.6845059394836426
52	168.5490279197693	response	0	2		50.0	2.5	/experiments/knapen_aot/videos/S_Pexels_Videos_2791797.mp4	0.0	231.8705689907074	
52	168.55845594406128	movie	1		166.0	50.0	2.5	/experiments/knapen_aot/videos/S_Pexels_Videos_2791797.mp4	0.0	231.8799970149994	2.507117986679077
52	171.06557393074036	fix_post	2		12.0	50.0	2.5	/experiments/knapen_aot/videos/S_Pexels_Videos_2791797.mp4	0.0	234.38711500167847	0.09999895095825195
53	171.1655728816986	fix_pre	0		88.0	51.0	2.5	/experiments/knapen_aot/videos/R_S_comp_HK_H004_C010_PSNK_v08_SDR_PS_20181009_SDR_2K_AVC.mp4	0.0	234.48711395263672	0.7333300113677979
53	171.8906970024109	response	0	2		51.0	2.5	/experiments/knapen_aot/videos/R_S_comp_HK_H004_C010_PSNK_v08_SDR_PS_20181009_SDR_2K_AVC.mp4	0.0	235.212238073349	
53	171.8989028930664	movie	1		168.0	51.0	2.5	/experiments/knapen_aot/videos/R_S_comp_HK_H004_C010_PSNK_v08_SDR_PS_20181009_SDR_2K_AVC.mp4	0.0	235.22044396400452	2.5082831382751465
53	174.40718603134155	fix_post	2		12.0	51.0	2.5	/experiments/knapen_aot/videos/R_S_comp_HK_H004_C010_PSNK_v08_SDR_PS_20181009_SDR_2K_AVC.mp4	0.0	237.72872710227966	0.09993886947631836
54	174.50712490081787	fix_pre	0		76.0	52.0	2.5	/experiments/knapen_aot/videos/R_S_pexels-koolshooters-7327412.mp4	0.0	237.82866597175598	0.6334271430969238
54	175.12488985061646	response	0	2		52.0	2.5	/experiments/knapen_aot/videos/R_S_pexels-koolshooters-7327412.mp4	0.0	238.44643092155457	
54	175.1405520439148	movie	1		163.0	52.0	2.5	/experiments/knapen_aot/videos/R_S_pexels-koolshooters-7327412.mp4	0.0	238.4620931148529	2.508333921432495
54	177.6488859653473	fix_post	2		12.0	52.0	2.5	/experiments/knapen_aot/videos/R_S_pexels-koolshooters-7327412.mp4	0.0	240.9704270362854	0.09995198249816895
55	177.74883794784546	fix_pre	0		64.0	53.0	2.5	/experiments/knapen_aot/videos/S_wc-dwTccI0TNwps_15.mp4	0.0	241.07037901878357	0.5332739353179932
55	178.27405285835266	response	0	2		53.0	2.5	/experiments/knapen_aot/videos/S_wc-dwTccI0TNwps_15.mp4	0.0	241.59559392929077	
55	178.28211188316345	movie	1		301.0	53.0	2.5	/experiments/knapen_aot/videos/S_wc-dwTccI0TNwps_15.mp4	0.0	241.60365295410156	2.508363962173462
55	180.7904758453369	fix_post	2		12.0	53.0	2.5	/experiments/knapen_aot/videos/S_wc-dwTccI0TNwps_15.mp4	0.0	244.11201691627502	0.10006999969482422
56	180.89054584503174	fix_pre	0		84.0	54.0	2.5	/experiments/knapen_aot/videos/S_yt-YeT4acsbqok_210.mp4	0.0	244.21208691596985	0.699937105178833
56	181.5824098587036	response	0	2		54.0	2.5	/experiments/knapen_aot/videos/S_yt-YeT4acsbqok_210.mp4	0.0	244.90395092964172	
56	181.59048295021057	movie	1		301.0	54.0	2.5	/experiments/knapen_aot/videos/S_yt-YeT4acsbqok_210.mp4	0.0	244.91202402114868	2.5083439350128174
56	184.0988268852234	fix_post	2		12.0	54.0	2.5	/experiments/knapen_aot/videos/S_yt-YeT4acsbqok_210.mp4	0.0	247.4203679561615	0.09996914863586426
57	184.19879603385925	fix_pre	0		72.0	55.0	2.5	/experiments/knapen_aot/videos/S_yt-WrwPgZYBXlA_34.mp4	0.0	247.52033710479736	0.6000349521636963
57	184.79063391685486	response	0	2		55.0	2.5	/experiments/knapen_aot/videos/S_yt-WrwPgZYBXlA_34.mp4	0.0	248.11217498779297	
57	184.79883098602295	movie	1		301.0	55.0	2.5	/experiments/knapen_aot/videos/S_yt-WrwPgZYBXlA_34.mp4	0.0	248.12037205696106	2.5082929134368896
57	187.30712389945984	fix_post	2		12.0	55.0	2.5	/experiments/knapen_aot/videos/S_yt-WrwPgZYBXlA_34.mp4	0.0	250.62866497039795	0.10002613067626953
58	187.4071500301361	fix_pre	0		75.0	56.0	2.5	blank	1.0	250.72869110107422	0.6249649524688721
58	188.02396988868713	response	0	2		56.0	2.5	blank	1.0	251.34551095962524	
58	188.03211498260498	movie	1		301.0	56.0	2.5	blank	1.0	251.3536560535431	2.5083999633789062
58	190.5405149459839	fix_post	2		12.0	56.0	2.5	blank	1.0	253.862056016922	0.10000896453857422
59	190.64052391052246	fix_pre	0		73.0	57.0	2.5	/experiments/knapen_aot/videos/S_yt--cAfxH1WnPo_3.mp4	0.0	253.96206498146057	0.6083121299743652
59	191.24060988426208	response	0	2		57.0	2.5	/experiments/knapen_aot/videos/S_yt--cAfxH1WnPo_3.mp4	0.0	254.5621509552002	
59	191.24883604049683	movie	1		301.0	57.0	2.5	/experiments/knapen_aot/videos/S_yt--cAfxH1WnPo_3.mp4	0.0	254.57037711143494	2.5082709789276123
59	193.75710701942444	fix_post	2		12.0	57.0	2.5	/experiments/knapen_aot/videos/S_yt--cAfxH1WnPo_3.mp4	0.0	257.07864809036255	0.10000991821289062
60	193.85711693763733	fix_pre	0		81.0	58.0	2.5	/experiments/knapen_aot/videos/R_S_yt-QOnORDmVMyU_10.mp4	0.0	257.17865800857544	0.6749379634857178
60	194.5240969657898	response	0	2		58.0	2.5	/experiments/knapen_aot/videos/R_S_yt-QOnORDmVMyU_10.mp4	0.0	257.8456380367279	
60	194.53205490112305	movie	1		301.0	58.0	2.5	/experiments/knapen_aot/videos/R_S_yt-QOnORDmVMyU_10.mp4	0.0	257.85359597206116	2.5083160400390625
60	197.0403709411621	fix_post	2		12.0	58.0	2.5	/experiments/knapen_aot/videos/R_S_yt-QOnORDmVMyU_10.mp4	0.0	260.3619120121002	0.10007810592651367
61	197.14044904708862	fix_pre	0		85.0	59.0	2.5	/experiments/knapen_aot/videos/S_EFR8AteY59I_15.mp4	0.0	260.46199011802673	0.7094089984893799
61	197.84062695503235	response	0	2		59.0	2.5	/experiments/knapen_aot/videos/S_EFR8AteY59I_15.mp4	0.0	261.16216802597046	
61	197.849858045578	movie	1		301.0	59.0	2.5	/experiments/knapen_aot/videos/S_EFR8AteY59I_15.mp4	0.0	261.1713991165161	2.5072507858276367
61	200.35710883140564	fix_post	2		12.0	59.0	2.5	/experiments/knapen_aot/videos/S_EFR8AteY59I_15.mp4	0.0	263.67864990234375	0.10004305839538574
62	200.45715188980103	fix_pre	0		64.0	60.0	2.5	/experiments/knapen_aot/videos/S_yt-H5LQq4MPIao_660.mp4	0.0	263.77869296073914	0.5333189964294434
62	200.98215699195862	response	0	2		60.0	2.5	/experiments/knapen_aot/videos/S_yt-H5LQq4MPIao_660.mp4	0.0	264.30369806289673	
62	200.99047088623047	movie	1		300.0	60.0	2.5	/experiments/knapen_aot/videos/S_yt-H5LQq4MPIao_660.mp4	0.0	264.3120119571686	2.5083131790161133
62	203.49878406524658	fix_post	2		12.0	60.0	2.5	/experiments/knapen_aot/videos/S_yt-H5LQq4MPIao_660.mp4	0.0	266.8203251361847	0.09995198249816895
63	203.59873604774475	fix_pre	0		86.0	61.0	2.5	blank	1.0	266.92027711868286	0.7166719436645508
63	204.30724000930786	response	0	2		61.0	2.5	blank	1.0	267.628781080246	
63	204.3154079914093	movie	1		301.0	61.0	2.5	blank	1.0	267.6369490623474	2.5083730220794678
63	206.82378101348877	fix_post	2		12.0	61.0	2.5	blank	1.0	270.1453220844269	0.09998297691345215
64	206.92376399040222	fix_pre	0		66.0	62.0	2.5	/experiments/knapen_aot/videos/S_ILSVRC2015_train_00067005.mp4	0.0	270.24530506134033	0.5509848594665527
64	207.46551704406738	response	0	2		62.0	2.5	/experiments/knapen_aot/videos/S_ILSVRC2015_train_00067005.mp4	0.0	270.7870581150055	
64	207.47474884986877	movie	1		301.0	62.0	2.5	/experiments/knapen_aot/videos/S_ILSVRC2015_train_00067005.mp4	0.0	270.7962899208069	2.507328987121582
64	209.98207783699036	fix_post	2		12.0	62.0	2.5	/experiments/knapen_aot/videos/S_ILSVRC2015_train_00067005.mp4	0.0	273.30361890792847	0.09998703002929688
65	210.08206486701965	fix_pre	0		48.0	63.0	2.5	/experiments/knapen_aot/videos/R_S_yt-kKRGgUhVRzc_74.mp4	0.0	273.40360593795776	0.39998817443847656
65	210.47384095191956	response	0	2		63.0	2.5	/experiments/knapen_aot/videos/R_S_yt-kKRGgUhVRzc_74.mp4	0.0	273.79538202285767	
65	210.48205304145813	movie	1		301.0	63.0	2.5	/experiments/knapen_aot/videos/R_S_yt-kKRGgUhVRzc_74.mp4	0.0	273.80359411239624	2.5083248615264893
65	212.99037790298462	fix_post	2		12.0	63.0	2.5	/experiments/knapen_aot/videos/R_S_yt-kKRGgUhVRzc_74.mp4	0.0	276.31191897392273	0.10000014305114746
66	213.09037804603577	fix_pre	0		65.0	64.0	2.5	/experiments/knapen_aot/videos/S_yt-AbJBxqEYoMg_105.mp4	0.0	276.4119191169739	0.5416829586029053
66	213.62383794784546	response	0	2		64.0	2.5	/experiments/knapen_aot/videos/S_yt-AbJBxqEYoMg_105.mp4	0.0	276.94537901878357	
66	213.63206100463867	movie	1		300.0	64.0	2.5	/experiments/knapen_aot/videos/S_yt-AbJBxqEYoMg_105.mp4	0.0	276.9536020755768	2.5083298683166504
66	216.14039087295532	fix_post	2		12.0	64.0	2.5	/experiments/knapen_aot/videos/S_yt-AbJBxqEYoMg_105.mp4	0.0	279.46193194389343	0.0999600887298584
67	216.24035096168518	fix_pre	0		99.0	65.0	2.5	/experiments/knapen_aot/videos/R_S_ILSVRC2015_train_00219003.mp4	0.0	279.5618920326233	0.8249828815460205
67	217.05713987350464	response	0	2		65.0	2.5	/experiments/knapen_aot/videos/R_S_ILSVRC2015_train_00219003.mp4	0.0	280.37868094444275	
67	217.0653338432312	movie	1		301.0	65.0	2.5	/experiments/knapen_aot/videos/R_S_ILSVRC2015_train_00219003.mp4	0.0	280.3868749141693	2.508364200592041
67	219.57369804382324	fix_post	2		12.0	65.0	2.5	/experiments/knapen_aot/videos/R_S_ILSVRC2015_train_00219003.mp4	0.0	282.89523911476135	0.10017800331115723
68	219.6738760471344	fix_pre	0		96.0	66.0	2.5	/experiments/knapen_aot/videos/R_S_yt-q9-_bG9ry3E_5.mp4	0.0	282.9954171180725	0.8007538318634033
68	220.45793104171753	response	0	2		66.0	2.5	/experiments/knapen_aot/videos/R_S_yt-q9-_bG9ry3E_5.mp4	0.0	283.77947211265564	
68	220.4746298789978	movie	1		301.0	66.0	2.5	/experiments/knapen_aot/videos/R_S_yt-q9-_bG9ry3E_5.mp4	0.0	283.7961709499359	2.5074219703674316
68	222.98205184936523	fix_post	2		12.0	66.0	2.5	/experiments/knapen_aot/videos/R_S_yt-q9-_bG9ry3E_5.mp4	0.0	286.30359292030334	0.10004615783691406
69	223.08209800720215	fix_pre	0		71.0	67.0	2.5	/experiments/knapen_aot/videos/S_yt-YeT4acsbqok_210.mp4	0.0	286.40363907814026	0.5915508270263672
69	223.66552805900574	response	0	2		67.0	2.5	/experiments/knapen_aot/videos/S_yt-YeT4acsbqok_210.mp4	0.0	286.98706912994385	
69	223.67364883422852	movie	1		301.0	67.0	2.5	/experiments/knapen_aot/videos/S_yt-YeT4acsbqok_210.mp4	0.0	286.9951899051666	2.5083250999450684
69	226.18197393417358	fix_post	2		12.0	67.0	2.5	/experiments/knapen_aot/videos/S_yt-YeT4acsbqok_210.mp4	0.0	289.5035150051117	0.1000521183013916
70	226.28202605247498	fix_pre	0		99.0	68.0	2.5	/experiments/knapen_aot/videos/S_yt-H5LQq4MPIao_660.mp4	0.0	289.6035671234131	0.8249738216400146
70	227.09881806373596	response	0	2		68.0	2.5	/experiments/knapen_aot/videos/S_yt-H5LQq4MPIao_660.mp4	0.0	290.4203591346741	
70	227.106999874115	movie	1		301.0	68.0	2.5	/experiments/knapen_aot/videos/S_yt-H5LQq4MPIao_660.mp4	0.0	290.4285409450531	2.508280038833618
70	229.6152799129486	fix_post	2		12.0	68.0	2.5	/experiments/knapen_aot/videos/S_yt-H5LQq4MPIao_660.mp4	0.0	292.9368209838867	0.099945068359375
71	229.71522498130798	fix_pre	0		88.0	69.0	2.5	blank	1.0	293.0367660522461	0.7334780693054199
71	230.4404489994049	response	0	2		69.0	2.5	blank	1.0	293.761990070343	
71	230.4487030506134	movie	1		301.0	69.0	2.5	blank	1.0	293.7702441215515	2.50827693939209
71	232.9569799900055	fix_post	2		12.0	69.0	2.5	blank	1.0	296.2785210609436	0.09998202323913574
72	233.05696201324463	fix_pre	0		88.0	70.0	2.5	/experiments/knapen_aot/videos/R_S_yt-QqSceHxY3d0_356.mp4	0.0	296.37850308418274	0.7333159446716309
72	233.7821228504181	response	0	2		70.0	2.5	/experiments/knapen_aot/videos/R_S_yt-QqSceHxY3d0_356.mp4	0.0	297.1036639213562	
72	233.79027795791626	movie	1		300.0	70.0	2.5	/experiments/knapen_aot/videos/R_S_yt-QqSceHxY3d0_356.mp4	0.0	297.11181902885437	2.5083460807800293
72	236.2986240386963	fix_post	2		12.0	70.0	2.5	/experiments/knapen_aot/videos/R_S_yt-QqSceHxY3d0_356.mp4	0.0	299.6201651096344	0.0999917984008789
73	236.39861583709717	fix_pre	0		86.0	71.0	2.5	/experiments/knapen_aot/videos/R_S_yt-QOnORDmVMyU_10.mp4	0.0	299.7201569080353	0.7166321277618408
73	237.10712790489197	response	0	2		71.0	2.5	/experiments/knapen_aot/videos/R_S_yt-QOnORDmVMyU_10.mp4	0.0	300.4286689758301	
73	237.115247964859	movie	1		301.0	71.0	2.5	/experiments/knapen_aot/videos/R_S_yt-QOnORDmVMyU_10.mp4	0.0	300.4367890357971	2.508394956588745
73	239.62364292144775	fix_post	2		12.0	71.0	2.5	/experiments/knapen_aot/videos/R_S_yt-QOnORDmVMyU_10.mp4	0.0	302.94518399238586	0.09993791580200195
74	239.72358083724976	fix_pre	0		88.0	72.0	2.5	/experiments/knapen_aot/videos/S_yt-kNZUFy3cbjQ_9.mp4	0.0	303.04512190818787	0.7333509922027588
74	240.44877290725708	response	0	2		72.0	2.5	/experiments/knapen_aot/videos/S_yt-kNZUFy3cbjQ_9.mp4	0.0	303.7703139781952	
74	240.45693182945251	movie	1		301.0	72.0	2.5	/experiments/knapen_aot/videos/S_yt-kNZUFy3cbjQ_9.mp4	0.0	303.7784729003906	2.5083022117614746
74	242.965234041214	fix_post	2		12.0	72.0	2.5	/experiments/knapen_aot/videos/S_yt-kNZUFy3cbjQ_9.mp4	0.0	306.2867751121521	0.09998297691345215
75	243.06521701812744	fix_pre	0		84.0	73.0	2.5	/experiments/knapen_aot/videos/S_yt-qE70lj3-A78_228.mp4	0.0	306.38675808906555	0.7008700370788574
75	243.75710487365723	response	0	2		73.0	2.5	/experiments/knapen_aot/videos/S_yt-qE70lj3-A78_228.mp4	0.0	307.07864594459534	
75	243.7660870552063	movie	1		301.0	73.0	2.5	/experiments/knapen_aot/videos/S_yt-qE70lj3-A78_228.mp4	0.0	307.0876281261444	2.5074567794799805
75	246.27354383468628	fix_post	2		12.0	73.0	2.5	/experiments/knapen_aot/videos/S_yt-qE70lj3-A78_228.mp4	0.0	309.5950849056244	0.09996509552001953
76	246.3735089302063	fix_pre	0		109.0	74.0	2.5	/experiments/knapen_aot/videos/R_S_yt-K-iCphzt_RE_17.mp4	0.0	309.6950500011444	0.9084069728851318
76	247.2737319469452	response	0	2		74.0	2.5	/experiments/knapen_aot/videos/R_S_yt-K-iCphzt_RE_17.mp4	0.0	310.5952730178833	
76	247.28191590309143	movie	1		300.0	74.0	2.5	/experiments/knapen_aot/videos/R_S_yt-K-iCphzt_RE_17.mp4	0.0	310.60345697402954	2.5082759857177734
76	249.7901918888092	fix_post	2		12.0	74.0	2.5	/experiments/knapen_aot/videos/R_S_yt-K-iCphzt_RE_17.mp4	0.0	313.1117329597473	0.09994816780090332
77	249.8901400566101	fix_pre	0		93.0	75.0	2.5	blank	1.0	313.2116811275482	0.7750527858734131
77	250.65704798698425	response	0	2		75.0	2.5	blank	1.0	313.97858905792236	
77	250.66519284248352	movie	1		301.0	75.0	2.5	blank	1.0	313.98673391342163	2.5083889961242676
77	253.1735818386078	fix_post	2		12.0	75.0	2.5	blank	1.0	316.4951229095459	0.0999910831451416
78	253.27357292175293	fix_pre	0		30.0	76.0	2.5	/experiments/knapen_aot/videos/S_production_ID_4540332.mp4	0.0	316.59511399269104	0.24996590614318848
78	253.51528882980347	response	0	2		76.0	2.5	/experiments/knapen_aot/videos/S_production_ID_4540332.mp4	0.0	316.8368299007416	
78	253.52353882789612	movie	1		171.0	76.0	2.5	/experiments/knapen_aot/videos/S_production_ID_4540332.mp4	0.0	316.84507989883423	2.50828218460083
78	256.03182101249695	fix_post	2		12.0	76.0	2.5	/experiments/knapen_aot/videos/S_production_ID_4540332.mp4	0.0	319.35336208343506	0.10005497932434082
79	256.1318759918213	fix_pre	0		74.0	77.0	2.5	/experiments/knapen_aot/videos/R_S_flickr-claywakening-27928940166_2.mp4	0.0	319.4534170627594	0.6166419982910156
79	256.7403290271759	response	0	2		77.0	2.5	/experiments/knapen_aot/videos/R_S_flickr-claywakening-27928940166_2.mp4	0.0	320.061870098114	
79	256.7485179901123	movie	1		173.0	77.0	2.5	/experiments/knapen_aot/videos/R_S_flickr-claywakening-27928940166_2.mp4	0.0	320.0700590610504	2.508404016494751
79	259.25692200660706	fix_post	2		12.0	77.0	2.5	/experiments/knapen_aot/videos/R_S_flickr-claywakening-27928940166_2.mp4	0.0	322.57846307754517	0.09999203681945801
80	259.3569140434265	fix_pre	0		74.0	78.0	2.5	/experiments/knapen_aot/videos/S_yt-D6fhzH21T_E_26.mp4	0.0	322.6784551143646	0.6173579692840576
80	259.9654040336609	response	0	2		78.0	2.5	/experiments/knapen_aot/videos/S_yt-D6fhzH21T_E_26.mp4	0.0	323.286945104599	
80	259.97427201271057	movie	1		301.0	78.0	2.5	/experiments/knapen_aot/videos/S_yt-D6fhzH21T_E_26.mp4	0.0	323.2958130836487	2.5075490474700928
80	262.48182106018066	fix_post	2		12.0	78.0	2.5	/experiments/knapen_aot/videos/S_yt-D6fhzH21T_E_26.mp4	0.0	325.8033621311188	0.09998798370361328
81	262.5818090438843	fix_pre	0		75.0	79.0	2.5	/experiments/knapen_aot/videos/S_yt-_HuBzj8EPBc_62.mp4	0.0	325.9033501148224	0.6250109672546387
81	263.1986529827118	response	0	2		79.0	2.5	/experiments/knapen_aot/videos/S_yt-_HuBzj8EPBc_62.mp4	0.0	326.5201940536499	
81	263.2068200111389	movie	1		301.0	79.0	2.5	/experiments/knapen_aot/videos/S_yt-_HuBzj8EPBc_62.mp4	0.0	326.528361082077	2.5083260536193848
81	265.7151460647583	fix_post	2		12.0	79.0	2.5	/experiments/knapen_aot/videos/S_yt-_HuBzj8EPBc_62.mp4	0.0	329.0366871356964	0.09993696212768555
82	265.815083026886	fix_pre	0		75.0	80.0	2.5	/experiments/knapen_aot/videos/R_S_yt-GWgG8PVM1iw_34.mp4	0.0	329.1366240978241	0.6250519752502441
82	266.4319658279419	response	0	2		80.0	2.5	/experiments/knapen_aot/videos/R_S_yt-GWgG8PVM1iw_34.mp4	0.0	329.75350689888	
82	266.44013500213623	movie	1		301.0	80.0	2.5	/experiments/knapen_aot/videos/R_S_yt-GWgG8PVM1iw_34.mp4	0.0	329.76167607307434	2.50833797454834
82	268.94847297668457	fix_post	2		12.0	80.0	2.5	/experiments/knapen_aot/videos/R_S_yt-GWgG8PVM1iw_34.mp4	0.0	332.2700140476227	0.10007286071777344
83	269.04854583740234	fix_pre	0		75.0	81.0	2.5	/experiments/knapen_aot/videos/R_S_yt-H5LQq4MPIao_660.mp4	0.0	332.37008690834045	0.625014066696167
83	269.66529989242554	response	0	2		81.0	2.5	/experiments/knapen_aot/videos/R_S_yt-H5LQq4MPIao_660.mp4	0.0	332.98684096336365	
83	269.6735599040985	movie	1		297.0	81.0	2.5	/experiments/knapen_aot/videos/R_S_yt-H5LQq4MPIao_660.mp4	0.0	332.9951009750366	2.508294105529785
83	272.1818540096283	fix_post	2		12.0	81.0	2.5	/experiments/knapen_aot/videos/R_S_yt-H5LQq4MPIao_660.mp4	0.0	335.5033950805664	0.09990882873535156
84	272.28176283836365	fix_pre	0		93.0	82.0	2.5	/experiments/knapen_aot/videos/S_comp_LW_L001_C006_PSNK_DENOISE_v02_SDR_PS_FINAL_20180709_SDR_2K_AVC.mp4	0.0	335.60330390930176	0.7757220268249512
84	273.04856991767883	response	0	2		82.0	2.5	/experiments/knapen_aot/videos/S_comp_LW_L001_C006_PSNK_DENOISE_v02_SDR_PS_FINAL_20180709_SDR_2K_AVC.mp4	0.0	336.37011098861694	
84	273.0574848651886	movie	1		166.0	82.0	2.5	/experiments/knapen_aot/videos/S_comp_LW_L001_C006_PSNK_DENOISE_v02_SDR_PS_FINAL_20180709_SDR_2K_AVC.mp4	0.0	336.3790259361267	2.507556200027466
84	275.56504106521606	fix_post	2		12.0	82.0	2.5	/experiments/knapen_aot/videos/S_comp_LW_L001_C006_PSNK_DENOISE_v02_SDR_PS_FINAL_20180709_SDR_2K_AVC.mp4	0.0	338.8865821361542	0.10006284713745117
85	275.6651039123535	fix_pre	0		100.0	83.0	2.5	blank	1.0	338.9866449832916	0.8332910537719727
85	276.49028396606445	response	0	2		83.0	2.5	blank	1.0	339.81182503700256	
85	276.4983949661255	movie	1		301.0	83.0	2.5	blank	1.0	339.8199360370636	2.5083839893341064
85	279.0067789554596	fix_post	2		12.0	83.0	2.5	blank	1.0	342.3283200263977	0.1000509262084961
87	279.1068298816681	stim	0		236.0					342.4283709526062	1.9666311740875244
87	281.06686186790466	response	0	space						344.3884029388428	
