trial_nr	onset	event_type	phase	response	nr_frames	movie_index	movie_duration	movie_file	blank	onset_abs	duration
0	0.13530182838439941	stim	0		21.0					65.56528782844543	0.17352509498596191
0	0.30004096031188965	response	0	space						65.73002696037292	
1	0.30882692337036133	stim	0		121.0					65.7388129234314	1.0077428817749023
1	1.0000238418579102	response	0	space						66.43000984191895	
1	1.3165698051452637	stim	1		120.0					66.7465558052063	0.999622106552124
1	1.408362865447998	response	1	space						66.83834886550903	
1	1.7496068477630615	response	1	space						67.1795928478241	
1	2.1163108348846436	response	1	space						67.54629683494568	
2	2.3161919116973877	fix_pre	0		45.0	0.0	2.5	/experiments/knapen_aot/videos/S_ILSVRC2015_train_00545000.mp4	0.0	67.74617791175842	0.375014066696167
2	2.6830389499664307	response	0	space		0.0	2.5	/experiments/knapen_aot/videos/S_ILSVRC2015_train_00545000.mp4	0.0	68.11302495002747	
2	2.6912059783935547	movie	1		301.0	0.0	2.5	/experiments/knapen_aot/videos/S_ILSVRC2015_train_00545000.mp4	0.0	68.12119197845459	2.5082859992980957
2	5.19949197769165	fix_post	2		12.0	0.0	2.5	/experiments/knapen_aot/videos/S_ILSVRC2015_train_00545000.mp4	0.0	70.62947797775269	0.10007286071777344
3	5.299564838409424	fix_pre	0		48.0	1.0	2.5	/experiments/knapen_aot/videos/S_pexels-tima-miroshnichenko-6077718.mp4	0.0	70.72955083847046	0.4046940803527832
3	5.696234941482544	response	0	2		1.0	2.5	/experiments/knapen_aot/videos/S_pexels-tima-miroshnichenko-6077718.mp4	0.0	71.12622094154358	
3	5.704258918762207	movie	1		165.0	1.0	2.5	/experiments/knapen_aot/videos/S_pexels-tima-miroshnichenko-6077718.mp4	0.0	71.13424491882324	2.5035030841827393
3	8.207762002944946	fix_post	2		12.0	1.0	2.5	/experiments/knapen_aot/videos/S_pexels-tima-miroshnichenko-6077718.mp4	0.0	73.63774800300598	0.10004496574401855
4	8.307806968688965	fix_pre	0		36.0	2.0	2.5	/experiments/knapen_aot/videos/S_production_ID_4765899.mp4	0.0	73.73779296875	0.3000040054321289
4	8.599638938903809	response	0	2		2.0	2.5	/experiments/knapen_aot/videos/S_production_ID_4765899.mp4	0.0	74.02962493896484	
4	8.607810974121094	movie	1		165.0	2.0	2.5	/experiments/knapen_aot/videos/S_production_ID_4765899.mp4	0.0	74.03779697418213	2.508436918258667
4	11.11624789237976	fix_post	2		12.0	2.0	2.5	/experiments/knapen_aot/videos/S_production_ID_4765899.mp4	0.0	76.5462338924408	0.0999600887298584
5	11.21620798110962	fix_pre	0		42.0	3.0	2.5	/experiments/knapen_aot/videos/R_S_yt-4qU-6TEW06E_38.mp4	0.0	76.64619398117065	0.3499598503112793
5	11.557965993881226	response	0	2		3.0	2.5	/experiments/knapen_aot/videos/R_S_yt-4qU-6TEW06E_38.mp4	0.0	76.98795199394226	
5	11.566167831420898	movie	1		301.0	3.0	2.5	/experiments/knapen_aot/videos/R_S_yt-4qU-6TEW06E_38.mp4	0.0	76.99615383148193	2.5083110332489014
5	14.0744788646698	fix_post	2		12.0	3.0	2.5	/experiments/knapen_aot/videos/R_S_yt-4qU-6TEW06E_38.mp4	0.0	79.50446486473083	0.1000361442565918
6	14.174515008926392	fix_pre	0		44.0	4.0	2.5	/experiments/knapen_aot/videos/R_S_ILSVRC2015_train_00568002.mp4	0.0	79.60450100898743	0.36662983894348145
6	14.532944917678833	response	0	2		4.0	2.5	/experiments/knapen_aot/videos/R_S_ILSVRC2015_train_00568002.mp4	0.0	79.96293091773987	
6	14.541144847869873	movie	1		299.0	4.0	2.5	/experiments/knapen_aot/videos/R_S_ILSVRC2015_train_00568002.mp4	0.0	79.97113084793091	2.5084049701690674
6	17.04954981803894	fix_post	2		12.0	4.0	2.5	/experiments/knapen_aot/videos/R_S_ILSVRC2015_train_00568002.mp4	0.0	82.47953581809998	0.09995198249816895
7	17.14950180053711	fix_pre	0		26.0	5.0	2.5	/experiments/knapen_aot/videos/S_ILSVRC2015_train_00547001.mp4	0.0	82.57948780059814	0.2166581153869629
7	17.357950925827026	response	0	2		5.0	2.5	/experiments/knapen_aot/videos/S_ILSVRC2015_train_00547001.mp4	0.0	82.78793692588806	
7	17.366159915924072	movie	1		301.0	5.0	2.5	/experiments/knapen_aot/videos/S_ILSVRC2015_train_00547001.mp4	0.0	82.79614591598511	2.5083301067352295
7	19.8744900226593	fix_post	2		12.0	5.0	2.5	/experiments/knapen_aot/videos/S_ILSVRC2015_train_00547001.mp4	0.0	85.30447602272034	0.10054898262023926
8	19.97503900527954	fix_pre	0		26.0	6.0	2.5	/experiments/knapen_aot/videos/S_comp_GL_G004_C010_PSNK_v04_SDR_PS_FINAL_20180709_SDR_2K_AVC.mp4	0.0	85.40502500534058	0.2161269187927246
8	20.182899951934814	response	0	2		6.0	2.5	/experiments/knapen_aot/videos/S_comp_GL_G004_C010_PSNK_v04_SDR_PS_FINAL_20180709_SDR_2K_AVC.mp4	0.0	85.61288595199585	
8	20.191165924072266	movie	1		166.0	6.0	2.5	/experiments/knapen_aot/videos/S_comp_GL_G004_C010_PSNK_v04_SDR_PS_FINAL_20180709_SDR_2K_AVC.mp4	0.0	85.6211519241333	2.508354902267456
8	22.69952082633972	fix_post	2		12.0	6.0	2.5	/experiments/knapen_aot/videos/S_comp_GL_G004_C010_PSNK_v04_SDR_PS_FINAL_20180709_SDR_2K_AVC.mp4	0.0	88.12950682640076	0.10001015663146973
9	22.79953098297119	fix_pre	0		5.0	7.0	2.5	blank	1.0	88.22951698303223	0.04165291786193848
9	22.832968950271606	response	0	2		7.0	2.5	blank	1.0	88.26295495033264	
9	22.84118390083313	movie	1		301.0	7.0	2.5	blank	1.0	88.27116990089417	2.5083160400390625
9	25.349499940872192	fix_post	2		12.0	7.0	2.5	blank	1.0	90.77948594093323	0.09996199607849121
10	25.449461936950684	fix_pre	0		16.0	8.0	2.5	/experiments/knapen_aot/videos/R_S_yt-urJgH6tpfkU_204.mp4	0.0	90.87944793701172	0.13333392143249512
10	25.574607849121094	response	0	2		8.0	2.5	/experiments/knapen_aot/videos/R_S_yt-urJgH6tpfkU_204.mp4	0.0	91.00459384918213	
10	25.58279585838318	movie	1		301.0	8.0	2.5	/experiments/knapen_aot/videos/R_S_yt-urJgH6tpfkU_204.mp4	0.0	91.01278185844421	2.508358955383301
10	28.09115481376648	fix_post	2		12.0	8.0	2.5	/experiments/knapen_aot/videos/R_S_yt-urJgH6tpfkU_204.mp4	0.0	93.52114081382751	0.10001802444458008
11	28.19117283821106	fix_pre	0		34.0	9.0	2.5	/experiments/knapen_aot/videos/R_S_I005_C008_CROP_SDR_2K_AVC.mp4	0.0	93.6211588382721	0.28377199172973633
11	28.46636986732483	response	0	2		9.0	2.5	/experiments/knapen_aot/videos/R_S_I005_C008_CROP_SDR_2K_AVC.mp4	0.0	93.89635586738586	
11	28.474944829940796	movie	1		167.0	9.0	2.5	/experiments/knapen_aot/videos/R_S_I005_C008_CROP_SDR_2K_AVC.mp4	0.0	93.90493083000183	2.507841110229492
11	30.982785940170288	fix_post	2		12.0	9.0	2.5	/experiments/knapen_aot/videos/R_S_I005_C008_CROP_SDR_2K_AVC.mp4	0.0	96.41277194023132	0.10005998611450195
12	31.08284592628479	fix_pre	0		30.0	10.0	2.5	/experiments/knapen_aot/videos/R_S_yt-urJgH6tpfkU_204.mp4	0.0	96.51283192634583	0.24993395805358887
12	31.32464289665222	response	0	2		10.0	2.5	/experiments/knapen_aot/videos/R_S_yt-urJgH6tpfkU_204.mp4	0.0	96.75462889671326	
12	31.33277988433838	movie	1		301.0	10.0	2.5	/experiments/knapen_aot/videos/R_S_yt-urJgH6tpfkU_204.mp4	0.0	96.76276588439941	2.5083229541778564
12	33.841102838516235	fix_post	2		12.0	10.0	2.5	/experiments/knapen_aot/videos/R_S_yt-urJgH6tpfkU_204.mp4	0.0	99.27108883857727	0.10001516342163086
13	33.941118001937866	fix_pre	0		37.0	11.0	2.5	/experiments/knapen_aot/videos/R_S_flickr-51283549@N02-23064904264_16.mp4	0.0	99.3711040019989	0.3082749843597412
13	34.23373985290527	response	0	2		11.0	2.5	/experiments/knapen_aot/videos/R_S_flickr-51283549@N02-23064904264_16.mp4	0.0	99.66372585296631	
13	34.24939298629761	movie	1		166.0	11.0	2.5	/experiments/knapen_aot/videos/R_S_flickr-51283549@N02-23064904264_16.mp4	0.0	99.67937898635864	2.5083658695220947
13	36.7577588558197	fix_post	2		12.0	11.0	2.5	/experiments/knapen_aot/videos/R_S_flickr-51283549@N02-23064904264_16.mp4	0.0	102.18774485588074	0.10007715225219727
14	36.8578360080719	fix_pre	0		30.0	12.0	2.5	/experiments/knapen_aot/videos/S_yt-JGKdBO2Ldzo_93.mp4	0.0	102.28782200813293	0.24985599517822266
14	37.09942984580994	response	0	2		12.0	2.5	/experiments/knapen_aot/videos/S_yt-JGKdBO2Ldzo_93.mp4	0.0	102.52941584587097	
14	37.10769200325012	movie	1		301.0	12.0	2.5	/experiments/knapen_aot/videos/S_yt-JGKdBO2Ldzo_93.mp4	0.0	102.53767800331116	2.5083699226379395
14	39.61606192588806	fix_post	2		12.0	12.0	2.5	/experiments/knapen_aot/videos/S_yt-JGKdBO2Ldzo_93.mp4	0.0	105.0460479259491	0.10001397132873535
15	39.7160758972168	fix_pre	0		24.0	13.0	2.5	blank	1.0	105.14606189727783	0.2000119686126709
15	39.90785098075867	response	0	2		13.0	2.5	blank	1.0	105.3378369808197	
15	39.91608786582947	movie	1		301.0	13.0	2.5	blank	1.0	105.3460738658905	2.508319139480591
15	42.42440700531006	fix_post	2		12.0	13.0	2.5	blank	1.0	107.8543930053711	0.09994101524353027
16	42.52434802055359	fix_pre	0		38.0	14.0	2.5	/experiments/knapen_aot/videos/R_S_Pz_NXxhQCJc_70.mp4	0.0	107.95433402061462	0.31665778160095215
16	42.83279085159302	response	0	2		14.0	2.5	/experiments/knapen_aot/videos/R_S_Pz_NXxhQCJc_70.mp4	0.0	108.26277685165405	
16	42.84100580215454	movie	1		301.0	14.0	2.5	/experiments/knapen_aot/videos/R_S_Pz_NXxhQCJc_70.mp4	0.0	108.27099180221558	2.508380174636841
16	45.34938597679138	fix_post	2		12.0	14.0	2.5	/experiments/knapen_aot/videos/R_S_Pz_NXxhQCJc_70.mp4	0.0	110.77937197685242	0.09998583793640137
17	45.44937181472778	fix_pre	0		13.0	15.0	2.5	/experiments/knapen_aot/videos/S_ILSVRC2015_train_00696000.mp4	0.0	110.87935781478882	0.10868501663208008
17	45.54197597503662	response	0	2		15.0	2.5	/experiments/knapen_aot/videos/S_ILSVRC2015_train_00696000.mp4	0.0	110.97196197509766	
17	45.55805683135986	movie	1		301.0	15.0	2.5	/experiments/knapen_aot/videos/S_ILSVRC2015_train_00696000.mp4	0.0	110.9880428314209	2.508028030395508
17	48.06608486175537	fix_post	2		12.0	15.0	2.5	/experiments/knapen_aot/videos/S_ILSVRC2015_train_00696000.mp4	0.0	113.4960708618164	0.09990715980529785
18	48.16599202156067	fix_pre	0		23.0	16.0	2.5	/experiments/knapen_aot/videos/S_ILSVRC2015_train_00446000.mp4	0.0	113.5959780216217	0.19165396690368652
18	48.34213590621948	response	0	2		16.0	2.5	/experiments/knapen_aot/videos/S_ILSVRC2015_train_00446000.mp4	0.0	113.77212190628052	
18	48.357645988464355	movie	1		301.0	16.0	2.5	/experiments/knapen_aot/videos/S_ILSVRC2015_train_00446000.mp4	0.0	113.78763198852539	2.508391857147217
18	50.86603784561157	fix_post	2		12.0	16.0	2.5	/experiments/knapen_aot/videos/S_ILSVRC2015_train_00446000.mp4	0.0	116.29602384567261	0.10001301765441895
19	50.96605086326599	fix_pre	0		26.0	17.0	2.5	/experiments/knapen_aot/videos/R_S_bing-www_break_com_video_like-a-cat-catching-a-fly-3131008_12.mp4	0.0	116.39603686332703	0.21698212623596191
19	51.16703796386719	response	0	2		17.0	2.5	/experiments/knapen_aot/videos/R_S_bing-www_break_com_video_like-a-cat-catching-a-fly-3131008_12.mp4	0.0	116.59702396392822	
19	51.18303298950195	movie	1		301.0	17.0	2.5	/experiments/knapen_aot/videos/R_S_bing-www_break_com_video_like-a-cat-catching-a-fly-3131008_12.mp4	0.0	116.61301898956299	2.5079610347747803
19	53.69099402427673	fix_post	2		12.0	17.0	2.5	/experiments/knapen_aot/videos/R_S_bing-www_break_com_video_like-a-cat-catching-a-fly-3131008_12.mp4	0.0	119.12098002433777	0.0999457836151123
20	53.790939807891846	fix_pre	0		43.0	18.0	2.5	/experiments/knapen_aot/videos/S_yt-zh2yLr-o_8A_953.mp4	0.0	119.22092580795288	0.3583869934082031
20	54.14111280441284	response	0	2		18.0	2.5	/experiments/knapen_aot/videos/S_yt-zh2yLr-o_8A_953.mp4	0.0	119.57109880447388	
20	54.14932680130005	movie	1		301.0	18.0	2.5	/experiments/knapen_aot/videos/S_yt-zh2yLr-o_8A_953.mp4	0.0	119.57931280136108	2.5083060264587402
20	56.65763282775879	fix_post	2		12.0	18.0	2.5	/experiments/knapen_aot/videos/S_yt-zh2yLr-o_8A_953.mp4	0.0	122.08761882781982	0.09996414184570312
21	56.75759696960449	fix_pre	0		21.0	19.0	2.5	/experiments/knapen_aot/videos/R_S_yt-Faxdis4m3Fw_9.mp4	0.0	122.18758296966553	0.17539286613464355
21	56.91706395149231	response	0	2		19.0	2.5	/experiments/knapen_aot/videos/R_S_yt-Faxdis4m3Fw_9.mp4	0.0	122.34704995155334	
21	56.932989835739136	movie	1		301.0	19.0	2.5	/experiments/knapen_aot/videos/R_S_yt-Faxdis4m3Fw_9.mp4	0.0	122.36297583580017	2.508028984069824
21	59.44101881980896	fix_post	2		12.0	19.0	2.5	/experiments/knapen_aot/videos/R_S_yt-Faxdis4m3Fw_9.mp4	0.0	124.87100481987	0.0998990535736084
22	59.54091787338257	fix_pre	0		21.0	20.0	2.5	blank	1.0	124.9709038734436	0.17504310607910156
22	59.70770597457886	response	0	2		20.0	2.5	blank	1.0	125.13769197463989	
22	59.71596097946167	movie	1		301.0	20.0	2.5	blank	1.0	125.1459469795227	2.5083680152893066
22	62.22432899475098	fix_post	2		12.0	20.0	2.5	blank	1.0	127.65431499481201	0.09993696212768555
23	62.32426595687866	fix_pre	0		25.0	21.0	2.5	/experiments/knapen_aot/videos/R_S_production_ID_5049072.mp4	0.0	127.7542519569397	0.20836901664733887
23	62.524410009384155	response	0	2		21.0	2.5	/experiments/knapen_aot/videos/R_S_production_ID_5049072.mp4	0.0	127.95439600944519	
23	62.532634973526	movie	1		166.0	21.0	2.5	/experiments/knapen_aot/videos/R_S_production_ID_5049072.mp4	0.0	127.96262097358704	2.508293867111206
23	65.0409288406372	fix_post	2		12.0	21.0	2.5	/experiments/knapen_aot/videos/R_S_production_ID_5049072.mp4	0.0	130.47091484069824	0.10037517547607422
24	65.14130401611328	fix_pre	0		39.0	22.0	2.5	/experiments/knapen_aot/videos/R_S_yt-HFiRYTnMZxE_338.mp4	0.0	130.57129001617432	0.32466578483581543
24	65.45765686035156	response	0	2		22.0	2.5	/experiments/knapen_aot/videos/R_S_yt-HFiRYTnMZxE_338.mp4	0.0	130.8876428604126	
24	65.4659698009491	movie	1		301.0	22.0	2.5	/experiments/knapen_aot/videos/R_S_yt-HFiRYTnMZxE_338.mp4	0.0	130.89595580101013	2.5083351135253906
24	67.97430491447449	fix_post	2		12.0	22.0	2.5	/experiments/knapen_aot/videos/R_S_yt-HFiRYTnMZxE_338.mp4	0.0	133.40429091453552	0.100006103515625
25	68.07431101799011	fix_pre	0		19.0	23.0	2.5	/experiments/knapen_aot/videos/S_yt-ILARvS15SDQ_741.mp4	0.0	133.50429701805115	0.15827083587646484
25	68.22433590888977	response	0	2		23.0	2.5	/experiments/knapen_aot/videos/S_yt-ILARvS15SDQ_741.mp4	0.0	133.6543219089508	
25	68.23258185386658	movie	1		301.0	23.0	2.5	/experiments/knapen_aot/videos/S_yt-ILARvS15SDQ_741.mp4	0.0	133.6625678539276	2.508389949798584
25	70.74097180366516	fix_post	2		12.0	23.0	2.5	/experiments/knapen_aot/videos/S_yt-ILARvS15SDQ_741.mp4	0.0	136.1709578037262	0.1000370979309082
26	70.84100890159607	fix_pre	0		43.0	24.0	2.5	/experiments/knapen_aot/videos/S_comp_LA_A011_C003_DGRN_LNFIX_STAB_v57_SDR_PS_20181002_SDR_2K_AVC.mp4	0.0	136.2709949016571	0.3666400909423828
26	71.19104099273682	response	0	2		24.0	2.5	/experiments/knapen_aot/videos/S_comp_LA_A011_C003_DGRN_LNFIX_STAB_v57_SDR_PS_20181002_SDR_2K_AVC.mp4	0.0	136.62102699279785	
26	71.20764899253845	movie	1		164.0	24.0	2.5	/experiments/knapen_aot/videos/S_comp_LA_A011_C003_DGRN_LNFIX_STAB_v57_SDR_PS_20181002_SDR_2K_AVC.mp4	0.0	136.6376349925995	2.4999349117279053
26	73.70758390426636	fix_post	2		12.0	24.0	2.5	/experiments/knapen_aot/videos/S_comp_LA_A011_C003_DGRN_LNFIX_STAB_v57_SDR_PS_20181002_SDR_2K_AVC.mp4	0.0	139.1375699043274	0.10028791427612305
27	73.80787181854248	fix_pre	0		7.0	25.0	2.5	/experiments/knapen_aot/videos/R_S_yt-QqSceHxY3d0_356.mp4	0.0	139.23785781860352	0.05810904502868652
27	73.85034894943237	response	0	2		25.0	2.5	/experiments/knapen_aot/videos/R_S_yt-QqSceHxY3d0_356.mp4	0.0	139.2803349494934	
27	73.86598086357117	movie	1		301.0	25.0	2.5	/experiments/knapen_aot/videos/R_S_yt-QqSceHxY3d0_356.mp4	0.0	139.2959668636322	2.508432149887085
27	76.37441301345825	fix_post	2		12.0	25.0	2.5	/experiments/knapen_aot/videos/R_S_yt-QqSceHxY3d0_356.mp4	0.0	141.8043990135193	0.10013794898986816
28	76.47455096244812	fix_pre	0		11.0	26.0	2.5	blank	1.0	141.90453696250916	0.09139299392700195
28	76.5580198764801	response	0	2		26.0	2.5	blank	1.0	141.98800587654114	
28	76.56594395637512	movie	1		301.0	26.0	2.5	blank	1.0	141.99592995643616	2.5083279609680176
28	79.07427191734314	fix_post	2		12.0	26.0	2.5	blank	1.0	144.50425791740417	0.100006103515625
29	79.17427802085876	fix_pre	0		29.0	27.0	2.5	/experiments/knapen_aot/videos/R_S_yt-dWF89kq2JIA_13.mp4	0.0	144.6042640209198	0.24165987968444824
29	79.40019989013672	response	0	2		27.0	2.5	/experiments/knapen_aot/videos/R_S_yt-dWF89kq2JIA_13.mp4	0.0	144.83018589019775	
29	79.41593790054321	movie	1		301.0	27.0	2.5	/experiments/knapen_aot/videos/R_S_yt-dWF89kq2JIA_13.mp4	0.0	144.84592390060425	2.5083260536193848
29	81.9242639541626	fix_post	2		12.0	27.0	2.5	/experiments/knapen_aot/videos/R_S_yt-dWF89kq2JIA_13.mp4	0.0	147.35424995422363	0.09995484352111816
30	82.02421879768372	fix_pre	0		139.0	28.0	2.5	/experiments/knapen_aot/videos/S_yt-JtR6WZXT2kU_8.mp4	0.0	147.45420479774475	1.1584641933441162
30	83.17442989349365	response	0	2		28.0	2.5	/experiments/knapen_aot/videos/S_yt-JtR6WZXT2kU_8.mp4	0.0	148.6044158935547	
30	83.18268299102783	movie	1		301.0	28.0	2.5	/experiments/knapen_aot/videos/S_yt-JtR6WZXT2kU_8.mp4	0.0	148.61266899108887	2.5081889629364014
30	85.69087195396423	fix_post	2		12.0	28.0	2.5	/experiments/knapen_aot/videos/S_yt-JtR6WZXT2kU_8.mp4	0.0	151.12085795402527	0.10009098052978516
31	85.79096293449402	fix_pre	0		169.0	29.0	2.5	/experiments/knapen_aot/videos/S_flickr-southeasternstar-3464778323_10.mp4	0.0	151.22094893455505	1.4082310199737549
31	87.19101881980896	response	0	2		29.0	2.5	/experiments/knapen_aot/videos/S_flickr-southeasternstar-3464778323_10.mp4	0.0	152.62100481987	
31	87.19919395446777	movie	1		301.0	29.0	2.5	/experiments/knapen_aot/videos/S_flickr-southeasternstar-3464778323_10.mp4	0.0	152.6291799545288	2.5083580017089844
31	89.70755195617676	fix_post	2		12.0	29.0	2.5	/experiments/knapen_aot/videos/S_flickr-southeasternstar-3464778323_10.mp4	0.0	155.1375379562378	0.1001739501953125
32	89.80772590637207	fix_pre	0		19.0	30.0	2.5	/experiments/knapen_aot/videos/R_S_yt_R-JarqKC4X8nM_4.mp4	0.0	155.2377119064331	0.15811991691589355
32	89.9576690196991	response	0	2		30.0	2.5	/experiments/knapen_aot/videos/R_S_yt_R-JarqKC4X8nM_4.mp4	0.0	155.38765501976013	
32	89.96584582328796	movie	1		301.0	30.0	2.5	/experiments/knapen_aot/videos/R_S_yt_R-JarqKC4X8nM_4.mp4	0.0	155.395831823349	2.5085480213165283
32	92.47439384460449	fix_post	2		12.0	30.0	2.5	/experiments/knapen_aot/videos/R_S_yt_R-JarqKC4X8nM_4.mp4	0.0	157.90437984466553	0.09981203079223633
33	92.57420587539673	fix_pre	0		193.0	31.0	2.5	/experiments/knapen_aot/videos/R_S_yt-PaxmJhMoP3w_87.mp4	0.0	158.00419187545776	1.6084129810333252
33	94.17441987991333	response	0	2		31.0	2.5	/experiments/knapen_aot/videos/R_S_yt-PaxmJhMoP3w_87.mp4	0.0	159.60440587997437	
33	94.18261885643005	movie	1		300.0	31.0	2.5	/experiments/knapen_aot/videos/R_S_yt-PaxmJhMoP3w_87.mp4	0.0	159.6126048564911	2.5081429481506348
33	96.69076180458069	fix_post	2		12.0	31.0	2.5	/experiments/knapen_aot/videos/R_S_yt-PaxmJhMoP3w_87.mp4	0.0	162.12074780464172	0.10004806518554688
34	96.79080986976624	fix_pre	0		72.0	32.0	2.5	/experiments/knapen_aot/videos/S_comp_GMT026_363A_103NC_E1027_KOREA_JAPAN_NIGHT_v18_SDR_PS_20180907_SDR_2K_AVC.mp4	0.0	162.22079586982727	0.6000831127166748
34	97.3826539516449	response	0	2		32.0	2.5	/experiments/knapen_aot/videos/S_comp_GMT026_363A_103NC_E1027_KOREA_JAPAN_NIGHT_v18_SDR_PS_20180907_SDR_2K_AVC.mp4	0.0	162.81263995170593	
34	97.39089298248291	movie	1		165.0	32.0	2.5	/experiments/knapen_aot/videos/S_comp_GMT026_363A_103NC_E1027_KOREA_JAPAN_NIGHT_v18_SDR_PS_20180907_SDR_2K_AVC.mp4	0.0	162.82087898254395	2.5081748962402344
34	99.89906787872314	fix_post	2		12.0	32.0	2.5	/experiments/knapen_aot/videos/S_comp_GMT026_363A_103NC_E1027_KOREA_JAPAN_NIGHT_v18_SDR_PS_20180907_SDR_2K_AVC.mp4	0.0	165.32905387878418	0.10006999969482422
35	99.99913787841797	fix_pre	0		34.0	33.0	2.5	/experiments/knapen_aot/videos/R_S_ILSVRC2015_train_00547001.mp4	0.0	165.429123878479	0.2833080291748047
35	100.27429485321045	response	0	2		33.0	2.5	/experiments/knapen_aot/videos/R_S_ILSVRC2015_train_00547001.mp4	0.0	165.70428085327148	
35	100.28244590759277	movie	1		301.0	33.0	2.5	/experiments/knapen_aot/videos/R_S_ILSVRC2015_train_00547001.mp4	0.0	165.7124319076538	2.508397102355957
35	102.79084300994873	fix_post	2		12.0	33.0	2.5	/experiments/knapen_aot/videos/R_S_ILSVRC2015_train_00547001.mp4	0.0	168.22082901000977	0.1000518798828125
36	102.89089488983154	fix_pre	0		36.0	34.0	2.5	/experiments/knapen_aot/videos/S_yt-o0Hbe7kcPps_70.mp4	0.0	168.32088088989258	0.2999000549316406
36	103.18259501457214	response	0	2		34.0	2.5	/experiments/knapen_aot/videos/S_yt-o0Hbe7kcPps_70.mp4	0.0	168.61258101463318	
36	103.19079494476318	movie	1		301.0	34.0	2.5	/experiments/knapen_aot/videos/S_yt-o0Hbe7kcPps_70.mp4	0.0	168.62078094482422	2.508328914642334
36	105.69912385940552	fix_post	2		12.0	34.0	2.5	/experiments/knapen_aot/videos/S_yt-o0Hbe7kcPps_70.mp4	0.0	171.12910985946655	0.09992814064025879
37	105.79905200004578	fix_pre	0		26.0	35.0	2.5	blank	1.0	171.2290380001068	0.21675395965576172
37	106.00763082504272	response	0	2		35.0	2.5	blank	1.0	171.43761682510376	
37	106.01580595970154	movie	1		301.0	35.0	2.5	blank	1.0	171.44579195976257	2.5084078311920166
37	108.52421379089355	fix_post	2		12.0	35.0	2.5	blank	1.0	173.9541997909546	0.09993100166320801
38	108.62414479255676	fix_pre	0		58.0	36.0	2.5	/experiments/knapen_aot/videos/S_yt-WRBmpC-RxIc_678.mp4	0.0	174.0541307926178	0.4833822250366211
38	109.09165501594543	response	0	2		36.0	2.5	/experiments/knapen_aot/videos/S_yt-WRBmpC-RxIc_678.mp4	0.0	174.52164101600647	
38	109.10752701759338	movie	1		301.0	36.0	2.5	/experiments/knapen_aot/videos/S_yt-WRBmpC-RxIc_678.mp4	0.0	174.53751301765442	2.508239984512329
38	111.61576700210571	fix_post	2		12.0	36.0	2.5	/experiments/knapen_aot/videos/S_yt-WRBmpC-RxIc_678.mp4	0.0	177.04575300216675	0.09988880157470703
39	111.71565580368042	fix_pre	0		39.0	37.0	2.5	/experiments/knapen_aot/videos/S_production_ID_4820325.mp4	0.0	177.14564180374146	0.3251190185546875
39	112.03251600265503	response	0	2		37.0	2.5	/experiments/knapen_aot/videos/S_production_ID_4820325.mp4	0.0	177.46250200271606	
39	112.04077482223511	movie	1		172.0	37.0	2.5	/experiments/knapen_aot/videos/S_production_ID_4820325.mp4	0.0	177.47076082229614	2.5082640647888184
39	114.54903888702393	fix_post	2		12.0	37.0	2.5	/experiments/knapen_aot/videos/S_production_ID_4820325.mp4	0.0	179.97902488708496	0.09995913505554199
40	114.64899802207947	fix_pre	0		62.0	38.0	2.5	/experiments/knapen_aot/videos/R_S_ILSVRC2015_train_00324002.mp4	0.0	180.0789840221405	0.516718864440918
40	115.15760779380798	response	0	2		38.0	2.5	/experiments/knapen_aot/videos/R_S_ILSVRC2015_train_00324002.mp4	0.0	180.58759379386902	
40	115.16571688652039	movie	1		301.0	38.0	2.5	/experiments/knapen_aot/videos/R_S_ILSVRC2015_train_00324002.mp4	0.0	180.59570288658142	2.5083560943603516
40	117.67407298088074	fix_post	2		12.0	38.0	2.5	/experiments/knapen_aot/videos/R_S_ILSVRC2015_train_00324002.mp4	0.0	183.10405898094177	0.10004186630249023
41	117.77411484718323	fix_pre	0		31.0	39.0	2.5	/experiments/knapen_aot/videos/S_production_ID_5049072.mp4	0.0	183.20410084724426	0.25829601287841797
41	118.02423787117004	response	0	2		39.0	2.5	/experiments/knapen_aot/videos/S_production_ID_5049072.mp4	0.0	183.45422387123108	
41	118.03241086006165	movie	1		164.0	39.0	2.5	/experiments/knapen_aot/videos/S_production_ID_5049072.mp4	0.0	183.46239686012268	2.508310079574585
41	120.54072093963623	fix_post	2		12.0	39.0	2.5	/experiments/knapen_aot/videos/S_production_ID_5049072.mp4	0.0	185.97070693969727	0.0999610424041748
42	120.6406819820404	fix_pre	0		36.0	40.0	2.5	blank	1.0	186.07066798210144	0.30000996589660645
42	120.93249583244324	response	0	2		40.0	2.5	blank	1.0	186.36248183250427	
42	120.94069194793701	movie	1		301.0	40.0	2.5	blank	1.0	186.37067794799805	2.508410930633545
42	123.44910287857056	fix_post	2		12.0	40.0	2.5	blank	1.0	188.8790888786316	0.09996914863586426
43	123.54907202720642	fix_pre	0		28.0	41.0	2.5	/experiments/knapen_aot/videos/S_PA_A004_C003_SDR_20190719_SDR_2K_AVC.mp4	0.0	188.97905802726746	0.233292818069458
43	123.77414584159851	response	0	2		41.0	2.5	/experiments/knapen_aot/videos/S_PA_A004_C003_SDR_20190719_SDR_2K_AVC.mp4	0.0	189.20413184165955	
43	123.78236484527588	movie	1		167.0	41.0	2.5	/experiments/knapen_aot/videos/S_PA_A004_C003_SDR_20190719_SDR_2K_AVC.mp4	0.0	189.2123508453369	2.508371114730835
43	126.29073596000671	fix_post	2		12.0	41.0	2.5	/experiments/knapen_aot/videos/S_PA_A004_C003_SDR_20190719_SDR_2K_AVC.mp4	0.0	191.72072196006775	0.09996795654296875
44	126.39070391654968	fix_pre	0		41.0	42.0	2.5	/experiments/knapen_aot/videos/R_S_yt--JnTDuElzXQ_121.mp4	0.0	191.82068991661072	0.3416938781738281
44	126.72422885894775	response	0	2		42.0	2.5	/experiments/knapen_aot/videos/R_S_yt--JnTDuElzXQ_121.mp4	0.0	192.1542148590088	
44	126.73239779472351	movie	1		301.0	42.0	2.5	/experiments/knapen_aot/videos/R_S_yt--JnTDuElzXQ_121.mp4	0.0	192.16238379478455	2.5083301067352295
44	129.24072790145874	fix_post	2		12.0	42.0	2.5	/experiments/knapen_aot/videos/R_S_yt--JnTDuElzXQ_121.mp4	0.0	194.67071390151978	0.09989500045776367
45	129.3406229019165	fix_pre	0		40.0	43.0	2.5	/experiments/knapen_aot/videos/S_yt-kxWtOXNIsRA_329.mp4	0.0	194.77060890197754	0.33335208892822266
45	129.66582584381104	response	0	2		43.0	2.5	/experiments/knapen_aot/videos/S_yt-kxWtOXNIsRA_329.mp4	0.0	195.09581184387207	
45	129.67397499084473	movie	1		301.0	43.0	2.5	/experiments/knapen_aot/videos/S_yt-kxWtOXNIsRA_329.mp4	0.0	195.10396099090576	2.5083119869232178
45	132.18228697776794	fix_post	2		12.0	43.0	2.5	/experiments/knapen_aot/videos/S_yt-kxWtOXNIsRA_329.mp4	0.0	197.61227297782898	0.10007786750793457
46	132.28236484527588	fix_pre	0		52.0	44.0	2.5	/experiments/knapen_aot/videos/S_yt-QOnORDmVMyU_10.mp4	0.0	197.7123508453369	0.4333059787750244
46	132.700021982193	response	0	2		44.0	2.5	/experiments/knapen_aot/videos/S_yt-QOnORDmVMyU_10.mp4	0.0	198.13000798225403	
46	132.7156708240509	movie	1		301.0	44.0	2.5	/experiments/knapen_aot/videos/S_yt-QOnORDmVMyU_10.mp4	0.0	198.14565682411194	2.508331060409546
46	135.22400188446045	fix_post	2		12.0	44.0	2.5	/experiments/knapen_aot/videos/S_yt-QOnORDmVMyU_10.mp4	0.0	200.65398788452148	0.09994101524353027
47	135.32394289970398	fix_pre	0		50.0	45.0	2.5	/experiments/knapen_aot/videos/R_S_Pexels_Videos_2795737.mp4	0.0	200.75392889976501	0.416719913482666
47	135.73243284225464	response	0	2		45.0	2.5	/experiments/knapen_aot/videos/R_S_Pexels_Videos_2795737.mp4	0.0	201.16241884231567	
47	135.74066281318665	movie	1		164.0	45.0	2.5	/experiments/knapen_aot/videos/R_S_Pexels_Videos_2795737.mp4	0.0	201.17064881324768	2.5083022117614746
47	138.24896502494812	fix_post	2		12.0	45.0	2.5	/experiments/knapen_aot/videos/R_S_Pexels_Videos_2795737.mp4	0.0	203.67895102500916	0.1000509262084961
48	138.34901595115662	fix_pre	0		24.0	46.0	2.5	/experiments/knapen_aot/videos/R_S_yt-Dwgpjoikt84_122.mp4	0.0	203.77900195121765	0.1999809741973877
48	138.54069185256958	response	0	2		46.0	2.5	/experiments/knapen_aot/videos/R_S_yt-Dwgpjoikt84_122.mp4	0.0	203.97067785263062	
48	138.548996925354	movie	1		301.0	46.0	2.5	/experiments/knapen_aot/videos/R_S_yt-Dwgpjoikt84_122.mp4	0.0	203.97898292541504	2.5083000659942627
48	141.05729699134827	fix_post	2		12.0	46.0	2.5	/experiments/knapen_aot/videos/R_S_yt-Dwgpjoikt84_122.mp4	0.0	206.4872829914093	0.10004591941833496
49	141.1573429107666	fix_pre	0		57.0	47.0	2.5	/experiments/knapen_aot/videos/R_S_BO_A014_C023_SDR_20190717_F240F3709_SDR_2K_AVC.mp4	0.0	206.58732891082764	0.4762709140777588
49	141.62412786483765	response	0	2		47.0	2.5	/experiments/knapen_aot/videos/R_S_BO_A014_C023_SDR_20190717_F240F3709_SDR_2K_AVC.mp4	0.0	207.05411386489868	
49	141.63361382484436	movie	1		165.0	47.0	2.5	/experiments/knapen_aot/videos/R_S_BO_A014_C023_SDR_20190717_F240F3709_SDR_2K_AVC.mp4	0.0	207.0635998249054	2.5070130825042725
49	144.14062690734863	fix_post	2		12.0	47.0	2.5	/experiments/knapen_aot/videos/R_S_BO_A014_C023_SDR_20190717_F240F3709_SDR_2K_AVC.mp4	0.0	209.57061290740967	0.1000070571899414
50	144.24063396453857	fix_pre	0		29.0	48.0	2.5	blank	1.0	209.6706199645996	0.2416229248046875
50	144.47410798072815	response	0	2		48.0	2.5	blank	1.0	209.90409398078918	
50	144.48225688934326	movie	1		301.0	48.0	2.5	blank	1.0	209.9122428894043	2.5083329677581787
50	146.99058985710144	fix_post	2		12.0	48.0	2.5	blank	1.0	212.42057585716248	0.10004305839538574
51	147.09063291549683	fix_pre	0		46.0	49.0	2.5	/experiments/knapen_aot/videos/S_yt-x7TqP8l4lCA_39.mp4	0.0	212.52061891555786	0.38330888748168945
51	147.4657130241394	response	0	2		49.0	2.5	/experiments/knapen_aot/videos/S_yt-x7TqP8l4lCA_39.mp4	0.0	212.89569902420044	
51	147.47394180297852	movie	1		301.0	49.0	2.5	/experiments/knapen_aot/videos/S_yt-x7TqP8l4lCA_39.mp4	0.0	212.90392780303955	2.508362054824829
51	149.98230385780334	fix_post	2		12.0	49.0	2.5	/experiments/knapen_aot/videos/S_yt-x7TqP8l4lCA_39.mp4	0.0	215.41228985786438	0.10000300407409668
52	150.08230686187744	fix_pre	0		26.0	50.0	2.5	/experiments/knapen_aot/videos/S_yt-PREz5XiiXg0_107.mp4	0.0	215.51229286193848	0.21786999702453613
52	150.29075384140015	response	0	2		50.0	2.5	/experiments/knapen_aot/videos/S_yt-PREz5XiiXg0_107.mp4	0.0	215.72073984146118	
52	150.30017685890198	movie	1		301.0	50.0	2.5	/experiments/knapen_aot/videos/S_yt-PREz5XiiXg0_107.mp4	0.0	215.730162858963	2.5072240829467773
52	152.80740094184875	fix_post	2		12.0	50.0	2.5	/experiments/knapen_aot/videos/S_yt-PREz5XiiXg0_107.mp4	0.0	218.2373869419098	0.09983396530151367
53	152.90723490715027	fix_pre	0		34.0	51.0	2.5	/experiments/knapen_aot/videos/R_S_yt-1H8sfkZGZK8_3.mp4	0.0	218.3372209072113	0.2833828926086426
53	153.18236899375916	response	0	2		51.0	2.5	/experiments/knapen_aot/videos/R_S_yt-1H8sfkZGZK8_3.mp4	0.0	218.6123549938202	
53	153.1906177997589	movie	1		301.0	51.0	2.5	/experiments/knapen_aot/videos/R_S_yt-1H8sfkZGZK8_3.mp4	0.0	218.62060379981995	2.5082640647888184
53	155.69888186454773	fix_post	2		12.0	51.0	2.5	/experiments/knapen_aot/videos/R_S_yt-1H8sfkZGZK8_3.mp4	0.0	221.12886786460876	0.09993195533752441
54	155.79881381988525	fix_pre	0		33.0	52.0	2.5	/experiments/knapen_aot/videos/R_S_yt-wz2opOBqClo_14.mp4	0.0	221.2287998199463	0.27504515647888184
54	156.06570601463318	response	0	2		52.0	2.5	/experiments/knapen_aot/videos/R_S_yt-wz2opOBqClo_14.mp4	0.0	221.4956920146942	
54	156.07385897636414	movie	1		301.0	52.0	2.5	/experiments/knapen_aot/videos/R_S_yt-wz2opOBqClo_14.mp4	0.0	221.50384497642517	2.5083749294281006
54	158.58223390579224	fix_post	2		12.0	52.0	2.5	/experiments/knapen_aot/videos/R_S_yt-wz2opOBqClo_14.mp4	0.0	224.01221990585327	0.10001993179321289
55	158.68225383758545	fix_pre	0		38.0	53.0	2.5	/experiments/knapen_aot/videos/S_yt-26009GpQuUg_3.mp4	0.0	224.11223983764648	0.31655216217041016
55	158.99066400527954	response	0	2		53.0	2.5	/experiments/knapen_aot/videos/S_yt-26009GpQuUg_3.mp4	0.0	224.42065000534058	
55	158.99880599975586	movie	1		301.0	53.0	2.5	/experiments/knapen_aot/videos/S_yt-26009GpQuUg_3.mp4	0.0	224.4287919998169	2.508435010910034
55	161.5072410106659	fix_post	2		12.0	53.0	2.5	/experiments/knapen_aot/videos/S_yt-26009GpQuUg_3.mp4	0.0	226.93722701072693	0.09993696212768555
56	161.60717797279358	fix_pre	0		27.0	54.0	2.5	/experiments/knapen_aot/videos/S_pexels-mikhail-nilov-8410063.mp4	0.0	227.03716397285461	0.22506284713745117
56	161.82403302192688	response	0	2		54.0	2.5	/experiments/knapen_aot/videos/S_pexels-mikhail-nilov-8410063.mp4	0.0	227.25401902198792	
56	161.83224081993103	movie	1		164.0	54.0	2.5	/experiments/knapen_aot/videos/S_pexels-mikhail-nilov-8410063.mp4	0.0	227.26222681999207	2.5083160400390625
56	164.3405568599701	fix_post	2		12.0	54.0	2.5	/experiments/knapen_aot/videos/S_pexels-mikhail-nilov-8410063.mp4	0.0	229.77054286003113	0.09998703002929688
57	164.4405438899994	fix_pre	0		62.0	55.0	2.5	blank	1.0	229.87052989006042	0.5166680812835693
57	164.9490668773651	response	0	2		55.0	2.5	blank	1.0	230.37905287742615	
57	164.95721197128296	movie	1		301.0	55.0	2.5	blank	1.0	230.387197971344	2.508225917816162
57	167.46543788909912	fix_post	2		12.0	55.0	2.5	blank	1.0	232.89542388916016	0.10007596015930176
58	167.56551384925842	fix_pre	0		35.0	56.0	2.5	/experiments/knapen_aot/videos/S_yt-7WYXuBHeorw_188.mp4	0.0	232.99549984931946	0.2916741371154785
58	167.84893488883972	response	0	2		56.0	2.5	/experiments/knapen_aot/videos/S_yt-7WYXuBHeorw_188.mp4	0.0	233.27892088890076	
58	167.8571879863739	movie	1		301.0	56.0	2.5	/experiments/knapen_aot/videos/S_yt-7WYXuBHeorw_188.mp4	0.0	233.28717398643494	2.5083489418029785
58	170.36553692817688	fix_post	2		12.0	56.0	2.5	/experiments/knapen_aot/videos/S_yt-7WYXuBHeorw_188.mp4	0.0	235.79552292823792	0.1000058650970459
59	170.46554279327393	fix_pre	0		71.0	57.0	2.5	/experiments/knapen_aot/videos/R_S_yt-BrepyEWKrPQ_20.mp4	0.0	235.89552879333496	0.5915830135345459
59	171.0490379333496	response	0	2		57.0	2.5	/experiments/knapen_aot/videos/R_S_yt-BrepyEWKrPQ_20.mp4	0.0	236.47902393341064	
59	171.05712580680847	movie	1		301.0	57.0	2.5	/experiments/knapen_aot/videos/R_S_yt-BrepyEWKrPQ_20.mp4	0.0	236.4871118068695	2.508406162261963
59	173.56553196907043	fix_post	2		12.0	57.0	2.5	/experiments/knapen_aot/videos/R_S_yt-BrepyEWKrPQ_20.mp4	0.0	238.99551796913147	0.10005688667297363
60	173.6655888557434	fix_pre	0		38.0	58.0	2.5	/experiments/knapen_aot/videos/S_yt-GO26QIueqRw_385.mp4	0.0	239.09557485580444	0.3165309429168701
60	173.97399282455444	response	0	2		58.0	2.5	/experiments/knapen_aot/videos/S_yt-GO26QIueqRw_385.mp4	0.0	239.40397882461548	
60	173.98211979866028	movie	1		301.0	58.0	2.5	/experiments/knapen_aot/videos/S_yt-GO26QIueqRw_385.mp4	0.0	239.4121057987213	2.5083730220794678
60	176.49049282073975	fix_post	2		12.0	58.0	2.5	/experiments/knapen_aot/videos/S_yt-GO26QIueqRw_385.mp4	0.0	241.92047882080078	0.10001301765441895
61	176.59050583839417	fix_pre	0		82.0	59.0	2.5	/experiments/knapen_aot/videos/S_ILSVRC2015_train_00715000.mp4	0.0	242.0204918384552	0.6833109855651855
61	177.2656228542328	response	0	2		59.0	2.5	/experiments/knapen_aot/videos/S_ILSVRC2015_train_00715000.mp4	0.0	242.69560885429382	
61	177.27381682395935	movie	1		301.0	59.0	2.5	/experiments/knapen_aot/videos/S_ILSVRC2015_train_00715000.mp4	0.0	242.70380282402039	2.5083541870117188
61	179.78217101097107	fix_post	2		12.0	59.0	2.5	/experiments/knapen_aot/videos/S_ILSVRC2015_train_00715000.mp4	0.0	245.2121570110321	0.10003280639648438
62	179.88220381736755	fix_pre	0		88.0	60.0	2.5	/experiments/knapen_aot/videos/S_yt-BiBS8EO5GPc_4.mp4	0.0	245.3121898174286	0.7332210540771484
62	180.60731601715088	response	0	2		60.0	2.5	/experiments/knapen_aot/videos/S_yt-BiBS8EO5GPc_4.mp4	0.0	246.0373020172119	
62	180.6154248714447	movie	1		301.0	60.0	2.5	/experiments/knapen_aot/videos/S_yt-BiBS8EO5GPc_4.mp4	0.0	246.04541087150574	2.508405923843384
62	183.1238307952881	fix_post	2		12.0	60.0	2.5	/experiments/knapen_aot/videos/S_yt-BiBS8EO5GPc_4.mp4	0.0	248.55381679534912	0.1000051498413086
63	183.2238359451294	fix_pre	0		54.0	61.0	2.5	blank	1.0	248.65382194519043	0.451063871383667
63	183.6655638217926	response	0	2		61.0	2.5	blank	1.0	249.09554982185364	
63	183.67489981651306	movie	1		301.0	61.0	2.5	blank	1.0	249.1048858165741	2.507188081741333
63	186.1820878982544	fix_post	2		12.0	61.0	2.5	blank	1.0	251.61207389831543	0.1000509262084961
64	186.2821388244629	fix_pre	0		52.0	62.0	2.5	/experiments/knapen_aot/videos/S_production_ID_5049072.mp4	0.0	251.71212482452393	0.434298038482666
64	186.70721697807312	response	0	2		62.0	2.5	/experiments/knapen_aot/videos/S_production_ID_5049072.mp4	0.0	252.13720297813416	
64	186.71643686294556	movie	1		167.0	62.0	2.5	/experiments/knapen_aot/videos/S_production_ID_5049072.mp4	0.0	252.1464228630066	2.5073330402374268
64	189.22376990318298	fix_post	2		12.0	62.0	2.5	/experiments/knapen_aot/videos/S_production_ID_5049072.mp4	0.0	254.65375590324402	0.09999299049377441
65	189.32376289367676	fix_pre	0		44.0	63.0	2.5	/experiments/knapen_aot/videos/S_nPwtvvPgdNc_39.mp4	0.0	254.7537488937378	0.3667171001434326
65	189.67470979690552	response	0	2		63.0	2.5	/experiments/knapen_aot/videos/S_nPwtvvPgdNc_39.mp4	0.0	255.10469579696655	
65	189.6904799938202	movie	1		298.0	63.0	2.5	/experiments/knapen_aot/videos/S_nPwtvvPgdNc_39.mp4	0.0	255.12046599388123	2.508354902267456
65	192.19883489608765	fix_post	2		12.0	63.0	2.5	/experiments/knapen_aot/videos/S_nPwtvvPgdNc_39.mp4	0.0	257.6288208961487	0.0999901294708252
66	192.29882502555847	fix_pre	0		46.0	64.0	2.5	/experiments/knapen_aot/videos/R_S_yt-hyZEDFkh49w_196.mp4	0.0	257.7288110256195	0.38338279724121094
66	192.6739559173584	response	0	2		64.0	2.5	/experiments/knapen_aot/videos/R_S_yt-hyZEDFkh49w_196.mp4	0.0	258.10394191741943	
66	192.68220782279968	movie	1		301.0	64.0	2.5	/experiments/knapen_aot/videos/R_S_yt-hyZEDFkh49w_196.mp4	0.0	258.1121938228607	2.508251190185547
66	195.19045901298523	fix_post	2		12.0	64.0	2.5	/experiments/knapen_aot/videos/R_S_yt-hyZEDFkh49w_196.mp4	0.0	260.62044501304626	0.09999585151672363
67	195.29045486450195	fix_pre	0		31.0	65.0	2.5	/experiments/knapen_aot/videos/R_S_ILSVRC2015_train_00715000.mp4	0.0	260.720440864563	0.25928497314453125
67	195.54059195518494	response	0	2		65.0	2.5	/experiments/knapen_aot/videos/R_S_ILSVRC2015_train_00715000.mp4	0.0	260.970577955246	
67	195.54973983764648	movie	1		301.0	65.0	2.5	/experiments/knapen_aot/videos/R_S_ILSVRC2015_train_00715000.mp4	0.0	260.9797258377075	2.5073390007019043
67	198.0570788383484	fix_post	2		12.0	65.0	2.5	/experiments/knapen_aot/videos/R_S_ILSVRC2015_train_00715000.mp4	0.0	263.4870648384094	0.09999799728393555
68	198.15707683563232	fix_pre	0		37.0	66.0	2.5	/experiments/knapen_aot/videos/S_PA_A004_C003_SDR_20190719_SDR_2K_AVC.mp4	0.0	263.58706283569336	0.3093249797821045
68	198.4572238922119	response	0	2		66.0	2.5	/experiments/knapen_aot/videos/S_PA_A004_C003_SDR_20190719_SDR_2K_AVC.mp4	0.0	263.88720989227295	
68	198.46640181541443	movie	1		169.0	66.0	2.5	/experiments/knapen_aot/videos/S_PA_A004_C003_SDR_20190719_SDR_2K_AVC.mp4	0.0	263.89638781547546	2.507317066192627
68	200.97371888160706	fix_post	2		12.0	66.0	2.5	/experiments/knapen_aot/videos/S_PA_A004_C003_SDR_20190719_SDR_2K_AVC.mp4	0.0	266.4037048816681	0.10000014305114746
69	201.0737190246582	fix_pre	0		29.0	67.0	2.5	/experiments/knapen_aot/videos/S_yt-x7TqP8l4lCA_39.mp4	0.0	266.50370502471924	0.24158382415771484
69	201.3071517944336	response	0	2		67.0	2.5	/experiments/knapen_aot/videos/S_yt-x7TqP8l4lCA_39.mp4	0.0	266.73713779449463	
69	201.31530284881592	movie	1		301.0	67.0	2.5	/experiments/knapen_aot/videos/S_yt-x7TqP8l4lCA_39.mp4	0.0	266.74528884887695	2.5083370208740234
69	203.82363986968994	fix_post	2		12.0	67.0	2.5	/experiments/knapen_aot/videos/S_yt-x7TqP8l4lCA_39.mp4	0.0	269.253625869751	0.10009503364562988
70	203.92373490333557	fix_pre	0		19.0	68.0	2.5	blank	1.0	269.3537209033966	0.15823101997375488
70	204.0738708972931	response	0	2		68.0	2.5	blank	1.0	269.5038568973541	
70	204.08196592330933	movie	1		301.0	68.0	2.5	blank	1.0	269.51195192337036	2.5083038806915283
70	206.59026980400085	fix_post	2		12.0	68.0	2.5	blank	1.0	272.0202558040619	0.10008001327514648
71	206.690349817276	fix_pre	0		109.0	69.0	2.5	/experiments/knapen_aot/videos/S_yt-BAwvfRmE1LU_79.mp4	0.0	272.12033581733704	0.9082660675048828
71	207.59048795700073	response	0	2		69.0	2.5	/experiments/knapen_aot/videos/S_yt-BAwvfRmE1LU_79.mp4	0.0	273.02047395706177	
71	207.59861588478088	movie	1		301.0	69.0	2.5	/experiments/knapen_aot/videos/S_yt-BAwvfRmE1LU_79.mp4	0.0	273.0286018848419	2.508405923843384
71	210.10702180862427	fix_post	2		12.0	69.0	2.5	/experiments/knapen_aot/videos/S_yt-BAwvfRmE1LU_79.mp4	0.0	275.5370078086853	0.10001516342163086
72	210.2070369720459	fix_pre	0		27.0	70.0	2.5	/experiments/knapen_aot/videos/R_S_yt-GO26QIueqRw_385.mp4	0.0	275.63702297210693	0.22495484352111816
72	210.42381882667542	response	0	2		70.0	2.5	/experiments/knapen_aot/videos/R_S_yt-GO26QIueqRw_385.mp4	0.0	275.85380482673645	
72	210.43199181556702	movie	1		301.0	70.0	2.5	/experiments/knapen_aot/videos/R_S_yt-GO26QIueqRw_385.mp4	0.0	275.86197781562805	2.5083260536193848
72	212.9403178691864	fix_post	2		12.0	70.0	2.5	/experiments/knapen_aot/videos/R_S_yt-GO26QIueqRw_385.mp4	0.0	278.37030386924744	0.09991693496704102
73	213.04023480415344	fix_pre	0		26.0	71.0	2.5	/experiments/knapen_aot/videos/R_S_pexels-ron-lach-8071987.mp4	0.0	278.4702208042145	0.21767616271972656
73	213.24880981445312	response	0	2		71.0	2.5	/experiments/knapen_aot/videos/R_S_pexels-ron-lach-8071987.mp4	0.0	278.67879581451416	
73	213.25791096687317	movie	1		197.0	71.0	2.5	/experiments/knapen_aot/videos/R_S_pexels-ron-lach-8071987.mp4	0.0	278.6878969669342	2.507530927658081
73	215.76544189453125	fix_post	2		12.0	71.0	2.5	/experiments/knapen_aot/videos/R_S_pexels-ron-lach-8071987.mp4	0.0	281.1954278945923	0.09989094734191895
74	215.86533284187317	fix_pre	0		27.0	72.0	2.5	/experiments/knapen_aot/videos/S_yt-0xzYSBvVfYM_197.mp4	0.0	281.2953188419342	0.22588706016540527
74	216.08207988739014	response	0	2		72.0	2.5	/experiments/knapen_aot/videos/S_yt-0xzYSBvVfYM_197.mp4	0.0	281.5120658874512	
74	216.09121990203857	movie	1		299.0	72.0	2.5	/experiments/knapen_aot/videos/S_yt-0xzYSBvVfYM_197.mp4	0.0	281.5212059020996	2.5074639320373535
74	218.59868383407593	fix_post	2		12.0	72.0	2.5	/experiments/knapen_aot/videos/S_yt-0xzYSBvVfYM_197.mp4	0.0	284.02866983413696	0.10000896453857422
75	218.6986927986145	fix_pre	0		39.0	73.0	2.5	/experiments/knapen_aot/videos/R_S_yt-FMIevUic_XY_50.mp4	0.0	284.12867879867554	0.3249630928039551
75	219.01543283462524	response	0	2		73.0	2.5	/experiments/knapen_aot/videos/R_S_yt-FMIevUic_XY_50.mp4	0.0	284.4454188346863	
75	219.02365589141846	movie	1		301.0	73.0	2.5	/experiments/knapen_aot/videos/R_S_yt-FMIevUic_XY_50.mp4	0.0	284.4536418914795	2.5082859992980957
75	221.53194189071655	fix_post	2		12.0	73.0	2.5	/experiments/knapen_aot/videos/R_S_yt-FMIevUic_XY_50.mp4	0.0	286.9619278907776	0.10001611709594727
76	221.6319580078125	fix_pre	0		29.0	74.0	2.5	/experiments/knapen_aot/videos/R_S_yt-8LO59eN9om4_16.mp4	0.0	287.06194400787354	0.24161887168884277
76	221.8654489517212	response	0	2		74.0	2.5	/experiments/knapen_aot/videos/R_S_yt-8LO59eN9om4_16.mp4	0.0	287.2954349517822	
76	221.87357687950134	movie	1		301.0	74.0	2.5	/experiments/knapen_aot/videos/R_S_yt-8LO59eN9om4_16.mp4	0.0	287.3035628795624	2.5083870887756348
76	224.38196396827698	fix_post	2		12.0	74.0	2.5	/experiments/knapen_aot/videos/R_S_yt-8LO59eN9om4_16.mp4	0.0	289.811949968338	0.10000491142272949
77	224.4819688796997	fix_pre	0		16.0	75.0	2.5	/experiments/knapen_aot/videos/S_yt-YlA-FPDylDE_100.mp4	0.0	289.91195487976074	0.13331103324890137
77	224.60708093643188	response	0	2		75.0	2.5	/experiments/knapen_aot/videos/S_yt-YlA-FPDylDE_100.mp4	0.0	290.0370669364929	
77	224.6152799129486	movie	1		298.0	75.0	2.5	/experiments/knapen_aot/videos/S_yt-YlA-FPDylDE_100.mp4	0.0	290.04526591300964	2.508347988128662
77	227.12362790107727	fix_post	2		12.0	75.0	2.5	/experiments/knapen_aot/videos/S_yt-YlA-FPDylDE_100.mp4	0.0	292.5536139011383	0.0999441146850586
78	227.22357201576233	fix_pre	0		45.0	76.0	2.5	blank	1.0	292.65355801582336	0.37502193450927734
78	227.5903708934784	response	0	2		76.0	2.5	blank	1.0	293.02035689353943	
78	227.5985939502716	movie	1		301.0	76.0	2.5	blank	1.0	293.02857995033264	2.5083508491516113
78	230.10694479942322	fix_post	2		12.0	76.0	2.5	blank	1.0	295.53693079948425	0.10001206398010254
79	230.20695686340332	fix_pre	0		80.0	77.0	2.5	/experiments/knapen_aot/videos/S_yt-gDZnJCR2uXI_18.mp4	0.0	295.63694286346436	0.6665370464324951
79	230.8653600215912	response	0	2		77.0	2.5	/experiments/knapen_aot/videos/S_yt-gDZnJCR2uXI_18.mp4	0.0	296.2953460216522	
79	230.87349390983582	movie	1		301.0	77.0	2.5	/experiments/knapen_aot/videos/S_yt-gDZnJCR2uXI_18.mp4	0.0	296.30347990989685	2.5083630084991455
79	233.38185691833496	fix_post	2		12.0	77.0	2.5	/experiments/knapen_aot/videos/S_yt-gDZnJCR2uXI_18.mp4	0.0	298.811842918396	0.10008788108825684
80	233.48194479942322	fix_pre	0		33.0	78.0	2.5	/experiments/knapen_aot/videos/R_S_yt-O_4DgW-XKvA_35.mp4	0.0	298.91193079948425	0.2757260799407959
80	233.74869585037231	response	0	2		78.0	2.5	/experiments/knapen_aot/videos/R_S_yt-O_4DgW-XKvA_35.mp4	0.0	299.17868185043335	
80	233.757670879364	movie	1		300.0	78.0	2.5	/experiments/knapen_aot/videos/R_S_yt-O_4DgW-XKvA_35.mp4	0.0	299.18765687942505	2.5076019763946533
80	236.26527285575867	fix_post	2		12.0	78.0	2.5	/experiments/knapen_aot/videos/R_S_yt-O_4DgW-XKvA_35.mp4	0.0	301.6952588558197	0.09997296333312988
81	236.3652458190918	fix_pre	0		21.0	79.0	2.5	/experiments/knapen_aot/videos/S_yt-i3-YlGenYmk_411.mp4	0.0	301.79523181915283	0.17498207092285156
81	236.53198981285095	response	0	2		79.0	2.5	/experiments/knapen_aot/videos/S_yt-i3-YlGenYmk_411.mp4	0.0	301.961975812912	
81	236.54022789001465	movie	1		301.0	79.0	2.5	/experiments/knapen_aot/videos/S_yt-i3-YlGenYmk_411.mp4	0.0	301.9702138900757	2.508354902267456
81	239.0485827922821	fix_post	2		12.0	79.0	2.5	/experiments/knapen_aot/videos/S_yt-i3-YlGenYmk_411.mp4	0.0	304.47856879234314	0.09999918937683105
82	239.14858198165894	fix_pre	0		35.0	80.0	2.5	/experiments/knapen_aot/videos/S_OdxWh1oU8e8_1.mp4	0.0	304.57856798171997	0.2916839122772217
82	239.43199801445007	response	0	2		80.0	2.5	/experiments/knapen_aot/videos/S_OdxWh1oU8e8_1.mp4	0.0	304.8619840145111	
82	239.44026589393616	movie	1		300.0	80.0	2.5	/experiments/knapen_aot/videos/S_OdxWh1oU8e8_1.mp4	0.0	304.8702518939972	2.508291006088257
82	241.9485569000244	fix_post	2		12.0	80.0	2.5	/experiments/knapen_aot/videos/S_OdxWh1oU8e8_1.mp4	0.0	307.37854290008545	0.09999895095825195
83	242.04855585098267	fix_pre	0		28.0	81.0	2.5	/experiments/knapen_aot/videos/R_S_yt-MEfljVFL0xw_375.mp4	0.0	307.4785418510437	0.23325014114379883
83	242.27367687225342	response	0	2		81.0	2.5	/experiments/knapen_aot/videos/R_S_yt-MEfljVFL0xw_375.mp4	0.0	307.70366287231445	
83	242.28180599212646	movie	1		301.0	81.0	2.5	/experiments/knapen_aot/videos/R_S_yt-MEfljVFL0xw_375.mp4	0.0	307.7117919921875	2.5084128379821777
83	244.79021883010864	fix_post	2		12.0	81.0	2.5	/experiments/knapen_aot/videos/R_S_yt-MEfljVFL0xw_375.mp4	0.0	310.2202048301697	0.09997010231018066
84	244.89018893241882	fix_pre	0		32.0	82.0	2.5	/experiments/knapen_aot/videos/R_S_pexels-diva-plavalaguna-6985395_1.mp4	0.0	310.32017493247986	0.26662302017211914
84	245.14868783950806	response	0	2		82.0	2.5	/experiments/knapen_aot/videos/R_S_pexels-diva-plavalaguna-6985395_1.mp4	0.0	310.5786738395691	
84	245.15681195259094	movie	1		170.0	82.0	2.5	/experiments/knapen_aot/videos/R_S_pexels-diva-plavalaguna-6985395_1.mp4	0.0	310.586797952652	2.508388042449951
84	247.6651999950409	fix_post	2		12.0	82.0	2.5	/experiments/knapen_aot/videos/R_S_pexels-diva-plavalaguna-6985395_1.mp4	0.0	313.09518599510193	0.09990382194519043
85	247.76510381698608	fix_pre	0		60.0	83.0	2.5	blank	1.0	313.1950898170471	0.500075101852417
85	248.2569649219513	response	0	2		83.0	2.5	blank	1.0	313.68695092201233	
85	248.2651789188385	movie	1		301.0	83.0	2.5	blank	1.0	313.69516491889954	2.5083320140838623
85	250.77351093292236	fix_post	2		12.0	83.0	2.5	blank	1.0	316.2034969329834	0.10001301765441895
87	250.87352395057678	stim	0		208.0					316.3035099506378	1.7333290576934814
87	252.59638285636902	response	0	space						318.02636885643005	
