trial_nr	onset	event_type	phase	response	nr_frames	movie_index	movie_duration	movie_file	blank	onset_abs	duration
0	0.13383197784423828	stim	0		337					74.21615695953369	2.8051669597625732
0	2.9307849407196045	response	0	space						77.01310992240906	
1	2.9389989376068115	stim	0		121					77.02132391929626	1.0083489418029785
1	3.94734787940979	stim	1		120					78.02967286109924	1.0002760887145996
2	4.94762396812439	fix_pre	0		359	0.0	2.5	/experiments/knapen_aot/videos/R_S_yt-mQESmS4uqRU_208.mp4	0.0	79.02994894981384	2.991377115249634
2	7.930712938308716	response	0	space		0.0	2.5	/experiments/knapen_aot/videos/R_S_yt-mQESmS4uqRU_208.mp4	0.0	82.01303791999817	
2	7.939001083374023	movie	1		300	0.0	2.5	/experiments/knapen_aot/videos/R_S_yt-mQESmS4uqRU_208.mp4	0.0	82.02132606506348	2.508331775665283
2	10.447332859039307	fix_post	2		12	0.0	2.5	/experiments/knapen_aot/videos/R_S_yt-mQESmS4uqRU_208.mp4	0.0	84.52965784072876	0.09998703002929688
3	10.547319889068604	fix_pre	0		197	1.0	2.5	/experiments/knapen_aot/videos/R_S_ILSVRC2015_train_00693000.mp4	0.0	84.62964487075806	1.6416330337524414
3	12.18074107170105	response	0	space		1.0	2.5	/experiments/knapen_aot/videos/R_S_ILSVRC2015_train_00693000.mp4	0.0	86.2630660533905	
3	12.188952922821045	movie	1		301	1.0	2.5	/experiments/knapen_aot/videos/R_S_ILSVRC2015_train_00693000.mp4	0.0	86.2712779045105	2.5084099769592285
3	14.697362899780273	fix_post	2		12	1.0	2.5	/experiments/knapen_aot/videos/R_S_ILSVRC2015_train_00693000.mp4	0.0	88.77968788146973	0.0999140739440918
4	14.797276973724365	fix_pre	0		233	2.0	2.5	/experiments/knapen_aot/videos/S_yt-2IN85w8ptmM_51.mp4	0.0	88.87960195541382	1.9416179656982422
4	16.730715036392212	response	0	space		2.0	2.5	/experiments/knapen_aot/videos/S_yt-2IN85w8ptmM_51.mp4	0.0	90.81304001808167	
4	16.738894939422607	movie	1		301	2.0	2.5	/experiments/knapen_aot/videos/S_yt-2IN85w8ptmM_51.mp4	0.0	90.82121992111206	2.5083861351013184
4	19.247281074523926	fix_post	2		12	2.0	2.5	/experiments/knapen_aot/videos/S_yt-2IN85w8ptmM_51.mp4	0.0	93.32960605621338	0.09996700286865234
5	19.347248077392578	fix_pre	0		272	3.0	2.5	/experiments/knapen_aot/videos/S_yt-fCjjH_4i8Fg_115.mp4	0.0	93.42957305908203	2.2665908336639404
5	21.60569405555725	response	0	space		3.0	2.5	/experiments/knapen_aot/videos/S_yt-fCjjH_4i8Fg_115.mp4	0.0	95.6880190372467	
5	21.61383891105652	movie	1		301	3.0	2.5	/experiments/knapen_aot/videos/S_yt-fCjjH_4i8Fg_115.mp4	0.0	95.69616389274597	2.5083351135253906
5	24.12217402458191	fix_post	2		12	3.0	2.5	/experiments/knapen_aot/videos/S_yt-fCjjH_4i8Fg_115.mp4	0.0	98.20449900627136	0.10001802444458008
6	24.22219204902649	fix_pre	0		240	4.0	2.5	/experiments/knapen_aot/videos/R_S_yt-ZtS7ZrJ_rtk_525.mp4	0.0	98.30451703071594	2.0000150203704834
6	26.21405005455017	response	0	space		4.0	2.5	/experiments/knapen_aot/videos/R_S_yt-ZtS7ZrJ_rtk_525.mp4	0.0	100.29637503623962	
6	26.222207069396973	movie	1		301	4.0	2.5	/experiments/knapen_aot/videos/R_S_yt-ZtS7ZrJ_rtk_525.mp4	0.0	100.30453205108643	2.508514881134033
6	28.730721950531006	fix_post	2		12	4.0	2.5	/experiments/knapen_aot/videos/R_S_yt-ZtS7ZrJ_rtk_525.mp4	0.0	102.81304693222046	0.09983110427856445
7	28.83055305480957	fix_pre	0		135	5.0	2.5	/experiments/knapen_aot/videos/R_S_video_inspire_california_big-sur_2020_00001.1080-h264.mp4	0.0	102.91287803649902	1.124910831451416
7	29.947227001190186	response	0	space		5.0	2.5	/experiments/knapen_aot/videos/R_S_video_inspire_california_big-sur_2020_00001.1080-h264.mp4	0.0	104.02955198287964	
7	29.955463886260986	movie	1		169	5.0	2.5	/experiments/knapen_aot/videos/R_S_video_inspire_california_big-sur_2020_00001.1080-h264.mp4	0.0	104.03778886795044	2.5083940029144287
7	32.463857889175415	fix_post	2		12	5.0	2.5	/experiments/knapen_aot/videos/R_S_video_inspire_california_big-sur_2020_00001.1080-h264.mp4	0.0	106.54618287086487	0.10011816024780273
8	32.56397604942322	fix_pre	0		147	6.0	2.5	/experiments/knapen_aot/videos/S_yt-BiBS8EO5GPc_4.mp4	0.0	106.64630103111267	1.2247929573059082
8	33.78066396713257	response	0	space		6.0	2.5	/experiments/knapen_aot/videos/S_yt-BiBS8EO5GPc_4.mp4	0.0	107.86298894882202	
8	33.788769006729126	movie	1		301	6.0	2.5	/experiments/knapen_aot/videos/S_yt-BiBS8EO5GPc_4.mp4	0.0	107.87109398841858	2.5084228515625
8	36.297191858291626	fix_post	2		12	6.0	2.5	/experiments/knapen_aot/videos/S_yt-BiBS8EO5GPc_4.mp4	0.0	110.37951683998108	0.09992814064025879
9	36.397119998931885	fix_pre	0		108	7.0	2.5	blank	1.0	110.47944498062134	0.9009308815002441
9	37.28898096084595	response	0	space		7.0	2.5	blank	1.0	111.3713059425354	
9	37.29805088043213	movie	1		301	7.0	2.5	blank	1.0	111.38037586212158	2.5074000358581543
9	39.80545091629028	fix_post	2		12	7.0	2.5	blank	1.0	113.88777589797974	0.1000211238861084
10	39.90547204017639	fix_pre	0		108	8.0	2.5	/experiments/knapen_aot/videos/S_yt-QXsedpZh800_275.mp4	0.0	113.98779702186584	0.8999848365783691
10	40.797247886657715	response	0	space		8.0	2.5	/experiments/knapen_aot/videos/S_yt-QXsedpZh800_275.mp4	0.0	114.87957286834717	
10	40.80545687675476	movie	1		301	8.0	2.5	/experiments/knapen_aot/videos/S_yt-QXsedpZh800_275.mp4	0.0	114.88778185844421	2.5084030628204346
10	43.313859939575195	fix_post	2		12	8.0	2.5	/experiments/knapen_aot/videos/S_yt-QXsedpZh800_275.mp4	0.0	117.39618492126465	0.0999600887298584
11	43.413820028305054	fix_pre	0		83	9.0	2.5	/experiments/knapen_aot/videos/R_S_ILSVRC2015_train_00538001.mp4	0.0	117.4961450099945	0.6915838718414307
11	44.09725594520569	response	0	space		9.0	2.5	/experiments/knapen_aot/videos/R_S_ILSVRC2015_train_00538001.mp4	0.0	118.17958092689514	
11	44.105403900146484	movie	1		301	9.0	2.5	/experiments/knapen_aot/videos/R_S_ILSVRC2015_train_00538001.mp4	0.0	118.18772888183594	2.508371114730835
11	46.61377501487732	fix_post	2		12	9.0	2.5	/experiments/knapen_aot/videos/R_S_ILSVRC2015_train_00538001.mp4	0.0	120.69609999656677	0.09999799728393555
12	46.713773012161255	fix_pre	0		97	10.0	2.5	/experiments/knapen_aot/videos/R_S_yt-rY_ra5Tb9XU_51.mp4	0.0	120.79609799385071	0.8083219528198242
12	47.51388597488403	response	0	space		10.0	2.5	/experiments/knapen_aot/videos/R_S_yt-rY_ra5Tb9XU_51.mp4	0.0	121.59621095657349	
12	47.52209496498108	movie	1		301	10.0	2.5	/experiments/knapen_aot/videos/R_S_yt-rY_ra5Tb9XU_51.mp4	0.0	121.60441994667053	2.5083279609680176
12	50.0304229259491	fix_post	2		12	10.0	2.5	/experiments/knapen_aot/videos/R_S_yt-rY_ra5Tb9XU_51.mp4	0.0	124.11274790763855	0.10001111030578613
13	50.13043403625488	fix_pre	0		124	11.0	2.5	/experiments/knapen_aot/videos/S_yt-b29VtKvlnWE_430.mp4	0.0	124.21275901794434	1.033318042755127
13	51.15549087524414	response	0	space		11.0	2.5	/experiments/knapen_aot/videos/S_yt-b29VtKvlnWE_430.mp4	0.0	125.2378158569336	
13	51.16375207901001	movie	1		301	11.0	2.5	/experiments/knapen_aot/videos/S_yt-b29VtKvlnWE_430.mp4	0.0	125.24607706069946	2.5083189010620117
13	53.67207098007202	fix_post	2		12	11.0	2.5	/experiments/knapen_aot/videos/S_yt-b29VtKvlnWE_430.mp4	0.0	127.75439596176147	0.10002303123474121
14	53.77209401130676	fix_pre	0		93	12.0	2.5	blank	1.0	127.85441899299622	0.7756400108337402
14	54.53885793685913	response	0	space		12.0	2.5	blank	1.0	128.62118291854858	
14	54.5477340221405	movie	1		301	12.0	2.5	blank	1.0	128.63005900382996	2.507657051086426
14	57.05539107322693	fix_post	2		12	12.0	2.5	blank	1.0	131.13771605491638	0.09999680519104004
15	57.15538787841797	fix_pre	0		66	13.0	2.5	/experiments/knapen_aot/videos/S_yt-r2jZ0zZrqzQ_45.mp4	0.0	131.23771286010742	0.5499410629272461
15	57.69708800315857	response	0	space		13.0	2.5	/experiments/knapen_aot/videos/S_yt-r2jZ0zZrqzQ_45.mp4	0.0	131.77941298484802	
15	57.705328941345215	movie	1		301	13.0	2.5	/experiments/knapen_aot/videos/S_yt-r2jZ0zZrqzQ_45.mp4	0.0	131.78765392303467	2.5084009170532227
15	60.21372985839844	fix_post	2		12	13.0	2.5	/experiments/knapen_aot/videos/S_yt-r2jZ0zZrqzQ_45.mp4	0.0	134.2960548400879	0.09997010231018066
16	60.31369996070862	fix_pre	0		72	14.0	2.5	/experiments/knapen_aot/videos/S_yt-zhQ32_OayBQ_39.mp4	0.0	134.39602494239807	0.6000299453735352
16	60.90554189682007	response	0	space		14.0	2.5	/experiments/knapen_aot/videos/S_yt-zhQ32_OayBQ_39.mp4	0.0	134.98786687850952	
16	60.91372990608215	movie	1		301	14.0	2.5	/experiments/knapen_aot/videos/S_yt-zhQ32_OayBQ_39.mp4	0.0	134.9960548877716	2.5083131790161133
16	63.42204308509827	fix_post	2		12	14.0	2.5	/experiments/knapen_aot/videos/S_yt-zhQ32_OayBQ_39.mp4	0.0	137.50436806678772	0.09997296333312988
17	63.5220160484314	fix_pre	0		114	15.0	2.5	/experiments/knapen_aot/videos/S_yt-bshHX6vWLtA_84.mp4	0.0	137.60434103012085	0.9499540328979492
17	64.4561870098114	response	0	space		15.0	2.5	/experiments/knapen_aot/videos/S_yt-bshHX6vWLtA_84.mp4	0.0	138.53851199150085	
17	64.47197008132935	movie	1		301	15.0	2.5	/experiments/knapen_aot/videos/S_yt-bshHX6vWLtA_84.mp4	0.0	138.5542950630188	2.5083978176116943
17	66.98036789894104	fix_post	2		12	15.0	2.5	/experiments/knapen_aot/videos/S_yt-bshHX6vWLtA_84.mp4	0.0	141.0626928806305	0.10008907318115234
18	67.08045697212219	fix_pre	0		109	16.0	2.5	/experiments/knapen_aot/videos/S_bing-www_dailymotion_com_video_x64hzm7_8.mp4	0.0	141.16278195381165	0.9081130027770996
18	67.98045802116394	response	0	space		16.0	2.5	/experiments/knapen_aot/videos/S_bing-www_dailymotion_com_video_x64hzm7_8.mp4	0.0	142.0627830028534	
18	67.98856997489929	movie	1		166	16.0	2.5	/experiments/knapen_aot/videos/S_bing-www_dailymotion_com_video_x64hzm7_8.mp4	0.0	142.07089495658875	2.508455991744995
18	70.49702596664429	fix_post	2		12	16.0	2.5	/experiments/knapen_aot/videos/S_bing-www_dailymotion_com_video_x64hzm7_8.mp4	0.0	144.57935094833374	0.09997892379760742
19	70.5970048904419	fix_pre	0		67	17.0	2.5	/experiments/knapen_aot/videos/R_S_yt-EAMpitsjbbA_153.mp4	0.0	144.67932987213135	0.558568000793457
19	71.14714097976685	response	0	space		17.0	2.5	/experiments/knapen_aot/videos/R_S_yt-EAMpitsjbbA_153.mp4	0.0	145.2294659614563	
19	71.15557289123535	movie	1		301	17.0	2.5	/experiments/knapen_aot/videos/R_S_yt-EAMpitsjbbA_153.mp4	0.0	145.2378978729248	2.508108139038086
19	73.66368103027344	fix_post	2		12	17.0	2.5	/experiments/knapen_aot/videos/R_S_yt-EAMpitsjbbA_153.mp4	0.0	147.7460060119629	0.09999203681945801
20	73.7636730670929	fix_pre	0		112	18.0	2.5	/experiments/knapen_aot/videos/R_S_ILSVRC2015_train_00303008.mp4	0.0	147.84599804878235	0.9331948757171631
20	74.68877100944519	response	0	space		18.0	2.5	/experiments/knapen_aot/videos/R_S_ILSVRC2015_train_00303008.mp4	0.0	148.77109599113464	
20	74.69686794281006	movie	1		301	18.0	2.5	/experiments/knapen_aot/videos/R_S_ILSVRC2015_train_00303008.mp4	0.0	148.7791929244995	2.508453130722046
20	77.2053210735321	fix_post	2		12	18.0	2.5	/experiments/knapen_aot/videos/R_S_ILSVRC2015_train_00303008.mp4	0.0	151.28764605522156	0.10003900527954102
21	77.30536007881165	fix_pre	0		80	19.0	2.5	/experiments/knapen_aot/videos/S_yt-mQESmS4uqRU_208.mp4	0.0	151.3876850605011	0.666517972946167
21	77.96371102333069	response	0	space		19.0	2.5	/experiments/knapen_aot/videos/S_yt-mQESmS4uqRU_208.mp4	0.0	152.04603600502014	
21	77.97187805175781	movie	1		301	19.0	2.5	/experiments/knapen_aot/videos/S_yt-mQESmS4uqRU_208.mp4	0.0	152.05420303344727	2.5083818435668945
21	80.4802598953247	fix_post	2		12	19.0	2.5	/experiments/knapen_aot/videos/S_yt-mQESmS4uqRU_208.mp4	0.0	154.56258487701416	0.10003900527954102
22	80.58029890060425	fix_pre	0		68	20.0	2.5	/experiments/knapen_aot/videos/R_S_yt-UojTppgtyCE_121.mp4	0.0	154.6626238822937	0.5666279792785645
22	81.13869094848633	response	0	space		20.0	2.5	/experiments/knapen_aot/videos/R_S_yt-UojTppgtyCE_121.mp4	0.0	155.22101593017578	
22	81.14692687988281	movie	1		301	20.0	2.5	/experiments/knapen_aot/videos/R_S_yt-UojTppgtyCE_121.mp4	0.0	155.22925186157227	2.5083441734313965
22	83.65527105331421	fix_post	2		12	20.0	2.5	/experiments/knapen_aot/videos/R_S_yt-UojTppgtyCE_121.mp4	0.0	157.73759603500366	0.09994983673095703
23	83.75522089004517	fix_pre	0		221	21.0	2.5	blank	1.0	157.83754587173462	1.8416571617126465
23	85.5886390209198	response	0	space		21.0	2.5	blank	1.0	159.67096400260925	
23	85.59687805175781	movie	1		301	21.0	2.5	blank	1.0	159.67920303344727	2.50839900970459
23	88.1052770614624	fix_post	2		12	21.0	2.5	blank	1.0	162.18760204315186	0.09999799728393555
24	88.20527505874634	fix_pre	0		51	22.0	2.5	/experiments/knapen_aot/videos/R_S_yt-szXWk_X_67Q_10.mp4	0.0	162.2876000404358	0.42535901069641113
24	88.62207794189453	response	0	space		22.0	2.5	/experiments/knapen_aot/videos/R_S_yt-szXWk_X_67Q_10.mp4	0.0	162.70440292358398	
24	88.63063406944275	movie	1		301	22.0	2.5	/experiments/knapen_aot/videos/R_S_yt-szXWk_X_67Q_10.mp4	0.0	162.7129590511322	2.507874011993408
24	91.13850808143616	fix_post	2		12	22.0	2.5	/experiments/knapen_aot/videos/R_S_yt-szXWk_X_67Q_10.mp4	0.0	165.2208330631256	0.1000669002532959
25	91.23857498168945	fix_pre	0		82	23.0	2.5	/experiments/knapen_aot/videos/R_S_yt-yB7mPODPTVw_74.mp4	0.0	165.3208999633789	0.6838998794555664
25	91.91369986534119	response	0	space		23.0	2.5	/experiments/knapen_aot/videos/R_S_yt-yB7mPODPTVw_74.mp4	0.0	165.99602484703064	
25	91.92247486114502	movie	1		301	23.0	2.5	/experiments/knapen_aot/videos/R_S_yt-yB7mPODPTVw_74.mp4	0.0	166.00479984283447	2.5077431201934814
25	94.4302179813385	fix_post	2		12	23.0	2.5	/experiments/knapen_aot/videos/R_S_yt-yB7mPODPTVw_74.mp4	0.0	168.51254296302795	0.09998393058776855
26	94.53020191192627	fix_pre	0		119	24.0	2.5	/experiments/knapen_aot/videos/S_Y002_C013_SDR_2K_AVC.mp4	0.0	168.61252689361572	0.9916651248931885
26	95.51361799240112	response	0	space		24.0	2.5	/experiments/knapen_aot/videos/S_Y002_C013_SDR_2K_AVC.mp4	0.0	169.59594297409058	
26	95.52186703681946	movie	1		168	24.0	2.5	/experiments/knapen_aot/videos/S_Y002_C013_SDR_2K_AVC.mp4	0.0	169.6041920185089	2.5083558559417725
26	98.03022289276123	fix_post	2		12	24.0	2.5	/experiments/knapen_aot/videos/S_Y002_C013_SDR_2K_AVC.mp4	0.0	172.11254787445068	0.10009002685546875
27	98.1303129196167	fix_pre	0		141	25.0	2.5	/experiments/knapen_aot/videos/S_yt-F1vQ5nZWhDg_21.mp4	0.0	172.21263790130615	1.1748509407043457
27	99.29697799682617	response	0	space		25.0	2.5	/experiments/knapen_aot/videos/S_yt-F1vQ5nZWhDg_21.mp4	0.0	173.37930297851562	
27	99.30516386032104	movie	1		301	25.0	2.5	/experiments/knapen_aot/videos/S_yt-F1vQ5nZWhDg_21.mp4	0.0	173.3874888420105	2.508348226547241
27	101.81351208686829	fix_post	2		12	25.0	2.5	/experiments/knapen_aot/videos/S_yt-F1vQ5nZWhDg_21.mp4	0.0	175.89583706855774	0.10004591941833496
28	101.91355800628662	fix_pre	0		158	26.0	2.5	/experiments/knapen_aot/videos/R_S_Y011_C008_SDR_2K_AVC.mp4	0.0	175.99588298797607	1.3165578842163086
28	103.22194290161133	response	0	space		26.0	2.5	/experiments/knapen_aot/videos/R_S_Y011_C008_SDR_2K_AVC.mp4	0.0	177.30426788330078	
28	103.23011589050293	movie	1		172	26.0	2.5	/experiments/knapen_aot/videos/R_S_Y011_C008_SDR_2K_AVC.mp4	0.0	177.31244087219238	2.508395195007324
28	105.73851108551025	fix_post	2		12	26.0	2.5	/experiments/knapen_aot/videos/R_S_Y011_C008_SDR_2K_AVC.mp4	0.0	179.8208360671997	0.10041689872741699
29	105.83892798423767	fix_pre	0		121	27.0	2.5	blank	1.0	179.92125296592712	1.0080130100250244
29	106.83853197097778	response	0	space		27.0	2.5	blank	1.0	180.92085695266724	
29	106.8469409942627	movie	1		301	27.0	2.5	blank	1.0	180.92926597595215	2.508233070373535
29	109.35517406463623	fix_post	2		12	27.0	2.5	blank	1.0	183.43749904632568	0.10001802444458008
30	109.45519208908081	fix_pre	0		59	28.0	2.5	/experiments/knapen_aot/videos/S_yt-be7r-ha8BpA_1045.mp4	0.0	183.53751707077026	0.49158191680908203
30	109.93858194351196	response	0	space		28.0	2.5	/experiments/knapen_aot/videos/S_yt-be7r-ha8BpA_1045.mp4	0.0	184.02090692520142	
30	109.94677400588989	movie	1		301	28.0	2.5	/experiments/knapen_aot/videos/S_yt-be7r-ha8BpA_1045.mp4	0.0	184.02909898757935	2.508401870727539
30	112.45517587661743	fix_post	2		12	28.0	2.5	/experiments/knapen_aot/videos/S_yt-be7r-ha8BpA_1045.mp4	0.0	186.53750085830688	0.09986019134521484
31	112.55503606796265	fix_pre	0		73	29.0	2.5	/experiments/knapen_aot/videos/R_S_yt-iKe-0YNR5Eo_164.mp4	0.0	186.6373610496521	0.608400821685791
31	113.15524101257324	response	0	space		29.0	2.5	/experiments/knapen_aot/videos/R_S_yt-iKe-0YNR5Eo_164.mp4	0.0	187.2375659942627	
31	113.16343688964844	movie	1		301	29.0	2.5	/experiments/knapen_aot/videos/R_S_yt-iKe-0YNR5Eo_164.mp4	0.0	187.2457618713379	2.5083091259002686
31	115.6717460155487	fix_post	2		12	29.0	2.5	/experiments/knapen_aot/videos/R_S_yt-iKe-0YNR5Eo_164.mp4	0.0	189.75407099723816	0.10010099411010742
32	115.77184700965881	fix_pre	0		158	30.0	2.5	/experiments/knapen_aot/videos/R_S_yt-VMUSo8E_Fj8_171.mp4	0.0	189.85417199134827	1.3168878555297852
32	117.07274198532104	response	0	space		30.0	2.5	/experiments/knapen_aot/videos/R_S_yt-VMUSo8E_Fj8_171.mp4	0.0	191.1550669670105	
32	117.0887348651886	movie	1		301	30.0	2.5	/experiments/knapen_aot/videos/R_S_yt-VMUSo8E_Fj8_171.mp4	0.0	191.17105984687805	2.508033037185669
32	119.59676790237427	fix_post	2		12	30.0	2.5	/experiments/knapen_aot/videos/R_S_yt-VMUSo8E_Fj8_171.mp4	0.0	193.67909288406372	0.09995007514953613
33	119.6967179775238	fix_pre	0		64	31.0	2.5	/experiments/knapen_aot/videos/R_S_comp_A108_C001_v09_SDR_FINAL_22062018_SDR_2K_AVC.mp4	0.0	193.77904295921326	0.5333390235900879
33	120.22190189361572	response	0	space		31.0	2.5	/experiments/knapen_aot/videos/R_S_comp_A108_C001_v09_SDR_FINAL_22062018_SDR_2K_AVC.mp4	0.0	194.30422687530518	
33	120.23005700111389	movie	1		168	31.0	2.5	/experiments/knapen_aot/videos/R_S_comp_A108_C001_v09_SDR_FINAL_22062018_SDR_2K_AVC.mp4	0.0	194.31238198280334	2.5083999633789062
33	122.7384569644928	fix_post	2		12	31.0	2.5	/experiments/knapen_aot/videos/R_S_comp_A108_C001_v09_SDR_FINAL_22062018_SDR_2K_AVC.mp4	0.0	196.82078194618225	0.10030889511108398
34	122.83876585960388	fix_pre	0		180	32.0	2.5	/experiments/knapen_aot/videos/R_S_yt--cAfxH1WnPo_3.mp4	0.0	196.92109084129333	1.49989914894104
34	124.3301830291748	response	0	space		32.0	2.5	/experiments/knapen_aot/videos/R_S_yt--cAfxH1WnPo_3.mp4	0.0	198.41250801086426	
34	124.33866500854492	movie	1		301	32.0	2.5	/experiments/knapen_aot/videos/R_S_yt--cAfxH1WnPo_3.mp4	0.0	198.42098999023438	2.5080909729003906
34	126.84675598144531	fix_post	2		12	32.0	2.5	/experiments/knapen_aot/videos/R_S_yt--cAfxH1WnPo_3.mp4	0.0	200.92908096313477	0.1000070571899414
35	126.94676303863525	fix_pre	0		1004	33.0	2.5	blank	1.0	201.0290880203247	8.36656904220581
35	135.30517292022705	response	0	space		33.0	2.5	blank	1.0	209.3874979019165	
35	135.31333208084106	movie	1		301	33.0	2.5	blank	1.0	209.39565706253052	2.508354902267456
35	137.82168698310852	fix_post	2		12	33.0	2.5	blank	1.0	211.90401196479797	0.10028600692749023
36	137.921972990036	fix_pre	0		95	34.0	2.5	/experiments/knapen_aot/videos/R_S_yt-gC3my54_ChQ_58.mp4	0.0	212.00429797172546	0.7915298938751221
36	138.69758200645447	response	0	space		34.0	2.5	/experiments/knapen_aot/videos/R_S_yt-gC3my54_ChQ_58.mp4	0.0	212.77990698814392	
36	138.71350288391113	movie	1		301	34.0	2.5	/experiments/knapen_aot/videos/R_S_yt-gC3my54_ChQ_58.mp4	0.0	212.7958278656006	2.5081450939178467
36	141.22164797782898	fix_post	2		12	34.0	2.5	/experiments/knapen_aot/videos/R_S_yt-gC3my54_ChQ_58.mp4	0.0	215.30397295951843	0.10003399848937988
37	141.32168197631836	fix_pre	0		338	35.0	2.5	/experiments/knapen_aot/videos/R_S_production_ID_4540332.mp4	0.0	215.4040069580078	2.8166120052337646
37	144.13010787963867	response	0	space		35.0	2.5	/experiments/knapen_aot/videos/R_S_production_ID_4540332.mp4	0.0	218.21243286132812	
37	144.13829398155212	movie	1		176	35.0	2.5	/experiments/knapen_aot/videos/R_S_production_ID_4540332.mp4	0.0	218.22061896324158	2.5082809925079346
37	146.64657497406006	fix_post	2		12	35.0	2.5	/experiments/knapen_aot/videos/R_S_production_ID_4540332.mp4	0.0	220.7288999557495	0.10010790824890137
38	146.74668288230896	fix_pre	0		619	36.0	2.5	/experiments/knapen_aot/videos/R_S_yt-GLK6LniTOK0_69.mp4	0.0	220.8290078639984	5.158184051513672
38	151.8892800807953	response	0	space		36.0	2.5	/experiments/knapen_aot/videos/R_S_yt-GLK6LniTOK0_69.mp4	0.0	225.97160506248474	
38	151.90486693382263	movie	1		301	36.0	2.5	/experiments/knapen_aot/videos/R_S_yt-GLK6LniTOK0_69.mp4	0.0	225.98719191551208	2.508420944213867
38	154.4132878780365	fix_post	2		12	36.0	2.5	/experiments/knapen_aot/videos/R_S_yt-GLK6LniTOK0_69.mp4	0.0	228.49561285972595	0.09998512268066406
39	154.51327300071716	fix_pre	0		72	37.0	2.5	/experiments/knapen_aot/videos/R_S_3dzza09VbXY_235.mp4	0.0	228.59559798240662	0.5999670028686523
39	155.09757089614868	response	0	space		37.0	2.5	/experiments/knapen_aot/videos/R_S_3dzza09VbXY_235.mp4	0.0	229.17989587783813	
39	155.11324000358582	movie	1		301	37.0	2.5	/experiments/knapen_aot/videos/R_S_3dzza09VbXY_235.mp4	0.0	229.19556498527527	2.5083110332489014
39	157.62155103683472	fix_post	2		12	37.0	2.5	/experiments/knapen_aot/videos/R_S_3dzza09VbXY_235.mp4	0.0	231.70387601852417	0.10020899772644043
40	157.72176003456116	fix_pre	0		1676	38.0	2.5	/experiments/knapen_aot/videos/R_S_yt-6B69qmkEdTI_1.mp4	0.0	231.8040850162506	13.966469049453735
