trial_nr	onset	event_type	phase	response	nr_frames	movie_index	movie_duration	movie_file	blank	onset_abs	duration
0	0.12859702110290527	stim	0		24.0					164.58958411216736	0.19635295867919922
0	0.3171498775482178	response	0	space						164.77813696861267	
1	0.3249499797821045	stim	0		121.0					164.78593707084656	1.0082459449768066
1	0.9418449401855469	response	0	space						165.40283203125	
1	1.1610708236694336	response	0	2						165.6220579147339	
1	1.2680959701538086	response	0	space						165.72908306121826	
1	1.3331959247589111	stim	1		120.0					165.79418301582336	1.000053882598877
1	2.0748229026794434	response	1	space						166.5358099937439	
2	2.333249807357788	fix_pre	0		18.0	0.0	2.5	/experiments/knapen_aot/videos/R_S_yt-rlEPywo5BEQ_36.mp4	0.0	166.79423689842224	0.14973115921020508
2	2.4747707843780518	response	0	space		0.0	2.5	/experiments/knapen_aot/videos/R_S_yt-rlEPywo5BEQ_36.mp4	0.0	166.9357578754425	
2	2.482980966567993	movie	1		301.0	0.0	2.5	/experiments/knapen_aot/videos/R_S_yt-rlEPywo5BEQ_36.mp4	0.0	166.94396805763245	2.508363962173462
2	4.991344928741455	fix_post	2		12.0	0.0	2.5	/experiments/knapen_aot/videos/R_S_yt-rlEPywo5BEQ_36.mp4	0.0	169.4523320198059	0.10007905960083008
3	5.091423988342285	fix_pre	0		7.0	1.0	2.5	/experiments/knapen_aot/videos/S_yt-pB9w3AA-woE_37.mp4	0.0	169.55241107940674	0.05824089050292969
3	5.144014835357666	response	0	2		1.0	2.5	/experiments/knapen_aot/videos/S_yt-pB9w3AA-woE_37.mp4	0.0	169.60500192642212	
3	5.149664878845215	movie	1		299.0	1.0	2.5	/experiments/knapen_aot/videos/S_yt-pB9w3AA-woE_37.mp4	0.0	169.61065196990967	2.508347988128662
3	7.658012866973877	fix_post	2		12.0	1.0	2.5	/experiments/knapen_aot/videos/S_yt-pB9w3AA-woE_37.mp4	0.0	172.11899995803833	0.10005497932434082
4	7.758067846298218	fix_pre	0		9.0	2.0	2.5	/experiments/knapen_aot/videos/R_S_yt-bZfmqTZ-d2k_112.mp4	0.0	172.21905493736267	0.07484316825866699
4	7.824816942214966	response	0	2		2.0	2.5	/experiments/knapen_aot/videos/R_S_yt-bZfmqTZ-d2k_112.mp4	0.0	172.28580403327942	
4	7.832911014556885	movie	1		301.0	2.0	2.5	/experiments/knapen_aot/videos/R_S_yt-bZfmqTZ-d2k_112.mp4	0.0	172.29389810562134	2.5083608627319336
4	10.341271877288818	fix_post	2		12.0	2.0	2.5	/experiments/knapen_aot/videos/R_S_yt-bZfmqTZ-d2k_112.mp4	0.0	174.80225896835327	0.10006213188171387
5	10.441334009170532	fix_pre	0		8.0	3.0	2.5	/experiments/knapen_aot/videos/R_S_5Bc466bkeA0_35.mp4	0.0	174.90232110023499	0.06660294532775879
5	10.499742984771729	response	0	2		3.0	2.5	/experiments/knapen_aot/videos/R_S_5Bc466bkeA0_35.mp4	0.0	174.96073007583618	
5	10.507936954498291	movie	1		301.0	3.0	2.5	/experiments/knapen_aot/videos/R_S_5Bc466bkeA0_35.mp4	0.0	174.96892404556274	2.508596897125244
5	13.016533851623535	fix_post	2		12.0	3.0	2.5	/experiments/knapen_aot/videos/R_S_5Bc466bkeA0_35.mp4	0.0	177.477520942688	0.09978699684143066
6	13.116320848464966	fix_pre	0		13.0	4.0	2.5	/experiments/knapen_aot/videos/S_wc-AJxbR6daLxMM_5.mp4	0.0	177.57730793952942	0.1088869571685791
6	13.216494798660278	response	0	2		4.0	2.5	/experiments/knapen_aot/videos/S_wc-AJxbR6daLxMM_5.mp4	0.0	177.67748188972473	
6	13.225207805633545	movie	1		165.0	4.0	2.5	/experiments/knapen_aot/videos/S_wc-AJxbR6daLxMM_5.mp4	0.0	177.686194896698	2.5078279972076416
6	15.733035802841187	fix_post	2		12.0	4.0	2.5	/experiments/knapen_aot/videos/S_wc-AJxbR6daLxMM_5.mp4	0.0	180.19402289390564	0.10001301765441895
7	15.833048820495605	fix_pre	0		1.0	5.0	2.5	/experiments/knapen_aot/videos/R_S_yt-jQrMcUCmAaM_44.mp4	0.0	180.29403591156006	0.010220050811767578
7	15.834669828414917	response	0	2		5.0	2.5	/experiments/knapen_aot/videos/R_S_yt-jQrMcUCmAaM_44.mp4	0.0	180.29565691947937	
7	15.843268871307373	movie	1		301.0	5.0	2.5	/experiments/knapen_aot/videos/R_S_yt-jQrMcUCmAaM_44.mp4	0.0	180.30425596237183	2.5063209533691406
7	18.349589824676514	fix_post	2		12.0	5.0	2.5	/experiments/knapen_aot/videos/R_S_yt-jQrMcUCmAaM_44.mp4	0.0	182.81057691574097	0.10004115104675293
8	18.449630975723267	fix_pre	0		4.0	6.0	2.5	/experiments/knapen_aot/videos/S_ILSVRC2015_train_00079001.mp4	0.0	182.91061806678772	0.033296823501586914
8	18.47484588623047	response	0	2		6.0	2.5	/experiments/knapen_aot/videos/S_ILSVRC2015_train_00079001.mp4	0.0	182.93583297729492	
8	18.482927799224854	movie	1		301.0	6.0	2.5	/experiments/knapen_aot/videos/S_ILSVRC2015_train_00079001.mp4	0.0	182.9439148902893	2.5084621906280518
8	20.974716901779175	response	1	2		6.0	2.5	/experiments/knapen_aot/videos/S_ILSVRC2015_train_00079001.mp4	0.0	185.43570399284363	
8	20.991389989852905	fix_post	2		12.0	6.0	2.5	/experiments/knapen_aot/videos/S_ILSVRC2015_train_00079001.mp4	0.0	185.45237708091736	0.10010480880737305
9	21.09149479866028	fix_pre	0		32.0	7.0	2.5	blank	1.0	185.55248188972473	0.2664601802825928
9	21.349601984024048	response	0	2		7.0	2.5	blank	1.0	185.8105890750885	
9	21.35795497894287	movie	1		301.0	7.0	2.5	blank	1.0	185.81894207000732	2.5083329677581787
9	23.86628794670105	fix_post	2		12.0	7.0	2.5	blank	1.0	188.3272750377655	0.09995102882385254
10	23.966238975524902	fix_pre	0		10.0	8.0	2.5	/experiments/knapen_aot/videos/S_yt-xNKgc8sFYvU_35.mp4	0.0	188.42722606658936	0.0833439826965332
10	24.041244983673096	response	0	2		8.0	2.5	/experiments/knapen_aot/videos/S_yt-xNKgc8sFYvU_35.mp4	0.0	188.50223207473755	
10	24.049582958221436	movie	1		301.0	8.0	2.5	/experiments/knapen_aot/videos/S_yt-xNKgc8sFYvU_35.mp4	0.0	188.5105700492859	2.5083699226379395
10	26.557952880859375	fix_post	2		12.0	8.0	2.5	/experiments/knapen_aot/videos/S_yt-xNKgc8sFYvU_35.mp4	0.0	191.01893997192383	0.10007691383361816
11	26.658029794692993	fix_pre	0		13.0	9.0	2.5	/experiments/knapen_aot/videos/S_yt-C0INfEJ4Awk_53.mp4	0.0	191.11901688575745	0.10872817039489746
11	26.75798797607422	response	0	2		9.0	2.5	/experiments/knapen_aot/videos/S_yt-C0INfEJ4Awk_53.mp4	0.0	191.21897506713867	
11	26.76675796508789	movie	1		301.0	9.0	2.5	/experiments/knapen_aot/videos/S_yt-C0INfEJ4Awk_53.mp4	0.0	191.22774505615234	2.507817029953003
11	29.274574995040894	fix_post	2		12.0	9.0	2.5	/experiments/knapen_aot/videos/S_yt-C0INfEJ4Awk_53.mp4	0.0	193.73556208610535	0.09997987747192383
12	29.374554872512817	fix_pre	0		7.0	10.0	2.5	/experiments/knapen_aot/videos/S_ILSVRC2015_train_00446000.mp4	0.0	193.83554196357727	0.0588529109954834
12	29.417224884033203	response	0	2		10.0	2.5	/experiments/knapen_aot/videos/S_ILSVRC2015_train_00446000.mp4	0.0	193.87821197509766	
12	29.4334077835083	movie	1		301.0	10.0	2.5	/experiments/knapen_aot/videos/S_ILSVRC2015_train_00446000.mp4	0.0	193.89439487457275	2.507779121398926
12	31.941186904907227	fix_post	2		12.0	10.0	2.5	/experiments/knapen_aot/videos/S_ILSVRC2015_train_00446000.mp4	0.0	196.40217399597168	0.1001288890838623
13	32.04131579399109	fix_pre	0		5.0	11.0	2.5	/experiments/knapen_aot/videos/R_S_ILSVRC2015_train_00371010.mp4	0.0	196.50230288505554	0.04158306121826172
13	32.067282915115356	response	0	2		11.0	2.5	/experiments/knapen_aot/videos/R_S_ILSVRC2015_train_00371010.mp4	0.0	196.5282700061798	
13	32.08289885520935	movie	1		301.0	11.0	2.5	/experiments/knapen_aot/videos/R_S_ILSVRC2015_train_00371010.mp4	0.0	196.5438859462738	2.5083680152893066
13	34.59126687049866	fix_post	2		12.0	11.0	2.5	/experiments/knapen_aot/videos/R_S_ILSVRC2015_train_00371010.mp4	0.0	199.0522539615631	0.09992313385009766
14	34.691190004348755	fix_pre	0		12.0	12.0	2.5	/experiments/knapen_aot/videos/R_S_yt-IyxCMODHSSE_29.mp4	0.0	199.1521770954132	0.1000068187713623
14	34.78295278549194	response	0	2		12.0	2.5	/experiments/knapen_aot/videos/R_S_yt-IyxCMODHSSE_29.mp4	0.0	199.2439398765564	
14	34.79119682312012	movie	1		301.0	12.0	2.5	/experiments/knapen_aot/videos/R_S_yt-IyxCMODHSSE_29.mp4	0.0	199.25218391418457	2.508395195007324
14	37.29959201812744	fix_post	2		12.0	12.0	2.5	/experiments/knapen_aot/videos/R_S_yt-IyxCMODHSSE_29.mp4	0.0	201.7605791091919	0.10004377365112305
15	37.399635791778564	fix_pre	0		20.0	13.0	2.5	/experiments/knapen_aot/videos/R_S_yt-O_4DgW-XKvA_35.mp4	0.0	201.86062288284302	0.16652607917785645
15	37.5580039024353	response	0	2		13.0	2.5	/experiments/knapen_aot/videos/R_S_yt-O_4DgW-XKvA_35.mp4	0.0	202.01899099349976	
15	37.56616187095642	movie	1		301.0	13.0	2.5	/experiments/knapen_aot/videos/R_S_yt-O_4DgW-XKvA_35.mp4	0.0	202.02714896202087	2.508404016494751
15	40.07456588745117	fix_post	2		12.0	13.0	2.5	/experiments/knapen_aot/videos/R_S_yt-O_4DgW-XKvA_35.mp4	0.0	204.53555297851562	0.09997296333312988
16	40.1745388507843	fix_pre	0		12.0	14.0	2.5	blank	1.0	204.63552594184875	0.10017609596252441
16	40.25875282287598	response	0	2		14.0	2.5	blank	1.0	204.71973991394043	
16	40.274714946746826	movie	1		301.0	14.0	2.5	blank	1.0	204.73570203781128	2.508206844329834
16	42.78292179107666	fix_post	2		12.0	14.0	2.5	blank	1.0	207.2439088821411	0.10013604164123535
17	42.883057832717896	fix_pre	0		14.0	15.0	2.5	/experiments/knapen_aot/videos/R_S_ILSVRC2015_train_00538001.mp4	0.0	207.34404492378235	0.11640310287475586
17	42.99125385284424	response	0	2		15.0	2.5	/experiments/knapen_aot/videos/R_S_ILSVRC2015_train_00538001.mp4	0.0	207.4522409439087	
17	42.99946093559265	movie	1		301.0	15.0	2.5	/experiments/knapen_aot/videos/R_S_ILSVRC2015_train_00538001.mp4	0.0	207.4604480266571	2.508415937423706
17	45.50787687301636	fix_post	2		12.0	15.0	2.5	/experiments/knapen_aot/videos/R_S_ILSVRC2015_train_00538001.mp4	0.0	209.9688639640808	0.10006093978881836
17	45.58299994468689	response	2	2		15.0	2.5	/experiments/knapen_aot/videos/R_S_ILSVRC2015_train_00538001.mp4	0.0	210.04398703575134	
18	45.607937812805176	fix_pre	0		61.0	16.0	2.5	/experiments/knapen_aot/videos/S_yt-0lfSyC79n14_7.mp4	0.0	210.06892490386963	0.5083000659942627
18	46.10033893585205	response	0	2		16.0	2.5	/experiments/knapen_aot/videos/S_yt-0lfSyC79n14_7.mp4	0.0	210.5613260269165	
18	46.11623787879944	movie	1		301.0	16.0	2.5	/experiments/knapen_aot/videos/S_yt-0lfSyC79n14_7.mp4	0.0	210.5772249698639	2.5083911418914795
18	48.62462902069092	fix_post	2		12.0	16.0	2.5	/experiments/knapen_aot/videos/S_yt-0lfSyC79n14_7.mp4	0.0	213.08561611175537	0.10036396980285645
19	48.724992990493774	fix_pre	0		13.0	17.0	2.5	/experiments/knapen_aot/videos/R_S_yt-nYi_FfCjepk_74.mp4	0.0	213.18598008155823	0.10775995254516602
19	48.82461190223694	response	0	2		17.0	2.5	/experiments/knapen_aot/videos/R_S_yt-nYi_FfCjepk_74.mp4	0.0	213.2855989933014	
19	48.83275294303894	movie	1		301.0	17.0	2.5	/experiments/knapen_aot/videos/R_S_yt-nYi_FfCjepk_74.mp4	0.0	213.2937400341034	2.508359909057617
19	51.34111285209656	fix_post	2		12.0	17.0	2.5	/experiments/knapen_aot/videos/R_S_yt-nYi_FfCjepk_74.mp4	0.0	215.802099943161	0.10007905960083008
20	51.44119191169739	fix_pre	0		29.0	18.0	2.5	/experiments/knapen_aot/videos/S_yt-IyxCMODHSSE_29.mp4	0.0	215.90217900276184	0.2421128749847412
20	51.67460799217224	response	0	2		18.0	2.5	/experiments/knapen_aot/videos/S_yt-IyxCMODHSSE_29.mp4	0.0	216.1355950832367	
20	51.68330478668213	movie	1		301.0	18.0	2.5	/experiments/knapen_aot/videos/S_yt-IyxCMODHSSE_29.mp4	0.0	216.14429187774658	2.50789213180542
20	54.19119691848755	fix_post	2		12.0	18.0	2.5	/experiments/knapen_aot/videos/S_yt-IyxCMODHSSE_29.mp4	0.0	218.652184009552	0.10004401206970215
21	54.29124093055725	fix_pre	0		29.0	19.0	2.5	/experiments/knapen_aot/videos/R_S_yt-qF-69JWJX_Y_55.mp4	0.0	218.7522280216217	0.24155807495117188
21	54.524592876434326	response	0	2		19.0	2.5	/experiments/knapen_aot/videos/R_S_yt-qF-69JWJX_Y_55.mp4	0.0	218.98557996749878	
21	54.53279900550842	movie	1		301.0	19.0	2.5	/experiments/knapen_aot/videos/R_S_yt-qF-69JWJX_Y_55.mp4	0.0	218.99378609657288	2.50830078125
21	57.04109978675842	fix_post	2		12.0	19.0	2.5	/experiments/knapen_aot/videos/R_S_yt-qF-69JWJX_Y_55.mp4	0.0	221.50208687782288	0.10002613067626953
22	57.14112591743469	fix_pre	0		6.0	20.0	2.5	/experiments/knapen_aot/videos/R_S_ILSVRC2015_train_00451000.mp4	0.0	221.60211300849915	0.04999589920043945
22	57.1829309463501	response	0	2		20.0	2.5	/experiments/knapen_aot/videos/R_S_ILSVRC2015_train_00451000.mp4	0.0	221.64391803741455	
22	57.19112181663513	movie	1		301.0	20.0	2.5	/experiments/knapen_aot/videos/R_S_ILSVRC2015_train_00451000.mp4	0.0	221.65210890769958	2.5082221031188965
22	59.69934391975403	fix_post	2		12.0	20.0	2.5	/experiments/knapen_aot/videos/R_S_ILSVRC2015_train_00451000.mp4	0.0	224.16033101081848	0.10006308555603027
23	59.79940700531006	fix_pre	0		15.0	21.0	2.5	blank	1.0	224.2603940963745	0.125
23	59.91625189781189	response	0	2		21.0	2.5	blank	1.0	224.37723898887634	
23	59.92440700531006	movie	1		301.0	21.0	2.5	blank	1.0	224.3853940963745	2.508495807647705
23	62.432902812957764	fix_post	2		12.0	21.0	2.5	blank	1.0	226.89388990402222	0.0998830795288086
24	62.53278589248657	fix_pre	0		15.0	22.0	2.5	/experiments/knapen_aot/videos/S_comp_N008_C003_PS_v01_SDR_PS_20180925_SDR_2K_AVC.mp4	0.0	226.99377298355103	0.13332891464233398
24	62.64947199821472	response	0	2		22.0	2.5	/experiments/knapen_aot/videos/S_comp_N008_C003_PS_v01_SDR_PS_20180925_SDR_2K_AVC.mp4	0.0	227.11045908927917	
24	62.666114807128906	movie	1		162.0	22.0	2.5	/experiments/knapen_aot/videos/S_comp_N008_C003_PS_v01_SDR_PS_20180925_SDR_2K_AVC.mp4	0.0	227.12710189819336	2.5000040531158447
24	65.16611886024475	fix_post	2		12.0	22.0	2.5	/experiments/knapen_aot/videos/S_comp_N008_C003_PS_v01_SDR_PS_20180925_SDR_2K_AVC.mp4	0.0	229.6271059513092	0.09996294975280762
25	65.26608180999756	fix_pre	0		19.0	23.0	2.5	/experiments/knapen_aot/videos/R_S_yt-PyO8-WsbaLU_43.mp4	0.0	229.727068901062	0.1582930088043213
25	65.41627097129822	response	0	2		23.0	2.5	/experiments/knapen_aot/videos/R_S_yt-PyO8-WsbaLU_43.mp4	0.0	229.87725806236267	
25	65.42437481880188	movie	1		301.0	23.0	2.5	/experiments/knapen_aot/videos/R_S_yt-PyO8-WsbaLU_43.mp4	0.0	229.88536190986633	2.508450984954834
25	67.93282580375671	fix_post	2		12.0	23.0	2.5	/experiments/knapen_aot/videos/R_S_yt-PyO8-WsbaLU_43.mp4	0.0	232.39381289482117	0.09993410110473633
26	68.03275990486145	fix_pre	0		14.0	24.0	2.5	/experiments/knapen_aot/videos/R_S_yt-osdlC1buTaM_4.mp4	0.0	232.4937469959259	0.11662697792053223
26	68.14119100570679	response	0	2		24.0	2.5	/experiments/knapen_aot/videos/R_S_yt-osdlC1buTaM_4.mp4	0.0	232.60217809677124	
26	68.14938688278198	movie	1		301.0	24.0	2.5	/experiments/knapen_aot/videos/R_S_yt-osdlC1buTaM_4.mp4	0.0	232.61037397384644	2.5083861351013184
26	70.6577730178833	fix_post	2		12.0	24.0	2.5	/experiments/knapen_aot/videos/R_S_yt-osdlC1buTaM_4.mp4	0.0	235.11876010894775	0.10007977485656738
27	70.75785279273987	fix_pre	0		22.0	25.0	2.5	/experiments/knapen_aot/videos/S_yt-iHmshS63rBc_329.mp4	0.0	235.21883988380432	0.18315410614013672
27	70.93282580375671	response	0	2		25.0	2.5	/experiments/knapen_aot/videos/S_yt-iHmshS63rBc_329.mp4	0.0	235.39381289482117	
27	70.94100689888	movie	1		301.0	25.0	2.5	/experiments/knapen_aot/videos/S_yt-iHmshS63rBc_329.mp4	0.0	235.40199398994446	2.508665084838867
27	73.44967198371887	fix_post	2		12.0	25.0	2.5	/experiments/knapen_aot/videos/S_yt-iHmshS63rBc_329.mp4	0.0	237.91065907478333	0.0997169017791748
28	73.54938888549805	fix_pre	0		21.0	26.0	2.5	/experiments/knapen_aot/videos/S_yt-bOgChEHiroI_20.mp4	0.0	238.0103759765625	0.17544794082641602
28	73.71626496315002	response	0	2		26.0	2.5	/experiments/knapen_aot/videos/S_yt-bOgChEHiroI_20.mp4	0.0	238.17725205421448	
28	73.72483682632446	movie	1		301.0	26.0	2.5	/experiments/knapen_aot/videos/S_yt-bOgChEHiroI_20.mp4	0.0	238.18582391738892	2.507904052734375
28	76.23274087905884	fix_post	2		12.0	26.0	2.5	/experiments/knapen_aot/videos/S_yt-bOgChEHiroI_20.mp4	0.0	240.6937279701233	0.09998011589050293
29	76.33272099494934	fix_pre	0		27.0	27.0	2.5	/experiments/knapen_aot/videos/R_S_comp_N008_C003_PS_v01_SDR_PS_20180925_SDR_2K_AVC.mp4	0.0	240.7937080860138	0.22519779205322266
29	76.54948091506958	response	0	2		27.0	2.5	/experiments/knapen_aot/videos/R_S_comp_N008_C003_PS_v01_SDR_PS_20180925_SDR_2K_AVC.mp4	0.0	241.01046800613403	
29	76.55791878700256	movie	1		165.0	27.0	2.5	/experiments/knapen_aot/videos/R_S_comp_N008_C003_PS_v01_SDR_PS_20180925_SDR_2K_AVC.mp4	0.0	241.01890587806702	2.5081100463867188
29	79.06602883338928	fix_post	2		12.0	27.0	2.5	/experiments/knapen_aot/videos/R_S_comp_N008_C003_PS_v01_SDR_PS_20180925_SDR_2K_AVC.mp4	0.0	243.52701592445374	0.10001611709594727
29	79.14115595817566	response	2	2		27.0	2.5	/experiments/knapen_aot/videos/R_S_comp_N008_C003_PS_v01_SDR_PS_20180925_SDR_2K_AVC.mp4	0.0	243.6021430492401	
30	79.16604495048523	fix_pre	0		45.0	28.0	2.5	blank	1.0	243.62703204154968	0.37495994567871094
30	79.53279995918274	response	0	2		28.0	2.5	blank	1.0	243.9937870502472	
30	79.54100489616394	movie	1		301.0	28.0	2.5	blank	1.0	244.0019919872284	2.5083730220794678
30	82.04937791824341	fix_post	2		12.0	28.0	2.5	blank	1.0	246.51036500930786	0.09996700286865234
31	82.14934492111206	fix_pre	0		6.0	29.0	2.5	/experiments/knapen_aot/videos/S_yt-2SVpSaBAxsw_78.mp4	0.0	246.6103320121765	0.04994988441467285
31	82.19110298156738	response	0	2		29.0	2.5	/experiments/knapen_aot/videos/S_yt-2SVpSaBAxsw_78.mp4	0.0	246.65209007263184	
31	82.19929480552673	movie	1		301.0	29.0	2.5	/experiments/knapen_aot/videos/S_yt-2SVpSaBAxsw_78.mp4	0.0	246.6602818965912	2.5083839893341064
31	84.70767879486084	fix_post	2		12.0	29.0	2.5	/experiments/knapen_aot/videos/S_yt-2SVpSaBAxsw_78.mp4	0.0	249.1686658859253	0.10049319267272949
32	84.80817198753357	fix_pre	0		33.0	30.0	2.5	/experiments/knapen_aot/videos/S_yt-Dlk44AGz-xM_37.mp4	0.0	249.26915907859802	0.2745199203491211
32	85.07445096969604	response	0	2		30.0	2.5	/experiments/knapen_aot/videos/S_yt-Dlk44AGz-xM_37.mp4	0.0	249.5354380607605	
32	85.08269190788269	movie	1		301.0	30.0	2.5	/experiments/knapen_aot/videos/S_yt-Dlk44AGz-xM_37.mp4	0.0	249.54367899894714	2.5082380771636963
32	87.59092998504639	fix_post	2		12.0	30.0	2.5	/experiments/knapen_aot/videos/S_yt-Dlk44AGz-xM_37.mp4	0.0	252.05191707611084	0.10007691383361816
32	87.67441892623901	response	2	2		30.0	2.5	/experiments/knapen_aot/videos/S_yt-Dlk44AGz-xM_37.mp4	0.0	252.13540601730347	
33	87.69100689888	fix_pre	0		43.0	31.0	2.5	/experiments/knapen_aot/videos/S__6qAy77ODUI_175.mp4	0.0	252.15199398994446	0.35820603370666504
33	88.04107785224915	response	0	2		31.0	2.5	/experiments/knapen_aot/videos/S__6qAy77ODUI_175.mp4	0.0	252.5020649433136	
33	88.04921293258667	movie	1		301.0	31.0	2.5	/experiments/knapen_aot/videos/S__6qAy77ODUI_175.mp4	0.0	252.51020002365112	2.508415937423706
33	90.55762887001038	fix_post	2		12.0	31.0	2.5	/experiments/knapen_aot/videos/S__6qAy77ODUI_175.mp4	0.0	255.01861596107483	0.10007810592651367
34	90.65770697593689	fix_pre	0		20.0	32.0	2.5	/experiments/knapen_aot/videos/R_S_comp_GL_G002_C002_PSNK_v03_SDR_PS_20180925_SDR_2K_AVC.mp4	0.0	255.11869406700134	0.166611909866333
34	90.8160719871521	response	0	2		32.0	2.5	/experiments/knapen_aot/videos/R_S_comp_GL_G002_C002_PSNK_v03_SDR_PS_20180925_SDR_2K_AVC.mp4	0.0	255.27705907821655	
34	90.82431888580322	movie	1		169.0	32.0	2.5	/experiments/knapen_aot/videos/R_S_comp_GL_G002_C002_PSNK_v03_SDR_PS_20180925_SDR_2K_AVC.mp4	0.0	255.28530597686768	2.5085439682006836
34	93.3328628540039	fix_post	2		12.0	32.0	2.5	/experiments/knapen_aot/videos/R_S_comp_GL_G002_C002_PSNK_v03_SDR_PS_20180925_SDR_2K_AVC.mp4	0.0	257.79384994506836	0.10003900527954102
34	93.39937090873718	response	2	2		32.0	2.5	/experiments/knapen_aot/videos/R_S_comp_GL_G002_C002_PSNK_v03_SDR_PS_20180925_SDR_2K_AVC.mp4	0.0	257.86035799980164	
35	93.43290185928345	fix_pre	0		43.0	33.0	2.5	/experiments/knapen_aot/videos/S_yt-hdZEAsVBEEM_19.mp4	0.0	257.8938889503479	0.35802197456359863
35	93.77511286735535	response	0	2		33.0	2.5	/experiments/knapen_aot/videos/S_yt-hdZEAsVBEEM_19.mp4	0.0	258.2360999584198	
35	93.79092383384705	movie	1		301.0	33.0	2.5	/experiments/knapen_aot/videos/S_yt-hdZEAsVBEEM_19.mp4	0.0	258.2519109249115	2.5083730220794678
35	96.29929685592651	fix_post	2		12.0	33.0	2.5	/experiments/knapen_aot/videos/S_yt-hdZEAsVBEEM_19.mp4	0.0	260.76028394699097	0.10007214546203613
36	96.39936900138855	fix_pre	0		2.0	34.0	2.5	/experiments/knapen_aot/videos/R_S_yt-x6tYi0lRGqU_114.mp4	0.0	260.860356092453	0.016588926315307617
36	96.40773797035217	response	0	2		34.0	2.5	/experiments/knapen_aot/videos/R_S_yt-x6tYi0lRGqU_114.mp4	0.0	260.8687250614166	
36	96.41595792770386	movie	1		301.0	34.0	2.5	/experiments/knapen_aot/videos/R_S_yt-x6tYi0lRGqU_114.mp4	0.0	260.8769450187683	2.5084030628204346
36	98.92436099052429	fix_post	2		12.0	34.0	2.5	/experiments/knapen_aot/videos/R_S_yt-x6tYi0lRGqU_114.mp4	0.0	263.38534808158875	0.0998539924621582
37	99.02421498298645	fix_pre	0		7.0	35.0	2.5	blank	1.0	263.4852020740509	0.05842089653015137
37	99.07441282272339	response	0	2		35.0	2.5	blank	1.0	263.53539991378784	
37	99.0826358795166	movie	1		301.0	35.0	2.5	blank	1.0	263.54362297058105	2.5082929134368896
37	101.59092879295349	fix_post	2		12.0	35.0	2.5	blank	1.0	266.05191588401794	0.10003018379211426
38	101.6909589767456	fix_pre	0		18.0	36.0	2.5	/experiments/knapen_aot/videos/R_S_ILSVRC2015_train_00638001.mp4	0.0	266.15194606781006	0.1499629020690918
38	101.8326268196106	response	0	2		36.0	2.5	/experiments/knapen_aot/videos/R_S_ILSVRC2015_train_00638001.mp4	0.0	266.29361391067505	
38	101.8409218788147	movie	1		301.0	36.0	2.5	/experiments/knapen_aot/videos/R_S_ILSVRC2015_train_00638001.mp4	0.0	266.30190896987915	2.508316993713379
38	104.34923887252808	fix_post	2		12.0	36.0	2.5	/experiments/knapen_aot/videos/R_S_ILSVRC2015_train_00638001.mp4	0.0	268.81022596359253	0.10003113746643066
39	104.4492700099945	fix_pre	0		8.0	37.0	2.5	/experiments/knapen_aot/videos/S_yt-J1dw4AznwmQ_7.mp4	0.0	268.91025710105896	0.06683683395385742
39	104.50771188735962	response	0	2		37.0	2.5	/experiments/knapen_aot/videos/S_yt-J1dw4AznwmQ_7.mp4	0.0	268.9686989784241	
39	104.51610684394836	movie	1		301.0	37.0	2.5	/experiments/knapen_aot/videos/S_yt-J1dw4AznwmQ_7.mp4	0.0	268.9770939350128	2.5082550048828125
39	107.02436184883118	fix_post	2		12.0	37.0	2.5	/experiments/knapen_aot/videos/S_yt-J1dw4AznwmQ_7.mp4	0.0	271.48534893989563	0.09982013702392578
40	107.1241819858551	fix_pre	0		16.0	38.0	2.5	/experiments/knapen_aot/videos/S_yt-IlW1U39Dga4_5.mp4	0.0	271.58516907691956	0.13338494300842285
40	107.24202299118042	response	0	2		38.0	2.5	/experiments/knapen_aot/videos/S_yt-IlW1U39Dga4_5.mp4	0.0	271.7030100822449	
40	107.25756692886353	movie	1		301.0	38.0	2.5	/experiments/knapen_aot/videos/S_yt-IlW1U39Dga4_5.mp4	0.0	271.718554019928	2.5085220336914062
40	109.76608896255493	fix_post	2		12.0	38.0	2.5	/experiments/knapen_aot/videos/S_yt-IlW1U39Dga4_5.mp4	0.0	274.2270760536194	0.09981584548950195
41	109.86590480804443	fix_pre	0		1.0	39.0	2.5	/experiments/knapen_aot/videos/S_ILSVRC2015_train_00654000.mp4	0.0	274.3268918991089	0.008303165435791016
41	109.86769580841064	response	0	2		39.0	2.5	/experiments/knapen_aot/videos/S_ILSVRC2015_train_00654000.mp4	0.0	274.3286828994751	
41	109.87420797348022	movie	1		301.0	39.0	2.5	/experiments/knapen_aot/videos/S_ILSVRC2015_train_00654000.mp4	0.0	274.3351950645447	2.5083799362182617
41	112.38258790969849	fix_post	2		12.0	39.0	2.5	/experiments/knapen_aot/videos/S_ILSVRC2015_train_00654000.mp4	0.0	276.84357500076294	0.09997701644897461
42	112.48256492614746	fix_pre	0		8.0	40.0	2.5	/experiments/knapen_aot/videos/R_S_MEX_A006_C008_SDR_20190923_SDR_2K_AVC.mp4	0.0	276.9435520172119	0.06658387184143066
42	112.54103183746338	response	0	2		40.0	2.5	/experiments/knapen_aot/videos/R_S_MEX_A006_C008_SDR_20190923_SDR_2K_AVC.mp4	0.0	277.00201892852783	
42	112.54914879798889	movie	1		168.0	40.0	2.5	/experiments/knapen_aot/videos/R_S_MEX_A006_C008_SDR_20190923_SDR_2K_AVC.mp4	0.0	277.01013588905334	2.508540153503418
42	115.05768895149231	fix_post	2		12.0	40.0	2.5	/experiments/knapen_aot/videos/R_S_MEX_A006_C008_SDR_20190923_SDR_2K_AVC.mp4	0.0	279.51867604255676	0.09985589981079102
43	115.1575448513031	fix_pre	0		16.0	41.0	2.5	/experiments/knapen_aot/videos/S_yt-osdlC1buTaM_4.mp4	0.0	279.61853194236755	0.13331103324890137
43	115.27520680427551	response	0	2		41.0	2.5	/experiments/knapen_aot/videos/S_yt-osdlC1buTaM_4.mp4	0.0	279.73619389533997	
43	115.290855884552	movie	1		301.0	41.0	2.5	/experiments/knapen_aot/videos/S_yt-osdlC1buTaM_4.mp4	0.0	279.75184297561646	2.508328914642334
43	117.79918479919434	fix_post	2		12.0	41.0	2.5	/experiments/knapen_aot/videos/S_yt-osdlC1buTaM_4.mp4	0.0	282.2601718902588	0.09997105598449707
44	117.89915585517883	fix_pre	0		17.0	42.0	2.5	blank	1.0	282.3601429462433	0.14166498184204102
44	118.03271484375	response	0	2		42.0	2.5	blank	1.0	282.49370193481445	
44	118.04082083702087	movie	1		301.0	42.0	2.5	blank	1.0	282.5018079280853	2.5083611011505127
44	120.54918193817139	fix_post	2		12.0	42.0	2.5	blank	1.0	285.01016902923584	0.10001802444458008
45	120.64919996261597	fix_pre	0		17.0	43.0	2.5	/experiments/knapen_aot/videos/S_yt-Dlk44AGz-xM_37.mp4	0.0	285.1101870536804	0.14164495468139648
45	120.78264284133911	response	0	2		43.0	2.5	/experiments/knapen_aot/videos/S_yt-Dlk44AGz-xM_37.mp4	0.0	285.24362993240356	
45	120.79084491729736	movie	1		301.0	43.0	2.5	/experiments/knapen_aot/videos/S_yt-Dlk44AGz-xM_37.mp4	0.0	285.2518320083618	2.5084450244903564
45	123.29928994178772	fix_post	2		12.0	43.0	2.5	/experiments/knapen_aot/videos/S_yt-Dlk44AGz-xM_37.mp4	0.0	287.7602770328522	0.09993386268615723
46	123.39922380447388	fix_pre	0		5.0	44.0	2.5	/experiments/knapen_aot/videos/R_S_yt-eVAlSjH8E8k_127.mp4	0.0	287.86021089553833	0.04159998893737793
46	123.43269801139832	response	0	2		44.0	2.5	/experiments/knapen_aot/videos/R_S_yt-eVAlSjH8E8k_127.mp4	0.0	287.89368510246277	
46	123.44082379341125	movie	1		301.0	44.0	2.5	/experiments/knapen_aot/videos/R_S_yt-eVAlSjH8E8k_127.mp4	0.0	287.9018108844757	2.508338212966919
46	125.94916200637817	fix_post	2		12.0	44.0	2.5	/experiments/knapen_aot/videos/R_S_yt-eVAlSjH8E8k_127.mp4	0.0	290.4101490974426	0.10004591941833496
47	126.04920792579651	fix_pre	0		9.0	45.0	2.5	/experiments/knapen_aot/videos/S_video_inspire_sanfrancisco_castro_005.1080-h264.mp4	0.0	290.51019501686096	0.07494187355041504
47	126.11592984199524	response	0	2		45.0	2.5	/experiments/knapen_aot/videos/S_video_inspire_sanfrancisco_castro_005.1080-h264.mp4	0.0	290.5769169330597	
47	126.12414979934692	movie	1		166.0	45.0	2.5	/experiments/knapen_aot/videos/S_video_inspire_sanfrancisco_castro_005.1080-h264.mp4	0.0	290.5851368904114	2.5083529949188232
47	128.63250279426575	fix_post	2		12.0	45.0	2.5	/experiments/knapen_aot/videos/S_video_inspire_sanfrancisco_castro_005.1080-h264.mp4	0.0	293.0934898853302	0.10016798973083496
48	128.73267078399658	fix_pre	0		5.0	46.0	2.5	/experiments/knapen_aot/videos/R_S_yt-BlWfK4MkjWA_469.mp4	0.0	293.19365787506104	0.041480064392089844
48	128.7659969329834	response	0	2		46.0	2.5	/experiments/knapen_aot/videos/R_S_yt-BlWfK4MkjWA_469.mp4	0.0	293.22698402404785	
48	128.77415084838867	movie	1		301.0	46.0	2.5	/experiments/knapen_aot/videos/R_S_yt-BlWfK4MkjWA_469.mp4	0.0	293.2351379394531	2.508312940597534
48	131.2824637889862	fix_post	2		12.0	46.0	2.5	/experiments/knapen_aot/videos/R_S_yt-BlWfK4MkjWA_469.mp4	0.0	295.74345088005066	0.10014700889587402
49	131.38261079788208	fix_pre	0		18.0	47.0	2.5	/experiments/knapen_aot/videos/S_yt--xKSTYy9mcA_54.mp4	0.0	295.84359788894653	0.14979910850524902
49	131.51663994789124	response	0	2		47.0	2.5	/experiments/knapen_aot/videos/S_yt--xKSTYy9mcA_54.mp4	0.0	295.9776270389557	
49	131.53240990638733	movie	1		301.0	47.0	2.5	/experiments/knapen_aot/videos/S_yt--xKSTYy9mcA_54.mp4	0.0	295.9933969974518	2.5083699226379395
49	134.04077982902527	fix_post	2		12.0	47.0	2.5	/experiments/knapen_aot/videos/S_yt--xKSTYy9mcA_54.mp4	0.0	298.5017669200897	0.10009598731994629
50	134.14087581634521	fix_pre	0		27.0	48.0	2.5	blank	1.0	298.60186290740967	0.2248821258544922
50	134.3575839996338	response	0	2		48.0	2.5	blank	1.0	298.81857109069824	
50	134.3657579421997	movie	1		301.0	48.0	2.5	blank	1.0	298.82674503326416	2.508404016494751
50	136.87416195869446	fix_post	2		12.0	48.0	2.5	blank	1.0	301.3351490497589	0.1000208854675293
51	136.974182844162	fix_pre	0		20.0	49.0	2.5	/experiments/knapen_aot/videos/R_S_wc-PqINyFk_ku4u_18.mp4	0.0	301.43516993522644	0.16656899452209473
51	137.13256788253784	response	0	2		49.0	2.5	/experiments/knapen_aot/videos/R_S_wc-PqINyFk_ku4u_18.mp4	0.0	301.5935549736023	
51	137.14075183868408	movie	1		163.0	49.0	2.5	/experiments/knapen_aot/videos/R_S_wc-PqINyFk_ku4u_18.mp4	0.0	301.60173892974854	2.508449077606201
51	139.64920091629028	fix_post	2		12.0	49.0	2.5	/experiments/knapen_aot/videos/R_S_wc-PqINyFk_ku4u_18.mp4	0.0	304.11018800735474	0.09993100166320801
52	139.7491319179535	fix_pre	0		6.0	50.0	2.5	/experiments/knapen_aot/videos/S_yt-cjndulbUtRc_51.mp4	0.0	304.21011900901794	0.049900054931640625
52	139.79091787338257	response	0	2		50.0	2.5	/experiments/knapen_aot/videos/S_yt-cjndulbUtRc_51.mp4	0.0	304.251904964447	
52	139.79903197288513	movie	1		301.0	50.0	2.5	/experiments/knapen_aot/videos/S_yt-cjndulbUtRc_51.mp4	0.0	304.2600190639496	2.5086350440979004
52	142.30766701698303	fix_post	2		12.0	50.0	2.5	/experiments/knapen_aot/videos/S_yt-cjndulbUtRc_51.mp4	0.0	306.7686541080475	0.09974789619445801
53	142.4074149131775	fix_pre	0		21.0	51.0	2.5	/experiments/knapen_aot/videos/S_ILSVRC2015_train_00044004.mp4	0.0	306.86840200424194	0.17496109008789062
53	142.57416486740112	response	0	2		51.0	2.5	/experiments/knapen_aot/videos/S_ILSVRC2015_train_00044004.mp4	0.0	307.0351519584656	
53	142.58237600326538	movie	1		301.0	51.0	2.5	/experiments/knapen_aot/videos/S_ILSVRC2015_train_00044004.mp4	0.0	307.04336309432983	2.508368968963623
53	145.090744972229	fix_post	2		12.0	51.0	2.5	/experiments/knapen_aot/videos/S_ILSVRC2015_train_00044004.mp4	0.0	309.55173206329346	0.10000395774841309
54	145.19074892997742	fix_pre	0		5.0	52.0	2.5	/experiments/knapen_aot/videos/S_pexels-kampus-production-6022792.mp4	0.0	309.65173602104187	0.04167294502258301
54	145.22421288490295	response	0	2		52.0	2.5	/experiments/knapen_aot/videos/S_pexels-kampus-production-6022792.mp4	0.0	309.6851999759674	
54	145.232421875	movie	1		164.0	52.0	2.5	/experiments/knapen_aot/videos/S_pexels-kampus-production-6022792.mp4	0.0	309.69340896606445	2.5083041191101074
54	147.7407259941101	fix_post	2		12.0	52.0	2.5	/experiments/knapen_aot/videos/S_pexels-kampus-production-6022792.mp4	0.0	312.20171308517456	0.10001087188720703
55	147.84073686599731	fix_pre	0		2.0	53.0	2.5	/experiments/knapen_aot/videos/S_yt-PyO8-WsbaLU_43.mp4	0.0	312.30172395706177	0.016703128814697266
55	147.84920692443848	response	0	2		53.0	2.5	/experiments/knapen_aot/videos/S_yt-PyO8-WsbaLU_43.mp4	0.0	312.31019401550293	
55	147.857439994812	movie	1		301.0	53.0	2.5	/experiments/knapen_aot/videos/S_yt-PyO8-WsbaLU_43.mp4	0.0	312.31842708587646	2.5082788467407227
55	150.36571884155273	fix_post	2		12.0	53.0	2.5	/experiments/knapen_aot/videos/S_yt-PyO8-WsbaLU_43.mp4	0.0	314.8267059326172	0.09996199607849121
56	150.46568083763123	fix_pre	0		9.0	54.0	2.5	/experiments/knapen_aot/videos/S_comp_A105_C002_v06_SDR_FINAL_25062018_SDR_2K_AVC.mp4	0.0	314.9266679286957	0.0749969482421875
56	150.53256487846375	response	0	2		54.0	2.5	/experiments/knapen_aot/videos/S_comp_A105_C002_v06_SDR_FINAL_25062018_SDR_2K_AVC.mp4	0.0	314.9935519695282	
56	150.5406777858734	movie	1		168.0	54.0	2.5	/experiments/knapen_aot/videos/S_comp_A105_C002_v06_SDR_FINAL_25062018_SDR_2K_AVC.mp4	0.0	315.00166487693787	2.5083580017089844
56	153.0490357875824	fix_post	2		12.0	54.0	2.5	/experiments/knapen_aot/videos/S_comp_A105_C002_v06_SDR_FINAL_25062018_SDR_2K_AVC.mp4	0.0	317.51002287864685	0.10001111030578613
57	153.14904689788818	fix_pre	0		7.0	55.0	2.5	/experiments/knapen_aot/videos/S_yt-GWO7FHN1Jb4_142.mp4	0.0	317.61003398895264	0.05831789970397949
57	153.1991229057312	response	0	2		55.0	2.5	/experiments/knapen_aot/videos/S_yt-GWO7FHN1Jb4_142.mp4	0.0	317.66010999679565	
57	153.20736479759216	movie	1		301.0	55.0	2.5	/experiments/knapen_aot/videos/S_yt-GWO7FHN1Jb4_142.mp4	0.0	317.6683518886566	2.50838303565979
57	155.71574783325195	fix_post	2		12.0	55.0	2.5	/experiments/knapen_aot/videos/S_yt-GWO7FHN1Jb4_142.mp4	0.0	320.1767349243164	0.09998798370361328
58	155.81573581695557	fix_pre	0		1.0	56.0	2.5	blank	1.0	320.27672290802	0.00829005241394043
58	155.817706823349	response	0	2		56.0	2.5	blank	1.0	320.27869391441345	
58	155.8240258693695	movie	1		301.0	56.0	2.5	blank	1.0	320.28501296043396	2.508384943008423
58	158.33241081237793	fix_post	2		12.0	56.0	2.5	blank	1.0	322.7933979034424	0.09996819496154785
59	158.43237900733948	fix_pre	0		21.0	57.0	2.5	/experiments/knapen_aot/videos/R_S_ILSVRC2015_train_00569003.mp4	0.0	322.89336609840393	0.17491483688354492
59	158.59918093681335	response	0	2		57.0	2.5	/experiments/knapen_aot/videos/R_S_ILSVRC2015_train_00569003.mp4	0.0	323.0601680278778	
59	158.60729384422302	movie	1		301.0	57.0	2.5	/experiments/knapen_aot/videos/R_S_ILSVRC2015_train_00569003.mp4	0.0	323.0682809352875	2.5083529949188232
59	161.11564683914185	fix_post	2		12.0	57.0	2.5	/experiments/knapen_aot/videos/R_S_ILSVRC2015_train_00569003.mp4	0.0	325.5766339302063	0.10011601448059082
60	161.21576285362244	fix_pre	0		5.0	58.0	2.5	/experiments/knapen_aot/videos/R_S_yt-BG-G7m5wLZ4_94.mp4	0.0	325.6767499446869	0.042936086654663086
60	161.24915385246277	response	0	4		58.0	2.5	/experiments/knapen_aot/videos/R_S_yt-BG-G7m5wLZ4_94.mp4	0.0	325.7101409435272	
60	161.2586989402771	movie	1		301.0	58.0	2.5	/experiments/knapen_aot/videos/R_S_yt-BG-G7m5wLZ4_94.mp4	0.0	325.71968603134155	2.507025957107544
60	163.76572489738464	fix_post	2		12.0	58.0	2.5	/experiments/knapen_aot/videos/R_S_yt-BG-G7m5wLZ4_94.mp4	0.0	328.2267119884491	0.09996509552001953
60	163.82412886619568	response	2	2		58.0	2.5	/experiments/knapen_aot/videos/R_S_yt-BG-G7m5wLZ4_94.mp4	0.0	328.28511595726013	
61	163.86568999290466	fix_pre	0		26.0	59.0	2.5	/experiments/knapen_aot/videos/R_S_wc-jujp1kJRHrkJ_54.mp4	0.0	328.3266770839691	0.21653985977172852
61	164.07406997680664	response	0	2		59.0	2.5	/experiments/knapen_aot/videos/R_S_wc-jujp1kJRHrkJ_54.mp4	0.0	328.5350570678711	
61	164.0822298526764	movie	1		301.0	59.0	2.5	/experiments/knapen_aot/videos/R_S_wc-jujp1kJRHrkJ_54.mp4	0.0	328.54321694374084	2.508419990539551
61	166.59064984321594	fix_post	2		12.0	59.0	2.5	/experiments/knapen_aot/videos/R_S_wc-jujp1kJRHrkJ_54.mp4	0.0	331.0516369342804	0.10003900527954102
62	166.69068884849548	fix_pre	0		5.0	60.0	2.5	/experiments/knapen_aot/videos/R_S_pexels-c-technical-6753390.mp4	0.0	331.15167593955994	0.0416259765625
62	166.72409892082214	response	0	2		60.0	2.5	/experiments/knapen_aot/videos/R_S_pexels-c-technical-6753390.mp4	0.0	331.1850860118866	
62	166.73231482505798	movie	1		201.0	60.0	2.5	/experiments/knapen_aot/videos/R_S_pexels-c-technical-6753390.mp4	0.0	331.19330191612244	2.5083630084991455
62	166.92484784126282	response	1	2		60.0	2.5	/experiments/knapen_aot/videos/R_S_pexels-c-technical-6753390.mp4	0.0	331.38583493232727	
62	169.24067783355713	fix_post	2		12.0	60.0	2.5	/experiments/knapen_aot/videos/R_S_pexels-c-technical-6753390.mp4	0.0	333.7016649246216	0.09995508193969727
62	169.29988980293274	response	2	2		60.0	2.5	/experiments/knapen_aot/videos/R_S_pexels-c-technical-6753390.mp4	0.0	333.7608768939972	
63	169.34063291549683	fix_pre	0		27.0	61.0	2.5	/experiments/knapen_aot/videos/S_ILSVRC2015_train_00638001.mp4	0.0	333.8016200065613	0.22497987747192383
63	169.55743789672852	response	0	2		61.0	2.5	/experiments/knapen_aot/videos/S_ILSVRC2015_train_00638001.mp4	0.0	334.01842498779297	
63	169.56561279296875	movie	1		301.0	61.0	2.5	/experiments/knapen_aot/videos/S_ILSVRC2015_train_00638001.mp4	0.0	334.0265998840332	2.5085132122039795
63	172.07412600517273	fix_post	2		12.0	61.0	2.5	/experiments/knapen_aot/videos/S_ILSVRC2015_train_00638001.mp4	0.0	336.5351130962372	0.09988784790039062
64	172.17401385307312	fix_pre	0		10.0	62.0	2.5	/experiments/knapen_aot/videos/R_S_pexels-koolshooters-7327412.mp4	0.0	336.6350009441376	0.08447599411010742
64	172.24908900260925	response	0	4		62.0	2.5	/experiments/knapen_aot/videos/R_S_pexels-koolshooters-7327412.mp4	0.0	336.7100760936737	
64	172.25848984718323	movie	1		161.0	62.0	2.5	/experiments/knapen_aot/videos/R_S_pexels-koolshooters-7327412.mp4	0.0	336.7194769382477	2.5072309970855713
64	172.45726990699768	response	1	4		62.0	2.5	/experiments/knapen_aot/videos/R_S_pexels-koolshooters-7327412.mp4	0.0	336.91825699806213	
64	174.7657208442688	fix_post	2		12.0	62.0	2.5	/experiments/knapen_aot/videos/R_S_pexels-koolshooters-7327412.mp4	0.0	339.22670793533325	0.09987497329711914
65	174.86559581756592	fix_pre	0		4.0	63.0	2.5	blank	1.0	339.32658290863037	0.033387184143066406
65	174.89076685905457	response	0	2		63.0	2.5	blank	1.0	339.351753950119	
65	174.89898300170898	movie	1		301.0	63.0	2.5	blank	1.0	339.35997009277344	2.5083439350128174
65	174.9005298614502	response	1	4		63.0	2.5	blank	1.0	339.36151695251465	
65	175.15738487243652	response	1	4		63.0	2.5	blank	1.0	339.618371963501	
65	177.4073269367218	fix_post	2		12.0	63.0	2.5	blank	1.0	341.86831402778625	0.10003805160522461
66	177.50736498832703	fix_pre	0		1.0	64.0	2.5	/experiments/knapen_aot/videos/S_yt-GfPep7IhZIU_47.mp4	0.0	341.9683520793915	0.008221864700317383
66	177.50905179977417	response	0	2		64.0	2.5	/experiments/knapen_aot/videos/S_yt-GfPep7IhZIU_47.mp4	0.0	341.9700388908386	
66	177.51558685302734	movie	1		301.0	64.0	2.5	/experiments/knapen_aot/videos/S_yt-GfPep7IhZIU_47.mp4	0.0	341.9765739440918	2.5082919597625732
66	180.02387881278992	fix_post	2		12.0	64.0	2.5	/experiments/knapen_aot/videos/S_yt-GfPep7IhZIU_47.mp4	0.0	344.48486590385437	0.10000801086425781
67	180.12388682365417	fix_pre	0		28.0	65.0	2.5	/experiments/knapen_aot/videos/S_pexels-cottonbro-6789228.mp4	0.0	344.5848739147186	0.23333215713500977
67	180.34921598434448	response	0	2		65.0	2.5	/experiments/knapen_aot/videos/S_pexels-cottonbro-6789228.mp4	0.0	344.81020307540894	
67	180.35721898078918	movie	1		195.0	65.0	2.5	/experiments/knapen_aot/videos/S_pexels-cottonbro-6789228.mp4	0.0	344.81820607185364	2.508366823196411
67	182.8655858039856	fix_post	2		12.0	65.0	2.5	/experiments/knapen_aot/videos/S_pexels-cottonbro-6789228.mp4	0.0	347.32657289505005	0.10006117820739746
68	182.965646982193	fix_pre	0		3.0	66.0	2.5	/experiments/knapen_aot/videos/R_S_yt-R9Iabv0XgOQ_80.mp4	0.0	347.42663407325745	0.024994850158691406
68	182.98233890533447	response	0	2		66.0	2.5	/experiments/knapen_aot/videos/R_S_yt-R9Iabv0XgOQ_80.mp4	0.0	347.4433259963989	
68	182.99064183235168	movie	1		301.0	66.0	2.5	/experiments/knapen_aot/videos/R_S_yt-R9Iabv0XgOQ_80.mp4	0.0	347.45162892341614	2.5088210105895996
68	185.49946284294128	fix_post	2		12.0	66.0	2.5	/experiments/knapen_aot/videos/R_S_yt-R9Iabv0XgOQ_80.mp4	0.0	349.96044993400574	0.09947013854980469
69	185.5989329814911	fix_pre	0		6.0	67.0	2.5	/experiments/knapen_aot/videos/S_MEX_A006_C008_SDR_20190923_SDR_2K_AVC.mp4	0.0	350.05992007255554	0.049986839294433594
69	185.64073181152344	response	0	2		67.0	2.5	/experiments/knapen_aot/videos/S_MEX_A006_C008_SDR_20190923_SDR_2K_AVC.mp4	0.0	350.1017189025879	
69	185.64891982078552	movie	1		165.0	67.0	2.5	/experiments/knapen_aot/videos/S_MEX_A006_C008_SDR_20190923_SDR_2K_AVC.mp4	0.0	350.10990691185	2.508303165435791
69	188.1572229862213	fix_post	2		12.0	67.0	2.5	/experiments/knapen_aot/videos/S_MEX_A006_C008_SDR_20190923_SDR_2K_AVC.mp4	0.0	352.61821007728577	0.10001301765441895
70	188.25723600387573	fix_pre	0		1.0	68.0	2.5	/experiments/knapen_aot/videos/R_S_yt-3E02UEHdoZ4_752.mp4	0.0	352.7182230949402	0.008324861526489258
70	188.2590639591217	response	0	4		68.0	2.5	/experiments/knapen_aot/videos/R_S_yt-3E02UEHdoZ4_752.mp4	0.0	352.72005105018616	
70	188.26556086540222	movie	1		301.0	68.0	2.5	/experiments/knapen_aot/videos/R_S_yt-3E02UEHdoZ4_752.mp4	0.0	352.7265479564667	2.5083320140838623
70	190.75734281539917	response	1	4		68.0	2.5	/experiments/knapen_aot/videos/R_S_yt-3E02UEHdoZ4_752.mp4	0.0	355.2183299064636	
70	190.77389287948608	fix_post	2		12.0	68.0	2.5	/experiments/knapen_aot/videos/R_S_yt-3E02UEHdoZ4_752.mp4	0.0	355.23487997055054	0.09999990463256836
71	190.87389278411865	fix_pre	0		21.0	69.0	2.5	blank	1.0	355.3348798751831	0.17495107650756836
71	191.04058599472046	response	0	4		69.0	2.5	blank	1.0	355.5015730857849	
71	191.04884386062622	movie	1		301.0	69.0	2.5	blank	1.0	355.5098309516907	2.50839900970459
71	193.5572428703308	fix_post	2		12.0	69.0	2.5	blank	1.0	358.01822996139526	0.09997701644897461
72	193.65721988677979	fix_pre	0		18.0	70.0	2.5	/experiments/knapen_aot/videos/S_yt-s5YONFy3vb4_46.mp4	0.0	358.11820697784424	0.14992904663085938
72	193.79896187782288	response	0	4		70.0	2.5	/experiments/knapen_aot/videos/S_yt-s5YONFy3vb4_46.mp4	0.0	358.25994896888733	
72	193.80714893341064	movie	1		301.0	70.0	2.5	/experiments/knapen_aot/videos/S_yt-s5YONFy3vb4_46.mp4	0.0	358.2681360244751	2.508378028869629
72	196.31552696228027	fix_post	2		12.0	70.0	2.5	/experiments/knapen_aot/videos/S_yt-s5YONFy3vb4_46.mp4	0.0	360.7765140533447	0.10003185272216797
72	196.40733289718628	response	2	4		70.0	2.5	/experiments/knapen_aot/videos/S_yt-s5YONFy3vb4_46.mp4	0.0	360.86831998825073	
73	196.41555881500244	fix_pre	0		34.0	71.0	2.5	/experiments/knapen_aot/videos/S_yt-tEzCpMrjOHs_24.mp4	0.0	360.8765459060669	0.2832930088043213
73	196.69060397148132	response	0	4		71.0	2.5	/experiments/knapen_aot/videos/S_yt-tEzCpMrjOHs_24.mp4	0.0	361.1515910625458	
73	196.69885182380676	movie	1		301.0	71.0	2.5	/experiments/knapen_aot/videos/S_yt-tEzCpMrjOHs_24.mp4	0.0	361.1598389148712	2.50833797454834
73	199.2071897983551	fix_post	2		12.0	71.0	2.5	/experiments/knapen_aot/videos/S_yt-tEzCpMrjOHs_24.mp4	0.0	363.66817688941956	0.10003209114074707
74	199.30722188949585	fix_pre	0		6.0	72.0	2.5	/experiments/knapen_aot/videos/S_ILSVRC2015_train_00414000.mp4	0.0	363.7682089805603	0.049900054931640625
74	199.34922981262207	response	0	4		72.0	2.5	/experiments/knapen_aot/videos/S_ILSVRC2015_train_00414000.mp4	0.0	363.8102169036865	
74	199.3571219444275	movie	1		301.0	72.0	2.5	/experiments/knapen_aot/videos/S_ILSVRC2015_train_00414000.mp4	0.0	363.81810903549194	2.5084469318389893
74	201.86556887626648	fix_post	2		12.0	72.0	2.5	/experiments/knapen_aot/videos/S_ILSVRC2015_train_00414000.mp4	0.0	366.32655596733093	0.0999300479888916
75	201.96549892425537	fix_pre	0		11.0	73.0	2.5	/experiments/knapen_aot/videos/S_yt-WASlRH1zA8c_175.mp4	0.0	366.4264860153198	0.09169507026672363
75	202.04887580871582	response	0	4		73.0	2.5	/experiments/knapen_aot/videos/S_yt-WASlRH1zA8c_175.mp4	0.0	366.5098628997803	
75	202.0571939945221	movie	1		301.0	73.0	2.5	/experiments/knapen_aot/videos/S_yt-WASlRH1zA8c_175.mp4	0.0	366.51818108558655	2.5083107948303223
75	204.56550478935242	fix_post	2		12.0	73.0	2.5	/experiments/knapen_aot/videos/S_yt-WASlRH1zA8c_175.mp4	0.0	369.02649188041687	0.10002613067626953
76	204.6655309200287	fix_pre	0		5.0	74.0	2.5	/experiments/knapen_aot/videos/S_yt-GfPep7IhZIU_47.mp4	0.0	369.12651801109314	0.041580915451049805
76	204.69898891448975	response	0	4		74.0	2.5	/experiments/knapen_aot/videos/S_yt-GfPep7IhZIU_47.mp4	0.0	369.1599760055542	
76	204.70711183547974	movie	1		301.0	74.0	2.5	/experiments/knapen_aot/videos/S_yt-GfPep7IhZIU_47.mp4	0.0	369.1680989265442	2.5083580017089844
76	204.84169578552246	response	1	4		74.0	2.5	/experiments/knapen_aot/videos/S_yt-GfPep7IhZIU_47.mp4	0.0	369.3026828765869	
76	207.21546983718872	fix_post	2		12.0	74.0	2.5	/experiments/knapen_aot/videos/S_yt-GfPep7IhZIU_47.mp4	0.0	371.6764569282532	0.10007905960083008
77	207.31554889678955	fix_pre	0		8.0	75.0	2.5	/experiments/knapen_aot/videos/S_5Bc466bkeA0_35.mp4	0.0	371.776535987854	0.06766891479492188
77	207.37396097183228	response	0	4		75.0	2.5	/experiments/knapen_aot/videos/S_5Bc466bkeA0_35.mp4	0.0	371.83494806289673	
77	207.38321781158447	movie	1		301.0	75.0	2.5	/experiments/knapen_aot/videos/S_5Bc466bkeA0_35.mp4	0.0	371.8442049026489	2.507251024246216
77	209.6749918460846	response	1	4		75.0	2.5	/experiments/knapen_aot/videos/S_5Bc466bkeA0_35.mp4	0.0	374.13597893714905	
77	209.8821828365326	response	1	4		75.0	2.5	/experiments/knapen_aot/videos/S_5Bc466bkeA0_35.mp4	0.0	374.34316992759705	
77	209.8904688358307	fix_post	2		12.0	75.0	2.5	/experiments/knapen_aot/videos/S_5Bc466bkeA0_35.mp4	0.0	374.35145592689514	0.10021305084228516
78	209.99068188667297	fix_pre	0		38.0	76.0	2.5	blank	1.0	374.4516689777374	0.3164670467376709
78	210.29888486862183	response	0	4		76.0	2.5	blank	1.0	374.7598719596863	
78	210.30714893341064	movie	1		301.0	76.0	2.5	blank	1.0	374.7681360244751	2.5083179473876953
78	212.81546688079834	fix_post	2		12.0	76.0	2.5	blank	1.0	377.2764539718628	0.1001429557800293
79	212.91560983657837	fix_pre	0		18.0	77.0	2.5	/experiments/knapen_aot/videos/R_S_yt-FsylDeYfcxU_24.mp4	0.0	377.3765969276428	0.14979815483093262
79	213.0572919845581	response	0	4		77.0	2.5	/experiments/knapen_aot/videos/R_S_yt-FsylDeYfcxU_24.mp4	0.0	377.51827907562256	
79	213.0654079914093	movie	1		301.0	77.0	2.5	/experiments/knapen_aot/videos/R_S_yt-FsylDeYfcxU_24.mp4	0.0	377.52639508247375	2.50839900970459
79	215.5738070011139	fix_post	2		12.0	77.0	2.5	/experiments/knapen_aot/videos/R_S_yt-FsylDeYfcxU_24.mp4	0.0	380.03479409217834	0.10001993179321289
79	215.6322648525238	response	2	4		77.0	2.5	/experiments/knapen_aot/videos/R_S_yt-FsylDeYfcxU_24.mp4	0.0	380.09325194358826	
80	215.6738269329071	fix_pre	0		20.0	78.0	2.5	/experiments/knapen_aot/videos/S_b6-4.mp4	0.0	380.13481402397156	0.16762685775756836
80	215.832181930542	response	0	4		78.0	2.5	/experiments/knapen_aot/videos/S_b6-4.mp4	0.0	380.29316902160645	
80	215.84145379066467	movie	1		167.0	78.0	2.5	/experiments/knapen_aot/videos/S_b6-4.mp4	0.0	380.3024408817291	2.507359027862549
80	218.34881281852722	fix_post	2		12.0	78.0	2.5	/experiments/knapen_aot/videos/S_b6-4.mp4	0.0	382.8097999095917	0.10001206398010254
81	218.44882488250732	fix_pre	0		7.0	79.0	2.5	/experiments/knapen_aot/videos/R_S_yt-CR86bVrRwfo_13.mp4	0.0	382.9098119735718	0.05925607681274414
81	218.49893498420715	response	0	4		79.0	2.5	/experiments/knapen_aot/videos/R_S_yt-CR86bVrRwfo_13.mp4	0.0	382.9599220752716	
81	218.50808095932007	movie	1		301.0	79.0	2.5	/experiments/knapen_aot/videos/R_S_yt-CR86bVrRwfo_13.mp4	0.0	382.9690680503845	2.5073938369750977
81	220.84900379180908	response	1	4		79.0	2.5	/experiments/knapen_aot/videos/R_S_yt-CR86bVrRwfo_13.mp4	0.0	385.30999088287354	
81	221.01547479629517	fix_post	2		12.0	79.0	2.5	/experiments/knapen_aot/videos/R_S_yt-CR86bVrRwfo_13.mp4	0.0	385.4764618873596	0.09999704360961914
81	221.07389283180237	response	2	4		79.0	2.5	/experiments/knapen_aot/videos/R_S_yt-CR86bVrRwfo_13.mp4	0.0	385.5348799228668	
82	221.11547183990479	fix_pre	0		40.0	80.0	2.5	/experiments/knapen_aot/videos/S_yt-JtR6WZXT2kU_8.mp4	0.0	385.57645893096924	0.333280086517334
82	221.44053387641907	response	0	4		80.0	2.5	/experiments/knapen_aot/videos/S_yt-JtR6WZXT2kU_8.mp4	0.0	385.9015209674835	
82	221.44875192642212	movie	1		301.0	80.0	2.5	/experiments/knapen_aot/videos/S_yt-JtR6WZXT2kU_8.mp4	0.0	385.9097390174866	2.5083858966827393
82	223.95713782310486	fix_post	2		12.0	80.0	2.5	/experiments/knapen_aot/videos/S_yt-JtR6WZXT2kU_8.mp4	0.0	388.4181249141693	0.09994196891784668
83	224.0570797920227	fix_pre	0		2.0	81.0	2.5	/experiments/knapen_aot/videos/R_S_yt-KQq7vTlXUiQ_173.mp4	0.0	388.51806688308716	0.016662120819091797
83	224.06559681892395	response	0	4		81.0	2.5	/experiments/knapen_aot/videos/R_S_yt-KQq7vTlXUiQ_173.mp4	0.0	388.5265839099884	
83	224.0737419128418	movie	1		301.0	81.0	2.5	/experiments/knapen_aot/videos/R_S_yt-KQq7vTlXUiQ_173.mp4	0.0	388.53472900390625	2.508415937423706
83	226.5821578502655	fix_post	2		12.0	81.0	2.5	/experiments/knapen_aot/videos/R_S_yt-KQq7vTlXUiQ_173.mp4	0.0	391.04314494132996	0.09996199607849121
84	226.682119846344	fix_pre	0		3.0	82.0	2.5	blank	1.0	391.14310693740845	0.02496194839477539
84	226.6988308429718	response	0	4		82.0	2.5	blank	1.0	391.15981793403625	
84	226.70708179473877	movie	1		301.0	82.0	2.5	blank	1.0	391.1680688858032	2.508538007736206
84	229.21561980247498	fix_post	2		12.0	82.0	2.5	blank	1.0	393.67660689353943	0.09978508949279785
85	229.31540489196777	fix_pre	0		21.0	83.0	2.5	/experiments/knapen_aot/videos/S_yt-xCh0LI9VKeI_28.mp4	0.0	393.7763919830322	0.1749579906463623
85	229.48218393325806	response	0	4		83.0	2.5	/experiments/knapen_aot/videos/S_yt-xCh0LI9VKeI_28.mp4	0.0	393.9431710243225	
85	229.49036288261414	movie	1		301.0	83.0	2.5	/experiments/knapen_aot/videos/S_yt-xCh0LI9VKeI_28.mp4	0.0	393.9513499736786	2.508336067199707
85	231.99869894981384	fix_post	2		12.0	83.0	2.5	/experiments/knapen_aot/videos/S_yt-xCh0LI9VKeI_28.mp4	0.0	396.4596860408783	0.10002803802490234
87	232.09872698783875	stim	0		276.0					396.5597140789032	2.299970865249634
87	232.1071298122406	response	0	4						396.56811690330505	
87	234.3913049697876	response	0	space						398.85229206085205	
