trial_nr	onset	event_type	phase	response	nr_frames	movie_index	movie_duration	movie_file	blank	onset_abs	duration
0	0.15821290016174316	stim	0		19.0					172.01808285713196	0.15860295295715332
0	0.3083078861236572	response	0	space						172.16817784309387	
1	0.3168158531188965	stim	0		121.0					172.1766858100891	1.0081021785736084
1	1.3249180316925049	stim	1		120.0					173.18478798866272	0.9995779991149902
1	1.7664010524749756	response	1	space						173.6262710094452	
2	2.324496030807495	fix_pre	0		39.0	0.0	2.5	/experiments/knapen_aot/videos/R_S_ILSVRC2015_train_00450001.mp4	0.0	174.1843659877777	0.3252139091491699
2	2.6414260864257812	response	0	space		0.0	2.5	/experiments/knapen_aot/videos/R_S_ILSVRC2015_train_00450001.mp4	0.0	174.501296043396	
2	2.649709939956665	movie	1		297.0	0.0	2.5	/experiments/knapen_aot/videos/R_S_ILSVRC2015_train_00450001.mp4	0.0	174.50957989692688	2.5081229209899902
2	5.157832860946655	fix_post	2		12.0	0.0	2.5	/experiments/knapen_aot/videos/R_S_ILSVRC2015_train_00450001.mp4	0.0	177.01770281791687	0.1000220775604248
3	5.25785493850708	fix_pre	0		5.0	1.0	2.5	/experiments/knapen_aot/videos/S_yt-mMnlzv6cfH4_134.mp4	0.0	177.1177248954773	0.04469704627990723
3	5.288712024688721	response	0	2		1.0	2.5	/experiments/knapen_aot/videos/S_yt-mMnlzv6cfH4_134.mp4	0.0	177.14858198165894	
3	5.302551984786987	movie	1		300.0	1.0	2.5	/experiments/knapen_aot/videos/S_yt-mMnlzv6cfH4_134.mp4	0.0	177.1624219417572	2.5053019523620605
3	7.807853937149048	fix_post	2		12.0	1.0	2.5	/experiments/knapen_aot/videos/S_yt-mMnlzv6cfH4_134.mp4	0.0	179.66772389411926	0.09997105598449707
4	7.907824993133545	fix_pre	0		19.0	2.0	2.5	/experiments/knapen_aot/videos/S_ILSVRC2015_train_00479000.mp4	0.0	179.76769495010376	0.15853404998779297
4	8.05797791481018	response	0	2		2.0	2.5	/experiments/knapen_aot/videos/S_ILSVRC2015_train_00479000.mp4	0.0	179.9178478717804	
4	8.066359043121338	movie	1		301.0	2.0	2.5	/experiments/knapen_aot/videos/S_ILSVRC2015_train_00479000.mp4	0.0	179.92622900009155	2.508143901824951
4	10.574502944946289	fix_post	2		12.0	2.0	2.5	/experiments/knapen_aot/videos/S_ILSVRC2015_train_00479000.mp4	0.0	182.4343729019165	0.0999290943145752
5	10.674432039260864	fix_pre	0		12.0	3.0	2.5	/experiments/knapen_aot/videos/S_yt-_7HJhRPVmHw_255.mp4	0.0	182.53430199623108	0.10021400451660156
5	10.766191959381104	response	0	2		3.0	2.5	/experiments/knapen_aot/videos/S_yt-_7HJhRPVmHw_255.mp4	0.0	182.62606191635132	
5	10.774646043777466	movie	1		298.0	3.0	2.5	/experiments/knapen_aot/videos/S_yt-_7HJhRPVmHw_255.mp4	0.0	182.63451600074768	2.5082268714904785
5	13.282872915267944	fix_post	2		12.0	3.0	2.5	/experiments/knapen_aot/videos/S_yt-_7HJhRPVmHw_255.mp4	0.0	185.14274287223816	0.10004401206970215
6	13.382916927337646	fix_pre	0		24.0	4.0	2.5	/experiments/knapen_aot/videos/R_S_yt-ujdFTAUE8rc_34.mp4	0.0	185.24278688430786	0.1998910903930664
6	13.57456088066101	response	0	2		4.0	2.5	/experiments/knapen_aot/videos/R_S_yt-ujdFTAUE8rc_34.mp4	0.0	185.43443083763123	
6	13.582808017730713	movie	1		301.0	4.0	2.5	/experiments/knapen_aot/videos/R_S_yt-ujdFTAUE8rc_34.mp4	0.0	185.44267797470093	2.5083048343658447
6	16.091112852096558	fix_post	2		12.0	4.0	2.5	/experiments/knapen_aot/videos/R_S_yt-ujdFTAUE8rc_34.mp4	0.0	187.95098280906677	0.10017514228820801
7	16.191287994384766	fix_pre	0		20.0	5.0	2.5	blank	1.0	188.05115795135498	0.16664505004882812
7	16.34958505630493	response	0	2		5.0	2.5	blank	1.0	188.20945501327515	
7	16.357933044433594	movie	1		301.0	5.0	2.5	blank	1.0	188.2178030014038	2.508131980895996
7	18.86606502532959	fix_post	2		12.0	5.0	2.5	blank	1.0	190.7259349822998	0.10008597373962402
8	18.966150999069214	fix_pre	0		27.0	6.0	2.5	/experiments/knapen_aot/videos/R_S_FZ0hLmjCR0s_26.mp4	0.0	190.82602095603943	0.22507905960083008
8	19.182905912399292	response	0	2		6.0	2.5	/experiments/knapen_aot/videos/R_S_FZ0hLmjCR0s_26.mp4	0.0	191.0427758693695	
8	19.191230058670044	movie	1		299.0	6.0	2.5	/experiments/knapen_aot/videos/R_S_FZ0hLmjCR0s_26.mp4	0.0	191.05110001564026	2.5082459449768066
8	21.69947600364685	fix_post	2		12.0	6.0	2.5	/experiments/knapen_aot/videos/R_S_FZ0hLmjCR0s_26.mp4	0.0	193.55934596061707	0.09998607635498047
9	21.79946208000183	fix_pre	0		5.0	7.0	2.5	/experiments/knapen_aot/videos/S_ILSVRC2015_train_00715000.mp4	0.0	193.65933203697205	0.04165387153625488
9	21.832891941070557	response	0	2		7.0	2.5	/experiments/knapen_aot/videos/S_ILSVRC2015_train_00715000.mp4	0.0	193.69276189804077	
9	21.841115951538086	movie	1		301.0	7.0	2.5	/experiments/knapen_aot/videos/S_ILSVRC2015_train_00715000.mp4	0.0	193.7009859085083	2.5083320140838623
9	24.34944796562195	fix_post	2		12.0	7.0	2.5	/experiments/knapen_aot/videos/S_ILSVRC2015_train_00715000.mp4	0.0	196.20931792259216	0.09999203681945801
10	24.449440002441406	fix_pre	0		26.0	8.0	2.5	/experiments/knapen_aot/videos/R_S_yt-lfDIg8kaXhA_169.mp4	0.0	196.30930995941162	0.21661591529846191
10	24.657932996749878	response	0	2		8.0	2.5	/experiments/knapen_aot/videos/R_S_yt-lfDIg8kaXhA_169.mp4	0.0	196.5178029537201	
10	24.666055917739868	movie	1		301.0	8.0	2.5	/experiments/knapen_aot/videos/R_S_yt-lfDIg8kaXhA_169.mp4	0.0	196.52592587471008	2.5083789825439453
10	27.174434900283813	fix_post	2		12.0	8.0	2.5	/experiments/knapen_aot/videos/R_S_yt-lfDIg8kaXhA_169.mp4	0.0	199.03430485725403	0.10006999969482422
11	27.274504899978638	fix_pre	0		27.0	9.0	2.5	/experiments/knapen_aot/videos/S_comp_L012_c002_PS_v01_SDR_PS_20180925_SDR_2K_AVC.mp4	0.0	199.13437485694885	0.2249131202697754
11	27.4911630153656	response	0	2		9.0	2.5	/experiments/knapen_aot/videos/S_comp_L012_c002_PS_v01_SDR_PS_20180925_SDR_2K_AVC.mp4	0.0	199.35103297233582	
11	27.499418020248413	movie	1		166.0	9.0	2.5	/experiments/knapen_aot/videos/S_comp_L012_c002_PS_v01_SDR_PS_20180925_SDR_2K_AVC.mp4	0.0	199.35928797721863	2.5083048343658447
11	30.007722854614258	fix_post	2		12.0	9.0	2.5	/experiments/knapen_aot/videos/S_comp_L012_c002_PS_v01_SDR_PS_20180925_SDR_2K_AVC.mp4	0.0	201.86759281158447	0.10035419464111328
12	30.10807704925537	fix_pre	0		14.0	10.0	2.5	/experiments/knapen_aot/videos/R_S_yt-4-u4Fw_J_q8_45.mp4	0.0	201.9679470062256	0.11629986763000488
12	30.216192960739136	response	0	2		10.0	2.5	/experiments/knapen_aot/videos/R_S_yt-4-u4Fw_J_q8_45.mp4	0.0	202.07606291770935	
12	30.224376916885376	movie	1		301.0	10.0	2.5	/experiments/knapen_aot/videos/R_S_yt-4-u4Fw_J_q8_45.mp4	0.0	202.0842468738556	2.508415937423706
12	32.73279285430908	fix_post	2		12.0	10.0	2.5	/experiments/knapen_aot/videos/R_S_yt-4-u4Fw_J_q8_45.mp4	0.0	204.5926628112793	0.09995603561401367
13	32.832748889923096	fix_pre	0		11.0	11.0	2.5	/experiments/knapen_aot/videos/S_yt-5AI_SyK5sg8_112.mp4	0.0	204.6926188468933	0.09167218208312988
13	32.9086709022522	response	0	2		11.0	2.5	/experiments/knapen_aot/videos/S_yt-5AI_SyK5sg8_112.mp4	0.0	204.7685408592224	
13	32.924421072006226	movie	1		299.0	11.0	2.5	/experiments/knapen_aot/videos/S_yt-5AI_SyK5sg8_112.mp4	0.0	204.78429102897644	2.5082898139953613
13	35.43271088600159	fix_post	2		12.0	11.0	2.5	/experiments/knapen_aot/videos/S_yt-5AI_SyK5sg8_112.mp4	0.0	207.2925808429718	0.10004115104675293
14	35.53275203704834	fix_pre	0		19.0	12.0	2.5	/experiments/knapen_aot/videos/S_comp_H004_C009_PS_v01_SDR_PS_20180925_SDR_2K_AVC.mp4	0.0	207.39262199401855	0.15834283828735352
14	35.682793855667114	response	0	2		12.0	2.5	/experiments/knapen_aot/videos/S_comp_H004_C009_PS_v01_SDR_PS_20180925_SDR_2K_AVC.mp4	0.0	207.54266381263733	
14	35.69109487533569	movie	1		167.0	12.0	2.5	/experiments/knapen_aot/videos/S_comp_H004_C009_PS_v01_SDR_PS_20180925_SDR_2K_AVC.mp4	0.0	207.5509648323059	2.508280038833618
14	38.19937491416931	fix_post	2		12.0	12.0	2.5	/experiments/knapen_aot/videos/S_comp_H004_C009_PS_v01_SDR_PS_20180925_SDR_2K_AVC.mp4	0.0	210.05924487113953	0.100006103515625
14	38.208706855773926	response	2	4		12.0	2.5	/experiments/knapen_aot/videos/S_comp_H004_C009_PS_v01_SDR_PS_20180925_SDR_2K_AVC.mp4	0.0	210.06857681274414	
15	38.29938101768494	fix_pre	0		37.0	13.0	2.5	/experiments/knapen_aot/videos/S_ILSVRC2015_train_00415003.mp4	0.0	210.15925097465515	0.3083469867706299
15	38.59941601753235	response	0	4		13.0	2.5	/experiments/knapen_aot/videos/S_ILSVRC2015_train_00415003.mp4	0.0	210.45928597450256	
15	38.607728004455566	movie	1		301.0	13.0	2.5	/experiments/knapen_aot/videos/S_ILSVRC2015_train_00415003.mp4	0.0	210.46759796142578	2.508293867111206
15	41.11602187156677	fix_post	2		12.0	13.0	2.5	/experiments/knapen_aot/videos/S_ILSVRC2015_train_00415003.mp4	0.0	212.975891828537	0.10004901885986328
16	41.216070890426636	fix_pre	0		64.0	14.0	2.5	blank	1.0	213.07594084739685	0.5331850051879883
16	41.74117994308472	response	0	2		14.0	2.5	blank	1.0	213.60104990005493	
16	41.749255895614624	movie	1		301.0	14.0	2.5	blank	1.0	213.60912585258484	2.5083491802215576
16	44.25760507583618	fix_post	2		12.0	14.0	2.5	blank	1.0	216.1174750328064	0.10008978843688965
17	44.35769486427307	fix_pre	0		42.0	15.0	2.5	/experiments/knapen_aot/videos/S_yt-uY5xsUKn8zU_17.mp4	0.0	216.2175648212433	0.3499641418457031
17	44.699450969696045	response	0	2		15.0	2.5	/experiments/knapen_aot/videos/S_yt-uY5xsUKn8zU_17.mp4	0.0	216.55932092666626	
17	44.707659006118774	movie	1		301.0	15.0	2.5	/experiments/knapen_aot/videos/S_yt-uY5xsUKn8zU_17.mp4	0.0	216.567528963089	2.5083000659942627
17	47.21595907211304	fix_post	2		12.0	15.0	2.5	/experiments/knapen_aot/videos/S_yt-uY5xsUKn8zU_17.mp4	0.0	219.07582902908325	0.10005593299865723
18	47.316015005111694	fix_pre	0		28.0	16.0	2.5	/experiments/knapen_aot/videos/R_S_yt-dESxu60Cl10_24.mp4	0.0	219.1758849620819	0.23334693908691406
18	47.54112195968628	response	0	2		16.0	2.5	/experiments/knapen_aot/videos/R_S_yt-dESxu60Cl10_24.mp4	0.0	219.4009919166565	
18	47.54936194419861	movie	1		298.0	16.0	2.5	/experiments/knapen_aot/videos/R_S_yt-dESxu60Cl10_24.mp4	0.0	219.40923190116882	2.5083439350128174
18	50.057705879211426	fix_post	2		12.0	16.0	2.5	/experiments/knapen_aot/videos/R_S_yt-dESxu60Cl10_24.mp4	0.0	221.91757583618164	0.09994101524353027
19	50.157646894454956	fix_pre	0		6.0	17.0	2.5	/experiments/knapen_aot/videos/S_yt-ObT9gF8E_tU_250.mp4	0.0	222.01751685142517	0.050022125244140625
19	50.199527978897095	response	0	2		17.0	2.5	/experiments/knapen_aot/videos/S_yt-ObT9gF8E_tU_250.mp4	0.0	222.0593979358673	
19	50.2076690196991	movie	1		301.0	17.0	2.5	/experiments/knapen_aot/videos/S_yt-ObT9gF8E_tU_250.mp4	0.0	222.0675389766693	2.5083048343658447
19	52.71597385406494	fix_post	2		12.0	17.0	2.5	/experiments/knapen_aot/videos/S_yt-ObT9gF8E_tU_250.mp4	0.0	224.57584381103516	0.10000801086425781
20	52.8159818649292	fix_pre	0		15.0	18.0	2.5	/experiments/knapen_aot/videos/R_S_yt-mdLT282PVbE_6.mp4	0.0	224.6758518218994	0.12503409385681152
20	52.93269896507263	response	0	2		18.0	2.5	/experiments/knapen_aot/videos/R_S_yt-mdLT282PVbE_6.mp4	0.0	224.79256892204285	
20	52.94101595878601	movie	1		300.0	18.0	2.5	/experiments/knapen_aot/videos/R_S_yt-mdLT282PVbE_6.mp4	0.0	224.80088591575623	2.5138039588928223
20	55.45481991767883	fix_post	2		11.0	18.0	2.5	/experiments/knapen_aot/videos/R_S_yt-mdLT282PVbE_6.mp4	0.0	227.31468987464905	0.09443116188049316
21	55.549251079559326	fix_pre	0		21.0	19.0	2.5	/experiments/knapen_aot/videos/S_comp_GL_G004_C010_PSNK_v04_SDR_PS_FINAL_20180709_SDR_2K_AVC.mp4	0.0	227.40912103652954	0.17505478858947754
21	55.71610403060913	response	0	2		19.0	2.5	/experiments/knapen_aot/videos/S_comp_GL_G004_C010_PSNK_v04_SDR_PS_FINAL_20180709_SDR_2K_AVC.mp4	0.0	227.57597398757935	
21	55.724305868148804	movie	1		166.0	19.0	2.5	/experiments/knapen_aot/videos/S_comp_GL_G004_C010_PSNK_v04_SDR_PS_FINAL_20180709_SDR_2K_AVC.mp4	0.0	227.58417582511902	2.508341073989868
21	58.23264694213867	fix_post	2		12.0	19.0	2.5	/experiments/knapen_aot/videos/S_comp_GL_G004_C010_PSNK_v04_SDR_PS_FINAL_20180709_SDR_2K_AVC.mp4	0.0	230.0925168991089	0.09995603561401367
22	58.332602977752686	fix_pre	0		27.0	20.0	2.5	/experiments/knapen_aot/videos/R_S_SPNvf6JCjGw_123.mp4	0.0	230.1924729347229	0.22499895095825195
22	58.541847944259644	response	0	2		20.0	2.5	/experiments/knapen_aot/videos/R_S_SPNvf6JCjGw_123.mp4	0.0	230.40171790122986	
22	58.55760192871094	movie	1		300.0	20.0	2.5	/experiments/knapen_aot/videos/R_S_SPNvf6JCjGw_123.mp4	0.0	230.41747188568115	2.5083041191101074
22	61.065906047821045	fix_post	2		12.0	20.0	2.5	/experiments/knapen_aot/videos/R_S_SPNvf6JCjGw_123.mp4	0.0	232.92577600479126	0.10004186630249023
23	61.165947914123535	fix_pre	0		35.0	21.0	2.5	blank	1.0	233.02581787109375	0.2916531562805176
23	61.44930291175842	response	0	2		21.0	2.5	blank	1.0	233.30917286872864	
23	61.45760107040405	movie	1		301.0	21.0	2.5	blank	1.0	233.31747102737427	2.5083158016204834
23	63.965916872024536	fix_post	2		12.0	21.0	2.5	blank	1.0	235.82578682899475	0.10001206398010254
24	64.06592893600464	fix_pre	0		36.0	22.0	2.5	/experiments/knapen_aot/videos/R_S_video_inspire_california_big-sur_landscape_054.1080-h264.mp4	0.0	235.92579889297485	0.29999804496765137
24	64.35773301124573	response	0	2		22.0	2.5	/experiments/knapen_aot/videos/R_S_video_inspire_california_big-sur_landscape_054.1080-h264.mp4	0.0	236.21760296821594	
24	64.36592698097229	movie	1		174.0	22.0	2.5	/experiments/knapen_aot/videos/R_S_video_inspire_california_big-sur_landscape_054.1080-h264.mp4	0.0	236.2257969379425	2.5083539485931396
24	66.87428092956543	fix_post	2		12.0	22.0	2.5	/experiments/knapen_aot/videos/R_S_video_inspire_california_big-sur_landscape_054.1080-h264.mp4	0.0	238.73415088653564	0.10001111030578613
25	66.97429203987122	fix_pre	0		14.0	23.0	2.5	/experiments/knapen_aot/videos/S_yt-ObT9gF8E_tU_250.mp4	0.0	238.83416199684143	0.1166388988494873
25	67.08265805244446	response	0	2		23.0	2.5	/experiments/knapen_aot/videos/S_yt-ObT9gF8E_tU_250.mp4	0.0	238.94252800941467	
25	67.0909309387207	movie	1		301.0	23.0	2.5	/experiments/knapen_aot/videos/S_yt-ObT9gF8E_tU_250.mp4	0.0	238.95080089569092	2.50832200050354
25	69.59925293922424	fix_post	2		12.0	23.0	2.5	/experiments/knapen_aot/videos/S_yt-ObT9gF8E_tU_250.mp4	0.0	241.45912289619446	0.09999895095825195
26	69.6992518901825	fix_pre	0		11.0	24.0	2.5	/experiments/knapen_aot/videos/R_S_G008_C015_UHD_SDR_2K_AVC.mp4	0.0	241.5591218471527	0.09161710739135742
26	69.78271889686584	response	0	2		24.0	2.5	/experiments/knapen_aot/videos/R_S_G008_C015_UHD_SDR_2K_AVC.mp4	0.0	241.64258885383606	
26	69.79086899757385	movie	1		176.0	24.0	2.5	/experiments/knapen_aot/videos/R_S_G008_C015_UHD_SDR_2K_AVC.mp4	0.0	241.65073895454407	2.5083558559417725
26	72.23266506195068	response	1	2		24.0	2.5	/experiments/knapen_aot/videos/R_S_G008_C015_UHD_SDR_2K_AVC.mp4	0.0	244.0925350189209	
26	72.29922485351562	fix_post	2		12.0	24.0	2.5	/experiments/knapen_aot/videos/R_S_G008_C015_UHD_SDR_2K_AVC.mp4	0.0	244.15909481048584	0.10002517700195312
27	72.39925003051758	fix_pre	0		56.0	25.0	2.5	/experiments/knapen_aot/videos/S_yt-BQixB0mumIk_169.mp4	0.0	244.2591199874878	0.4665699005126953
27	72.85767602920532	response	0	2		25.0	2.5	/experiments/knapen_aot/videos/S_yt-BQixB0mumIk_169.mp4	0.0	244.71754598617554	
27	72.86581993103027	movie	1		301.0	25.0	2.5	/experiments/knapen_aot/videos/S_yt-BQixB0mumIk_169.mp4	0.0	244.7256898880005	2.50852108001709
27	75.37434101104736	fix_post	2		12.0	25.0	2.5	/experiments/knapen_aot/videos/S_yt-BQixB0mumIk_169.mp4	0.0	247.23421096801758	0.09994101524353027
28	75.4742820262909	fix_pre	0		21.0	26.0	2.5	/experiments/knapen_aot/videos/R_S_yt-EApB0DJ3ECg_119.mp4	0.0	247.3341519832611	0.1749570369720459
28	75.64103889465332	response	0	2		26.0	2.5	/experiments/knapen_aot/videos/R_S_yt-EApB0DJ3ECg_119.mp4	0.0	247.50090885162354	
28	75.64923906326294	movie	1		301.0	26.0	2.5	/experiments/knapen_aot/videos/R_S_yt-EApB0DJ3ECg_119.mp4	0.0	247.50910902023315	2.5084009170532227
28	78.15763998031616	fix_post	2		12.0	26.0	2.5	/experiments/knapen_aot/videos/R_S_yt-EApB0DJ3ECg_119.mp4	0.0	250.01750993728638	0.0999290943145752
29	78.25756907463074	fix_pre	0		8.0	27.0	2.5	/experiments/knapen_aot/videos/S_ILSVRC2015_train_00572000.mp4	0.0	250.11743903160095	0.06668281555175781
29	78.31611704826355	response	0	2		27.0	2.5	/experiments/knapen_aot/videos/S_ILSVRC2015_train_00572000.mp4	0.0	250.17598700523376	
29	78.3242518901825	movie	1		301.0	27.0	2.5	/experiments/knapen_aot/videos/S_ILSVRC2015_train_00572000.mp4	0.0	250.1841218471527	2.508275032043457
29	80.83252692222595	fix_post	2		12.0	27.0	2.5	/experiments/knapen_aot/videos/S_ILSVRC2015_train_00572000.mp4	0.0	252.69239687919617	0.10002899169921875
30	80.93255591392517	fix_pre	0		23.0	28.0	2.5	blank	1.0	252.79242587089539	0.19163894653320312
30	81.1160478591919	response	0	2		28.0	2.5	blank	1.0	252.9759178161621	
30	81.12419486045837	movie	1		301.0	28.0	2.5	blank	1.0	252.9840648174286	2.508327007293701
30	83.63252186775208	fix_post	2		12.0	28.0	2.5	blank	1.0	255.4923918247223	0.10004115104675293
31	83.73256301879883	fix_pre	0		40.0	29.0	2.5	/experiments/knapen_aot/videos/R_S_comp_GL_G004_C010_PSNK_v04_SDR_PS_FINAL_20180709_SDR_2K_AVC.mp4	0.0	255.59243297576904	0.33330202102661133
31	84.05760598182678	response	0	2		29.0	2.5	/experiments/knapen_aot/videos/R_S_comp_GL_G004_C010_PSNK_v04_SDR_PS_FINAL_20180709_SDR_2K_AVC.mp4	0.0	255.917475938797	
31	84.06586503982544	movie	1		171.0	29.0	2.5	/experiments/knapen_aot/videos/R_S_comp_GL_G004_C010_PSNK_v04_SDR_PS_FINAL_20180709_SDR_2K_AVC.mp4	0.0	255.92573499679565	2.508309841156006
31	86.57417488098145	fix_post	2		12.0	29.0	2.5	/experiments/knapen_aot/videos/R_S_comp_GL_G004_C010_PSNK_v04_SDR_PS_FINAL_20180709_SDR_2K_AVC.mp4	0.0	258.43404483795166	0.09997200965881348
32	86.67414689064026	fix_pre	0		56.0	30.0	2.5	/experiments/knapen_aot/videos/S_production_ID_4154238.mp4	0.0	258.5340168476105	0.4678220748901367
32	87.13264799118042	response	0	2		30.0	2.5	/experiments/knapen_aot/videos/S_production_ID_4154238.mp4	0.0	258.99251794815063	
32	87.1419689655304	movie	1		196.0	30.0	2.5	/experiments/knapen_aot/videos/S_production_ID_4154238.mp4	0.0	259.0018389225006	2.5072240829467773
32	89.64919304847717	fix_post	2		12.0	30.0	2.5	/experiments/knapen_aot/videos/S_production_ID_4154238.mp4	0.0	261.5090630054474	0.09999895095825195
33	89.74919199943542	fix_pre	0		9.0	31.0	2.5	/experiments/knapen_aot/videos/S_yt-JGKdBO2Ldzo_93.mp4	0.0	261.60906195640564	0.07509708404541016
33	89.81596302986145	response	0	2		31.0	2.5	/experiments/knapen_aot/videos/S_yt-JGKdBO2Ldzo_93.mp4	0.0	261.67583298683167	
33	89.82428908348083	movie	1		301.0	31.0	2.5	/experiments/knapen_aot/videos/S_yt-JGKdBO2Ldzo_93.mp4	0.0	261.68415904045105	2.508234977722168
33	92.332524061203	fix_post	2		12.0	31.0	2.5	/experiments/knapen_aot/videos/S_yt-JGKdBO2Ldzo_93.mp4	0.0	264.1923940181732	0.09995293617248535
34	92.43247699737549	fix_pre	0		26.0	32.0	2.5	/experiments/knapen_aot/videos/S_yt-giRwl4yChlw_9.mp4	0.0	264.2923469543457	0.21666288375854492
34	92.64100790023804	response	0	2		32.0	2.5	/experiments/knapen_aot/videos/S_yt-giRwl4yChlw_9.mp4	0.0	264.50087785720825	
34	92.64913988113403	movie	1		301.0	32.0	2.5	/experiments/knapen_aot/videos/S_yt-giRwl4yChlw_9.mp4	0.0	264.50900983810425	2.5083441734313965
34	95.15748405456543	fix_post	2		12.0	32.0	2.5	/experiments/knapen_aot/videos/S_yt-giRwl4yChlw_9.mp4	0.0	267.01735401153564	0.1000518798828125
35	95.25753593444824	fix_pre	0		34.0	33.0	2.5	/experiments/knapen_aot/videos/R_S_ILSVRC2015_test_00012005.mp4	0.0	267.11740589141846	0.28325414657592773
35	95.53261995315552	response	0	2		33.0	2.5	/experiments/knapen_aot/videos/R_S_ILSVRC2015_test_00012005.mp4	0.0	267.39248991012573	
35	95.54079008102417	movie	1		298.0	33.0	2.5	/experiments/knapen_aot/videos/R_S_ILSVRC2015_test_00012005.mp4	0.0	267.4006600379944	2.508375883102417
35	98.04916596412659	fix_post	2		12.0	33.0	2.5	/experiments/knapen_aot/videos/R_S_ILSVRC2015_test_00012005.mp4	0.0	269.9090359210968	0.0999300479888916
36	98.14909601211548	fix_pre	0		32.0	34.0	2.5	/experiments/knapen_aot/videos/R_S_5Bc466bkeA0_35.mp4	0.0	270.0089659690857	0.2666809558868408
36	98.40007185935974	response	0	2		34.0	2.5	/experiments/knapen_aot/videos/R_S_5Bc466bkeA0_35.mp4	0.0	270.25994181632996	
36	98.41577696800232	movie	1		301.0	34.0	2.5	/experiments/knapen_aot/videos/R_S_5Bc466bkeA0_35.mp4	0.0	270.27564692497253	2.5083301067352295
36	100.92410707473755	fix_post	2		12.0	34.0	2.5	/experiments/knapen_aot/videos/R_S_5Bc466bkeA0_35.mp4	0.0	272.78397703170776	0.0999608039855957
37	101.02406787872314	fix_pre	0		22.0	35.0	2.5	blank	1.0	272.88393783569336	0.18326497077941895
37	101.19915199279785	response	0	2		35.0	2.5	blank	1.0	273.05902194976807	
37	101.20733284950256	movie	1		301.0	35.0	2.5	blank	1.0	273.0672028064728	2.508413076400757
37	103.4241988658905	response	1	2		35.0	2.5	blank	1.0	275.2840688228607	
37	103.71574592590332	fix_post	2		12.0	35.0	2.5	blank	1.0	275.57561588287354	0.10002493858337402
38	103.8157708644867	fix_pre	0		19.0	36.0	2.5	/experiments/knapen_aot/videos/S_yt-cBCeq1NQgj0_1129.mp4	0.0	275.6756408214569	0.1593952178955078
38	103.96589708328247	response	0	2		36.0	2.5	/experiments/knapen_aot/videos/S_yt-cBCeq1NQgj0_1129.mp4	0.0	275.8257670402527	
38	103.9751660823822	movie	1		301.0	36.0	2.5	/experiments/knapen_aot/videos/S_yt-cBCeq1NQgj0_1129.mp4	0.0	275.8350360393524	2.507239818572998
38	106.4824059009552	fix_post	2		12.0	36.0	2.5	/experiments/knapen_aot/videos/S_yt-cBCeq1NQgj0_1129.mp4	0.0	278.3422758579254	0.1000220775604248
39	106.58242797851562	fix_pre	0		44.0	37.0	2.5	/experiments/knapen_aot/videos/S_yt-jcuaf9iSEkI_169.mp4	0.0	278.44229793548584	0.36663389205932617
39	106.94092297554016	response	0	2		37.0	2.5	/experiments/knapen_aot/videos/S_yt-jcuaf9iSEkI_169.mp4	0.0	278.8007929325104	
39	106.94906187057495	movie	1		301.0	37.0	2.5	/experiments/knapen_aot/videos/S_yt-jcuaf9iSEkI_169.mp4	0.0	278.80893182754517	2.508327007293701
39	109.45738887786865	fix_post	2		12.0	37.0	2.5	/experiments/knapen_aot/videos/S_yt-jcuaf9iSEkI_169.mp4	0.0	281.31725883483887	0.10002517700195312
40	109.5574140548706	fix_pre	0		78.0	38.0	2.5	/experiments/knapen_aot/videos/S_yt-0Ut9QANGX20_35.mp4	0.0	281.4172840118408	0.6499559879302979
40	110.19922399520874	response	0	2		38.0	2.5	/experiments/knapen_aot/videos/S_yt-0Ut9QANGX20_35.mp4	0.0	282.05909395217896	
40	110.2073700428009	movie	1		301.0	38.0	2.5	/experiments/knapen_aot/videos/S_yt-0Ut9QANGX20_35.mp4	0.0	282.0672399997711	2.5082929134368896
40	112.7156629562378	fix_post	2		12.0	38.0	2.5	/experiments/knapen_aot/videos/S_yt-0Ut9QANGX20_35.mp4	0.0	284.575532913208	0.10003805160522461
41	112.81570100784302	fix_pre	0		27.0	39.0	2.5	/experiments/knapen_aot/videos/R_S_yt-0Ut9QANGX20_35.mp4	0.0	284.67557096481323	0.22497296333312988
41	113.03249287605286	response	0	2		39.0	2.5	/experiments/knapen_aot/videos/R_S_yt-0Ut9QANGX20_35.mp4	0.0	284.89236283302307	
41	113.04067397117615	movie	1		301.0	39.0	2.5	/experiments/knapen_aot/videos/R_S_yt-0Ut9QANGX20_35.mp4	0.0	284.90054392814636	2.508333921432495
41	115.54900789260864	fix_post	2		12.0	39.0	2.5	/experiments/knapen_aot/videos/R_S_yt-0Ut9QANGX20_35.mp4	0.0	287.40887784957886	0.09998416900634766
42	115.64899206161499	fix_pre	0		5.0	40.0	2.5	/experiments/knapen_aot/videos/S_video_inspire_oregon_lone-ranch-beach_00015.1080-h264.mp4	0.0	287.5088620185852	0.041818857192993164
42	115.68270707130432	response	0	2		40.0	2.5	/experiments/knapen_aot/videos/S_video_inspire_oregon_lone-ranch-beach_00015.1080-h264.mp4	0.0	287.54257702827454	
42	115.69081091880798	movie	1		167.0	40.0	2.5	/experiments/knapen_aot/videos/S_video_inspire_oregon_lone-ranch-beach_00015.1080-h264.mp4	0.0	287.5506808757782	2.508226156234741
42	118.19903707504272	fix_post	2		12.0	40.0	2.5	/experiments/knapen_aot/videos/S_video_inspire_oregon_lone-ranch-beach_00015.1080-h264.mp4	0.0	290.05890703201294	0.10004186630249023
43	118.29907894134521	fix_pre	0		11.0	41.0	2.5	blank	1.0	290.15894889831543	0.09168291091918945
43	118.3824999332428	response	0	2		41.0	2.5	blank	1.0	290.242369890213	
43	118.3907618522644	movie	1		301.0	41.0	2.5	blank	1.0	290.2506318092346	2.5082859992980957
43	120.8990478515625	fix_post	2		12.0	41.0	2.5	blank	1.0	292.7589178085327	0.10000109672546387
44	120.99904894828796	fix_pre	0		44.0	42.0	2.5	/experiments/knapen_aot/videos/S_yt-O4wUEZwHLyI_114.mp4	0.0	292.8589189052582	0.3666260242462158
44	121.35753798484802	response	0	2		42.0	2.5	/experiments/knapen_aot/videos/S_yt-O4wUEZwHLyI_114.mp4	0.0	293.21740794181824	
44	121.36567497253418	movie	1		301.0	42.0	2.5	/experiments/knapen_aot/videos/S_yt-O4wUEZwHLyI_114.mp4	0.0	293.2255449295044	2.5083870887756348
44	123.87406206130981	fix_post	2		12.0	42.0	2.5	/experiments/knapen_aot/videos/S_yt-O4wUEZwHLyI_114.mp4	0.0	295.73393201828003	0.09997797012329102
45	123.9740400314331	fix_pre	0		19.0	43.0	2.5	/experiments/knapen_aot/videos/S_flickr-southeasternstar-3464778323_10.mp4	0.0	295.8339099884033	0.15831589698791504
45	124.12417387962341	response	0	2		43.0	2.5	/experiments/knapen_aot/videos/S_flickr-southeasternstar-3464778323_10.mp4	0.0	295.9840438365936	
45	124.13235592842102	movie	1		301.0	43.0	2.5	/experiments/knapen_aot/videos/S_flickr-southeasternstar-3464778323_10.mp4	0.0	295.99222588539124	2.508347988128662
45	126.64070391654968	fix_post	2		12.0	43.0	2.5	/experiments/knapen_aot/videos/S_flickr-southeasternstar-3464778323_10.mp4	0.0	298.5005738735199	0.10001516342163086
46	126.74071907997131	fix_pre	0		24.0	44.0	2.5	/experiments/knapen_aot/videos/S_FK_U009_C004_SDR_20191220_SDR_2K_AVC.mp4	0.0	298.6005890369415	0.19997882843017578
46	126.93248295783997	response	0	2		44.0	2.5	/experiments/knapen_aot/videos/S_FK_U009_C004_SDR_20191220_SDR_2K_AVC.mp4	0.0	298.7923529148102	
46	126.94069790840149	movie	1		165.0	44.0	2.5	/experiments/knapen_aot/videos/S_FK_U009_C004_SDR_20191220_SDR_2K_AVC.mp4	0.0	298.8005678653717	2.5083041191101074
46	129.4490020275116	fix_post	2		12.0	44.0	2.5	/experiments/knapen_aot/videos/S_FK_U009_C004_SDR_20191220_SDR_2K_AVC.mp4	0.0	301.3088719844818	0.09996485710144043
47	129.54896688461304	fix_pre	0		9.0	45.0	2.5	/experiments/knapen_aot/videos/S_ILSVRC2015_train_00415003.mp4	0.0	301.40883684158325	0.07496213912963867
47	129.6158049106598	response	0	2		45.0	2.5	/experiments/knapen_aot/videos/S_ILSVRC2015_train_00415003.mp4	0.0	301.47567486763	
47	129.62392902374268	movie	1		301.0	45.0	2.5	/experiments/knapen_aot/videos/S_ILSVRC2015_train_00415003.mp4	0.0	301.4837989807129	2.508551836013794
47	131.66581201553345	response	1	2		45.0	2.5	/experiments/knapen_aot/videos/S_ILSVRC2015_train_00415003.mp4	0.0	303.52568197250366	
47	132.05741906166077	response	1	2		45.0	2.5	/experiments/knapen_aot/videos/S_ILSVRC2015_train_00415003.mp4	0.0	303.917289018631	
47	132.13248085975647	fix_post	2		12.0	45.0	2.5	/experiments/knapen_aot/videos/S_ILSVRC2015_train_00415003.mp4	0.0	303.9923508167267	0.09983515739440918
48	132.23231601715088	fix_pre	0		13.0	46.0	2.5	/experiments/knapen_aot/videos/R_S_yt-ujdFTAUE8rc_34.mp4	0.0	304.0921859741211	0.10829305648803711
48	132.3248748779297	response	0	2		46.0	2.5	/experiments/knapen_aot/videos/R_S_yt-ujdFTAUE8rc_34.mp4	0.0	304.1847448348999	
48	132.34060907363892	movie	1		301.0	46.0	2.5	/experiments/knapen_aot/videos/R_S_yt-ujdFTAUE8rc_34.mp4	0.0	304.20047903060913	2.508307933807373
48	134.8489170074463	fix_post	2		12.0	46.0	2.5	/experiments/knapen_aot/videos/R_S_yt-ujdFTAUE8rc_34.mp4	0.0	306.7087869644165	0.10003995895385742
49	134.94895696640015	fix_pre	0		6.0	47.0	2.5	blank	1.0	306.80882692337036	0.05004692077636719
49	134.9835159778595	response	0	2		47.0	2.5	blank	1.0	306.8433859348297	
49	134.9990038871765	movie	1		301.0	47.0	2.5	blank	1.0	306.85887384414673	2.5082859992980957
49	137.5072898864746	fix_post	2		12.0	47.0	2.5	blank	1.0	309.3671598434448	0.10002017021179199
50	137.6073100566864	fix_pre	0		19.0	48.0	2.5	/experiments/knapen_aot/videos/S_yt-xBwq6sHHF5M_21.mp4	0.0	309.4671800136566	0.1591968536376953
50	137.74982690811157	response	0	2		48.0	2.5	/experiments/knapen_aot/videos/S_yt-xBwq6sHHF5M_21.mp4	0.0	309.6096968650818	
50	137.7665069103241	movie	1		301.0	48.0	2.5	/experiments/knapen_aot/videos/S_yt-xBwq6sHHF5M_21.mp4	0.0	309.6263768672943	2.5073561668395996
50	140.2738630771637	fix_post	2		12.0	48.0	2.5	/experiments/knapen_aot/videos/S_yt-xBwq6sHHF5M_21.mp4	0.0	312.1337330341339	0.10005497932434082
51	140.37391805648804	fix_pre	0		5.0	49.0	2.5	/experiments/knapen_aot/videos/S_production_ID_4997166.mp4	0.0	312.23378801345825	0.04180598258972168
51	140.40753602981567	response	0	2		49.0	2.5	/experiments/knapen_aot/videos/S_production_ID_4997166.mp4	0.0	312.2674059867859	
51	140.41572403907776	movie	1		169.0	49.0	2.5	/experiments/knapen_aot/videos/S_production_ID_4997166.mp4	0.0	312.275593996048	2.508234977722168
51	142.92395901679993	fix_post	2		12.0	49.0	2.5	/experiments/knapen_aot/videos/S_production_ID_4997166.mp4	0.0	314.78382897377014	0.09995293617248535
51	143.01578497886658	response	2	2		49.0	2.5	/experiments/knapen_aot/videos/S_production_ID_4997166.mp4	0.0	314.8756549358368	
52	143.0239119529724	fix_pre	0		37.0	50.0	2.5	/experiments/knapen_aot/videos/R_S_yt-bhiGMKSAz2g_370.mp4	0.0	314.8837819099426	0.3082549571990967
52	143.32400393486023	response	0	2		50.0	2.5	/experiments/knapen_aot/videos/R_S_yt-bhiGMKSAz2g_370.mp4	0.0	315.18387389183044	
52	143.3321669101715	movie	1		301.0	50.0	2.5	/experiments/knapen_aot/videos/R_S_yt-bhiGMKSAz2g_370.mp4	0.0	315.1920368671417	2.5084049701690674
52	145.84057188034058	fix_post	2		12.0	50.0	2.5	/experiments/knapen_aot/videos/R_S_yt-bhiGMKSAz2g_370.mp4	0.0	317.7004418373108	0.10002803802490234
52	145.890722990036	response	2	2		50.0	2.5	/experiments/knapen_aot/videos/R_S_yt-bhiGMKSAz2g_370.mp4	0.0	317.7505929470062	
53	145.94059991836548	fix_pre	0		38.0	51.0	2.5	/experiments/knapen_aot/videos/R_S_yt-NQSCGMpo-p8_118.mp4	0.0	317.8004698753357	0.3167240619659424
53	146.2490210533142	response	0	2		51.0	2.5	/experiments/knapen_aot/videos/R_S_yt-NQSCGMpo-p8_118.mp4	0.0	318.1088910102844	
53	146.25732398033142	movie	1		301.0	51.0	2.5	/experiments/knapen_aot/videos/R_S_yt-NQSCGMpo-p8_118.mp4	0.0	318.11719393730164	2.5082149505615234
53	148.76553893089294	fix_post	2		12.0	51.0	2.5	/experiments/knapen_aot/videos/R_S_yt-NQSCGMpo-p8_118.mp4	0.0	320.62540888786316	0.09995508193969727
53	148.8074028491974	response	2	2		51.0	2.5	/experiments/knapen_aot/videos/R_S_yt-NQSCGMpo-p8_118.mp4	0.0	320.6672728061676	
54	148.86549401283264	fix_pre	0		47.0	52.0	2.5	/experiments/knapen_aot/videos/S_yt-J2PiBa1MXI0_210.mp4	0.0	320.72536396980286	0.3917250633239746
54	149.24887585639954	response	0	2		52.0	2.5	/experiments/knapen_aot/videos/S_yt-J2PiBa1MXI0_210.mp4	0.0	321.10874581336975	
54	149.25721907615662	movie	1		300.0	52.0	2.5	/experiments/knapen_aot/videos/S_yt-J2PiBa1MXI0_210.mp4	0.0	321.11708903312683	2.5082919597625732
54	151.7655110359192	fix_post	2		12.0	52.0	2.5	/experiments/knapen_aot/videos/S_yt-J2PiBa1MXI0_210.mp4	0.0	323.6253809928894	0.1000068187713623
55	151.86551785469055	fix_pre	0		38.0	53.0	2.5	/experiments/knapen_aot/videos/R_S_yt-lfDIg8kaXhA_169.mp4	0.0	323.72538781166077	0.3175070285797119
55	152.1740279197693	response	0	2		53.0	2.5	/experiments/knapen_aot/videos/R_S_yt-lfDIg8kaXhA_169.mp4	0.0	324.0338978767395	
55	152.18302488327026	movie	1		301.0	53.0	2.5	/experiments/knapen_aot/videos/R_S_yt-lfDIg8kaXhA_169.mp4	0.0	324.0428948402405	2.507493019104004
55	154.69051790237427	fix_post	2		12.0	53.0	2.5	/experiments/knapen_aot/videos/R_S_yt-lfDIg8kaXhA_169.mp4	0.0	326.5503878593445	0.10001015663146973
56	154.79052805900574	fix_pre	0		30.0	54.0	2.5	blank	1.0	326.65039801597595	0.24991583824157715
56	155.0323269367218	response	0	2		54.0	2.5	blank	1.0	326.892196893692	
56	155.04044389724731	movie	1		301.0	54.0	2.5	blank	1.0	326.90031385421753	2.5083751678466797
56	157.548819065094	fix_post	2		12.0	54.0	2.5	blank	1.0	329.4086890220642	0.10003089904785156
57	157.64884996414185	fix_pre	0		25.0	55.0	2.5	/experiments/knapen_aot/videos/R_S_ILSVRC2015_train_00613000.mp4	0.0	329.50871992111206	0.20830988883972168
57	157.8489580154419	response	0	2		55.0	2.5	/experiments/knapen_aot/videos/R_S_ILSVRC2015_train_00613000.mp4	0.0	329.7088279724121	
57	157.85715985298157	movie	1		299.0	55.0	2.5	/experiments/knapen_aot/videos/R_S_ILSVRC2015_train_00613000.mp4	0.0	329.7170298099518	2.508272171020508
57	160.36543202400208	fix_post	2		12.0	55.0	2.5	/experiments/knapen_aot/videos/R_S_ILSVRC2015_train_00613000.mp4	0.0	332.2253019809723	0.10005688667297363
58	160.46548891067505	fix_pre	0		12.0	56.0	2.5	/experiments/knapen_aot/videos/R_S_yt-lCb_efvJcdE_5.mp4	0.0	332.32535886764526	0.0999751091003418
58	160.55734300613403	response	0	2		56.0	2.5	/experiments/knapen_aot/videos/R_S_yt-lCb_efvJcdE_5.mp4	0.0	332.41721296310425	
58	160.5654640197754	movie	1		301.0	56.0	2.5	/experiments/knapen_aot/videos/R_S_yt-lCb_efvJcdE_5.mp4	0.0	332.4253339767456	2.508307933807373
58	163.07377195358276	fix_post	2		12.0	56.0	2.5	/experiments/knapen_aot/videos/R_S_yt-lCb_efvJcdE_5.mp4	0.0	334.933641910553	0.1001889705657959
59	163.17396092414856	fix_pre	0		24.0	57.0	2.5	/experiments/knapen_aot/videos/S_video_inspire_california_big-sur_landscape_054.1080-h264.mp4	0.0	335.0338308811188	0.2004680633544922
59	163.36568808555603	response	0	2		57.0	2.5	/experiments/knapen_aot/videos/S_video_inspire_california_big-sur_landscape_054.1080-h264.mp4	0.0	335.22555804252625	
59	163.37442898750305	movie	1		173.0	57.0	2.5	/experiments/knapen_aot/videos/S_video_inspire_california_big-sur_landscape_054.1080-h264.mp4	0.0	335.23429894447327	2.507749080657959
59	165.882178068161	fix_post	2		12.0	57.0	2.5	/experiments/knapen_aot/videos/S_video_inspire_california_big-sur_landscape_054.1080-h264.mp4	0.0	337.7420480251312	0.09999489784240723
60	165.98217296600342	fix_pre	0		4.0	58.0	2.5	/experiments/knapen_aot/videos/R_S_yt-VTNBCfQxnsk_59.mp4	0.0	337.84204292297363	0.03408694267272949
60	165.99997997283936	response	0	2		58.0	2.5	/experiments/knapen_aot/videos/R_S_yt-VTNBCfQxnsk_59.mp4	0.0	337.85984992980957	
60	166.01625990867615	movie	1		298.0	58.0	2.5	/experiments/knapen_aot/videos/R_S_yt-VTNBCfQxnsk_59.mp4	0.0	337.87612986564636	2.507573127746582
60	168.52383303642273	fix_post	2		12.0	58.0	2.5	/experiments/knapen_aot/videos/R_S_yt-VTNBCfQxnsk_59.mp4	0.0	340.38370299339294	0.09999990463256836
61	168.6238329410553	fix_pre	0		24.0	59.0	2.5	/experiments/knapen_aot/videos/R_S_yt-J2PiBa1MXI0_210.mp4	0.0	340.4837028980255	0.19999098777770996
61	168.81555795669556	response	0	2		59.0	2.5	/experiments/knapen_aot/videos/R_S_yt-J2PiBa1MXI0_210.mp4	0.0	340.67542791366577	
61	168.823823928833	movie	1		301.0	59.0	2.5	/experiments/knapen_aot/videos/R_S_yt-J2PiBa1MXI0_210.mp4	0.0	340.6836938858032	2.5082530975341797
61	171.3320770263672	fix_post	2		12.0	59.0	2.5	/experiments/knapen_aot/videos/R_S_yt-J2PiBa1MXI0_210.mp4	0.0	343.1919469833374	0.10080790519714355
62	171.43288493156433	fix_pre	0		12.0	60.0	2.5	/experiments/knapen_aot/videos/R_S_yt-fQGoTMausn8_88.mp4	0.0	343.29275488853455	0.09923696517944336
62	171.5239040851593	response	0	2		60.0	2.5	/experiments/knapen_aot/videos/R_S_yt-fQGoTMausn8_88.mp4	0.0	343.3837740421295	
62	171.53212189674377	movie	1		301.0	60.0	2.5	/experiments/knapen_aot/videos/R_S_yt-fQGoTMausn8_88.mp4	0.0	343.391991853714	2.5083320140838623
62	174.04045391082764	fix_post	2		12.0	60.0	2.5	/experiments/knapen_aot/videos/R_S_yt-fQGoTMausn8_88.mp4	0.0	345.90032386779785	0.09999394416809082
63	174.14044785499573	fix_pre	0		13.0	61.0	2.5	/experiments/knapen_aot/videos/R_S_yt-5hgLXyLw82w_23.mp4	0.0	346.00031781196594	0.1083211898803711
63	174.2405788898468	response	0	2		61.0	2.5	/experiments/knapen_aot/videos/R_S_yt-5hgLXyLw82w_23.mp4	0.0	346.100448846817	
63	174.2487690448761	movie	1		301.0	61.0	2.5	/experiments/knapen_aot/videos/R_S_yt-5hgLXyLw82w_23.mp4	0.0	346.1086390018463	2.5083208084106445
63	176.75708985328674	fix_post	2		12.0	61.0	2.5	/experiments/knapen_aot/videos/R_S_yt-5hgLXyLw82w_23.mp4	0.0	348.61695981025696	0.09997320175170898
64	176.85706305503845	fix_pre	0		7.0	62.0	2.5	/experiments/knapen_aot/videos/R_S_production_ID_5182928.mp4	0.0	348.71693301200867	0.05832481384277344
64	176.90728998184204	response	0	2		62.0	2.5	/experiments/knapen_aot/videos/R_S_production_ID_5182928.mp4	0.0	348.76715993881226	
64	176.91538786888123	movie	1		175.0	62.0	2.5	/experiments/knapen_aot/videos/R_S_production_ID_5182928.mp4	0.0	348.77525782585144	2.5083401203155518
64	179.42372798919678	fix_post	2		12.0	62.0	2.5	/experiments/knapen_aot/videos/R_S_production_ID_5182928.mp4	0.0	351.283597946167	0.10000991821289062
65	179.52373790740967	fix_pre	0		1.0	63.0	2.5	blank	1.0	351.3836078643799	0.008306026458740234
65	179.52541208267212	response	0	2		63.0	2.5	blank	1.0	351.38528203964233	
65	179.5320439338684	movie	1		301.0	63.0	2.5	blank	1.0	351.3919138908386	2.508294105529785
65	182.0403380393982	fix_post	2		12.0	63.0	2.5	blank	1.0	353.9002079963684	0.10004186630249023
66	182.14037990570068	fix_pre	0		37.0	64.0	2.5	/experiments/knapen_aot/videos/R_S_yt-bZfmqTZ-d2k_112.mp4	0.0	354.0002498626709	0.3083529472351074
66	182.44061398506165	response	0	2		64.0	2.5	/experiments/knapen_aot/videos/R_S_yt-bZfmqTZ-d2k_112.mp4	0.0	354.30048394203186	
66	182.4487328529358	movie	1		301.0	64.0	2.5	/experiments/knapen_aot/videos/R_S_yt-bZfmqTZ-d2k_112.mp4	0.0	354.308602809906	2.5083560943603516
66	184.95708894729614	fix_post	2		12.0	64.0	2.5	/experiments/knapen_aot/videos/R_S_yt-bZfmqTZ-d2k_112.mp4	0.0	356.81695890426636	0.09998297691345215
67	185.0570719242096	fix_pre	0		20.0	65.0	2.5	/experiments/knapen_aot/videos/R_S_yt-yQrDeFlFmfM_138.mp4	0.0	356.9169418811798	0.16745305061340332
67	185.2155258655548	response	0	2		65.0	2.5	/experiments/knapen_aot/videos/R_S_yt-yQrDeFlFmfM_138.mp4	0.0	357.075395822525	
67	185.224524974823	movie	1		299.0	65.0	2.5	/experiments/knapen_aot/videos/R_S_yt-yQrDeFlFmfM_138.mp4	0.0	357.0843949317932	2.5075669288635254
67	187.73209190368652	fix_post	2		12.0	65.0	2.5	/experiments/knapen_aot/videos/R_S_yt-yQrDeFlFmfM_138.mp4	0.0	359.59196186065674	0.09996414184570312
68	187.83205604553223	fix_pre	0		16.0	66.0	2.5	/experiments/knapen_aot/videos/S_yt-UmLeGNcqouI_718.mp4	0.0	359.69192600250244	0.13335084915161133
68	187.9571509361267	response	0	2		66.0	2.5	/experiments/knapen_aot/videos/S_yt-UmLeGNcqouI_718.mp4	0.0	359.8170208930969	
68	187.96540689468384	movie	1		301.0	66.0	2.5	/experiments/knapen_aot/videos/S_yt-UmLeGNcqouI_718.mp4	0.0	359.82527685165405	2.5082991123199463
68	190.47370600700378	fix_post	2		12.0	66.0	2.5	/experiments/knapen_aot/videos/S_yt-UmLeGNcqouI_718.mp4	0.0	362.333575963974	0.09995794296264648
69	190.57366394996643	fix_pre	0		14.0	67.0	2.5	/experiments/knapen_aot/videos/R_S_yt-gDZnJCR2uXI_18.mp4	0.0	362.43353390693665	0.11670207977294922
69	190.68220806121826	response	0	2		67.0	2.5	/experiments/knapen_aot/videos/R_S_yt-gDZnJCR2uXI_18.mp4	0.0	362.5420780181885	
69	190.69036602973938	movie	1		300.0	67.0	2.5	/experiments/knapen_aot/videos/R_S_yt-gDZnJCR2uXI_18.mp4	0.0	362.5502359867096	2.5083649158477783
69	193.19873094558716	fix_post	2		12.0	67.0	2.5	/experiments/knapen_aot/videos/R_S_yt-gDZnJCR2uXI_18.mp4	0.0	365.0586009025574	0.09991908073425293
70	193.2986500263214	fix_pre	0		17.0	68.0	2.5	/experiments/knapen_aot/videos/R_S_yt-JQOHHL30Y54_101.mp4	0.0	365.1585199832916	0.14171099662780762
70	193.43221306800842	response	0	2		68.0	2.5	/experiments/knapen_aot/videos/R_S_yt-JQOHHL30Y54_101.mp4	0.0	365.29208302497864	
70	193.44036102294922	movie	1		301.0	68.0	2.5	/experiments/knapen_aot/videos/R_S_yt-JQOHHL30Y54_101.mp4	0.0	365.30023097991943	2.5083580017089844
70	195.9487190246582	fix_post	2		12.0	68.0	2.5	/experiments/knapen_aot/videos/R_S_yt-JQOHHL30Y54_101.mp4	0.0	367.8085889816284	0.10000896453857422
71	196.04872798919678	fix_pre	0		10.0	69.0	2.5	blank	1.0	367.908597946167	0.08325004577636719
71	196.12383008003235	response	0	2		69.0	2.5	blank	1.0	367.98370003700256	
71	196.13197803497314	movie	1		301.0	69.0	2.5	blank	1.0	367.99184799194336	2.5083370208740234
71	198.64031505584717	fix_post	2		12.0	69.0	2.5	blank	1.0	370.5001850128174	0.10012388229370117
72	198.74043893814087	fix_pre	0		33.0	70.0	2.5	/experiments/knapen_aot/videos/S_yt-JQOHHL30Y54_101.mp4	0.0	370.6003088951111	0.27564001083374023
72	199.0071198940277	response	0	2		70.0	2.5	/experiments/knapen_aot/videos/S_yt-JQOHHL30Y54_101.mp4	0.0	370.8669898509979	
72	199.0160789489746	movie	1		301.0	70.0	2.5	/experiments/knapen_aot/videos/S_yt-JQOHHL30Y54_101.mp4	0.0	370.8759489059448	2.507554054260254
72	201.52363300323486	fix_post	2		12.0	70.0	2.5	/experiments/knapen_aot/videos/S_yt-JQOHHL30Y54_101.mp4	0.0	373.3835029602051	0.09993290901184082
73	201.6235659122467	fix_pre	0		20.0	71.0	2.5	/experiments/knapen_aot/videos/R_S_ILSVRC2015_train_00578000.mp4	0.0	373.4834358692169	0.16675496101379395
73	201.78214597702026	response	0	2		71.0	2.5	/experiments/knapen_aot/videos/R_S_ILSVRC2015_train_00578000.mp4	0.0	373.6420159339905	
73	201.7903208732605	movie	1		301.0	71.0	2.5	/experiments/knapen_aot/videos/R_S_ILSVRC2015_train_00578000.mp4	0.0	373.6501908302307	2.508223056793213
73	204.2985439300537	fix_post	2		12.0	71.0	2.5	/experiments/knapen_aot/videos/R_S_ILSVRC2015_train_00578000.mp4	0.0	376.1584138870239	0.10005712509155273
74	204.39860105514526	fix_pre	0		34.0	72.0	2.5	/experiments/knapen_aot/videos/S_yt-bZfmqTZ-d2k_112.mp4	0.0	376.2584710121155	0.2838928699493408
74	204.6662049293518	response	0	2		72.0	2.5	/experiments/knapen_aot/videos/S_yt-bZfmqTZ-d2k_112.mp4	0.0	376.526074886322	
74	204.6824939250946	movie	1		301.0	72.0	2.5	/experiments/knapen_aot/videos/S_yt-bZfmqTZ-d2k_112.mp4	0.0	376.5423638820648	2.5078439712524414
74	207.19033789634705	fix_post	2		12.0	72.0	2.5	/experiments/knapen_aot/videos/S_yt-bZfmqTZ-d2k_112.mp4	0.0	379.05020785331726	0.09994006156921387
75	207.29027795791626	fix_pre	0		11.0	73.0	2.5	/experiments/knapen_aot/videos/R_S_pexels-yaroslav-shuraev-8091356.mp4	0.0	379.1501479148865	0.09164690971374512
75	207.37368202209473	response	0	2		73.0	2.5	/experiments/knapen_aot/videos/R_S_pexels-yaroslav-shuraev-8091356.mp4	0.0	379.23355197906494	
75	207.38192486763	movie	1		199.0	73.0	2.5	/experiments/knapen_aot/videos/R_S_pexels-yaroslav-shuraev-8091356.mp4	0.0	379.2417948246002	2.5083911418914795
75	209.89031600952148	fix_post	2		12.0	73.0	2.5	/experiments/knapen_aot/videos/R_S_pexels-yaroslav-shuraev-8091356.mp4	0.0	381.7501859664917	0.10001993179321289
75	209.95713996887207	response	2	2		73.0	2.5	/experiments/knapen_aot/videos/R_S_pexels-yaroslav-shuraev-8091356.mp4	0.0	381.8170099258423	
76	209.9903359413147	fix_pre	0		61.0	74.0	2.5	/experiments/knapen_aot/videos/S_bing-www_cnet_com_videos_amazon-wants-to-put-alexa-on-your-pc__50.mp4	0.0	381.8502058982849	0.5082499980926514
76	210.49039793014526	response	0	2		74.0	2.5	/experiments/knapen_aot/videos/S_bing-www_cnet_com_videos_amazon-wants-to-put-alexa-on-your-pc__50.mp4	0.0	382.3502678871155	
76	210.49858593940735	movie	1		166.0	74.0	2.5	/experiments/knapen_aot/videos/S_bing-www_cnet_com_videos_amazon-wants-to-put-alexa-on-your-pc__50.mp4	0.0	382.35845589637756	2.5083041191101074
76	213.00689005851746	fix_post	2		12.0	74.0	2.5	/experiments/knapen_aot/videos/S_bing-www_cnet_com_videos_amazon-wants-to-put-alexa-on-your-pc__50.mp4	0.0	384.86676001548767	0.10009098052978516
77	213.10698103904724	fix_pre	0		10.0	75.0	2.5	/experiments/knapen_aot/videos/S_I003_C008_SDR_2K_AVC.mp4	0.0	384.96685099601746	0.08323383331298828
77	213.18208003044128	response	0	2		75.0	2.5	/experiments/knapen_aot/videos/S_I003_C008_SDR_2K_AVC.mp4	0.0	385.0419499874115	
77	213.19021487236023	movie	1		172.0	75.0	2.5	/experiments/knapen_aot/videos/S_I003_C008_SDR_2K_AVC.mp4	0.0	385.05008482933044	2.5083961486816406
77	215.69861102104187	fix_post	2		12.0	75.0	2.5	/experiments/knapen_aot/videos/S_I003_C008_SDR_2K_AVC.mp4	0.0	387.5584809780121	0.09993886947631836
77	215.7070288658142	response	2	2		75.0	2.5	/experiments/knapen_aot/videos/S_I003_C008_SDR_2K_AVC.mp4	0.0	387.5668988227844	
78	215.7985498905182	fix_pre	0		47.0	76.0	2.5	/experiments/knapen_aot/videos/R_S_yt-xNITUMXoU0g_9.mp4	0.0	387.6584198474884	0.39170217514038086
78	216.18201684951782	response	0	2		76.0	2.5	/experiments/knapen_aot/videos/R_S_yt-xNITUMXoU0g_9.mp4	0.0	388.04188680648804	
78	216.19025206565857	movie	1		301.0	76.0	2.5	/experiments/knapen_aot/videos/R_S_yt-xNITUMXoU0g_9.mp4	0.0	388.0501220226288	2.508293867111206
78	218.69036507606506	response	1	2		76.0	2.5	/experiments/knapen_aot/videos/R_S_yt-xNITUMXoU0g_9.mp4	0.0	390.5502350330353	
78	218.69854593276978	fix_post	2		12.0	76.0	2.5	/experiments/knapen_aot/videos/R_S_yt-xNITUMXoU0g_9.mp4	0.0	390.55841588974	0.09999895095825195
79	218.79854488372803	fix_pre	0		28.0	77.0	2.5	blank	1.0	390.65841484069824	0.23331117630004883
79	219.02369594573975	response	0	2		77.0	2.5	blank	1.0	390.88356590270996	
79	219.03185606002808	movie	1		301.0	77.0	2.5	blank	1.0	390.8917260169983	2.5084428787231445
79	221.54029893875122	fix_post	2		12.0	77.0	2.5	blank	1.0	393.40016889572144	0.09992694854736328
80	221.64022588729858	fix_pre	0		28.0	78.0	2.5	/experiments/knapen_aot/videos/R_S_yt-YLcmfyfIokU_64.mp4	0.0	393.5000958442688	0.23328018188476562
80	221.86540699005127	response	0	2		78.0	2.5	/experiments/knapen_aot/videos/R_S_yt-YLcmfyfIokU_64.mp4	0.0	393.7252769470215	
80	221.87350606918335	movie	1		301.0	78.0	2.5	/experiments/knapen_aot/videos/R_S_yt-YLcmfyfIokU_64.mp4	0.0	393.73337602615356	2.5083329677581787
80	224.38183903694153	fix_post	2		12.0	78.0	2.5	/experiments/knapen_aot/videos/R_S_yt-YLcmfyfIokU_64.mp4	0.0	396.24170899391174	0.10006594657897949
81	224.4819049835205	fix_pre	0		4.0	79.0	2.5	/experiments/knapen_aot/videos/R_S_comp_1223LV_FLARE_v21_SDR_PS_FINAL_20180709_F0F5700_SDR_2K_AVC.mp4	0.0	396.3417749404907	0.03450608253479004
81	224.50702786445618	response	0	2		79.0	2.5	/experiments/knapen_aot/videos/R_S_comp_1223LV_FLARE_v21_SDR_PS_FINAL_20180709_F0F5700_SDR_2K_AVC.mp4	0.0	396.3668978214264	
81	224.5164110660553	movie	1		168.0	79.0	2.5	/experiments/knapen_aot/videos/R_S_comp_1223LV_FLARE_v21_SDR_PS_FINAL_20180709_F0F5700_SDR_2K_AVC.mp4	0.0	396.3762810230255	2.507077932357788
81	227.0234889984131	fix_post	2		12.0	79.0	2.5	/experiments/knapen_aot/videos/R_S_comp_1223LV_FLARE_v21_SDR_PS_FINAL_20180709_F0F5700_SDR_2K_AVC.mp4	0.0	398.8833589553833	0.1000220775604248
81	227.1153290271759	response	2	2		79.0	2.5	/experiments/knapen_aot/videos/R_S_comp_1223LV_FLARE_v21_SDR_PS_FINAL_20180709_F0F5700_SDR_2K_AVC.mp4	0.0	398.9751989841461	
82	227.1235110759735	fix_pre	0		40.0	80.0	2.5	/experiments/knapen_aot/videos/S_CR_A009_C007_SDR_20191113_SDR_2K_AVC.mp4	0.0	398.9833810329437	0.333359956741333
82	227.44863986968994	response	0	2		80.0	2.5	/experiments/knapen_aot/videos/S_CR_A009_C007_SDR_20191113_SDR_2K_AVC.mp4	0.0	399.30850982666016	
82	227.45687103271484	movie	1		164.0	80.0	2.5	/experiments/knapen_aot/videos/S_CR_A009_C007_SDR_20191113_SDR_2K_AVC.mp4	0.0	399.31674098968506	2.508302927017212
82	229.96517395973206	fix_post	2		12.0	80.0	2.5	/experiments/knapen_aot/videos/S_CR_A009_C007_SDR_20191113_SDR_2K_AVC.mp4	0.0	401.82504391670227	0.09994006156921387
83	230.06511402130127	fix_pre	0		17.0	81.0	2.5	/experiments/knapen_aot/videos/S_yt-kkbtZP78JxQ_96.mp4	0.0	401.9249839782715	0.14182806015014648
83	230.19858503341675	response	0	2		81.0	2.5	/experiments/knapen_aot/videos/S_yt-kkbtZP78JxQ_96.mp4	0.0	402.05845499038696	
83	230.20694208145142	movie	1		301.0	81.0	2.5	/experiments/knapen_aot/videos/S_yt-kkbtZP78JxQ_96.mp4	0.0	402.06681203842163	2.5082099437713623
83	232.71515202522278	fix_post	2		12.0	81.0	2.5	/experiments/knapen_aot/videos/S_yt-kkbtZP78JxQ_96.mp4	0.0	404.575021982193	0.10003089904785156
84	232.81518292427063	fix_pre	0		7.0	82.0	2.5	/experiments/knapen_aot/videos/S_production_ID_4707837.mp4	0.0	404.67505288124084	0.05829310417175293
84	232.86529397964478	response	0	2		82.0	2.5	/experiments/knapen_aot/videos/S_production_ID_4707837.mp4	0.0	404.725163936615	
84	232.87347602844238	movie	1		169.0	82.0	2.5	/experiments/knapen_aot/videos/S_production_ID_4707837.mp4	0.0	404.7333459854126	2.5083420276641846
84	235.38181805610657	fix_post	2		12.0	82.0	2.5	/experiments/knapen_aot/videos/S_production_ID_4707837.mp4	0.0	407.2416880130768	0.1000359058380127
85	235.48185396194458	fix_pre	0		4.0	83.0	2.5	blank	1.0	407.3417239189148	0.03408408164978027
85	235.50698590278625	response	0	2		83.0	2.5	blank	1.0	407.36685585975647	
85	235.51593804359436	movie	1		301.0	83.0	2.5	blank	1.0	407.3758080005646	2.5075478553771973
85	238.02348589897156	fix_post	2		12.0	83.0	2.5	blank	1.0	409.8833558559418	0.10002613067626953
87	238.12351202964783	stim	0		127.0					409.98338198661804	1.0587248802185059
87	238.29024696350098	response	0	2						410.1501169204712	
87	239.1785318851471	response	0	space						411.0384018421173	
