trial_nr	onset	event_type	phase	response	nr_frames	movie_index	movie_duration	movie_file	blank	onset_abs	duration
0	0.13155484199523926	stim	0		183.0					187.97884893417358	1.527461051940918
0	1.649940013885498	response	0	space						189.49723410606384	
1	1.6590158939361572	stim	0		121.0					189.5063099861145	1.0073959827423096
1	2.666411876678467	stim	1		120.0					190.5137059688568	0.9999120235443115
2	3.6663239002227783	fix_pre	0		106.0	0.0	2.5	/experiments/knapen_aot/videos/R_S_yt-uT4MXm0UBJM_64.mp4	0.0	191.51361799240112	0.8884201049804688
2	4.546904802322388	response	0	2		0.0	2.5	/experiments/knapen_aot/videos/R_S_yt-uT4MXm0UBJM_64.mp4	0.0	192.39419889450073	
2	4.554744005203247	movie	1		297.0	0.0	2.5	/experiments/knapen_aot/videos/R_S_yt-uT4MXm0UBJM_64.mp4	0.0	192.4020380973816	2.5032148361206055
2	7.0579588413238525	fix_post	2		12.0	0.0	2.5	/experiments/knapen_aot/videos/R_S_yt-uT4MXm0UBJM_64.mp4	0.0	194.9052529335022	0.10004615783691406
3	7.158004999160767	fix_pre	0		39.0	1.0	2.5	/experiments/knapen_aot/videos/R_S_yt-UPgF4YAHBQY_33.mp4	0.0	195.0052990913391	0.32499194145202637
3	7.474853992462158	response	0	2		1.0	2.5	/experiments/knapen_aot/videos/R_S_yt-UPgF4YAHBQY_33.mp4	0.0	195.3221480846405	
3	7.482996940612793	movie	1		301.0	1.0	2.5	/experiments/knapen_aot/videos/R_S_yt-UPgF4YAHBQY_33.mp4	0.0	195.33029103279114	2.508401870727539
3	9.991398811340332	fix_post	2		12.0	1.0	2.5	/experiments/knapen_aot/videos/R_S_yt-UPgF4YAHBQY_33.mp4	0.0	197.83869290351868	0.09997820854187012
4	10.091377019882202	fix_pre	0		95.0	2.0	2.5	/experiments/knapen_aot/videos/R_S_yt-bH4nJibL4Jo_164.mp4	0.0	197.93867111206055	0.7915439605712891
4	10.874810934066772	response	0	2		2.0	2.5	/experiments/knapen_aot/videos/R_S_yt-bH4nJibL4Jo_164.mp4	0.0	198.72210502624512	
4	10.882920980453491	movie	1		301.0	2.0	2.5	/experiments/knapen_aot/videos/R_S_yt-bH4nJibL4Jo_164.mp4	0.0	198.73021507263184	2.508600950241089
4	13.39152193069458	fix_post	2		12.0	2.0	2.5	/experiments/knapen_aot/videos/R_S_yt-bH4nJibL4Jo_164.mp4	0.0	201.23881602287292	0.09984993934631348
5	13.491371870040894	fix_pre	0		47.0	3.0	2.5	/experiments/knapen_aot/videos/S_yt-H3EadcgKySM_58.mp4	0.0	201.33866596221924	0.3916139602661133
5	13.874745845794678	response	0	2		3.0	2.5	/experiments/knapen_aot/videos/S_yt-H3EadcgKySM_58.mp4	0.0	201.72203993797302	
5	13.882985830307007	movie	1		301.0	3.0	2.5	/experiments/knapen_aot/videos/S_yt-H3EadcgKySM_58.mp4	0.0	201.73027992248535	2.5083701610565186
5	16.391355991363525	fix_post	2		12.0	3.0	2.5	/experiments/knapen_aot/videos/S_yt-H3EadcgKySM_58.mp4	0.0	204.23865008354187	0.09991693496704102
6	16.491272926330566	fix_pre	0		103.0	4.0	2.5	/experiments/knapen_aot/videos/R_S_yt-Pc1ZlCvsPpc_5.mp4	0.0	204.3385670185089	0.8583099842071533
6	17.341436862945557	response	0	2		4.0	2.5	/experiments/knapen_aot/videos/R_S_yt-Pc1ZlCvsPpc_5.mp4	0.0	205.1887309551239	
6	17.34958291053772	movie	1		301.0	4.0	2.5	/experiments/knapen_aot/videos/R_S_yt-Pc1ZlCvsPpc_5.mp4	0.0	205.19687700271606	2.5083580017089844
6	19.74541687965393	response	1	2		4.0	2.5	/experiments/knapen_aot/videos/R_S_yt-Pc1ZlCvsPpc_5.mp4	0.0	207.59271097183228	
6	19.857940912246704	fix_post	2		12.0	4.0	2.5	/experiments/knapen_aot/videos/R_S_yt-Pc1ZlCvsPpc_5.mp4	0.0	207.70523500442505	0.10003995895385742
7	19.95798087120056	fix_pre	0		116.0	5.0	2.5	/experiments/knapen_aot/videos/S_ILSVRC2015_train_00278004.mp4	0.0	207.8052749633789	0.9666140079498291
7	20.916401863098145	response	0	2		5.0	2.5	/experiments/knapen_aot/videos/S_ILSVRC2015_train_00278004.mp4	0.0	208.7636959552765	
7	20.92459487915039	movie	1		301.0	5.0	2.5	/experiments/knapen_aot/videos/S_ILSVRC2015_train_00278004.mp4	0.0	208.77188897132874	2.5083789825439453
7	23.432973861694336	fix_post	2		12.0	5.0	2.5	/experiments/knapen_aot/videos/S_ILSVRC2015_train_00278004.mp4	0.0	211.28026795387268	0.10004115104675293
8	23.53301501274109	fix_pre	0		31.0	6.0	2.5	blank	1.0	211.38030910491943	0.2583119869232178
8	23.783034801483154	response	0	2		6.0	2.5	blank	1.0	211.6303288936615	
8	23.791326999664307	movie	1		301.0	6.0	2.5	blank	1.0	211.63862109184265	2.508415937423706
8	25.974730968475342	response	1	2		6.0	2.5	blank	1.0	213.8220250606537	
8	26.299742937088013	fix_post	2		12.0	6.0	2.5	blank	1.0	214.14703702926636	0.10007309913635254
9	26.399816036224365	fix_pre	0		27.0	7.0	2.5	/experiments/knapen_aot/videos/S_yt-NQSCGMpo-p8_118.mp4	0.0	214.2471101284027	0.22480297088623047
9	26.60884189605713	response	0	2		7.0	2.5	/experiments/knapen_aot/videos/S_yt-NQSCGMpo-p8_118.mp4	0.0	214.45613598823547	
9	26.624619007110596	movie	1		301.0	7.0	2.5	/experiments/knapen_aot/videos/S_yt-NQSCGMpo-p8_118.mp4	0.0	214.47191309928894	2.5083298683166504
9	29.132948875427246	fix_post	2		12.0	7.0	2.5	/experiments/knapen_aot/videos/S_yt-NQSCGMpo-p8_118.mp4	0.0	216.9802429676056	0.10003209114074707
10	29.232980966567993	fix_pre	0		47.0	8.0	2.5	/experiments/knapen_aot/videos/R_S_yt-jbvXEFk2Gyw_12.mp4	0.0	217.08027505874634	0.39159393310546875
10	29.616370916366577	response	0	2		8.0	2.5	/experiments/knapen_aot/videos/R_S_yt-jbvXEFk2Gyw_12.mp4	0.0	217.46366500854492	
10	29.624574899673462	movie	1		301.0	8.0	2.5	/experiments/knapen_aot/videos/R_S_yt-jbvXEFk2Gyw_12.mp4	0.0	217.4718689918518	2.5083820819854736
10	32.132956981658936	fix_post	2		12.0	8.0	2.5	/experiments/knapen_aot/videos/R_S_yt-jbvXEFk2Gyw_12.mp4	0.0	219.98025107383728	0.10001087188720703
10	32.14143896102905	response	2	2		8.0	2.5	/experiments/knapen_aot/videos/R_S_yt-jbvXEFk2Gyw_12.mp4	0.0	219.9887330532074	
11	32.23296785354614	fix_pre	0		57.0	9.0	2.5	/experiments/knapen_aot/videos/S_ILSVRC2015_train_00001009.mp4	0.0	220.0802619457245	0.4749610424041748
11	32.699625968933105	response	0	2		9.0	2.5	/experiments/knapen_aot/videos/S_ILSVRC2015_train_00001009.mp4	0.0	220.54692006111145	
11	32.70792889595032	movie	1		301.0	9.0	2.5	/experiments/knapen_aot/videos/S_ILSVRC2015_train_00001009.mp4	0.0	220.55522298812866	2.508327007293701
11	35.21625590324402	fix_post	2		12.0	9.0	2.5	/experiments/knapen_aot/videos/S_ILSVRC2015_train_00001009.mp4	0.0	223.06354999542236	0.0999460220336914
12	35.31620192527771	fix_pre	0		119.0	10.0	2.5	/experiments/knapen_aot/videos/S_nvbAwZOKBS8_23.mp4	0.0	223.16349601745605	0.991642951965332
12	36.2997100353241	response	0	2		10.0	2.5	/experiments/knapen_aot/videos/S_nvbAwZOKBS8_23.mp4	0.0	224.14700412750244	
12	36.30784487724304	movie	1		301.0	10.0	2.5	/experiments/knapen_aot/videos/S_nvbAwZOKBS8_23.mp4	0.0	224.1551389694214	2.508402109146118
12	38.81624698638916	fix_post	2		12.0	10.0	2.5	/experiments/knapen_aot/videos/S_nvbAwZOKBS8_23.mp4	0.0	226.6635410785675	0.1000218391418457
13	38.916268825531006	fix_pre	0		26.0	11.0	2.5	/experiments/knapen_aot/videos/S_yt-IlW1U39Dga4_5.mp4	0.0	226.76356291770935	0.21665406227111816
13	39.12467980384827	response	0	2		11.0	2.5	/experiments/knapen_aot/videos/S_yt-IlW1U39Dga4_5.mp4	0.0	226.9719738960266	
13	39.132922887802124	movie	1		301.0	11.0	2.5	/experiments/knapen_aot/videos/S_yt-IlW1U39Dga4_5.mp4	0.0	226.98021697998047	2.508371114730835
13	41.64129400253296	fix_post	2		12.0	11.0	2.5	/experiments/knapen_aot/videos/S_yt-IlW1U39Dga4_5.mp4	0.0	229.4885880947113	0.09998202323913574
14	41.741276025772095	fix_pre	0		40.0	12.0	2.5	/experiments/knapen_aot/videos/S_bing-www_break_com_video_like-a-cat-catching-a-fly-3131008_12.mp4	0.0	229.58857011795044	0.33408379554748535
14	42.06639099121094	response	0	2		12.0	2.5	/experiments/knapen_aot/videos/S_bing-www_break_com_video_like-a-cat-catching-a-fly-3131008_12.mp4	0.0	229.91368508338928	
14	42.07535982131958	movie	1		301.0	12.0	2.5	/experiments/knapen_aot/videos/S_bing-www_break_com_video_like-a-cat-catching-a-fly-3131008_12.mp4	0.0	229.92265391349792	2.507517099380493
14	44.58287692070007	fix_post	2		12.0	12.0	2.5	/experiments/knapen_aot/videos/S_bing-www_break_com_video_like-a-cat-catching-a-fly-3131008_12.mp4	0.0	232.43017101287842	0.10001206398010254
15	44.682888984680176	fix_pre	0		287.0	13.0	2.5	/experiments/knapen_aot/videos/S_yt-o_CT2MjZ9fA_216.mp4	0.0	232.53018307685852	2.3924379348754883
15	47.06636190414429	response	0	2		13.0	2.5	/experiments/knapen_aot/videos/S_yt-o_CT2MjZ9fA_216.mp4	0.0	234.91365599632263	
15	47.075326919555664	movie	1		301.0	13.0	2.5	/experiments/knapen_aot/videos/S_yt-o_CT2MjZ9fA_216.mp4	0.0	234.922621011734	2.5075860023498535
15	49.58291292190552	fix_post	2		12.0	13.0	2.5	/experiments/knapen_aot/videos/S_yt-o_CT2MjZ9fA_216.mp4	0.0	237.43020701408386	0.0999600887298584
16	49.682873010635376	fix_pre	0		25.0	14.0	2.5	blank	1.0	237.53016710281372	0.20830202102661133
16	49.88297891616821	response	0	2		14.0	2.5	blank	1.0	237.73027300834656	
16	49.89117503166199	movie	1		301.0	14.0	2.5	blank	1.0	237.73846912384033	2.5084779262542725
16	52.39965295791626	fix_post	2		12.0	14.0	2.5	blank	1.0	240.2469470500946	0.09986186027526855
17	52.49951481819153	fix_pre	0		312.0	15.0	2.5	/experiments/knapen_aot/videos/R_S_yt-Tn563IPZfg4_55.mp4	0.0	240.34680891036987	2.5998990535736084
17	55.091208934783936	response	0	2		15.0	2.5	/experiments/knapen_aot/videos/R_S_yt-Tn563IPZfg4_55.mp4	0.0	242.93850302696228	
17	55.09941387176514	movie	1		301.0	15.0	2.5	/experiments/knapen_aot/videos/R_S_yt-Tn563IPZfg4_55.mp4	0.0	242.94670796394348	2.5083611011505127
17	57.60777497291565	fix_post	2		12.0	15.0	2.5	/experiments/knapen_aot/videos/R_S_yt-Tn563IPZfg4_55.mp4	0.0	245.455069065094	0.10008597373962402
18	57.70786094665527	fix_pre	0		236.0	16.0	2.5	/experiments/knapen_aot/videos/R_S_yt-qxtmtMnUfD0_124.mp4	0.0	245.55515503883362	1.9665958881378174
18	59.666284799575806	response	0	2		16.0	2.5	/experiments/knapen_aot/videos/R_S_yt-qxtmtMnUfD0_124.mp4	0.0	247.51357889175415	
18	59.67445683479309	movie	1		301.0	16.0	2.5	/experiments/knapen_aot/videos/R_S_yt-qxtmtMnUfD0_124.mp4	0.0	247.52175092697144	2.508467197418213
18	62.182924032211304	fix_post	2		12.0	16.0	2.5	/experiments/knapen_aot/videos/R_S_yt-qxtmtMnUfD0_124.mp4	0.0	250.03021812438965	0.09993886947631836
19	62.28286290168762	fix_pre	0		58.0	17.0	2.5	/experiments/knapen_aot/videos/S_yt-QXsedpZh800_275.mp4	0.0	250.13015699386597	0.48328399658203125
19	62.757818937301636	response	0	2		17.0	2.5	/experiments/knapen_aot/videos/S_yt-QXsedpZh800_275.mp4	0.0	250.60511302947998	
19	62.76614689826965	movie	1		301.0	17.0	2.5	/experiments/knapen_aot/videos/S_yt-QXsedpZh800_275.mp4	0.0	250.613440990448	2.508366107940674
19	65.27451300621033	fix_post	2		12.0	17.0	2.5	/experiments/knapen_aot/videos/S_yt-QXsedpZh800_275.mp4	0.0	253.12180709838867	0.09997296333312988
20	65.37448596954346	fix_pre	0		36.0	18.0	2.5	/experiments/knapen_aot/videos/R_S_production_ID_5144823.mp4	0.0	253.2217800617218	0.2999739646911621
20	65.66623187065125	response	0	2		18.0	2.5	/experiments/knapen_aot/videos/R_S_production_ID_5144823.mp4	0.0	253.5135259628296	
20	65.67445993423462	movie	1		168.0	18.0	2.5	/experiments/knapen_aot/videos/R_S_production_ID_5144823.mp4	0.0	253.52175402641296	2.50827693939209
20	67.14132595062256	response	1	2		18.0	2.5	/experiments/knapen_aot/videos/R_S_production_ID_5144823.mp4	0.0	254.9886200428009	
20	68.18273687362671	fix_post	2		12.0	18.0	2.5	/experiments/knapen_aot/videos/R_S_production_ID_5144823.mp4	0.0	256.03003096580505	0.10012197494506836
21	68.28285884857178	fix_pre	0		14.0	19.0	2.5	/experiments/knapen_aot/videos/S_yt-rafmq6Ydoc8_15.mp4	0.0	256.1301529407501	0.11653614044189453
21	68.3912889957428	response	0	2		19.0	2.5	/experiments/knapen_aot/videos/S_yt-rafmq6Ydoc8_15.mp4	0.0	256.23858308792114	
21	68.39939498901367	movie	1		301.0	19.0	2.5	/experiments/knapen_aot/videos/S_yt-rafmq6Ydoc8_15.mp4	0.0	256.246689081192	2.5084028244018555
21	70.90779781341553	fix_post	2		12.0	19.0	2.5	/experiments/knapen_aot/videos/S_yt-rafmq6Ydoc8_15.mp4	0.0	258.7550919055939	0.09995698928833008
22	71.00775480270386	fix_pre	0		29.0	20.0	2.5	/experiments/knapen_aot/videos/R_S_pexels-cottonbro-10640532.mp4	0.0	258.8550488948822	0.2417011260986328
22	71.24116683006287	response	0	2		20.0	2.5	/experiments/knapen_aot/videos/R_S_pexels-cottonbro-10640532.mp4	0.0	259.0884609222412	
22	71.24945592880249	movie	1		196.0	20.0	2.5	/experiments/knapen_aot/videos/R_S_pexels-cottonbro-10640532.mp4	0.0	259.09675002098083	2.5083260536193848
22	73.75778198242188	fix_post	2		12.0	20.0	2.5	/experiments/knapen_aot/videos/R_S_pexels-cottonbro-10640532.mp4	0.0	261.6050760746002	0.1000208854675293
23	73.8578028678894	fix_pre	0		39.0	21.0	2.5	blank	1.0	261.70509696006775	0.32503700256347656
23	74.17456793785095	response	0	2		21.0	2.5	blank	1.0	262.0218620300293	
23	74.18283987045288	movie	1		301.0	21.0	2.5	blank	1.0	262.0301339626312	2.5083119869232178
23	75.74950790405273	response	1	2		21.0	2.5	blank	1.0	263.5968019962311	
23	76.6911518573761	fix_post	2		12.0	21.0	2.5	blank	1.0	264.53844594955444	0.1000370979309082
24	76.791188955307	fix_pre	0		29.0	22.0	2.5	/experiments/knapen_aot/videos/S_yt-xNITUMXoU0g_9.mp4	0.0	264.63848304748535	0.24213290214538574
24	77.024582862854	response	0	2		22.0	2.5	/experiments/knapen_aot/videos/S_yt-xNITUMXoU0g_9.mp4	0.0	264.87187695503235	
24	77.03332185745239	movie	1		301.0	22.0	2.5	/experiments/knapen_aot/videos/S_yt-xNITUMXoU0g_9.mp4	0.0	264.88061594963074	2.5077431201934814
24	79.54106497764587	fix_post	2		12.0	22.0	2.5	/experiments/knapen_aot/videos/S_yt-xNITUMXoU0g_9.mp4	0.0	267.3883590698242	0.10008883476257324
25	79.64115381240845	fix_pre	0		39.0	23.0	2.5	/experiments/knapen_aot/videos/R_S_yt-OLDm2slgfA4_3.mp4	0.0	267.4884479045868	0.3248631954193115
25	79.95783400535583	response	0	2		23.0	2.5	/experiments/knapen_aot/videos/R_S_yt-OLDm2slgfA4_3.mp4	0.0	267.8051280975342	
25	79.96601700782776	movie	1		301.0	23.0	2.5	/experiments/knapen_aot/videos/R_S_yt-OLDm2slgfA4_3.mp4	0.0	267.8133111000061	2.508373975753784
25	82.47439098358154	fix_post	2		12.0	23.0	2.5	/experiments/knapen_aot/videos/R_S_yt-OLDm2slgfA4_3.mp4	0.0	270.3216850757599	0.10006093978881836
26	82.57445192337036	fix_pre	0		36.0	24.0	2.5	/experiments/knapen_aot/videos/R_S_yt-8aJDzfAaArQ_75.mp4	0.0	270.4217460155487	0.2999448776245117
26	82.86627388000488	response	0	2		24.0	2.5	/experiments/knapen_aot/videos/R_S_yt-8aJDzfAaArQ_75.mp4	0.0	270.7135679721832	
26	82.87439680099487	movie	1		301.0	24.0	2.5	/experiments/knapen_aot/videos/R_S_yt-8aJDzfAaArQ_75.mp4	0.0	270.7216908931732	2.5083200931549072
26	85.38271689414978	fix_post	2		12.0	24.0	2.5	/experiments/knapen_aot/videos/R_S_yt-8aJDzfAaArQ_75.mp4	0.0	273.2300109863281	0.1000370979309082
27	85.48275399208069	fix_pre	0		14.0	25.0	2.5	/experiments/knapen_aot/videos/R_S_wc-oyG6AjP_W2EL_15.mp4	0.0	273.33004808425903	0.11664986610412598
27	85.59124302864075	response	0	2		25.0	2.5	/experiments/knapen_aot/videos/R_S_wc-oyG6AjP_W2EL_15.mp4	0.0	273.4385371208191	
27	85.59940385818481	movie	1		301.0	25.0	2.5	/experiments/knapen_aot/videos/R_S_wc-oyG6AjP_W2EL_15.mp4	0.0	273.44669795036316	2.5084481239318848
27	88.1078519821167	fix_post	2		12.0	25.0	2.5	/experiments/knapen_aot/videos/R_S_wc-oyG6AjP_W2EL_15.mp4	0.0	275.95514607429504	0.09988689422607422
27	88.15781092643738	response	2	2		25.0	2.5	/experiments/knapen_aot/videos/R_S_wc-oyG6AjP_W2EL_15.mp4	0.0	276.0051050186157	
28	88.20773887634277	fix_pre	0		76.0	26.0	2.5	blank	1.0	276.0550329685211	0.6333191394805908
28	88.8328549861908	response	0	2		26.0	2.5	blank	1.0	276.68014907836914	
28	88.84105801582336	movie	1		301.0	26.0	2.5	blank	1.0	276.6883521080017	2.50839900970459
28	91.34945702552795	fix_post	2		12.0	26.0	2.5	blank	1.0	279.1967511177063	0.10046887397766113
29	91.44992589950562	fix_pre	0		24.0	27.0	2.5	/experiments/knapen_aot/videos/R_S_yt-YTQXM5ZjRgg_116.mp4	0.0	279.29721999168396	0.1994321346282959
29	91.64112997055054	response	0	2		27.0	2.5	/experiments/knapen_aot/videos/R_S_yt-YTQXM5ZjRgg_116.mp4	0.0	279.4884240627289	
29	91.64935803413391	movie	1		301.0	27.0	2.5	/experiments/knapen_aot/videos/R_S_yt-YTQXM5ZjRgg_116.mp4	0.0	279.49665212631226	2.5083189010620117
29	94.15767693519592	fix_post	2		12.0	27.0	2.5	/experiments/knapen_aot/videos/R_S_yt-YTQXM5ZjRgg_116.mp4	0.0	282.00497102737427	0.10001707077026367
30	94.25769400596619	fix_pre	0		160.0	28.0	2.5	/experiments/knapen_aot/videos/S_yt-bTcbsBET7gc_270.mp4	0.0	282.10498809814453	1.3332648277282715
30	95.58277487754822	response	0	2		28.0	2.5	/experiments/knapen_aot/videos/S_yt-bTcbsBET7gc_270.mp4	0.0	283.43006896972656	
30	95.59095883369446	movie	1		301.0	28.0	2.5	/experiments/knapen_aot/videos/S_yt-bTcbsBET7gc_270.mp4	0.0	283.4382529258728	2.508336067199707
30	98.09929490089417	fix_post	2		12.0	28.0	2.5	/experiments/knapen_aot/videos/S_yt-bTcbsBET7gc_270.mp4	0.0	285.9465889930725	0.10001802444458008
31	98.19931292533875	fix_pre	0		208.0	29.0	2.5	/experiments/knapen_aot/videos/R_S_yt-hvuC_2YXsTQ_159.mp4	0.0	286.0466070175171	1.7332770824432373
31	99.92434287071228	response	0	2		29.0	2.5	/experiments/knapen_aot/videos/R_S_yt-hvuC_2YXsTQ_159.mp4	0.0	287.7716369628906	
31	99.93259000778198	movie	1		301.0	29.0	2.5	/experiments/knapen_aot/videos/R_S_yt-hvuC_2YXsTQ_159.mp4	0.0	287.7798840999603	2.5084128379821777
31	102.44100284576416	fix_post	2		12.0	29.0	2.5	/experiments/knapen_aot/videos/R_S_yt-hvuC_2YXsTQ_159.mp4	0.0	290.2882969379425	0.09994697570800781
32	102.54094982147217	fix_pre	0		45.0	30.0	2.5	/experiments/knapen_aot/videos/R_S_yt-ycfVJyrFgB4_15.mp4	0.0	290.3882439136505	0.3749539852142334
32	102.90775394439697	response	0	2		30.0	2.5	/experiments/knapen_aot/videos/R_S_yt-ycfVJyrFgB4_15.mp4	0.0	290.7550480365753	
32	102.9159038066864	movie	1		301.0	30.0	2.5	/experiments/knapen_aot/videos/R_S_yt-ycfVJyrFgB4_15.mp4	0.0	290.76319789886475	2.50850510597229
32	105.42440891265869	fix_post	2		12.0	30.0	2.5	/experiments/knapen_aot/videos/R_S_yt-ycfVJyrFgB4_15.mp4	0.0	293.27170300483704	0.09987998008728027
33	105.52428889274597	fix_pre	0		15.0	31.0	2.5	/experiments/knapen_aot/videos/S_yt-hOtj2y9VWrc_354.mp4	0.0	293.3715829849243	0.1249840259552002
33	105.64096188545227	response	0	2		31.0	2.5	/experiments/knapen_aot/videos/S_yt-hOtj2y9VWrc_354.mp4	0.0	293.4882559776306	
33	105.64927291870117	movie	1		301.0	31.0	2.5	/experiments/knapen_aot/videos/S_yt-hOtj2y9VWrc_354.mp4	0.0	293.4965670108795	2.5083510875701904
33	108.15762400627136	fix_post	2		12.0	31.0	2.5	/experiments/knapen_aot/videos/S_yt-hOtj2y9VWrc_354.mp4	0.0	296.0049180984497	0.0999917984008789
34	108.25761580467224	fix_pre	0		57.0	32.0	2.5	/experiments/knapen_aot/videos/R_S_ILSVRC2015_train_00165013.mp4	0.0	296.1049098968506	0.4749770164489746
34	108.72438192367554	response	0	2		32.0	2.5	/experiments/knapen_aot/videos/R_S_ILSVRC2015_train_00165013.mp4	0.0	296.5716760158539	
34	108.73259282112122	movie	1		301.0	32.0	2.5	/experiments/knapen_aot/videos/R_S_ILSVRC2015_train_00165013.mp4	0.0	296.57988691329956	2.508388042449951
34	111.24098086357117	fix_post	2		12.0	32.0	2.5	/experiments/knapen_aot/videos/R_S_ILSVRC2015_train_00165013.mp4	0.0	299.0882749557495	0.09996914863586426
35	111.34095001220703	fix_pre	0		38.0	33.0	2.5	/experiments/knapen_aot/videos/S_yt-ycfVJyrFgB4_15.mp4	0.0	299.1882441043854	0.31707286834716797
35	111.64180994033813	response	0	2		33.0	2.5	/experiments/knapen_aot/videos/S_yt-ycfVJyrFgB4_15.mp4	0.0	299.4891040325165	
35	111.6580228805542	movie	1		301.0	33.0	2.5	/experiments/knapen_aot/videos/S_yt-ycfVJyrFgB4_15.mp4	0.0	299.50531697273254	2.5079360008239746
35	114.16595888137817	fix_post	2		12.0	33.0	2.5	/experiments/knapen_aot/videos/S_yt-ycfVJyrFgB4_15.mp4	0.0	302.0132529735565	0.10011911392211914
36	114.2660779953003	fix_pre	0		78.0	34.0	2.5	blank	1.0	302.11337208747864	0.6497619152069092
36	114.90771102905273	response	0	2		34.0	2.5	blank	1.0	302.7550051212311	
36	114.9158399105072	movie	1		301.0	34.0	2.5	blank	1.0	302.76313400268555	2.5084309577941895
36	117.42427086830139	fix_post	2		12.0	34.0	2.5	blank	1.0	305.27156496047974	0.10022616386413574
37	117.52449703216553	fix_pre	0		81.0	35.0	2.5	/experiments/knapen_aot/videos/S_yt-UzWRbs9Syf4_7.mp4	0.0	305.3717911243439	0.6750719547271729
37	118.19103598594666	response	0	2		35.0	2.5	/experiments/knapen_aot/videos/S_yt-UzWRbs9Syf4_7.mp4	0.0	306.038330078125	
37	118.1995689868927	movie	1		301.0	35.0	2.5	/experiments/knapen_aot/videos/S_yt-UzWRbs9Syf4_7.mp4	0.0	306.04686307907104	2.508201837539673
37	120.70777082443237	fix_post	2		12.0	35.0	2.5	/experiments/knapen_aot/videos/S_yt-UzWRbs9Syf4_7.mp4	0.0	308.5550649166107	0.09983420372009277
38	120.80760502815247	fix_pre	0		30.0	36.0	2.5	/experiments/knapen_aot/videos/S_comp_L004_C011_PS_v01_SDR_PS_20180925_SDR_2K_AVC.mp4	0.0	308.6548991203308	0.2499690055847168
38	121.04931592941284	response	0	2		36.0	2.5	/experiments/knapen_aot/videos/S_comp_L004_C011_PS_v01_SDR_PS_20180925_SDR_2K_AVC.mp4	0.0	308.8966100215912	
38	121.05757403373718	movie	1		163.0	36.0	2.5	/experiments/knapen_aot/videos/S_comp_L004_C011_PS_v01_SDR_PS_20180925_SDR_2K_AVC.mp4	0.0	308.9048681259155	2.508382797241211
38	123.5659568309784	fix_post	2		12.0	36.0	2.5	/experiments/knapen_aot/videos/S_comp_L004_C011_PS_v01_SDR_PS_20180925_SDR_2K_AVC.mp4	0.0	311.41325092315674	0.10002899169921875
39	123.66598582267761	fix_pre	0		4.0	37.0	2.5	/experiments/knapen_aot/videos/S_wc-dwTccI0TNwps_15.mp4	0.0	311.51327991485596	0.03381919860839844
39	123.69102501869202	response	0	2		37.0	2.5	/experiments/knapen_aot/videos/S_wc-dwTccI0TNwps_15.mp4	0.0	311.53831911087036	
39	123.69980502128601	movie	1		301.0	37.0	2.5	/experiments/knapen_aot/videos/S_wc-dwTccI0TNwps_15.mp4	0.0	311.54709911346436	2.5078158378601074
39	126.20762085914612	fix_post	2		12.0	37.0	2.5	/experiments/knapen_aot/videos/S_wc-dwTccI0TNwps_15.mp4	0.0	314.05491495132446	0.09996414184570312
40	126.30758500099182	fix_pre	0		51.0	38.0	2.5	/experiments/knapen_aot/videos/S_yt-GjFQxAklviE_25.mp4	0.0	314.15487909317017	0.42497682571411133
40	126.72431588172913	response	0	2		38.0	2.5	/experiments/knapen_aot/videos/S_yt-GjFQxAklviE_25.mp4	0.0	314.57160997390747	
40	126.73256182670593	movie	1		301.0	38.0	2.5	/experiments/knapen_aot/videos/S_yt-GjFQxAklviE_25.mp4	0.0	314.5798559188843	2.508371114730835
40	129.24093294143677	fix_post	2		12.0	38.0	2.5	/experiments/knapen_aot/videos/S_yt-GjFQxAklviE_25.mp4	0.0	317.0882270336151	0.09999990463256836
41	129.34093284606934	fix_pre	0		33.0	39.0	2.5	/experiments/knapen_aot/videos/R_S_yt-FzMLLmcD1mE_19.mp4	0.0	317.1882269382477	0.27528810501098633
41	129.60774898529053	response	0	2		39.0	2.5	/experiments/knapen_aot/videos/R_S_yt-FzMLLmcD1mE_19.mp4	0.0	317.4550430774689	
41	129.61622095108032	movie	1		301.0	39.0	2.5	/experiments/knapen_aot/videos/R_S_yt-FzMLLmcD1mE_19.mp4	0.0	317.46351504325867	2.5080490112304688
41	132.1242699623108	fix_post	2		12.0	39.0	2.5	/experiments/knapen_aot/videos/R_S_yt-FzMLLmcD1mE_19.mp4	0.0	319.97156405448914	0.099945068359375
42	132.22421503067017	fix_pre	0		71.0	40.0	2.5	/experiments/knapen_aot/videos/S_yt-roThCERxVCs_133.mp4	0.0	320.0715091228485	0.5917618274688721
42	132.8076388835907	response	0	2		40.0	2.5	/experiments/knapen_aot/videos/S_yt-roThCERxVCs_133.mp4	0.0	320.65493297576904	
42	132.81597685813904	movie	1		301.0	40.0	2.5	/experiments/knapen_aot/videos/S_yt-roThCERxVCs_133.mp4	0.0	320.6632709503174	2.5082411766052246
42	135.32421803474426	fix_post	2		12.0	40.0	2.5	/experiments/knapen_aot/videos/S_yt-roThCERxVCs_133.mp4	0.0	323.1715121269226	0.09998488426208496
43	135.42420291900635	fix_pre	0		106.0	41.0	2.5	/experiments/knapen_aot/videos/S_yt-BAwvfRmE1LU_79.mp4	0.0	323.2714970111847	0.883213996887207
43	136.29926300048828	response	0	2		41.0	2.5	/experiments/knapen_aot/videos/S_yt-BAwvfRmE1LU_79.mp4	0.0	324.1465570926666	
43	136.30741691589355	movie	1		301.0	41.0	2.5	/experiments/knapen_aot/videos/S_yt-BAwvfRmE1LU_79.mp4	0.0	324.1547110080719	2.5084989070892334
43	137.94961094856262	response	1	2		41.0	2.5	/experiments/knapen_aot/videos/S_yt-BAwvfRmE1LU_79.mp4	0.0	325.79690504074097	
43	138.8159158229828	fix_post	2		12.0	41.0	2.5	/experiments/knapen_aot/videos/S_yt-BAwvfRmE1LU_79.mp4	0.0	326.66320991516113	0.09988999366760254
44	138.9158058166504	fix_pre	0		190.0	42.0	2.5	blank	1.0	326.76309990882874	1.583268165588379
44	140.49093198776245	response	0	2		42.0	2.5	blank	1.0	328.3382260799408	
44	140.49907398223877	movie	1		301.0	42.0	2.5	blank	1.0	328.3463680744171	2.5083858966827393
44	142.22414183616638	response	1	2		42.0	2.5	blank	1.0	330.0714359283447	
44	143.0074598789215	fix_post	2		12.0	42.0	2.5	blank	1.0	330.85475397109985	0.10008502006530762
45	143.10754489898682	fix_pre	0		77.0	43.0	2.5	/experiments/knapen_aot/videos/S_yt-JPsTqfqfPIY_319.mp4	0.0	330.95483899116516	0.641542911529541
45	143.740895986557	response	0	2		43.0	2.5	/experiments/knapen_aot/videos/S_yt-JPsTqfqfPIY_319.mp4	0.0	331.58819007873535	
45	143.74908781051636	movie	1		301.0	43.0	2.5	/experiments/knapen_aot/videos/S_yt-JPsTqfqfPIY_319.mp4	0.0	331.5963819026947	2.5084400177001953
45	146.01911687850952	response	1	2		43.0	2.5	/experiments/knapen_aot/videos/S_yt-JPsTqfqfPIY_319.mp4	0.0	333.86641097068787	
45	146.25752782821655	fix_post	2		12.0	43.0	2.5	/experiments/knapen_aot/videos/S_yt-JPsTqfqfPIY_319.mp4	0.0	334.1048219203949	0.10018110275268555
46	146.35770893096924	fix_pre	0		109.0	44.0	2.5	/experiments/knapen_aot/videos/S_yt-MyL1VlXiZa4_25.mp4	0.0	334.2050030231476	0.9080770015716553
46	147.25007390975952	response	0	2		44.0	2.5	/experiments/knapen_aot/videos/S_yt-MyL1VlXiZa4_25.mp4	0.0	335.09736800193787	
46	147.2657859325409	movie	1		301.0	44.0	2.5	/experiments/knapen_aot/videos/S_yt-MyL1VlXiZa4_25.mp4	0.0	335.11308002471924	2.508439064025879
46	149.77422499656677	fix_post	2		12.0	44.0	2.5	/experiments/knapen_aot/videos/S_yt-MyL1VlXiZa4_25.mp4	0.0	337.6215190887451	0.10000085830688477
46	149.79095888137817	response	2	2		44.0	2.5	/experiments/knapen_aot/videos/S_yt-MyL1VlXiZa4_25.mp4	0.0	337.6382529735565	
47	149.87422585487366	fix_pre	0		53.0	45.0	2.5	/experiments/knapen_aot/videos/S_yt-GyMWMiWvuiA_237.mp4	0.0	337.721519947052	0.441540002822876
47	150.3075180053711	response	0	2		45.0	2.5	/experiments/knapen_aot/videos/S_yt-GyMWMiWvuiA_237.mp4	0.0	338.15481209754944	
47	150.31576585769653	movie	1		301.0	45.0	2.5	/experiments/knapen_aot/videos/S_yt-GyMWMiWvuiA_237.mp4	0.0	338.1630599498749	2.5090739727020264
47	152.82483983039856	fix_post	2		12.0	45.0	2.5	/experiments/knapen_aot/videos/S_yt-GyMWMiWvuiA_237.mp4	0.0	340.6721339225769	0.09928703308105469
48	152.92412686347961	fix_pre	0		6.0	46.0	2.5	/experiments/knapen_aot/videos/S_yt-316ecr1BT84_44.mp4	0.0	340.77142095565796	0.04993915557861328
48	152.95852088928223	response	0	2		46.0	2.5	/experiments/knapen_aot/videos/S_yt-316ecr1BT84_44.mp4	0.0	340.80581498146057	
48	152.97406601905823	movie	1		301.0	46.0	2.5	/experiments/knapen_aot/videos/S_yt-316ecr1BT84_44.mp4	0.0	340.8213601112366	2.508504867553711
48	154.7908489704132	response	1	2		46.0	2.5	/experiments/knapen_aot/videos/S_yt-316ecr1BT84_44.mp4	0.0	342.63814306259155	
48	155.48257088661194	fix_post	2		12.0	46.0	2.5	/experiments/knapen_aot/videos/S_yt-316ecr1BT84_44.mp4	0.0	343.3298649787903	0.09988999366760254
49	155.58246088027954	fix_pre	0		111.0	47.0	2.5	/experiments/knapen_aot/videos/S_yt-1V0KJEc4cJ4_203.mp4	0.0	343.4297549724579	0.9249529838562012
49	156.49926280975342	response	0	2		47.0	2.5	/experiments/knapen_aot/videos/S_yt-1V0KJEc4cJ4_203.mp4	0.0	344.34655690193176	
49	156.50741386413574	movie	1		301.0	47.0	2.5	/experiments/knapen_aot/videos/S_yt-1V0KJEc4cJ4_203.mp4	0.0	344.3547079563141	2.508538007736206
49	159.01595187187195	fix_post	2		12.0	47.0	2.5	/experiments/knapen_aot/videos/S_yt-1V0KJEc4cJ4_203.mp4	0.0	346.8632459640503	0.09995698928833008
50	159.11590886116028	fix_pre	0		36.0	48.0	2.5	/experiments/knapen_aot/videos/R_S_comp_A013_C012_0122D6_CC_v01_SDR_PS_FINAL_20180709_SDR_2K_AVC.mp4	0.0	346.9632029533386	0.2997770309448242
50	159.4075038433075	response	0	2		48.0	2.5	/experiments/knapen_aot/videos/R_S_comp_A013_C012_0122D6_CC_v01_SDR_PS_FINAL_20180709_SDR_2K_AVC.mp4	0.0	347.25479793548584	
50	159.4156858921051	movie	1		169.0	48.0	2.5	/experiments/knapen_aot/videos/R_S_comp_A013_C012_0122D6_CC_v01_SDR_PS_FINAL_20180709_SDR_2K_AVC.mp4	0.0	347.26297998428345	2.508427143096924
50	161.3230698108673	response	1	2		48.0	2.5	/experiments/knapen_aot/videos/R_S_comp_A013_C012_0122D6_CC_v01_SDR_PS_FINAL_20180709_SDR_2K_AVC.mp4	0.0	349.17036390304565	
50	161.92411303520203	fix_post	2		12.0	48.0	2.5	/experiments/knapen_aot/videos/R_S_comp_A013_C012_0122D6_CC_v01_SDR_PS_FINAL_20180709_SDR_2K_AVC.mp4	0.0	349.77140712738037	0.09993481636047363
51	162.0240478515625	fix_pre	0		37.0	49.0	2.5	blank	1.0	349.87134194374084	0.30847811698913574
51	162.3166229724884	response	0	2		49.0	2.5	blank	1.0	350.16391706466675	
51	162.33252596855164	movie	1		301.0	49.0	2.5	blank	1.0	350.17982006073	2.50815486907959
51	164.84068083763123	fix_post	2		12.0	49.0	2.5	blank	1.0	352.68797492980957	0.09995007514953613
52	164.94063091278076	fix_pre	0		35.0	50.0	2.5	/experiments/knapen_aot/videos/S_yt-Ek1jcvett9E_33.mp4	0.0	352.7879250049591	0.29163599014282227
52	165.2241349220276	response	0	2		50.0	2.5	/experiments/knapen_aot/videos/S_yt-Ek1jcvett9E_33.mp4	0.0	353.07142901420593	
52	165.23226690292358	movie	1		301.0	50.0	2.5	/experiments/knapen_aot/videos/S_yt-Ek1jcvett9E_33.mp4	0.0	353.07956099510193	2.508584976196289
52	167.74085187911987	fix_post	2		12.0	50.0	2.5	/experiments/knapen_aot/videos/S_yt-Ek1jcvett9E_33.mp4	0.0	355.5881459712982	0.09984707832336426
53	167.84069895744324	fix_pre	0		33.0	51.0	2.5	/experiments/knapen_aot/videos/R_S_xTlFOCRvy68_1564.mp4	0.0	355.6879930496216	0.2750430107116699
53	168.10746383666992	response	0	2		51.0	2.5	/experiments/knapen_aot/videos/R_S_xTlFOCRvy68_1564.mp4	0.0	355.95475792884827	
53	168.1157419681549	movie	1		301.0	51.0	2.5	/experiments/knapen_aot/videos/R_S_xTlFOCRvy68_1564.mp4	0.0	355.96303606033325	2.5083470344543457
53	169.5408809185028	response	1	2		51.0	2.5	/experiments/knapen_aot/videos/R_S_xTlFOCRvy68_1564.mp4	0.0	357.38817501068115	
53	170.62408900260925	fix_post	2		12.0	51.0	2.5	/experiments/knapen_aot/videos/R_S_xTlFOCRvy68_1564.mp4	0.0	358.4713830947876	0.1000208854675293
54	170.72410988807678	fix_pre	0		43.0	52.0	2.5	/experiments/knapen_aot/videos/R_S_yt-fqbi4rGc9dk_65.mp4	0.0	358.5714039802551	0.3583259582519531
54	171.07410097122192	response	0	2		52.0	2.5	/experiments/knapen_aot/videos/R_S_yt-fqbi4rGc9dk_65.mp4	0.0	358.92139506340027	
54	171.08243584632874	movie	1		301.0	52.0	2.5	/experiments/knapen_aot/videos/R_S_yt-fqbi4rGc9dk_65.mp4	0.0	358.9297299385071	2.50864315032959
54	173.59107899665833	fix_post	2		12.0	52.0	2.5	/experiments/knapen_aot/videos/R_S_yt-fqbi4rGc9dk_65.mp4	0.0	361.43837308883667	0.09963583946228027
55	173.6907148361206	fix_pre	0		26.0	53.0	2.5	/experiments/knapen_aot/videos/R_S_yt-t-wpKypNysg_27.mp4	0.0	361.53800892829895	0.2166121006011963
55	173.8991038799286	response	0	2		53.0	2.5	/experiments/knapen_aot/videos/R_S_yt-t-wpKypNysg_27.mp4	0.0	361.74639797210693	
55	173.9073269367218	movie	1		301.0	53.0	2.5	/experiments/knapen_aot/videos/R_S_yt-t-wpKypNysg_27.mp4	0.0	361.75462102890015	2.5083069801330566
55	176.0672538280487	response	1	2		53.0	2.5	/experiments/knapen_aot/videos/R_S_yt-t-wpKypNysg_27.mp4	0.0	363.91454792022705	
55	176.41563391685486	fix_post	2		12.0	53.0	2.5	/experiments/knapen_aot/videos/R_S_yt-t-wpKypNysg_27.mp4	0.0	364.2629280090332	0.10013294219970703
56	176.51576685905457	fix_pre	0		408.0	54.0	2.5	/experiments/knapen_aot/videos/S_yt-K-iCphzt_RE_17.mp4	0.0	364.3630609512329	3.3998169898986816
56	179.90740180015564	response	0	2		54.0	2.5	/experiments/knapen_aot/videos/S_yt-K-iCphzt_RE_17.mp4	0.0	367.754695892334	
56	179.91558384895325	movie	1		301.0	54.0	2.5	/experiments/knapen_aot/videos/S_yt-K-iCphzt_RE_17.mp4	0.0	367.7628779411316	2.5084140300750732
56	182.42399787902832	fix_post	2		12.0	54.0	2.5	/experiments/knapen_aot/videos/S_yt-K-iCphzt_RE_17.mp4	0.0	370.27129197120667	0.09989714622497559
57	182.5238950252533	fix_pre	0		188.0	55.0	2.5	blank	1.0	370.37118911743164	1.5666768550872803
57	184.08234691619873	response	0	2		55.0	2.5	blank	1.0	371.9296410083771	
57	184.09057188034058	movie	1		301.0	55.0	2.5	blank	1.0	371.9378659725189	2.508345127105713
57	186.5989170074463	fix_post	2		12.0	55.0	2.5	blank	1.0	374.44621109962463	0.10026192665100098
58	186.6991789340973	fix_pre	0		14.0	56.0	2.5	/experiments/knapen_aot/videos/R_S_yt-DmlSN7mzczI_62.mp4	0.0	374.54647302627563	0.11641097068786621
58	186.80740094184875	response	0	2		56.0	2.5	/experiments/knapen_aot/videos/R_S_yt-DmlSN7mzczI_62.mp4	0.0	374.6546950340271	
58	186.81558990478516	movie	1		301.0	56.0	2.5	/experiments/knapen_aot/videos/R_S_yt-DmlSN7mzczI_62.mp4	0.0	374.6628839969635	2.508328914642334
58	189.3239188194275	fix_post	2		12.0	56.0	2.5	/experiments/knapen_aot/videos/R_S_yt-DmlSN7mzczI_62.mp4	0.0	377.17121291160583	0.10002398490905762
59	189.42394280433655	fix_pre	0		42.0	57.0	2.5	/experiments/knapen_aot/videos/R_S_video_inspire_italy_como_cerano-dintelvi_006.1080-h264.mp4	0.0	377.2712368965149	0.3499581813812256
59	189.7584159374237	response	0	2		57.0	2.5	/experiments/knapen_aot/videos/R_S_video_inspire_italy_como_cerano-dintelvi_006.1080-h264.mp4	0.0	377.60571002960205	
59	189.77390098571777	movie	1		169.0	57.0	2.5	/experiments/knapen_aot/videos/R_S_video_inspire_italy_como_cerano-dintelvi_006.1080-h264.mp4	0.0	377.6211950778961	2.5083930492401123
59	192.28229403495789	fix_post	2		12.0	57.0	2.5	/experiments/knapen_aot/videos/R_S_video_inspire_italy_como_cerano-dintelvi_006.1080-h264.mp4	0.0	380.12958812713623	0.1001729965209961
60	192.38246703147888	fix_pre	0		149.0	58.0	2.5	/experiments/knapen_aot/videos/S_yt-Ryb0K9lGPrg_5.mp4	0.0	380.2297611236572	1.2413859367370605
60	193.61568188667297	response	0	2		58.0	2.5	/experiments/knapen_aot/videos/S_yt-Ryb0K9lGPrg_5.mp4	0.0	381.4629759788513	
60	193.62385296821594	movie	1		301.0	58.0	2.5	/experiments/knapen_aot/videos/S_yt-Ryb0K9lGPrg_5.mp4	0.0	381.4711470603943	2.5084118843078613
60	196.1322648525238	fix_post	2		12.0	58.0	2.5	/experiments/knapen_aot/videos/S_yt-Ryb0K9lGPrg_5.mp4	0.0	383.97955894470215	0.10010409355163574
61	196.23236894607544	fix_pre	0		328.0	59.0	2.5	/experiments/knapen_aot/videos/R_S_comp_L004_C011_PS_v01_SDR_PS_20180925_SDR_2K_AVC.mp4	0.0	384.0796630382538	2.7331020832061768
61	198.95737099647522	response	0	2		59.0	2.5	/experiments/knapen_aot/videos/R_S_comp_L004_C011_PS_v01_SDR_PS_20180925_SDR_2K_AVC.mp4	0.0	386.80466508865356	
61	198.96547102928162	movie	1		170.0	59.0	2.5	/experiments/knapen_aot/videos/R_S_comp_L004_C011_PS_v01_SDR_PS_20180925_SDR_2K_AVC.mp4	0.0	386.81276512145996	2.5084569454193115
61	201.47392797470093	fix_post	2		12.0	59.0	2.5	/experiments/knapen_aot/videos/R_S_comp_L004_C011_PS_v01_SDR_PS_20180925_SDR_2K_AVC.mp4	0.0	389.3212220668793	0.10008096694946289
62	201.5740089416504	fix_pre	0		26.0	60.0	2.5	/experiments/knapen_aot/videos/S_pexels-cottonbro-9499408.mp4	0.0	389.42130303382874	0.21650385856628418
62	201.78237080574036	response	0	2		60.0	2.5	/experiments/knapen_aot/videos/S_pexels-cottonbro-9499408.mp4	0.0	389.6296648979187	
62	201.79051280021667	movie	1		196.0	60.0	2.5	/experiments/knapen_aot/videos/S_pexels-cottonbro-9499408.mp4	0.0	389.637806892395	2.5085530281066895
62	204.29906582832336	fix_post	2		12.0	60.0	2.5	/experiments/knapen_aot/videos/S_pexels-cottonbro-9499408.mp4	0.0	392.1463599205017	0.09984707832336426
63	204.39891290664673	fix_pre	0		20.0	61.0	2.5	blank	1.0	392.2462069988251	0.1666250228881836
63	204.55731296539307	response	0	2		61.0	2.5	blank	1.0	392.4046070575714	
63	204.5655379295349	movie	1		301.0	61.0	2.5	blank	1.0	392.41283202171326	2.50833797454834
63	207.07387590408325	fix_post	2		12.0	61.0	2.5	blank	1.0	394.9211699962616	0.0999751091003418
64	207.1738510131836	fix_pre	0		81.0	62.0	2.5	/experiments/knapen_aot/videos/S_yt-J8E_BpSJMpk_5.mp4	0.0	395.02114510536194	0.6749498844146729
64	207.84064292907715	response	0	2		62.0	2.5	/experiments/knapen_aot/videos/S_yt-J8E_BpSJMpk_5.mp4	0.0	395.6879370212555	
64	207.84880089759827	movie	1		301.0	62.0	2.5	/experiments/knapen_aot/videos/S_yt-J8E_BpSJMpk_5.mp4	0.0	395.6960949897766	2.508371114730835
64	210.3571720123291	fix_post	2		12.0	62.0	2.5	/experiments/knapen_aot/videos/S_yt-J8E_BpSJMpk_5.mp4	0.0	398.20446610450745	0.10000991821289062
65	210.457181930542	fix_pre	0		39.0	63.0	2.5	/experiments/knapen_aot/videos/R_S_yt-QqSceHxY3d0_356.mp4	0.0	398.30447602272034	0.3249819278717041
65	210.77401280403137	response	0	2		63.0	2.5	/experiments/knapen_aot/videos/R_S_yt-QqSceHxY3d0_356.mp4	0.0	398.6213068962097	
65	210.7821638584137	movie	1		301.0	63.0	2.5	/experiments/knapen_aot/videos/R_S_yt-QqSceHxY3d0_356.mp4	0.0	398.62945795059204	2.508350133895874
65	213.29051399230957	fix_post	2		12.0	63.0	2.5	/experiments/knapen_aot/videos/R_S_yt-QqSceHxY3d0_356.mp4	0.0	401.1378080844879	0.09988284111022949
66	213.3903968334198	fix_pre	0		25.0	64.0	2.5	/experiments/knapen_aot/videos/R_S_yt-wPXrAuiiRZg_1062.mp4	0.0	401.23769092559814	0.20839905738830566
66	213.59056782722473	response	0	2		64.0	2.5	/experiments/knapen_aot/videos/R_S_yt-wPXrAuiiRZg_1062.mp4	0.0	401.4378619194031	
66	213.5987958908081	movie	1		301.0	64.0	2.5	/experiments/knapen_aot/videos/R_S_yt-wPXrAuiiRZg_1062.mp4	0.0	401.44608998298645	2.5083670616149902
66	216.1071629524231	fix_post	2		12.0	64.0	2.5	/experiments/knapen_aot/videos/R_S_yt-wPXrAuiiRZg_1062.mp4	0.0	403.95445704460144	0.10014104843139648
67	216.2073040008545	fix_pre	0		30.0	65.0	2.5	/experiments/knapen_aot/videos/S_yt-FhnT_42bV7M_11.mp4	0.0	404.05459809303284	0.24979496002197266
67	216.4488718509674	response	0	2		65.0	2.5	/experiments/knapen_aot/videos/S_yt-FhnT_42bV7M_11.mp4	0.0	404.29616594314575	
67	216.45709896087646	movie	1		301.0	65.0	2.5	/experiments/knapen_aot/videos/S_yt-FhnT_42bV7M_11.mp4	0.0	404.3043930530548	2.508363962173462
67	218.96546292304993	fix_post	2		12.0	65.0	2.5	/experiments/knapen_aot/videos/S_yt-FhnT_42bV7M_11.mp4	0.0	406.81275701522827	0.10002589225769043
67	218.9988808631897	response	2	2		65.0	2.5	/experiments/knapen_aot/videos/S_yt-FhnT_42bV7M_11.mp4	0.0	406.84617495536804	
68	219.06548881530762	fix_pre	0		178.0	66.0	2.5	/experiments/knapen_aot/videos/S_yt-SgiTZNjCPCo_19.mp4	0.0	406.91278290748596	1.4833672046661377
68	220.54058480262756	response	0	2		66.0	2.5	/experiments/knapen_aot/videos/S_yt-SgiTZNjCPCo_19.mp4	0.0	408.3878788948059	
68	220.54885601997375	movie	1		301.0	66.0	2.5	/experiments/knapen_aot/videos/S_yt-SgiTZNjCPCo_19.mp4	0.0	408.3961501121521	2.508253812789917
68	223.05710983276367	fix_post	2		12.0	66.0	2.5	/experiments/knapen_aot/videos/S_yt-SgiTZNjCPCo_19.mp4	0.0	410.904403924942	0.10002303123474121
69	223.1571328639984	fix_pre	0		44.0	67.0	2.5	/experiments/knapen_aot/videos/R_S_comp_GMT306_139NC_139J_3066_CALI_TO_VEGAS_v08_SDR_PS_20180824_SDR_2K_AVC.mp4	0.0	411.00442695617676	0.36783599853515625
69	223.51556992530823	response	0	2		67.0	2.5	/experiments/knapen_aot/videos/R_S_comp_GMT306_139NC_139J_3066_CALI_TO_VEGAS_v08_SDR_PS_20180824_SDR_2K_AVC.mp4	0.0	411.3628640174866	
69	223.52496886253357	movie	1		164.0	67.0	2.5	/experiments/knapen_aot/videos/R_S_comp_GMT306_139NC_139J_3066_CALI_TO_VEGAS_v08_SDR_PS_20180824_SDR_2K_AVC.mp4	0.0	411.3722629547119	2.507317066192627
69	226.0322859287262	fix_post	2		12.0	67.0	2.5	/experiments/knapen_aot/videos/R_S_comp_GMT306_139NC_139J_3066_CALI_TO_VEGAS_v08_SDR_PS_20180824_SDR_2K_AVC.mp4	0.0	413.87958002090454	0.09984207153320312
70	226.1321280002594	fix_pre	0		13.0	68.0	2.5	/experiments/knapen_aot/videos/S_comp_L004_C011_PS_v01_SDR_PS_20180925_SDR_2K_AVC.mp4	0.0	413.97942209243774	0.10826683044433594
70	226.23228693008423	response	0	2		68.0	2.5	/experiments/knapen_aot/videos/S_comp_L004_C011_PS_v01_SDR_PS_20180925_SDR_2K_AVC.mp4	0.0	414.0795810222626	
70	226.24039483070374	movie	1		169.0	68.0	2.5	/experiments/knapen_aot/videos/S_comp_L004_C011_PS_v01_SDR_PS_20180925_SDR_2K_AVC.mp4	0.0	414.0876889228821	2.5083751678466797
70	228.74876999855042	fix_post	2		12.0	68.0	2.5	/experiments/knapen_aot/videos/S_comp_L004_C011_PS_v01_SDR_PS_20180925_SDR_2K_AVC.mp4	0.0	416.59606409072876	0.10018181800842285
71	228.84895181655884	fix_pre	0		59.0	69.0	2.5	blank	1.0	416.6962459087372	0.49144911766052246
71	229.33223795890808	response	0	2		69.0	2.5	blank	1.0	417.1795320510864	
71	229.34040093421936	movie	1		301.0	69.0	2.5	blank	1.0	417.1876950263977	2.508380889892578
71	231.84878182411194	fix_post	2		12.0	69.0	2.5	blank	1.0	419.6960759162903	0.10000014305114746
72	231.9487819671631	fix_pre	0		31.0	70.0	2.5	/experiments/knapen_aot/videos/S_yt-fP2JRJAFGZ4_25.mp4	0.0	419.79607605934143	0.25830698013305664
72	232.1913719177246	response	0	2		70.0	2.5	/experiments/knapen_aot/videos/S_yt-fP2JRJAFGZ4_25.mp4	0.0	420.03866600990295	
72	232.20708894729614	movie	1		301.0	70.0	2.5	/experiments/knapen_aot/videos/S_yt-fP2JRJAFGZ4_25.mp4	0.0	420.0543830394745	2.5083439350128174
72	234.71543288230896	fix_post	2		12.0	70.0	2.5	/experiments/knapen_aot/videos/S_yt-fP2JRJAFGZ4_25.mp4	0.0	422.5627269744873	0.100067138671875
73	234.81550002098083	fix_pre	0		37.0	71.0	2.5	/experiments/knapen_aot/videos/R_S_yt-hvuC_2YXsTQ_159.mp4	0.0	422.6627941131592	0.3081939220428467
73	235.1078748703003	response	0	2		71.0	2.5	/experiments/knapen_aot/videos/R_S_yt-hvuC_2YXsTQ_159.mp4	0.0	422.95516896247864	
73	235.12369394302368	movie	1		301.0	71.0	2.5	/experiments/knapen_aot/videos/R_S_yt-hvuC_2YXsTQ_159.mp4	0.0	422.970988035202	2.508378028869629
73	237.6320719718933	fix_post	2		12.0	71.0	2.5	/experiments/knapen_aot/videos/R_S_yt-hvuC_2YXsTQ_159.mp4	0.0	425.47936606407166	0.09999990463256836
74	237.73207187652588	fix_pre	0		161.0	72.0	2.5	/experiments/knapen_aot/videos/R_S_ILSVRC2015_train_00363000.mp4	0.0	425.5793659687042	1.3415899276733398
74	239.06547284126282	response	0	2		72.0	2.5	/experiments/knapen_aot/videos/R_S_ILSVRC2015_train_00363000.mp4	0.0	426.91276693344116	
74	239.07366180419922	movie	1		301.0	72.0	2.5	/experiments/knapen_aot/videos/R_S_ILSVRC2015_train_00363000.mp4	0.0	426.92095589637756	2.508406162261963
74	241.58206796646118	fix_post	2		12.0	72.0	2.5	/experiments/knapen_aot/videos/R_S_ILSVRC2015_train_00363000.mp4	0.0	429.4293620586395	0.10030698776245117
75	241.68237495422363	fix_pre	0		34.0	73.0	2.5	/experiments/knapen_aot/videos/R_S_ILSVRC2015_train_00518001.mp4	0.0	429.529669046402	0.28298306465148926
75	241.9571018218994	response	0	2		73.0	2.5	/experiments/knapen_aot/videos/R_S_ILSVRC2015_train_00518001.mp4	0.0	429.80439591407776	
75	241.96535801887512	movie	1		301.0	73.0	2.5	/experiments/knapen_aot/videos/R_S_ILSVRC2015_train_00518001.mp4	0.0	429.81265211105347	2.5083858966827393
75	242.66894793510437	response	1	2		73.0	2.5	/experiments/knapen_aot/videos/R_S_ILSVRC2015_train_00518001.mp4	0.0	430.5162420272827	
75	244.47374391555786	fix_post	2		12.0	73.0	2.5	/experiments/knapen_aot/videos/R_S_ILSVRC2015_train_00518001.mp4	0.0	432.3210380077362	0.09999704360961914
76	244.57374095916748	fix_pre	0		14.0	74.0	2.5	/experiments/knapen_aot/videos/S_yt-qxtmtMnUfD0_124.mp4	0.0	432.4210350513458	0.11775994300842285
76	244.68218302726746	response	0	2		74.0	2.5	/experiments/knapen_aot/videos/S_yt-qxtmtMnUfD0_124.mp4	0.0	432.5294771194458	
76	244.6915009021759	movie	1		301.0	74.0	2.5	/experiments/knapen_aot/videos/S_yt-qxtmtMnUfD0_124.mp4	0.0	432.53879499435425	2.5072169303894043
76	247.1987178325653	fix_post	2		12.0	74.0	2.5	/experiments/knapen_aot/videos/S_yt-qxtmtMnUfD0_124.mp4	0.0	435.04601192474365	0.10001397132873535
77	247.29873180389404	fix_pre	0		87.0	75.0	2.5	/experiments/knapen_aot/videos/S_pexels-kampus-production-6022792.mp4	0.0	435.1460258960724	0.7261130809783936
77	248.01564598083496	response	0	2		75.0	2.5	/experiments/knapen_aot/videos/S_pexels-kampus-production-6022792.mp4	0.0	435.8629400730133	
77	248.02484488487244	movie	1		166.0	75.0	2.5	/experiments/knapen_aot/videos/S_pexels-kampus-production-6022792.mp4	0.0	435.8721389770508	2.507336139678955
77	250.39052891731262	response	1	2		75.0	2.5	/experiments/knapen_aot/videos/S_pexels-kampus-production-6022792.mp4	0.0	438.23782300949097	
77	250.5321810245514	fix_post	2		12.0	75.0	2.5	/experiments/knapen_aot/videos/S_pexels-kampus-production-6022792.mp4	0.0	438.37947511672974	0.10000085830688477
78	250.63218188285828	fix_pre	0		332.0	76.0	2.5	blank	1.0	438.4794759750366	2.7675390243530273
78	253.39046692848206	response	0	2		76.0	2.5	blank	1.0	441.2377610206604	
78	253.3997209072113	movie	1		301.0	76.0	2.5	blank	1.0	441.24701499938965	2.5072638988494873
78	255.9069848060608	fix_post	2		12.0	76.0	2.5	blank	1.0	443.75427889823914	0.10003900527954102
78	255.923810005188	response	2	2		76.0	2.5	blank	1.0	443.77110409736633	
79	256.00702381134033	fix_pre	0		54.0	77.0	2.5	/experiments/knapen_aot/videos/R_S_comp_L004_C011_PS_v01_SDR_PS_20180925_SDR_2K_AVC.mp4	0.0	443.8543179035187	0.44994020462036133
79	256.4488368034363	response	0	2		77.0	2.5	/experiments/knapen_aot/videos/R_S_comp_L004_C011_PS_v01_SDR_PS_20180925_SDR_2K_AVC.mp4	0.0	444.2961308956146	
79	256.4569640159607	movie	1		168.0	77.0	2.5	/experiments/knapen_aot/videos/R_S_comp_L004_C011_PS_v01_SDR_PS_20180925_SDR_2K_AVC.mp4	0.0	444.30425810813904	2.508485794067383
79	257.640508890152	response	1	2		77.0	2.5	/experiments/knapen_aot/videos/R_S_comp_L004_C011_PS_v01_SDR_PS_20180925_SDR_2K_AVC.mp4	0.0	445.4878029823303	
79	258.9654498100281	fix_post	2		12.0	77.0	2.5	/experiments/knapen_aot/videos/R_S_comp_L004_C011_PS_v01_SDR_PS_20180925_SDR_2K_AVC.mp4	0.0	446.8127439022064	0.09989404678344727
80	259.0653438568115	fix_pre	0		6.0	78.0	2.5	/experiments/knapen_aot/videos/R_S_yt-FhnT_42bV7M_11.mp4	0.0	446.91263794898987	0.049941062927246094
80	259.1071448326111	response	0	2		78.0	2.5	/experiments/knapen_aot/videos/R_S_yt-FhnT_42bV7M_11.mp4	0.0	446.95443892478943	
80	259.11528491973877	movie	1		301.0	78.0	2.5	/experiments/knapen_aot/videos/R_S_yt-FhnT_42bV7M_11.mp4	0.0	446.9625790119171	2.5083560943603516
80	260.62389492988586	response	1	2		78.0	2.5	/experiments/knapen_aot/videos/R_S_yt-FhnT_42bV7M_11.mp4	0.0	448.4711890220642	
80	261.6236410140991	fix_post	2		12.0	78.0	2.5	/experiments/knapen_aot/videos/R_S_yt-FhnT_42bV7M_11.mp4	0.0	449.47093510627747	0.10004687309265137
81	261.7236878871918	fix_pre	0		75.0	79.0	2.5	/experiments/knapen_aot/videos/R_S_yt-he_RSdeVinA_68.mp4	0.0	449.5709819793701	0.624891996383667
81	262.3403580188751	response	0	2		79.0	2.5	/experiments/knapen_aot/videos/R_S_yt-he_RSdeVinA_68.mp4	0.0	450.18765211105347	
81	262.34857988357544	movie	1		301.0	79.0	2.5	/experiments/knapen_aot/videos/R_S_yt-he_RSdeVinA_68.mp4	0.0	450.1958739757538	2.508394956588745
81	264.8569748401642	fix_post	2		12.0	79.0	2.5	/experiments/knapen_aot/videos/R_S_yt-he_RSdeVinA_68.mp4	0.0	452.70426893234253	0.10009503364562988
82	264.9570698738098	fix_pre	0		28.0	80.0	2.5	/experiments/knapen_aot/videos/R_S_yt-I2n2eo2zoZs_112.mp4	0.0	452.80436396598816	0.23421502113342285
82	265.1820549964905	response	0	2		80.0	2.5	/experiments/knapen_aot/videos/R_S_yt-I2n2eo2zoZs_112.mp4	0.0	453.0293490886688	
82	265.19128489494324	movie	1		301.0	80.0	2.5	/experiments/knapen_aot/videos/R_S_yt-I2n2eo2zoZs_112.mp4	0.0	453.0385789871216	2.5073580741882324
82	267.69864296913147	fix_post	2		12.0	80.0	2.5	/experiments/knapen_aot/videos/R_S_yt-I2n2eo2zoZs_112.mp4	0.0	455.5459370613098	0.09996390342712402
83	267.7986068725586	fix_pre	0		33.0	81.0	2.5	/experiments/knapen_aot/videos/S_yt-wPXrAuiiRZg_1062.mp4	0.0	455.64590096473694	0.2749791145324707
83	268.0654389858246	response	0	2		81.0	2.5	/experiments/knapen_aot/videos/S_yt-wPXrAuiiRZg_1062.mp4	0.0	455.91273307800293	
83	268.07358598709106	movie	1		301.0	81.0	2.5	/experiments/knapen_aot/videos/S_yt-wPXrAuiiRZg_1062.mp4	0.0	455.9208800792694	2.508328914642334
83	270.5819149017334	fix_post	2		12.0	81.0	2.5	/experiments/knapen_aot/videos/S_yt-wPXrAuiiRZg_1062.mp4	0.0	458.42920899391174	0.1000509262084961
84	270.6819658279419	fix_pre	0		16.0	82.0	2.5	blank	1.0	458.52925992012024	0.13336801528930664
84	270.8070819377899	response	0	2		82.0	2.5	blank	1.0	458.65437602996826	
84	270.8153338432312	movie	1		301.0	82.0	2.5	blank	1.0	458.66262793540955	2.5083231925964355
84	273.32365703582764	fix_post	2		12.0	82.0	2.5	blank	1.0	461.170951128006	0.09997892379760742
85	273.42363595962524	fix_pre	0		25.0	83.0	2.5	/experiments/knapen_aot/videos/S_yt-7W50lcw5FCo_37.mp4	0.0	461.2709300518036	0.20827984809875488
85	273.6237368583679	response	0	2		83.0	2.5	/experiments/knapen_aot/videos/S_yt-7W50lcw5FCo_37.mp4	0.0	461.47103095054626	
85	273.631915807724	movie	1		301.0	83.0	2.5	/experiments/knapen_aot/videos/S_yt-7W50lcw5FCo_37.mp4	0.0	461.47920989990234	2.5083670616149902
85	276.140282869339	fix_post	2		12.0	83.0	2.5	/experiments/knapen_aot/videos/S_yt-7W50lcw5FCo_37.mp4	0.0	463.98757696151733	0.0999751091003418
87	276.24025797843933	stim	0		153.0					464.0875520706177	1.2772648334503174
87	276.64876103401184	response	0	2						464.4960551261902	
87	277.50487184524536	response	0	space						465.3521659374237	
