trial_nr	onset	event_type	phase	response	nr_frames	movie_index	movie_duration	movie_file	blank	onset_abs	duration
0	0.12488198280334473	stim	0		34.0					89.74067497253418	0.28334712982177734
0	0.4000661373138428	response	0	space						90.01585912704468	
1	0.40822911262512207	stim	0		121.0					90.02402210235596	1.0084660053253174
1	1.4166951179504395	stim	1		120.0					91.03248810768127	0.9996798038482666
1	1.574739933013916	response	1	space						91.19053292274475	
1	2.22468900680542	response	1	space						91.84048199653625	
2	2.416374921798706	fix_pre	0		44.0	0.0	2.5	/experiments/knapen_aot/videos/R_S_yt-GO26QIueqRw_385.mp4	0.0	92.03216791152954	0.36650800704956055
2	2.7746810913085938	response	0	space		0.0	2.5	/experiments/knapen_aot/videos/R_S_yt-GO26QIueqRw_385.mp4	0.0	92.39047408103943	
2	2.7828829288482666	movie	1		301.0	0.0	2.5	/experiments/knapen_aot/videos/R_S_yt-GO26QIueqRw_385.mp4	0.0	92.3986759185791	2.508352041244507
2	5.291234970092773	fix_post	2		12.0	0.0	2.5	/experiments/knapen_aot/videos/R_S_yt-GO26QIueqRw_385.mp4	0.0	94.90702795982361	0.10241103172302246
2	5.386699914932251	response	2	2		0.0	2.5	/experiments/knapen_aot/videos/R_S_yt-GO26QIueqRw_385.mp4	0.0	95.00249290466309	
3	5.393646001815796	fix_pre	0		43.0	1.0	2.5	/experiments/knapen_aot/videos/R_S_yt-LUIvP_NDWAs_45.mp4	0.0	95.00943899154663	0.3558681011199951
3	5.741271018981934	response	0	2		1.0	2.5	/experiments/knapen_aot/videos/R_S_yt-LUIvP_NDWAs_45.mp4	0.0	95.35706400871277	
3	5.749514102935791	movie	1		301.0	1.0	2.5	/experiments/knapen_aot/videos/R_S_yt-LUIvP_NDWAs_45.mp4	0.0	95.36530709266663	2.5084149837493896
3	8.25792908668518	fix_post	2		12.0	1.0	2.5	/experiments/knapen_aot/videos/R_S_yt-LUIvP_NDWAs_45.mp4	0.0	97.87372207641602	0.10002803802490234
4	8.357957124710083	fix_pre	0		13.0	2.0	2.5	/experiments/knapen_aot/videos/S_yt-ujdFTAUE8rc_34.mp4	0.0	97.97375011444092	0.10833978652954102
4	8.458010911941528	response	0	2		2.0	2.5	/experiments/knapen_aot/videos/S_yt-ujdFTAUE8rc_34.mp4	0.0	98.07380390167236	
4	8.466296911239624	movie	1		301.0	2.0	2.5	/experiments/knapen_aot/videos/S_yt-ujdFTAUE8rc_34.mp4	0.0	98.08208990097046	2.5083060264587402
4	10.974602937698364	fix_post	2		12.0	2.0	2.5	/experiments/knapen_aot/videos/S_yt-ujdFTAUE8rc_34.mp4	0.0	100.5903959274292	0.09991717338562012
5	11.074520111083984	fix_pre	0		22.0	3.0	2.5	/experiments/knapen_aot/videos/R_S_yt-Ud9uqaeHtY4_302.mp4	0.0	100.69031310081482	0.18331289291381836
5	11.242115020751953	response	0	2		3.0	2.5	/experiments/knapen_aot/videos/R_S_yt-Ud9uqaeHtY4_302.mp4	0.0	100.85790801048279	
5	11.257833003997803	movie	1		301.0	3.0	2.5	/experiments/knapen_aot/videos/R_S_yt-Ud9uqaeHtY4_302.mp4	0.0	100.87362599372864	2.5083229541778564
5	13.76615595817566	fix_post	2		12.0	3.0	2.5	/experiments/knapen_aot/videos/R_S_yt-Ud9uqaeHtY4_302.mp4	0.0	103.3819489479065	0.10005497932434082
6	13.8662109375	fix_pre	0		51.0	4.0	2.5	/experiments/knapen_aot/videos/S_yt-s73Xqkcq9Js_285.mp4	0.0	103.48200392723083	0.42499208450317383
6	14.282963037490845	response	0	2		4.0	2.5	/experiments/knapen_aot/videos/S_yt-s73Xqkcq9Js_285.mp4	0.0	103.89875602722168	
6	14.291203022003174	movie	1		301.0	4.0	2.5	/experiments/knapen_aot/videos/S_yt-s73Xqkcq9Js_285.mp4	0.0	103.90699601173401	2.5083019733428955
6	16.79950499534607	fix_post	2		12.0	4.0	2.5	/experiments/knapen_aot/videos/S_yt-s73Xqkcq9Js_285.mp4	0.0	106.4152979850769	0.09995007514953613
7	16.899455070495605	fix_pre	0		22.0	5.0	2.5	/experiments/knapen_aot/videos/S_pexels-rodnae-productions-7467585.mp4	0.0	106.51524806022644	0.18334603309631348
7	17.074650049209595	response	0	2		5.0	2.5	/experiments/knapen_aot/videos/S_pexels-rodnae-productions-7467585.mp4	0.0	106.69044303894043	
7	17.08280110359192	movie	1		162.0	5.0	2.5	/experiments/knapen_aot/videos/S_pexels-rodnae-productions-7467585.mp4	0.0	106.69859409332275	2.508392810821533
7	19.591193914413452	fix_post	2		12.0	5.0	2.5	/experiments/knapen_aot/videos/S_pexels-rodnae-productions-7467585.mp4	0.0	109.20698690414429	0.10001111030578613
8	19.69120502471924	fix_pre	0		12.0	6.0	2.5	blank	1.0	109.30699801445007	0.09995603561401367
8	19.78298306465149	response	0	2		6.0	2.5	blank	1.0	109.39877605438232	
8	19.791161060333252	movie	1		301.0	6.0	2.5	blank	1.0	109.40695405006409	2.5083630084991455
8	22.299524068832397	fix_post	2		12.0	6.0	2.5	blank	1.0	111.91531705856323	0.09998703002929688
9	22.399511098861694	fix_pre	0		33.0	7.0	2.5	/experiments/knapen_aot/videos/R_S_yt-AHbFln6blfE_36.mp4	0.0	112.01530408859253	0.2749650478363037
9	22.666253089904785	response	0	2		7.0	2.5	/experiments/knapen_aot/videos/R_S_yt-AHbFln6blfE_36.mp4	0.0	112.28204607963562	
9	22.674476146697998	movie	1		301.0	7.0	2.5	/experiments/knapen_aot/videos/R_S_yt-AHbFln6blfE_36.mp4	0.0	112.29026913642883	2.508309841156006
9	25.182785987854004	fix_post	2		12.0	7.0	2.5	/experiments/knapen_aot/videos/R_S_yt-AHbFln6blfE_36.mp4	0.0	114.79857897758484	0.10025501251220703
10	25.28304100036621	fix_pre	0		39.0	8.0	2.5	/experiments/knapen_aot/videos/R_S_ahJft-G235A_122.mp4	0.0	114.89883399009705	0.32573795318603516
10	25.599658012390137	response	0	2		8.0	2.5	/experiments/knapen_aot/videos/R_S_ahJft-G235A_122.mp4	0.0	115.21545100212097	
10	25.608778953552246	movie	1		301.0	8.0	2.5	/experiments/knapen_aot/videos/R_S_ahJft-G235A_122.mp4	0.0	115.22457194328308	2.507326126098633
10	28.11610507965088	fix_post	2		12.0	8.0	2.5	/experiments/knapen_aot/videos/R_S_ahJft-G235A_122.mp4	0.0	117.73189806938171	0.10006189346313477
11	28.216166973114014	fix_pre	0		33.0	9.0	2.5	/experiments/knapen_aot/videos/S_yt-1uk2k3PnTNw_37.0.mp4	0.0	117.83195996284485	0.27490806579589844
11	28.482825994491577	response	0	2		9.0	2.5	/experiments/knapen_aot/videos/S_yt-1uk2k3PnTNw_37.0.mp4	0.0	118.09861898422241	
11	28.491075038909912	movie	1		301.0	9.0	2.5	/experiments/knapen_aot/videos/S_yt-1uk2k3PnTNw_37.0.mp4	0.0	118.10686802864075	2.5083999633789062
11	30.99947500228882	fix_post	2		12.0	9.0	2.5	/experiments/knapen_aot/videos/S_yt-1uk2k3PnTNw_37.0.mp4	0.0	120.61526799201965	0.1000211238861084
12	31.099496126174927	fix_pre	0		10.0	10.0	2.5	/experiments/knapen_aot/videos/R_S_nTA7B2uHaCQ_1.mp4	0.0	120.71528911590576	0.08327889442443848
12	31.174499034881592	response	0	2		10.0	2.5	/experiments/knapen_aot/videos/R_S_nTA7B2uHaCQ_1.mp4	0.0	120.79029202461243	
12	31.182775020599365	movie	1		301.0	10.0	2.5	/experiments/knapen_aot/videos/R_S_nTA7B2uHaCQ_1.mp4	0.0	120.7985680103302	2.5083439350128174
12	33.69111895561218	fix_post	2		12.0	10.0	2.5	/experiments/knapen_aot/videos/R_S_nTA7B2uHaCQ_1.mp4	0.0	123.30691194534302	0.10001516342163086
13	33.79113411903381	fix_pre	0		11.0	11.0	2.5	/experiments/knapen_aot/videos/R_S_flickr-53807584@N00-5565833509_7.mp4	0.0	123.40692710876465	0.09163498878479004
13	33.87455701828003	response	0	2		11.0	2.5	/experiments/knapen_aot/videos/R_S_flickr-53807584@N00-5565833509_7.mp4	0.0	123.49035000801086	
13	33.8827691078186	movie	1		301.0	11.0	2.5	/experiments/knapen_aot/videos/R_S_flickr-53807584@N00-5565833509_7.mp4	0.0	123.49856209754944	2.5083320140838623
13	36.391101121902466	fix_post	2		12.0	11.0	2.5	/experiments/knapen_aot/videos/R_S_flickr-53807584@N00-5565833509_7.mp4	0.0	126.0068941116333	0.09998583793640137
14	36.49108695983887	fix_pre	0		40.0	12.0	2.5	/experiments/knapen_aot/videos/R_S_ILSVRC2015_train_00044004.mp4	0.0	126.1068799495697	0.3333280086517334
14	36.81623411178589	response	0	2		12.0	2.5	/experiments/knapen_aot/videos/R_S_ILSVRC2015_train_00044004.mp4	0.0	126.43202710151672	
14	36.8244149684906	movie	1		301.0	12.0	2.5	/experiments/knapen_aot/videos/R_S_ILSVRC2015_train_00044004.mp4	0.0	126.44020795822144	2.508453130722046
14	39.33286809921265	fix_post	2		12.0	12.0	2.5	/experiments/knapen_aot/videos/R_S_ILSVRC2015_train_00044004.mp4	0.0	128.94866108894348	0.09994387626647949
15	39.432811975479126	fix_pre	0		14.0	13.0	2.5	blank	1.0	129.04860496520996	0.11658096313476562
15	39.54119396209717	response	0	2		13.0	2.5	blank	1.0	129.156986951828	
15	39.54939293861389	movie	1		301.0	13.0	2.5	blank	1.0	129.16518592834473	2.508416175842285
15	42.05780911445618	fix_post	2		12.0	13.0	2.5	blank	1.0	131.673602104187	0.09997391700744629
16	42.15778303146362	fix_pre	0		29.0	14.0	2.5	/experiments/knapen_aot/videos/S_pexels-marcus-aurelius-6785014.mp4	0.0	131.77357602119446	0.24238109588623047
16	42.391242027282715	response	0	2		14.0	2.5	/experiments/knapen_aot/videos/S_pexels-marcus-aurelius-6785014.mp4	0.0	132.00703501701355	
16	42.40016412734985	movie	1		165.0	14.0	2.5	/experiments/knapen_aot/videos/S_pexels-marcus-aurelius-6785014.mp4	0.0	132.0159571170807	2.5077009201049805
16	44.907865047454834	fix_post	2		12.0	14.0	2.5	/experiments/knapen_aot/videos/S_pexels-marcus-aurelius-6785014.mp4	0.0	134.52365803718567	0.09986209869384766
17	45.00772714614868	fix_pre	0		12.0	15.0	2.5	/experiments/knapen_aot/videos/R_S_yt-G65z8p1YNhw_16.mp4	0.0	134.62352013587952	0.10080790519714355
17	45.09954309463501	response	0	2		15.0	2.5	/experiments/knapen_aot/videos/R_S_yt-G65z8p1YNhw_16.mp4	0.0	134.71533608436584	
17	45.108535051345825	movie	1		301.0	15.0	2.5	/experiments/knapen_aot/videos/R_S_yt-G65z8p1YNhw_16.mp4	0.0	134.72432804107666	2.507572889328003
17	47.61610794067383	fix_post	2		12.0	15.0	2.5	/experiments/knapen_aot/videos/R_S_yt-G65z8p1YNhw_16.mp4	0.0	137.23190093040466	0.10001707077026367
18	47.71612501144409	fix_pre	0		12.0	16.0	2.5	/experiments/knapen_aot/videos/R_S_BO_A012_C031_SDR_20190726_SDR_2K_AVC.mp4	0.0	137.33191800117493	0.10069704055786133
18	47.807775020599365	response	0	2		16.0	2.5	/experiments/knapen_aot/videos/R_S_BO_A012_C031_SDR_20190726_SDR_2K_AVC.mp4	0.0	137.4235680103302	
18	47.81682205200195	movie	1		163.0	16.0	2.5	/experiments/knapen_aot/videos/R_S_BO_A012_C031_SDR_20190726_SDR_2K_AVC.mp4	0.0	137.4326150417328	2.5076780319213867
18	50.32450008392334	fix_post	2		12.0	16.0	2.5	/experiments/knapen_aot/videos/R_S_BO_A012_C031_SDR_20190726_SDR_2K_AVC.mp4	0.0	139.94029307365417	0.09987902641296387
19	50.424379110336304	fix_pre	0		27.0	17.0	2.5	/experiments/knapen_aot/videos/R_S_yt-Jo6PxivsTOg_247.mp4	0.0	140.04017210006714	0.22574591636657715
19	50.6411509513855	response	0	2		17.0	2.5	/experiments/knapen_aot/videos/R_S_yt-Jo6PxivsTOg_247.mp4	0.0	140.25694394111633	
19	50.65012502670288	movie	1		301.0	17.0	2.5	/experiments/knapen_aot/videos/R_S_yt-Jo6PxivsTOg_247.mp4	0.0	140.26591801643372	2.5075900554656982
19	53.15771508216858	fix_post	2		12.0	17.0	2.5	/experiments/knapen_aot/videos/R_S_yt-Jo6PxivsTOg_247.mp4	0.0	142.7735080718994	0.10004997253417969
20	53.25776505470276	fix_pre	0		32.0	18.0	2.5	/experiments/knapen_aot/videos/R_S_pexels-marcus-aurelius-6785014.mp4	0.0	142.8735580444336	0.2673940658569336
20	53.51615810394287	response	0	2		18.0	2.5	/experiments/knapen_aot/videos/R_S_pexels-marcus-aurelius-6785014.mp4	0.0	143.1319510936737	
20	53.52515912055969	movie	1		168.0	18.0	2.5	/experiments/knapen_aot/videos/R_S_pexels-marcus-aurelius-6785014.mp4	0.0	143.14095211029053	2.5076098442077637
20	56.032768964767456	fix_post	2		12.0	18.0	2.5	/experiments/knapen_aot/videos/R_S_pexels-marcus-aurelius-6785014.mp4	0.0	145.6485619544983	0.09996294975280762
21	56.132731914520264	fix_pre	0		1.0	19.0	2.5	blank	1.0	145.7485249042511	0.010374069213867188
21	56.12570595741272	response	0	2		19.0	2.5	blank	1.0	145.74149894714355	
21	56.14310598373413	movie	1		301.0	19.0	2.5	blank	1.0	145.75889897346497	2.506174087524414
21	58.649280071258545	fix_post	2		12.0	19.0	2.5	blank	1.0	148.26507306098938	0.10006499290466309
22	58.74934506416321	fix_pre	0		37.0	20.0	2.5	/experiments/knapen_aot/videos/R_S_comp_A351_C001_v06_SDR_PS_20180725_SDR_2K_AVC.mp4	0.0	148.36513805389404	0.3083310127258301
22	59.04939007759094	response	0	2		20.0	2.5	/experiments/knapen_aot/videos/R_S_comp_A351_C001_v06_SDR_PS_20180725_SDR_2K_AVC.mp4	0.0	148.66518306732178	
22	59.05767607688904	movie	1		167.0	20.0	2.5	/experiments/knapen_aot/videos/R_S_comp_A351_C001_v06_SDR_PS_20180725_SDR_2K_AVC.mp4	0.0	148.67346906661987	2.5085389614105225
22	61.56621503829956	fix_post	2		12.0	20.0	2.5	/experiments/knapen_aot/videos/R_S_comp_A351_C001_v06_SDR_PS_20180725_SDR_2K_AVC.mp4	0.0	151.1820080280304	0.09978795051574707
23	61.66600298881531	fix_pre	0		13.0	21.0	2.5	/experiments/knapen_aot/videos/S_pexels-mart-production-7698911_1.mp4	0.0	151.28179597854614	0.10907101631164551
23	61.76616597175598	response	0	2		21.0	2.5	/experiments/knapen_aot/videos/S_pexels-mart-production-7698911_1.mp4	0.0	151.38195896148682	
23	61.77507400512695	movie	1		192.0	21.0	2.5	/experiments/knapen_aot/videos/S_pexels-mart-production-7698911_1.mp4	0.0	151.3908669948578	2.5075840950012207
23	64.28265810012817	fix_post	2		12.0	21.0	2.5	/experiments/knapen_aot/videos/S_pexels-mart-production-7698911_1.mp4	0.0	153.898451089859	0.09999585151672363
24	64.3826539516449	fix_pre	0		19.0	22.0	2.5	/experiments/knapen_aot/videos/R_S_yt-c-H45QS0CF4_147.mp4	0.0	153.99844694137573	0.1584010124206543
24	64.53271794319153	response	0	2		22.0	2.5	/experiments/knapen_aot/videos/R_S_yt-c-H45QS0CF4_147.mp4	0.0	154.14851093292236	
24	64.54105496406555	movie	1		300.0	22.0	2.5	/experiments/knapen_aot/videos/R_S_yt-c-H45QS0CF4_147.mp4	0.0	154.1568479537964	2.5082361698150635
24	67.04929113388062	fix_post	2		12.0	22.0	2.5	/experiments/knapen_aot/videos/R_S_yt-c-H45QS0CF4_147.mp4	0.0	156.66508412361145	0.09996485710144043
25	67.14925599098206	fix_pre	0		8.0	23.0	2.5	/experiments/knapen_aot/videos/R_S_yt-Ul81y6R9YbE_12.mp4	0.0	156.7650489807129	0.06670498847961426
25	67.20773100852966	response	0	2		23.0	2.5	/experiments/knapen_aot/videos/R_S_yt-Ul81y6R9YbE_12.mp4	0.0	156.8235239982605	
25	67.21596097946167	movie	1		301.0	23.0	2.5	/experiments/knapen_aot/videos/R_S_yt-Ul81y6R9YbE_12.mp4	0.0	156.8317539691925	2.5088140964508057
25	69.72477507591248	fix_post	2		12.0	23.0	2.5	/experiments/knapen_aot/videos/R_S_yt-Ul81y6R9YbE_12.mp4	0.0	159.3405680656433	0.09946203231811523
26	69.82423710823059	fix_pre	0		20.0	24.0	2.5	/experiments/knapen_aot/videos/S_yt-O6FS0xnF0CU_106.mp4	0.0	159.44003009796143	0.16668081283569336
26	69.9827139377594	response	0	2		24.0	2.5	/experiments/knapen_aot/videos/S_yt-O6FS0xnF0CU_106.mp4	0.0	159.59850692749023	
26	69.99091792106628	movie	1		301.0	24.0	2.5	/experiments/knapen_aot/videos/S_yt-O6FS0xnF0CU_106.mp4	0.0	159.60671091079712	2.5083072185516357
26	72.49922513961792	fix_post	2		12.0	24.0	2.5	/experiments/knapen_aot/videos/S_yt-O6FS0xnF0CU_106.mp4	0.0	162.11501812934875	0.10005688667297363
27	72.5992820262909	fix_pre	0		6.0	25.0	2.5	/experiments/knapen_aot/videos/S_comp_C001_C005_PS_v01_SDR_PS_20180925_SDR_2K_AVC.mp4	0.0	162.21507501602173	0.05056405067443848
27	72.64116907119751	response	0	2		25.0	2.5	/experiments/knapen_aot/videos/S_comp_C001_C005_PS_v01_SDR_PS_20180925_SDR_2K_AVC.mp4	0.0	162.25696206092834	
27	72.64984607696533	movie	1		169.0	25.0	2.5	/experiments/knapen_aot/videos/S_comp_C001_C005_PS_v01_SDR_PS_20180925_SDR_2K_AVC.mp4	0.0	162.26563906669617	2.507722854614258
27	75.15756893157959	fix_post	2		12.0	25.0	2.5	/experiments/knapen_aot/videos/S_comp_C001_C005_PS_v01_SDR_PS_20180925_SDR_2K_AVC.mp4	0.0	164.77336192131042	0.10010504722595215
28	75.25767397880554	fix_pre	0		24.0	26.0	2.5	blank	1.0	164.87346696853638	0.19992399215698242
28	75.44935393333435	response	0	2		26.0	2.5	blank	1.0	165.06514692306519	
28	75.45759797096252	movie	1		301.0	26.0	2.5	blank	1.0	165.07339096069336	2.5082621574401855
28	77.96586012840271	fix_post	2		12.0	26.0	2.5	blank	1.0	167.58165311813354	0.10074591636657715
29	78.06660604476929	fix_pre	0		32.0	27.0	2.5	/experiments/knapen_aot/videos/R_S_ILSVRC2015_train_00568002.mp4	0.0	167.68239903450012	0.26598405838012695
29	78.32428002357483	response	0	2		27.0	2.5	/experiments/knapen_aot/videos/R_S_ILSVRC2015_train_00568002.mp4	0.0	167.94007301330566	
29	78.33259010314941	movie	1		301.0	27.0	2.5	/experiments/knapen_aot/videos/R_S_ILSVRC2015_train_00568002.mp4	0.0	167.94838309288025	2.5084710121154785
29	80.84106111526489	fix_post	2		12.0	27.0	2.5	/experiments/knapen_aot/videos/R_S_ILSVRC2015_train_00568002.mp4	0.0	170.45685410499573	0.09981083869934082
30	80.94087195396423	fix_pre	0		16.0	28.0	2.5	/experiments/knapen_aot/videos/R_S_yt-rbJOb1spY9M_16.mp4	0.0	170.55666494369507	0.13331913948059082
30	81.0660150051117	response	0	2		28.0	2.5	/experiments/knapen_aot/videos/R_S_yt-rbJOb1spY9M_16.mp4	0.0	170.68180799484253	
30	81.07419109344482	movie	1		301.0	28.0	2.5	/experiments/knapen_aot/videos/R_S_yt-rbJOb1spY9M_16.mp4	0.0	170.68998408317566	2.5083839893341064
30	83.58257508277893	fix_post	2		12.0	28.0	2.5	/experiments/knapen_aot/videos/R_S_yt-rbJOb1spY9M_16.mp4	0.0	173.19836807250977	0.10011792182922363
31	83.68269300460815	fix_pre	0		22.0	29.0	2.5	/experiments/knapen_aot/videos/S_video-11.mp4	0.0	173.298485994339	0.1832571029663086
31	83.85765194892883	response	0	2		29.0	2.5	/experiments/knapen_aot/videos/S_video-11.mp4	0.0	173.47344493865967	
31	83.86595010757446	movie	1		168.0	29.0	2.5	/experiments/knapen_aot/videos/S_video-11.mp4	0.0	173.4817430973053	2.5083649158477783
31	86.37431502342224	fix_post	2		12.0	29.0	2.5	/experiments/knapen_aot/videos/S_video-11.mp4	0.0	175.99010801315308	0.09992003440856934
32	86.47423505783081	fix_pre	0		18.0	30.0	2.5	/experiments/knapen_aot/videos/R_S_yt-7VVzNnp36DM_78.mp4	0.0	176.09002804756165	0.14991092681884766
32	86.61599707603455	response	0	2		30.0	2.5	/experiments/knapen_aot/videos/R_S_yt-7VVzNnp36DM_78.mp4	0.0	176.23179006576538	
32	86.62414598464966	movie	1		301.0	30.0	2.5	/experiments/knapen_aot/videos/R_S_yt-7VVzNnp36DM_78.mp4	0.0	176.2399389743805	2.5083229541778564
32	89.13246893882751	fix_post	2		12.0	30.0	2.5	/experiments/knapen_aot/videos/R_S_yt-7VVzNnp36DM_78.mp4	0.0	178.74826192855835	0.10004806518554688
33	89.23251700401306	fix_pre	0		17.0	31.0	2.5	/experiments/knapen_aot/videos/R_S_yt-wLylWnZs3z0_27.mp4	0.0	178.8483099937439	0.14164304733276367
33	89.3660500049591	response	0	2		31.0	2.5	/experiments/knapen_aot/videos/R_S_yt-wLylWnZs3z0_27.mp4	0.0	178.98184299468994	
33	89.37416005134583	movie	1		301.0	31.0	2.5	/experiments/knapen_aot/videos/R_S_yt-wLylWnZs3z0_27.mp4	0.0	178.98995304107666	2.508420944213867
33	91.88258099555969	fix_post	2		12.0	31.0	2.5	/experiments/knapen_aot/videos/R_S_yt-wLylWnZs3z0_27.mp4	0.0	181.49837398529053	0.09996604919433594
34	91.98254704475403	fix_pre	0		44.0	32.0	2.5	/experiments/knapen_aot/videos/R_S_video_inspire_oregon_lone-ranch-beach_00021.1080-h264.mp4	0.0	181.59834003448486	0.3666269779205322
34	92.33340501785278	response	0	2		32.0	2.5	/experiments/knapen_aot/videos/R_S_video_inspire_oregon_lone-ranch-beach_00021.1080-h264.mp4	0.0	181.94919800758362	
34	92.34917402267456	movie	1		164.0	32.0	2.5	/experiments/knapen_aot/videos/R_S_video_inspire_oregon_lone-ranch-beach_00021.1080-h264.mp4	0.0	181.9649670124054	2.5083470344543457
34	94.8575210571289	fix_post	2		12.0	32.0	2.5	/experiments/knapen_aot/videos/R_S_video_inspire_oregon_lone-ranch-beach_00021.1080-h264.mp4	0.0	184.47331404685974	0.0999910831451416
35	94.95751214027405	fix_pre	0		25.0	33.0	2.5	/experiments/knapen_aot/videos/R_S_wc-NVeGRb_y_y_5_36.mp4	0.0	184.57330513000488	0.20830178260803223
35	95.15762305259705	response	0	2		33.0	2.5	/experiments/knapen_aot/videos/R_S_wc-NVeGRb_y_y_5_36.mp4	0.0	184.77341604232788	
35	95.16581392288208	movie	1		166.0	33.0	2.5	/experiments/knapen_aot/videos/R_S_wc-NVeGRb_y_y_5_36.mp4	0.0	184.78160691261292	2.5083460807800293
35	97.67416000366211	fix_post	2		12.0	33.0	2.5	/experiments/knapen_aot/videos/R_S_wc-NVeGRb_y_y_5_36.mp4	0.0	187.28995299339294	0.10004496574401855
36	97.77420496940613	fix_pre	0		27.0	34.0	2.5	blank	1.0	187.38999795913696	0.22498297691345215
36	97.9909839630127	response	0	2		34.0	2.5	blank	1.0	187.60677695274353	
36	97.99918794631958	movie	1		301.0	34.0	2.5	blank	1.0	187.61498093605042	2.5082881450653076
36	100.50747609138489	fix_post	2		12.0	34.0	2.5	blank	1.0	190.12326908111572	0.10051584243774414
37	100.60799193382263	fix_pre	0		45.0	35.0	2.5	/experiments/knapen_aot/videos/S_yt-Jo6PxivsTOg_247.mp4	0.0	190.22378492355347	0.3749420642852783
37	100.97427010536194	response	0	2		35.0	2.5	/experiments/knapen_aot/videos/S_yt-Jo6PxivsTOg_247.mp4	0.0	190.59006309509277	
37	100.98293399810791	movie	1		301.0	35.0	2.5	/experiments/knapen_aot/videos/S_yt-Jo6PxivsTOg_247.mp4	0.0	190.59872698783875	2.507874011993408
37	103.49080801010132	fix_post	2		12.0	35.0	2.5	/experiments/knapen_aot/videos/S_yt-Jo6PxivsTOg_247.mp4	0.0	193.10660099983215	0.09997701644897461
38	103.5907850265503	fix_pre	0		24.0	36.0	2.5	/experiments/knapen_aot/videos/R_S_yt-F3hhts3bwWg_25.mp4	0.0	193.20657801628113	0.19999098777770996
38	103.77500200271606	response	0	2		36.0	2.5	/experiments/knapen_aot/videos/R_S_yt-F3hhts3bwWg_25.mp4	0.0	193.3907949924469	
38	103.790776014328	movie	1		301.0	36.0	2.5	/experiments/knapen_aot/videos/R_S_yt-F3hhts3bwWg_25.mp4	0.0	193.40656900405884	2.508333921432495
38	106.2991099357605	fix_post	2		12.0	36.0	2.5	/experiments/knapen_aot/videos/R_S_yt-F3hhts3bwWg_25.mp4	0.0	195.91490292549133	0.10002517700195312
39	106.39913511276245	fix_pre	0		46.0	37.0	2.5	/experiments/knapen_aot/videos/R_S_comp_A105_C003_0212CT_FLARE_v10_SDR_PS_FINAL_20180711_SDR_2K_AVC.mp4	0.0	196.0149281024933	0.38335299491882324
39	106.77420496940613	response	0	2		37.0	2.5	/experiments/knapen_aot/videos/R_S_comp_A105_C003_0212CT_FLARE_v10_SDR_PS_FINAL_20180711_SDR_2K_AVC.mp4	0.0	196.38999795913696	
39	106.78248810768127	movie	1		163.0	37.0	2.5	/experiments/knapen_aot/videos/R_S_comp_A105_C003_0212CT_FLARE_v10_SDR_PS_FINAL_20180711_SDR_2K_AVC.mp4	0.0	196.3982810974121	2.508314847946167
39	109.29080295562744	fix_post	2		12.0	37.0	2.5	/experiments/knapen_aot/videos/R_S_comp_A105_C003_0212CT_FLARE_v10_SDR_PS_FINAL_20180711_SDR_2K_AVC.mp4	0.0	198.90659594535828	0.09999299049377441
40	109.39079594612122	fix_pre	0		10.0	38.0	2.5	/experiments/knapen_aot/videos/S_yt-qF-69JWJX_Y_55.mp4	0.0	199.00658893585205	0.08331418037414551
40	109.46590805053711	response	0	2		38.0	2.5	/experiments/knapen_aot/videos/S_yt-qF-69JWJX_Y_55.mp4	0.0	199.08170104026794	
40	109.47411012649536	movie	1		301.0	38.0	2.5	/experiments/knapen_aot/videos/S_yt-qF-69JWJX_Y_55.mp4	0.0	199.0899031162262	2.5084969997406006
40	111.98260712623596	fix_post	2		12.0	38.0	2.5	/experiments/knapen_aot/videos/S_yt-qF-69JWJX_Y_55.mp4	0.0	201.5984001159668	0.09982800483703613
41	112.082435131073	fix_pre	0		22.0	39.0	2.5	/experiments/knapen_aot/videos/S_yt-i1h9ZiYZ86U_28.mp4	0.0	201.69822812080383	0.18331384658813477
41	112.2575421333313	response	0	2		39.0	2.5	/experiments/knapen_aot/videos/S_yt-i1h9ZiYZ86U_28.mp4	0.0	201.87333512306213	
41	112.26574897766113	movie	1		301.0	39.0	2.5	/experiments/knapen_aot/videos/S_yt-i1h9ZiYZ86U_28.mp4	0.0	201.88154196739197	2.5087809562683105
41	114.77452993392944	fix_post	2		12.0	39.0	2.5	/experiments/knapen_aot/videos/S_yt-i1h9ZiYZ86U_28.mp4	0.0	204.39032292366028	0.09952116012573242
42	114.87405109405518	fix_pre	0		12.0	40.0	2.5	/experiments/knapen_aot/videos/S_yt-Y3pi1bgUwIg_78.mp4	0.0	204.489844083786	0.09999799728393555
42	114.96581411361694	response	0	2		40.0	2.5	/experiments/knapen_aot/videos/S_yt-Y3pi1bgUwIg_78.mp4	0.0	204.58160710334778	
42	114.97404909133911	movie	1		301.0	40.0	2.5	/experiments/knapen_aot/videos/S_yt-Y3pi1bgUwIg_78.mp4	0.0	204.58984208106995	2.508362054824829
42	117.48241114616394	fix_post	2		12.0	40.0	2.5	/experiments/knapen_aot/videos/S_yt-Y3pi1bgUwIg_78.mp4	0.0	207.09820413589478	0.10003185272216797
43	117.58244299888611	fix_pre	0		20.0	41.0	2.5	blank	1.0	207.19823598861694	0.16662311553955078
43	117.74084210395813	response	0	2		41.0	2.5	blank	1.0	207.35663509368896	
43	117.74906611442566	movie	1		301.0	41.0	2.5	blank	1.0	207.3648591041565	2.508333921432495
43	120.25740003585815	fix_post	2		12.0	41.0	2.5	blank	1.0	209.873193025589	0.10003495216369629
44	120.35743498802185	fix_pre	0		38.0	42.0	2.5	/experiments/knapen_aot/videos/S_yt-kAUL5o7i5mo_116.mp4	0.0	209.97322797775269	0.3166830539703369
44	120.66586112976074	response	0	2		42.0	2.5	/experiments/knapen_aot/videos/S_yt-kAUL5o7i5mo_116.mp4	0.0	210.28165411949158	
44	120.67411804199219	movie	1		301.0	42.0	2.5	/experiments/knapen_aot/videos/S_yt-kAUL5o7i5mo_116.mp4	0.0	210.28991103172302	2.508298873901367
44	123.18241691589355	fix_post	2		12.0	42.0	2.5	/experiments/knapen_aot/videos/S_yt-kAUL5o7i5mo_116.mp4	0.0	212.7982099056244	0.09997916221618652
45	123.28239607810974	fix_pre	0		23.0	43.0	2.5	/experiments/knapen_aot/videos/S_yt-K7viJXt9vX8_143.mp4	0.0	212.89818906784058	0.19162487983703613
45	123.46579504013062	response	0	2		43.0	2.5	/experiments/knapen_aot/videos/S_yt-K7viJXt9vX8_143.mp4	0.0	213.08158802986145	
45	123.47402095794678	movie	1		301.0	43.0	2.5	/experiments/knapen_aot/videos/S_yt-K7viJXt9vX8_143.mp4	0.0	213.0898139476776	2.508362054824829
45	125.9823830127716	fix_post	2		12.0	43.0	2.5	/experiments/knapen_aot/videos/S_yt-K7viJXt9vX8_143.mp4	0.0	215.59817600250244	0.10009312629699707
46	126.0824761390686	fix_pre	0		2.0	44.0	2.5	/experiments/knapen_aot/videos/S_yt-QxNuo4ojvz4_420.mp4	0.0	215.69826912879944	0.016580820083618164
46	126.08492994308472	response	0	2		44.0	2.5	/experiments/knapen_aot/videos/S_yt-QxNuo4ojvz4_420.mp4	0.0	215.70072293281555	
46	126.09905695915222	movie	1		301.0	44.0	2.5	/experiments/knapen_aot/videos/S_yt-QxNuo4ojvz4_420.mp4	0.0	215.71484994888306	2.508329153060913
46	128.60738611221313	fix_post	2		12.0	44.0	2.5	/experiments/knapen_aot/videos/S_yt-QxNuo4ojvz4_420.mp4	0.0	218.22317910194397	0.09998893737792969
47	128.70737504959106	fix_pre	0		28.0	45.0	2.5	/experiments/knapen_aot/videos/S_yt-yyIimWrvRyI_246.mp4	0.0	218.3231680393219	0.2337050437927246
47	128.92489409446716	response	0	2		45.0	2.5	/experiments/knapen_aot/videos/S_yt-yyIimWrvRyI_246.mp4	0.0	218.540687084198	
47	128.9410800933838	movie	1		301.0	45.0	2.5	/experiments/knapen_aot/videos/S_yt-yyIimWrvRyI_246.mp4	0.0	218.55687308311462	2.5079169273376465
47	131.44899702072144	fix_post	2		12.0	45.0	2.5	/experiments/knapen_aot/videos/S_yt-yyIimWrvRyI_246.mp4	0.0	221.06479001045227	0.10004305839538574
48	131.54904007911682	fix_pre	0		10.0	46.0	2.5	/experiments/knapen_aot/videos/S_g201_TH_803_A001_8_SDR_20191031_SDR_2K_AVC.mp4	0.0	221.16483306884766	0.08326888084411621
48	131.62415099143982	response	0	2		46.0	2.5	/experiments/knapen_aot/videos/S_g201_TH_803_A001_8_SDR_20191031_SDR_2K_AVC.mp4	0.0	221.23994398117065	
48	131.63230895996094	movie	1		165.0	46.0	2.5	/experiments/knapen_aot/videos/S_g201_TH_803_A001_8_SDR_20191031_SDR_2K_AVC.mp4	0.0	221.24810194969177	2.5085291862487793
48	134.14083814620972	fix_post	2		12.0	46.0	2.5	/experiments/knapen_aot/videos/S_g201_TH_803_A001_8_SDR_20191031_SDR_2K_AVC.mp4	0.0	223.75663113594055	0.09990978240966797
49	134.24074792861938	fix_pre	0		20.0	47.0	2.5	blank	1.0	223.85654091835022	0.1666731834411621
49	134.39158511161804	response	0	2		47.0	2.5	blank	1.0	224.00737810134888	
49	134.40742111206055	movie	1		301.0	47.0	2.5	blank	1.0	224.02321410179138	2.5083909034729004
49	136.91581201553345	fix_post	2		12.0	47.0	2.5	blank	1.0	226.53160500526428	0.09993505477905273
50	137.0157470703125	fix_pre	0		28.0	48.0	2.5	/experiments/knapen_aot/videos/S_yt-ZzC953ahaxs_195.mp4	0.0	226.63154006004333	0.23326992988586426
50	137.24074697494507	response	0	2		48.0	2.5	/experiments/knapen_aot/videos/S_yt-ZzC953ahaxs_195.mp4	0.0	226.8565399646759	
50	137.24901700019836	movie	1		301.0	48.0	2.5	/experiments/knapen_aot/videos/S_yt-ZzC953ahaxs_195.mp4	0.0	226.8648099899292	2.508388042449951
50	139.75740504264832	fix_post	2		12.0	48.0	2.5	/experiments/knapen_aot/videos/S_yt-ZzC953ahaxs_195.mp4	0.0	229.37319803237915	0.10026001930236816
51	139.85766506195068	fix_pre	0		244.0	49.0	2.5	/experiments/knapen_aot/videos/R_S_ILSVRC2015_train_00373001.mp4	0.0	229.47345805168152	2.0329930782318115
51	141.882483959198	response	0	2		49.0	2.5	/experiments/knapen_aot/videos/R_S_ILSVRC2015_train_00373001.mp4	0.0	231.49827694892883	
51	141.8906581401825	movie	1		301.0	49.0	2.5	/experiments/knapen_aot/videos/R_S_ILSVRC2015_train_00373001.mp4	0.0	231.50645112991333	2.5086147785186768
51	144.39927291870117	fix_post	2		12.0	49.0	2.5	/experiments/knapen_aot/videos/R_S_ILSVRC2015_train_00373001.mp4	0.0	234.015065908432	0.09976506233215332
52	144.49903798103333	fix_pre	0		28.0	50.0	2.5	/experiments/knapen_aot/videos/S_ILSVRC2015_train_00155004.mp4	0.0	234.11483097076416	0.23352408409118652
52	144.72418904304504	response	0	2		50.0	2.5	/experiments/knapen_aot/videos/S_ILSVRC2015_train_00155004.mp4	0.0	234.33998203277588	
52	144.7325620651245	movie	1		301.0	50.0	2.5	/experiments/knapen_aot/videos/S_ILSVRC2015_train_00155004.mp4	0.0	234.34835505485535	2.5081958770751953
52	147.2407579421997	fix_post	2		12.0	50.0	2.5	/experiments/knapen_aot/videos/S_ILSVRC2015_train_00155004.mp4	0.0	236.85655093193054	0.09990715980529785
53	147.340665102005	fix_pre	0		24.0	51.0	2.5	/experiments/knapen_aot/videos/S_yt-JPsTqfqfPIY_319.mp4	0.0	236.95645809173584	0.19992995262145996
53	147.53242897987366	response	0	2		51.0	2.5	/experiments/knapen_aot/videos/S_yt-JPsTqfqfPIY_319.mp4	0.0	237.1482219696045	
53	147.54059505462646	movie	1		301.0	51.0	2.5	/experiments/knapen_aot/videos/S_yt-JPsTqfqfPIY_319.mp4	0.0	237.1563880443573	2.5083680152893066
53	150.04896306991577	fix_post	2		12.0	51.0	2.5	/experiments/knapen_aot/videos/S_yt-JPsTqfqfPIY_319.mp4	0.0	239.6647560596466	0.10031390190124512
54	150.14927697181702	fix_pre	0		12.0	52.0	2.5	/experiments/knapen_aot/videos/S_ILSVRC2015_train_00479004.mp4	0.0	239.76506996154785	0.09967899322509766
54	150.2407500743866	response	0	2		52.0	2.5	/experiments/knapen_aot/videos/S_ILSVRC2015_train_00479004.mp4	0.0	239.85654306411743	
54	150.24895596504211	movie	1		301.0	52.0	2.5	/experiments/knapen_aot/videos/S_ILSVRC2015_train_00479004.mp4	0.0	239.86474895477295	2.508263111114502
54	152.75721907615662	fix_post	2		12.0	52.0	2.5	/experiments/knapen_aot/videos/S_ILSVRC2015_train_00479004.mp4	0.0	242.37301206588745	0.10049986839294434
55	152.85771894454956	fix_pre	0		4.0	53.0	2.5	/experiments/knapen_aot/videos/S_Y004_C015_SDR_2K_AVC.mp4	0.0	242.4735119342804	0.03289318084716797
55	152.88258600234985	response	0	2		53.0	2.5	/experiments/knapen_aot/videos/S_Y004_C015_SDR_2K_AVC.mp4	0.0	242.4983789920807	
55	152.89061212539673	movie	1		167.0	53.0	2.5	/experiments/knapen_aot/videos/S_Y004_C015_SDR_2K_AVC.mp4	0.0	242.50640511512756	2.5085089206695557
55	155.39912104606628	fix_post	2		12.0	53.0	2.5	/experiments/knapen_aot/videos/S_Y004_C015_SDR_2K_AVC.mp4	0.0	245.01491403579712	0.09982895851135254
55	155.46566200256348	response	2	2		53.0	2.5	/experiments/knapen_aot/videos/S_Y004_C015_SDR_2K_AVC.mp4	0.0	245.0814549922943	
56	155.49895000457764	fix_pre	0		68.0	54.0	2.5	/experiments/knapen_aot/videos/R_S_yt-qF-69JWJX_Y_55.mp4	0.0	245.11474299430847	0.5667920112609863
56	156.057275056839	response	0	2		54.0	2.5	/experiments/knapen_aot/videos/R_S_yt-qF-69JWJX_Y_55.mp4	0.0	245.67306804656982	
56	156.06574201583862	movie	1		301.0	54.0	2.5	/experiments/knapen_aot/videos/R_S_yt-qF-69JWJX_Y_55.mp4	0.0	245.68153500556946	2.50821590423584
56	158.57395792007446	fix_post	2		12.0	54.0	2.5	/experiments/knapen_aot/videos/R_S_yt-qF-69JWJX_Y_55.mp4	0.0	248.1897509098053	0.09996509552001953
57	158.67392301559448	fix_pre	0		11.0	55.0	2.5	/experiments/knapen_aot/videos/S_yt--5ls65Ue1RA_52.mp4	0.0	248.28971600532532	0.09167695045471191
57	158.75737810134888	response	0	2		55.0	2.5	/experiments/knapen_aot/videos/S_yt--5ls65Ue1RA_52.mp4	0.0	248.3731710910797	
57	158.7655999660492	movie	1		301.0	55.0	2.5	/experiments/knapen_aot/videos/S_yt--5ls65Ue1RA_52.mp4	0.0	248.38139295578003	2.508716106414795
57	161.0740089416504	response	1	2		55.0	2.5	/experiments/knapen_aot/videos/S_yt--5ls65Ue1RA_52.mp4	0.0	250.68980193138123	
57	161.274316072464	fix_post	2		12.0	55.0	2.5	/experiments/knapen_aot/videos/S_yt--5ls65Ue1RA_52.mp4	0.0	250.89010906219482	0.09958600997924805
58	161.37390208244324	fix_pre	0		56.0	56.0	2.5	blank	1.0	250.98969507217407	0.4666249752044678
58	161.83223700523376	response	0	2		56.0	2.5	blank	1.0	251.4480299949646	
58	161.8405270576477	movie	1		301.0	56.0	2.5	blank	1.0	251.45632004737854	2.508409023284912
58	164.34893608093262	fix_post	2		12.0	56.0	2.5	blank	1.0	253.96472907066345	0.10002493858337402
59	164.448961019516	fix_pre	0		46.0	57.0	2.5	/experiments/knapen_aot/videos/R_S_ILSVRC2015_train_00547001.mp4	0.0	254.06475400924683	0.3832230567932129
59	164.82404613494873	response	0	2		57.0	2.5	/experiments/knapen_aot/videos/R_S_ILSVRC2015_train_00547001.mp4	0.0	254.43983912467957	
59	164.8321840763092	movie	1		301.0	57.0	2.5	/experiments/knapen_aot/videos/R_S_ILSVRC2015_train_00547001.mp4	0.0	254.44797706604004	2.5083959102630615
59	167.34057998657227	fix_post	2		12.0	57.0	2.5	/experiments/knapen_aot/videos/R_S_ILSVRC2015_train_00547001.mp4	0.0	256.9563729763031	0.10014104843139648
60	167.44072103500366	fix_pre	0		40.0	58.0	2.5	/experiments/knapen_aot/videos/R_S_yt-ebajhZwlVJM_32.mp4	0.0	257.0565140247345	0.33324408531188965
60	167.76569604873657	response	0	2		58.0	2.5	/experiments/knapen_aot/videos/R_S_yt-ebajhZwlVJM_32.mp4	0.0	257.3814890384674	
60	167.77396512031555	movie	1		301.0	58.0	2.5	/experiments/knapen_aot/videos/R_S_yt-ebajhZwlVJM_32.mp4	0.0	257.3897581100464	2.5082948207855225
60	170.28225994110107	fix_post	2		12.0	58.0	2.5	/experiments/knapen_aot/videos/R_S_yt-ebajhZwlVJM_32.mp4	0.0	259.8980529308319	0.09998297691345215
61	170.38224291801453	fix_pre	0		22.0	59.0	2.5	/experiments/knapen_aot/videos/S_yt-rB3YVZvA78w_20.mp4	0.0	259.99803590774536	0.1833820343017578
61	170.55729603767395	response	0	2		59.0	2.5	/experiments/knapen_aot/videos/S_yt-rB3YVZvA78w_20.mp4	0.0	260.1730890274048	
61	170.56562495231628	movie	1		301.0	59.0	2.5	/experiments/knapen_aot/videos/S_yt-rB3YVZvA78w_20.mp4	0.0	260.1814179420471	2.5082850456237793
61	173.07390999794006	fix_post	2		12.0	59.0	2.5	/experiments/knapen_aot/videos/S_yt-rB3YVZvA78w_20.mp4	0.0	262.6897029876709	0.09991002082824707
62	173.1738200187683	fix_pre	0		18.0	60.0	2.5	/experiments/knapen_aot/videos/R_S_yt-fIEGqReekCM_10.mp4	0.0	262.78961300849915	0.14999604225158691
62	173.31572604179382	response	0	2		60.0	2.5	/experiments/knapen_aot/videos/R_S_yt-fIEGqReekCM_10.mp4	0.0	262.93151903152466	
62	173.3238160610199	movie	1		301.0	60.0	2.5	/experiments/knapen_aot/videos/R_S_yt-fIEGqReekCM_10.mp4	0.0	262.93960905075073	2.5084259510040283
62	175.6406271457672	response	1	2		60.0	2.5	/experiments/knapen_aot/videos/R_S_yt-fIEGqReekCM_10.mp4	0.0	265.25642013549805	
62	175.83224201202393	fix_post	2		12.0	60.0	2.5	/experiments/knapen_aot/videos/R_S_yt-fIEGqReekCM_10.mp4	0.0	265.44803500175476	0.09999990463256836
63	175.9322419166565	fix_pre	0		10.0	61.0	2.5	blank	1.0	265.54803490638733	0.08333921432495117
63	176.007395029068	response	0	2		61.0	2.5	blank	1.0	265.6231880187988	
63	176.01558113098145	movie	1		301.0	61.0	2.5	blank	1.0	265.6313741207123	2.5083558559417725
63	178.52393698692322	fix_post	2		12.0	61.0	2.5	blank	1.0	268.13972997665405	0.09995412826538086
64	178.6238911151886	fix_pre	0		31.0	62.0	2.5	/experiments/knapen_aot/videos/R_S_xTlFOCRvy68_1564.mp4	0.0	268.23968410491943	0.2582249641418457
64	178.87393403053284	response	0	2		62.0	2.5	/experiments/knapen_aot/videos/R_S_xTlFOCRvy68_1564.mp4	0.0	268.4897270202637	
64	178.88211607933044	movie	1		301.0	62.0	2.5	/experiments/knapen_aot/videos/R_S_xTlFOCRvy68_1564.mp4	0.0	268.4979090690613	2.5083889961242676
64	181.3905050754547	fix_post	2		12.0	62.0	2.5	/experiments/knapen_aot/videos/R_S_xTlFOCRvy68_1564.mp4	0.0	271.00629806518555	0.09998798370361328
65	181.49049305915833	fix_pre	0		13.0	63.0	2.5	/experiments/knapen_aot/videos/S_yt-zQnaVApUPH0_14.mp4	0.0	271.10628604888916	0.10831785202026367
65	181.5833511352539	response	0	2		63.0	2.5	/experiments/knapen_aot/videos/S_yt-zQnaVApUPH0_14.mp4	0.0	271.19914412498474	
65	181.5988109111786	movie	1		301.0	63.0	2.5	/experiments/knapen_aot/videos/S_yt-zQnaVApUPH0_14.mp4	0.0	271.2146039009094	2.508786201477051
65	184.10759711265564	fix_post	2		12.0	63.0	2.5	/experiments/knapen_aot/videos/S_yt-zQnaVApUPH0_14.mp4	0.0	273.7233901023865	0.09956502914428711
66	184.20716214179993	fix_pre	0		20.0	64.0	2.5	/experiments/knapen_aot/videos/R_S_yt-H-qQ0oE1kwM_6.mp4	0.0	273.82295513153076	0.16666579246520996
66	184.36554312705994	response	0	2		64.0	2.5	/experiments/knapen_aot/videos/R_S_yt-H-qQ0oE1kwM_6.mp4	0.0	273.98133611679077	
66	184.37382793426514	movie	1		301.0	64.0	2.5	/experiments/knapen_aot/videos/R_S_yt-H-qQ0oE1kwM_6.mp4	0.0	273.989620923996	2.5083301067352295
66	186.88215804100037	fix_post	2		12.0	64.0	2.5	/experiments/knapen_aot/videos/R_S_yt-H-qQ0oE1kwM_6.mp4	0.0	276.4979510307312	0.10058307647705078
67	186.98274111747742	fix_pre	0		7.0	65.0	2.5	/experiments/knapen_aot/videos/R_S_yt-1V0KJEc4cJ4_203.mp4	0.0	276.59853410720825	0.05771899223327637
67	187.0322880744934	response	0	2		65.0	2.5	/experiments/knapen_aot/videos/R_S_yt-1V0KJEc4cJ4_203.mp4	0.0	276.64808106422424	
67	187.0404601097107	movie	1		301.0	65.0	2.5	/experiments/knapen_aot/videos/R_S_yt-1V0KJEc4cJ4_203.mp4	0.0	276.6562530994415	2.508430004119873
67	189.54889011383057	fix_post	2		12.0	65.0	2.5	/experiments/knapen_aot/videos/R_S_yt-1V0KJEc4cJ4_203.mp4	0.0	279.1646831035614	0.09998083114624023
68	189.6488709449768	fix_pre	0		17.0	66.0	2.5	/experiments/knapen_aot/videos/S_ILSVRC2015_train_00044004.mp4	0.0	279.26466393470764	0.14151501655578613
68	189.78224802017212	response	0	2		66.0	2.5	/experiments/knapen_aot/videos/S_ILSVRC2015_train_00044004.mp4	0.0	279.39804100990295	
68	189.7903859615326	movie	1		301.0	66.0	2.5	/experiments/knapen_aot/videos/S_ILSVRC2015_train_00044004.mp4	0.0	279.4061789512634	2.5086710453033447
68	192.29905700683594	fix_post	2		12.0	66.0	2.5	/experiments/knapen_aot/videos/S_ILSVRC2015_train_00044004.mp4	0.0	281.9148499965668	0.09974813461303711
69	192.39880514144897	fix_pre	0		10.0	67.0	2.5	/experiments/knapen_aot/videos/S_comp_A103_C002_0205DG_v12_SDR_FINAL_20180706_SDR_2K_AVC.mp4	0.0	282.0145981311798	0.08333277702331543
69	192.47393608093262	response	0	2		67.0	2.5	/experiments/knapen_aot/videos/S_comp_A103_C002_0205DG_v12_SDR_FINAL_20180706_SDR_2K_AVC.mp4	0.0	282.08972907066345	
69	192.4821379184723	movie	1		167.0	67.0	2.5	/experiments/knapen_aot/videos/S_comp_A103_C002_0205DG_v12_SDR_FINAL_20180706_SDR_2K_AVC.mp4	0.0	282.0979309082031	2.5082991123199463
69	194.99043703079224	fix_post	2		12.0	67.0	2.5	/experiments/knapen_aot/videos/S_comp_A103_C002_0205DG_v12_SDR_FINAL_20180706_SDR_2K_AVC.mp4	0.0	284.60623002052307	0.09998202323913574
70	195.09041905403137	fix_pre	0		27.0	68.0	2.5	blank	1.0	284.7062120437622	0.2250669002532959
70	195.30725407600403	response	0	2		68.0	2.5	blank	1.0	284.92304706573486	
70	195.31548595428467	movie	1		301.0	68.0	2.5	blank	1.0	284.9312789440155	2.5083391666412354
70	197.8238251209259	fix_post	2		12.0	68.0	2.5	blank	1.0	287.43961811065674	0.1001439094543457
71	197.92396903038025	fix_pre	0		29.0	69.0	2.5	/experiments/knapen_aot/videos/R_S_yt-WFiEvQuOqqg_18.mp4	0.0	287.5397620201111	0.24142003059387207
71	198.15723395347595	response	0	2		69.0	2.5	/experiments/knapen_aot/videos/R_S_yt-WFiEvQuOqqg_18.mp4	0.0	287.7730269432068	
71	198.16538906097412	movie	1		301.0	69.0	2.5	/experiments/knapen_aot/videos/R_S_yt-WFiEvQuOqqg_18.mp4	0.0	287.78118205070496	2.5083799362182617
71	200.67376899719238	fix_post	2		12.0	69.0	2.5	/experiments/knapen_aot/videos/R_S_yt-WFiEvQuOqqg_18.mp4	0.0	290.2895619869232	0.1000220775604248
72	200.7737910747528	fix_pre	0		9.0	70.0	2.5	/experiments/knapen_aot/videos/S_yt-F3hhts3bwWg_25.mp4	0.0	290.38958406448364	0.07494091987609863
72	200.84046006202698	response	0	2		70.0	2.5	/experiments/knapen_aot/videos/S_yt-F3hhts3bwWg_25.mp4	0.0	290.4562530517578	
72	200.8487319946289	movie	1		301.0	70.0	2.5	/experiments/knapen_aot/videos/S_yt-F3hhts3bwWg_25.mp4	0.0	290.46452498435974	2.5084171295166016
72	203.3571491241455	fix_post	2		12.0	70.0	2.5	/experiments/knapen_aot/videos/S_yt-F3hhts3bwWg_25.mp4	0.0	292.97294211387634	0.09996581077575684
73	203.45711493492126	fix_pre	0		40.0	71.0	2.5	/experiments/knapen_aot/videos/S_yt-IC62JSYpq9w_71.mp4	0.0	293.0729079246521	0.3332390785217285
73	203.78217911720276	response	0	2		71.0	2.5	/experiments/knapen_aot/videos/S_yt-IC62JSYpq9w_71.mp4	0.0	293.3979721069336	
73	203.790354013443	movie	1		301.0	71.0	2.5	/experiments/knapen_aot/videos/S_yt-IC62JSYpq9w_71.mp4	0.0	293.4061470031738	2.5083460807800293
73	206.29870009422302	fix_post	2		12.0	71.0	2.5	/experiments/knapen_aot/videos/S_yt-IC62JSYpq9w_71.mp4	0.0	295.91449308395386	0.10008382797241211
74	206.39878392219543	fix_pre	0		24.0	72.0	2.5	/experiments/knapen_aot/videos/R_S_yt-SkIJvj6KNOo_33.mp4	0.0	296.01457691192627	0.199951171875
74	206.59048295021057	response	0	2		72.0	2.5	/experiments/knapen_aot/videos/R_S_yt-SkIJvj6KNOo_33.mp4	0.0	296.2062759399414	
74	206.59873509407043	movie	1		301.0	72.0	2.5	/experiments/knapen_aot/videos/R_S_yt-SkIJvj6KNOo_33.mp4	0.0	296.21452808380127	2.5084409713745117
74	209.10717606544495	fix_post	2		12.0	72.0	2.5	/experiments/knapen_aot/videos/R_S_yt-SkIJvj6KNOo_33.mp4	0.0	298.7229690551758	0.09987688064575195
75	209.2070529460907	fix_pre	0		17.0	73.0	2.5	/experiments/knapen_aot/videos/S_yt-BDCyXL5e9S4_223.mp4	0.0	298.82284593582153	0.14170098304748535
75	209.34046292304993	response	0	2		73.0	2.5	/experiments/knapen_aot/videos/S_yt-BDCyXL5e9S4_223.mp4	0.0	298.95625591278076	
75	209.34875392913818	movie	1		301.0	73.0	2.5	/experiments/knapen_aot/videos/S_yt-BDCyXL5e9S4_223.mp4	0.0	298.964546918869	2.508305072784424
75	211.8570590019226	fix_post	2		12.0	73.0	2.5	/experiments/knapen_aot/videos/S_yt-BDCyXL5e9S4_223.mp4	0.0	301.47285199165344	0.10001897811889648
76	211.9570779800415	fix_pre	0		41.0	74.0	2.5	/experiments/knapen_aot/videos/R_S_ILSVRC2015_train_00457000.mp4	0.0	301.57287096977234	0.3416280746459961
76	212.2904360294342	response	0	2		74.0	2.5	/experiments/knapen_aot/videos/R_S_ILSVRC2015_train_00457000.mp4	0.0	301.90622901916504	
76	212.2987060546875	movie	1		301.0	74.0	2.5	/experiments/knapen_aot/videos/R_S_ILSVRC2015_train_00457000.mp4	0.0	301.91449904441833	2.5083558559417725
76	214.80706191062927	fix_post	2		12.0	74.0	2.5	/experiments/knapen_aot/videos/R_S_ILSVRC2015_train_00457000.mp4	0.0	304.4228549003601	0.09999608993530273
77	214.90705800056458	fix_pre	0		11.0	75.0	2.5	/experiments/knapen_aot/videos/S_yt-fIEGqReekCM_10.mp4	0.0	304.5228509902954	0.09175395965576172
77	214.9904761314392	response	0	2		75.0	2.5	/experiments/knapen_aot/videos/S_yt-fIEGqReekCM_10.mp4	0.0	304.60626912117004	
77	214.99881196022034	movie	1		301.0	75.0	2.5	/experiments/knapen_aot/videos/S_yt-fIEGqReekCM_10.mp4	0.0	304.6146049499512	2.5082449913024902
77	217.50705695152283	fix_post	2		12.0	75.0	2.5	/experiments/knapen_aot/videos/S_yt-fIEGqReekCM_10.mp4	0.0	307.12284994125366	0.09998011589050293
78	217.60703706741333	fix_pre	0		38.0	76.0	2.5	/experiments/knapen_aot/videos/S_yt-qurTr1BJMec_244.mp4	0.0	307.22283005714417	0.3166689872741699
78	217.9080309867859	response	0	2		76.0	2.5	/experiments/knapen_aot/videos/S_yt-qurTr1BJMec_244.mp4	0.0	307.5238239765167	
78	217.9237060546875	movie	1		301.0	76.0	2.5	/experiments/knapen_aot/videos/S_yt-qurTr1BJMec_244.mp4	0.0	307.53949904441833	2.5083348751068115
78	220.4320409297943	fix_post	2		12.0	76.0	2.5	/experiments/knapen_aot/videos/S_yt-qurTr1BJMec_244.mp4	0.0	310.04783391952515	0.09997916221618652
79	220.5320200920105	fix_pre	0		17.0	77.0	2.5	blank	1.0	310.14781308174133	0.14167284965515137
79	220.66551399230957	response	0	2		77.0	2.5	blank	1.0	310.2813069820404	
79	220.67369294166565	movie	1		301.0	77.0	2.5	blank	1.0	310.2894859313965	2.5083250999450684
79	223.18201804161072	fix_post	2		12.0	77.0	2.5	blank	1.0	312.79781103134155	0.09997797012329102
80	223.281996011734	fix_pre	0		24.0	78.0	2.5	/experiments/knapen_aot/videos/R_S_yt-xWCPbUQc-vg_7.mp4	0.0	312.89778900146484	0.20009708404541016
80	223.47378206253052	response	0	2		78.0	2.5	/experiments/knapen_aot/videos/R_S_yt-xWCPbUQc-vg_7.mp4	0.0	313.08957505226135	
80	223.48209309577942	movie	1		301.0	78.0	2.5	/experiments/knapen_aot/videos/R_S_yt-xWCPbUQc-vg_7.mp4	0.0	313.09788608551025	2.5082550048828125
80	225.99034810066223	fix_post	2		12.0	78.0	2.5	/experiments/knapen_aot/videos/R_S_yt-xWCPbUQc-vg_7.mp4	0.0	315.60614109039307	0.10008001327514648
81	226.09042811393738	fix_pre	0		46.0	79.0	2.5	/experiments/knapen_aot/videos/R_S_yt-IC62JSYpq9w_71.mp4	0.0	315.7062211036682	0.3844268321990967
81	226.46549010276794	response	0	2		79.0	2.5	/experiments/knapen_aot/videos/R_S_yt-IC62JSYpq9w_71.mp4	0.0	316.0812830924988	
81	226.47485494613647	movie	1		301.0	79.0	2.5	/experiments/knapen_aot/videos/R_S_yt-IC62JSYpq9w_71.mp4	0.0	316.0906479358673	2.5071520805358887
81	228.98200702667236	fix_post	2		12.0	79.0	2.5	/experiments/knapen_aot/videos/R_S_yt-IC62JSYpq9w_71.mp4	0.0	318.5978000164032	0.09997296333312988
82	229.0819799900055	fix_pre	0		6.0	80.0	2.5	/experiments/knapen_aot/videos/S_ILSVRC2015_train_00654000.mp4	0.0	318.6977729797363	0.050022125244140625
82	229.12377095222473	response	0	2		80.0	2.5	/experiments/knapen_aot/videos/S_ILSVRC2015_train_00654000.mp4	0.0	318.73956394195557	
82	229.13200211524963	movie	1		301.0	80.0	2.5	/experiments/knapen_aot/videos/S_ILSVRC2015_train_00654000.mp4	0.0	318.74779510498047	2.508366823196411
82	231.64036893844604	fix_post	2		12.0	80.0	2.5	/experiments/knapen_aot/videos/S_ILSVRC2015_train_00654000.mp4	0.0	321.2561619281769	0.09993410110473633
83	231.74030303955078	fix_pre	0		19.0	81.0	2.5	/experiments/knapen_aot/videos/R_S_g201_WH_D004_L014_SDR_20191031_SDR_2K_AVC.mp4	0.0	321.3560960292816	0.15830397605895996
83	231.89041805267334	response	0	2		81.0	2.5	/experiments/knapen_aot/videos/R_S_g201_WH_D004_L014_SDR_20191031_SDR_2K_AVC.mp4	0.0	321.5062110424042	
83	231.89860701560974	movie	1		174.0	81.0	2.5	/experiments/knapen_aot/videos/R_S_g201_WH_D004_L014_SDR_20191031_SDR_2K_AVC.mp4	0.0	321.5144000053406	2.508368968963623
83	234.40697598457336	fix_post	2		12.0	81.0	2.5	/experiments/knapen_aot/videos/R_S_g201_WH_D004_L014_SDR_20191031_SDR_2K_AVC.mp4	0.0	324.0227689743042	0.09999203681945801
84	234.50696802139282	fix_pre	0		11.0	82.0	2.5	blank	1.0	324.12276101112366	0.09168696403503418
84	234.59043192863464	response	0	2		82.0	2.5	blank	1.0	324.2062249183655	
84	234.59865498542786	movie	1		301.0	82.0	2.5	blank	1.0	324.2144479751587	2.508540153503418
84	237.10719513893127	fix_post	2		12.0	82.0	2.5	blank	1.0	326.7229881286621	0.09980177879333496
85	237.2069969177246	fix_pre	0		18.0	83.0	2.5	/experiments/knapen_aot/videos/S_yt-CNq5mTA8oXY_176.mp4	0.0	326.82278990745544	0.14994215965270996
85	237.34875297546387	response	0	2		83.0	2.5	/experiments/knapen_aot/videos/S_yt-CNq5mTA8oXY_176.mp4	0.0	326.9645459651947	
85	237.35693907737732	movie	1		301.0	83.0	2.5	/experiments/knapen_aot/videos/S_yt-CNq5mTA8oXY_176.mp4	0.0	326.97273206710815	2.50839900970459
85	239.8653380870819	fix_post	2		12.0	83.0	2.5	/experiments/knapen_aot/videos/S_yt-CNq5mTA8oXY_176.mp4	0.0	329.48113107681274	0.09994292259216309
87	239.96528100967407	stim	0		335.0					329.5810739994049	2.794140100479126
87	240.11544013023376	response	0	2						329.7312331199646	
87	242.75158309936523	response	0	space						332.36737608909607	
