trial_nr	onset	event_type	phase	response	nr_frames	movie_index	movie_duration	movie_file	blank	onset_abs	duration
0	0.1318509578704834	stim	0		63.0					62.20755577087402	0.5242111682891846
0	0.6405341625213623	response	0	space						62.7162389755249	
1	0.656062126159668	stim	0		121.0					62.73176693916321	1.0081498622894287
1	1.6642119884490967	stim	1		120.0					63.73991680145264	0.9997210502624512
1	1.7225699424743652	response	1	space						63.798274755477905	
2	2.663933038711548	fix_pre	0		22.0	0.0	2.5	/experiments/knapen_aot/videos/R_S_comp_DB_D008_C010_PSNK_v21_SDR_PS_20180914_F0F16157_SDR_2K_AVC.mp4	0.0	64.73963785171509	0.1916189193725586
2	2.8473949432373047	response	0	space		0.0	2.5	/experiments/knapen_aot/videos/R_S_comp_DB_D008_C010_PSNK_v21_SDR_PS_20180914_F0F16157_SDR_2K_AVC.mp4	0.0	64.92309975624084	
2	2.8555519580841064	movie	1		169.0	0.0	2.5	/experiments/knapen_aot/videos/R_S_comp_DB_D008_C010_PSNK_v21_SDR_PS_20180914_F0F16157_SDR_2K_AVC.mp4	0.0	64.93125677108765	2.5083069801330566
2	5.363858938217163	fix_post	2		11.0	0.0	2.5	/experiments/knapen_aot/videos/R_S_comp_DB_D008_C010_PSNK_v21_SDR_PS_20180914_F0F16157_SDR_2K_AVC.mp4	0.0	67.4395637512207	0.09394407272338867
2	5.444481134414673	response	2	2		0.0	2.5	/experiments/knapen_aot/videos/R_S_comp_DB_D008_C010_PSNK_v21_SDR_PS_20180914_F0F16157_SDR_2K_AVC.mp4	0.0	67.52018594741821	
3	5.457803010940552	fix_pre	0		51.0	1.0	2.5	/experiments/knapen_aot/videos/S_yt-CRw9-cCQqbg_332.mp4	0.0	67.53350782394409	0.4235830307006836
3	5.872383117675781	response	0	2		1.0	2.5	/experiments/knapen_aot/videos/S_yt-CRw9-cCQqbg_332.mp4	0.0	67.94808793067932	
3	5.881386041641235	movie	1		301.0	1.0	2.5	/experiments/knapen_aot/videos/S_yt-CRw9-cCQqbg_332.mp4	0.0	67.95709085464478	2.5075430870056152
3	8.38892912864685	fix_post	2		12.0	1.0	2.5	/experiments/knapen_aot/videos/S_yt-CRw9-cCQqbg_332.mp4	0.0	70.46463394165039	0.0999608039855957
4	8.488889932632446	fix_pre	0		6.0	2.0	2.5	/experiments/knapen_aot/videos/S_yt-LGwEki4ghNw_69.mp4	0.0	70.56459474563599	0.05006122589111328
4	8.530632019042969	response	0	2		2.0	2.5	/experiments/knapen_aot/videos/S_yt-LGwEki4ghNw_69.mp4	0.0	70.60633683204651	
4	8.53895115852356	movie	1		301.0	2.0	2.5	/experiments/knapen_aot/videos/S_yt-LGwEki4ghNw_69.mp4	0.0	70.6146559715271	2.508291006088257
4	11.047242164611816	fix_post	2		12.0	2.0	2.5	/experiments/knapen_aot/videos/S_yt-LGwEki4ghNw_69.mp4	0.0	73.12294697761536	0.09997797012329102
5	11.147220134735107	fix_pre	0		9.0	3.0	2.5	/experiments/knapen_aot/videos/S_comp_GMT060_117NC_363D_1034_AUSTRALIA_v35_SDR_PS_FINAL_20180731_SDR_2K_AVC.mp4	0.0	73.22292494773865	0.07516193389892578
5	11.21420693397522	response	0	2		3.0	2.5	/experiments/knapen_aot/videos/S_comp_GMT060_117NC_363D_1034_AUSTRALIA_v35_SDR_PS_FINAL_20180731_SDR_2K_AVC.mp4	0.0	73.28991174697876	
5	11.222382068634033	movie	1		163.0	3.0	2.5	/experiments/knapen_aot/videos/S_comp_GMT060_117NC_363D_1034_AUSTRALIA_v35_SDR_PS_FINAL_20180731_SDR_2K_AVC.mp4	0.0	73.29808688163757	2.5080978870391846
5	13.730479955673218	fix_post	2		12.0	3.0	2.5	/experiments/knapen_aot/videos/S_comp_GMT060_117NC_363D_1034_AUSTRALIA_v35_SDR_PS_FINAL_20180731_SDR_2K_AVC.mp4	0.0	75.80618476867676	0.10001611709594727
6	13.830496072769165	fix_pre	0		1.0	4.0	2.5	/experiments/knapen_aot/videos/S_pexels-artem-podrez-5457692.mp4	0.0	75.9062008857727	0.009310007095336914
6	13.832109928131104	response	0	2		4.0	2.5	/experiments/knapen_aot/videos/S_pexels-artem-podrez-5457692.mp4	0.0	75.90781474113464	
6	13.839806079864502	movie	1		163.0	4.0	2.5	/experiments/knapen_aot/videos/S_pexels-artem-podrez-5457692.mp4	0.0	75.91551089286804	2.5073769092559814
6	16.347182989120483	fix_post	2		12.0	4.0	2.5	/experiments/knapen_aot/videos/S_pexels-artem-podrez-5457692.mp4	0.0	78.42288780212402	0.09995102882385254
7	16.447134017944336	fix_pre	0		1.0	5.0	2.5	/experiments/knapen_aot/videos/S_yt-V4Oosy-ZtGY_193.mp4	0.0	78.52283883094788	0.010970115661621094
7	16.44877004623413	response	0	2		5.0	2.5	/experiments/knapen_aot/videos/S_yt-V4Oosy-ZtGY_193.mp4	0.0	78.52447485923767	
7	16.458104133605957	movie	1		301.0	5.0	2.5	/experiments/knapen_aot/videos/S_yt-V4Oosy-ZtGY_193.mp4	0.0	78.5338089466095	2.505733013153076
7	18.963837146759033	fix_post	2		12.0	5.0	2.5	/experiments/knapen_aot/videos/S_yt-V4Oosy-ZtGY_193.mp4	0.0	81.03954195976257	0.10001397132873535
8	19.06385111808777	fix_pre	0		3.0	6.0	2.5	blank	1.0	81.13955593109131	0.02602100372314453
8	19.080641984939575	response	0	2		6.0	2.5	blank	1.0	81.15634679794312	
8	19.089872121810913	movie	1		301.0	6.0	2.5	blank	1.0	81.16557693481445	2.5072848796844482
8	21.59715700149536	fix_post	2		12.0	6.0	2.5	blank	1.0	83.6728618144989	0.10006904602050781
9	21.69722604751587	fix_pre	0		17.0	7.0	2.5	/experiments/knapen_aot/videos/R_S_yt-OFnDCbW9Ebo_31.mp4	0.0	83.77293086051941	0.1423790454864502
9	21.83063507080078	response	0	2		7.0	2.5	/experiments/knapen_aot/videos/R_S_yt-OFnDCbW9Ebo_31.mp4	0.0	83.90633988380432	
9	21.83960509300232	movie	1		301.0	7.0	2.5	/experiments/knapen_aot/videos/R_S_yt-OFnDCbW9Ebo_31.mp4	0.0	83.91530990600586	2.5076019763946533
9	24.347207069396973	fix_post	2		12.0	7.0	2.5	/experiments/knapen_aot/videos/R_S_yt-OFnDCbW9Ebo_31.mp4	0.0	86.42291188240051	0.09990692138671875
9	24.438926935195923	response	2	2		7.0	2.5	/experiments/knapen_aot/videos/R_S_yt-OFnDCbW9Ebo_31.mp4	0.0	86.51463174819946	
10	24.44711399078369	fix_pre	0		46.0	8.0	2.5	/experiments/knapen_aot/videos/R_S_yt-f9iXELY0EJ0_344.mp4	0.0	86.52281880378723	0.3833761215209961
10	24.82224702835083	response	0	2		8.0	2.5	/experiments/knapen_aot/videos/R_S_yt-f9iXELY0EJ0_344.mp4	0.0	86.89795184135437	
10	24.830490112304688	movie	1		301.0	8.0	2.5	/experiments/knapen_aot/videos/R_S_yt-f9iXELY0EJ0_344.mp4	0.0	86.90619492530823	2.5083868503570557
10	27.338876962661743	fix_post	2		12.0	8.0	2.5	/experiments/knapen_aot/videos/R_S_yt-f9iXELY0EJ0_344.mp4	0.0	89.41458177566528	0.09985017776489258
11	27.438727140426636	fix_pre	0		26.0	9.0	2.5	/experiments/knapen_aot/videos/R_S_yt-g_CLzrCYHoc_7.mp4	0.0	89.51443195343018	0.2167057991027832
11	27.64730715751648	response	0	2		9.0	2.5	/experiments/knapen_aot/videos/R_S_yt-g_CLzrCYHoc_7.mp4	0.0	89.72301197052002	
11	27.65543293952942	movie	1		300.0	9.0	2.5	/experiments/knapen_aot/videos/R_S_yt-g_CLzrCYHoc_7.mp4	0.0	89.73113775253296	2.5084681510925293
11	30.16390109062195	fix_post	2		12.0	9.0	2.5	/experiments/knapen_aot/videos/R_S_yt-g_CLzrCYHoc_7.mp4	0.0	92.23960590362549	0.09993290901184082
12	30.26383399963379	fix_pre	0		12.0	10.0	2.5	/experiments/knapen_aot/videos/S_Pz_NXxhQCJc_70.mp4	0.0	92.33953881263733	0.0999751091003418
12	30.355612993240356	response	0	2		10.0	2.5	/experiments/knapen_aot/videos/S_Pz_NXxhQCJc_70.mp4	0.0	92.4313178062439	
12	30.36380910873413	movie	1		301.0	10.0	2.5	/experiments/knapen_aot/videos/S_Pz_NXxhQCJc_70.mp4	0.0	92.43951392173767	2.508450984954834
12	32.872260093688965	fix_post	2		12.0	10.0	2.5	/experiments/knapen_aot/videos/S_Pz_NXxhQCJc_70.mp4	0.0	94.9479649066925	0.09990286827087402
13	32.97216296195984	fix_pre	0		15.0	11.0	2.5	/experiments/knapen_aot/videos/R_S_yt-2WPmM2vIuBE_41.mp4	0.0	95.04786777496338	0.12489700317382812
13	33.08890199661255	response	0	2		11.0	2.5	/experiments/knapen_aot/videos/R_S_yt-2WPmM2vIuBE_41.mp4	0.0	95.16460680961609	
13	33.09705996513367	movie	1		301.0	11.0	2.5	/experiments/knapen_aot/videos/R_S_yt-2WPmM2vIuBE_41.mp4	0.0	95.1727647781372	2.5083231925964355
13	35.6053831577301	fix_post	2		12.0	11.0	2.5	/experiments/knapen_aot/videos/R_S_yt-2WPmM2vIuBE_41.mp4	0.0	97.68108797073364	0.10010099411010742
14	35.70548415184021	fix_pre	0		13.0	12.0	2.5	/experiments/knapen_aot/videos/R_S_yt-h09NHEfoKb0_8.mp4	0.0	97.78118896484375	0.10831093788146973
14	35.80559301376343	response	0	2		12.0	2.5	/experiments/knapen_aot/videos/R_S_yt-h09NHEfoKb0_8.mp4	0.0	97.88129782676697	
14	35.81379508972168	movie	1		301.0	12.0	2.5	/experiments/knapen_aot/videos/R_S_yt-h09NHEfoKb0_8.mp4	0.0	97.88949990272522	2.5083229541778564
14	38.322118043899536	fix_post	2		12.0	12.0	2.5	/experiments/knapen_aot/videos/R_S_yt-h09NHEfoKb0_8.mp4	0.0	100.39782285690308	0.10000300407409668
15	38.42212104797363	fix_pre	0		29.0	13.0	2.5	/experiments/knapen_aot/videos/R_S_ILSVRC2015_train_00001011.mp4	0.0	100.49782586097717	0.2415599822998047
15	38.6555290222168	response	0	2		13.0	2.5	/experiments/knapen_aot/videos/R_S_ILSVRC2015_train_00001011.mp4	0.0	100.73123383522034	
15	38.66368103027344	movie	1		297.0	13.0	2.5	/experiments/knapen_aot/videos/R_S_ILSVRC2015_train_00001011.mp4	0.0	100.73938584327698	2.508441925048828
15	41.172122955322266	fix_post	2		12.0	13.0	2.5	/experiments/knapen_aot/videos/R_S_ILSVRC2015_train_00001011.mp4	0.0	103.2478277683258	0.09993910789489746
16	41.27206206321716	fix_pre	0		16.0	14.0	2.5	blank	1.0	103.3477668762207	0.13330602645874023
16	41.3898720741272	response	0	2		14.0	2.5	blank	1.0	103.46557688713074	
16	41.4053680896759	movie	1		301.0	14.0	2.5	blank	1.0	103.48107290267944	2.508380889892578
16	43.91374897956848	fix_post	2		12.0	14.0	2.5	blank	1.0	105.98945379257202	0.09990715980529785
17	44.01365613937378	fix_pre	0		22.0	15.0	2.5	/experiments/knapen_aot/videos/R_S_yt-fQgLKiz2tuM_14.mp4	0.0	106.08936095237732	0.18337392807006836
17	44.1812629699707	response	0	2		15.0	2.5	/experiments/knapen_aot/videos/R_S_yt-fQgLKiz2tuM_14.mp4	0.0	106.25696778297424	
17	44.19703006744385	movie	1		299.0	15.0	2.5	/experiments/knapen_aot/videos/R_S_yt-fQgLKiz2tuM_14.mp4	0.0	106.27273488044739	2.5083658695220947
17	46.70539593696594	fix_post	2		12.0	15.0	2.5	/experiments/knapen_aot/videos/R_S_yt-fQgLKiz2tuM_14.mp4	0.0	108.78110074996948	0.09995722770690918
18	46.80535316467285	fix_pre	0		36.0	16.0	2.5	/experiments/knapen_aot/videos/R_S_ILSVRC2015_train_00601000.mp4	0.0	108.88105797767639	0.300001859664917
18	47.097217082977295	response	0	2		16.0	2.5	/experiments/knapen_aot/videos/R_S_ILSVRC2015_train_00601000.mp4	0.0	109.17292189598083	
18	47.10535502433777	movie	1		301.0	16.0	2.5	/experiments/knapen_aot/videos/R_S_ILSVRC2015_train_00601000.mp4	0.0	109.18105983734131	2.5083649158477783
18	49.61371994018555	fix_post	2		12.0	16.0	2.5	/experiments/knapen_aot/videos/R_S_ILSVRC2015_train_00601000.mp4	0.0	111.68942475318909	0.09998822212219238
19	49.71370816230774	fix_pre	0		17.0	17.0	2.5	/experiments/knapen_aot/videos/S_yt-jUGt_Byqczw_599.mp4	0.0	111.78941297531128	0.14162898063659668
19	49.83958315849304	response	0	2		17.0	2.5	/experiments/knapen_aot/videos/S_yt-jUGt_Byqczw_599.mp4	0.0	111.91528797149658	
19	49.855337142944336	movie	1		301.0	17.0	2.5	/experiments/knapen_aot/videos/S_yt-jUGt_Byqczw_599.mp4	0.0	111.93104195594788	2.5084078311920166
19	52.36374497413635	fix_post	2		12.0	17.0	2.5	/experiments/knapen_aot/videos/S_yt-jUGt_Byqczw_599.mp4	0.0	114.43944978713989	0.0999610424041748
20	52.46370601654053	fix_pre	0		10.0	18.0	2.5	/experiments/knapen_aot/videos/S_yt-4r-oovk9JWg_85.mp4	0.0	114.53941082954407	0.08396196365356445
20	52.53880214691162	response	0	2		18.0	2.5	/experiments/knapen_aot/videos/S_yt-4r-oovk9JWg_85.mp4	0.0	114.61450695991516	
20	52.54766798019409	movie	1		301.0	18.0	2.5	/experiments/knapen_aot/videos/S_yt-4r-oovk9JWg_85.mp4	0.0	114.62337279319763	2.507673978805542
20	55.055341958999634	fix_post	2		12.0	18.0	2.5	/experiments/knapen_aot/videos/S_yt-4r-oovk9JWg_85.mp4	0.0	117.13104677200317	0.10002398490905762
21	55.15536594390869	fix_pre	0		40.0	19.0	2.5	/experiments/knapen_aot/videos/S_yt-KpOAdMtPGFs_17.mp4	0.0	117.23107075691223	0.33333921432495117
21	55.47295308113098	response	0	2		19.0	2.5	/experiments/knapen_aot/videos/S_yt-KpOAdMtPGFs_17.mp4	0.0	117.54865789413452	
21	55.48870515823364	movie	1		301.0	19.0	2.5	/experiments/knapen_aot/videos/S_yt-KpOAdMtPGFs_17.mp4	0.0	117.56440997123718	2.5082778930664062
21	57.99698305130005	fix_post	2		12.0	19.0	2.5	/experiments/knapen_aot/videos/S_yt-KpOAdMtPGFs_17.mp4	0.0	120.07268786430359	0.10004091262817383
22	58.09702396392822	fix_pre	0		10.0	20.0	2.5	blank	1.0	120.17272877693176	0.0833280086517334
22	58.17214298248291	response	0	2		20.0	2.5	blank	1.0	120.24784779548645	
22	58.180351972579956	movie	1		301.0	20.0	2.5	blank	1.0	120.2560567855835	2.5083651542663574
22	60.68871712684631	fix_post	2		12.0	20.0	2.5	blank	1.0	122.76442193984985	0.09999585151672363
23	60.78871297836304	fix_pre	0		180.0	21.0	2.5	/experiments/knapen_aot/videos/S_S003_C020_SDR_2K_AVC.mp4	0.0	122.86441779136658	1.4999330043792725
23	62.28044295310974	response	0	2		21.0	2.5	/experiments/knapen_aot/videos/S_S003_C020_SDR_2K_AVC.mp4	0.0	124.35614776611328	
23	62.28864598274231	movie	1		170.0	21.0	2.5	/experiments/knapen_aot/videos/S_S003_C020_SDR_2K_AVC.mp4	0.0	124.36435079574585	2.508363962173462
23	64.79700994491577	fix_post	2		12.0	21.0	2.5	/experiments/knapen_aot/videos/S_S003_C020_SDR_2K_AVC.mp4	0.0	126.87271475791931	0.09997820854187012
24	64.89698815345764	fix_pre	0		29.0	22.0	2.5	/experiments/knapen_aot/videos/S_yt-OFnDCbW9Ebo_31.mp4	0.0	126.97269296646118	0.24161791801452637
24	65.13069105148315	response	0	2		22.0	2.5	/experiments/knapen_aot/videos/S_yt-OFnDCbW9Ebo_31.mp4	0.0	127.2063958644867	
24	65.13860607147217	movie	1		301.0	22.0	2.5	/experiments/knapen_aot/videos/S_yt-OFnDCbW9Ebo_31.mp4	0.0	127.21431088447571	2.5083539485931396
24	67.64696002006531	fix_post	2		12.0	22.0	2.5	/experiments/knapen_aot/videos/S_yt-OFnDCbW9Ebo_31.mp4	0.0	129.72266483306885	0.10003113746643066
25	67.74699115753174	fix_pre	0		16.0	23.0	2.5	/experiments/knapen_aot/videos/S_pexels-pavel-danilyuk-8057714.mp4	0.0	129.82269597053528	0.1338639259338379
25	67.87210202217102	response	0	2		23.0	2.5	/experiments/knapen_aot/videos/S_pexels-pavel-danilyuk-8057714.mp4	0.0	129.94780683517456	
25	67.88085508346558	movie	1		164.0	23.0	2.5	/experiments/knapen_aot/videos/S_pexels-pavel-danilyuk-8057714.mp4	0.0	129.95655989646912	2.5077638626098633
25	70.38861894607544	fix_post	2		12.0	23.0	2.5	/experiments/knapen_aot/videos/S_pexels-pavel-danilyuk-8057714.mp4	0.0	132.46432375907898	0.10004520416259766
26	70.48866415023804	fix_pre	0		2.0	24.0	2.5	/experiments/knapen_aot/videos/R_S_ILSVRC2015_train_00405001.mp4	0.0	132.56436896324158	0.01776885986328125
26	70.49709916114807	response	0	2		24.0	2.5	/experiments/knapen_aot/videos/R_S_ILSVRC2015_train_00405001.mp4	0.0	132.5728039741516	
26	70.50643301010132	movie	1		301.0	24.0	2.5	/experiments/knapen_aot/videos/R_S_ILSVRC2015_train_00405001.mp4	0.0	132.58213782310486	2.5071990489959717
26	73.01363205909729	fix_post	2		12.0	24.0	2.5	/experiments/knapen_aot/videos/R_S_ILSVRC2015_train_00405001.mp4	0.0	135.08933687210083	0.09995794296264648
27	73.11359000205994	fix_pre	0		77.0	25.0	2.5	/experiments/knapen_aot/videos/R_S_JApTAOdfunE_1251.mp4	0.0	135.18929481506348	0.6422600746154785
27	73.74711608886719	response	0	2		25.0	2.5	/experiments/knapen_aot/videos/R_S_JApTAOdfunE_1251.mp4	0.0	135.82282090187073	
27	73.75585007667542	movie	1		301.0	25.0	2.5	/experiments/knapen_aot/videos/R_S_JApTAOdfunE_1251.mp4	0.0	135.83155488967896	2.5076699256896973
27	76.26352000236511	fix_post	2		12.0	25.0	2.5	/experiments/knapen_aot/videos/R_S_JApTAOdfunE_1251.mp4	0.0	138.33922481536865	0.10009312629699707
28	76.36361312866211	fix_pre	0		291.0	26.0	2.5	/experiments/knapen_aot/videos/R_S_yt-wE0cEswyaaM_53.mp4	0.0	138.43931794166565	2.4249579906463623
28	78.78035807609558	response	0	2		26.0	2.5	/experiments/knapen_aot/videos/R_S_yt-wE0cEswyaaM_53.mp4	0.0	140.85606288909912	
28	78.78857111930847	movie	1		301.0	26.0	2.5	/experiments/knapen_aot/videos/R_S_yt-wE0cEswyaaM_53.mp4	0.0	140.864275932312	2.508349895477295
28	81.29692101478577	fix_post	2		12.0	26.0	2.5	/experiments/knapen_aot/videos/R_S_yt-wE0cEswyaaM_53.mp4	0.0	143.3726258277893	0.10000896453857422
29	81.39692997932434	fix_pre	0		17.0	27.0	2.5	/experiments/knapen_aot/videos/R_S_comp_GMT060_117NC_363D_1034_AUSTRALIA_v35_SDR_PS_FINAL_20180731_SDR_2K_AVC.mp4	0.0	143.47263479232788	0.1415870189666748
29	81.53042101860046	response	0	2		27.0	2.5	/experiments/knapen_aot/videos/R_S_comp_GMT060_117NC_363D_1034_AUSTRALIA_v35_SDR_PS_FINAL_20180731_SDR_2K_AVC.mp4	0.0	143.606125831604	
29	81.53851699829102	movie	1		165.0	27.0	2.5	/experiments/knapen_aot/videos/R_S_comp_GMT060_117NC_363D_1034_AUSTRALIA_v35_SDR_PS_FINAL_20180731_SDR_2K_AVC.mp4	0.0	143.61422181129456	2.5083940029144287
29	84.04691100120544	fix_post	2		12.0	27.0	2.5	/experiments/knapen_aot/videos/R_S_comp_GMT060_117NC_363D_1034_AUSTRALIA_v35_SDR_PS_FINAL_20180731_SDR_2K_AVC.mp4	0.0	146.12261581420898	0.09994912147521973
29	84.1387050151825	response	2	2		27.0	2.5	/experiments/knapen_aot/videos/R_S_comp_GMT060_117NC_363D_1034_AUSTRALIA_v35_SDR_PS_FINAL_20180731_SDR_2K_AVC.mp4	0.0	146.21440982818604	
30	84.14686012268066	fix_pre	0		44.0	28.0	2.5	blank	1.0	146.2225649356842	0.36669087409973145
30	84.50536012649536	response	0	2		28.0	2.5	blank	1.0	146.5810649394989	
30	84.5135509967804	movie	1		301.0	28.0	2.5	blank	1.0	146.58925580978394	2.5082740783691406
30	87.02182507514954	fix_post	2		12.0	28.0	2.5	blank	1.0	149.09752988815308	0.10006999969482422
31	87.12189507484436	fix_pre	0		47.0	29.0	2.5	/experiments/knapen_aot/videos/R_S_yt-v9WGfC67DPk_50.mp4	0.0	149.1975998878479	0.39164304733276367
31	87.50534415245056	response	0	2		29.0	2.5	/experiments/knapen_aot/videos/R_S_yt-v9WGfC67DPk_50.mp4	0.0	149.5810489654541	
31	87.51353812217712	movie	1		301.0	29.0	2.5	/experiments/knapen_aot/videos/R_S_yt-v9WGfC67DPk_50.mp4	0.0	149.58924293518066	2.508330821990967
31	90.02186894416809	fix_post	2		12.0	29.0	2.5	/experiments/knapen_aot/videos/R_S_yt-v9WGfC67DPk_50.mp4	0.0	152.09757375717163	0.10000014305114746
32	90.12186908721924	fix_pre	0		4.0	30.0	2.5	/experiments/knapen_aot/videos/R_S_ILSVRC2015_train_00165009.mp4	0.0	152.19757390022278	0.03331589698791504
32	90.14713215827942	response	0	2		30.0	2.5	/experiments/knapen_aot/videos/R_S_ILSVRC2015_train_00165009.mp4	0.0	152.22283697128296	
32	90.15518498420715	movie	1		301.0	30.0	2.5	/experiments/knapen_aot/videos/R_S_ILSVRC2015_train_00165009.mp4	0.0	152.2308897972107	2.5083160400390625
32	92.66350102424622	fix_post	2		12.0	30.0	2.5	/experiments/knapen_aot/videos/R_S_ILSVRC2015_train_00165009.mp4	0.0	154.73920583724976	0.10003995895385742
33	92.76354098320007	fix_pre	0		24.0	31.0	2.5	/experiments/knapen_aot/videos/R_S_yt-LGwEki4ghNw_69.mp4	0.0	154.8392457962036	0.20040011405944824
33	92.95533108711243	response	0	2		31.0	2.5	/experiments/knapen_aot/videos/R_S_yt-LGwEki4ghNw_69.mp4	0.0	155.03103590011597	
33	92.96394109725952	movie	1		301.0	31.0	2.5	/experiments/knapen_aot/videos/R_S_yt-LGwEki4ghNw_69.mp4	0.0	155.03964591026306	2.507920026779175
33	95.4718611240387	fix_post	2		12.0	31.0	2.5	/experiments/knapen_aot/videos/R_S_yt-LGwEki4ghNw_69.mp4	0.0	157.54756593704224	0.10004496574401855
34	95.57190608978271	fix_pre	0		8.0	32.0	2.5	/experiments/knapen_aot/videos/S_yt-nn-8LZcafGs_25.mp4	0.0	157.64761090278625	0.06673789024353027
34	95.63113594055176	response	0	2		32.0	2.5	/experiments/knapen_aot/videos/S_yt-nn-8LZcafGs_25.mp4	0.0	157.7068407535553	
34	95.63864398002625	movie	1		301.0	32.0	2.5	/experiments/knapen_aot/videos/S_yt-nn-8LZcafGs_25.mp4	0.0	157.71434879302979	2.50816011428833
34	98.14680409431458	fix_post	2		12.0	32.0	2.5	/experiments/knapen_aot/videos/S_yt-nn-8LZcafGs_25.mp4	0.0	160.22250890731812	0.09996891021728516
35	98.24677300453186	fix_pre	0		9.0	33.0	2.5	/experiments/knapen_aot/videos/S_ILSVRC2015_train_00001011.mp4	0.0	160.3224778175354	0.07499098777770996
35	98.31362915039062	response	0	2		33.0	2.5	/experiments/knapen_aot/videos/S_ILSVRC2015_train_00001011.mp4	0.0	160.38933396339417	
35	98.32176399230957	movie	1		301.0	33.0	2.5	/experiments/knapen_aot/videos/S_ILSVRC2015_train_00001011.mp4	0.0	160.3974688053131	2.50846004486084
35	100.83022403717041	fix_post	2		12.0	33.0	2.5	/experiments/knapen_aot/videos/S_ILSVRC2015_train_00001011.mp4	0.0	162.90592885017395	0.09998703002929688
36	100.9302110671997	fix_pre	0		2.0	34.0	2.5	blank	1.0	163.00591588020325	0.016689062118530273
36	100.93869614601135	response	0	2		34.0	2.5	blank	1.0	163.0144009590149	
36	100.94690012931824	movie	1		301.0	34.0	2.5	blank	1.0	163.02260494232178	2.508258819580078
36	103.45515894889832	fix_post	2		12.0	34.0	2.5	blank	1.0	165.53086376190186	0.10005712509155273
37	103.55521607398987	fix_pre	0		41.0	35.0	2.5	/experiments/knapen_aot/videos/S_yt-Gam0NeyyG8w_22.mp4	0.0	165.6309208869934	0.34161806106567383
37	103.88855814933777	response	0	2		35.0	2.5	/experiments/knapen_aot/videos/S_yt-Gam0NeyyG8w_22.mp4	0.0	165.9642629623413	
37	103.89683413505554	movie	1		301.0	35.0	2.5	/experiments/knapen_aot/videos/S_yt-Gam0NeyyG8w_22.mp4	0.0	165.97253894805908	2.5083107948303223
37	106.40514492988586	fix_post	2		12.0	35.0	2.5	/experiments/knapen_aot/videos/S_yt-Gam0NeyyG8w_22.mp4	0.0	168.4808497428894	0.10000801086425781
38	106.50515294075012	fix_pre	0		11.0	36.0	2.5	/experiments/knapen_aot/videos/R_S_KP_A010_C002_SDR_20190717_SDR_2K_AVC.mp4	0.0	168.58085775375366	0.09166216850280762
38	106.58121299743652	response	0	2		36.0	2.5	/experiments/knapen_aot/videos/R_S_KP_A010_C002_SDR_20190717_SDR_2K_AVC.mp4	0.0	168.65691781044006	
38	106.59681510925293	movie	1		166.0	36.0	2.5	/experiments/knapen_aot/videos/R_S_KP_A010_C002_SDR_20190717_SDR_2K_AVC.mp4	0.0	168.67251992225647	2.5083298683166504
38	109.10514497756958	fix_post	2		12.0	36.0	2.5	/experiments/knapen_aot/videos/R_S_KP_A010_C002_SDR_20190717_SDR_2K_AVC.mp4	0.0	171.18084979057312	0.09993815422058105
38	109.17186093330383	response	2	2		36.0	2.5	/experiments/knapen_aot/videos/R_S_KP_A010_C002_SDR_20190717_SDR_2K_AVC.mp4	0.0	171.24756574630737	
39	109.20508313179016	fix_pre	0		43.0	37.0	2.5	/experiments/knapen_aot/videos/S_yt-JG2OY_7B-gI_537.mp4	0.0	171.2807879447937	0.3583409786224365
39	109.55527210235596	response	0	2		37.0	2.5	/experiments/knapen_aot/videos/S_yt-JG2OY_7B-gI_537.mp4	0.0	171.6309769153595	
39	109.5634241104126	movie	1		301.0	37.0	2.5	/experiments/knapen_aot/videos/S_yt-JG2OY_7B-gI_537.mp4	0.0	171.63912892341614	2.5083420276641846
39	112.07176613807678	fix_post	2		12.0	37.0	2.5	/experiments/knapen_aot/videos/S_yt-JG2OY_7B-gI_537.mp4	0.0	174.14747095108032	0.10037493705749512
40	112.17214107513428	fix_pre	0		15.0	38.0	2.5	/experiments/knapen_aot/videos/S_yt-HQQws1Lp_rQ_10.mp4	0.0	174.24784588813782	0.12494301795959473
40	112.28858399391174	response	0	2		38.0	2.5	/experiments/knapen_aot/videos/S_yt-HQQws1Lp_rQ_10.mp4	0.0	174.36428880691528	
40	112.29708409309387	movie	1		301.0	38.0	2.5	/experiments/knapen_aot/videos/S_yt-HQQws1Lp_rQ_10.mp4	0.0	174.3727889060974	2.5081138610839844
40	114.80519795417786	fix_post	2		12.0	38.0	2.5	/experiments/knapen_aot/videos/S_yt-HQQws1Lp_rQ_10.mp4	0.0	176.8809027671814	0.09997010231018066
41	114.90516805648804	fix_pre	0		16.0	39.0	2.5	/experiments/knapen_aot/videos/R_S_yt-T1mMDOVjvrE_83.mp4	0.0	176.98087286949158	0.1333000659942627
41	115.03030705451965	response	0	2		39.0	2.5	/experiments/knapen_aot/videos/R_S_yt-T1mMDOVjvrE_83.mp4	0.0	177.1060118675232	
41	115.0384681224823	movie	1		301.0	39.0	2.5	/experiments/knapen_aot/videos/R_S_yt-T1mMDOVjvrE_83.mp4	0.0	177.11417293548584	2.5083329677581787
41	117.54680109024048	fix_post	2		12.0	39.0	2.5	/experiments/knapen_aot/videos/R_S_yt-T1mMDOVjvrE_83.mp4	0.0	179.62250590324402	0.09992504119873047
42	117.64672613143921	fix_pre	0		17.0	40.0	2.5	/experiments/knapen_aot/videos/S_yt-l_pvPAznG1A_20.mp4	0.0	179.72243094444275	0.1416628360748291
42	117.78018593788147	response	0	2		40.0	2.5	/experiments/knapen_aot/videos/S_yt-l_pvPAznG1A_20.mp4	0.0	179.855890750885	
42	117.78838896751404	movie	1		301.0	40.0	2.5	/experiments/knapen_aot/videos/S_yt-l_pvPAznG1A_20.mp4	0.0	179.86409378051758	2.50839900970459
42	120.29678797721863	fix_post	2		12.0	40.0	2.5	/experiments/knapen_aot/videos/S_yt-l_pvPAznG1A_20.mp4	0.0	182.37249279022217	0.0999441146850586
43	120.39673209190369	fix_pre	0		26.0	41.0	2.5	blank	1.0	182.47243690490723	0.21668696403503418
43	120.59757995605469	response	0	2		41.0	2.5	blank	1.0	182.67328476905823	
43	120.61341905593872	movie	1		301.0	41.0	2.5	blank	1.0	182.68912386894226	2.508349895477295
43	123.12176895141602	fix_post	2		12.0	41.0	2.5	blank	1.0	185.19747376441956	0.1000211238861084
44	123.22179007530212	fix_pre	0		396.0	42.0	2.5	/experiments/knapen_aot/videos/R_S_yt-w_e3sxIzepA_115.mp4	0.0	185.29749488830566	3.299959897994995
44	126.51354813575745	response	0	2		42.0	2.5	/experiments/knapen_aot/videos/R_S_yt-w_e3sxIzepA_115.mp4	0.0	188.589252948761	
44	126.52174997329712	movie	1		301.0	42.0	2.5	/experiments/knapen_aot/videos/R_S_yt-w_e3sxIzepA_115.mp4	0.0	188.59745478630066	2.508275032043457
44	129.03002500534058	fix_post	2		12.0	42.0	2.5	/experiments/knapen_aot/videos/R_S_yt-w_e3sxIzepA_115.mp4	0.0	191.10572981834412	0.10028910636901855
44	129.1218819618225	response	2	2		42.0	2.5	/experiments/knapen_aot/videos/R_S_yt-w_e3sxIzepA_115.mp4	0.0	191.19758677482605	
45	129.1303141117096	fix_pre	0		44.0	43.0	2.5	/experiments/knapen_aot/videos/S_bing-www_yahoo_com_entertainment_anastasia-karanikolaou-chantel-jeffries-discuss-182400502_html_9.mp4	0.0	191.20601892471313	0.36638498306274414
45	129.488431930542	response	0	2		43.0	2.5	/experiments/knapen_aot/videos/S_bing-www_yahoo_com_entertainment_anastasia-karanikolaou-chantel-jeffries-discuss-182400502_html_9.mp4	0.0	191.56413674354553	
45	129.49669909477234	movie	1		162.0	43.0	2.5	/experiments/knapen_aot/videos/S_bing-www_yahoo_com_entertainment_anastasia-karanikolaou-chantel-jeffries-discuss-182400502_html_9.mp4	0.0	191.57240390777588	2.508358955383301
45	132.00505805015564	fix_post	2		12.0	43.0	2.5	/experiments/knapen_aot/videos/S_bing-www_yahoo_com_entertainment_anastasia-karanikolaou-chantel-jeffries-discuss-182400502_html_9.mp4	0.0	194.08076286315918	0.09997391700744629
46	132.1050319671631	fix_pre	0		5.0	44.0	2.5	/experiments/knapen_aot/videos/S_yt-AiXq1oDrEXI_123.mp4	0.0	194.18073678016663	0.04166603088378906
46	132.13863706588745	response	0	2		44.0	2.5	/experiments/knapen_aot/videos/S_yt-AiXq1oDrEXI_123.mp4	0.0	194.214341878891	
46	132.14669799804688	movie	1		301.0	44.0	2.5	/experiments/knapen_aot/videos/S_yt-AiXq1oDrEXI_123.mp4	0.0	194.22240281105042	2.5082709789276123
46	134.6549689769745	fix_post	2		12.0	44.0	2.5	/experiments/knapen_aot/videos/S_yt-AiXq1oDrEXI_123.mp4	0.0	196.73067378997803	0.10008597373962402
47	134.7550549507141	fix_pre	0		22.0	45.0	2.5	/experiments/knapen_aot/videos/R_S_pexels-ron-lach-8071987.mp4	0.0	196.83075976371765	0.18327713012695312
47	134.93007707595825	response	0	2		45.0	2.5	/experiments/knapen_aot/videos/R_S_pexels-ron-lach-8071987.mp4	0.0	197.0057818889618	
47	134.93833208084106	movie	1		194.0	45.0	2.5	/experiments/knapen_aot/videos/R_S_pexels-ron-lach-8071987.mp4	0.0	197.0140368938446	2.508358955383301
47	137.44669103622437	fix_post	2		12.0	45.0	2.5	/experiments/knapen_aot/videos/R_S_pexels-ron-lach-8071987.mp4	0.0	199.5223958492279	0.10017991065979004
48	137.54687094688416	fix_pre	0		25.0	46.0	2.5	/experiments/knapen_aot/videos/R_S_yt-2IfvnrF3IV0_241.mp4	0.0	199.6225757598877	0.2082960605621338
48	137.74679112434387	response	0	2		46.0	2.5	/experiments/knapen_aot/videos/R_S_yt-2IfvnrF3IV0_241.mp4	0.0	199.8224959373474	
48	137.7551670074463	movie	1		301.0	46.0	2.5	/experiments/knapen_aot/videos/R_S_yt-2IfvnrF3IV0_241.mp4	0.0	199.83087182044983	2.5082039833068848
48	140.26337099075317	fix_post	2		12.0	46.0	2.5	/experiments/knapen_aot/videos/R_S_yt-2IfvnrF3IV0_241.mp4	0.0	202.3390758037567	0.10000300407409668
49	140.36337399482727	fix_pre	0		19.0	47.0	2.5	/experiments/knapen_aot/videos/S_yt-3ohvpS42xug_184.mp4	0.0	202.4390788078308	0.15827393531799316
49	140.51356315612793	response	0	2		47.0	2.5	/experiments/knapen_aot/videos/S_yt-3ohvpS42xug_184.mp4	0.0	202.58926796913147	
49	140.52164793014526	movie	1		300.0	47.0	2.5	/experiments/knapen_aot/videos/S_yt-3ohvpS42xug_184.mp4	0.0	202.5973527431488	2.5083401203155518
49	143.02998805046082	fix_post	2		12.0	47.0	2.5	/experiments/knapen_aot/videos/S_yt-3ohvpS42xug_184.mp4	0.0	205.10569286346436	0.10017895698547363
50	143.1301670074463	fix_pre	0		60.0	48.0	2.5	/experiments/knapen_aot/videos/R_S_yt-_BvMLZo0MG0_1226.mp4	0.0	205.20587182044983	0.49990296363830566
50	143.62187004089355	response	0	2		48.0	2.5	/experiments/knapen_aot/videos/R_S_yt-_BvMLZo0MG0_1226.mp4	0.0	205.6975748538971	
50	143.6300699710846	movie	1		301.0	48.0	2.5	/experiments/knapen_aot/videos/R_S_yt-_BvMLZo0MG0_1226.mp4	0.0	205.70577478408813	2.508308172225952
50	146.13837814331055	fix_post	2		12.0	48.0	2.5	/experiments/knapen_aot/videos/R_S_yt-_BvMLZo0MG0_1226.mp4	0.0	208.2140829563141	0.10003280639648438
51	146.23841094970703	fix_pre	0		25.0	49.0	2.5	blank	1.0	208.31411576271057	0.20827317237854004
51	146.43096804618835	response	0	2		49.0	2.5	blank	1.0	208.5066728591919	
51	146.44668412208557	movie	1		301.0	49.0	2.5	blank	1.0	208.5223889350891	2.5082828998565674
51	148.95496702194214	fix_post	2		12.0	49.0	2.5	blank	1.0	211.03067183494568	0.09995412826538086
52	149.05492115020752	fix_pre	0		131.0	50.0	2.5	/experiments/knapen_aot/videos/R_S_yt-CRw9-cCQqbg_332.mp4	0.0	211.13062596321106	1.0916719436645508
52	150.13843393325806	response	0	2		50.0	2.5	/experiments/knapen_aot/videos/R_S_yt-CRw9-cCQqbg_332.mp4	0.0	212.2141387462616	
52	150.14659309387207	movie	1		298.0	50.0	2.5	/experiments/knapen_aot/videos/R_S_yt-CRw9-cCQqbg_332.mp4	0.0	212.2222979068756	2.508349895477295
52	152.65494298934937	fix_post	2		12.0	50.0	2.5	/experiments/knapen_aot/videos/R_S_yt-CRw9-cCQqbg_332.mp4	0.0	214.7306478023529	0.100128173828125
53	152.7550711631775	fix_pre	0		3.0	51.0	2.5	/experiments/knapen_aot/videos/S_yt-B7ZRYVhfW2U_52.mp4	0.0	214.83077597618103	0.02490377426147461
53	152.77177906036377	response	0	2		51.0	2.5	/experiments/knapen_aot/videos/S_yt-B7ZRYVhfW2U_52.mp4	0.0	214.8474838733673	
53	152.77997493743896	movie	1		301.0	51.0	2.5	/experiments/knapen_aot/videos/S_yt-B7ZRYVhfW2U_52.mp4	0.0	214.8556797504425	2.5082859992980957
53	155.28826093673706	fix_post	2		12.0	51.0	2.5	/experiments/knapen_aot/videos/S_yt-B7ZRYVhfW2U_52.mp4	0.0	217.3639657497406	0.10002803802490234
54	155.38828897476196	fix_pre	0		16.0	52.0	2.5	/experiments/knapen_aot/videos/R_S_yt-jUGt_Byqczw_599.mp4	0.0	217.4639937877655	0.1332859992980957
54	155.51344394683838	response	0	2		52.0	2.5	/experiments/knapen_aot/videos/R_S_yt-jUGt_Byqczw_599.mp4	0.0	217.58914875984192	
54	155.52157497406006	movie	1		296.0	52.0	2.5	/experiments/knapen_aot/videos/R_S_yt-jUGt_Byqczw_599.mp4	0.0	217.5972797870636	2.5083751678466797
54	158.02995014190674	fix_post	2		11.0	52.0	2.5	/experiments/knapen_aot/videos/R_S_yt-jUGt_Byqczw_599.mp4	0.0	220.10565495491028	0.09312582015991211
54	158.11336612701416	response	2	2		52.0	2.5	/experiments/knapen_aot/videos/R_S_yt-jUGt_Byqczw_599.mp4	0.0	220.1890709400177	
55	158.12307596206665	fix_pre	0		74.0	53.0	2.5	/experiments/knapen_aot/videos/S_yt-c5KPuyzO-50_4.mp4	0.0	220.1987807750702	0.6151740550994873
55	158.7300670146942	response	0	2		53.0	2.5	/experiments/knapen_aot/videos/S_yt-c5KPuyzO-50_4.mp4	0.0	220.80577182769775	
55	158.73825001716614	movie	1		301.0	53.0	2.5	/experiments/knapen_aot/videos/S_yt-c5KPuyzO-50_4.mp4	0.0	220.81395483016968	2.5082900524139404
55	161.24654006958008	fix_post	2		12.0	53.0	2.5	/experiments/knapen_aot/videos/S_yt-c5KPuyzO-50_4.mp4	0.0	223.32224488258362	0.09996795654296875
56	161.34650802612305	fix_pre	0		10.0	54.0	2.5	/experiments/knapen_aot/videos/S_yt-JG2OY_7B-gI_537.mp4	0.0	223.4222128391266	0.08340597152709961
56	161.42167115211487	response	0	2		54.0	2.5	/experiments/knapen_aot/videos/S_yt-JG2OY_7B-gI_537.mp4	0.0	223.4973759651184	
56	161.42991399765015	movie	1		300.0	54.0	2.5	/experiments/knapen_aot/videos/S_yt-JG2OY_7B-gI_537.mp4	0.0	223.5056188106537	2.5083060264587402
56	163.9382200241089	fix_post	2		12.0	54.0	2.5	/experiments/knapen_aot/videos/S_yt-JG2OY_7B-gI_537.mp4	0.0	226.01392483711243	0.10002708435058594
57	164.03824710845947	fix_pre	0		8.0	55.0	2.5	blank	1.0	226.113951921463	0.06665587425231934
57	164.0893199443817	response	0	2		55.0	2.5	blank	1.0	226.16502475738525	
57	164.1049029827118	movie	1		301.0	55.0	2.5	blank	1.0	226.18060779571533	2.5083420276641846
57	166.61324501037598	fix_post	2		12.0	55.0	2.5	blank	1.0	228.68894982337952	0.0999901294708252
58	166.7132351398468	fix_pre	0		28.0	56.0	2.5	/experiments/knapen_aot/videos/S_yt-fk-z6WCvjjA_3.mp4	0.0	228.78893995285034	0.233306884765625
58	166.9383029937744	response	0	2		56.0	2.5	/experiments/knapen_aot/videos/S_yt-fk-z6WCvjjA_3.mp4	0.0	229.01400780677795	
58	166.94654202461243	movie	1		301.0	56.0	2.5	/experiments/knapen_aot/videos/S_yt-fk-z6WCvjjA_3.mp4	0.0	229.02224683761597	2.5083560943603516
58	169.45489811897278	fix_post	2		12.0	56.0	2.5	/experiments/knapen_aot/videos/S_yt-fk-z6WCvjjA_3.mp4	0.0	231.53060293197632	0.09996986389160156
59	169.55486798286438	fix_pre	0		11.0	57.0	2.5	/experiments/knapen_aot/videos/R_S_pexels-artem-podrez-5457692.mp4	0.0	231.63057279586792	0.09165716171264648
59	169.63835501670837	response	0	2		57.0	2.5	/experiments/knapen_aot/videos/R_S_pexels-artem-podrez-5457692.mp4	0.0	231.7140598297119	
59	169.64652514457703	movie	1		166.0	57.0	2.5	/experiments/knapen_aot/videos/R_S_pexels-artem-podrez-5457692.mp4	0.0	231.72222995758057	2.508373975753784
59	172.1548991203308	fix_post	2		12.0	57.0	2.5	/experiments/knapen_aot/videos/R_S_pexels-artem-podrez-5457692.mp4	0.0	234.23060393333435	0.10001182556152344
59	172.22999596595764	response	2	2		57.0	2.5	/experiments/knapen_aot/videos/R_S_pexels-artem-podrez-5457692.mp4	0.0	234.30570077896118	
60	172.25491094589233	fix_pre	0		47.0	58.0	2.5	/experiments/knapen_aot/videos/R_S_yt-nn-8LZcafGs_25.mp4	0.0	234.33061575889587	0.3915841579437256
60	172.6382360458374	response	0	2		58.0	2.5	/experiments/knapen_aot/videos/R_S_yt-nn-8LZcafGs_25.mp4	0.0	234.71394085884094	
60	172.64649510383606	movie	1		301.0	58.0	2.5	/experiments/knapen_aot/videos/R_S_yt-nn-8LZcafGs_25.mp4	0.0	234.7221999168396	2.5083818435668945
60	175.15487694740295	fix_post	2		12.0	58.0	2.5	/experiments/knapen_aot/videos/R_S_yt-nn-8LZcafGs_25.mp4	0.0	237.2305817604065	0.10004210472106934
61	175.25491905212402	fix_pre	0		14.0	59.0	2.5	/experiments/knapen_aot/videos/R_S_yt-7W50lcw5FCo_37.mp4	0.0	237.33062386512756	0.11661696434020996
61	175.3633530139923	response	0	2		59.0	2.5	/experiments/knapen_aot/videos/R_S_yt-7W50lcw5FCo_37.mp4	0.0	237.43905782699585	
61	175.37153601646423	movie	1		301.0	59.0	2.5	/experiments/knapen_aot/videos/R_S_yt-7W50lcw5FCo_37.mp4	0.0	237.44724082946777	2.508289098739624
61	177.87982511520386	fix_post	2		12.0	59.0	2.5	/experiments/knapen_aot/videos/R_S_yt-7W50lcw5FCo_37.mp4	0.0	239.9555299282074	0.10001492500305176
62	177.9798400402069	fix_pre	0		19.0	60.0	2.5	/experiments/knapen_aot/videos/S_yt-s2PWkCdT-TM_258.mp4	0.0	240.05554485321045	0.1582651138305664
62	178.1299650669098	response	0	2		60.0	2.5	/experiments/knapen_aot/videos/S_yt-s2PWkCdT-TM_258.mp4	0.0	240.20566987991333	
62	178.13810515403748	movie	1		301.0	60.0	2.5	/experiments/knapen_aot/videos/S_yt-s2PWkCdT-TM_258.mp4	0.0	240.21380996704102	2.5083048343658447
62	180.64640998840332	fix_post	2		12.0	60.0	2.5	/experiments/knapen_aot/videos/S_yt-s2PWkCdT-TM_258.mp4	0.0	242.72211480140686	0.10005807876586914
63	180.7464680671692	fix_pre	0		54.0	61.0	2.5	/experiments/knapen_aot/videos/R_S_yt-j3Sk8ZnAiEA_32.mp4	0.0	242.82217288017273	0.44998908042907715
63	181.18834805488586	response	0	2		61.0	2.5	/experiments/knapen_aot/videos/R_S_yt-j3Sk8ZnAiEA_32.mp4	0.0	243.2640528678894	
63	181.19645714759827	movie	1		301.0	61.0	2.5	/experiments/knapen_aot/videos/R_S_yt-j3Sk8ZnAiEA_32.mp4	0.0	243.2721619606018	2.508358955383301
63	183.70481610298157	fix_post	2		12.0	61.0	2.5	/experiments/knapen_aot/videos/R_S_yt-j3Sk8ZnAiEA_32.mp4	0.0	245.7805209159851	0.10001492500305176
64	183.80483102798462	fix_pre	0		20.0	62.0	2.5	blank	1.0	245.88053584098816	0.1666550636291504
64	183.96328711509705	response	0	2		62.0	2.5	blank	1.0	246.0389919281006	
64	183.97148609161377	movie	1		301.0	62.0	2.5	blank	1.0	246.0471909046173	2.508389949798584
64	186.47987604141235	fix_post	2		12.0	62.0	2.5	blank	1.0	248.5555808544159	0.099945068359375
65	186.57982110977173	fix_pre	0		12.0	63.0	2.5	/experiments/knapen_aot/videos/R_S_ILSVRC2015_train_00479000.mp4	0.0	248.65552592277527	0.0999448299407959
65	186.67153596878052	response	0	2		63.0	2.5	/experiments/knapen_aot/videos/R_S_ILSVRC2015_train_00479000.mp4	0.0	248.74724078178406	
65	186.67976593971252	movie	1		301.0	63.0	2.5	/experiments/knapen_aot/videos/R_S_ILSVRC2015_train_00479000.mp4	0.0	248.75547075271606	2.5084140300750732
65	189.1881799697876	fix_post	2		12.0	63.0	2.5	/experiments/knapen_aot/videos/R_S_ILSVRC2015_train_00479000.mp4	0.0	251.26388478279114	0.10001802444458008
66	189.28819799423218	fix_pre	0		6.0	64.0	2.5	/experiments/knapen_aot/videos/S_yt-TxU1H5A6BaQ_52.mp4	0.0	251.36390280723572	0.04999399185180664
66	189.32995510101318	response	0	2		64.0	2.5	/experiments/knapen_aot/videos/S_yt-TxU1H5A6BaQ_52.mp4	0.0	251.40565991401672	
66	189.33819198608398	movie	1		301.0	64.0	2.5	/experiments/knapen_aot/videos/S_yt-TxU1H5A6BaQ_52.mp4	0.0	251.41389679908752	2.508423089981079
66	191.84661507606506	fix_post	2		12.0	64.0	2.5	/experiments/knapen_aot/videos/S_yt-TxU1H5A6BaQ_52.mp4	0.0	253.9223198890686	0.0999140739440918
67	191.94652915000916	fix_pre	0		21.0	65.0	2.5	/experiments/knapen_aot/videos/S_yt-V4Oosy-ZtGY_193.mp4	0.0	254.0222339630127	0.1749439239501953
67	192.1057629585266	response	0	2		65.0	2.5	/experiments/knapen_aot/videos/S_yt-V4Oosy-ZtGY_193.mp4	0.0	254.18146777153015	
67	192.12147307395935	movie	1		301.0	65.0	2.5	/experiments/knapen_aot/videos/S_yt-V4Oosy-ZtGY_193.mp4	0.0	254.1971778869629	2.5083658695220947
67	194.62983894348145	fix_post	2		12.0	65.0	2.5	/experiments/knapen_aot/videos/S_yt-V4Oosy-ZtGY_193.mp4	0.0	256.705543756485	0.0999901294708252
68	194.72982907295227	fix_pre	0		14.0	66.0	2.5	/experiments/knapen_aot/videos/R_S_yt-tEzCpMrjOHs_24.mp4	0.0	256.8055338859558	0.1166219711303711
68	194.838299036026	response	0	2		66.0	2.5	/experiments/knapen_aot/videos/R_S_yt-tEzCpMrjOHs_24.mp4	0.0	256.91400384902954	
68	194.84645104408264	movie	1		301.0	66.0	2.5	/experiments/knapen_aot/videos/R_S_yt-tEzCpMrjOHs_24.mp4	0.0	256.9221558570862	2.5083370208740234
68	197.35478806495667	fix_post	2		12.0	66.0	2.5	/experiments/knapen_aot/videos/R_S_yt-tEzCpMrjOHs_24.mp4	0.0	259.4304928779602	0.10003089904785156
69	197.45481896400452	fix_pre	0		15.0	67.0	2.5	/experiments/knapen_aot/videos/R_S_yt-NFb0SUCeiro_158.mp4	0.0	259.53052377700806	0.12499117851257324
69	197.57150793075562	response	0	2		67.0	2.5	/experiments/knapen_aot/videos/R_S_yt-NFb0SUCeiro_158.mp4	0.0	259.64721274375916	
69	197.5798101425171	movie	1		301.0	67.0	2.5	/experiments/knapen_aot/videos/R_S_yt-NFb0SUCeiro_158.mp4	0.0	259.65551495552063	2.5083248615264893
69	200.08813500404358	fix_post	2		12.0	67.0	2.5	/experiments/knapen_aot/videos/R_S_yt-NFb0SUCeiro_158.mp4	0.0	262.1638398170471	0.09999299049377441
70	200.18812799453735	fix_pre	0		1.0	68.0	2.5	/experiments/knapen_aot/videos/S_yt-3ohvpS42xug_184.mp4	0.0	262.2638328075409	0.008330106735229492
70	200.18979215621948	response	0	2		68.0	2.5	/experiments/knapen_aot/videos/S_yt-3ohvpS42xug_184.mp4	0.0	262.265496969223	
70	200.19645810127258	movie	1		301.0	68.0	2.5	/experiments/knapen_aot/videos/S_yt-3ohvpS42xug_184.mp4	0.0	262.2721629142761	2.5082240104675293
70	202.7046821117401	fix_post	2		12.0	68.0	2.5	/experiments/knapen_aot/videos/S_yt-3ohvpS42xug_184.mp4	0.0	264.78038692474365	0.10008502006530762
71	202.80476713180542	fix_pre	0		10.0	69.0	2.5	/experiments/knapen_aot/videos/S_yt-NFb0SUCeiro_158.mp4	0.0	264.88047194480896	0.08326292037963867
71	202.8798370361328	response	0	2		69.0	2.5	/experiments/knapen_aot/videos/S_yt-NFb0SUCeiro_158.mp4	0.0	264.95554184913635	
71	202.88803005218506	movie	1		301.0	69.0	2.5	/experiments/knapen_aot/videos/S_yt-NFb0SUCeiro_158.mp4	0.0	264.9637348651886	2.508424997329712
71	205.39645504951477	fix_post	2		12.0	69.0	2.5	/experiments/knapen_aot/videos/S_yt-NFb0SUCeiro_158.mp4	0.0	267.4721598625183	0.10119795799255371
71	205.48824501037598	response	2	2		69.0	2.5	/experiments/knapen_aot/videos/S_yt-NFb0SUCeiro_158.mp4	0.0	267.5639498233795	
72	205.49765300750732	fix_pre	0		41.0	70.0	2.5	blank	1.0	267.57335782051086	0.3404209613800049
72	205.82984805107117	response	0	2		70.0	2.5	blank	1.0	267.9055528640747	
72	205.83807396888733	movie	1		301.0	70.0	2.5	blank	1.0	267.91377878189087	2.508301019668579
72	208.3463749885559	fix_post	2		12.0	70.0	2.5	blank	1.0	270.42207980155945	0.10005903244018555
73	208.4464340209961	fix_pre	0		35.0	71.0	2.5	/experiments/knapen_aot/videos/R_S_yt-AiXq1oDrEXI_123.mp4	0.0	270.52213883399963	0.29163408279418945
73	208.72981905937195	response	0	2		71.0	2.5	/experiments/knapen_aot/videos/R_S_yt-AiXq1oDrEXI_123.mp4	0.0	270.8055238723755	
73	208.73806810379028	movie	1		301.0	71.0	2.5	/experiments/knapen_aot/videos/R_S_yt-AiXq1oDrEXI_123.mp4	0.0	270.8137729167938	2.508388042449951
73	211.24645614624023	fix_post	2		12.0	71.0	2.5	/experiments/knapen_aot/videos/R_S_yt-AiXq1oDrEXI_123.mp4	0.0	273.3221609592438	0.1000068187713623
73	211.32155895233154	response	2	2		71.0	2.5	/experiments/knapen_aot/videos/R_S_yt-AiXq1oDrEXI_123.mp4	0.0	273.3972637653351	
74	211.3464629650116	fix_pre	0		43.0	72.0	2.5	/experiments/knapen_aot/videos/S_yt-Z4W6l0eZza4_6.mp4	0.0	273.42216777801514	0.35945916175842285
74	211.69649505615234	response	0	2		72.0	2.5	/experiments/knapen_aot/videos/S_yt-Z4W6l0eZza4_6.mp4	0.0	273.7721998691559	
74	211.70592212677002	movie	1		301.0	72.0	2.5	/experiments/knapen_aot/videos/S_yt-Z4W6l0eZza4_6.mp4	0.0	273.78162693977356	2.5071640014648438
74	214.21308612823486	fix_post	2		12.0	72.0	2.5	/experiments/knapen_aot/videos/S_yt-Z4W6l0eZza4_6.mp4	0.0	276.2887909412384	0.10841798782348633
75	214.32150411605835	fix_pre	0		45.0	73.0	2.5	/experiments/knapen_aot/videos/S_Pexels_Videos_2795731_1.mp4	0.0	276.3972089290619	0.37489795684814453
75	214.68814301490784	response	0	2		73.0	2.5	/experiments/knapen_aot/videos/S_Pexels_Videos_2795731_1.mp4	0.0	276.7638478279114	
75	214.6964020729065	movie	1		165.0	73.0	2.5	/experiments/knapen_aot/videos/S_Pexels_Videos_2795731_1.mp4	0.0	276.77210688591003	2.5083439350128174
75	217.2047460079193	fix_post	2		12.0	73.0	2.5	/experiments/knapen_aot/videos/S_Pexels_Videos_2795731_1.mp4	0.0	279.28045082092285	0.09997105598449707
76	217.3047170639038	fix_pre	0		8.0	74.0	2.5	/experiments/knapen_aot/videos/R_S_yt-83nimFMNhrM_131.mp4	0.0	279.38042187690735	0.06782007217407227
76	217.363135099411	response	0	2		74.0	2.5	/experiments/knapen_aot/videos/R_S_yt-83nimFMNhrM_131.mp4	0.0	279.43883991241455	
76	217.37253713607788	movie	1		301.0	74.0	2.5	/experiments/knapen_aot/videos/R_S_yt-83nimFMNhrM_131.mp4	0.0	279.4482419490814	2.5071709156036377
76	219.87970805168152	fix_post	2		12.0	74.0	2.5	/experiments/knapen_aot/videos/R_S_yt-83nimFMNhrM_131.mp4	0.0	281.95541286468506	0.09998798370361328
77	219.97969603538513	fix_pre	0		47.0	75.0	2.5	blank	1.0	282.0554008483887	0.39165496826171875
77	220.3631660938263	response	0	2		75.0	2.5	blank	1.0	282.43887090682983	
77	220.37135100364685	movie	1		301.0	75.0	2.5	blank	1.0	282.4470558166504	2.5083420276641846
77	222.87969303131104	fix_post	2		12.0	75.0	2.5	blank	1.0	284.9553978443146	0.10011792182922363
78	222.97981095314026	fix_pre	0		222.0	76.0	2.5	/experiments/knapen_aot/videos/R_S_ILSVRC2015_train_00551000.mp4	0.0	285.0555157661438	1.8509750366210938
78	224.82150793075562	response	0	2		76.0	2.5	/experiments/knapen_aot/videos/R_S_ILSVRC2015_train_00551000.mp4	0.0	286.89721274375916	
78	224.83078598976135	movie	1		298.0	76.0	2.5	/experiments/knapen_aot/videos/R_S_ILSVRC2015_train_00551000.mp4	0.0	286.9064908027649	2.507193088531494
78	227.33797907829285	fix_post	2		12.0	76.0	2.5	/experiments/knapen_aot/videos/R_S_ILSVRC2015_train_00551000.mp4	0.0	289.4136838912964	0.10001301765441895
79	227.43799209594727	fix_pre	0		7.0	77.0	2.5	/experiments/knapen_aot/videos/R_S_yt-2cwARrUMj40_67.mp4	0.0	289.5136969089508	0.05937695503234863
79	227.48060202598572	response	0	2		77.0	2.5	/experiments/knapen_aot/videos/R_S_yt-2cwARrUMj40_67.mp4	0.0	289.55630683898926	
79	227.49736905097961	movie	1		301.0	77.0	2.5	/experiments/knapen_aot/videos/R_S_yt-2cwARrUMj40_67.mp4	0.0	289.57307386398315	2.507277011871338
79	230.00464606285095	fix_post	2		12.0	77.0	2.5	/experiments/knapen_aot/videos/R_S_yt-2cwARrUMj40_67.mp4	0.0	292.0803508758545	0.09993696212768555
80	230.10458302497864	fix_pre	0		16.0	78.0	2.5	/experiments/knapen_aot/videos/R_S_ILSVRC2015_train_00654000.mp4	0.0	292.1802878379822	0.1333320140838623
80	230.22970914840698	response	0	2		78.0	2.5	/experiments/knapen_aot/videos/R_S_ILSVRC2015_train_00654000.mp4	0.0	292.3054139614105	
80	230.2379150390625	movie	1		301.0	78.0	2.5	/experiments/knapen_aot/videos/R_S_ILSVRC2015_train_00654000.mp4	0.0	292.31361985206604	2.508316993713379
80	232.74623203277588	fix_post	2		12.0	78.0	2.5	/experiments/knapen_aot/videos/R_S_ILSVRC2015_train_00654000.mp4	0.0	294.8219368457794	0.100006103515625
81	232.8462381362915	fix_pre	0		48.0	79.0	2.5	/experiments/knapen_aot/videos/R_S_yt-Z4W6l0eZza4_6.mp4	0.0	294.92194294929504	0.4010939598083496
81	233.238037109375	response	0	2		79.0	2.5	/experiments/knapen_aot/videos/R_S_yt-Z4W6l0eZza4_6.mp4	0.0	295.31374192237854	
81	233.24733209609985	movie	1		301.0	79.0	2.5	/experiments/knapen_aot/videos/R_S_yt-Z4W6l0eZza4_6.mp4	0.0	295.3230369091034	2.507300853729248
81	235.7546329498291	fix_post	2		12.0	79.0	2.5	/experiments/knapen_aot/videos/R_S_yt-Z4W6l0eZza4_6.mp4	0.0	297.83033776283264	0.10002708435058594
82	235.8546600341797	fix_pre	0		5.0	80.0	2.5	/experiments/knapen_aot/videos/R_S_yt-e_eOzV7qMZo_374.mp4	0.0	297.9303648471832	0.04163312911987305
82	235.88814115524292	response	0	2		80.0	2.5	/experiments/knapen_aot/videos/R_S_yt-e_eOzV7qMZo_374.mp4	0.0	297.96384596824646	
82	235.89629316329956	movie	1		301.0	80.0	2.5	/experiments/knapen_aot/videos/R_S_yt-e_eOzV7qMZo_374.mp4	0.0	297.9719979763031	2.50826096534729
82	238.40455412864685	fix_post	2		12.0	80.0	2.5	/experiments/knapen_aot/videos/R_S_yt-e_eOzV7qMZo_374.mp4	0.0	300.4802589416504	0.09999203681945801
83	238.5045461654663	fix_pre	0		30.0	81.0	2.5	/experiments/knapen_aot/videos/S_yt-UBqUhu-GEVg_6.mp4	0.0	300.58025097846985	0.2500159740447998
83	238.74641108512878	response	0	2		81.0	2.5	/experiments/knapen_aot/videos/S_yt-UBqUhu-GEVg_6.mp4	0.0	300.8221158981323	
83	238.7545621395111	movie	1		301.0	81.0	2.5	/experiments/knapen_aot/videos/S_yt-UBqUhu-GEVg_6.mp4	0.0	300.83026695251465	2.5083940029144287
83	241.26295614242554	fix_post	2		12.0	81.0	2.5	/experiments/knapen_aot/videos/S_yt-UBqUhu-GEVg_6.mp4	0.0	303.3386609554291	0.09996199607849121
84	241.36291813850403	fix_pre	0		5.0	82.0	2.5	/experiments/knapen_aot/videos/R_S_yt-dO0OuozAgt0_225.mp4	0.0	303.43862295150757	0.04166889190673828
84	241.39637804031372	response	0	2		82.0	2.5	/experiments/knapen_aot/videos/R_S_yt-dO0OuozAgt0_225.mp4	0.0	303.47208285331726	
84	241.40458703041077	movie	1		300.0	82.0	2.5	/experiments/knapen_aot/videos/R_S_yt-dO0OuozAgt0_225.mp4	0.0	303.4802918434143	2.508327007293701
84	243.91291403770447	fix_post	2		12.0	82.0	2.5	/experiments/knapen_aot/videos/R_S_yt-dO0OuozAgt0_225.mp4	0.0	305.988618850708	0.1000509262084961
85	244.01296496391296	fix_pre	0		37.0	83.0	2.5	blank	1.0	306.0886697769165	0.30838704109191895
85	244.31303000450134	response	0	2		83.0	2.5	blank	1.0	306.3887348175049	
85	244.32135200500488	movie	1		301.0	83.0	2.5	blank	1.0	306.3970568180084	2.5081939697265625
85	246.82954597473145	fix_post	2		12.0	83.0	2.5	blank	1.0	308.905250787735	0.09992599487304688
87	246.9294719696045	stim	0		144.0					309.00517678260803	1.2000691890716553
87	248.12564992904663	response	0	space						310.20135474205017	
