trial_nr	onset	event_type	phase	response	nr_frames	movie_index	movie_duration	movie_file	blank	onset_abs	duration
0	0.13001108169555664	stim	0		101.0					190.0799400806427	0.8471450805664062
0	0.9667141437530518	response	0	space						190.9166431427002	
1	0.9771561622619629	stim	0		121.0					190.9270851612091	1.005732774734497
1	1.98288893699646	stim	1		120.0					191.9328179359436	1.0000061988830566
2	2.9828951358795166	fix_pre	0		416.0	0.0	2.5	/experiments/knapen_aot/videos/R_S_yt-hvuC_2YXsTQ_159.mp4	0.0	192.93282413482666	3.466585874557495
2	3.6080260276794434	response	0	return		0.0	2.5	/experiments/knapen_aot/videos/R_S_yt-hvuC_2YXsTQ_159.mp4	0.0	193.5579550266266	
2	6.44133996963501	response	0	space		0.0	2.5	/experiments/knapen_aot/videos/R_S_yt-hvuC_2YXsTQ_159.mp4	0.0	196.39126896858215	
2	6.449481010437012	movie	1		300.0	0.0	2.5	/experiments/knapen_aot/videos/R_S_yt-hvuC_2YXsTQ_159.mp4	0.0	196.39941000938416	2.5083420276641846
2	8.957823038101196	fix_post	2		12.0	0.0	2.5	/experiments/knapen_aot/videos/R_S_yt-hvuC_2YXsTQ_159.mp4	0.0	198.90775203704834	0.10006093978881836
3	9.057883977890015	fix_pre	0		433.0	1.0	2.5	/experiments/knapen_aot/videos/R_S_pexels-pavel-danilyuk-8626652.mp4	0.0	199.00781297683716	3.6082651615142822
3	12.65798807144165	response	0	2		1.0	2.5	/experiments/knapen_aot/videos/R_S_pexels-pavel-danilyuk-8626652.mp4	0.0	202.6079170703888	
3	12.666149139404297	movie	1		175.0	1.0	2.5	/experiments/knapen_aot/videos/R_S_pexels-pavel-danilyuk-8626652.mp4	0.0	202.61607813835144	2.5083298683166504
3	15.174479007720947	fix_post	2		12.0	1.0	2.5	/experiments/knapen_aot/videos/R_S_pexels-pavel-danilyuk-8626652.mp4	0.0	205.1244080066681	0.10086894035339355
3	15.266256093978882	response	2	2		1.0	2.5	/experiments/knapen_aot/videos/R_S_pexels-pavel-danilyuk-8626652.mp4	0.0	205.21618509292603	
4	15.27534794807434	fix_pre	0		60.0	2.0	2.5	/experiments/knapen_aot/videos/S_yt-yQrDeFlFmfM_138.mp4	0.0	205.22527694702148	0.4999730587005615
4	15.76631498336792	response	0	2		2.0	2.5	/experiments/knapen_aot/videos/S_yt-yQrDeFlFmfM_138.mp4	0.0	205.71624398231506	
4	15.775321006774902	movie	1		301.0	2.0	2.5	/experiments/knapen_aot/videos/S_yt-yQrDeFlFmfM_138.mp4	0.0	205.72525000572205	2.507431983947754
4	18.282752990722656	fix_post	2		12.0	2.0	2.5	/experiments/knapen_aot/videos/S_yt-yQrDeFlFmfM_138.mp4	0.0	208.2326819896698	0.10006308555603027
5	18.382816076278687	fix_pre	0		4.0	3.0	2.5	/experiments/knapen_aot/videos/S_ILSVRC2015_train_00569002.mp4	0.0	208.33274507522583	0.03344607353210449
5	18.408074140548706	response	0	2		3.0	2.5	/experiments/knapen_aot/videos/S_ILSVRC2015_train_00569002.mp4	0.0	208.35800313949585	
5	18.41626214981079	movie	1		301.0	3.0	2.5	/experiments/knapen_aot/videos/S_ILSVRC2015_train_00569002.mp4	0.0	208.36619114875793	2.5082099437713623
5	20.924472093582153	fix_post	2		12.0	3.0	2.5	/experiments/knapen_aot/videos/S_ILSVRC2015_train_00569002.mp4	0.0	210.8744010925293	0.09996891021728516
6	21.02444100379944	fix_pre	0		1.0	4.0	2.5	/experiments/knapen_aot/videos/R_S_yt-YFl_NAWBFAw_166.mp4	0.0	210.97437000274658	0.008365154266357422
6	21.026145935058594	response	0	2		4.0	2.5	/experiments/knapen_aot/videos/R_S_yt-YFl_NAWBFAw_166.mp4	0.0	210.97607493400574	
6	21.032806158065796	movie	1		301.0	4.0	2.5	/experiments/knapen_aot/videos/R_S_yt-YFl_NAWBFAw_166.mp4	0.0	210.98273515701294	2.5082859992980957
6	23.54109215736389	fix_post	2		12.0	4.0	2.5	/experiments/knapen_aot/videos/R_S_yt-YFl_NAWBFAw_166.mp4	0.0	213.49102115631104	0.10006880760192871
7	23.64116096496582	fix_pre	0		12.0	5.0	2.5	/experiments/knapen_aot/videos/R_S_yt-Q4edV5qiqu0_578.mp4	0.0	213.59108996391296	0.09993910789489746
7	23.72559094429016	response	0	2		5.0	2.5	/experiments/knapen_aot/videos/R_S_yt-Q4edV5qiqu0_578.mp4	0.0	213.6755199432373	
7	23.741100072860718	movie	1		301.0	5.0	2.5	/experiments/knapen_aot/videos/R_S_yt-Q4edV5qiqu0_578.mp4	0.0	213.69102907180786	2.5083789825439453
7	26.249479055404663	fix_post	2		12.0	5.0	2.5	/experiments/knapen_aot/videos/R_S_yt-Q4edV5qiqu0_578.mp4	0.0	216.1994080543518	0.10000896453857422
8	26.349488019943237	fix_pre	0		11.0	6.0	2.5	blank	1.0	216.29941701889038	0.09246301651000977
8	26.432904958724976	response	0	2		6.0	2.5	blank	1.0	216.38283395767212	
8	26.441951036453247	movie	1		301.0	6.0	2.5	blank	1.0	216.3918800354004	2.507503032684326
8	28.949454069137573	fix_post	2		12.0	6.0	2.5	blank	1.0	218.89938306808472	0.09994292259216309
9	29.049396991729736	fix_pre	0		30.0	7.0	2.5	/experiments/knapen_aot/videos/S_yt-iO0efV_PV-k_102.mp4	0.0	218.99932599067688	0.2500131130218506
9	29.291145086288452	response	0	2		7.0	2.5	/experiments/knapen_aot/videos/S_yt-iO0efV_PV-k_102.mp4	0.0	219.2410740852356	
9	29.299410104751587	movie	1		301.0	7.0	2.5	/experiments/knapen_aot/videos/S_yt-iO0efV_PV-k_102.mp4	0.0	219.24933910369873	2.5083839893341064
9	31.807794094085693	fix_post	2		12.0	7.0	2.5	/experiments/knapen_aot/videos/S_yt-iO0efV_PV-k_102.mp4	0.0	221.75772309303284	0.10004091262817383
10	31.907835006713867	fix_pre	0		17.0	8.0	2.5	/experiments/knapen_aot/videos/S_bing-www_dailymotion_com_video_x64c56w_164.mp4	0.0	221.857764005661	0.14153313636779785
10	32.041178941726685	response	0	2		8.0	2.5	/experiments/knapen_aot/videos/S_bing-www_dailymotion_com_video_x64c56w_164.mp4	0.0	221.99110794067383	
10	32.049368143081665	movie	1		165.0	8.0	2.5	/experiments/knapen_aot/videos/S_bing-www_dailymotion_com_video_x64c56w_164.mp4	0.0	221.9992971420288	2.5084660053253174
10	34.55783414840698	fix_post	2		12.0	8.0	2.5	/experiments/knapen_aot/videos/S_bing-www_dailymotion_com_video_x64c56w_164.mp4	0.0	224.50776314735413	0.10006189346313477
11	34.65789604187012	fix_pre	0		4.0	9.0	2.5	/experiments/knapen_aot/videos/S_ILSVRC2015_train_00473000.mp4	0.0	224.60782504081726	0.034490108489990234
11	34.67557501792908	response	0	2		9.0	2.5	/experiments/knapen_aot/videos/S_ILSVRC2015_train_00473000.mp4	0.0	224.62550401687622	
11	34.69238615036011	movie	1		301.0	9.0	2.5	/experiments/knapen_aot/videos/S_ILSVRC2015_train_00473000.mp4	0.0	224.64231514930725	2.5070598125457764
11	36.9663360118866	response	1	2		9.0	2.5	/experiments/knapen_aot/videos/S_ILSVRC2015_train_00473000.mp4	0.0	226.91626501083374	
11	37.199445962905884	fix_post	2		12.0	9.0	2.5	/experiments/knapen_aot/videos/S_ILSVRC2015_train_00473000.mp4	0.0	227.14937496185303	0.09996414184570312
12	37.29941010475159	fix_pre	0		44.0	10.0	2.5	/experiments/knapen_aot/videos/R_S_pexels-anastasia-shuraeva-601407_2.mp4	0.0	227.24933910369873	0.3666820526123047
12	37.65790414810181	response	0	2		10.0	2.5	/experiments/knapen_aot/videos/R_S_pexels-anastasia-shuraeva-601407_2.mp4	0.0	227.60783314704895	
12	37.66609215736389	movie	1		192.0	10.0	2.5	/experiments/knapen_aot/videos/R_S_pexels-anastasia-shuraeva-601407_2.mp4	0.0	227.61602115631104	2.508307933807373
12	40.174400091171265	fix_post	2		12.0	10.0	2.5	/experiments/knapen_aot/videos/R_S_pexels-anastasia-shuraeva-601407_2.mp4	0.0	230.1243290901184	0.09997105598449707
12	40.24953508377075	response	2	2		10.0	2.5	/experiments/knapen_aot/videos/R_S_pexels-anastasia-shuraeva-601407_2.mp4	0.0	230.1994640827179	
13	40.27437114715576	fix_pre	0		56.0	11.0	2.5	/experiments/knapen_aot/videos/R_S_yt-JkKOG9Fxykc_94.mp4	0.0	230.2243001461029	0.4667079448699951
13	40.73277711868286	response	0	2		11.0	2.5	/experiments/knapen_aot/videos/R_S_yt-JkKOG9Fxykc_94.mp4	0.0	230.68270611763	
13	40.74107909202576	movie	1		301.0	11.0	2.5	/experiments/knapen_aot/videos/R_S_yt-JkKOG9Fxykc_94.mp4	0.0	230.6910080909729	2.508265972137451
13	43.24934506416321	fix_post	2		12.0	11.0	2.5	/experiments/knapen_aot/videos/R_S_yt-JkKOG9Fxykc_94.mp4	0.0	233.19927406311035	0.09994387626647949
14	43.34928894042969	fix_pre	0		12.0	12.0	2.5	/experiments/knapen_aot/videos/R_S_wc-oyG6AjP_W2EL_15.mp4	0.0	233.29921793937683	0.10006499290466309
14	43.441174030303955	response	0	2		12.0	2.5	/experiments/knapen_aot/videos/R_S_wc-oyG6AjP_W2EL_15.mp4	0.0	233.3911030292511	
14	43.44935393333435	movie	1		298.0	12.0	2.5	/experiments/knapen_aot/videos/R_S_wc-oyG6AjP_W2EL_15.mp4	0.0	233.3992829322815	2.5083441734313965
14	45.95769810676575	fix_post	2		12.0	12.0	2.5	/experiments/knapen_aot/videos/R_S_wc-oyG6AjP_W2EL_15.mp4	0.0	235.9076271057129	0.10002589225769043
15	46.05772399902344	fix_pre	0		18.0	13.0	2.5	/experiments/knapen_aot/videos/R_S_wc-NzEeGIXLxvwp_19.mp4	0.0	236.00765299797058	0.1499021053314209
15	46.19217610359192	response	0	2		13.0	2.5	/experiments/knapen_aot/videos/R_S_wc-NzEeGIXLxvwp_19.mp4	0.0	236.14210510253906	
15	46.20762610435486	movie	1		162.0	13.0	2.5	/experiments/knapen_aot/videos/R_S_wc-NzEeGIXLxvwp_19.mp4	0.0	236.157555103302	2.5083940029144287
15	48.71602010726929	fix_post	2		12.0	13.0	2.5	/experiments/knapen_aot/videos/R_S_wc-NzEeGIXLxvwp_19.mp4	0.0	238.66594910621643	0.1000070571899414
16	48.81602716445923	fix_pre	0		42.0	14.0	2.5	blank	1.0	238.76595616340637	0.34995293617248535
16	49.15022397041321	response	0	2		14.0	2.5	blank	1.0	239.10015296936035	
16	49.165980100631714	movie	1		301.0	14.0	2.5	blank	1.0	239.11590909957886	2.5083038806915283
16	51.67428398132324	fix_post	2		12.0	14.0	2.5	blank	1.0	241.62421298027039	0.10006117820739746
17	51.77434515953064	fix_pre	0		26.0	15.0	2.5	/experiments/knapen_aot/videos/S_yt-ikhlUegH24c_552.mp4	0.0	241.72427415847778	0.21665382385253906
17	51.98282313346863	response	0	2		15.0	2.5	/experiments/knapen_aot/videos/S_yt-ikhlUegH24c_552.mp4	0.0	241.93275213241577	
17	51.99099898338318	movie	1		301.0	15.0	2.5	/experiments/knapen_aot/videos/S_yt-ikhlUegH24c_552.mp4	0.0	241.94092798233032	2.508327007293701
17	54.49932599067688	fix_post	2		12.0	15.0	2.5	/experiments/knapen_aot/videos/S_yt-ikhlUegH24c_552.mp4	0.0	244.44925498962402	0.09995603561401367
18	54.599282026290894	fix_pre	0		50.0	16.0	2.5	/experiments/knapen_aot/videos/S_yt-0xzYSBvVfYM_197.mp4	0.0	244.54921102523804	0.416719913482666
18	55.007802963256836	response	0	2		16.0	2.5	/experiments/knapen_aot/videos/S_yt-0xzYSBvVfYM_197.mp4	0.0	244.95773196220398	
18	55.01600193977356	movie	1		301.0	16.0	2.5	/experiments/knapen_aot/videos/S_yt-0xzYSBvVfYM_197.mp4	0.0	244.9659309387207	2.508289098739624
18	57.524291038513184	fix_post	2		12.0	16.0	2.5	/experiments/knapen_aot/videos/S_yt-0xzYSBvVfYM_197.mp4	0.0	247.47422003746033	0.09991812705993652
19	57.62420916557312	fix_pre	0		34.0	17.0	2.5	/experiments/knapen_aot/videos/R_S_yt-bH4nJibL4Jo_164.mp4	0.0	247.57413816452026	0.2834608554840088
19	57.899348974227905	response	0	2		17.0	2.5	/experiments/knapen_aot/videos/R_S_yt-bH4nJibL4Jo_164.mp4	0.0	247.84927797317505	
19	57.90767002105713	movie	1		301.0	17.0	2.5	/experiments/knapen_aot/videos/R_S_yt-bH4nJibL4Jo_164.mp4	0.0	247.85759902000427	2.50826096534729
19	60.41593098640442	fix_post	2		12.0	17.0	2.5	/experiments/knapen_aot/videos/R_S_yt-bH4nJibL4Jo_164.mp4	0.0	250.36585998535156	0.10002803802490234
20	60.51595902442932	fix_pre	0		7.0	18.0	2.5	/experiments/knapen_aot/videos/S_Y004_C015_SDR_2K_AVC.mp4	0.0	250.46588802337646	0.05829501152038574
20	60.566094160079956	response	0	2		18.0	2.5	/experiments/knapen_aot/videos/S_Y004_C015_SDR_2K_AVC.mp4	0.0	250.5160231590271	
20	60.57425403594971	movie	1		166.0	18.0	2.5	/experiments/knapen_aot/videos/S_Y004_C015_SDR_2K_AVC.mp4	0.0	250.52418303489685	2.5083789825439453
20	63.08263301849365	fix_post	2		12.0	18.0	2.5	/experiments/knapen_aot/videos/S_Y004_C015_SDR_2K_AVC.mp4	0.0	253.0325620174408	0.09993910789489746
21	63.18257212638855	fix_pre	0		1.0	19.0	2.5	/experiments/knapen_aot/videos/S_yt-9aKqMX9IHPg_242.mp4	0.0	253.1325011253357	0.009028911590576172
21	63.17568302154541	response	0	2		19.0	2.5	/experiments/knapen_aot/videos/S_yt-9aKqMX9IHPg_242.mp4	0.0	253.12561202049255	
21	63.191601037979126	movie	1		300.0	19.0	2.5	/experiments/knapen_aot/videos/S_yt-9aKqMX9IHPg_242.mp4	0.0	253.14153003692627	2.507668972015381
21	65.6992700099945	fix_post	2		12.0	19.0	2.5	/experiments/knapen_aot/videos/S_yt-9aKqMX9IHPg_242.mp4	0.0	255.64919900894165	0.09995102882385254
22	65.79922103881836	fix_pre	0		14.0	20.0	2.5	/experiments/knapen_aot/videos/R_S_comp_CH_C007_C011_PSNK_v02_SDR_PS_FINAL_20180709_SDR_2K_AVC.mp4	0.0	255.7491500377655	0.11671304702758789
22	65.9076931476593	response	0	2		20.0	2.5	/experiments/knapen_aot/videos/R_S_comp_CH_C007_C011_PSNK_v02_SDR_PS_FINAL_20180709_SDR_2K_AVC.mp4	0.0	255.85762214660645	
22	65.91593408584595	movie	1		172.0	20.0	2.5	/experiments/knapen_aot/videos/R_S_comp_CH_C007_C011_PSNK_v02_SDR_PS_FINAL_20180709_SDR_2K_AVC.mp4	0.0	255.8658630847931	2.499966859817505
22	68.40771007537842	response	1	2		20.0	2.5	/experiments/knapen_aot/videos/R_S_comp_CH_C007_C011_PSNK_v02_SDR_PS_FINAL_20180709_SDR_2K_AVC.mp4	0.0	258.35763907432556	
22	68.41590094566345	fix_post	2		13.0	20.0	2.5	/experiments/knapen_aot/videos/R_S_comp_CH_C007_C011_PSNK_v02_SDR_PS_FINAL_20180709_SDR_2K_AVC.mp4	0.0	258.3658299446106	0.1084601879119873
23	68.52436113357544	fix_pre	0		42.0	21.0	2.5	blank	1.0	258.4742901325226	0.3498868942260742
23	68.86600995063782	response	0	2		21.0	2.5	blank	1.0	258.81593894958496	
23	68.87424802780151	movie	1		301.0	21.0	2.5	blank	1.0	258.82417702674866	2.5083699226379395
23	71.38261795043945	fix_post	2		12.0	21.0	2.5	blank	1.0	261.3325469493866	0.09997415542602539
24	71.48259210586548	fix_pre	0		30.0	22.0	2.5	/experiments/knapen_aot/videos/S_yt-4wYTkhggZNM_90.mp4	0.0	261.4325211048126	0.25060391426086426
24	71.72431707382202	response	0	2		22.0	2.5	/experiments/knapen_aot/videos/S_yt-4wYTkhggZNM_90.mp4	0.0	261.67424607276917	
24	71.73319602012634	movie	1		301.0	22.0	2.5	/experiments/knapen_aot/videos/S_yt-4wYTkhggZNM_90.mp4	0.0	261.6831250190735	2.5077340602874756
24	73.86609101295471	response	1	2		22.0	2.5	/experiments/knapen_aot/videos/S_yt-4wYTkhggZNM_90.mp4	0.0	263.81602001190186	
24	74.24093008041382	fix_post	2		12.0	22.0	2.5	/experiments/knapen_aot/videos/S_yt-4wYTkhggZNM_90.mp4	0.0	264.19085907936096	0.09990501403808594
25	74.3408350944519	fix_pre	0		12.0	23.0	2.5	/experiments/knapen_aot/videos/R_S_ILSVRC2015_train_00599000.mp4	0.0	264.29076409339905	0.10062193870544434
25	74.43269205093384	response	0	2		23.0	2.5	/experiments/knapen_aot/videos/R_S_ILSVRC2015_train_00599000.mp4	0.0	264.382621049881	
25	74.44145703315735	movie	1		301.0	23.0	2.5	/experiments/knapen_aot/videos/R_S_ILSVRC2015_train_00599000.mp4	0.0	264.3913860321045	2.507801055908203
25	76.94925808906555	fix_post	2		12.0	23.0	2.5	/experiments/knapen_aot/videos/R_S_ILSVRC2015_train_00599000.mp4	0.0	266.8991870880127	0.0999908447265625
25	77.02432703971863	response	2	2		23.0	2.5	/experiments/knapen_aot/videos/R_S_ILSVRC2015_train_00599000.mp4	0.0	266.97425603866577	
26	77.04924893379211	fix_pre	0		69.0	24.0	2.5	/experiments/knapen_aot/videos/R_S_production_ID_4124475.mp4	0.0	266.99917793273926	0.5750222206115723
26	77.61606097221375	response	0	2		24.0	2.5	/experiments/knapen_aot/videos/R_S_production_ID_4124475.mp4	0.0	267.5659899711609	
26	77.62427115440369	movie	1		169.0	24.0	2.5	/experiments/knapen_aot/videos/R_S_production_ID_4124475.mp4	0.0	267.57420015335083	2.5082788467407227
26	80.13255000114441	fix_post	2		12.0	24.0	2.5	/experiments/knapen_aot/videos/R_S_production_ID_4124475.mp4	0.0	270.08247900009155	0.10056710243225098
26	80.2077169418335	response	2	2		24.0	2.5	/experiments/knapen_aot/videos/R_S_production_ID_4124475.mp4	0.0	270.15764594078064	
27	80.23311710357666	fix_pre	0		133.0	25.0	2.5	/experiments/knapen_aot/videos/R_S_yt-yQrDeFlFmfM_138.mp4	0.0	270.1830461025238	1.1076939105987549
27	81.33273196220398	response	0	2		25.0	2.5	/experiments/knapen_aot/videos/R_S_yt-yQrDeFlFmfM_138.mp4	0.0	271.2826609611511	
27	81.34081101417542	movie	1		301.0	25.0	2.5	/experiments/knapen_aot/videos/R_S_yt-yQrDeFlFmfM_138.mp4	0.0	271.29074001312256	2.5083320140838623
27	83.84914302825928	fix_post	2		12.0	25.0	2.5	/experiments/knapen_aot/videos/R_S_yt-yQrDeFlFmfM_138.mp4	0.0	273.7990720272064	0.10004591941833496
28	83.94918894767761	fix_pre	0		11.0	26.0	2.5	/experiments/knapen_aot/videos/R_S_yt-QqSceHxY3d0_356.mp4	0.0	273.89911794662476	0.09169411659240723
28	84.03265905380249	response	0	4		26.0	2.5	/experiments/knapen_aot/videos/R_S_yt-QqSceHxY3d0_356.mp4	0.0	273.98258805274963	
28	84.04088306427002	movie	1		301.0	26.0	2.5	/experiments/knapen_aot/videos/R_S_yt-QqSceHxY3d0_356.mp4	0.0	273.99081206321716	2.5083160400390625
28	86.54919910430908	fix_post	2		12.0	26.0	2.5	/experiments/knapen_aot/videos/R_S_yt-QqSceHxY3d0_356.mp4	0.0	276.4991281032562	0.10052490234375
29	86.64972400665283	fix_pre	0		4.0	27.0	2.5	blank	1.0	276.5996530056	0.03285813331604004
29	86.67428803443909	response	0	4		27.0	2.5	blank	1.0	276.62421703338623	
29	86.68258213996887	movie	1		301.0	27.0	2.5	blank	1.0	276.632511138916	2.508283853530884
29	89.19086599349976	fix_post	2		12.0	27.0	2.5	blank	1.0	279.1407949924469	0.09991312026977539
30	89.29077911376953	fix_pre	0		70.0	28.0	2.5	/experiments/knapen_aot/videos/R_S_yt-thmqgEV-sYY_91.mp4	0.0	279.2407081127167	0.5834460258483887
30	89.86598706245422	response	0	4		28.0	2.5	/experiments/knapen_aot/videos/R_S_yt-thmqgEV-sYY_91.mp4	0.0	279.81591606140137	
30	89.87422513961792	movie	1		301.0	28.0	2.5	/experiments/knapen_aot/videos/R_S_yt-thmqgEV-sYY_91.mp4	0.0	279.82415413856506	2.5083088874816895
30	92.38253402709961	fix_post	2		12.0	28.0	2.5	/experiments/knapen_aot/videos/R_S_yt-thmqgEV-sYY_91.mp4	0.0	282.33246302604675	0.09993100166320801
31	92.48246502876282	fix_pre	0		11.0	29.0	2.5	/experiments/knapen_aot/videos/S_yt-TvU-aYjNa2c_21.mp4	0.0	282.43239402770996	0.09168195724487305
31	92.55849695205688	response	0	4		29.0	2.5	/experiments/knapen_aot/videos/S_yt-TvU-aYjNa2c_21.mp4	0.0	282.508425951004	
31	92.57414698600769	movie	1		301.0	29.0	2.5	/experiments/knapen_aot/videos/S_yt-TvU-aYjNa2c_21.mp4	0.0	282.52407598495483	2.5082321166992188
31	95.08237910270691	fix_post	2		12.0	29.0	2.5	/experiments/knapen_aot/videos/S_yt-TvU-aYjNa2c_21.mp4	0.0	285.03230810165405	0.10010385513305664
32	95.18248295783997	fix_pre	0		33.0	30.0	2.5	/experiments/knapen_aot/videos/S_yt-7v3kHYBe7-E_8.mp4	0.0	285.1324119567871	0.2749800682067871
32	95.44927406311035	response	0	4		30.0	2.5	/experiments/knapen_aot/videos/S_yt-7v3kHYBe7-E_8.mp4	0.0	285.3992030620575	
32	95.45746302604675	movie	1		301.0	30.0	2.5	/experiments/knapen_aot/videos/S_yt-7v3kHYBe7-E_8.mp4	0.0	285.4073920249939	2.508378028869629
32	97.96584105491638	fix_post	2		12.0	30.0	2.5	/experiments/knapen_aot/videos/S_yt-7v3kHYBe7-E_8.mp4	0.0	287.9157700538635	0.09993100166320801
33	98.06577205657959	fix_pre	0		1.0	31.0	2.5	/experiments/knapen_aot/videos/S_yt-oVS_k_9upmo_205.mp4	0.0	288.01570105552673	0.008363008499145508
33	98.06744408607483	response	0	4		31.0	2.5	/experiments/knapen_aot/videos/S_yt-oVS_k_9upmo_205.mp4	0.0	288.017373085022	
33	98.07413506507874	movie	1		301.0	31.0	2.5	/experiments/knapen_aot/videos/S_yt-oVS_k_9upmo_205.mp4	0.0	288.0240640640259	2.5083909034729004
33	100.58252596855164	fix_post	2		12.0	31.0	2.5	/experiments/knapen_aot/videos/S_yt-oVS_k_9upmo_205.mp4	0.0	290.5324549674988	0.09999799728393555
34	100.68252396583557	fix_pre	0		84.0	32.0	2.5	/experiments/knapen_aot/videos/R_S_yt-qjg6kRxNXK8_217.mp4	0.0	290.6324529647827	0.6999711990356445
34	101.37430715560913	response	0	4		32.0	2.5	/experiments/knapen_aot/videos/R_S_yt-qjg6kRxNXK8_217.mp4	0.0	291.3242361545563	
34	101.38249516487122	movie	1		301.0	32.0	2.5	/experiments/knapen_aot/videos/R_S_yt-qjg6kRxNXK8_217.mp4	0.0	291.33242416381836	2.508356809616089
34	103.8908519744873	fix_post	2		12.0	32.0	2.5	/experiments/knapen_aot/videos/R_S_yt-qjg6kRxNXK8_217.mp4	0.0	293.84078097343445	0.1000051498413086
35	103.99085712432861	fix_pre	0		26.0	33.0	2.5	/experiments/knapen_aot/videos/R_S_yt-pO5SVq-9EhU_114.mp4	0.0	293.94078612327576	0.21661686897277832
35	104.19930911064148	response	0	4		33.0	2.5	/experiments/knapen_aot/videos/R_S_yt-pO5SVq-9EhU_114.mp4	0.0	294.1492381095886	
35	104.20747399330139	movie	1		300.0	33.0	2.5	/experiments/knapen_aot/videos/R_S_yt-pO5SVq-9EhU_114.mp4	0.0	294.15740299224854	2.5083119869232178
35	106.71578598022461	fix_post	2		12.0	33.0	2.5	/experiments/knapen_aot/videos/R_S_yt-pO5SVq-9EhU_114.mp4	0.0	296.66571497917175	0.1004340648651123
36	106.81622004508972	fix_pre	0		13.0	34.0	2.5	blank	1.0	296.76614904403687	0.10793495178222656
36	106.90838503837585	response	0	4		34.0	2.5	blank	1.0	296.858314037323	
36	106.92415499687195	movie	1		301.0	34.0	2.5	blank	1.0	296.8740839958191	2.5083210468292236
36	109.43247604370117	fix_post	2		12.0	34.0	2.5	blank	1.0	299.3824050426483	0.09998512268066406
37	109.53246116638184	fix_pre	0		23.0	35.0	2.5	/experiments/knapen_aot/videos/S_pexels-kampus-production-5991896.mp4	0.0	299.482390165329	0.19165682792663574
37	109.71598815917969	response	0	4		35.0	2.5	/experiments/knapen_aot/videos/S_pexels-kampus-production-5991896.mp4	0.0	299.66591715812683	
37	109.72411799430847	movie	1		162.0	35.0	2.5	/experiments/knapen_aot/videos/S_pexels-kampus-production-5991896.mp4	0.0	299.6740469932556	2.50829815864563
37	112.2324161529541	fix_post	2		12.0	35.0	2.5	/experiments/knapen_aot/videos/S_pexels-kampus-production-5991896.mp4	0.0	302.18234515190125	0.1000518798828125
38	112.33246803283691	fix_pre	0		24.0	36.0	2.5	/experiments/knapen_aot/videos/S_pexels-koolshooters-7327401.mp4	0.0	302.28239703178406	0.1999959945678711
38	112.52420115470886	response	0	4		36.0	2.5	/experiments/knapen_aot/videos/S_pexels-koolshooters-7327401.mp4	0.0	302.474130153656	
38	112.53246402740479	movie	1		164.0	36.0	2.5	/experiments/knapen_aot/videos/S_pexels-koolshooters-7327401.mp4	0.0	302.48239302635193	2.508284091949463
38	115.04074811935425	fix_post	2		12.0	36.0	2.5	/experiments/knapen_aot/videos/S_pexels-koolshooters-7327401.mp4	0.0	304.9906771183014	0.10002899169921875
39	115.14077711105347	fix_pre	0		10.0	37.0	2.5	/experiments/knapen_aot/videos/S_yt-DmlSN7mzczI_62.mp4	0.0	305.0907061100006	0.08331894874572754
39	115.21600699424744	response	0	4		37.0	2.5	/experiments/knapen_aot/videos/S_yt-DmlSN7mzczI_62.mp4	0.0	305.1659359931946	
39	115.2240960597992	movie	1		301.0	37.0	2.5	/experiments/knapen_aot/videos/S_yt-DmlSN7mzczI_62.mp4	0.0	305.17402505874634	2.5083160400390625
39	117.4493420124054	response	1	4		37.0	2.5	/experiments/knapen_aot/videos/S_yt-DmlSN7mzczI_62.mp4	0.0	307.39927101135254	
39	117.73241209983826	fix_post	2		12.0	37.0	2.5	/experiments/knapen_aot/videos/S_yt-DmlSN7mzczI_62.mp4	0.0	307.6823410987854	0.10003805160522461
40	117.83245015144348	fix_pre	0		42.0	38.0	2.5	/experiments/knapen_aot/videos/S_comp_1223LV_FLARE_v21_SDR_PS_FINAL_20180709_F0F5700_SDR_2K_AVC.mp4	0.0	307.7823791503906	0.34991884231567383
40	118.17420816421509	response	0	4		38.0	2.5	/experiments/knapen_aot/videos/S_comp_1223LV_FLARE_v21_SDR_PS_FINAL_20180709_F0F5700_SDR_2K_AVC.mp4	0.0	308.12413716316223	
40	118.18236899375916	movie	1		164.0	38.0	2.5	/experiments/knapen_aot/videos/S_comp_1223LV_FLARE_v21_SDR_PS_FINAL_20180709_F0F5700_SDR_2K_AVC.mp4	0.0	308.1322979927063	2.508676052093506
40	120.69104504585266	fix_post	2		12.0	38.0	2.5	/experiments/knapen_aot/videos/S_comp_1223LV_FLARE_v21_SDR_PS_FINAL_20180709_F0F5700_SDR_2K_AVC.mp4	0.0	310.6409740447998	0.09972906112670898
40	120.75751304626465	response	2	4		38.0	2.5	/experiments/knapen_aot/videos/S_comp_1223LV_FLARE_v21_SDR_PS_FINAL_20180709_F0F5700_SDR_2K_AVC.mp4	0.0	310.7074420452118	
41	120.79077410697937	fix_pre	0		51.0	39.0	2.5	/experiments/knapen_aot/videos/S_yt-oVrkSsEpuvk_118.mp4	0.0	310.7407031059265	0.4332590103149414
41	121.2158579826355	response	0	4		39.0	2.5	/experiments/knapen_aot/videos/S_yt-oVrkSsEpuvk_118.mp4	0.0	311.16578698158264	
41	121.22403311729431	movie	1		301.0	39.0	2.5	/experiments/knapen_aot/videos/S_yt-oVrkSsEpuvk_118.mp4	0.0	311.17396211624146	2.508340835571289
41	123.7323739528656	fix_post	2		12.0	39.0	2.5	/experiments/knapen_aot/videos/S_yt-oVrkSsEpuvk_118.mp4	0.0	313.68230295181274	0.0999460220336914
42	123.83231997489929	fix_pre	0		14.0	40.0	2.5	blank	1.0	313.78224897384644	0.11671710014343262
42	123.93333601951599	response	0	4		40.0	2.5	blank	1.0	313.88326501846313	
42	123.94903707504272	movie	1		301.0	40.0	2.5	blank	1.0	313.89896607398987	2.5083088874816895
42	126.45734596252441	fix_post	2		12.0	40.0	2.5	blank	1.0	316.40727496147156	0.09995913505554199
43	126.55730509757996	fix_pre	0		475.0	41.0	2.5	/experiments/knapen_aot/videos/S_yt-fGN7sGPy8BA_13.mp4	0.0	316.5072340965271	3.95832896232605
43	130.49994111061096	response	0	4		41.0	2.5	/experiments/knapen_aot/videos/S_yt-fGN7sGPy8BA_13.mp4	0.0	320.4498701095581	
43	130.515634059906	movie	1		300.0	41.0	2.5	/experiments/knapen_aot/videos/S_yt-fGN7sGPy8BA_13.mp4	0.0	320.46556305885315	2.508378028869629
43	133.02401208877563	fix_post	2		12.0	41.0	2.5	/experiments/knapen_aot/videos/S_yt-fGN7sGPy8BA_13.mp4	0.0	322.9739410877228	0.10000085830688477
44	133.12401294708252	fix_pre	0		7.0	42.0	2.5	/experiments/knapen_aot/videos/R_S_yt-JkKOG9Fxykc_94.mp4	0.0	323.07394194602966	0.058245182037353516
44	133.17420506477356	response	0	4		42.0	2.5	/experiments/knapen_aot/videos/R_S_yt-JkKOG9Fxykc_94.mp4	0.0	323.1241340637207	
44	133.18225812911987	movie	1		301.0	42.0	2.5	/experiments/knapen_aot/videos/R_S_yt-JkKOG9Fxykc_94.mp4	0.0	323.132187128067	2.5083978176116943
44	135.69065594673157	fix_post	2		12.0	42.0	2.5	/experiments/knapen_aot/videos/R_S_yt-JkKOG9Fxykc_94.mp4	0.0	325.6405849456787	0.10002517700195312
45	135.79068112373352	fix_pre	0		10.0	43.0	2.5	/experiments/knapen_aot/videos/R_S_yt-fGN7sGPy8BA_13.mp4	0.0	325.74061012268066	0.08347296714782715
45	135.8597230911255	response	0	4		43.0	2.5	/experiments/knapen_aot/videos/R_S_yt-fGN7sGPy8BA_13.mp4	0.0	325.80965209007263	
45	135.87415409088135	movie	1		301.0	43.0	2.5	/experiments/knapen_aot/videos/R_S_yt-fGN7sGPy8BA_13.mp4	0.0	325.8240830898285	2.5081639289855957
45	138.38231801986694	fix_post	2		12.0	43.0	2.5	/experiments/knapen_aot/videos/R_S_yt-fGN7sGPy8BA_13.mp4	0.0	328.3322470188141	0.10026407241821289
46	138.48258209228516	fix_pre	0		15.0	44.0	2.5	/experiments/knapen_aot/videos/R_S_yt-hDYtYKUsVE4_120.mp4	0.0	328.4325110912323	0.12488889694213867
46	138.59155893325806	response	0	4		44.0	2.5	/experiments/knapen_aot/videos/R_S_yt-hDYtYKUsVE4_120.mp4	0.0	328.5414879322052	
46	138.6074709892273	movie	1		301.0	44.0	2.5	/experiments/knapen_aot/videos/R_S_yt-hDYtYKUsVE4_120.mp4	0.0	328.55739998817444	2.5080630779266357
46	141.11553406715393	fix_post	2		12.0	44.0	2.5	/experiments/knapen_aot/videos/R_S_yt-hDYtYKUsVE4_120.mp4	0.0	331.0654630661011	0.10009407997131348
47	141.21562814712524	fix_pre	0		2.0	45.0	2.5	/experiments/knapen_aot/videos/S_yt-wVMhACNFF-M_154.mp4	0.0	331.1655571460724	0.016893863677978516
47	141.22573709487915	response	0	4		45.0	2.5	/experiments/knapen_aot/videos/S_yt-wVMhACNFF-M_154.mp4	0.0	331.1756660938263	
47	141.23252201080322	movie	1		301.0	45.0	2.5	/experiments/knapen_aot/videos/S_yt-wVMhACNFF-M_154.mp4	0.0	331.18245100975037	2.5081419944763184
47	143.74066400527954	fix_post	2		12.0	45.0	2.5	/experiments/knapen_aot/videos/S_yt-wVMhACNFF-M_154.mp4	0.0	333.6905930042267	0.0999441146850586
48	143.8406081199646	fix_pre	0		9.0	46.0	2.5	/experiments/knapen_aot/videos/R_S_ILSVRC2015_train_00185002.mp4	0.0	333.79053711891174	0.07503104209899902
48	143.90742111206055	response	0	4		46.0	2.5	/experiments/knapen_aot/videos/R_S_ILSVRC2015_train_00185002.mp4	0.0	333.8573501110077	
48	143.9156391620636	movie	1		300.0	46.0	2.5	/experiments/knapen_aot/videos/R_S_ILSVRC2015_train_00185002.mp4	0.0	333.86556816101074	2.508272886276245
48	146.42391204833984	fix_post	2		12.0	46.0	2.5	/experiments/knapen_aot/videos/R_S_ILSVRC2015_train_00185002.mp4	0.0	336.373841047287	0.1002049446105957
49	146.52411699295044	fix_pre	0		2.0	47.0	2.5	blank	1.0	336.4740459918976	0.016520023345947266
49	146.53240704536438	response	0	4		47.0	2.5	blank	1.0	336.4823360443115	
49	146.5406370162964	movie	1		301.0	47.0	2.5	blank	1.0	336.49056601524353	2.5082640647888184
49	149.0489010810852	fix_post	2		12.0	47.0	2.5	blank	1.0	338.99883008003235	0.1001899242401123
50	149.14909100532532	fix_pre	0		14.0	48.0	2.5	/experiments/knapen_aot/videos/R_S_yt-35i8UeYXjGw_47.mp4	0.0	339.09902000427246	0.1164860725402832
50	149.2574291229248	response	0	4		48.0	2.5	/experiments/knapen_aot/videos/R_S_yt-35i8UeYXjGw_47.mp4	0.0	339.20735812187195	
50	149.2655770778656	movie	1		300.0	48.0	2.5	/experiments/knapen_aot/videos/R_S_yt-35i8UeYXjGw_47.mp4	0.0	339.21550607681274	2.5085489749908447
50	151.76575708389282	response	1	4		48.0	2.5	/experiments/knapen_aot/videos/R_S_yt-35i8UeYXjGw_47.mp4	0.0	341.71568608283997	
50	151.77412605285645	fix_post	2		12.0	48.0	2.5	/experiments/knapen_aot/videos/R_S_yt-35i8UeYXjGw_47.mp4	0.0	341.7240550518036	0.09983611106872559
51	151.87396216392517	fix_pre	0		40.0	49.0	2.5	/experiments/knapen_aot/videos/R_S_ILSVRC2015_train_00460000.mp4	0.0	341.8238911628723	0.3333258628845215
51	152.19898509979248	response	0	4		49.0	2.5	/experiments/knapen_aot/videos/R_S_ILSVRC2015_train_00460000.mp4	0.0	342.1489140987396	
51	152.2072880268097	movie	1		301.0	49.0	2.5	/experiments/knapen_aot/videos/R_S_ILSVRC2015_train_00460000.mp4	0.0	342.15721702575684	2.5082290172576904
51	154.71551704406738	fix_post	2		12.0	49.0	2.5	/experiments/knapen_aot/videos/R_S_ILSVRC2015_train_00460000.mp4	0.0	344.6654460430145	0.1001279354095459
52	154.81564497947693	fix_pre	0		2.0	50.0	2.5	/experiments/knapen_aot/videos/S_yt-o_Hakzj8PRg_2864.mp4	0.0	344.7655739784241	0.016569137573242188
52	154.82403206825256	response	0	4		50.0	2.5	/experiments/knapen_aot/videos/S_yt-o_Hakzj8PRg_2864.mp4	0.0	344.7739610671997	
52	154.83221411705017	movie	1		301.0	50.0	2.5	/experiments/knapen_aot/videos/S_yt-o_Hakzj8PRg_2864.mp4	0.0	344.7821431159973	2.508404016494751
52	157.34061813354492	fix_post	2		12.0	50.0	2.5	/experiments/knapen_aot/videos/S_yt-o_Hakzj8PRg_2864.mp4	0.0	347.29054713249207	0.10004997253417969
53	157.4406681060791	fix_pre	0		12.0	51.0	2.5	/experiments/knapen_aot/videos/S_I003_C008_SDR_2K_AVC.mp4	0.0	347.39059710502625	0.09990406036376953
53	157.5323519706726	response	0	4		51.0	2.5	/experiments/knapen_aot/videos/S_I003_C008_SDR_2K_AVC.mp4	0.0	347.48228096961975	
53	157.54057216644287	movie	1		169.0	51.0	2.5	/experiments/knapen_aot/videos/S_I003_C008_SDR_2K_AVC.mp4	0.0	347.49050116539	2.508316993713379
53	160.04888916015625	fix_post	2		12.0	51.0	2.5	/experiments/knapen_aot/videos/S_I003_C008_SDR_2K_AVC.mp4	0.0	349.9988181591034	0.10006189346313477
54	160.14895105361938	fix_pre	0		7.0	52.0	2.5	/experiments/knapen_aot/videos/S_yt-5fnd__rpWeE_396.mp4	0.0	350.0988800525665	0.058216094970703125
54	160.19901299476624	response	0	4		52.0	2.5	/experiments/knapen_aot/videos/S_yt-5fnd__rpWeE_396.mp4	0.0	350.1489419937134	
54	160.2071671485901	movie	1		301.0	52.0	2.5	/experiments/knapen_aot/videos/S_yt-5fnd__rpWeE_396.mp4	0.0	350.15709614753723	2.5082759857177734
54	162.71544313430786	fix_post	2		12.0	52.0	2.5	/experiments/knapen_aot/videos/S_yt-5fnd__rpWeE_396.mp4	0.0	352.665372133255	0.10016989707946777
55	162.81561303138733	fix_pre	0		16.0	53.0	2.5	/experiments/knapen_aot/videos/R_S_comp_L010_C006_PS_v01_SDR_PS_20180925_SDR_2K_AVC.mp4	0.0	352.7655420303345	0.13331198692321777
55	162.94064807891846	response	0	4		53.0	2.5	/experiments/knapen_aot/videos/R_S_comp_L010_C006_PS_v01_SDR_PS_20180925_SDR_2K_AVC.mp4	0.0	352.8905770778656	
55	162.94892501831055	movie	1		166.0	53.0	2.5	/experiments/knapen_aot/videos/R_S_comp_L010_C006_PS_v01_SDR_PS_20180925_SDR_2K_AVC.mp4	0.0	352.8988540172577	2.5083091259002686
55	165.45723414421082	fix_post	2		12.0	53.0	2.5	/experiments/knapen_aot/videos/R_S_comp_L010_C006_PS_v01_SDR_PS_20180925_SDR_2K_AVC.mp4	0.0	355.40716314315796	0.10003995895385742
56	165.55727410316467	fix_pre	0		69.0	54.0	2.5	/experiments/knapen_aot/videos/R_S_production_ID_4707837.mp4	0.0	355.5072031021118	0.574944019317627
56	166.12411308288574	response	0	4		54.0	2.5	/experiments/knapen_aot/videos/R_S_production_ID_4707837.mp4	0.0	356.0740420818329	
56	166.1322181224823	movie	1		165.0	54.0	2.5	/experiments/knapen_aot/videos/R_S_production_ID_4707837.mp4	0.0	356.08214712142944	2.5083248615264893
56	168.6405429840088	fix_post	2		12.0	54.0	2.5	/experiments/knapen_aot/videos/R_S_production_ID_4707837.mp4	0.0	358.59047198295593	0.10000109672546387
56	168.71591305732727	response	2	4		54.0	2.5	/experiments/knapen_aot/videos/R_S_production_ID_4707837.mp4	0.0	358.6658420562744	
57	168.74054408073425	fix_pre	0		58.0	55.0	2.5	/experiments/knapen_aot/videos/S_yt--koo4FOfZE0_86.mp4	0.0	358.6904730796814	0.4833240509033203
57	169.21569395065308	response	0	4		55.0	2.5	/experiments/knapen_aot/videos/S_yt--koo4FOfZE0_86.mp4	0.0	359.1656229496002	
57	169.22386813163757	movie	1		301.0	55.0	2.5	/experiments/knapen_aot/videos/S_yt--koo4FOfZE0_86.mp4	0.0	359.1737971305847	2.508391857147217
57	171.7322599887848	fix_post	2		12.0	55.0	2.5	/experiments/knapen_aot/videos/S_yt--koo4FOfZE0_86.mp4	0.0	361.68218898773193	0.09993600845336914
58	171.83219599723816	fix_pre	0		12.0	56.0	2.5	blank	1.0	361.7821249961853	0.10000109672546387
58	171.92402505874634	response	0	2		56.0	2.5	blank	1.0	361.8739540576935	
58	171.93219709396362	movie	1		300.0	56.0	2.5	blank	1.0	361.88212609291077	2.50838303565979
58	174.4405801296234	fix_post	2		12.0	56.0	2.5	blank	1.0	364.39050912857056	0.09994292259216309
59	174.54052305221558	fix_pre	0		28.0	57.0	2.5	/experiments/knapen_aot/videos/R_S_WCwb-DeQOSg_85.mp4	0.0	364.4904520511627	0.23338007926940918
59	174.76565098762512	response	0	4		57.0	2.5	/experiments/knapen_aot/videos/R_S_WCwb-DeQOSg_85.mp4	0.0	364.71557998657227	
59	174.77390313148499	movie	1		301.0	57.0	2.5	/experiments/knapen_aot/videos/R_S_WCwb-DeQOSg_85.mp4	0.0	364.72383213043213	2.5082449913024902
59	177.28214812278748	fix_post	2		12.0	57.0	2.5	/experiments/knapen_aot/videos/R_S_WCwb-DeQOSg_85.mp4	0.0	367.2320771217346	0.09995889663696289
60	177.38210701942444	fix_pre	0		23.0	58.0	2.5	/experiments/knapen_aot/videos/R_S_yt-8N5UuN5WQcY_72.mp4	0.0	367.3320360183716	0.1916639804840088
60	177.56550312042236	response	0	4		58.0	2.5	/experiments/knapen_aot/videos/R_S_yt-8N5UuN5WQcY_72.mp4	0.0	367.5154321193695	
60	177.57377099990845	movie	1		299.0	58.0	2.5	/experiments/knapen_aot/videos/R_S_yt-8N5UuN5WQcY_72.mp4	0.0	367.5236999988556	2.5083470344543457
60	180.0821180343628	fix_post	2		12.0	58.0	2.5	/experiments/knapen_aot/videos/R_S_yt-8N5UuN5WQcY_72.mp4	0.0	370.03204703330994	0.10002493858337402
61	180.18214297294617	fix_pre	0		28.0	59.0	2.5	/experiments/knapen_aot/videos/R_S_yt-rY_ra5Tb9XU_51.mp4	0.0	370.1320719718933	0.23326802253723145
61	180.39982795715332	response	0	4		59.0	2.5	/experiments/knapen_aot/videos/R_S_yt-rY_ra5Tb9XU_51.mp4	0.0	370.34975695610046	
61	180.4154109954834	movie	1		301.0	59.0	2.5	/experiments/knapen_aot/videos/R_S_yt-rY_ra5Tb9XU_51.mp4	0.0	370.36533999443054	2.508362054824829
61	182.92377305030823	fix_post	2		12.0	59.0	2.5	/experiments/knapen_aot/videos/R_S_yt-rY_ra5Tb9XU_51.mp4	0.0	372.87370204925537	0.1000359058380127
62	183.02380895614624	fix_pre	0		16.0	60.0	2.5	/experiments/knapen_aot/videos/R_S_production_ID_4122384.mp4	0.0	372.9737379550934	0.1332709789276123
62	183.1489281654358	response	0	4		60.0	2.5	/experiments/knapen_aot/videos/R_S_production_ID_4122384.mp4	0.0	373.09885716438293	
62	183.15707993507385	movie	1		166.0	60.0	2.5	/experiments/knapen_aot/videos/R_S_production_ID_4122384.mp4	0.0	373.107008934021	2.5082480907440186
62	185.66532802581787	fix_post	2		12.0	60.0	2.5	/experiments/knapen_aot/videos/R_S_production_ID_4122384.mp4	0.0	375.615257024765	0.10009193420410156
63	185.76541996002197	fix_pre	0		33.0	61.0	2.5	/experiments/knapen_aot/videos/R_S_ILSVRC2015_train_00569002.mp4	0.0	375.7153489589691	0.27497220039367676
63	186.03220796585083	response	0	4		61.0	2.5	/experiments/knapen_aot/videos/R_S_ILSVRC2015_train_00569002.mp4	0.0	375.982136964798	
63	186.04039216041565	movie	1		301.0	61.0	2.5	/experiments/knapen_aot/videos/R_S_ILSVRC2015_train_00569002.mp4	0.0	375.9903211593628	2.5083677768707275
63	188.54875993728638	fix_post	2		12.0	61.0	2.5	/experiments/knapen_aot/videos/R_S_ILSVRC2015_train_00569002.mp4	0.0	378.4986889362335	0.09999918937683105
64	188.6487591266632	fix_pre	0		95.0	62.0	2.5	blank	1.0	378.59868812561035	0.7916059494018555
64	189.43223595619202	response	0	4		62.0	2.5	blank	1.0	379.38216495513916	
64	189.44036507606506	movie	1		301.0	62.0	2.5	blank	1.0	379.3902940750122	2.5083398818969727
64	191.94870495796204	fix_post	2		12.0	62.0	2.5	blank	1.0	381.8986339569092	0.10002708435058594
65	192.04873204231262	fix_pre	0		20.0	63.0	2.5	/experiments/knapen_aot/videos/R_S_yt-r7brAHgxZSU_248.mp4	0.0	381.99866104125977	0.16661906242370605
65	192.20723009109497	response	0	4		63.0	2.5	/experiments/knapen_aot/videos/R_S_yt-r7brAHgxZSU_248.mp4	0.0	382.1571590900421	
65	192.21535110473633	movie	1		301.0	63.0	2.5	/experiments/knapen_aot/videos/R_S_yt-r7brAHgxZSU_248.mp4	0.0	382.1652801036835	2.508368968963623
65	194.72372007369995	fix_post	2		12.0	63.0	2.5	/experiments/knapen_aot/videos/R_S_yt-r7brAHgxZSU_248.mp4	0.0	384.6736490726471	0.0999898910522461
66	194.8237099647522	fix_pre	0		4.0	64.0	2.5	/experiments/knapen_aot/videos/S_DV6V38rplag_215.mp4	0.0	384.77363896369934	0.033399105072021484
66	194.84889197349548	response	0	2		64.0	2.5	/experiments/knapen_aot/videos/S_DV6V38rplag_215.mp4	0.0	384.7988209724426	
66	194.85710906982422	movie	1		300.0	64.0	2.5	/experiments/knapen_aot/videos/S_DV6V38rplag_215.mp4	0.0	384.80703806877136	2.5082290172576904
66	195.34372901916504	response	1	2		64.0	2.5	/experiments/knapen_aot/videos/S_DV6V38rplag_215.mp4	0.0	385.2936580181122	
66	197.3653380870819	fix_post	2		12.0	64.0	2.5	/experiments/knapen_aot/videos/S_DV6V38rplag_215.mp4	0.0	387.31526708602905	0.10003495216369629
67	197.4653730392456	fix_pre	0		19.0	65.0	2.5	/experiments/knapen_aot/videos/R_S_ILSVRC2015_train_00572000.mp4	0.0	387.41530203819275	0.15834498405456543
67	197.6155309677124	response	0	2		65.0	2.5	/experiments/knapen_aot/videos/R_S_ILSVRC2015_train_00572000.mp4	0.0	387.56545996665955	
67	197.62371802330017	movie	1		301.0	65.0	2.5	/experiments/knapen_aot/videos/R_S_ILSVRC2015_train_00572000.mp4	0.0	387.5736470222473	2.5083401203155518
67	200.13205814361572	fix_post	2		11.0	65.0	2.5	/experiments/knapen_aot/videos/R_S_ILSVRC2015_train_00572000.mp4	0.0	390.08198714256287	0.09998893737792969
68	200.23204708099365	fix_pre	0		15.0	66.0	2.5	/experiments/knapen_aot/videos/S_yt-146gReE6xKw_379.mp4	0.0	390.1819760799408	0.12494301795959473
68	200.34885811805725	response	0	2		66.0	2.5	/experiments/knapen_aot/videos/S_yt-146gReE6xKw_379.mp4	0.0	390.2987871170044	
68	200.35699009895325	movie	1		301.0	66.0	2.5	/experiments/knapen_aot/videos/S_yt-146gReE6xKw_379.mp4	0.0	390.3069190979004	2.5083329677581787
68	202.86532306671143	fix_post	2		12.0	66.0	2.5	/experiments/knapen_aot/videos/S_yt-146gReE6xKw_379.mp4	0.0	392.81525206565857	0.1000359058380127
69	202.96535897254944	fix_pre	0		24.0	67.0	2.5	/experiments/knapen_aot/videos/S_yt-IC62JSYpq9w_71.mp4	0.0	392.9152879714966	0.1999650001525879
69	203.15708994865417	response	0	2		67.0	2.5	/experiments/knapen_aot/videos/S_yt-IC62JSYpq9w_71.mp4	0.0	393.1070189476013	
69	203.16532397270203	movie	1		297.0	67.0	2.5	/experiments/knapen_aot/videos/S_yt-IC62JSYpq9w_71.mp4	0.0	393.11525297164917	2.508327007293701
69	205.25989508628845	response	1	2		67.0	2.5	/experiments/knapen_aot/videos/S_yt-IC62JSYpq9w_71.mp4	0.0	395.2098240852356	
69	205.67365097999573	fix_post	2		12.0	67.0	2.5	/experiments/knapen_aot/videos/S_yt-IC62JSYpq9w_71.mp4	0.0	395.62357997894287	0.10004901885986328
70	205.7736999988556	fix_pre	0		13.0	68.0	2.5	blank	1.0	395.72362899780273	0.10829305648803711
70	205.87376809120178	response	0	2		68.0	2.5	blank	1.0	395.8236970901489	
70	205.88199305534363	movie	1		301.0	68.0	2.5	blank	1.0	395.83192205429077	2.5083069801330566
70	208.39030003547668	fix_post	2		12.0	68.0	2.5	blank	1.0	398.3402290344238	0.09995794296264648
70	208.39876008033752	response	2	2		68.0	2.5	blank	1.0	398.34868907928467	
71	208.49025797843933	fix_pre	0		57.0	69.0	2.5	/experiments/knapen_aot/videos/R_S_yt-yQrDeFlFmfM_138.mp4	0.0	398.4401869773865	0.4750180244445801
71	208.9495930671692	response	0	2		69.0	2.5	/experiments/knapen_aot/videos/R_S_yt-yQrDeFlFmfM_138.mp4	0.0	398.89952206611633	
71	208.9652760028839	movie	1		301.0	69.0	2.5	/experiments/knapen_aot/videos/R_S_yt-yQrDeFlFmfM_138.mp4	0.0	398.91520500183105	2.5083210468292236
71	211.47359704971313	fix_post	2		12.0	69.0	2.5	/experiments/knapen_aot/videos/R_S_yt-yQrDeFlFmfM_138.mp4	0.0	401.4235260486603	0.10005903244018555
72	211.57365608215332	fix_pre	0		4.0	70.0	2.5	/experiments/knapen_aot/videos/S_yt-8y7Xhp2_2e0_168.mp4	0.0	401.52358508110046	0.03332686424255371
72	211.5989019870758	response	0	2		70.0	2.5	/experiments/knapen_aot/videos/S_yt-8y7Xhp2_2e0_168.mp4	0.0	401.54883098602295	
72	211.60698294639587	movie	1		301.0	70.0	2.5	/experiments/knapen_aot/videos/S_yt-8y7Xhp2_2e0_168.mp4	0.0	401.556911945343	2.5083131790161133
72	214.115296125412	fix_post	2		11.0	70.0	2.5	/experiments/knapen_aot/videos/S_yt-8y7Xhp2_2e0_168.mp4	0.0	404.06522512435913	0.09165287017822266
72	214.19887495040894	response	2	2		70.0	2.5	/experiments/knapen_aot/videos/S_yt-8y7Xhp2_2e0_168.mp4	0.0	404.1488039493561	
73	214.2069489955902	fix_pre	0		64.0	71.0	2.5	/experiments/knapen_aot/videos/R_S_yt-DmlSN7mzczI_62.mp4	0.0	404.15687799453735	0.5333480834960938
73	214.73207902908325	response	0	2		71.0	2.5	/experiments/knapen_aot/videos/R_S_yt-DmlSN7mzczI_62.mp4	0.0	404.6820080280304	
73	214.7402970790863	movie	1		301.0	71.0	2.5	/experiments/knapen_aot/videos/R_S_yt-DmlSN7mzczI_62.mp4	0.0	404.69022607803345	2.508347988128662
73	217.24864506721497	fix_post	2		12.0	71.0	2.5	/experiments/knapen_aot/videos/R_S_yt-DmlSN7mzczI_62.mp4	0.0	407.1985740661621	0.1000359058380127
74	217.34868097305298	fix_pre	0		12.0	72.0	2.5	/experiments/knapen_aot/videos/R_S_flickr-51283549@N02-23064904264_16.mp4	0.0	407.2986099720001	0.0999600887298584
74	217.43285608291626	response	0	2		72.0	2.5	/experiments/knapen_aot/videos/R_S_flickr-51283549@N02-23064904264_16.mp4	0.0	407.3827850818634	
74	217.44864106178284	movie	1		165.0	72.0	2.5	/experiments/knapen_aot/videos/R_S_flickr-51283549@N02-23064904264_16.mp4	0.0	407.39857006073	2.5083630084991455
74	219.95700407028198	fix_post	2		12.0	72.0	2.5	/experiments/knapen_aot/videos/R_S_flickr-51283549@N02-23064904264_16.mp4	0.0	409.9069330692291	0.10000300407409668
75	220.05700707435608	fix_pre	0		6.0	73.0	2.5	/experiments/knapen_aot/videos/R_S_production_ID_4325509.mp4	0.0	410.0069360733032	0.04989790916442871
75	220.098778963089	response	0	2		73.0	2.5	/experiments/knapen_aot/videos/R_S_production_ID_4325509.mp4	0.0	410.04870796203613	
75	220.1069049835205	movie	1		204.0	73.0	2.5	/experiments/knapen_aot/videos/R_S_production_ID_4325509.mp4	0.0	410.05683398246765	2.508389949798584
75	222.6152949333191	fix_post	2		12.0	73.0	2.5	/experiments/knapen_aot/videos/R_S_production_ID_4325509.mp4	0.0	412.56522393226624	0.10001301765441895
75	222.6903519630432	response	2	2		73.0	2.5	/experiments/knapen_aot/videos/R_S_production_ID_4325509.mp4	0.0	412.64028096199036	
76	222.7153079509735	fix_pre	0		49.0	74.0	2.5	/experiments/knapen_aot/videos/S_bing-www_dailymotion_com_video_x64hzm7_8.mp4	0.0	412.66523694992065	0.40830302238464355
76	223.11529994010925	response	0	2		74.0	2.5	/experiments/knapen_aot/videos/S_bing-www_dailymotion_com_video_x64hzm7_8.mp4	0.0	413.0652289390564	
76	223.12361097335815	movie	1		162.0	74.0	2.5	/experiments/knapen_aot/videos/S_bing-www_dailymotion_com_video_x64hzm7_8.mp4	0.0	413.0735399723053	2.5083680152893066
76	225.63197898864746	fix_post	2		12.0	74.0	2.5	/experiments/knapen_aot/videos/S_bing-www_dailymotion_com_video_x64hzm7_8.mp4	0.0	415.5819079875946	0.1000211238861084
77	225.73200011253357	fix_pre	0		27.0	75.0	2.5	/experiments/knapen_aot/videos/S_yt-HQQws1Lp_rQ_10.mp4	0.0	415.6819291114807	0.22496390342712402
77	225.94897413253784	response	0	2		75.0	2.5	/experiments/knapen_aot/videos/S_yt-HQQws1Lp_rQ_10.mp4	0.0	415.898903131485	
77	225.9569640159607	movie	1		301.0	75.0	2.5	/experiments/knapen_aot/videos/S_yt-HQQws1Lp_rQ_10.mp4	0.0	415.90689301490784	2.5083069801330566
77	228.46527099609375	fix_post	2		12.0	75.0	2.5	/experiments/knapen_aot/videos/S_yt-HQQws1Lp_rQ_10.mp4	0.0	418.4151999950409	0.10002899169921875
78	228.56529998779297	fix_pre	0		30.0	76.0	2.5	blank	1.0	418.5152289867401	0.25002098083496094
78	228.80718207359314	response	0	2		76.0	2.5	blank	1.0	418.7571110725403	
78	228.81532096862793	movie	1		301.0	76.0	2.5	blank	1.0	418.7652499675751	2.508289098739624
78	231.32361006736755	fix_post	2		12.0	76.0	2.5	blank	1.0	421.2735390663147	0.10002589225769043
79	231.42363595962524	fix_pre	0		29.0	77.0	2.5	/experiments/knapen_aot/videos/S_yt-4-u4Fw_J_q8_45.mp4	0.0	421.3735649585724	0.2416219711303711
79	231.64955306053162	response	0	2		77.0	2.5	/experiments/knapen_aot/videos/S_yt-4-u4Fw_J_q8_45.mp4	0.0	421.59948205947876	
79	231.66525793075562	movie	1		301.0	77.0	2.5	/experiments/knapen_aot/videos/S_yt-4-u4Fw_J_q8_45.mp4	0.0	421.61518692970276	2.508385181427002
79	234.17364311218262	fix_post	2		12.0	77.0	2.5	/experiments/knapen_aot/videos/S_yt-4-u4Fw_J_q8_45.mp4	0.0	424.12357211112976	0.0999898910522461
80	234.27363300323486	fix_pre	0		15.0	78.0	2.5	/experiments/knapen_aot/videos/R_S_yt-0aHV3uU8xFY_75.mp4	0.0	424.223562002182	0.12492704391479492
80	234.39042711257935	response	0	2		78.0	2.5	/experiments/knapen_aot/videos/R_S_yt-0aHV3uU8xFY_75.mp4	0.0	424.3403561115265	
80	234.39856004714966	movie	1		301.0	78.0	2.5	/experiments/knapen_aot/videos/R_S_yt-0aHV3uU8xFY_75.mp4	0.0	424.3484890460968	2.5083649158477783
80	236.90692496299744	fix_post	2		12.0	78.0	2.5	/experiments/knapen_aot/videos/R_S_yt-0aHV3uU8xFY_75.mp4	0.0	426.8568539619446	0.1000070571899414
81	237.00693202018738	fix_pre	0		10.0	79.0	2.5	/experiments/knapen_aot/videos/S_yt-5fnd__rpWeE_396.mp4	0.0	426.9568610191345	0.08333301544189453
81	237.0745029449463	response	0	2		79.0	2.5	/experiments/knapen_aot/videos/S_yt-5fnd__rpWeE_396.mp4	0.0	427.02443194389343	
81	237.09026503562927	movie	1		301.0	79.0	2.5	/experiments/knapen_aot/videos/S_yt-5fnd__rpWeE_396.mp4	0.0	427.0401940345764	2.5083320140838623
81	239.59859704971313	fix_post	2		12.0	79.0	2.5	/experiments/knapen_aot/videos/S_yt-5fnd__rpWeE_396.mp4	0.0	429.5485260486603	0.10000109672546387
82	239.6985981464386	fix_pre	0		22.0	80.0	2.5	/experiments/knapen_aot/videos/S_comp_C003_C003_PS_v01_SDR_PS_20180925_SDR_2K_AVC.mp4	0.0	429.64852714538574	0.18332982063293457
82	239.87372708320618	response	0	2		80.0	2.5	/experiments/knapen_aot/videos/S_comp_C003_C003_PS_v01_SDR_PS_20180925_SDR_2K_AVC.mp4	0.0	429.8236560821533	
82	239.88192796707153	movie	1		162.0	80.0	2.5	/experiments/knapen_aot/videos/S_comp_C003_C003_PS_v01_SDR_PS_20180925_SDR_2K_AVC.mp4	0.0	429.8318569660187	2.508228063583374
82	242.3901560306549	fix_post	2		12.0	80.0	2.5	/experiments/knapen_aot/videos/S_comp_C003_C003_PS_v01_SDR_PS_20180925_SDR_2K_AVC.mp4	0.0	432.34008502960205	0.10004901885986328
82	242.48204493522644	response	2	2		80.0	2.5	/experiments/knapen_aot/videos/S_comp_C003_C003_PS_v01_SDR_PS_20180925_SDR_2K_AVC.mp4	0.0	432.4319739341736	
83	242.49020504951477	fix_pre	0		48.0	81.0	2.5	/experiments/knapen_aot/videos/S_yt-3JApfnMu5cU_378.mp4	0.0	432.4401340484619	0.40104103088378906
83	242.8820731639862	response	0	2		81.0	2.5	/experiments/knapen_aot/videos/S_yt-3JApfnMu5cU_378.mp4	0.0	432.83200216293335	
83	242.89124608039856	movie	1		301.0	81.0	2.5	/experiments/knapen_aot/videos/S_yt-3JApfnMu5cU_378.mp4	0.0	432.8411750793457	2.507291078567505
83	245.39853715896606	fix_post	2		12.0	81.0	2.5	/experiments/knapen_aot/videos/S_yt-3JApfnMu5cU_378.mp4	0.0	435.3484661579132	0.10002493858337402
84	245.49856209754944	fix_pre	0		30.0	82.0	2.5	blank	1.0	435.4484910964966	0.25000786781311035
84	245.7404351234436	response	0	2		82.0	2.5	blank	1.0	435.69036412239075	
84	245.74856996536255	movie	1		301.0	82.0	2.5	blank	1.0	435.6984989643097	2.508280038833618
84	248.25685000419617	fix_post	2		12.0	82.0	2.5	blank	1.0	438.2067790031433	0.10002899169921875
85	248.35687899589539	fix_pre	0		242.0	83.0	2.5	/experiments/knapen_aot/videos/S_ILSVRC2015_train_00599000.mp4	0.0	438.30680799484253	2.0165650844573975
85	250.36522793769836	response	0	2		83.0	2.5	/experiments/knapen_aot/videos/S_ILSVRC2015_train_00599000.mp4	0.0	440.3151569366455	
85	250.37344408035278	movie	1		301.0	83.0	2.5	/experiments/knapen_aot/videos/S_ILSVRC2015_train_00599000.mp4	0.0	440.3233730792999	2.5084269046783447
85	252.88187098503113	fix_post	2		12.0	83.0	2.5	/experiments/knapen_aot/videos/S_ILSVRC2015_train_00599000.mp4	0.0	442.83179998397827	0.0999760627746582
87	252.9818470478058	stim	0		510.0					442.93177604675293	4.249928951263428
87	253.2986660003662	response	0	2						443.24859499931335	
87	257.2247221469879	response	0	space						447.17465114593506	
