trial_nr	onset	event_type	phase	response	nr_frames	movie_index	movie_duration	movie_file	blank	onset_abs	duration
0	0.13625383377075195	stim	0		21.0					188.5968997478485	0.18086695671081543
0	0.3085060119628906	response	0	space						188.76915192604065	
1	0.3171207904815674	stim	0		121.0					188.77776670455933	1.0079572200775146
1	1.2753818035125732	response	0	space						189.73602771759033	
1	1.325078010559082	stim	1		120.0					189.78572392463684	0.9996438026428223
1	2.1415369510650635	response	1	space						190.60218286514282	
2	2.3247218132019043	fix_pre	0		48.0	0.0	2.5	/experiments/knapen_aot/videos/S_yt-Xs-YKSogfak_24.mp4	0.0	190.78536772727966	0.399860143661499
2	2.716439962387085	response	0	space		0.0	2.5	/experiments/knapen_aot/videos/S_yt-Xs-YKSogfak_24.mp4	0.0	191.17708587646484	
2	2.7245819568634033	movie	1		300.0	0.0	2.5	/experiments/knapen_aot/videos/S_yt-Xs-YKSogfak_24.mp4	0.0	191.18522787094116	2.5085129737854004
2	5.233094930648804	fix_post	2		12.0	0.0	2.5	/experiments/knapen_aot/videos/S_yt-Xs-YKSogfak_24.mp4	0.0	193.69374084472656	0.09992003440856934
3	5.333014965057373	fix_pre	0		24.0	1.0	2.5	/experiments/knapen_aot/videos/S_yt-lkpfs_4qAGE_50.mp4	0.0	193.79366087913513	0.19999003410339355
3	5.52596378326416	response	0	2		1.0	2.5	/experiments/knapen_aot/videos/S_yt-lkpfs_4qAGE_50.mp4	0.0	193.98660969734192	
3	5.533004999160767	movie	1		301.0	1.0	2.5	/experiments/knapen_aot/videos/S_yt-lkpfs_4qAGE_50.mp4	0.0	193.99365091323853	2.508269786834717
3	8.041274785995483	fix_post	2		12.0	1.0	2.5	/experiments/knapen_aot/videos/S_yt-lkpfs_4qAGE_50.mp4	0.0	196.50192070007324	0.10007405281066895
4	8.141348838806152	fix_pre	0		35.0	2.0	2.5	/experiments/knapen_aot/videos/R_S_production_ID_5182928.mp4	0.0	196.6019947528839	0.2918269634246826
4	8.424863815307617	response	0	2		2.0	2.5	/experiments/knapen_aot/videos/R_S_production_ID_5182928.mp4	0.0	196.88550972938538	
4	8.433175802230835	movie	1		169.0	2.0	2.5	/experiments/knapen_aot/videos/R_S_production_ID_5182928.mp4	0.0	196.8938217163086	2.50823712348938
4	10.941412925720215	fix_post	2		12.0	2.0	2.5	/experiments/knapen_aot/videos/R_S_production_ID_5182928.mp4	0.0	199.40205883979797	0.09984493255615234
5	11.041257858276367	fix_pre	0		13.0	3.0	2.5	/experiments/knapen_aot/videos/R_S_yt-bH4nJibL4Jo_164.mp4	0.0	199.50190377235413	0.10845208168029785
5	11.141438007354736	response	0	2		3.0	2.5	/experiments/knapen_aot/videos/R_S_yt-bH4nJibL4Jo_164.mp4	0.0	199.6020839214325	
5	11.149709939956665	movie	1		301.0	3.0	2.5	/experiments/knapen_aot/videos/R_S_yt-bH4nJibL4Jo_164.mp4	0.0	199.61035585403442	2.508236885070801
5	13.657946825027466	fix_post	2		12.0	3.0	2.5	/experiments/knapen_aot/videos/R_S_yt-bH4nJibL4Jo_164.mp4	0.0	202.11859273910522	0.09997010231018066
6	13.757916927337646	fix_pre	0		28.0	4.0	2.5	/experiments/knapen_aot/videos/S_Pexels_Videos_2795737.mp4	0.0	202.2185628414154	0.23337507247924805
6	13.983105897903442	response	0	2		4.0	2.5	/experiments/knapen_aot/videos/S_Pexels_Videos_2795737.mp4	0.0	202.4437518119812	
6	13.991291999816895	movie	1		163.0	4.0	2.5	/experiments/knapen_aot/videos/S_Pexels_Videos_2795737.mp4	0.0	202.45193791389465	2.508328914642334
6	16.49962091445923	fix_post	2		12.0	4.0	2.5	/experiments/knapen_aot/videos/S_Pexels_Videos_2795737.mp4	0.0	204.960266828537	0.09991192817687988
7	16.59953284263611	fix_pre	0		13.0	5.0	2.5	/experiments/knapen_aot/videos/S_yt-XUnZ7FbBtvk_162.mp4	0.0	205.06017875671387	0.1083681583404541
7	16.69977593421936	response	0	2		5.0	2.5	/experiments/knapen_aot/videos/S_yt-XUnZ7FbBtvk_162.mp4	0.0	205.16042184829712	
7	16.707901000976562	movie	1		300.0	5.0	2.5	/experiments/knapen_aot/videos/S_yt-XUnZ7FbBtvk_162.mp4	0.0	205.16854691505432	2.5084078311920166
7	19.21630883216858	fix_post	2		12.0	5.0	2.5	/experiments/knapen_aot/videos/S_yt-XUnZ7FbBtvk_162.mp4	0.0	207.67695474624634	0.10001015663146973
8	19.31631898880005	fix_pre	0		22.0	6.0	2.5	/experiments/knapen_aot/videos/R_S_yt-aiwDdJm1ek8_90.mp4	0.0	207.7769649028778	0.18326497077941895
8	19.491389989852905	response	0	4		6.0	2.5	/experiments/knapen_aot/videos/R_S_yt-aiwDdJm1ek8_90.mp4	0.0	207.95203590393066	
8	19.499583959579468	movie	1		301.0	6.0	2.5	/experiments/knapen_aot/videos/R_S_yt-aiwDdJm1ek8_90.mp4	0.0	207.96022987365723	2.508309841156006
8	22.007893800735474	fix_post	2		12.0	6.0	2.5	/experiments/knapen_aot/videos/R_S_yt-aiwDdJm1ek8_90.mp4	0.0	210.46853971481323	0.10013413429260254
9	22.108027935028076	fix_pre	0		20.0	7.0	2.5	blank	1.0	210.56867384910583	0.1666409969329834
9	22.266364812850952	response	0	2		7.0	2.5	blank	1.0	210.7270107269287	
9	22.27466893196106	movie	1		301.0	7.0	2.5	blank	1.0	210.73531484603882	2.5082709789276123
9	24.532957792282104	response	1	2		7.0	2.5	blank	1.0	212.99360370635986	
9	24.782939910888672	fix_post	2		12.0	7.0	2.5	blank	1.0	213.24358582496643	0.0999150276184082
10	24.88285493850708	fix_pre	0		11.0	8.0	2.5	/experiments/knapen_aot/videos/R_S_comp_GL_G002_C002_PSNK_v03_SDR_PS_20180925_SDR_2K_AVC.mp4	0.0	213.34350085258484	0.09330105781555176
10	24.966405868530273	response	0	2		8.0	2.5	/experiments/knapen_aot/videos/R_S_comp_GL_G002_C002_PSNK_v03_SDR_PS_20180925_SDR_2K_AVC.mp4	0.0	213.42705178260803	
10	24.976155996322632	movie	1		173.0	8.0	2.5	/experiments/knapen_aot/videos/R_S_comp_GL_G002_C002_PSNK_v03_SDR_PS_20180925_SDR_2K_AVC.mp4	0.0	213.4368019104004	2.506769895553589
10	27.48292589187622	fix_post	2		12.0	8.0	2.5	/experiments/knapen_aot/videos/R_S_comp_GL_G002_C002_PSNK_v03_SDR_PS_20180925_SDR_2K_AVC.mp4	0.0	215.94357180595398	0.09997701644897461
10	27.566420793533325	response	2	2		8.0	2.5	/experiments/knapen_aot/videos/R_S_comp_GL_G002_C002_PSNK_v03_SDR_PS_20180925_SDR_2K_AVC.mp4	0.0	216.02706670761108	
11	27.582902908325195	fix_pre	0		86.0	9.0	2.5	/experiments/knapen_aot/videos/R_S_yt-O_4DgW-XKvA_35.mp4	0.0	216.04354882240295	0.716609001159668
11	28.291205883026123	response	0	2		9.0	2.5	/experiments/knapen_aot/videos/R_S_yt-O_4DgW-XKvA_35.mp4	0.0	216.75185179710388	
11	28.299511909484863	movie	1		301.0	9.0	2.5	/experiments/knapen_aot/videos/R_S_yt-O_4DgW-XKvA_35.mp4	0.0	216.76015782356262	2.50839900970459
11	30.807910919189453	fix_post	2		12.0	9.0	2.5	/experiments/knapen_aot/videos/R_S_yt-O_4DgW-XKvA_35.mp4	0.0	219.2685568332672	0.09996509552001953
12	30.907876014709473	fix_pre	0		9.0	10.0	2.5	/experiments/knapen_aot/videos/S_yt-452RKqKIeRU_16.mp4	0.0	219.36852192878723	0.07506895065307617
12	30.96714496612549	response	0	2		10.0	2.5	/experiments/knapen_aot/videos/S_yt-452RKqKIeRU_16.mp4	0.0	219.42779088020325	
12	30.98294496536255	movie	1		300.0	10.0	2.5	/experiments/knapen_aot/videos/S_yt-452RKqKIeRU_16.mp4	0.0	219.4435908794403	2.5082719326019287
12	33.49121689796448	fix_post	2		12.0	10.0	2.5	/experiments/knapen_aot/videos/S_yt-452RKqKIeRU_16.mp4	0.0	221.95186281204224	0.09996891021728516
13	33.59118580818176	fix_pre	0		18.0	11.0	2.5	/experiments/knapen_aot/videos/S_pexels-mart-production-7698911_1.mp4	0.0	222.05183172225952	0.14999103546142578
13	33.725525856018066	response	0	2		11.0	2.5	/experiments/knapen_aot/videos/S_pexels-mart-production-7698911_1.mp4	0.0	222.18617177009583	
13	33.74117684364319	movie	1		204.0	11.0	2.5	/experiments/knapen_aot/videos/S_pexels-mart-production-7698911_1.mp4	0.0	222.20182275772095	2.5083539485931396
13	36.24953079223633	fix_post	2		12.0	11.0	2.5	/experiments/knapen_aot/videos/S_pexels-mart-production-7698911_1.mp4	0.0	224.7101767063141	0.10011816024780273
14	36.34964895248413	fix_pre	0		7.0	12.0	2.5	/experiments/knapen_aot/videos/R_S_cST9H3zu3zQ_126.mp4	0.0	224.8102948665619	0.05820488929748535
14	36.39969086647034	response	0	2		12.0	2.5	/experiments/knapen_aot/videos/R_S_cST9H3zu3zQ_126.mp4	0.0	224.8603367805481	
14	36.407853841781616	movie	1		297.0	12.0	2.5	/experiments/knapen_aot/videos/R_S_cST9H3zu3zQ_126.mp4	0.0	224.86849975585938	2.5083351135253906
14	38.91618895530701	fix_post	2		12.0	12.0	2.5	/experiments/knapen_aot/videos/R_S_cST9H3zu3zQ_126.mp4	0.0	227.37683486938477	0.10002994537353516
15	39.01621890068054	fix_pre	0		36.0	13.0	2.5	/experiments/knapen_aot/videos/R_S_bing-www_cnet_com_videos_amazon-wants-to-put-alexa-on-your-pc__50.mp4	0.0	227.4768648147583	0.3000180721282959
15	39.307907819747925	response	0	2		13.0	2.5	/experiments/knapen_aot/videos/R_S_bing-www_cnet_com_videos_amazon-wants-to-put-alexa-on-your-pc__50.mp4	0.0	227.76855373382568	
15	39.31623697280884	movie	1		163.0	13.0	2.5	/experiments/knapen_aot/videos/R_S_bing-www_cnet_com_videos_amazon-wants-to-put-alexa-on-your-pc__50.mp4	0.0	227.7768828868866	2.508255958557129
15	41.82449293136597	fix_post	2		12.0	13.0	2.5	/experiments/knapen_aot/videos/R_S_bing-www_cnet_com_videos_amazon-wants-to-put-alexa-on-your-pc__50.mp4	0.0	230.28513884544373	0.10022687911987305
16	41.92471981048584	fix_pre	0		33.0	14.0	2.5	blank	1.0	230.3853657245636	0.2747981548309326
16	42.18380689620972	response	0	2		14.0	2.5	blank	1.0	230.64445281028748	
16	42.19951796531677	movie	1		301.0	14.0	2.5	blank	1.0	230.66016387939453	2.508312940597534
16	44.70783090591431	fix_post	2		12.0	14.0	2.5	blank	1.0	233.16847681999207	0.10003995895385742
17	44.807870864868164	fix_pre	0		25.0	15.0	2.5	/experiments/knapen_aot/videos/R_S_yt-tX3slAQb9yY_13.mp4	0.0	233.26851677894592	0.20828914642333984
17	45.00787401199341	response	0	2		15.0	2.5	/experiments/knapen_aot/videos/R_S_yt-tX3slAQb9yY_13.mp4	0.0	233.46851992607117	
17	45.016160011291504	movie	1		301.0	15.0	2.5	/experiments/knapen_aot/videos/R_S_yt-tX3slAQb9yY_13.mp4	0.0	233.47680592536926	2.508323907852173
17	47.49957489967346	response	1	2		15.0	2.5	/experiments/knapen_aot/videos/R_S_yt-tX3slAQb9yY_13.mp4	0.0	235.96022081375122	
17	47.52448391914368	fix_post	2		12.0	15.0	2.5	/experiments/knapen_aot/videos/R_S_yt-tX3slAQb9yY_13.mp4	0.0	235.98512983322144	0.09990286827087402
18	47.62438678741455	fix_pre	0		43.0	16.0	2.5	/experiments/knapen_aot/videos/S_yt-t8NfuFA7OlM_26.mp4	0.0	236.0850327014923	0.3583700656890869
18	47.9745819568634	response	0	2		16.0	2.5	/experiments/knapen_aot/videos/S_yt-t8NfuFA7OlM_26.mp4	0.0	236.43522787094116	
18	47.98275685310364	movie	1		301.0	16.0	2.5	/experiments/knapen_aot/videos/S_yt-t8NfuFA7OlM_26.mp4	0.0	236.4434027671814	2.508388042449951
18	50.49114489555359	fix_post	2		12.0	16.0	2.5	/experiments/knapen_aot/videos/S_yt-t8NfuFA7OlM_26.mp4	0.0	238.95179080963135	0.0999760627746582
19	50.59112095832825	fix_pre	0		20.0	17.0	2.5	/experiments/knapen_aot/videos/R_S_yt-rlVzHENWufE_61.mp4	0.0	239.051766872406	0.16670799255371094
19	50.74207282066345	response	0	2		17.0	2.5	/experiments/knapen_aot/videos/R_S_yt-rlVzHENWufE_61.mp4	0.0	239.2027187347412	
19	50.75782895088196	movie	1		301.0	17.0	2.5	/experiments/knapen_aot/videos/R_S_yt-rlVzHENWufE_61.mp4	0.0	239.21847486495972	2.50833797454834
19	53.2661669254303	fix_post	2		12.0	17.0	2.5	/experiments/knapen_aot/videos/R_S_yt-rlVzHENWufE_61.mp4	0.0	241.72681283950806	0.1000220775604248
20	53.36618900299072	fix_pre	0		13.0	18.0	2.5	/experiments/knapen_aot/videos/R_S_yt-ROhKDdF1gV4_21.mp4	0.0	241.82683491706848	0.10958385467529297
20	53.46634888648987	response	0	2		18.0	2.5	/experiments/knapen_aot/videos/R_S_yt-ROhKDdF1gV4_21.mp4	0.0	241.92699480056763	
20	53.475772857666016	movie	1		301.0	18.0	2.5	/experiments/knapen_aot/videos/R_S_yt-ROhKDdF1gV4_21.mp4	0.0	241.93641877174377	2.5070641040802
20	55.982836961746216	fix_post	2		12.0	18.0	2.5	/experiments/knapen_aot/videos/R_S_yt-ROhKDdF1gV4_21.mp4	0.0	244.44348287582397	0.09998488426208496
21	56.0828218460083	fix_pre	0		34.0	19.0	2.5	/experiments/knapen_aot/videos/R_S_ILSVRC2015_train_00595000.mp4	0.0	244.54346776008606	0.283203125
21	56.35794281959534	response	0	2		19.0	2.5	/experiments/knapen_aot/videos/R_S_ILSVRC2015_train_00595000.mp4	0.0	244.8185887336731	
21	56.3660249710083	movie	1		301.0	19.0	2.5	/experiments/knapen_aot/videos/R_S_ILSVRC2015_train_00595000.mp4	0.0	244.82667088508606	2.508358955383301
21	58.8743839263916	fix_post	2		12.0	19.0	2.5	/experiments/knapen_aot/videos/R_S_ILSVRC2015_train_00595000.mp4	0.0	247.33502984046936	0.10009288787841797
22	58.97447681427002	fix_pre	0		13.0	20.0	2.5	/experiments/knapen_aot/videos/S_video_inspire_california_big-sur_2020_00001.1080-h264.mp4	0.0	247.43512272834778	0.10831618309020996
22	59.074421882629395	response	0	2		20.0	2.5	/experiments/knapen_aot/videos/S_video_inspire_california_big-sur_2020_00001.1080-h264.mp4	0.0	247.53506779670715	
22	59.08279299736023	movie	1		167.0	20.0	2.5	/experiments/knapen_aot/videos/S_video_inspire_california_big-sur_2020_00001.1080-h264.mp4	0.0	247.543438911438	2.5082948207855225
22	61.59108781814575	fix_post	2		12.0	20.0	2.5	/experiments/knapen_aot/videos/S_video_inspire_california_big-sur_2020_00001.1080-h264.mp4	0.0	250.0517337322235	0.10002303123474121
23	61.69111084938049	fix_pre	0		31.0	21.0	2.5	blank	1.0	250.15175676345825	0.25840306282043457
23	61.93365693092346	response	0	2		21.0	2.5	blank	1.0	250.39430284500122	
23	61.94951391220093	movie	1		301.0	21.0	2.5	blank	1.0	250.4101598262787	2.508213996887207
23	64.45772790908813	fix_post	2		12.0	21.0	2.5	blank	1.0	252.9183738231659	0.09997391700744629
24	64.55770182609558	fix_pre	0		22.0	22.0	2.5	/experiments/knapen_aot/videos/S_yt-AHbFln6blfE_36.mp4	0.0	253.01834774017334	0.1833820343017578
24	64.73292398452759	response	0	2		22.0	2.5	/experiments/knapen_aot/videos/S_yt-AHbFln6blfE_36.mp4	0.0	253.19356989860535	
24	64.74108386039734	movie	1		301.0	22.0	2.5	/experiments/knapen_aot/videos/S_yt-AHbFln6blfE_36.mp4	0.0	253.2017297744751	2.508255958557129
24	67.24933981895447	fix_post	2		12.0	22.0	2.5	/experiments/knapen_aot/videos/S_yt-AHbFln6blfE_36.mp4	0.0	255.70998573303223	0.10001397132873535
25	67.3493537902832	fix_pre	0		21.0	23.0	2.5	/experiments/knapen_aot/videos/R_S_production_ID_5139371.mp4	0.0	255.80999970436096	0.1749420166015625
25	67.51618981361389	response	0	2		23.0	2.5	/experiments/knapen_aot/videos/R_S_production_ID_5139371.mp4	0.0	255.97683572769165	
25	67.52429580688477	movie	1		161.0	23.0	2.5	/experiments/knapen_aot/videos/R_S_production_ID_5139371.mp4	0.0	255.98494172096252	2.5084621906280518
25	70.03275799751282	fix_post	2		12.0	23.0	2.5	/experiments/knapen_aot/videos/R_S_production_ID_5139371.mp4	0.0	258.4934039115906	0.09999489784240723
26	70.13275289535522	fix_pre	0		8.0	24.0	2.5	/experiments/knapen_aot/videos/S_yt-7Z6Kmp0n7L8_145.mp4	0.0	258.593398809433	0.06658411026000977
26	70.19120192527771	response	0	2		24.0	2.5	/experiments/knapen_aot/videos/S_yt-7Z6Kmp0n7L8_145.mp4	0.0	258.65184783935547	
26	70.19933700561523	movie	1		301.0	24.0	2.5	/experiments/knapen_aot/videos/S_yt-7Z6Kmp0n7L8_145.mp4	0.0	258.659982919693	2.5084328651428223
26	72.70776987075806	fix_post	2		12.0	24.0	2.5	/experiments/knapen_aot/videos/S_yt-7Z6Kmp0n7L8_145.mp4	0.0	261.1684157848358	0.0999610424041748
27	72.80773091316223	fix_pre	0		15.0	25.0	2.5	/experiments/knapen_aot/videos/R_S_G007_C004_UHD_SDR_2K_AVC.mp4	0.0	261.26837682724	0.12611007690429688
27	72.92445087432861	response	0	2		25.0	2.5	/experiments/knapen_aot/videos/R_S_G007_C004_UHD_SDR_2K_AVC.mp4	0.0	261.3850967884064	
27	72.93384099006653	movie	1		167.0	25.0	2.5	/experiments/knapen_aot/videos/R_S_G007_C004_UHD_SDR_2K_AVC.mp4	0.0	261.3944869041443	2.507143974304199
27	75.44098496437073	fix_post	2		12.0	25.0	2.5	/experiments/knapen_aot/videos/R_S_G007_C004_UHD_SDR_2K_AVC.mp4	0.0	263.9016308784485	0.1000518798828125
27	75.51617193222046	response	2	2		25.0	2.5	/experiments/knapen_aot/videos/R_S_G007_C004_UHD_SDR_2K_AVC.mp4	0.0	263.9768178462982	
28	75.54103684425354	fix_pre	0		168.0	26.0	2.5	/experiments/knapen_aot/videos/S_yt--DXkjCUzThU_413.mp4	0.0	264.0016827583313	1.4082739353179932
28	76.94112396240234	response	0	2		26.0	2.5	/experiments/knapen_aot/videos/S_yt--DXkjCUzThU_413.mp4	0.0	265.4017698764801	
28	76.94931077957153	movie	1		301.0	26.0	2.5	/experiments/knapen_aot/videos/S_yt--DXkjCUzThU_413.mp4	0.0	265.4099566936493	2.508413076400757
28	79.45772385597229	fix_post	2		12.0	26.0	2.5	/experiments/knapen_aot/videos/S_yt--DXkjCUzThU_413.mp4	0.0	267.91836977005005	0.09997105598449707
29	79.55769491195679	fix_pre	0		113.0	27.0	2.5	/experiments/knapen_aot/videos/S_pexels-mart-production-7698911_1.mp4	0.0	268.01834082603455	0.941580057144165
29	80.48363995552063	response	0	2		27.0	2.5	/experiments/knapen_aot/videos/S_pexels-mart-production-7698911_1.mp4	0.0	268.9442858695984	
29	80.49927496910095	movie	1		185.0	27.0	2.5	/experiments/knapen_aot/videos/S_pexels-mart-production-7698911_1.mp4	0.0	268.9599208831787	2.508375883102417
29	83.00765085220337	fix_post	2		12.0	27.0	2.5	/experiments/knapen_aot/videos/S_pexels-mart-production-7698911_1.mp4	0.0	271.4682967662811	0.09999704360961914
30	83.10764789581299	fix_pre	0		13.0	28.0	2.5	blank	1.0	271.56829380989075	0.10834598541259766
30	83.20788478851318	response	0	2		28.0	2.5	blank	1.0	271.66853070259094	
30	83.21599388122559	movie	1		301.0	28.0	2.5	blank	1.0	271.67663979530334	2.508265972137451
30	85.72425985336304	fix_post	2		12.0	28.0	2.5	blank	1.0	274.1849057674408	0.10007095336914062
31	85.82433080673218	fix_pre	0		18.0	29.0	2.5	/experiments/knapen_aot/videos/S_yt-2IN85w8ptmM_51.mp4	0.0	274.28497672080994	0.15105509757995605
31	85.96611499786377	response	0	2		29.0	2.5	/experiments/knapen_aot/videos/S_yt-2IN85w8ptmM_51.mp4	0.0	274.4267609119415	
31	85.97538590431213	movie	1		301.0	29.0	2.5	/experiments/knapen_aot/videos/S_yt-2IN85w8ptmM_51.mp4	0.0	274.4360318183899	2.50722599029541
31	88.48261189460754	fix_post	2		12.0	29.0	2.5	/experiments/knapen_aot/videos/S_yt-2IN85w8ptmM_51.mp4	0.0	276.9432578086853	0.09996795654296875
32	88.58257985115051	fix_pre	0		27.0	30.0	2.5	/experiments/knapen_aot/videos/S_pexels-nkem-6237382.mp4	0.0	277.04322576522827	0.22613811492919922
32	88.79953384399414	response	0	2		30.0	2.5	/experiments/knapen_aot/videos/S_pexels-nkem-6237382.mp4	0.0	277.2601797580719	
32	88.80871796607971	movie	1		163.0	30.0	2.5	/experiments/knapen_aot/videos/S_pexels-nkem-6237382.mp4	0.0	277.26936388015747	2.5072078704833984
32	91.31592583656311	fix_post	2		12.0	30.0	2.5	/experiments/knapen_aot/videos/S_pexels-nkem-6237382.mp4	0.0	279.77657175064087	0.09998512268066406
33	91.41591095924377	fix_pre	0		5.0	31.0	2.5	/experiments/knapen_aot/videos/S_yt-s2tZ2NIQrxg_175.mp4	0.0	279.87655687332153	0.041745901107788086
33	91.44940900802612	response	0	2		31.0	2.5	/experiments/knapen_aot/videos/S_yt-s2tZ2NIQrxg_175.mp4	0.0	279.9100549221039	
33	91.45765686035156	movie	1		301.0	31.0	2.5	/experiments/knapen_aot/videos/S_yt-s2tZ2NIQrxg_175.mp4	0.0	279.9183027744293	2.508310079574585
33	93.96596693992615	fix_post	2		12.0	31.0	2.5	/experiments/knapen_aot/videos/S_yt-s2tZ2NIQrxg_175.mp4	0.0	282.4266128540039	0.10001397132873535
34	94.06598091125488	fix_pre	0		14.0	32.0	2.5	/experiments/knapen_aot/videos/R_S_yt-XUnZ7FbBtvk_162.mp4	0.0	282.52662682533264	0.1177060604095459
34	94.17428398132324	response	0	2		32.0	2.5	/experiments/knapen_aot/videos/R_S_yt-XUnZ7FbBtvk_162.mp4	0.0	282.634929895401	
34	94.18368697166443	movie	1		301.0	32.0	2.5	/experiments/knapen_aot/videos/R_S_yt-XUnZ7FbBtvk_162.mp4	0.0	282.6443328857422	2.507262945175171
34	96.6909499168396	fix_post	2		12.0	32.0	2.5	/experiments/knapen_aot/videos/R_S_yt-XUnZ7FbBtvk_162.mp4	0.0	285.15159583091736	0.09998798370361328
35	96.79093790054321	fix_pre	0		11.0	33.0	2.5	blank	1.0	285.251583814621	0.09163093566894531
35	96.87443399429321	response	0	2		33.0	2.5	blank	1.0	285.335079908371	
35	96.88256883621216	movie	1		301.0	33.0	2.5	blank	1.0	285.3432147502899	2.508355140686035
35	99.3909239768982	fix_post	2		12.0	33.0	2.5	blank	1.0	287.85156989097595	0.09998583793640137
36	99.4909098148346	fix_pre	0		27.0	34.0	2.5	/experiments/knapen_aot/videos/R_S_cST9H3zu3zQ_126.mp4	0.0	287.95155572891235	0.2249891757965088
36	99.70762991905212	response	0	2		34.0	2.5	/experiments/knapen_aot/videos/R_S_cST9H3zu3zQ_126.mp4	0.0	288.1682758331299	
36	99.7158989906311	movie	1		301.0	34.0	2.5	/experiments/knapen_aot/videos/R_S_cST9H3zu3zQ_126.mp4	0.0	288.17654490470886	2.5083189010620117
36	102.22421789169312	fix_post	2		12.0	34.0	2.5	/experiments/knapen_aot/videos/R_S_cST9H3zu3zQ_126.mp4	0.0	290.6848638057709	0.09997296333312988
36	102.27429485321045	response	2	2		34.0	2.5	/experiments/knapen_aot/videos/R_S_cST9H3zu3zQ_126.mp4	0.0	290.7349407672882	
37	102.32419085502625	fix_pre	0		70.0	35.0	2.5	/experiments/knapen_aot/videos/S_yt-hvuC_2YXsTQ_73.mp4	0.0	290.784836769104	0.5833611488342285
37	102.89937090873718	response	0	2		35.0	2.5	/experiments/knapen_aot/videos/S_yt-hvuC_2YXsTQ_73.mp4	0.0	291.36001682281494	
37	102.90755200386047	movie	1		301.0	35.0	2.5	/experiments/knapen_aot/videos/S_yt-hvuC_2YXsTQ_73.mp4	0.0	291.36819791793823	2.5083069801330566
37	105.41585898399353	fix_post	2		12.0	35.0	2.5	/experiments/knapen_aot/videos/S_yt-hvuC_2YXsTQ_73.mp4	0.0	293.8765048980713	0.10001683235168457
38	105.51587581634521	fix_pre	0		160.0	36.0	2.5	/experiments/knapen_aot/videos/S_yt-a9bnYU0Gnxg_59.mp4	0.0	293.976521730423	1.3343510627746582
38	106.8410530090332	response	0	2		36.0	2.5	/experiments/knapen_aot/videos/S_yt-a9bnYU0Gnxg_59.mp4	0.0	295.30169892311096	
38	106.85022687911987	movie	1		301.0	36.0	2.5	/experiments/knapen_aot/videos/S_yt-a9bnYU0Gnxg_59.mp4	0.0	295.31087279319763	2.5072429180145264
38	109.3574697971344	fix_post	2		12.0	36.0	2.5	/experiments/knapen_aot/videos/S_yt-a9bnYU0Gnxg_59.mp4	0.0	297.81811571121216	0.10006904602050781
39	109.45753884315491	fix_pre	0		28.0	37.0	2.5	/experiments/knapen_aot/videos/S_yt-XtzmBXKYEWk_60.mp4	0.0	297.91818475723267	0.23331499099731445
39	109.68284177780151	response	0	2		37.0	2.5	/experiments/knapen_aot/videos/S_yt-XtzmBXKYEWk_60.mp4	0.0	298.1434876918793	
39	109.69085383415222	movie	1		301.0	37.0	2.5	/experiments/knapen_aot/videos/S_yt-XtzmBXKYEWk_60.mp4	0.0	298.15149974823	2.508345127105713
39	112.19919896125793	fix_post	2		12.0	37.0	2.5	/experiments/knapen_aot/videos/S_yt-XtzmBXKYEWk_60.mp4	0.0	300.6598448753357	0.10004687309265137
40	112.29924583435059	fix_pre	0		17.0	38.0	2.5	/experiments/knapen_aot/videos/R_S_Pexels_Videos_2376809.mp4	0.0	300.75989174842834	0.14157414436340332
40	112.43263077735901	response	0	2		38.0	2.5	/experiments/knapen_aot/videos/R_S_Pexels_Videos_2376809.mp4	0.0	300.89327669143677	
40	112.44081997871399	movie	1		164.0	38.0	2.5	/experiments/knapen_aot/videos/R_S_Pexels_Videos_2376809.mp4	0.0	300.90146589279175	2.5084118843078613
40	114.94923186302185	fix_post	2		12.0	38.0	2.5	/experiments/knapen_aot/videos/R_S_Pexels_Videos_2376809.mp4	0.0	303.4098777770996	0.10002398490905762
41	115.04925584793091	fix_pre	0		37.0	39.0	2.5	/experiments/knapen_aot/videos/S_yt-c-H45QS0CF4_147.mp4	0.0	303.50990176200867	0.30826306343078613
41	115.34185290336609	response	0	2		39.0	2.5	/experiments/knapen_aot/videos/S_yt-c-H45QS0CF4_147.mp4	0.0	303.80249881744385	
41	115.3575189113617	movie	1		301.0	39.0	2.5	/experiments/knapen_aot/videos/S_yt-c-H45QS0CF4_147.mp4	0.0	303.81816482543945	2.50838303565979
41	117.86590194702148	fix_post	2		12.0	39.0	2.5	/experiments/knapen_aot/videos/S_yt-c-H45QS0CF4_147.mp4	0.0	306.32654786109924	0.09997892379760742
42	117.96588087081909	fix_pre	0		60.0	40.0	2.5	/experiments/knapen_aot/videos/R_S_ILSVRC2015_train_00594000.mp4	0.0	306.42652678489685	0.499985933303833
42	118.45770978927612	response	0	2		40.0	2.5	/experiments/knapen_aot/videos/R_S_ILSVRC2015_train_00594000.mp4	0.0	306.9183557033539	
42	118.46586680412292	movie	1		301.0	40.0	2.5	/experiments/knapen_aot/videos/R_S_ILSVRC2015_train_00594000.mp4	0.0	306.9265127182007	2.508230209350586
42	120.97409701347351	fix_post	2		12.0	40.0	2.5	/experiments/knapen_aot/videos/R_S_ILSVRC2015_train_00594000.mp4	0.0	309.43474292755127	0.1000509262084961
43	121.074147939682	fix_pre	0		36.0	41.0	2.5	/experiments/knapen_aot/videos/R_S_yt-EuyfT0PuOoQ_91.mp4	0.0	309.53479385375977	0.3000059127807617
43	121.36598777770996	response	0	2		41.0	2.5	/experiments/knapen_aot/videos/R_S_yt-EuyfT0PuOoQ_91.mp4	0.0	309.8266336917877	
43	121.37415385246277	movie	1		301.0	41.0	2.5	/experiments/knapen_aot/videos/R_S_yt-EuyfT0PuOoQ_91.mp4	0.0	309.8347997665405	2.5083260536193848
43	123.88247990608215	fix_post	2		12.0	41.0	2.5	/experiments/knapen_aot/videos/R_S_yt-EuyfT0PuOoQ_91.mp4	0.0	312.3431258201599	0.09995388984680176
44	123.98243379592896	fix_pre	0		24.0	42.0	2.5	blank	1.0	312.4430797100067	0.20095515251159668
44	124.1742639541626	response	0	2		42.0	2.5	blank	1.0	312.63490986824036	
44	124.18338894844055	movie	1		301.0	42.0	2.5	blank	1.0	312.6440348625183	2.507436990737915
44	126.69082593917847	fix_post	2		12.0	42.0	2.5	blank	1.0	315.1514718532562	0.10002589225769043
45	126.79085183143616	fix_pre	0		63.0	43.0	2.5	/experiments/knapen_aot/videos/S_yt-FsylDeYfcxU_24.mp4	0.0	315.2514977455139	0.5249509811401367
45	127.3076388835907	response	0	2		43.0	2.5	/experiments/knapen_aot/videos/S_yt-FsylDeYfcxU_24.mp4	0.0	315.76828479766846	
45	127.3158028125763	movie	1		301.0	43.0	2.5	/experiments/knapen_aot/videos/S_yt-FsylDeYfcxU_24.mp4	0.0	315.77644872665405	2.508294105529785
45	129.82409691810608	fix_post	2		12.0	43.0	2.5	/experiments/knapen_aot/videos/S_yt-FsylDeYfcxU_24.mp4	0.0	318.28474283218384	0.10001301765441895
46	129.9241099357605	fix_pre	0		10.0	44.0	2.5	/experiments/knapen_aot/videos/R_S_bing-www_cnet_com_videos_amazon-wants-to-put-alexa-on-your-pc__50.mp4	0.0	318.38475584983826	0.0833120346069336
46	129.9917118549347	response	0	2		44.0	2.5	/experiments/knapen_aot/videos/R_S_bing-www_cnet_com_videos_amazon-wants-to-put-alexa-on-your-pc__50.mp4	0.0	318.45235776901245	
46	130.00742197036743	movie	1		163.0	44.0	2.5	/experiments/knapen_aot/videos/R_S_bing-www_cnet_com_videos_amazon-wants-to-put-alexa-on-your-pc__50.mp4	0.0	318.4680678844452	2.5083258152008057
46	132.51574778556824	fix_post	2		12.0	44.0	2.5	/experiments/knapen_aot/videos/R_S_bing-www_cnet_com_videos_amazon-wants-to-put-alexa-on-your-pc__50.mp4	0.0	320.976393699646	0.10003018379211426
47	132.61577796936035	fix_pre	0		44.0	45.0	2.5	/experiments/knapen_aot/videos/R_S_yt-ROhKDdF1gV4_21.mp4	0.0	321.0764238834381	0.36675095558166504
47	132.97423601150513	response	0	2		45.0	2.5	/experiments/knapen_aot/videos/R_S_yt-ROhKDdF1gV4_21.mp4	0.0	321.4348819255829	
47	132.98252892494202	movie	1		301.0	45.0	2.5	/experiments/knapen_aot/videos/R_S_yt-ROhKDdF1gV4_21.mp4	0.0	321.4431748390198	2.508233070373535
47	135.49076199531555	fix_post	2		12.0	45.0	2.5	/experiments/knapen_aot/videos/R_S_yt-ROhKDdF1gV4_21.mp4	0.0	323.9514079093933	0.09998178482055664
48	135.5907437801361	fix_pre	0		20.0	46.0	2.5	/experiments/knapen_aot/videos/R_S_yt-RVoC19C420Y_27.mp4	0.0	324.05138969421387	0.16665410995483398
48	135.74923586845398	response	0	2		46.0	2.5	/experiments/knapen_aot/videos/R_S_yt-RVoC19C420Y_27.mp4	0.0	324.20988178253174	
48	135.75739789009094	movie	1		301.0	46.0	2.5	/experiments/knapen_aot/videos/R_S_yt-RVoC19C420Y_27.mp4	0.0	324.2180438041687	2.508315086364746
48	138.2657129764557	fix_post	2		12.0	46.0	2.5	/experiments/knapen_aot/videos/R_S_yt-RVoC19C420Y_27.mp4	0.0	326.72635889053345	0.1000218391418457
49	138.36573481559753	fix_pre	0		24.0	47.0	2.5	blank	1.0	326.8263807296753	0.20000219345092773
49	138.55758500099182	response	0	2		47.0	2.5	blank	1.0	327.0182309150696	
49	138.56573700904846	movie	1		301.0	47.0	2.5	blank	1.0	327.0263829231262	2.50836181640625
49	141.0740988254547	fix_post	2		12.0	47.0	2.5	blank	1.0	329.53474473953247	0.09998798370361328
50	141.17408680915833	fix_pre	0		9.0	48.0	2.5	/experiments/knapen_aot/videos/S_comp_GL_G004_C010_PSNK_v04_SDR_PS_FINAL_20180709_SDR_2K_AVC.mp4	0.0	329.6347327232361	0.07498908042907715
50	141.24087190628052	response	0	2		48.0	2.5	/experiments/knapen_aot/videos/S_comp_GL_G004_C010_PSNK_v04_SDR_PS_FINAL_20180709_SDR_2K_AVC.mp4	0.0	329.7015178203583	
50	141.2490758895874	movie	1		165.0	48.0	2.5	/experiments/knapen_aot/videos/S_comp_GL_G004_C010_PSNK_v04_SDR_PS_FINAL_20180709_SDR_2K_AVC.mp4	0.0	329.70972180366516	2.5083320140838623
50	143.75740790367126	fix_post	2		12.0	48.0	2.5	/experiments/knapen_aot/videos/S_comp_GL_G004_C010_PSNK_v04_SDR_PS_FINAL_20180709_SDR_2K_AVC.mp4	0.0	332.218053817749	0.09997010231018066
51	143.85737800598145	fix_pre	0		30.0	49.0	2.5	/experiments/knapen_aot/videos/R_S_production_ID_4325513.mp4	0.0	332.3180239200592	0.24999380111694336
51	144.09921598434448	response	0	2		49.0	2.5	/experiments/knapen_aot/videos/R_S_production_ID_4325513.mp4	0.0	332.55986189842224	
51	144.1073718070984	movie	1		200.0	49.0	2.5	/experiments/knapen_aot/videos/R_S_production_ID_4325513.mp4	0.0	332.56801772117615	2.5084450244903564
51	146.61581683158875	fix_post	2		12.0	49.0	2.5	/experiments/knapen_aot/videos/R_S_production_ID_4325513.mp4	0.0	335.0764627456665	0.0999290943145752
52	146.71574592590332	fix_pre	0		50.0	50.0	2.5	/experiments/knapen_aot/videos/S_yt-HoRtvVuuvOs_5.mp4	0.0	335.1763918399811	0.4166300296783447
52	147.12414288520813	response	0	2		50.0	2.5	/experiments/knapen_aot/videos/S_yt-HoRtvVuuvOs_5.mp4	0.0	335.5847887992859	
52	147.13237595558167	movie	1		301.0	50.0	2.5	/experiments/knapen_aot/videos/S_yt-HoRtvVuuvOs_5.mp4	0.0	335.5930218696594	2.508319854736328
52	149.640695810318	fix_post	2		12.0	50.0	2.5	/experiments/knapen_aot/videos/S_yt-HoRtvVuuvOs_5.mp4	0.0	338.10134172439575	0.1000370979309082
53	149.7407329082489	fix_pre	0		27.0	51.0	2.5	/experiments/knapen_aot/videos/R_S_pexels-cottonbro-10640532.mp4	0.0	338.20137882232666	0.22496604919433594
53	149.9499228000641	response	0	2		51.0	2.5	/experiments/knapen_aot/videos/R_S_pexels-cottonbro-10640532.mp4	0.0	338.41056871414185	
53	149.96569895744324	movie	1		183.0	51.0	2.5	/experiments/knapen_aot/videos/R_S_pexels-cottonbro-10640532.mp4	0.0	338.426344871521	2.5082828998565674
53	152.4739818572998	fix_post	2		12.0	51.0	2.5	/experiments/knapen_aot/videos/R_S_pexels-cottonbro-10640532.mp4	0.0	340.93462777137756	0.10004711151123047
54	152.57402896881104	fix_pre	0		29.0	52.0	2.5	/experiments/knapen_aot/videos/S_yt-5MyvZYFlc9g_125.mp4	0.0	341.0346748828888	0.2416369915008545
54	152.80747079849243	response	0	2		52.0	2.5	/experiments/knapen_aot/videos/S_yt-5MyvZYFlc9g_125.mp4	0.0	341.2681167125702	
54	152.8156659603119	movie	1		301.0	52.0	2.5	/experiments/knapen_aot/videos/S_yt-5MyvZYFlc9g_125.mp4	0.0	341.27631187438965	2.5083439350128174
54	155.3240098953247	fix_post	2		12.0	52.0	2.5	/experiments/knapen_aot/videos/S_yt-5MyvZYFlc9g_125.mp4	0.0	343.78465580940247	0.09995794296264648
55	155.42396783828735	fix_pre	0		24.0	53.0	2.5	/experiments/knapen_aot/videos/S_yt-Jo6PxivsTOg_247.mp4	0.0	343.8846137523651	0.2000119686126709
55	155.6158139705658	response	0	2		53.0	2.5	/experiments/knapen_aot/videos/S_yt-Jo6PxivsTOg_247.mp4	0.0	344.07645988464355	
55	155.62397980690002	movie	1		301.0	53.0	2.5	/experiments/knapen_aot/videos/S_yt-Jo6PxivsTOg_247.mp4	0.0	344.0846257209778	2.508333206176758
55	158.13231301307678	fix_post	2		12.0	53.0	2.5	/experiments/knapen_aot/videos/S_yt-Jo6PxivsTOg_247.mp4	0.0	346.59295892715454	0.09998178482055664
56	158.23229479789734	fix_pre	0		18.0	54.0	2.5	/experiments/knapen_aot/videos/R_S_yt-rlVzHENWufE_61.mp4	0.0	346.6929407119751	0.15002202987670898
56	158.37410283088684	response	0	2		54.0	2.5	/experiments/knapen_aot/videos/R_S_yt-rlVzHENWufE_61.mp4	0.0	346.8347487449646	
56	158.38231682777405	movie	1		301.0	54.0	2.5	/experiments/knapen_aot/videos/R_S_yt-rlVzHENWufE_61.mp4	0.0	346.8429627418518	2.5083491802215576
56	160.8906660079956	fix_post	2		12.0	54.0	2.5	/experiments/knapen_aot/videos/R_S_yt-rlVzHENWufE_61.mp4	0.0	349.35131192207336	0.10002493858337402
57	160.99069094657898	fix_pre	0		19.0	55.0	2.5	/experiments/knapen_aot/videos/S_yt-7Z6Kmp0n7L8_145.mp4	0.0	349.45133686065674	0.15822100639343262
57	161.14081001281738	response	0	2		55.0	2.5	/experiments/knapen_aot/videos/S_yt-7Z6Kmp0n7L8_145.mp4	0.0	349.60145592689514	
57	161.1489119529724	movie	1		301.0	55.0	2.5	/experiments/knapen_aot/videos/S_yt-7Z6Kmp0n7L8_145.mp4	0.0	349.60955786705017	2.5083398818969727
57	163.65725183486938	fix_post	2		12.0	55.0	2.5	/experiments/knapen_aot/videos/S_yt-7Z6Kmp0n7L8_145.mp4	0.0	352.11789774894714	0.09999895095825195
58	163.75725078582764	fix_pre	0		15.0	56.0	2.5	blank	1.0	352.2178966999054	0.12500905990600586
58	163.87398195266724	response	0	2		56.0	2.5	blank	1.0	352.334627866745	
58	163.88225984573364	movie	1		301.0	56.0	2.5	blank	1.0	352.3429057598114	2.508397102355957
58	166.3906569480896	fix_post	2		12.0	56.0	2.5	blank	1.0	354.85130286216736	0.10001087188720703
59	166.4906678199768	fix_pre	0		22.0	57.0	2.5	/experiments/knapen_aot/videos/R_S_yt-hRAqAwRhmwE_58.mp4	0.0	354.95131373405457	0.18323707580566406
59	166.66571879386902	response	0	2		57.0	2.5	/experiments/knapen_aot/videos/R_S_yt-hRAqAwRhmwE_58.mp4	0.0	355.1263647079468	
59	166.67390489578247	movie	1		300.0	57.0	2.5	/experiments/knapen_aot/videos/R_S_yt-hRAqAwRhmwE_58.mp4	0.0	355.13455080986023	2.508430004119873
59	169.18233489990234	fix_post	2		12.0	57.0	2.5	/experiments/knapen_aot/videos/R_S_yt-hRAqAwRhmwE_58.mp4	0.0	357.6429808139801	0.09999608993530273
60	169.28233098983765	fix_pre	0		10.0	58.0	2.5	/experiments/knapen_aot/videos/S_comp_GMT306_139NC_139J_3066_CALI_TO_VEGAS_v08_SDR_PS_20180824_SDR_2K_AVC.mp4	0.0	357.7429769039154	0.08331990242004395
60	169.3574378490448	response	0	2		58.0	2.5	/experiments/knapen_aot/videos/S_comp_GMT306_139NC_139J_3066_CALI_TO_VEGAS_v08_SDR_PS_20180824_SDR_2K_AVC.mp4	0.0	357.81808376312256	
60	169.3656508922577	movie	1		164.0	58.0	2.5	/experiments/knapen_aot/videos/S_comp_GMT306_139NC_139J_3066_CALI_TO_VEGAS_v08_SDR_PS_20180824_SDR_2K_AVC.mp4	0.0	357.82629680633545	2.5083088874816895
60	171.87395977973938	fix_post	2		12.0	58.0	2.5	/experiments/knapen_aot/videos/S_comp_GMT306_139NC_139J_3066_CALI_TO_VEGAS_v08_SDR_PS_20180824_SDR_2K_AVC.mp4	0.0	360.33460569381714	0.09993600845336914
61	171.97389578819275	fix_pre	0		18.0	59.0	2.5	/experiments/knapen_aot/videos/S_yt-z16pdVTZK1o_3.mp4	0.0	360.4345417022705	0.14999818801879883
61	172.11575388908386	response	0	2		59.0	2.5	/experiments/knapen_aot/videos/S_yt-z16pdVTZK1o_3.mp4	0.0	360.5763998031616	
61	172.12389397621155	movie	1		301.0	59.0	2.5	/experiments/knapen_aot/videos/S_yt-z16pdVTZK1o_3.mp4	0.0	360.5845398902893	2.5083348751068115
61	174.63222885131836	fix_post	2		12.0	59.0	2.5	/experiments/knapen_aot/videos/S_yt-z16pdVTZK1o_3.mp4	0.0	363.0928747653961	0.10006594657897949
62	174.73229479789734	fix_pre	0		19.0	60.0	2.5	/experiments/knapen_aot/videos/S_yt-tX3slAQb9yY_13.mp4	0.0	363.1929407119751	0.15893101692199707
62	174.88250589370728	response	0	2		60.0	2.5	/experiments/knapen_aot/videos/S_yt-tX3slAQb9yY_13.mp4	0.0	363.34315180778503	
62	174.89122581481934	movie	1		301.0	60.0	2.5	/experiments/knapen_aot/videos/S_yt-tX3slAQb9yY_13.mp4	0.0	363.3518717288971	2.5076680183410645
62	177.3988938331604	fix_post	2		12.0	60.0	2.5	/experiments/knapen_aot/videos/S_yt-tX3slAQb9yY_13.mp4	0.0	365.85953974723816	0.10000205039978027
63	177.49889588356018	fix_pre	0		11.0	61.0	2.5	/experiments/knapen_aot/videos/S_RS_A008_C010_SDR_20191218_SDR_2K_AVC.mp4	0.0	365.95954179763794	0.09162592887878418
63	177.58237099647522	response	0	2		61.0	2.5	/experiments/knapen_aot/videos/S_RS_A008_C010_SDR_20191218_SDR_2K_AVC.mp4	0.0	366.043016910553	
63	177.59052181243896	movie	1		172.0	61.0	2.5	/experiments/knapen_aot/videos/S_RS_A008_C010_SDR_20191218_SDR_2K_AVC.mp4	0.0	366.0511677265167	2.5083730220794678
63	180.09889483451843	fix_post	2		12.0	61.0	2.5	/experiments/knapen_aot/videos/S_RS_A008_C010_SDR_20191218_SDR_2K_AVC.mp4	0.0	368.5595407485962	0.09996294975280762
64	180.19885778427124	fix_pre	0		3.0	62.0	2.5	blank	1.0	368.659503698349	0.025754213333129883
64	180.21573185920715	response	0	2		62.0	2.5	blank	1.0	368.6763777732849	
64	180.22461199760437	movie	1		301.0	62.0	2.5	blank	1.0	368.68525791168213	2.5076069831848145
64	182.73221898078918	fix_post	2		12.0	62.0	2.5	blank	1.0	371.19286489486694	0.09998583793640137
65	182.8322048187256	fix_pre	0		40.0	63.0	2.5	/experiments/knapen_aot/videos/R_S_yt-t-wpKypNysg_27.mp4	0.0	371.29285073280334	0.33326101303100586
65	183.15733981132507	response	0	2		63.0	2.5	/experiments/knapen_aot/videos/R_S_yt-t-wpKypNysg_27.mp4	0.0	371.61798572540283	
65	183.1654658317566	movie	1		301.0	63.0	2.5	/experiments/knapen_aot/videos/R_S_yt-t-wpKypNysg_27.mp4	0.0	371.62611174583435	2.5083870887756348
65	185.67385292053223	fix_post	2		12.0	63.0	2.5	/experiments/knapen_aot/videos/R_S_yt-t-wpKypNysg_27.mp4	0.0	374.13449883461	0.10001802444458008
66	185.7738709449768	fix_pre	0		17.0	64.0	2.5	/experiments/knapen_aot/videos/S_comp_A083_C002_1130KZ_v04_SDR_PS_FINAL_20180725_SDR_2K_AVC.mp4	0.0	374.23451685905457	0.14167094230651855
66	185.90734601020813	response	0	2		64.0	2.5	/experiments/knapen_aot/videos/S_comp_A083_C002_1130KZ_v04_SDR_PS_FINAL_20180725_SDR_2K_AVC.mp4	0.0	374.3679919242859	
66	185.91554188728333	movie	1		165.0	64.0	2.5	/experiments/knapen_aot/videos/S_comp_A083_C002_1130KZ_v04_SDR_PS_FINAL_20180725_SDR_2K_AVC.mp4	0.0	374.3761878013611	2.508316993713379
66	188.4238588809967	fix_post	2		12.0	64.0	2.5	/experiments/knapen_aot/videos/S_comp_A083_C002_1130KZ_v04_SDR_PS_FINAL_20180725_SDR_2K_AVC.mp4	0.0	376.88450479507446	0.09999489784240723
67	188.5238537788391	fix_pre	0		12.0	65.0	2.5	/experiments/knapen_aot/videos/R_S_wc-Mf8SQpviaD6D_17.mp4	0.0	376.98449969291687	0.09998703002929688
67	188.61560797691345	response	0	2		65.0	2.5	/experiments/knapen_aot/videos/R_S_wc-Mf8SQpviaD6D_17.mp4	0.0	377.0762538909912	
67	188.6238408088684	movie	1		180.0	65.0	2.5	/experiments/knapen_aot/videos/R_S_wc-Mf8SQpviaD6D_17.mp4	0.0	377.08448672294617	2.508350133895874
67	191.13219094276428	fix_post	2		12.0	65.0	2.5	/experiments/knapen_aot/videos/R_S_wc-Mf8SQpviaD6D_17.mp4	0.0	379.59283685684204	0.09996700286865234
67	191.1833369731903	response	2	2		65.0	2.5	/experiments/knapen_aot/videos/R_S_wc-Mf8SQpviaD6D_17.mp4	0.0	379.64398288726807	
68	191.23215794563293	fix_pre	0		122.0	66.0	2.5	/experiments/knapen_aot/videos/S_yt-O_4DgW-XKvA_35.mp4	0.0	379.6928038597107	1.016676902770996
68	192.24064087867737	response	0	2		66.0	2.5	/experiments/knapen_aot/videos/S_yt-O_4DgW-XKvA_35.mp4	0.0	380.7012867927551	
68	192.24883484840393	movie	1		301.0	66.0	2.5	/experiments/knapen_aot/videos/S_yt-O_4DgW-XKvA_35.mp4	0.0	380.7094807624817	2.5083301067352295
68	194.75716495513916	fix_post	2		12.0	66.0	2.5	/experiments/knapen_aot/videos/S_yt-O_4DgW-XKvA_35.mp4	0.0	383.2178108692169	0.09998202323913574
69	194.8571469783783	fix_pre	0		63.0	67.0	2.5	/experiments/knapen_aot/videos/R_S_yt-T9Vwt7wFvPk_100.mp4	0.0	383.31779289245605	0.5249998569488525
69	195.3738877773285	response	0	2		67.0	2.5	/experiments/knapen_aot/videos/R_S_yt-T9Vwt7wFvPk_100.mp4	0.0	383.83453369140625	
69	195.38214683532715	movie	1		301.0	67.0	2.5	/experiments/knapen_aot/videos/R_S_yt-T9Vwt7wFvPk_100.mp4	0.0	383.8427927494049	2.508331060409546
69	197.8904778957367	fix_post	2		12.0	67.0	2.5	/experiments/knapen_aot/videos/R_S_yt-T9Vwt7wFvPk_100.mp4	0.0	386.35112380981445	0.09998607635498047
70	197.99046397209167	fix_pre	0		19.0	68.0	2.5	/experiments/knapen_aot/videos/S_flickr-claywakening-27928940166_2.mp4	0.0	386.45110988616943	0.15834403038024902
70	198.1406168937683	response	0	2		68.0	2.5	/experiments/knapen_aot/videos/S_flickr-claywakening-27928940166_2.mp4	0.0	386.60126280784607	
70	198.14880800247192	movie	1		171.0	68.0	2.5	/experiments/knapen_aot/videos/S_flickr-claywakening-27928940166_2.mp4	0.0	386.6094539165497	2.50833797454834
70	200.65714597702026	fix_post	2		12.0	68.0	2.5	/experiments/knapen_aot/videos/S_flickr-claywakening-27928940166_2.mp4	0.0	389.117791891098	0.09998202323913574
71	200.7571280002594	fix_pre	0		6.0	69.0	2.5	blank	1.0	389.21777391433716	0.050572872161865234
71	200.79894590377808	response	0	2		69.0	2.5	blank	1.0	389.25959181785583	
71	200.80770087242126	movie	1		301.0	69.0	2.5	blank	1.0	389.268346786499	2.507751941680908
71	203.31545281410217	fix_post	2		12.0	69.0	2.5	blank	1.0	391.77609872817993	0.10002899169921875
72	203.4154818058014	fix_pre	0		36.0	70.0	2.5	/experiments/knapen_aot/videos/S_yt-bhiGMKSAz2g_370.mp4	0.0	391.87612771987915	0.2999579906463623
72	203.70726585388184	response	0	2		70.0	2.5	/experiments/knapen_aot/videos/S_yt-bhiGMKSAz2g_370.mp4	0.0	392.1679117679596	
72	203.71543979644775	movie	1		301.0	70.0	2.5	/experiments/knapen_aot/videos/S_yt-bhiGMKSAz2g_370.mp4	0.0	392.1760857105255	2.508263111114502
72	206.22370290756226	fix_post	2		12.0	70.0	2.5	/experiments/knapen_aot/videos/S_yt-bhiGMKSAz2g_370.mp4	0.0	394.68434882164	0.1001129150390625
73	206.32381582260132	fix_pre	0		48.0	71.0	2.5	/experiments/knapen_aot/videos/R_S_yt-XY1n_Oze1kQ_9.mp4	0.0	394.7844617366791	0.4004549980163574
73	206.71557688713074	response	0	2		71.0	2.5	/experiments/knapen_aot/videos/R_S_yt-XY1n_Oze1kQ_9.mp4	0.0	395.1762228012085	
73	206.72427082061768	movie	1		301.0	71.0	2.5	/experiments/knapen_aot/videos/R_S_yt-XY1n_Oze1kQ_9.mp4	0.0	395.18491673469543	2.5078330039978027
73	209.23210382461548	fix_post	2		12.0	71.0	2.5	/experiments/knapen_aot/videos/R_S_yt-XY1n_Oze1kQ_9.mp4	0.0	397.69274973869324	0.1000370979309082
74	209.3321409225464	fix_pre	0		27.0	72.0	2.5	/experiments/knapen_aot/videos/S_pexels-c-technical-6809719.mp4	0.0	397.79278683662415	0.2254190444946289
74	209.54895997047424	response	0	2		72.0	2.5	/experiments/knapen_aot/videos/S_pexels-c-technical-6809719.mp4	0.0	398.009605884552	
74	209.55755996704102	movie	1		186.0	72.0	2.5	/experiments/knapen_aot/videos/S_pexels-c-technical-6809719.mp4	0.0	398.0182058811188	2.507899045944214
74	212.06545901298523	fix_post	2		12.0	72.0	2.5	/experiments/knapen_aot/videos/S_pexels-c-technical-6809719.mp4	0.0	400.526104927063	0.0999898910522461
75	212.16544890403748	fix_pre	0		10.0	73.0	2.5	/experiments/knapen_aot/videos/R_S_comp_A001_C004_1207W5_v23_SDR_FINAL_20180706_SDR_2K_AVC.mp4	0.0	400.62609481811523	0.08336091041564941
75	212.24082398414612	response	0	2		73.0	2.5	/experiments/knapen_aot/videos/R_S_comp_A001_C004_1207W5_v23_SDR_FINAL_20180706_SDR_2K_AVC.mp4	0.0	400.7014698982239	
75	212.24880981445312	movie	1		165.0	73.0	2.5	/experiments/knapen_aot/videos/R_S_comp_A001_C004_1207W5_v23_SDR_FINAL_20180706_SDR_2K_AVC.mp4	0.0	400.7094557285309	2.5082671642303467
75	214.75707697868347	fix_post	2		12.0	73.0	2.5	/experiments/knapen_aot/videos/R_S_comp_A001_C004_1207W5_v23_SDR_FINAL_20180706_SDR_2K_AVC.mp4	0.0	403.21772289276123	0.0999298095703125
76	214.85700678825378	fix_pre	0		30.0	74.0	2.5	/experiments/knapen_aot/videos/S_KP_A010_C002_SDR_20190717_SDR_2K_AVC.mp4	0.0	403.31765270233154	0.2500791549682617
76	215.09887194633484	response	0	2		74.0	2.5	/experiments/knapen_aot/videos/S_KP_A010_C002_SDR_20190717_SDR_2K_AVC.mp4	0.0	403.5595178604126	
76	215.10708594322205	movie	1		165.0	74.0	2.5	/experiments/knapen_aot/videos/S_KP_A010_C002_SDR_20190717_SDR_2K_AVC.mp4	0.0	403.5677318572998	2.5083348751068115
76	217.61542081832886	fix_post	2		12.0	74.0	2.5	/experiments/knapen_aot/videos/S_KP_A010_C002_SDR_20190717_SDR_2K_AVC.mp4	0.0	406.0760667324066	0.09988713264465332
77	217.7153079509735	fix_pre	0		2.0	75.0	2.5	/experiments/knapen_aot/videos/S_yt-s73Xqkcq9Js_285.mp4	0.0	406.17595386505127	0.016756057739257812
77	217.72435998916626	response	0	2		75.0	2.5	/experiments/knapen_aot/videos/S_yt-s73Xqkcq9Js_285.mp4	0.0	406.185005903244	
77	217.73206400871277	movie	1		301.0	75.0	2.5	/experiments/knapen_aot/videos/S_yt-s73Xqkcq9Js_285.mp4	0.0	406.1927099227905	2.508309841156006
77	220.24037384986877	fix_post	2		12.0	75.0	2.5	/experiments/knapen_aot/videos/S_yt-s73Xqkcq9Js_285.mp4	0.0	408.70101976394653	0.09999513626098633
78	220.34036898612976	fix_pre	0		9.0	76.0	2.5	blank	1.0	408.8010149002075	0.07496500015258789
78	220.40715980529785	response	0	2		76.0	2.5	blank	1.0	408.8678057193756	
78	220.41533398628235	movie	1		301.0	76.0	2.5	blank	1.0	408.8759799003601	2.5083749294281006
78	222.92370891571045	fix_post	2		12.0	76.0	2.5	blank	1.0	411.3843548297882	0.10002899169921875
79	223.02373790740967	fix_pre	0		29.0	77.0	2.5	/experiments/knapen_aot/videos/S_comp_DB_D001_C005_COMP_PSNK_v12_SDR_PS_20180912_SDR_2K_AVC.mp4	0.0	411.4843838214874	0.24202895164489746
79	223.25718188285828	response	0	2		77.0	2.5	/experiments/knapen_aot/videos/S_comp_DB_D001_C005_COMP_PSNK_v12_SDR_PS_20180912_SDR_2K_AVC.mp4	0.0	411.71782779693604	
79	223.26576685905457	movie	1		169.0	77.0	2.5	/experiments/knapen_aot/videos/S_comp_DB_D001_C005_COMP_PSNK_v12_SDR_PS_20180912_SDR_2K_AVC.mp4	0.0	411.7264127731323	2.5080249309539795
79	225.77379179000854	fix_post	2		12.0	77.0	2.5	/experiments/knapen_aot/videos/S_comp_DB_D001_C005_COMP_PSNK_v12_SDR_PS_20180912_SDR_2K_AVC.mp4	0.0	414.2344377040863	0.09995317459106445
80	225.8737449645996	fix_pre	0		16.0	78.0	2.5	/experiments/knapen_aot/videos/S_yt-ZwnliF0525U_95.mp4	0.0	414.33439087867737	0.13332486152648926
80	225.99880695343018	response	0	2		78.0	2.5	/experiments/knapen_aot/videos/S_yt-ZwnliF0525U_95.mp4	0.0	414.45945286750793	
80	226.0070698261261	movie	1		301.0	78.0	2.5	/experiments/knapen_aot/videos/S_yt-ZwnliF0525U_95.mp4	0.0	414.46771574020386	2.5082859992980957
80	228.5153558254242	fix_post	2		12.0	78.0	2.5	/experiments/knapen_aot/videos/S_yt-ZwnliF0525U_95.mp4	0.0	416.97600173950195	0.0999910831451416
81	228.61534690856934	fix_pre	0		11.0	79.0	2.5	/experiments/knapen_aot/videos/R_S_yt-e1RAhIW6WAs_535.mp4	0.0	417.0759928226471	0.09166789054870605
81	228.69135093688965	response	0	2		79.0	2.5	/experiments/knapen_aot/videos/R_S_yt-e1RAhIW6WAs_535.mp4	0.0	417.1519968509674	
81	228.70701479911804	movie	1		301.0	79.0	2.5	/experiments/knapen_aot/videos/R_S_yt-e1RAhIW6WAs_535.mp4	0.0	417.1676607131958	2.5083529949188232
81	231.21536779403687	fix_post	2		12.0	79.0	2.5	/experiments/knapen_aot/videos/R_S_yt-e1RAhIW6WAs_535.mp4	0.0	419.6760137081146	0.09990620613098145
82	231.31527400016785	fix_pre	0		8.0	80.0	2.5	/experiments/knapen_aot/videos/R_S_ILSVRC2015_train_00479004.mp4	0.0	419.7759199142456	0.06859278678894043
82	231.37390995025635	response	0	2		80.0	2.5	/experiments/knapen_aot/videos/R_S_ILSVRC2015_train_00479004.mp4	0.0	419.8345558643341	
82	231.3838667869568	movie	1		301.0	80.0	2.5	/experiments/knapen_aot/videos/R_S_ILSVRC2015_train_00479004.mp4	0.0	419.84451270103455	2.506479024887085
82	233.89034581184387	fix_post	2		12.0	80.0	2.5	/experiments/knapen_aot/videos/R_S_ILSVRC2015_train_00479004.mp4	0.0	422.35099172592163	0.09996414184570312
83	233.99030995368958	fix_pre	0		4.0	81.0	2.5	/experiments/knapen_aot/videos/S_ILSVRC2015_train_00538000.mp4	0.0	422.45095586776733	0.03330492973327637
83	234.01552295684814	response	0	2		81.0	2.5	/experiments/knapen_aot/videos/S_ILSVRC2015_train_00538000.mp4	0.0	422.4761688709259	
83	234.02361488342285	movie	1		301.0	81.0	2.5	/experiments/knapen_aot/videos/S_ILSVRC2015_train_00538000.mp4	0.0	422.4842607975006	2.5083670616149902
83	236.53198194503784	fix_post	2		12.0	81.0	2.5	/experiments/knapen_aot/videos/S_ILSVRC2015_train_00538000.mp4	0.0	424.9926278591156	0.10002803802490234
84	236.63200998306274	fix_pre	0		1.0	82.0	2.5	blank	1.0	425.0926558971405	0.008735895156860352
84	236.63362884521484	response	0	2		82.0	2.5	blank	1.0	425.0942747592926	
84	236.6407458782196	movie	1		301.0	82.0	2.5	blank	1.0	425.10139179229736	2.5079081058502197
84	239.14865398406982	fix_post	2		12.0	82.0	2.5	blank	1.0	427.6092998981476	0.09998798370361328
85	239.24864196777344	fix_pre	0		110.0	83.0	2.5	/experiments/knapen_aot/videos/S_yt-ZwnliF0525U_95.mp4	0.0	427.7092878818512	0.9166738986968994
85	240.157084941864	response	0	2		83.0	2.5	/experiments/knapen_aot/videos/S_yt-ZwnliF0525U_95.mp4	0.0	428.6177308559418	
85	240.16531586647034	movie	1		301.0	83.0	2.5	/experiments/knapen_aot/videos/S_yt-ZwnliF0525U_95.mp4	0.0	428.6259617805481	2.5082969665527344
85	242.67361283302307	fix_post	2		12.0	83.0	2.5	/experiments/knapen_aot/videos/S_yt-ZwnliF0525U_95.mp4	0.0	431.13425874710083	0.10004806518554688
87	242.77366089820862	stim	0		341.0					431.2343068122864	2.8416099548339844
87	242.84876585006714	response	0	2						431.3094117641449	
87	245.60869979858398	response	0	space						434.06934571266174	
