trial_nr	onset	event_type	phase	response	nr_frames	movie_index	movie_duration	movie_file	blank	onset_abs	duration
0	0.12773990631103516	stim	0		98.0					61.406593799591064	0.8135240077972412
0	0.9330410957336426	response	0	space						62.21189498901367	
1	0.9412639141082764	stim	0		121.0					62.220117807388306	1.0082969665527344
1	1.9495608806610107	stim	1		120.0					63.22841477394104	1.0000832080841064
2	2.949644088745117	fix_pre	0		208.0	0.0	2.5	/experiments/knapen_aot/videos/S_yt-KQq7vTlXUiQ_173.mp4	0.0	64.22849798202515	1.733205795288086
2	4.674626111984253	response	0	space		0.0	2.5	/experiments/knapen_aot/videos/S_yt-KQq7vTlXUiQ_173.mp4	0.0	65.95348000526428	
2	4.682849884033203	movie	1		301.0	0.0	2.5	/experiments/knapen_aot/videos/S_yt-KQq7vTlXUiQ_173.mp4	0.0	65.96170377731323	2.508397102355957
2	7.19124698638916	fix_post	2		12.0	0.0	2.5	/experiments/knapen_aot/videos/S_yt-KQq7vTlXUiQ_173.mp4	0.0	68.47010087966919	0.10012292861938477
3	7.291369915008545	fix_pre	0		90.0	1.0	2.5	/experiments/knapen_aot/videos/S_yt-zhQ32_OayBQ_39.mp4	0.0	68.57022380828857	0.7523741722106934
3	8.035944938659668	response	0	2		1.0	2.5	/experiments/knapen_aot/videos/S_yt-zhQ32_OayBQ_39.mp4	0.0	69.3147988319397	
3	8.043744087219238	movie	1		301.0	1.0	2.5	/experiments/knapen_aot/videos/S_yt-zhQ32_OayBQ_39.mp4	0.0	69.32259798049927	2.5058908462524414
3	10.54963493347168	fix_post	2		12.0	1.0	2.5	/experiments/knapen_aot/videos/S_yt-zhQ32_OayBQ_39.mp4	0.0	71.82848882675171	0.09997296333312988
4	10.64960789680481	fix_pre	0		18.0	2.0	2.5	/experiments/knapen_aot/videos/R_S_OdxWh1oU8e8_1.mp4	0.0	71.92846179008484	0.15103411674499512
4	10.791255950927734	response	0	2		2.0	2.5	/experiments/knapen_aot/videos/R_S_OdxWh1oU8e8_1.mp4	0.0	72.07010984420776	
4	10.800642013549805	movie	1		301.0	2.0	2.5	/experiments/knapen_aot/videos/R_S_OdxWh1oU8e8_1.mp4	0.0	72.07949590682983	2.5072319507598877
4	13.307873964309692	fix_post	2		12.0	2.0	2.5	/experiments/knapen_aot/videos/R_S_OdxWh1oU8e8_1.mp4	0.0	74.58672785758972	0.09994912147521973
5	13.407823085784912	fix_pre	0		3.0	3.0	2.5	/experiments/knapen_aot/videos/S_yt-28ODBE9bVh0_44.mp4	0.0	74.68667697906494	0.025020837783813477
5	13.424675941467285	response	0	2		3.0	2.5	/experiments/knapen_aot/videos/S_yt-28ODBE9bVh0_44.mp4	0.0	74.70352983474731	
5	13.432843923568726	movie	1		301.0	3.0	2.5	/experiments/knapen_aot/videos/S_yt-28ODBE9bVh0_44.mp4	0.0	74.71169781684875	2.5083141326904297
5	15.941158056259155	fix_post	2		12.0	3.0	2.5	/experiments/knapen_aot/videos/S_yt-28ODBE9bVh0_44.mp4	0.0	77.22001194953918	0.10003399848937988
6	16.041192054748535	fix_pre	0		9.0	4.0	2.5	/experiments/knapen_aot/videos/S_yt-s73Xqkcq9Js_285.mp4	0.0	77.32004594802856	0.07510685920715332
6	16.107948064804077	response	0	2		4.0	2.5	/experiments/knapen_aot/videos/S_yt-s73Xqkcq9Js_285.mp4	0.0	77.3868019580841	
6	16.11629891395569	movie	1		301.0	4.0	2.5	/experiments/knapen_aot/videos/S_yt-s73Xqkcq9Js_285.mp4	0.0	77.39515280723572	2.508190155029297
6	18.624489068984985	fix_post	2		12.0	4.0	2.5	/experiments/knapen_aot/videos/S_yt-s73Xqkcq9Js_285.mp4	0.0	79.90334296226501	0.1000359058380127
7	18.724524974822998	fix_pre	0		12.0	5.0	2.5	/experiments/knapen_aot/videos/S_yt-2l6VKd94eAI_151.mp4	0.0	80.00337886810303	0.09996891021728516
7	18.816235065460205	response	0	2		5.0	2.5	/experiments/knapen_aot/videos/S_yt-2l6VKd94eAI_151.mp4	0.0	80.09508895874023	
7	18.824493885040283	movie	1		301.0	5.0	2.5	/experiments/knapen_aot/videos/S_yt-2l6VKd94eAI_151.mp4	0.0	80.10334777832031	2.5083720684051514
7	21.332865953445435	fix_post	2		12.0	5.0	2.5	/experiments/knapen_aot/videos/S_yt-2l6VKd94eAI_151.mp4	0.0	82.61171984672546	0.10010004043579102
8	21.432965993881226	fix_pre	0		19.0	6.0	2.5	blank	1.0	82.71181988716125	0.1581408977508545
8	21.582912921905518	response	0	2		6.0	2.5	blank	1.0	82.86176681518555	
8	21.59110689163208	movie	1		301.0	6.0	2.5	blank	1.0	82.86996078491211	2.508416175842285
8	24.099523067474365	fix_post	2		12.0	6.0	2.5	blank	1.0	85.3783769607544	0.09999895095825195
9	24.199522018432617	fix_pre	0		21.0	7.0	2.5	/experiments/knapen_aot/videos/R_S_yt-2l6VKd94eAI_151.mp4	0.0	85.47837591171265	0.17502999305725098
9	24.366270065307617	response	0	2		7.0	2.5	/experiments/knapen_aot/videos/R_S_yt-2l6VKd94eAI_151.mp4	0.0	85.64512395858765	
9	24.374552011489868	movie	1		301.0	7.0	2.5	/experiments/knapen_aot/videos/R_S_yt-2l6VKd94eAI_151.mp4	0.0	85.6534059047699	2.508289098739624
9	26.882841110229492	fix_post	2		12.0	7.0	2.5	/experiments/knapen_aot/videos/R_S_yt-2l6VKd94eAI_151.mp4	0.0	88.16169500350952	0.09995293617248535
10	26.982794046401978	fix_pre	0		16.0	8.0	2.5	/experiments/knapen_aot/videos/S_yt-GI8BEHw2Lq8_3.mp4	0.0	88.261647939682	0.13333797454833984
10	27.107955932617188	response	0	2		8.0	2.5	/experiments/knapen_aot/videos/S_yt-GI8BEHw2Lq8_3.mp4	0.0	88.38680982589722	
10	27.116132020950317	movie	1		301.0	8.0	2.5	/experiments/knapen_aot/videos/S_yt-GI8BEHw2Lq8_3.mp4	0.0	88.39498591423035	2.5083298683166504
10	29.624461889266968	fix_post	2		12.0	8.0	2.5	/experiments/knapen_aot/videos/S_yt-GI8BEHw2Lq8_3.mp4	0.0	90.903315782547	0.10007405281066895
11	29.724535942077637	fix_pre	0		15.0	9.0	2.5	/experiments/knapen_aot/videos/S_comp_GMT314_139M_170NC_NORTH_AMERICA_AURORA__COMP_v22_SDR_20181206_v12CC_SDR_2K_AVC.mp4	0.0	91.00338983535767	0.1249849796295166
11	29.841201066970825	response	0	2		9.0	2.5	/experiments/knapen_aot/videos/S_comp_GMT314_139M_170NC_NORTH_AMERICA_AURORA__COMP_v22_SDR_20181206_v12CC_SDR_2K_AVC.mp4	0.0	91.12005496025085	
11	29.849520921707153	movie	1		160.0	9.0	2.5	/experiments/knapen_aot/videos/S_comp_GMT314_139M_170NC_NORTH_AMERICA_AURORA__COMP_v22_SDR_20181206_v12CC_SDR_2K_AVC.mp4	0.0	91.12837481498718	2.508280038833618
11	32.35780096054077	fix_post	2		12.0	9.0	2.5	/experiments/knapen_aot/videos/S_comp_GMT314_139M_170NC_NORTH_AMERICA_AURORA__COMP_v22_SDR_20181206_v12CC_SDR_2K_AVC.mp4	0.0	93.6366548538208	0.10000896453857422
12	32.457809925079346	fix_pre	0		6.0	10.0	2.5	/experiments/knapen_aot/videos/R_S_yt-7VVzNnp36DM_62.mp4	0.0	93.73666381835938	0.05094099044799805
12	32.499507904052734	response	0	2		10.0	2.5	/experiments/knapen_aot/videos/R_S_yt-7VVzNnp36DM_62.mp4	0.0	93.77836179733276	
12	32.508750915527344	movie	1		301.0	10.0	2.5	/experiments/knapen_aot/videos/R_S_yt-7VVzNnp36DM_62.mp4	0.0	93.78760480880737	2.507786989212036
12	35.01653790473938	fix_post	2		12.0	10.0	2.5	/experiments/knapen_aot/videos/R_S_yt-7VVzNnp36DM_62.mp4	0.0	96.29539179801941	0.09959912300109863
13	35.11613702774048	fix_pre	0		18.0	11.0	2.5	/experiments/knapen_aot/videos/R_S_pexels-mikhail-nilov-8410084.mp4	0.0	96.39499092102051	0.149946928024292
13	35.258002042770386	response	0	2		11.0	2.5	/experiments/knapen_aot/videos/R_S_pexels-mikhail-nilov-8410084.mp4	0.0	96.53685593605042	
13	35.26608395576477	movie	1		163.0	11.0	2.5	/experiments/knapen_aot/videos/R_S_pexels-mikhail-nilov-8410084.mp4	0.0	96.5449378490448	2.508294105529785
13	37.774378061294556	fix_post	2		12.0	11.0	2.5	/experiments/knapen_aot/videos/R_S_pexels-mikhail-nilov-8410084.mp4	0.0	99.05323195457458	0.10002994537353516
14	37.87440800666809	fix_pre	0		2.0	12.0	2.5	blank	1.0	99.15326189994812	0.016665935516357422
14	37.8839271068573	response	0	2		12.0	2.5	blank	1.0	99.16278100013733	
14	37.89107394218445	movie	1		301.0	12.0	2.5	blank	1.0	99.16992783546448	2.5083391666412354
14	40.399413108825684	fix_post	2		12.0	12.0	2.5	blank	1.0	101.67826700210571	0.10010099411010742
15	40.49951410293579	fix_pre	0		20.0	13.0	2.5	/experiments/knapen_aot/videos/R_S_comp_DB_D008_C010_PSNK_v21_SDR_PS_20180914_F0F16157_SDR_2K_AVC.mp4	0.0	101.77836799621582	0.16653084754943848
15	40.65781593322754	response	0	2		13.0	2.5	/experiments/knapen_aot/videos/R_S_comp_DB_D008_C010_PSNK_v21_SDR_PS_20180914_F0F16157_SDR_2K_AVC.mp4	0.0	101.93666982650757	
15	40.66604495048523	movie	1		170.0	13.0	2.5	/experiments/knapen_aot/videos/R_S_comp_DB_D008_C010_PSNK_v21_SDR_PS_20180914_F0F16157_SDR_2K_AVC.mp4	0.0	101.94489884376526	2.5083529949188232
15	43.17439794540405	fix_post	2		12.0	13.0	2.5	/experiments/knapen_aot/videos/R_S_comp_DB_D008_C010_PSNK_v21_SDR_PS_20180914_F0F16157_SDR_2K_AVC.mp4	0.0	104.45325183868408	0.10000801086425781
15	43.21612310409546	response	2	2		13.0	2.5	/experiments/knapen_aot/videos/R_S_comp_DB_D008_C010_PSNK_v21_SDR_PS_20180914_F0F16157_SDR_2K_AVC.mp4	0.0	104.49497699737549	
16	43.27440595626831	fix_pre	0		58.0	14.0	2.5	/experiments/knapen_aot/videos/S_yt-2WPmM2vIuBE_41.mp4	0.0	104.55325984954834	0.48432397842407227
16	43.74943995475769	response	0	2		14.0	2.5	/experiments/knapen_aot/videos/S_yt-2WPmM2vIuBE_41.mp4	0.0	105.02829384803772	
16	43.75872993469238	movie	1		301.0	14.0	2.5	/experiments/knapen_aot/videos/S_yt-2WPmM2vIuBE_41.mp4	0.0	105.03758382797241	2.507357120513916
16	46.2660870552063	fix_post	2		12.0	14.0	2.5	/experiments/knapen_aot/videos/S_yt-2WPmM2vIuBE_41.mp4	0.0	107.54494094848633	0.09996294975280762
17	46.366050004959106	fix_pre	0		15.0	15.0	2.5	/experiments/knapen_aot/videos/R_S_yt-GOgS--rzmKQ_51.mp4	0.0	107.64490389823914	0.12496495246887207
17	46.48285698890686	response	0	2		15.0	2.5	/experiments/knapen_aot/videos/R_S_yt-GOgS--rzmKQ_51.mp4	0.0	107.76171088218689	
17	46.49101495742798	movie	1		301.0	15.0	2.5	/experiments/knapen_aot/videos/R_S_yt-GOgS--rzmKQ_51.mp4	0.0	107.76986885070801	2.5086669921875
17	48.99968194961548	fix_post	2		12.0	15.0	2.5	/experiments/knapen_aot/videos/R_S_yt-GOgS--rzmKQ_51.mp4	0.0	110.27853584289551	0.09965205192565918
17	49.075401067733765	response	2	2		15.0	2.5	/experiments/knapen_aot/videos/R_S_yt-GOgS--rzmKQ_51.mp4	0.0	110.3542549610138	
18	49.09933400154114	fix_pre	0		57.0	16.0	2.5	/experiments/knapen_aot/videos/R_S_flickr-evananderica-2662125519_8.mp4	0.0	110.37818789482117	0.47503089904785156
18	49.56623291969299	response	0	2		16.0	2.5	/experiments/knapen_aot/videos/R_S_flickr-evananderica-2662125519_8.mp4	0.0	110.84508681297302	
18	49.57436490058899	movie	1		301.0	16.0	2.5	/experiments/knapen_aot/videos/R_S_flickr-evananderica-2662125519_8.mp4	0.0	110.85321879386902	2.5082881450653076
18	52.0826530456543	fix_post	2		12.0	16.0	2.5	/experiments/knapen_aot/videos/R_S_flickr-evananderica-2662125519_8.mp4	0.0	113.36150693893433	0.1002359390258789
19	52.182888984680176	fix_pre	0		22.0	17.0	2.5	/experiments/knapen_aot/videos/R_S_ILSVRC2015_test_00004002.mp4	0.0	113.4617428779602	0.18308496475219727
19	52.35028004646301	response	0	2		17.0	2.5	/experiments/knapen_aot/videos/R_S_ILSVRC2015_test_00004002.mp4	0.0	113.62913393974304	
19	52.36597394943237	movie	1		301.0	17.0	2.5	/experiments/knapen_aot/videos/R_S_ILSVRC2015_test_00004002.mp4	0.0	113.6448278427124	2.5083799362182617
19	54.874353885650635	fix_post	2		12.0	17.0	2.5	/experiments/knapen_aot/videos/R_S_ILSVRC2015_test_00004002.mp4	0.0	116.15320777893066	0.10000300407409668
20	54.97435688972473	fix_pre	0		16.0	18.0	2.5	/experiments/knapen_aot/videos/S_yt-NLfzvAJgyJ4_120.mp4	0.0	116.25321078300476	0.13329815864562988
20	55.0918550491333	response	0	2		18.0	2.5	/experiments/knapen_aot/videos/S_yt-NLfzvAJgyJ4_120.mp4	0.0	116.37070894241333	
20	55.10765504837036	movie	1		301.0	18.0	2.5	/experiments/knapen_aot/videos/S_yt-NLfzvAJgyJ4_120.mp4	0.0	116.38650894165039	2.5083539485931396
20	57.6160089969635	fix_post	2		12.0	18.0	2.5	/experiments/knapen_aot/videos/S_yt-NLfzvAJgyJ4_120.mp4	0.0	118.89486289024353	0.10013794898986816
21	57.71614694595337	fix_pre	0		16.0	19.0	2.5	/experiments/knapen_aot/videos/R_S_ILSVRC2015_train_00574004.mp4	0.0	118.9950008392334	0.13321208953857422
21	57.84116506576538	response	0	2		19.0	2.5	/experiments/knapen_aot/videos/R_S_ILSVRC2015_train_00574004.mp4	0.0	119.12001895904541	
21	57.84935903549194	movie	1		301.0	19.0	2.5	/experiments/knapen_aot/videos/R_S_ILSVRC2015_train_00574004.mp4	0.0	119.12821292877197	2.508384943008423
21	60.357743978500366	fix_post	2		12.0	19.0	2.5	/experiments/knapen_aot/videos/R_S_ILSVRC2015_train_00574004.mp4	0.0	121.6365978717804	0.09996891021728516
22	60.45771288871765	fix_pre	0		6.0	20.0	2.5	blank	1.0	121.73656678199768	0.050852060317993164
22	60.492093086242676	response	0	2		20.0	2.5	blank	1.0	121.7709469795227	
22	60.508564949035645	movie	1		301.0	20.0	2.5	blank	1.0	121.78741884231567	2.507465124130249
22	63.016030073165894	fix_post	2		12.0	20.0	2.5	blank	1.0	124.29488396644592	0.10002803802490234
23	63.116058111190796	fix_pre	0		18.0	21.0	2.5	/experiments/knapen_aot/videos/R_S_yt-35i8UeYXjGw_47.mp4	0.0	124.39491200447083	0.14992499351501465
23	63.25778388977051	response	0	2		21.0	2.5	/experiments/knapen_aot/videos/R_S_yt-35i8UeYXjGw_47.mp4	0.0	124.53663778305054	
23	63.26598310470581	movie	1		301.0	21.0	2.5	/experiments/knapen_aot/videos/R_S_yt-35i8UeYXjGw_47.mp4	0.0	124.54483699798584	2.508370876312256
23	65.77435398101807	fix_post	2		12.0	21.0	2.5	/experiments/knapen_aot/videos/R_S_yt-35i8UeYXjGw_47.mp4	0.0	127.0532078742981	0.1000211238861084
24	65.87437510490417	fix_pre	0		7.0	22.0	2.5	/experiments/knapen_aot/videos/R_S_yt-i3-YlGenYmk_411.mp4	0.0	127.1532289981842	0.058241844177246094
24	65.92443990707397	response	0	2		22.0	2.5	/experiments/knapen_aot/videos/R_S_yt-i3-YlGenYmk_411.mp4	0.0	127.203293800354	
24	65.93261694908142	movie	1		301.0	22.0	2.5	/experiments/knapen_aot/videos/R_S_yt-i3-YlGenYmk_411.mp4	0.0	127.21147084236145	2.508371114730835
24	68.44098806381226	fix_post	2		12.0	22.0	2.5	/experiments/knapen_aot/videos/R_S_yt-i3-YlGenYmk_411.mp4	0.0	129.71984195709229	0.10003781318664551
25	68.5410258769989	fix_pre	0		3.0	23.0	2.5	/experiments/knapen_aot/videos/S_yt-MNo__ov96eI_22.mp4	0.0	129.81987977027893	0.024964094161987305
25	68.55784296989441	response	0	2		23.0	2.5	/experiments/knapen_aot/videos/S_yt-MNo__ov96eI_22.mp4	0.0	129.83669686317444	
25	68.56598997116089	movie	1		301.0	23.0	2.5	/experiments/knapen_aot/videos/S_yt-MNo__ov96eI_22.mp4	0.0	129.84484386444092	2.5083329677581787
25	71.07432293891907	fix_post	2		12.0	23.0	2.5	/experiments/knapen_aot/videos/S_yt-MNo__ov96eI_22.mp4	0.0	132.3531768321991	0.10000205039978027
26	71.17432498931885	fix_pre	0		10.0	24.0	2.5	/experiments/knapen_aot/videos/R_S_yt-OFnDCbW9Ebo_31.mp4	0.0	132.45317888259888	0.08420395851135254
26	71.24945998191833	response	0	2		24.0	2.5	/experiments/knapen_aot/videos/R_S_yt-OFnDCbW9Ebo_31.mp4	0.0	132.52831387519836	
26	71.2585289478302	movie	1		301.0	24.0	2.5	/experiments/knapen_aot/videos/R_S_yt-OFnDCbW9Ebo_31.mp4	0.0	132.53738284111023	2.5074150562286377
26	73.76594400405884	fix_post	2		12.0	24.0	2.5	/experiments/knapen_aot/videos/R_S_yt-OFnDCbW9Ebo_31.mp4	0.0	135.04479789733887	0.10012507438659668
27	73.86606907844543	fix_pre	0		15.0	25.0	2.5	/experiments/knapen_aot/videos/S_comp_GMT329_113NC_396B_1105_ITALY_v03_SDR_FINAL_20180706_SDR_2K_AVC.mp4	0.0	135.14492297172546	0.12477803230285645
27	73.98272609710693	response	0	2		25.0	2.5	/experiments/knapen_aot/videos/S_comp_GMT329_113NC_396B_1105_ITALY_v03_SDR_FINAL_20180706_SDR_2K_AVC.mp4	0.0	135.26157999038696	
27	73.99084711074829	movie	1		163.0	25.0	2.5	/experiments/knapen_aot/videos/S_comp_GMT329_113NC_396B_1105_ITALY_v03_SDR_FINAL_20180706_SDR_2K_AVC.mp4	0.0	135.26970100402832	2.5084218978881836
27	76.49926900863647	fix_post	2		12.0	25.0	2.5	/experiments/knapen_aot/videos/S_comp_GMT329_113NC_396B_1105_ITALY_v03_SDR_FINAL_20180706_SDR_2K_AVC.mp4	0.0	137.7781229019165	0.09998202323913574
27	76.59111189842224	response	2	2		25.0	2.5	/experiments/knapen_aot/videos/S_comp_GMT329_113NC_396B_1105_ITALY_v03_SDR_FINAL_20180706_SDR_2K_AVC.mp4	0.0	137.86996579170227	
28	76.59925103187561	fix_pre	0		48.0	26.0	2.5	/experiments/knapen_aot/videos/R_S_yt-AiXq1oDrEXI_123.mp4	0.0	137.87810492515564	0.3999450206756592
28	76.99098896980286	response	0	2		26.0	2.5	/experiments/knapen_aot/videos/R_S_yt-AiXq1oDrEXI_123.mp4	0.0	138.26984286308289	
28	76.99919605255127	movie	1		301.0	26.0	2.5	/experiments/knapen_aot/videos/R_S_yt-AiXq1oDrEXI_123.mp4	0.0	138.2780499458313	2.508419990539551
28	79.50761604309082	fix_post	2		12.0	26.0	2.5	/experiments/knapen_aot/videos/R_S_yt-AiXq1oDrEXI_123.mp4	0.0	140.78646993637085	0.10001206398010254
29	79.60762810707092	fix_pre	0		15.0	27.0	2.5	/experiments/knapen_aot/videos/R_S_ILSVRC2015_train_00756000.mp4	0.0	140.88648200035095	0.12493681907653809
29	79.72440099716187	response	0	2		27.0	2.5	/experiments/knapen_aot/videos/R_S_ILSVRC2015_train_00756000.mp4	0.0	141.0032548904419	
29	79.73256492614746	movie	1		301.0	27.0	2.5	/experiments/knapen_aot/videos/R_S_ILSVRC2015_train_00756000.mp4	0.0	141.0114188194275	2.508368968963623
29	82.24093389511108	fix_post	2		12.0	27.0	2.5	/experiments/knapen_aot/videos/R_S_ILSVRC2015_train_00756000.mp4	0.0	143.5197877883911	0.10002017021179199
30	82.34095406532288	fix_pre	0		9.0	28.0	2.5	blank	1.0	143.6198079586029	0.0749208927154541
30	82.40764999389648	response	0	2		28.0	2.5	blank	1.0	143.6865038871765	
30	82.41587495803833	movie	1		301.0	28.0	2.5	blank	1.0	143.69472885131836	2.5084099769592285
30	84.92428493499756	fix_post	2		12.0	28.0	2.5	blank	1.0	146.2031388282776	0.09993815422058105
31	85.02422308921814	fix_pre	0		23.0	29.0	2.5	/experiments/knapen_aot/videos/S_ILSVRC2015_train_00363000.mp4	0.0	146.30307698249817	0.192396879196167
31	85.20758509635925	response	0	2		29.0	2.5	/experiments/knapen_aot/videos/S_ILSVRC2015_train_00363000.mp4	0.0	146.48643898963928	
31	85.2166199684143	movie	1		301.0	29.0	2.5	/experiments/knapen_aot/videos/S_ILSVRC2015_train_00363000.mp4	0.0	146.49547386169434	2.508017063140869
31	87.72463703155518	fix_post	2		12.0	29.0	2.5	/experiments/knapen_aot/videos/S_ILSVRC2015_train_00363000.mp4	0.0	149.0034909248352	0.09978294372558594
31	87.78272700309753	response	2	2		29.0	2.5	/experiments/knapen_aot/videos/S_ILSVRC2015_train_00363000.mp4	0.0	149.06158089637756	
32	87.82441997528076	fix_pre	0		45.0	30.0	2.5	/experiments/knapen_aot/videos/S_flickr-reginahart-31964450591_23.mp4	0.0	149.1032738685608	0.37477612495422363
32	88.19091892242432	response	0	2		30.0	2.5	/experiments/knapen_aot/videos/S_flickr-reginahart-31964450591_23.mp4	0.0	149.46977281570435	
32	88.19919610023499	movie	1		169.0	30.0	2.5	/experiments/knapen_aot/videos/S_flickr-reginahart-31964450591_23.mp4	0.0	149.47804999351501	2.5085599422454834
32	90.70775604248047	fix_post	2		12.0	30.0	2.5	/experiments/knapen_aot/videos/S_flickr-reginahart-31964450591_23.mp4	0.0	151.9866099357605	0.09991288185119629
33	90.80766892433167	fix_pre	0		15.0	31.0	2.5	/experiments/knapen_aot/videos/S_yt-2WPmM2vIuBE_41.mp4	0.0	152.0865228176117	0.12482714653015137
33	90.92428088188171	response	0	2		31.0	2.5	/experiments/knapen_aot/videos/S_yt-2WPmM2vIuBE_41.mp4	0.0	152.20313477516174	
33	90.93249607086182	movie	1		301.0	31.0	2.5	/experiments/knapen_aot/videos/S_yt-2WPmM2vIuBE_41.mp4	0.0	152.21134996414185	2.508405923843384
33	93.4409019947052	fix_post	2		12.0	31.0	2.5	/experiments/knapen_aot/videos/S_yt-2WPmM2vIuBE_41.mp4	0.0	154.71975588798523	0.10003495216369629
34	93.5409369468689	fix_pre	0		6.0	32.0	2.5	/experiments/knapen_aot/videos/R_S_yt-zydTlQGCUjQ_277.mp4	0.0	154.81979084014893	0.05069303512573242
34	93.58270001411438	response	0	2		32.0	2.5	/experiments/knapen_aot/videos/R_S_yt-zydTlQGCUjQ_277.mp4	0.0	154.8615539073944	
34	93.59162998199463	movie	1		301.0	32.0	2.5	/experiments/knapen_aot/videos/R_S_yt-zydTlQGCUjQ_277.mp4	0.0	154.87048387527466	2.507601022720337
34	96.09923100471497	fix_post	2		12.0	32.0	2.5	/experiments/knapen_aot/videos/R_S_yt-zydTlQGCUjQ_277.mp4	0.0	157.378084897995	0.09998893737792969
35	96.1992199420929	fix_pre	0		5.0	33.0	2.5	blank	1.0	157.47807383537292	0.041628122329711914
35	96.22539210319519	response	0	2		33.0	2.5	blank	1.0	157.50424599647522	
35	96.24084806442261	movie	1		301.0	33.0	2.5	blank	1.0	157.51970195770264	2.5084660053253174
35	98.74931406974792	fix_post	2		12.0	33.0	2.5	blank	1.0	160.02816796302795	0.09987187385559082
36	98.84918594360352	fix_pre	0		23.0	34.0	2.5	/experiments/knapen_aot/videos/S_G009_C003_UHD_SDR_2K_AVC.mp4	0.0	160.12803983688354	0.1916790008544922
36	99.03270411491394	response	0	2		34.0	2.5	/experiments/knapen_aot/videos/S_G009_C003_UHD_SDR_2K_AVC.mp4	0.0	160.31155800819397	
36	99.04086494445801	movie	1		163.0	34.0	2.5	/experiments/knapen_aot/videos/S_G009_C003_UHD_SDR_2K_AVC.mp4	0.0	160.31971883773804	2.508284091949463
36	101.54914903640747	fix_post	2		12.0	34.0	2.5	/experiments/knapen_aot/videos/S_G009_C003_UHD_SDR_2K_AVC.mp4	0.0	162.8280029296875	0.1000359058380127
37	101.64918494224548	fix_pre	0		14.0	35.0	2.5	/experiments/knapen_aot/videos/R_S_comp_GMT314_139M_170NC_NORTH_AMERICA_AURORA__COMP_v22_SDR_20181206_v12CC_SDR_2K_AVC.mp4	0.0	162.9280388355255	0.11660408973693848
37	101.75015306472778	response	0	2		35.0	2.5	/experiments/knapen_aot/videos/R_S_comp_GMT314_139M_170NC_NORTH_AMERICA_AURORA__COMP_v22_SDR_20181206_v12CC_SDR_2K_AVC.mp4	0.0	163.0290069580078	
37	101.76578903198242	movie	1		164.0	35.0	2.5	/experiments/knapen_aot/videos/R_S_comp_GMT314_139M_170NC_NORTH_AMERICA_AURORA__COMP_v22_SDR_20181206_v12CC_SDR_2K_AVC.mp4	0.0	163.04464292526245	2.5083789825439453
37	104.27416801452637	fix_post	2		12.0	35.0	2.5	/experiments/knapen_aot/videos/R_S_comp_GMT314_139M_170NC_NORTH_AMERICA_AURORA__COMP_v22_SDR_20181206_v12CC_SDR_2K_AVC.mp4	0.0	165.5530219078064	0.1001119613647461
38	104.37427997589111	fix_pre	0		4.0	36.0	2.5	/experiments/knapen_aot/videos/S_ILSVRC2015_train_00405001.mp4	0.0	165.65313386917114	0.03327608108520508
38	104.3992850780487	response	0	2		36.0	2.5	/experiments/knapen_aot/videos/S_ILSVRC2015_train_00405001.mp4	0.0	165.67813897132874	
38	104.40755605697632	movie	1		301.0	36.0	2.5	/experiments/knapen_aot/videos/S_ILSVRC2015_train_00405001.mp4	0.0	165.68640995025635	2.5083160400390625
38	106.91587209701538	fix_post	2		12.0	36.0	2.5	/experiments/knapen_aot/videos/S_ILSVRC2015_train_00405001.mp4	0.0	168.1947259902954	0.09995889663696289
39	107.01583099365234	fix_pre	0		11.0	37.0	2.5	/experiments/knapen_aot/videos/S_yt-Z4W6l0eZza4_6.mp4	0.0	168.29468488693237	0.0917520523071289
39	107.09180402755737	response	0	2		37.0	2.5	/experiments/knapen_aot/videos/S_yt-Z4W6l0eZza4_6.mp4	0.0	168.3706579208374	
39	107.10758304595947	movie	1		301.0	37.0	2.5	/experiments/knapen_aot/videos/S_yt-Z4W6l0eZza4_6.mp4	0.0	168.3864369392395	2.508172035217285
39	109.61575508117676	fix_post	2		12.0	37.0	2.5	/experiments/knapen_aot/videos/S_yt-Z4W6l0eZza4_6.mp4	0.0	170.8946089744568	0.10005998611450195
40	109.71581506729126	fix_pre	0		27.0	38.0	2.5	/experiments/knapen_aot/videos/R_S_yt-SkIJvj6KNOo_33.mp4	0.0	170.9946689605713	0.2250659465789795
40	109.93258595466614	response	0	2		38.0	2.5	/experiments/knapen_aot/videos/R_S_yt-SkIJvj6KNOo_33.mp4	0.0	171.21143984794617	
40	109.94088101387024	movie	1		301.0	38.0	2.5	/experiments/knapen_aot/videos/R_S_yt-SkIJvj6KNOo_33.mp4	0.0	171.21973490715027	2.508270025253296
40	112.44915103912354	fix_post	2		12.0	38.0	2.5	/experiments/knapen_aot/videos/R_S_yt-SkIJvj6KNOo_33.mp4	0.0	173.72800493240356	0.10000300407409668
41	112.54915404319763	fix_pre	0		12.0	39.0	2.5	/experiments/knapen_aot/videos/R_S_pexels-koolshooters-7327401.mp4	0.0	173.82800793647766	0.09992599487304688
41	112.64093589782715	response	0	2		39.0	2.5	/experiments/knapen_aot/videos/R_S_pexels-koolshooters-7327401.mp4	0.0	173.91978979110718	
41	112.64908003807068	movie	1		164.0	39.0	2.5	/experiments/knapen_aot/videos/R_S_pexels-koolshooters-7327401.mp4	0.0	173.9279339313507	2.5083999633789062
41	115.15748000144958	fix_post	2		12.0	39.0	2.5	/experiments/knapen_aot/videos/R_S_pexels-koolshooters-7327401.mp4	0.0	176.43633389472961	0.0999760627746582
42	115.25745606422424	fix_pre	0		5.0	40.0	2.5	blank	1.0	176.53630995750427	0.04227185249328613
42	115.28340601921082	response	0	2		40.0	2.5	blank	1.0	176.56225991249084	
42	115.29972791671753	movie	1		301.0	40.0	2.5	blank	1.0	176.57858180999756	2.507650136947632
42	117.80737805366516	fix_post	2		12.0	40.0	2.5	blank	1.0	179.0862319469452	0.10006594657897949
43	117.90744400024414	fix_pre	0		25.0	41.0	2.5	/experiments/knapen_aot/videos/S_JApTAOdfunE_1251.mp4	0.0	179.18629789352417	0.20832610130310059
43	118.10754108428955	response	0	2		41.0	2.5	/experiments/knapen_aot/videos/S_JApTAOdfunE_1251.mp4	0.0	179.38639497756958	
43	118.11577010154724	movie	1		301.0	41.0	2.5	/experiments/knapen_aot/videos/S_JApTAOdfunE_1251.mp4	0.0	179.39462399482727	2.508485794067383
43	120.62425589561462	fix_post	2		12.0	41.0	2.5	/experiments/knapen_aot/videos/S_JApTAOdfunE_1251.mp4	0.0	181.90310978889465	0.0998539924621582
44	120.72410988807678	fix_pre	0		18.0	42.0	2.5	/experiments/knapen_aot/videos/R_S_yt-2l6VKd94eAI_151.mp4	0.0	182.0029637813568	0.15000510215759277
44	120.86586403846741	response	0	2		42.0	2.5	/experiments/knapen_aot/videos/R_S_yt-2l6VKd94eAI_151.mp4	0.0	182.14471793174744	
44	120.87411499023438	movie	1		301.0	42.0	2.5	/experiments/knapen_aot/videos/R_S_yt-2l6VKd94eAI_151.mp4	0.0	182.1529688835144	2.5086829662323
44	123.38279795646667	fix_post	2		12.0	42.0	2.5	/experiments/knapen_aot/videos/R_S_yt-2l6VKd94eAI_151.mp4	0.0	184.6616518497467	0.0997920036315918
45	123.48258996009827	fix_pre	0		11.0	43.0	2.5	/experiments/knapen_aot/videos/S_yt-Fm97IY0Z2LU_79.mp4	0.0	184.7614438533783	0.09149003028869629
45	123.5583770275116	response	0	2		43.0	2.5	/experiments/knapen_aot/videos/S_yt-Fm97IY0Z2LU_79.mp4	0.0	184.83723092079163	
45	123.57407999038696	movie	1		301.0	43.0	2.5	/experiments/knapen_aot/videos/S_yt-Fm97IY0Z2LU_79.mp4	0.0	184.852933883667	2.508341073989868
45	126.08242106437683	fix_post	2		12.0	43.0	2.5	/experiments/knapen_aot/videos/S_yt-Fm97IY0Z2LU_79.mp4	0.0	187.36127495765686	0.10009884834289551
46	126.18251991271973	fix_pre	0		18.0	44.0	2.5	/experiments/knapen_aot/videos/S_yt-aSEKRE_FNaI_62.mp4	0.0	187.46137380599976	0.14985299110412598
46	126.32411289215088	response	0	2		44.0	2.5	/experiments/knapen_aot/videos/S_yt-aSEKRE_FNaI_62.mp4	0.0	187.6029667854309	
46	126.33237290382385	movie	1		301.0	44.0	2.5	/experiments/knapen_aot/videos/S_yt-aSEKRE_FNaI_62.mp4	0.0	187.61122679710388	2.508392095565796
46	128.84076499938965	fix_post	2		12.0	44.0	2.5	/experiments/knapen_aot/videos/S_yt-aSEKRE_FNaI_62.mp4	0.0	190.11961889266968	0.09989809989929199
47	128.94066309928894	fix_pre	0		17.0	45.0	2.5	/experiments/knapen_aot/videos/R_S_yt-2WPmM2vIuBE_41.mp4	0.0	190.21951699256897	0.14168500900268555
47	129.06666707992554	response	0	2		45.0	2.5	/experiments/knapen_aot/videos/R_S_yt-2WPmM2vIuBE_41.mp4	0.0	190.34552097320557	
47	129.08234810829163	movie	1		301.0	45.0	2.5	/experiments/knapen_aot/videos/R_S_yt-2WPmM2vIuBE_41.mp4	0.0	190.36120200157166	2.508807897567749
47	131.59115600585938	fix_post	2		12.0	45.0	2.5	/experiments/knapen_aot/videos/R_S_yt-2WPmM2vIuBE_41.mp4	0.0	192.8700098991394	0.09955191612243652
48	131.6907079219818	fix_pre	0		15.0	46.0	2.5	/experiments/knapen_aot/videos/R_S_yt-5ws2gxbcjs4_381.mp4	0.0	192.96956181526184	0.12492609024047852
48	131.8075020313263	response	0	2		46.0	2.5	/experiments/knapen_aot/videos/R_S_yt-5ws2gxbcjs4_381.mp4	0.0	193.08635592460632	
48	131.8156340122223	movie	1		301.0	46.0	2.5	/experiments/knapen_aot/videos/R_S_yt-5ws2gxbcjs4_381.mp4	0.0	193.09448790550232	2.508413076400757
48	134.32404708862305	fix_post	2		12.0	46.0	2.5	/experiments/knapen_aot/videos/R_S_yt-5ws2gxbcjs4_381.mp4	0.0	195.60290098190308	0.09999680519104004
49	134.4240438938141	fix_pre	0		13.0	47.0	2.5	blank	1.0	195.70289778709412	0.10831904411315918
49	134.5241138935089	response	0	2		47.0	2.5	blank	1.0	195.80296778678894	
49	134.53236293792725	movie	1		301.0	47.0	2.5	blank	1.0	195.81121683120728	2.5084280967712402
49	137.0407910346985	fix_post	2		12.0	47.0	2.5	blank	1.0	198.31964492797852	0.09988093376159668
50	137.14067196846008	fix_pre	0		27.0	48.0	2.5	/experiments/knapen_aot/videos/R_S_comp_GMT329_113NC_396B_1105_ITALY_v03_SDR_FINAL_20180706_SDR_2K_AVC.mp4	0.0	198.4195258617401	0.22494792938232422
50	137.35747289657593	response	0	2		48.0	2.5	/experiments/knapen_aot/videos/R_S_comp_GMT329_113NC_396B_1105_ITALY_v03_SDR_FINAL_20180706_SDR_2K_AVC.mp4	0.0	198.63632678985596	
50	137.3656198978424	movie	1		170.0	48.0	2.5	/experiments/knapen_aot/videos/R_S_comp_GMT329_113NC_396B_1105_ITALY_v03_SDR_FINAL_20180706_SDR_2K_AVC.mp4	0.0	198.64447379112244	2.508424997329712
50	139.87404489517212	fix_post	2		12.0	48.0	2.5	/experiments/knapen_aot/videos/R_S_comp_GMT329_113NC_396B_1105_ITALY_v03_SDR_FINAL_20180706_SDR_2K_AVC.mp4	0.0	201.15289878845215	0.10003018379211426
51	139.97407507896423	fix_pre	0		7.0	49.0	2.5	/experiments/knapen_aot/videos/R_S_yt-bTcbsBET7gc_270.mp4	0.0	201.25292897224426	0.058226823806762695
51	140.0241858959198	response	0	2		49.0	2.5	/experiments/knapen_aot/videos/R_S_yt-bTcbsBET7gc_270.mp4	0.0	201.30303978919983	
51	140.032301902771	movie	1		301.0	49.0	2.5	/experiments/knapen_aot/videos/R_S_yt-bTcbsBET7gc_270.mp4	0.0	201.31115579605103	2.5084362030029297
51	142.54073810577393	fix_post	2		12.0	49.0	2.5	/experiments/knapen_aot/videos/R_S_yt-bTcbsBET7gc_270.mp4	0.0	203.81959199905396	0.09997177124023438
52	142.64070987701416	fix_pre	0		3.0	50.0	2.5	/experiments/knapen_aot/videos/R_S_pexels-c-technical-6753390_2.mp4	0.0	203.9195637702942	0.024903059005737305
52	142.65751099586487	response	0	2		50.0	2.5	/experiments/knapen_aot/videos/R_S_pexels-c-technical-6753390_2.mp4	0.0	203.9363648891449	
52	142.6656129360199	movie	1		175.0	50.0	2.5	/experiments/knapen_aot/videos/R_S_pexels-c-technical-6753390_2.mp4	0.0	203.94446682929993	2.5084969997406006
52	145.1741099357605	fix_post	2		12.0	50.0	2.5	/experiments/knapen_aot/videos/R_S_pexels-c-technical-6753390_2.mp4	0.0	206.45296382904053	0.09992194175720215
53	145.2740318775177	fix_pre	0		14.0	51.0	2.5	/experiments/knapen_aot/videos/S_ILSVRC2015_train_00689000.mp4	0.0	206.55288577079773	0.1166231632232666
53	145.3749098777771	response	0	2		51.0	2.5	/experiments/knapen_aot/videos/S_ILSVRC2015_train_00689000.mp4	0.0	206.65376377105713	
53	145.39065504074097	movie	1		301.0	51.0	2.5	/experiments/knapen_aot/videos/S_ILSVRC2015_train_00689000.mp4	0.0	206.669508934021	2.5083229541778564
53	147.89897799491882	fix_post	2		12.0	51.0	2.5	/experiments/knapen_aot/videos/S_ILSVRC2015_train_00689000.mp4	0.0	209.17783188819885	0.10008001327514648
54	147.99905800819397	fix_pre	0		13.0	52.0	2.5	/experiments/knapen_aot/videos/S_yt-mQRzWCcKOR8_28.mp4	0.0	209.277911901474	0.10830092430114746
54	148.09146809577942	response	0	2		52.0	2.5	/experiments/knapen_aot/videos/S_yt-mQRzWCcKOR8_28.mp4	0.0	209.37032198905945	
54	148.10735893249512	movie	1		301.0	52.0	2.5	/experiments/knapen_aot/videos/S_yt-mQRzWCcKOR8_28.mp4	0.0	209.38621282577515	2.5083999633789062
54	150.61575889587402	fix_post	2		12.0	52.0	2.5	/experiments/knapen_aot/videos/S_yt-mQRzWCcKOR8_28.mp4	0.0	211.89461278915405	0.10028505325317383
55	150.7160439491272	fix_pre	0		65.0	53.0	2.5	/experiments/knapen_aot/videos/S_ILSVRC2015_train_00715000.mp4	0.0	211.99489784240723	0.5416431427001953
55	151.2490839958191	response	0	2		53.0	2.5	/experiments/knapen_aot/videos/S_ILSVRC2015_train_00715000.mp4	0.0	212.52793788909912	
55	151.2576870918274	movie	1		301.0	53.0	2.5	/experiments/knapen_aot/videos/S_ILSVRC2015_train_00715000.mp4	0.0	212.53654098510742	2.508301019668579
55	153.76598811149597	fix_post	2		12.0	53.0	2.5	/experiments/knapen_aot/videos/S_ILSVRC2015_train_00715000.mp4	0.0	215.044842004776	0.09963178634643555
56	153.8656198978424	fix_pre	0		8.0	54.0	2.5	/experiments/knapen_aot/videos/R_S_yt-w_e3sxIzepA_115.mp4	0.0	215.14447379112244	0.0666050910949707
56	153.92403507232666	response	0	2		54.0	2.5	/experiments/knapen_aot/videos/R_S_yt-w_e3sxIzepA_115.mp4	0.0	215.2028889656067	
56	153.93222498893738	movie	1		301.0	54.0	2.5	/experiments/knapen_aot/videos/R_S_yt-w_e3sxIzepA_115.mp4	0.0	215.2110788822174	2.508802890777588
56	156.44102787971497	fix_post	2		12.0	54.0	2.5	/experiments/knapen_aot/videos/R_S_yt-w_e3sxIzepA_115.mp4	0.0	217.719881772995	0.09968209266662598
57	156.5407099723816	fix_pre	0		7.0	55.0	2.5	blank	1.0	217.81956386566162	0.058258056640625
57	156.590754032135	response	0	2		55.0	2.5	blank	1.0	217.86960792541504	
57	156.59896802902222	movie	1		301.0	55.0	2.5	blank	1.0	217.87782192230225	2.508341073989868
57	159.10730910301208	fix_post	2		12.0	55.0	2.5	blank	1.0	220.38616299629211	0.09993100166320801
58	159.2072401046753	fix_pre	0		23.0	56.0	2.5	/experiments/knapen_aot/videos/S_yt--a-d97T4Gak_75.mp4	0.0	220.48609399795532	0.1916828155517578
58	159.39066791534424	response	0	2		56.0	2.5	/experiments/knapen_aot/videos/S_yt--a-d97T4Gak_75.mp4	0.0	220.66952180862427	
58	159.39892292022705	movie	1		301.0	56.0	2.5	/experiments/knapen_aot/videos/S_yt--a-d97T4Gak_75.mp4	0.0	220.67777681350708	2.5083231925964355
58	161.9072461128235	fix_post	2		12.0	56.0	2.5	/experiments/knapen_aot/videos/S_yt--a-d97T4Gak_75.mp4	0.0	223.18610000610352	0.10039687156677246
59	162.00764298439026	fix_pre	0		13.0	57.0	2.5	/experiments/knapen_aot/videos/S_yt-LGwEki4ghNw_69.mp4	0.0	223.2864968776703	0.10797691345214844
59	162.10737204551697	response	0	2		57.0	2.5	/experiments/knapen_aot/videos/S_yt-LGwEki4ghNw_69.mp4	0.0	223.386225938797	
59	162.1156198978424	movie	1		301.0	57.0	2.5	/experiments/knapen_aot/videos/S_yt-LGwEki4ghNw_69.mp4	0.0	223.39447379112244	2.5083069801330566
59	164.62392687797546	fix_post	2		12.0	57.0	2.5	/experiments/knapen_aot/videos/S_yt-LGwEki4ghNw_69.mp4	0.0	225.9027807712555	0.09995102882385254
60	164.72387790679932	fix_pre	0		9.0	58.0	2.5	/experiments/knapen_aot/videos/R_S_yt-lkpfs_4qAGE_50.mp4	0.0	226.00273180007935	0.07539916038513184
60	164.7907350063324	response	0	2		58.0	2.5	/experiments/knapen_aot/videos/R_S_yt-lkpfs_4qAGE_50.mp4	0.0	226.06958889961243	
60	164.79927706718445	movie	1		301.0	58.0	2.5	/experiments/knapen_aot/videos/R_S_yt-lkpfs_4qAGE_50.mp4	0.0	226.07813096046448	2.508167028427124
60	167.30744409561157	fix_post	2		12.0	58.0	2.5	/experiments/knapen_aot/videos/R_S_yt-lkpfs_4qAGE_50.mp4	0.0	228.5862979888916	0.0997920036315918
61	167.40723609924316	fix_pre	0		5.0	59.0	2.5	/experiments/knapen_aot/videos/R_S_yt-v8e_DlCsP4w_10.mp4	0.0	228.6860899925232	0.04155898094177246
61	167.44075894355774	response	0	2		59.0	2.5	/experiments/knapen_aot/videos/R_S_yt-v8e_DlCsP4w_10.mp4	0.0	228.71961283683777	
61	167.44879508018494	movie	1		301.0	59.0	2.5	/experiments/knapen_aot/videos/R_S_yt-v8e_DlCsP4w_10.mp4	0.0	228.72764897346497	2.5085039138793945
61	169.95729899406433	fix_post	2		12.0	59.0	2.5	/experiments/knapen_aot/videos/R_S_yt-v8e_DlCsP4w_10.mp4	0.0	231.23615288734436	0.09989500045776367
62	170.0571939945221	fix_pre	0		13.0	60.0	2.5	/experiments/knapen_aot/videos/S_yt-yXJr3FR2xrM_27.mp4	0.0	231.33604788780212	0.10833311080932617
62	170.15730500221252	response	0	2		60.0	2.5	/experiments/knapen_aot/videos/S_yt-yXJr3FR2xrM_27.mp4	0.0	231.43615889549255	
62	170.16552710533142	movie	1		301.0	60.0	2.5	/experiments/knapen_aot/videos/S_yt-yXJr3FR2xrM_27.mp4	0.0	231.44438099861145	2.5086419582366943
62	172.67416906356812	fix_post	2		12.0	60.0	2.5	/experiments/knapen_aot/videos/S_yt-yXJr3FR2xrM_27.mp4	0.0	233.95302295684814	0.09971785545349121
63	172.7738869190216	fix_pre	0		20.0	61.0	2.5	/experiments/knapen_aot/videos/R_S_yt-QD74nNliDvI_10.mp4	0.0	234.05274081230164	0.16659808158874512
63	172.93231892585754	response	0	2		61.0	2.5	/experiments/knapen_aot/videos/R_S_yt-QD74nNliDvI_10.mp4	0.0	234.21117281913757	
63	172.94048500061035	movie	1		301.0	61.0	2.5	/experiments/knapen_aot/videos/R_S_yt-QD74nNliDvI_10.mp4	0.0	234.21933889389038	2.508790969848633
63	175.44927597045898	fix_post	2		12.0	61.0	2.5	/experiments/knapen_aot/videos/R_S_yt-QD74nNliDvI_10.mp4	0.0	236.728129863739	0.09951400756835938
63	175.48230600357056	response	2	2		61.0	2.5	/experiments/knapen_aot/videos/R_S_yt-QD74nNliDvI_10.mp4	0.0	236.7611598968506	
64	175.54878997802734	fix_pre	0		40.0	62.0	2.5	/experiments/knapen_aot/videos/R_S_yt-wrfAMDCg93Y_8.mp4	0.0	236.82764387130737	0.3336489200592041
64	175.87390303611755	response	0	2		62.0	2.5	/experiments/knapen_aot/videos/R_S_yt-wrfAMDCg93Y_8.mp4	0.0	237.15275692939758	
64	175.88243889808655	movie	1		301.0	62.0	2.5	/experiments/knapen_aot/videos/R_S_yt-wrfAMDCg93Y_8.mp4	0.0	237.16129279136658	2.5080671310424805
64	178.39050602912903	fix_post	2		12.0	62.0	2.5	/experiments/knapen_aot/videos/R_S_yt-wrfAMDCg93Y_8.mp4	0.0	239.66935992240906	0.10000395774841309
65	178.49050998687744	fix_pre	0		5.0	63.0	2.5	blank	1.0	239.76936388015747	0.04180097579956055
65	178.52395796775818	response	0	2		63.0	2.5	blank	1.0	239.8028118610382	
65	178.532310962677	movie	1		301.0	63.0	2.5	blank	1.0	239.81116485595703	2.508324146270752
65	181.04063510894775	fix_post	2		12.0	63.0	2.5	blank	1.0	242.31948900222778	0.09992480278015137
66	181.1405599117279	fix_pre	0		16.0	64.0	2.5	/experiments/knapen_aot/videos/S_yt-OFnDCbW9Ebo_31.mp4	0.0	242.41941380500793	0.13323616981506348
66	181.26565289497375	response	0	2		64.0	2.5	/experiments/knapen_aot/videos/S_yt-OFnDCbW9Ebo_31.mp4	0.0	242.54450678825378	
66	181.27379608154297	movie	1		301.0	64.0	2.5	/experiments/knapen_aot/videos/S_yt-OFnDCbW9Ebo_31.mp4	0.0	242.552649974823	2.5084359645843506
66	183.78223204612732	fix_post	2		12.0	64.0	2.5	/experiments/knapen_aot/videos/S_yt-OFnDCbW9Ebo_31.mp4	0.0	245.06108593940735	0.10020804405212402
67	183.88244009017944	fix_pre	0		17.0	65.0	2.5	/experiments/knapen_aot/videos/S_ILSVRC2015_train_00404003.mp4	0.0	245.16129398345947	0.14134001731872559
67	184.01552200317383	response	0	2		65.0	2.5	/experiments/knapen_aot/videos/S_ILSVRC2015_train_00404003.mp4	0.0	245.29437589645386	
67	184.02378010749817	movie	1		301.0	65.0	2.5	/experiments/knapen_aot/videos/S_ILSVRC2015_train_00404003.mp4	0.0	245.3026340007782	2.5083978176116943
67	186.53217792510986	fix_post	2		12.0	65.0	2.5	/experiments/knapen_aot/videos/S_ILSVRC2015_train_00404003.mp4	0.0	247.8110318183899	0.10029816627502441
68	186.6324760913849	fix_pre	0		4.0	66.0	2.5	/experiments/knapen_aot/videos/R_S_comp_GL_G010_C006_PSNK_NOSUN_v12_SDR_PS_FINAL_20180709_SDR_2K_AVC.mp4	0.0	247.91132998466492	0.03302788734436035
68	186.65739393234253	response	0	2		66.0	2.5	/experiments/knapen_aot/videos/R_S_comp_GL_G010_C006_PSNK_NOSUN_v12_SDR_PS_FINAL_20180709_SDR_2K_AVC.mp4	0.0	247.93624782562256	
68	186.66550397872925	movie	1		164.0	66.0	2.5	/experiments/knapen_aot/videos/R_S_comp_GL_G010_C006_PSNK_NOSUN_v12_SDR_PS_FINAL_20180709_SDR_2K_AVC.mp4	0.0	247.94435787200928	2.508784055709839
68	189.1742880344391	fix_post	2		12.0	66.0	2.5	/experiments/knapen_aot/videos/R_S_comp_GL_G010_C006_PSNK_NOSUN_v12_SDR_PS_FINAL_20180709_SDR_2K_AVC.mp4	0.0	250.45314192771912	0.09980607032775879
69	189.27409410476685	fix_pre	0		6.0	67.0	2.5	/experiments/knapen_aot/videos/S_yt-tEzCpMrjOHs_24.mp4	0.0	250.55294799804688	0.04969000816345215
69	189.31553506851196	response	0	2		67.0	2.5	/experiments/knapen_aot/videos/S_yt-tEzCpMrjOHs_24.mp4	0.0	250.594388961792	
69	189.3237841129303	movie	1		301.0	67.0	2.5	/experiments/knapen_aot/videos/S_yt-tEzCpMrjOHs_24.mp4	0.0	250.60263800621033	2.508732795715332
69	191.83251690864563	fix_post	2		12.0	67.0	2.5	/experiments/knapen_aot/videos/S_yt-tEzCpMrjOHs_24.mp4	0.0	253.11137080192566	0.09954714775085449
70	191.93206405639648	fix_pre	0		9.0	68.0	2.5	blank	1.0	253.2109179496765	0.07531499862670898
70	191.99897408485413	response	0	2		68.0	2.5	blank	1.0	253.27782797813416	
70	192.0073790550232	movie	1		301.0	68.0	2.5	blank	1.0	253.28623294830322	2.50801682472229
70	194.51539587974548	fix_post	2		12.0	68.0	2.5	blank	1.0	255.7942497730255	0.10004210472106934
71	194.61543798446655	fix_pre	0		13.0	69.0	2.5	/experiments/knapen_aot/videos/R_S_yt-28ODBE9bVh0_44.mp4	0.0	255.89429187774658	0.10831689834594727
71	194.7155110836029	response	0	2		69.0	2.5	/experiments/knapen_aot/videos/R_S_yt-28ODBE9bVh0_44.mp4	0.0	255.99436497688293	
71	194.7237548828125	movie	1		301.0	69.0	2.5	/experiments/knapen_aot/videos/R_S_yt-28ODBE9bVh0_44.mp4	0.0	256.00260877609253	2.508371114730835
71	197.23212599754333	fix_post	2		12.0	69.0	2.5	/experiments/knapen_aot/videos/R_S_yt-28ODBE9bVh0_44.mp4	0.0	258.51097989082336	0.10000205039978027
72	197.33212804794312	fix_pre	0		5.0	70.0	2.5	/experiments/knapen_aot/videos/R_S_yt-aSEKRE_FNaI_62.mp4	0.0	258.61098194122314	0.04163694381713867
72	197.36554598808289	response	0	2		70.0	2.5	/experiments/knapen_aot/videos/R_S_yt-aSEKRE_FNaI_62.mp4	0.0	258.6443998813629	
72	197.37376499176025	movie	1		301.0	70.0	2.5	/experiments/knapen_aot/videos/R_S_yt-aSEKRE_FNaI_62.mp4	0.0	258.6526188850403	2.5087759494781494
72	199.8825409412384	fix_post	2		12.0	70.0	2.5	/experiments/knapen_aot/videos/R_S_yt-aSEKRE_FNaI_62.mp4	0.0	261.16139483451843	0.09955096244812012
73	199.98209190368652	fix_pre	0		4.0	71.0	2.5	/experiments/knapen_aot/videos/S_yt-mJzkLd3Mr_c_35.mp4	0.0	261.26094579696655	0.033267974853515625
73	200.00783896446228	response	0	2		71.0	2.5	/experiments/knapen_aot/videos/S_yt-mJzkLd3Mr_c_35.mp4	0.0	261.2866928577423	
73	200.01535987854004	movie	1		301.0	71.0	2.5	/experiments/knapen_aot/videos/S_yt-mJzkLd3Mr_c_35.mp4	0.0	261.29421377182007	2.5084969997406006
73	202.52385687828064	fix_post	2		12.0	71.0	2.5	/experiments/knapen_aot/videos/S_yt-mJzkLd3Mr_c_35.mp4	0.0	263.80271077156067	0.09990119934082031
74	202.62375807762146	fix_pre	0		15.0	72.0	2.5	/experiments/knapen_aot/videos/S_comp_A009_C001_010181A_v09_SDR_PS_FINAL_20180725_SDR_2K_AVC.mp4	0.0	263.9026119709015	0.12497401237487793
74	202.74054098129272	response	0	2		72.0	2.5	/experiments/knapen_aot/videos/S_comp_A009_C001_010181A_v09_SDR_PS_FINAL_20180725_SDR_2K_AVC.mp4	0.0	264.01939487457275	
74	202.74873208999634	movie	1		165.0	72.0	2.5	/experiments/knapen_aot/videos/S_comp_A009_C001_010181A_v09_SDR_PS_FINAL_20180725_SDR_2K_AVC.mp4	0.0	264.02758598327637	2.5087950229644775
74	205.25752711296082	fix_post	2		12.0	72.0	2.5	/experiments/knapen_aot/videos/S_comp_A009_C001_010181A_v09_SDR_PS_FINAL_20180725_SDR_2K_AVC.mp4	0.0	266.53638100624084	0.09952783584594727
75	205.35705494880676	fix_pre	0		1.0	73.0	2.5	/experiments/knapen_aot/videos/R_S_ILSVRC2015_train_00415005.mp4	0.0	266.6359088420868	0.008332014083862305
75	205.35859608650208	response	0	2		73.0	2.5	/experiments/knapen_aot/videos/R_S_ILSVRC2015_train_00415005.mp4	0.0	266.6374499797821	
75	205.36538696289062	movie	1		301.0	73.0	2.5	/experiments/knapen_aot/videos/R_S_ILSVRC2015_train_00415005.mp4	0.0	266.64424085617065	2.5088090896606445
75	207.87419605255127	fix_post	2		12.0	73.0	2.5	/experiments/knapen_aot/videos/R_S_ILSVRC2015_train_00415005.mp4	0.0	269.1530499458313	0.09951901435852051
76	207.9737150669098	fix_pre	0		16.0	74.0	2.5	/experiments/knapen_aot/videos/S_yt-feTWuKPZA_k_34.mp4	0.0	269.2525689601898	0.1333928108215332
76	208.09879803657532	response	0	2		74.0	2.5	/experiments/knapen_aot/videos/S_yt-feTWuKPZA_k_34.mp4	0.0	269.37765192985535	
76	208.10710787773132	movie	1		301.0	74.0	2.5	/experiments/knapen_aot/videos/S_yt-feTWuKPZA_k_34.mp4	0.0	269.38596177101135	2.5082859992980957
76	210.61539387702942	fix_post	2		12.0	74.0	2.5	/experiments/knapen_aot/videos/S_yt-feTWuKPZA_k_34.mp4	0.0	271.89424777030945	0.10010719299316406
77	210.71550107002258	fix_pre	0		9.0	75.0	2.5	/experiments/knapen_aot/videos/S_xTlFOCRvy68_1564.mp4	0.0	271.9943549633026	0.07499504089355469
77	210.78212809562683	response	0	2		75.0	2.5	/experiments/knapen_aot/videos/S_xTlFOCRvy68_1564.mp4	0.0	272.06098198890686	
77	210.79049611091614	movie	1		301.0	75.0	2.5	/experiments/knapen_aot/videos/S_xTlFOCRvy68_1564.mp4	0.0	272.06935000419617	2.508347988128662
77	213.2988440990448	fix_post	2		12.0	75.0	2.5	/experiments/knapen_aot/videos/S_xTlFOCRvy68_1564.mp4	0.0	274.57769799232483	0.10006093978881836
78	213.39890503883362	fix_pre	0		2.0	76.0	2.5	blank	1.0	274.67775893211365	0.01647496223449707
78	213.40717101097107	response	0	2		76.0	2.5	blank	1.0	274.6860249042511	
78	213.41538000106812	movie	1		301.0	76.0	2.5	blank	1.0	274.69423389434814	2.5083870887756348
78	215.92376708984375	fix_post	2		12.0	76.0	2.5	blank	1.0	277.2026209831238	0.09995198249816895
79	216.02371907234192	fix_pre	0		22.0	77.0	2.5	/experiments/knapen_aot/videos/R_S_comp_LA_A005_C009_PSNK_ALT_v09_SDR_PS_201809134_SDR_2K_AVC.mp4	0.0	277.30257296562195	0.18329381942749023
79	216.19869995117188	response	0	2		77.0	2.5	/experiments/knapen_aot/videos/R_S_comp_LA_A005_C009_PSNK_ALT_v09_SDR_PS_201809134_SDR_2K_AVC.mp4	0.0	277.4775538444519	
79	216.2070128917694	movie	1		167.0	77.0	2.5	/experiments/knapen_aot/videos/R_S_comp_LA_A005_C009_PSNK_ALT_v09_SDR_PS_201809134_SDR_2K_AVC.mp4	0.0	277.48586678504944	2.5086450576782227
79	218.71565794944763	fix_post	2		12.0	77.0	2.5	/experiments/knapen_aot/videos/R_S_comp_LA_A005_C009_PSNK_ALT_v09_SDR_PS_201809134_SDR_2K_AVC.mp4	0.0	279.99451184272766	0.09979104995727539
79	218.74142503738403	response	2	2		77.0	2.5	/experiments/knapen_aot/videos/R_S_comp_LA_A005_C009_PSNK_ALT_v09_SDR_PS_201809134_SDR_2K_AVC.mp4	0.0	280.02027893066406	
80	218.8154489994049	fix_pre	0		52.0	78.0	2.5	/experiments/knapen_aot/videos/R_S_comp_LW_L001_C006_PSNK_DENOISE_v02_SDR_PS_FINAL_20180709_SDR_2K_AVC.mp4	0.0	280.09430289268494	0.4333360195159912
80	219.24051904678345	response	0	2		78.0	2.5	/experiments/knapen_aot/videos/R_S_comp_LW_L001_C006_PSNK_DENOISE_v02_SDR_PS_FINAL_20180709_SDR_2K_AVC.mp4	0.0	280.5193729400635	
80	219.2487850189209	movie	1		166.0	78.0	2.5	/experiments/knapen_aot/videos/R_S_comp_LW_L001_C006_PSNK_DENOISE_v02_SDR_PS_FINAL_20180709_SDR_2K_AVC.mp4	0.0	280.5276389122009	2.5086989402770996
80	221.757483959198	fix_post	2		12.0	78.0	2.5	/experiments/knapen_aot/videos/R_S_comp_LW_L001_C006_PSNK_DENOISE_v02_SDR_PS_FINAL_20180709_SDR_2K_AVC.mp4	0.0	283.036337852478	0.09946608543395996
80	221.84876704216003	response	2	2		78.0	2.5	/experiments/knapen_aot/videos/R_S_comp_LW_L001_C006_PSNK_DENOISE_v02_SDR_PS_FINAL_20180709_SDR_2K_AVC.mp4	0.0	283.12762093544006	
81	221.85695004463196	fix_pre	0		51.0	79.0	2.5	/experiments/knapen_aot/videos/S_Pexels_Videos_2795731_1.mp4	0.0	283.135803937912	0.42502689361572266
81	222.27372407913208	response	0	2		79.0	2.5	/experiments/knapen_aot/videos/S_Pexels_Videos_2795731_1.mp4	0.0	283.5525779724121	
81	222.28197693824768	movie	1		166.0	79.0	2.5	/experiments/knapen_aot/videos/S_Pexels_Videos_2795731_1.mp4	0.0	283.5608308315277	2.5083770751953125
81	224.790354013443	fix_post	2		12.0	79.0	2.5	/experiments/knapen_aot/videos/S_Pexels_Videos_2795731_1.mp4	0.0	286.069207906723	0.09996604919433594
82	224.89032006263733	fix_pre	0		12.0	80.0	2.5	/experiments/knapen_aot/videos/S_yt-yXJr3FR2xrM_27.mp4	0.0	286.16917395591736	0.09996604919433594
82	224.98232293128967	response	0	2		80.0	2.5	/experiments/knapen_aot/videos/S_yt-yXJr3FR2xrM_27.mp4	0.0	286.2611768245697	
82	224.99028611183167	movie	1		301.0	80.0	2.5	/experiments/knapen_aot/videos/S_yt-yXJr3FR2xrM_27.mp4	0.0	286.2691400051117	2.5083959102630615
82	227.49868202209473	fix_post	2		12.0	80.0	2.5	/experiments/knapen_aot/videos/S_yt-yXJr3FR2xrM_27.mp4	0.0	288.77753591537476	0.10004186630249023
83	227.59872388839722	fix_pre	0		7.0	81.0	2.5	/experiments/knapen_aot/videos/R_S_yt-kkbtZP78JxQ_96.mp4	0.0	288.87757778167725	0.058248043060302734
83	227.6411430835724	response	0	2		81.0	2.5	/experiments/knapen_aot/videos/R_S_yt-kkbtZP78JxQ_96.mp4	0.0	288.9199969768524	
83	227.65697193145752	movie	1		301.0	81.0	2.5	/experiments/knapen_aot/videos/R_S_yt-kkbtZP78JxQ_96.mp4	0.0	288.93582582473755	2.5086350440979004
83	230.16560697555542	fix_post	2		11.0	81.0	2.5	/experiments/knapen_aot/videos/R_S_yt-kkbtZP78JxQ_96.mp4	0.0	291.44446086883545	0.09134292602539062
83	230.24893403053284	response	2	2		81.0	2.5	/experiments/knapen_aot/videos/R_S_yt-kkbtZP78JxQ_96.mp4	0.0	291.52778792381287	
84	230.2569499015808	fix_pre	0		49.0	82.0	2.5	/experiments/knapen_aot/videos/S_yt-dqcUJzNOzbM_156.mp4	0.0	291.53580379486084	0.4083840847015381
84	230.64949202537537	response	0	2		82.0	2.5	/experiments/knapen_aot/videos/S_yt-dqcUJzNOzbM_156.mp4	0.0	291.9283459186554	
84	230.66533398628235	movie	1		301.0	82.0	2.5	/experiments/knapen_aot/videos/S_yt-dqcUJzNOzbM_156.mp4	0.0	291.9441878795624	2.508301019668579
84	233.17363500595093	fix_post	2		12.0	82.0	2.5	/experiments/knapen_aot/videos/S_yt-dqcUJzNOzbM_156.mp4	0.0	294.45248889923096	0.10001587867736816
85	233.2736508846283	fix_pre	0		12.0	83.0	2.5	blank	1.0	294.5525047779083	0.09993815422058105
85	233.36537909507751	response	0	2		83.0	2.5	blank	1.0	294.64423298835754	
85	233.37358903884888	movie	1		301.0	83.0	2.5	blank	1.0	294.6524429321289	2.508457899093628
85	235.8820469379425	fix_post	2		12.0	83.0	2.5	blank	1.0	297.16090083122253	0.0999441146850586
85	235.94061493873596	response	2	space		83.0	2.5	blank	1.0	297.219468832016	
87	235.98199105262756	stim	0		148.0					297.2608449459076	1.2332708835601807
87	236.2692050933838	response	0	2						297.5480589866638	
87	236.75703501701355	response	0	2						298.0358889102936	
87	237.21251487731934	response	0	space						298.49136877059937	
