trial_nr	onset	event_type	phase	response	nr_frames	movie_index	movie_duration	movie_file	blank	onset_abs	duration
0	0.13339900970458984	stim	0		109.0					73.70996189117432	0.9107720851898193
0	1.0339469909667969	response	0	space						74.61050987243652	
1	1.0441710948944092	stim	0		121.0					74.62073397636414	1.005523920059204
1	2.0496950149536133	stim	1		120.0					75.62625789642334	0.9999549388885498
2	3.049649953842163	fix_pre	0		1.0	0.0	2.5	/experiments/knapen_aot/videos/S_ILSVRC2015_train_00551000.mp4	0.0	76.62621283531189	0.008356094360351562
2	3.0523741245269775	response	0	space		0.0	2.5	/experiments/knapen_aot/videos/S_ILSVRC2015_train_00551000.mp4	0.0	76.6289370059967	
2	3.0580060482025146	movie	1		297.0	0.0	2.5	/experiments/knapen_aot/videos/S_ILSVRC2015_train_00551000.mp4	0.0	76.63456892967224	2.5083439350128174
2	5.566349983215332	fix_post	2		12.0	0.0	2.5	/experiments/knapen_aot/videos/S_ILSVRC2015_train_00551000.mp4	0.0	79.14291286468506	0.10001301765441895
3	5.666363000869751	fix_pre	0		14.0	1.0	2.5	/experiments/knapen_aot/videos/S_yt-RO4mhuXBVrY_67.mp4	0.0	79.24292588233948	0.12044811248779297
3	5.777338981628418	response	0	2		1.0	2.5	/experiments/knapen_aot/videos/S_yt-RO4mhuXBVrY_67.mp4	0.0	79.35390186309814	
3	5.786811113357544	movie	1		301.0	1.0	2.5	/experiments/knapen_aot/videos/S_yt-RO4mhuXBVrY_67.mp4	0.0	79.36337399482727	2.5045669078826904
3	8.291378021240234	fix_post	2		12.0	1.0	2.5	/experiments/knapen_aot/videos/S_yt-RO4mhuXBVrY_67.mp4	0.0	81.86794090270996	0.10001301765441895
4	8.391391038894653	fix_pre	0		24.0	2.0	2.5	/experiments/knapen_aot/videos/S_production_ID_4122384.mp4	0.0	81.96795392036438	0.20102596282958984
4	8.583341121673584	response	0	2		2.0	2.5	/experiments/knapen_aot/videos/S_production_ID_4122384.mp4	0.0	82.15990400314331	
4	8.592417001724243	movie	1		169.0	2.0	2.5	/experiments/knapen_aot/videos/S_production_ID_4122384.mp4	0.0	82.16897988319397	2.507308006286621
4	11.099725008010864	fix_post	2		12.0	2.0	2.5	/experiments/knapen_aot/videos/S_production_ID_4122384.mp4	0.0	84.67628788948059	0.10006904602050781
5	11.199794054031372	fix_pre	0		1.0	3.0	2.5	/experiments/knapen_aot/videos/S_yt-CXn1PGH67_s_20.mp4	0.0	84.7763569355011	0.010731935501098633
5	11.192539930343628	response	0	2		3.0	2.5	/experiments/knapen_aot/videos/S_yt-CXn1PGH67_s_20.mp4	0.0	84.76910281181335	
5	11.21052598953247	movie	1		301.0	3.0	2.5	/experiments/knapen_aot/videos/S_yt-CXn1PGH67_s_20.mp4	0.0	84.7870888710022	2.505798101425171
5	13.716324090957642	fix_post	2		12.0	3.0	2.5	/experiments/knapen_aot/videos/S_yt-CXn1PGH67_s_20.mp4	0.0	87.29288697242737	0.10004496574401855
6	13.81636905670166	fix_pre	0		29.0	4.0	2.5	/experiments/knapen_aot/videos/R_S_comp_HK_H004_C013_t9_6M_HB_tag0.mp4	0.0	87.39293193817139	0.24173593521118164
6	14.042307138442993	response	0	2		4.0	2.5	/experiments/knapen_aot/videos/R_S_comp_HK_H004_C013_t9_6M_HB_tag0.mp4	0.0	87.61887001991272	
6	14.058104991912842	movie	1		174.0	4.0	2.5	/experiments/knapen_aot/videos/R_S_comp_HK_H004_C013_t9_6M_HB_tag0.mp4	0.0	87.63466787338257	2.50822114944458
6	16.566326141357422	fix_post	2		12.0	4.0	2.5	/experiments/knapen_aot/videos/R_S_comp_HK_H004_C013_t9_6M_HB_tag0.mp4	0.0	90.14288902282715	0.09996986389160156
7	16.666296005249023	fix_pre	0		14.0	5.0	2.5	/experiments/knapen_aot/videos/S_yt-14tjqjjjAEI_15.mp4	0.0	90.24285888671875	0.11667108535766602
7	16.77476406097412	response	0	2		5.0	2.5	/experiments/knapen_aot/videos/S_yt-14tjqjjjAEI_15.mp4	0.0	90.35132694244385	
7	16.78296709060669	movie	1		301.0	5.0	2.5	/experiments/knapen_aot/videos/S_yt-14tjqjjjAEI_15.mp4	0.0	90.35952997207642	2.508319854736328
7	19.291286945343018	fix_post	2		12.0	5.0	2.5	/experiments/knapen_aot/videos/S_yt-14tjqjjjAEI_15.mp4	0.0	92.86784982681274	0.10002708435058594
8	19.391314029693604	fix_pre	0		37.0	6.0	2.5	blank	1.0	92.96787691116333	0.30829906463623047
8	19.6839280128479	response	0	2		6.0	2.5	blank	1.0	93.26049089431763	
8	19.699613094329834	movie	1		301.0	6.0	2.5	blank	1.0	93.27617597579956	2.508328914642334
8	22.207942008972168	fix_post	2		12.0	6.0	2.5	blank	1.0	95.7845048904419	0.10006499290466309
9	22.30800700187683	fix_pre	0		52.0	7.0	2.5	/experiments/knapen_aot/videos/S_yt-l_pvPAznG1A_20.mp4	0.0	95.88456988334656	0.43322205543518066
9	22.732975006103516	response	0	2		7.0	2.5	/experiments/knapen_aot/videos/S_yt-l_pvPAznG1A_20.mp4	0.0	96.30953788757324	
9	22.74122905731201	movie	1		301.0	7.0	2.5	/experiments/knapen_aot/videos/S_yt-l_pvPAznG1A_20.mp4	0.0	96.31779193878174	2.5083160400390625
9	25.249545097351074	fix_post	2		12.0	7.0	2.5	/experiments/knapen_aot/videos/S_yt-l_pvPAznG1A_20.mp4	0.0	98.8261079788208	0.10002493858337402
10	25.34957003593445	fix_pre	0		12.0	8.0	2.5	/experiments/knapen_aot/videos/S_ILSVRC2015_train_00697001.mp4	0.0	98.92613291740417	0.09995603561401367
10	25.441386938095093	response	0	2		8.0	2.5	/experiments/knapen_aot/videos/S_ILSVRC2015_train_00697001.mp4	0.0	99.01794981956482	
10	25.449526071548462	movie	1		301.0	8.0	2.5	/experiments/knapen_aot/videos/S_ILSVRC2015_train_00697001.mp4	0.0	99.02608895301819	2.5083670616149902
10	27.957893133163452	fix_post	2		12.0	8.0	2.5	/experiments/knapen_aot/videos/S_ILSVRC2015_train_00697001.mp4	0.0	101.53445601463318	0.09996294975280762
11	28.05785608291626	fix_pre	0		23.0	9.0	2.5	/experiments/knapen_aot/videos/R_S_yt-8N5UuN5WQcY_72.mp4	0.0	101.63441896438599	0.19163894653320312
11	28.24135398864746	response	0	2		9.0	2.5	/experiments/knapen_aot/videos/R_S_yt-8N5UuN5WQcY_72.mp4	0.0	101.81791687011719	
11	28.249495029449463	movie	1		301.0	9.0	2.5	/experiments/knapen_aot/videos/R_S_yt-8N5UuN5WQcY_72.mp4	0.0	101.82605791091919	2.5083351135253906
11	30.757830142974854	fix_post	2		12.0	9.0	2.5	/experiments/knapen_aot/videos/R_S_yt-8N5UuN5WQcY_72.mp4	0.0	104.33439302444458	0.10001683235168457
12	30.857846975326538	fix_pre	0		20.0	10.0	2.5	/experiments/knapen_aot/videos/R_S_yt-c5_SFS4aaJI_1102.mp4	0.0	104.43440985679626	0.16671204566955566
12	31.016304969787598	response	0	2		10.0	2.5	/experiments/knapen_aot/videos/R_S_yt-c5_SFS4aaJI_1102.mp4	0.0	104.59286785125732	
12	31.024559020996094	movie	1		301.0	10.0	2.5	/experiments/knapen_aot/videos/R_S_yt-c5_SFS4aaJI_1102.mp4	0.0	104.60112190246582	2.5082919597625732
12	33.53285098075867	fix_post	2		12.0	10.0	2.5	/experiments/knapen_aot/videos/R_S_yt-c5_SFS4aaJI_1102.mp4	0.0	107.1094138622284	0.10005903244018555
13	33.63291001319885	fix_pre	0		118.0	11.0	2.5	/experiments/knapen_aot/videos/R_S_yt-z5rxY-WhFNw_15.mp4	0.0	107.20947289466858	0.9832990169525146
13	34.6080379486084	response	0	2		11.0	2.5	/experiments/knapen_aot/videos/R_S_yt-z5rxY-WhFNw_15.mp4	0.0	108.18460083007812	
13	34.61620903015137	movie	1		301.0	11.0	2.5	/experiments/knapen_aot/videos/R_S_yt-z5rxY-WhFNw_15.mp4	0.0	108.1927719116211	2.5084030628204346
13	37.1246120929718	fix_post	2		12.0	11.0	2.5	/experiments/knapen_aot/videos/R_S_yt-z5rxY-WhFNw_15.mp4	0.0	110.70117497444153	0.0999760627746582
14	37.22458815574646	fix_pre	0		22.0	12.0	2.5	blank	1.0	110.80115103721619	0.18333196640014648
14	37.39971208572388	response	0	2		12.0	2.5	blank	1.0	110.9762749671936	
14	37.407920122146606	movie	1		301.0	12.0	2.5	blank	1.0	110.98448300361633	2.5082759857177734
14	39.91619610786438	fix_post	2		12.0	12.0	2.5	blank	1.0	113.4927589893341	0.09999799728393555
15	40.016194105148315	fix_pre	0		319.0	13.0	2.5	/experiments/knapen_aot/videos/R_S_yt-AiXq1oDrEXI_123.mp4	0.0	113.59275698661804	2.659191846847534
15	42.666248083114624	response	0	2		13.0	2.5	/experiments/knapen_aot/videos/R_S_yt-AiXq1oDrEXI_123.mp4	0.0	116.24281096458435	
15	42.67538595199585	movie	1		301.0	13.0	2.5	/experiments/knapen_aot/videos/R_S_yt-AiXq1oDrEXI_123.mp4	0.0	116.25194883346558	2.507448196411133
15	45.18283414840698	fix_post	2		12.0	13.0	2.5	/experiments/knapen_aot/videos/R_S_yt-AiXq1oDrEXI_123.mp4	0.0	118.75939702987671	0.09998178482055664
16	45.28281593322754	fix_pre	0		234.0	14.0	2.5	/experiments/knapen_aot/videos/S_production_ID_4997166.mp4	0.0	118.85937881469727	1.950024127960205
16	47.217041969299316	response	0	2		14.0	2.5	/experiments/knapen_aot/videos/S_production_ID_4997166.mp4	0.0	120.79360485076904	
16	47.232840061187744	movie	1		172.0	14.0	2.5	/experiments/knapen_aot/videos/S_production_ID_4997166.mp4	0.0	120.80940294265747	2.5083370208740234
16	49.74117708206177	fix_post	2		12.0	14.0	2.5	/experiments/knapen_aot/videos/S_production_ID_4997166.mp4	0.0	123.3177399635315	0.10009384155273438
17	49.8412709236145	fix_pre	0		157.0	15.0	2.5	/experiments/knapen_aot/videos/S_pexels-anna-tarazevich-6189268.mp4	0.0	123.41783380508423	1.3081610202789307
17	51.14137411117554	response	0	2		15.0	2.5	/experiments/knapen_aot/videos/S_pexels-anna-tarazevich-6189268.mp4	0.0	124.71793699264526	
17	51.14943194389343	movie	1		217.0	15.0	2.5	/experiments/knapen_aot/videos/S_pexels-anna-tarazevich-6189268.mp4	0.0	124.72599482536316	2.508350133895874
17	53.65778207778931	fix_post	2		12.0	15.0	2.5	/experiments/knapen_aot/videos/S_pexels-anna-tarazevich-6189268.mp4	0.0	127.23434495925903	0.1000058650970459
18	53.75778794288635	fix_pre	0		241.0	16.0	2.5	/experiments/knapen_aot/videos/S_3WAnGcPubBY_143.mp4	0.0	127.33435082435608	2.0082390308380127
18	55.75797414779663	response	0	2		16.0	2.5	/experiments/knapen_aot/videos/S_3WAnGcPubBY_143.mp4	0.0	129.33453702926636	
18	55.766026973724365	movie	1		301.0	16.0	2.5	/experiments/knapen_aot/videos/S_3WAnGcPubBY_143.mp4	0.0	129.3425898551941	2.508427143096924
18	58.27445411682129	fix_post	2		12.0	16.0	2.5	/experiments/knapen_aot/videos/S_3WAnGcPubBY_143.mp4	0.0	131.85101699829102	0.09999680519104004
19	58.37445092201233	fix_pre	0		76.0	17.0	2.5	/experiments/knapen_aot/videos/S_pexels-anna-tarazevich-6189268.mp4	0.0	131.95101380348206	0.6341781616210938
19	58.999629974365234	response	0	2		17.0	2.5	/experiments/knapen_aot/videos/S_pexels-anna-tarazevich-6189268.mp4	0.0	132.57619285583496	
19	59.00862908363342	movie	1		207.0	17.0	2.5	/experiments/knapen_aot/videos/S_pexels-anna-tarazevich-6189268.mp4	0.0	132.58519196510315	2.5075268745422363
19	61.51615595817566	fix_post	2		12.0	17.0	2.5	/experiments/knapen_aot/videos/S_pexels-anna-tarazevich-6189268.mp4	0.0	135.09271883964539	0.09995198249816895
20	61.61610794067383	fix_pre	0		40.0	18.0	2.5	/experiments/knapen_aot/videos/R_S_yt-8N5UuN5WQcY_72.mp4	0.0	135.19267082214355	0.3333752155303955
20	61.94126892089844	response	0	2		18.0	2.5	/experiments/knapen_aot/videos/R_S_yt-8N5UuN5WQcY_72.mp4	0.0	135.51783180236816	
20	61.949483156204224	movie	1		301.0	18.0	2.5	/experiments/knapen_aot/videos/R_S_yt-8N5UuN5WQcY_72.mp4	0.0	135.52604603767395	2.508335828781128
20	64.45781898498535	fix_post	2		12.0	18.0	2.5	/experiments/knapen_aot/videos/R_S_yt-8N5UuN5WQcY_72.mp4	0.0	138.03438186645508	0.09998798370361328
21	64.55780696868896	fix_pre	0		68.0	19.0	2.5	blank	1.0	138.1343698501587	0.566673994064331
21	65.1162519454956	response	0	2		19.0	2.5	blank	1.0	138.69281482696533	
21	65.1244809627533	movie	1		301.0	19.0	2.5	blank	1.0	138.70104384422302	2.508319139480591
21	67.63280010223389	fix_post	2		12.0	19.0	2.5	blank	1.0	141.2093629837036	0.1000208854675293
22	67.73282098770142	fix_pre	0		110.0	20.0	2.5	/experiments/knapen_aot/videos/R_S_yt-MsSEF0krKE4_149.mp4	0.0	141.30938386917114	0.9166231155395508
22	68.64137196540833	response	0	2		20.0	2.5	/experiments/knapen_aot/videos/R_S_yt-MsSEF0krKE4_149.mp4	0.0	142.21793484687805	
22	68.64944410324097	movie	1		301.0	20.0	2.5	/experiments/knapen_aot/videos/R_S_yt-MsSEF0krKE4_149.mp4	0.0	142.2260069847107	2.508368968963623
22	71.15781307220459	fix_post	2		12.0	20.0	2.5	/experiments/knapen_aot/videos/R_S_yt-MsSEF0krKE4_149.mp4	0.0	144.73437595367432	0.09996891021728516
23	71.25778198242188	fix_pre	0		65.0	21.0	2.5	/experiments/knapen_aot/videos/S_yt-LsCCAQ8BRO8_7.mp4	0.0	144.8343448638916	0.5423829555511475
23	71.78369998931885	response	0	2		21.0	2.5	/experiments/knapen_aot/videos/S_yt-LsCCAQ8BRO8_7.mp4	0.0	145.36026287078857	
23	71.80016493797302	movie	1		300.0	21.0	2.5	/experiments/knapen_aot/videos/S_yt-LsCCAQ8BRO8_7.mp4	0.0	145.37672781944275	2.5076210498809814
23	74.307785987854	fix_post	2		12.0	21.0	2.5	/experiments/knapen_aot/videos/S_yt-LsCCAQ8BRO8_7.mp4	0.0	147.88434886932373	0.10007309913635254
24	74.40785908699036	fix_pre	0		71.0	22.0	2.5	/experiments/knapen_aot/videos/S_yt-bOgChEHiroI_20.mp4	0.0	147.98442196846008	0.5915179252624512
24	74.99122214317322	response	0	2		22.0	2.5	/experiments/knapen_aot/videos/S_yt-bOgChEHiroI_20.mp4	0.0	148.56778502464294	
24	74.99937701225281	movie	1		301.0	22.0	2.5	/experiments/knapen_aot/videos/S_yt-bOgChEHiroI_20.mp4	0.0	148.57593989372253	2.5083489418029785
24	77.50772595405579	fix_post	2		12.0	22.0	2.5	/experiments/knapen_aot/videos/S_yt-bOgChEHiroI_20.mp4	0.0	151.0842888355255	0.10003018379211426
25	77.6077561378479	fix_pre	0		54.0	23.0	2.5	/experiments/knapen_aot/videos/R_S_yt-JH6qCYAnX-I_70.mp4	0.0	151.18431901931763	0.44994497299194336
25	78.04949498176575	response	0	2		23.0	2.5	/experiments/knapen_aot/videos/R_S_yt-JH6qCYAnX-I_70.mp4	0.0	151.62605786323547	
25	78.05770111083984	movie	1		301.0	23.0	2.5	/experiments/knapen_aot/videos/R_S_yt-JH6qCYAnX-I_70.mp4	0.0	151.63426399230957	2.508430004119873
25	80.56613111495972	fix_post	2		12.0	23.0	2.5	/experiments/knapen_aot/videos/R_S_yt-JH6qCYAnX-I_70.mp4	0.0	154.14269399642944	0.09989500045776367
26	80.66602611541748	fix_pre	0		73.0	24.0	2.5	/experiments/knapen_aot/videos/R_S_ILSVRC2015_train_00371013.mp4	0.0	154.2425889968872	0.6082959175109863
26	81.2586190700531	response	0	2		24.0	2.5	/experiments/knapen_aot/videos/R_S_ILSVRC2015_train_00371013.mp4	0.0	154.83518195152283	
26	81.27432203292847	movie	1		301.0	24.0	2.5	/experiments/knapen_aot/videos/R_S_ILSVRC2015_train_00371013.mp4	0.0	154.8508849143982	2.508363962173462
26	83.78268599510193	fix_post	2		12.0	24.0	2.5	/experiments/knapen_aot/videos/R_S_ILSVRC2015_train_00371013.mp4	0.0	157.35924887657166	0.10001993179321289
27	83.88270592689514	fix_pre	0		57.0	25.0	2.5	/experiments/knapen_aot/videos/R_S_yt-o_CT2MjZ9fA_216.mp4	0.0	157.45926880836487	0.4749460220336914
27	84.34942698478699	response	0	2		25.0	2.5	/experiments/knapen_aot/videos/R_S_yt-o_CT2MjZ9fA_216.mp4	0.0	157.9259898662567	
27	84.35765194892883	movie	1		300.0	25.0	2.5	/experiments/knapen_aot/videos/R_S_yt-o_CT2MjZ9fA_216.mp4	0.0	157.93421483039856	2.508301019668579
27	86.86595296859741	fix_post	2		12.0	25.0	2.5	/experiments/knapen_aot/videos/R_S_yt-o_CT2MjZ9fA_216.mp4	0.0	160.44251585006714	0.1000680923461914
28	86.9660210609436	fix_pre	0		32.0	26.0	2.5	blank	1.0	160.54258394241333	0.26670193672180176
28	87.22438597679138	response	0	2		26.0	2.5	blank	1.0	160.8009488582611	
28	87.2327229976654	movie	1		301.0	26.0	2.5	blank	1.0	160.80928587913513	2.5082991123199463
28	89.74102210998535	fix_post	2		12.0	26.0	2.5	blank	1.0	163.31758499145508	0.09995293617248535
29	89.84097504615784	fix_pre	0		35.0	27.0	2.5	/experiments/knapen_aot/videos/S_yt-qE70lj3-A78_228.mp4	0.0	163.41753792762756	0.2923319339752197
29	90.12447309494019	response	0	2		27.0	2.5	/experiments/knapen_aot/videos/S_yt-qE70lj3-A78_228.mp4	0.0	163.7010359764099	
29	90.13330698013306	movie	1		301.0	27.0	2.5	/experiments/knapen_aot/videos/S_yt-qE70lj3-A78_228.mp4	0.0	163.70986986160278	2.507686138153076
29	92.64099311828613	fix_post	2		12.0	27.0	2.5	/experiments/knapen_aot/videos/S_yt-qE70lj3-A78_228.mp4	0.0	166.21755599975586	0.10000085830688477
30	92.74099397659302	fix_pre	0		30.0	28.0	2.5	/experiments/knapen_aot/videos/S_yt-PP93D7b7Ni4_10.mp4	0.0	166.31755685806274	0.24993014335632324
30	92.98276495933533	response	0	2		28.0	2.5	/experiments/knapen_aot/videos/S_yt-PP93D7b7Ni4_10.mp4	0.0	166.55932784080505	
30	92.99092411994934	movie	1		301.0	28.0	2.5	/experiments/knapen_aot/videos/S_yt-PP93D7b7Ni4_10.mp4	0.0	166.56748700141907	2.5084009170532227
30	95.49932503700256	fix_post	2		12.0	28.0	2.5	/experiments/knapen_aot/videos/S_yt-PP93D7b7Ni4_10.mp4	0.0	169.0758879184723	0.09998893737792969
31	95.5993139743805	fix_pre	0		25.0	29.0	2.5	/experiments/knapen_aot/videos/S_yt-NFb0SUCeiro_158.mp4	0.0	169.17587685585022	0.20829105377197266
31	95.79940915107727	response	0	2		29.0	2.5	/experiments/knapen_aot/videos/S_yt-NFb0SUCeiro_158.mp4	0.0	169.375972032547	
31	95.80760502815247	movie	1		301.0	29.0	2.5	/experiments/knapen_aot/videos/S_yt-NFb0SUCeiro_158.mp4	0.0	169.3841679096222	2.508316993713379
31	98.31592202186584	fix_post	2		12.0	29.0	2.5	/experiments/knapen_aot/videos/S_yt-NFb0SUCeiro_158.mp4	0.0	171.89248490333557	0.10003089904785156
32	98.4159529209137	fix_pre	0		40.0	30.0	2.5	/experiments/knapen_aot/videos/R_S_yt-ujdFTAUE8rc_34.mp4	0.0	171.99251580238342	0.3332691192626953
32	98.7410979270935	response	0	2		30.0	2.5	/experiments/knapen_aot/videos/R_S_yt-ujdFTAUE8rc_34.mp4	0.0	172.31766080856323	
32	98.74922204017639	movie	1		301.0	30.0	2.5	/experiments/knapen_aot/videos/R_S_yt-ujdFTAUE8rc_34.mp4	0.0	172.32578492164612	2.5083999633789062
32	101.2576220035553	fix_post	2		12.0	30.0	2.5	/experiments/knapen_aot/videos/R_S_yt-ujdFTAUE8rc_34.mp4	0.0	174.83418488502502	0.09999608993530273
33	101.3576180934906	fix_pre	0		208.0	31.0	2.5	/experiments/knapen_aot/videos/S_pexels-artem-podrez-5457692.mp4	0.0	174.93418097496033	1.7338910102844238
33	103.08277893066406	response	0	2		31.0	2.5	/experiments/knapen_aot/videos/S_pexels-artem-podrez-5457692.mp4	0.0	176.6593418121338	
33	103.09150910377502	movie	1		166.0	31.0	2.5	/experiments/knapen_aot/videos/S_pexels-artem-podrez-5457692.mp4	0.0	176.66807198524475	2.5077929496765137
33	105.59930205345154	fix_post	2		12.0	31.0	2.5	/experiments/knapen_aot/videos/S_pexels-artem-podrez-5457692.mp4	0.0	179.17586493492126	0.0999760627746582
34	105.6992781162262	fix_pre	0		13.0	32.0	2.5	/experiments/knapen_aot/videos/R_S_production_ID_3709168.mp4	0.0	179.27584099769592	0.1083378791809082
34	105.79940700531006	response	0	2		32.0	2.5	/experiments/knapen_aot/videos/R_S_production_ID_3709168.mp4	0.0	179.37596988677979	
34	105.8076159954071	movie	1		206.0	32.0	2.5	/experiments/knapen_aot/videos/R_S_production_ID_3709168.mp4	0.0	179.38417887687683	2.5083580017089844
34	108.31597399711609	fix_post	2		12.0	32.0	2.5	/experiments/knapen_aot/videos/R_S_production_ID_3709168.mp4	0.0	181.89253687858582	0.10003209114074707
35	108.41600608825684	fix_pre	0		5.0	33.0	2.5	/experiments/knapen_aot/videos/S_comp_H004_C007_PS_v02_SDR_PS_20180925_SDR_2K_AVC.mp4	0.0	181.99256896972656	0.04161500930786133
35	108.44945311546326	response	0	2		33.0	2.5	/experiments/knapen_aot/videos/S_comp_H004_C007_PS_v02_SDR_PS_20180925_SDR_2K_AVC.mp4	0.0	182.02601599693298	
35	108.4576210975647	movie	1		165.0	33.0	2.5	/experiments/knapen_aot/videos/S_comp_H004_C007_PS_v02_SDR_PS_20180925_SDR_2K_AVC.mp4	0.0	182.03418397903442	2.508417844772339
35	110.96603894233704	fix_post	2		12.0	33.0	2.5	/experiments/knapen_aot/videos/S_comp_H004_C007_PS_v02_SDR_PS_20180925_SDR_2K_AVC.mp4	0.0	184.54260182380676	0.09993410110473633
36	111.06597304344177	fix_pre	0		16.0	34.0	2.5	blank	1.0	184.6425359249115	0.13332509994506836
36	111.19101405143738	response	0	2		34.0	2.5	blank	1.0	184.7675769329071	
36	111.19929814338684	movie	1		301.0	34.0	2.5	blank	1.0	184.77586102485657	2.5082149505615234
36	113.70751309394836	fix_post	2		12.0	34.0	2.5	blank	1.0	187.2840759754181	0.10013103485107422
37	113.80764412879944	fix_pre	0		241.0	35.0	2.5	/experiments/knapen_aot/videos/S_yt-vY49oIv_dWg_73.mp4	0.0	187.38420701026917	2.008283853530884
37	115.8076069355011	response	0	2		35.0	2.5	/experiments/knapen_aot/videos/S_yt-vY49oIv_dWg_73.mp4	0.0	189.38416981697083	
37	115.81592798233032	movie	1		301.0	35.0	2.5	/experiments/knapen_aot/videos/S_yt-vY49oIv_dWg_73.mp4	0.0	189.39249086380005	2.5082409381866455
37	118.32416892051697	fix_post	2		12.0	35.0	2.5	/experiments/knapen_aot/videos/S_yt-vY49oIv_dWg_73.mp4	0.0	191.9007318019867	0.09997415542602539
38	118.424143075943	fix_pre	0		24.0	36.0	2.5	/experiments/knapen_aot/videos/S_ILSVRC2015_train_00723001.mp4	0.0	192.00070595741272	0.20002198219299316
38	118.61600399017334	response	0	2		36.0	2.5	/experiments/knapen_aot/videos/S_ILSVRC2015_train_00723001.mp4	0.0	192.19256687164307	
38	118.62416505813599	movie	1		301.0	36.0	2.5	/experiments/knapen_aot/videos/S_ILSVRC2015_train_00723001.mp4	0.0	192.2007279396057	2.508502960205078
38	121.13266801834106	fix_post	2		12.0	36.0	2.5	/experiments/knapen_aot/videos/S_ILSVRC2015_train_00723001.mp4	0.0	194.7092308998108	0.09983992576599121
39	121.23250794410706	fix_pre	0		21.0	37.0	2.5	/experiments/knapen_aot/videos/R_S_3WAnGcPubBY_143.mp4	0.0	194.80907082557678	0.17496800422668457
39	121.39937496185303	response	0	2		37.0	2.5	/experiments/knapen_aot/videos/R_S_3WAnGcPubBY_143.mp4	0.0	194.97593784332275	
39	121.40747594833374	movie	1		301.0	37.0	2.5	/experiments/knapen_aot/videos/R_S_3WAnGcPubBY_143.mp4	0.0	194.98403882980347	2.5084052085876465
39	123.91588115692139	fix_post	2		12.0	37.0	2.5	/experiments/knapen_aot/videos/R_S_3WAnGcPubBY_143.mp4	0.0	197.4924440383911	0.10004281997680664
40	124.0159239768982	fix_pre	0		16.0	38.0	2.5	/experiments/knapen_aot/videos/R_S_yt-2l6VKd94eAI_151.mp4	0.0	197.59248685836792	0.13326716423034668
40	124.14100813865662	response	0	2		38.0	2.5	/experiments/knapen_aot/videos/R_S_yt-2l6VKd94eAI_151.mp4	0.0	197.71757102012634	
40	124.14919114112854	movie	1		301.0	38.0	2.5	/experiments/knapen_aot/videos/R_S_yt-2l6VKd94eAI_151.mp4	0.0	197.72575402259827	2.50836181640625
40	126.65755295753479	fix_post	2		12.0	38.0	2.5	/experiments/knapen_aot/videos/R_S_yt-2l6VKd94eAI_151.mp4	0.0	200.23411583900452	0.09993815422058105
41	126.75749111175537	fix_pre	0		7.0	39.0	2.5	/experiments/knapen_aot/videos/S_production_ID_5146014.mp4	0.0	200.3340539932251	0.0583038330078125
41	126.80768609046936	response	0	2		39.0	2.5	/experiments/knapen_aot/videos/S_production_ID_5146014.mp4	0.0	200.3842489719391	
41	126.81579494476318	movie	1		168.0	39.0	2.5	/experiments/knapen_aot/videos/S_production_ID_5146014.mp4	0.0	200.3923578262329	2.508301019668579
41	129.32409596443176	fix_post	2		12.0	39.0	2.5	/experiments/knapen_aot/videos/S_production_ID_5146014.mp4	0.0	202.9006588459015	0.10006213188171387
42	129.42415809631348	fix_pre	0		8.0	40.0	2.5	blank	1.0	203.0007209777832	0.06665301322937012
42	129.47513794898987	response	0	2		40.0	2.5	blank	1.0	203.0517008304596	
42	129.49081110954285	movie	1		301.0	40.0	2.5	blank	1.0	203.06737399101257	2.508270025253296
42	131.99908113479614	fix_post	2		12.0	40.0	2.5	blank	1.0	205.57564401626587	0.10006284713745117
43	132.0991439819336	fix_pre	0		50.0	41.0	2.5	/experiments/knapen_aot/videos/S_ILSVRC2015_train_00587000.mp4	0.0	205.67570686340332	0.4166290760040283
43	132.5075831413269	response	0	2		41.0	2.5	/experiments/knapen_aot/videos/S_ILSVRC2015_train_00587000.mp4	0.0	206.08414602279663	
43	132.51577305793762	movie	1		301.0	41.0	2.5	/experiments/knapen_aot/videos/S_ILSVRC2015_train_00587000.mp4	0.0	206.09233593940735	2.5083560943603516
43	134.61963200569153	response	1	2		41.0	2.5	/experiments/knapen_aot/videos/S_ILSVRC2015_train_00587000.mp4	0.0	208.19619488716125	
43	135.02412915229797	fix_post	2		12.0	41.0	2.5	/experiments/knapen_aot/videos/S_ILSVRC2015_train_00587000.mp4	0.0	208.6006920337677	0.1000359058380127
44	135.124165058136	fix_pre	0		42.0	42.0	2.5	/experiments/knapen_aot/videos/R_S_yt-fk-z6WCvjjA_3.mp4	0.0	208.7007279396057	0.3500950336456299
44	135.46590209007263	response	0	2		42.0	2.5	/experiments/knapen_aot/videos/R_S_yt-fk-z6WCvjjA_3.mp4	0.0	209.04246497154236	
44	135.47426009178162	movie	1		299.0	42.0	2.5	/experiments/knapen_aot/videos/R_S_yt-fk-z6WCvjjA_3.mp4	0.0	209.05082297325134	2.5081698894500732
44	137.9824299812317	fix_post	2		12.0	42.0	2.5	/experiments/knapen_aot/videos/R_S_yt-fk-z6WCvjjA_3.mp4	0.0	211.55899286270142	0.1000220775604248
45	138.08245205879211	fix_pre	0		29.0	43.0	2.5	/experiments/knapen_aot/videos/R_S_bing-www_dailymotion_com_video_x64c56w_164.mp4	0.0	211.65901494026184	0.24163007736206055
45	138.31594800949097	response	0	2		43.0	2.5	/experiments/knapen_aot/videos/R_S_bing-www_dailymotion_com_video_x64c56w_164.mp4	0.0	211.8925108909607	
45	138.32408213615417	movie	1		180.0	43.0	2.5	/experiments/knapen_aot/videos/R_S_bing-www_dailymotion_com_video_x64c56w_164.mp4	0.0	211.9006450176239	2.508340835571289
45	140.83242297172546	fix_post	2		12.0	43.0	2.5	/experiments/knapen_aot/videos/R_S_bing-www_dailymotion_com_video_x64c56w_164.mp4	0.0	214.4089858531952	0.10002398490905762
46	140.93244695663452	fix_pre	0		58.0	44.0	2.5	/experiments/knapen_aot/videos/R_S_yt--wYgjXsc1XQ_106.mp4	0.0	214.50900983810425	0.4832630157470703
46	141.40759897232056	response	0	2		44.0	2.5	/experiments/knapen_aot/videos/R_S_yt--wYgjXsc1XQ_106.mp4	0.0	214.98416185379028	
46	141.4157099723816	movie	1		301.0	44.0	2.5	/experiments/knapen_aot/videos/R_S_yt--wYgjXsc1XQ_106.mp4	0.0	214.99227285385132	2.50828218460083
46	143.92399215698242	fix_post	2		12.0	44.0	2.5	/experiments/knapen_aot/videos/R_S_yt--wYgjXsc1XQ_106.mp4	0.0	217.50055503845215	0.10010290145874023
47	144.02409505844116	fix_pre	0		27.0	45.0	2.5	/experiments/knapen_aot/videos/R_S_yt-EApB0DJ3ECg_66.mp4	0.0	217.6006579399109	0.22504687309265137
47	144.2408800125122	response	0	2		45.0	2.5	/experiments/knapen_aot/videos/R_S_yt-EApB0DJ3ECg_66.mp4	0.0	217.81744289398193	
47	144.2491419315338	movie	1		299.0	45.0	2.5	/experiments/knapen_aot/videos/R_S_yt-EApB0DJ3ECg_66.mp4	0.0	217.82570481300354	2.508312225341797
47	146.7574541568756	fix_post	2		12.0	45.0	2.5	/experiments/knapen_aot/videos/R_S_yt-EApB0DJ3ECg_66.mp4	0.0	220.33401703834534	0.09996294975280762
48	146.85741710662842	fix_pre	0		13.0	46.0	2.5	/experiments/knapen_aot/videos/S_yt-mmvWYAttrIw_2.mp4	0.0	220.43397998809814	0.10866904258728027
48	146.9500811100006	response	0	2		46.0	2.5	/experiments/knapen_aot/videos/S_yt-mmvWYAttrIw_2.mp4	0.0	220.52664399147034	
48	146.9660861492157	movie	1		301.0	46.0	2.5	/experiments/knapen_aot/videos/S_yt-mmvWYAttrIw_2.mp4	0.0	220.54264903068542	2.5079429149627686
48	149.47402906417847	fix_post	2		12.0	46.0	2.5	/experiments/knapen_aot/videos/S_yt-mmvWYAttrIw_2.mp4	0.0	223.0505919456482	0.10002708435058594
49	149.57405614852905	fix_pre	0		23.0	47.0	2.5	/experiments/knapen_aot/videos/S_yt-C0INfEJ4Awk_53.mp4	0.0	223.15061902999878	0.19151592254638672
49	149.75757813453674	response	0	2		47.0	2.5	/experiments/knapen_aot/videos/S_yt-C0INfEJ4Awk_53.mp4	0.0	223.33414101600647	
49	149.76557207107544	movie	1		301.0	47.0	2.5	/experiments/knapen_aot/videos/S_yt-C0INfEJ4Awk_53.mp4	0.0	223.34213495254517	2.5084409713745117
49	152.27401304244995	fix_post	2		12.0	47.0	2.5	/experiments/knapen_aot/videos/S_yt-C0INfEJ4Awk_53.mp4	0.0	225.85057592391968	0.10003209114074707
50	152.3740451335907	fix_pre	0		30.0	48.0	2.5	/experiments/knapen_aot/videos/S_yt-r2jZ0zZrqzQ_45.mp4	0.0	225.95060801506042	0.2499527931213379
50	152.61581897735596	response	0	2		48.0	2.5	/experiments/knapen_aot/videos/S_yt-r2jZ0zZrqzQ_45.mp4	0.0	226.19238185882568	
50	152.62399792671204	movie	1		301.0	48.0	2.5	/experiments/knapen_aot/videos/S_yt-r2jZ0zZrqzQ_45.mp4	0.0	226.20056080818176	2.508366107940674
50	155.1323640346527	fix_post	2		12.0	48.0	2.5	/experiments/knapen_aot/videos/S_yt-r2jZ0zZrqzQ_45.mp4	0.0	228.70892691612244	0.10002398490905762
51	155.23238801956177	fix_pre	0		26.0	49.0	2.5	blank	1.0	228.8089509010315	0.2166149616241455
51	155.44081211090088	response	0	2		49.0	2.5	blank	1.0	229.0173749923706	
51	155.4490029811859	movie	1		301.0	49.0	2.5	blank	1.0	229.02556586265564	2.5083961486816406
51	157.95739912986755	fix_post	2		12.0	49.0	2.5	blank	1.0	231.53396201133728	0.09994888305664062
52	158.0573480129242	fix_pre	0		58.0	50.0	2.5	/experiments/knapen_aot/videos/S_P007_C027_UHD_SDR_2K_AVC.mp4	0.0	231.63391089439392	0.4832580089569092
52	158.53250813484192	response	0	2		50.0	2.5	/experiments/knapen_aot/videos/S_P007_C027_UHD_SDR_2K_AVC.mp4	0.0	232.10907101631165	
52	158.5406060218811	movie	1		168.0	50.0	2.5	/experiments/knapen_aot/videos/S_P007_C027_UHD_SDR_2K_AVC.mp4	0.0	232.11716890335083	2.508462905883789
52	161.0490689277649	fix_post	2		12.0	50.0	2.5	/experiments/knapen_aot/videos/S_P007_C027_UHD_SDR_2K_AVC.mp4	0.0	234.62563180923462	0.09998202323913574
53	161.14905095100403	fix_pre	0		14.0	51.0	2.5	/experiments/knapen_aot/videos/S_yt-0Zze3Ff12Ys_58.mp4	0.0	234.72561383247375	0.11660003662109375
53	161.2574520111084	response	0	2		51.0	2.5	/experiments/knapen_aot/videos/S_yt-0Zze3Ff12Ys_58.mp4	0.0	234.83401489257812	
53	161.26565098762512	movie	1		300.0	51.0	2.5	/experiments/knapen_aot/videos/S_yt-0Zze3Ff12Ys_58.mp4	0.0	234.84221386909485	2.5083770751953125
53	163.77402806282043	fix_post	2		12.0	51.0	2.5	/experiments/knapen_aot/videos/S_yt-0Zze3Ff12Ys_58.mp4	0.0	237.35059094429016	0.09992408752441406
54	163.87395215034485	fix_pre	0		15.0	52.0	2.5	/experiments/knapen_aot/videos/R_S_yt-LYnwnfi1JJ4_120.mp4	0.0	237.45051503181458	0.12506985664367676
54	163.99083399772644	response	0	2		52.0	2.5	/experiments/knapen_aot/videos/R_S_yt-LYnwnfi1JJ4_120.mp4	0.0	237.56739687919617	
54	163.99902200698853	movie	1		301.0	52.0	2.5	/experiments/knapen_aot/videos/R_S_yt-LYnwnfi1JJ4_120.mp4	0.0	237.57558488845825	2.5085599422454834
54	166.507581949234	fix_post	2		12.0	52.0	2.5	/experiments/knapen_aot/videos/R_S_yt-LYnwnfi1JJ4_120.mp4	0.0	240.08414483070374	0.09965014457702637
55	166.60723209381104	fix_pre	0		30.0	53.0	2.5	/experiments/knapen_aot/videos/S_ILSVRC2015_train_00682007.mp4	0.0	240.18379497528076	0.2501089572906494
55	166.84911394119263	response	0	2		53.0	2.5	/experiments/knapen_aot/videos/S_ILSVRC2015_train_00682007.mp4	0.0	240.42567682266235	
55	166.85734105110168	movie	1		301.0	53.0	2.5	/experiments/knapen_aot/videos/S_ILSVRC2015_train_00682007.mp4	0.0	240.4339039325714	2.508358955383301
55	169.36570000648499	fix_post	2		12.0	53.0	2.5	/experiments/knapen_aot/videos/S_ILSVRC2015_train_00682007.mp4	0.0	242.9422628879547	0.1002340316772461
56	169.46593403816223	fix_pre	0		28.0	54.0	2.5	/experiments/knapen_aot/videos/S_AK_A004_C012_SDR_20191217_SDR_2K_AVC.mp4	0.0	243.04249691963196	0.23308992385864258
56	169.690819978714	response	0	2		54.0	2.5	/experiments/knapen_aot/videos/S_AK_A004_C012_SDR_20191217_SDR_2K_AVC.mp4	0.0	243.26738286018372	
56	169.69902396202087	movie	1		165.0	54.0	2.5	/experiments/knapen_aot/videos/S_AK_A004_C012_SDR_20191217_SDR_2K_AVC.mp4	0.0	243.2755868434906	2.5083651542663574
56	172.20738911628723	fix_post	2		12.0	54.0	2.5	/experiments/knapen_aot/videos/S_AK_A004_C012_SDR_20191217_SDR_2K_AVC.mp4	0.0	245.78395199775696	0.09989500045776367
57	172.307284116745	fix_pre	0		31.0	55.0	2.5	blank	1.0	245.88384699821472	0.258314847946167
57	172.5575089454651	response	0	2		55.0	2.5	blank	1.0	246.13407182693481	
57	172.56559896469116	movie	1		301.0	55.0	2.5	blank	1.0	246.1421618461609	2.508347988128662
57	175.07394695281982	fix_post	2		12.0	55.0	2.5	blank	1.0	248.65050983428955	0.10025310516357422
58	175.1742000579834	fix_pre	0		30.0	56.0	2.5	/experiments/knapen_aot/videos/S_production_ID_5144824.mp4	0.0	248.75076293945312	0.24991798400878906
58	175.4157829284668	response	0	2		56.0	2.5	/experiments/knapen_aot/videos/S_production_ID_5144824.mp4	0.0	248.99234580993652	
58	175.4241180419922	movie	1		163.0	56.0	2.5	/experiments/knapen_aot/videos/S_production_ID_5144824.mp4	0.0	249.0006809234619	2.5081100463867188
58	177.9322280883789	fix_post	2		12.0	56.0	2.5	/experiments/knapen_aot/videos/S_production_ID_5144824.mp4	0.0	251.50879096984863	0.10005903244018555
59	178.0322871208191	fix_pre	0		19.0	57.0	2.5	/experiments/knapen_aot/videos/R_S_yt-c-H45QS0CF4_147.mp4	0.0	251.60885000228882	0.15832281112670898
59	178.18245697021484	response	0	2		57.0	2.5	/experiments/knapen_aot/videos/R_S_yt-c-H45QS0CF4_147.mp4	0.0	251.75901985168457	
59	178.1906099319458	movie	1		301.0	57.0	2.5	/experiments/knapen_aot/videos/R_S_yt-c-H45QS0CF4_147.mp4	0.0	251.76717281341553	2.5082790851593018
59	180.6988890171051	fix_post	2		12.0	57.0	2.5	/experiments/knapen_aot/videos/R_S_yt-c-H45QS0CF4_147.mp4	0.0	254.27545189857483	0.10021305084228516
60	180.7991020679474	fix_pre	0		30.0	58.0	2.5	/experiments/knapen_aot/videos/S_yt-TZ107yBhXoA_1.mp4	0.0	254.37566494941711	0.24998998641967773
60	181.04077911376953	response	0	2		58.0	2.5	/experiments/knapen_aot/videos/S_yt-TZ107yBhXoA_1.mp4	0.0	254.61734199523926	
60	181.04909205436707	movie	1		301.0	58.0	2.5	/experiments/knapen_aot/videos/S_yt-TZ107yBhXoA_1.mp4	0.0	254.6256549358368	2.508157968521118
60	183.55725002288818	fix_post	2		12.0	58.0	2.5	/experiments/knapen_aot/videos/S_yt-TZ107yBhXoA_1.mp4	0.0	257.1338129043579	0.10004591941833496
61	183.65729594230652	fix_pre	0		16.0	59.0	2.5	/experiments/knapen_aot/videos/R_S_3WAnGcPubBY_143.mp4	0.0	257.23385882377625	0.13330817222595215
61	183.78244495391846	response	0	2		59.0	2.5	/experiments/knapen_aot/videos/R_S_3WAnGcPubBY_143.mp4	0.0	257.3590078353882	
61	183.79060411453247	movie	1		301.0	59.0	2.5	/experiments/knapen_aot/videos/R_S_3WAnGcPubBY_143.mp4	0.0	257.3671669960022	2.5084598064422607
61	186.29906392097473	fix_post	2		12.0	59.0	2.5	/experiments/knapen_aot/videos/R_S_3WAnGcPubBY_143.mp4	0.0	259.87562680244446	0.09981012344360352
62	186.39887404441833	fix_pre	0		20.0	60.0	2.5	/experiments/knapen_aot/videos/S_yt-E8EDQCPbBeI_196.mp4	0.0	259.97543692588806	0.16662287712097168
62	186.55742192268372	response	0	2		60.0	2.5	/experiments/knapen_aot/videos/S_yt-E8EDQCPbBeI_196.mp4	0.0	260.13398480415344	
62	186.5654969215393	movie	1		301.0	60.0	2.5	/experiments/knapen_aot/videos/S_yt-E8EDQCPbBeI_196.mp4	0.0	260.14205980300903	2.5084052085876465
62	189.07390213012695	fix_post	2		12.0	60.0	2.5	/experiments/knapen_aot/videos/S_yt-E8EDQCPbBeI_196.mp4	0.0	262.6504650115967	0.10014891624450684
63	189.17405104637146	fix_pre	0		15.0	61.0	2.5	/experiments/knapen_aot/videos/R_S_FK_U009_C004_SDR_20191220_SDR_2K_AVC.mp4	0.0	262.7506139278412	0.12498307228088379
63	189.29069995880127	response	0	2		61.0	2.5	/experiments/knapen_aot/videos/R_S_FK_U009_C004_SDR_20191220_SDR_2K_AVC.mp4	0.0	262.867262840271	
63	189.29903411865234	movie	1		166.0	61.0	2.5	/experiments/knapen_aot/videos/R_S_FK_U009_C004_SDR_20191220_SDR_2K_AVC.mp4	0.0	262.87559700012207	2.5081608295440674
63	191.8071949481964	fix_post	2		12.0	61.0	2.5	/experiments/knapen_aot/videos/R_S_FK_U009_C004_SDR_20191220_SDR_2K_AVC.mp4	0.0	265.38375782966614	0.1000220775604248
64	191.90721702575684	fix_pre	0		41.0	62.0	2.5	/experiments/knapen_aot/videos/R_S_pexels-tima-miroshnichenko-6077718.mp4	0.0	265.48377990722656	0.34166908264160156
64	192.23317098617554	response	0	2		62.0	2.5	/experiments/knapen_aot/videos/R_S_pexels-tima-miroshnichenko-6077718.mp4	0.0	265.80973386764526	
64	192.24888610839844	movie	1		168.0	62.0	2.5	/experiments/knapen_aot/videos/R_S_pexels-tima-miroshnichenko-6077718.mp4	0.0	265.82544898986816	2.5084149837493896
64	194.75730109214783	fix_post	2		12.0	62.0	2.5	/experiments/knapen_aot/videos/R_S_pexels-tima-miroshnichenko-6077718.mp4	0.0	268.33386397361755	0.09995698928833008
65	194.85725808143616	fix_pre	0		12.0	63.0	2.5	blank	1.0	268.4338209629059	0.09991788864135742
65	194.94902396202087	response	0	2		63.0	2.5	blank	1.0	268.5255868434906	
65	194.95717597007751	movie	1		301.0	63.0	2.5	blank	1.0	268.53373885154724	2.5084450244903564
65	197.46562099456787	fix_post	2		12.0	63.0	2.5	blank	1.0	271.0421838760376	0.09993696212768555
66	197.56555795669556	fix_pre	0		37.0	64.0	2.5	/experiments/knapen_aot/videos/R_S_comp_LA_A008_C004_ALTB_ED_FROM_FLAME_RETIME_v46_SDR_PS_20180917_SDR_2K_AVC.mp4	0.0	271.1421208381653	0.30826711654663086
66	197.86564707756042	response	0	2		64.0	2.5	/experiments/knapen_aot/videos/R_S_comp_LA_A008_C004_ALTB_ED_FROM_FLAME_RETIME_v46_SDR_PS_20180917_SDR_2K_AVC.mp4	0.0	271.44220995903015	
66	197.8738250732422	movie	1		172.0	64.0	2.5	/experiments/knapen_aot/videos/R_S_comp_LA_A008_C004_ALTB_ED_FROM_FLAME_RETIME_v46_SDR_PS_20180917_SDR_2K_AVC.mp4	0.0	271.4503879547119	2.5085439682006836
66	200.38236904144287	fix_post	2		12.0	64.0	2.5	/experiments/knapen_aot/videos/R_S_comp_LA_A008_C004_ALTB_ED_FROM_FLAME_RETIME_v46_SDR_PS_20180917_SDR_2K_AVC.mp4	0.0	273.9589319229126	0.09986209869384766
67	200.48223114013672	fix_pre	0		9.0	65.0	2.5	/experiments/knapen_aot/videos/S_yt-NFb0SUCeiro_158.mp4	0.0	274.05879402160645	0.07494997978210449
67	200.5490369796753	response	0	2		65.0	2.5	/experiments/knapen_aot/videos/S_yt-NFb0SUCeiro_158.mp4	0.0	274.125599861145	
67	200.55718111991882	movie	1		301.0	65.0	2.5	/experiments/knapen_aot/videos/S_yt-NFb0SUCeiro_158.mp4	0.0	274.13374400138855	2.5083470344543457
67	203.06552815437317	fix_post	2		12.0	65.0	2.5	/experiments/knapen_aot/videos/S_yt-NFb0SUCeiro_158.mp4	0.0	276.6420910358429	0.10003495216369629
68	203.16556310653687	fix_pre	0		21.0	66.0	2.5	/experiments/knapen_aot/videos/R_S_ILSVRC2015_train_00551000.mp4	0.0	276.7421259880066	0.1749708652496338
68	203.33225202560425	response	0	2		66.0	2.5	/experiments/knapen_aot/videos/R_S_ILSVRC2015_train_00551000.mp4	0.0	276.908814907074	
68	203.3405339717865	movie	1		301.0	66.0	2.5	/experiments/knapen_aot/videos/R_S_ILSVRC2015_train_00551000.mp4	0.0	276.9170968532562	2.5082600116729736
68	205.84879398345947	fix_post	2		12.0	66.0	2.5	/experiments/knapen_aot/videos/R_S_ILSVRC2015_train_00551000.mp4	0.0	279.4253568649292	0.10006308555603027
69	205.9488570690155	fix_pre	0		29.0	67.0	2.5	/experiments/knapen_aot/videos/S_S005_C015_SDR_2K_AVC.mp4	0.0	279.52541995048523	0.2417299747467041
69	206.18222308158875	response	0	2		67.0	2.5	/experiments/knapen_aot/videos/S_S005_C015_SDR_2K_AVC.mp4	0.0	279.7587859630585	
69	206.1905870437622	movie	1		171.0	67.0	2.5	/experiments/knapen_aot/videos/S_S005_C015_SDR_2K_AVC.mp4	0.0	279.76714992523193	2.5082719326019287
69	208.69885897636414	fix_post	2		12.0	67.0	2.5	/experiments/knapen_aot/videos/S_S005_C015_SDR_2K_AVC.mp4	0.0	282.27542185783386	0.0999300479888916
70	208.79878902435303	fix_pre	0		44.0	68.0	2.5	/experiments/knapen_aot/videos/S_yt-pPIHiIYSjW8_653.mp4	0.0	282.37535190582275	0.3666989803314209
70	209.15730595588684	response	0	2		68.0	2.5	/experiments/knapen_aot/videos/S_yt-pPIHiIYSjW8_653.mp4	0.0	282.73386883735657	
70	209.16548800468445	movie	1		300.0	68.0	2.5	/experiments/knapen_aot/videos/S_yt-pPIHiIYSjW8_653.mp4	0.0	282.7420508861542	2.5083539485931396
70	211.6738419532776	fix_post	2		12.0	68.0	2.5	/experiments/knapen_aot/videos/S_yt-pPIHiIYSjW8_653.mp4	0.0	285.2504048347473	0.10001206398010254
71	211.7738540172577	fix_pre	0		26.0	69.0	2.5	/experiments/knapen_aot/videos/S_yt-SHTeTAnZgho_43.mp4	0.0	285.3504168987274	0.21658802032470703
71	211.9823501110077	response	0	2		69.0	2.5	/experiments/knapen_aot/videos/S_yt-SHTeTAnZgho_43.mp4	0.0	285.5589129924774	
71	211.9904420375824	movie	1		301.0	69.0	2.5	/experiments/knapen_aot/videos/S_yt-SHTeTAnZgho_43.mp4	0.0	285.5670049190521	2.5083460807800293
71	214.49878811836243	fix_post	2		12.0	69.0	2.5	/experiments/knapen_aot/videos/S_yt-SHTeTAnZgho_43.mp4	0.0	288.07535099983215	0.1000368595123291
72	214.59882497787476	fix_pre	0		32.0	70.0	2.5	blank	1.0	288.1753878593445	0.26653409004211426
72	214.8572540283203	response	0	2		70.0	2.5	blank	1.0	288.43381690979004	
72	214.86535906791687	movie	1		301.0	70.0	2.5	blank	1.0	288.4419219493866	2.5083329677581787
72	217.37369203567505	fix_post	2		12.0	70.0	2.5	blank	1.0	290.9502549171448	0.10013103485107422
73	217.47382307052612	fix_pre	0		27.0	71.0	2.5	/experiments/knapen_aot/videos/R_S_wc-auTIuWLTxxkn_5.mp4	0.0	291.05038595199585	0.22493696212768555
73	217.6905801296234	response	0	2		71.0	2.5	/experiments/knapen_aot/videos/R_S_wc-auTIuWLTxxkn_5.mp4	0.0	291.26714301109314	
73	217.6987600326538	movie	1		170.0	71.0	2.5	/experiments/knapen_aot/videos/R_S_wc-auTIuWLTxxkn_5.mp4	0.0	291.27532291412354	2.5084121227264404
73	220.20717215538025	fix_post	2		12.0	71.0	2.5	/experiments/knapen_aot/videos/R_S_wc-auTIuWLTxxkn_5.mp4	0.0	293.78373503685	0.09995293617248535
74	220.30712509155273	fix_pre	0		23.0	72.0	2.5	/experiments/knapen_aot/videos/R_S_yt-tX3slAQb9yY_13.mp4	0.0	293.88368797302246	0.19303488731384277
74	220.49053502082825	response	0	2		72.0	2.5	/experiments/knapen_aot/videos/R_S_yt-tX3slAQb9yY_13.mp4	0.0	294.067097902298	
74	220.50015997886658	movie	1		298.0	72.0	2.5	/experiments/knapen_aot/videos/R_S_yt-tX3slAQb9yY_13.mp4	0.0	294.0767228603363	2.506991147994995
74	223.00715112686157	fix_post	2		12.0	72.0	2.5	/experiments/knapen_aot/videos/R_S_yt-tX3slAQb9yY_13.mp4	0.0	296.5837140083313	0.09994983673095703
75	223.10710096359253	fix_pre	0		23.0	73.0	2.5	/experiments/knapen_aot/videos/S_ILSVRC2015_train_00723001.mp4	0.0	296.68366384506226	0.19171905517578125
75	223.29057502746582	response	0	2		73.0	2.5	/experiments/knapen_aot/videos/S_ILSVRC2015_train_00723001.mp4	0.0	296.86713790893555	
75	223.2988200187683	movie	1		301.0	73.0	2.5	/experiments/knapen_aot/videos/S_ILSVRC2015_train_00723001.mp4	0.0	296.87538290023804	2.508234977722168
75	225.80705499649048	fix_post	2		12.0	73.0	2.5	/experiments/knapen_aot/videos/S_ILSVRC2015_train_00723001.mp4	0.0	299.3836178779602	0.10010194778442383
76	225.9071569442749	fix_pre	0		51.0	74.0	2.5	/experiments/knapen_aot/videos/R_S_yt-z5rxY-WhFNw_15.mp4	0.0	299.48371982574463	0.42631006240844727
76	226.3239459991455	response	0	2		74.0	2.5	/experiments/knapen_aot/videos/R_S_yt-z5rxY-WhFNw_15.mp4	0.0	299.90050888061523	
76	226.33346700668335	movie	1		301.0	74.0	2.5	/experiments/knapen_aot/videos/R_S_yt-z5rxY-WhFNw_15.mp4	0.0	299.9100298881531	2.5070059299468994
76	228.84047293663025	fix_post	2		12.0	74.0	2.5	/experiments/knapen_aot/videos/R_S_yt-z5rxY-WhFNw_15.mp4	0.0	302.4170358181	0.09998202323913574
77	228.94045495986938	fix_pre	0		22.0	75.0	2.5	blank	1.0	302.5170178413391	0.18335199356079102
77	229.11560606956482	response	0	2		75.0	2.5	blank	1.0	302.69216895103455	
77	229.12380695343018	movie	1		301.0	75.0	2.5	blank	1.0	302.7003698348999	2.5082480907440186
77	231.6320550441742	fix_post	2		12.0	75.0	2.5	blank	1.0	305.2086179256439	0.0999760627746582
78	231.73203110694885	fix_pre	0		32.0	76.0	2.5	/experiments/knapen_aot/videos/R_S_production_ID_3709168.mp4	0.0	305.3085939884186	0.26796984672546387
78	231.99054503440857	response	0	2		76.0	2.5	/experiments/knapen_aot/videos/R_S_production_ID_3709168.mp4	0.0	305.5671079158783	
78	232.00000095367432	movie	1		196.0	76.0	2.5	/experiments/knapen_aot/videos/R_S_production_ID_3709168.mp4	0.0	305.57656383514404	2.507059097290039
78	234.50706005096436	fix_post	2		12.0	76.0	2.5	/experiments/knapen_aot/videos/R_S_production_ID_3709168.mp4	0.0	308.0836229324341	0.10006499290466309
79	234.60712504386902	fix_pre	0		49.0	77.0	2.5	/experiments/knapen_aot/videos/S_yt-RWN5qOIgqec_25.mp4	0.0	308.18368792533875	0.4083099365234375
79	235.0072660446167	response	0	2		77.0	2.5	/experiments/knapen_aot/videos/S_yt-RWN5qOIgqec_25.mp4	0.0	308.5838289260864	
79	235.01543498039246	movie	1		301.0	77.0	2.5	/experiments/knapen_aot/videos/S_yt-RWN5qOIgqec_25.mp4	0.0	308.5919978618622	2.508234977722168
79	237.52366995811462	fix_post	2		12.0	77.0	2.5	/experiments/knapen_aot/videos/S_yt-RWN5qOIgqec_25.mp4	0.0	311.10023283958435	0.10007500648498535
80	237.6237449645996	fix_pre	0		35.0	78.0	2.5	/experiments/knapen_aot/videos/R_S_yt-Dwgpjoikt84_71.mp4	0.0	311.20030784606934	0.2929210662841797
80	237.907231092453	response	0	2		78.0	2.5	/experiments/knapen_aot/videos/R_S_yt-Dwgpjoikt84_71.mp4	0.0	311.48379397392273	
80	237.9166660308838	movie	1		301.0	78.0	2.5	/experiments/knapen_aot/videos/R_S_yt-Dwgpjoikt84_71.mp4	0.0	311.4932289123535	2.5071029663085938
80	240.42376899719238	fix_post	2		12.0	78.0	2.5	/experiments/knapen_aot/videos/R_S_yt-Dwgpjoikt84_71.mp4	0.0	314.0003318786621	0.09999203681945801
81	240.52376103401184	fix_pre	0		34.0	79.0	2.5	/experiments/knapen_aot/videos/S_comp_GL_G010_C006_PSNK_NOSUN_v12_SDR_PS_FINAL_20180709_SDR_2K_AVC.mp4	0.0	314.10032391548157	0.2832760810852051
81	240.79891896247864	response	0	2		79.0	2.5	/experiments/knapen_aot/videos/S_comp_GL_G010_C006_PSNK_NOSUN_v12_SDR_PS_FINAL_20180709_SDR_2K_AVC.mp4	0.0	314.37548184394836	
81	240.80703711509705	movie	1		163.0	79.0	2.5	/experiments/knapen_aot/videos/S_comp_GL_G010_C006_PSNK_NOSUN_v12_SDR_PS_FINAL_20180709_SDR_2K_AVC.mp4	0.0	314.3835999965668	2.50832200050354
81	243.3153591156006	fix_post	2		12.0	79.0	2.5	/experiments/knapen_aot/videos/S_comp_GL_G010_C006_PSNK_NOSUN_v12_SDR_PS_FINAL_20180709_SDR_2K_AVC.mp4	0.0	316.8919219970703	0.0999908447265625
82	243.41534996032715	fix_pre	0		16.0	80.0	2.5	/experiments/knapen_aot/videos/S_production_ID_3927047.mp4	0.0	316.9919128417969	0.13332009315490723
82	243.54039597511292	response	0	2		80.0	2.5	/experiments/knapen_aot/videos/S_production_ID_3927047.mp4	0.0	317.11695885658264	
82	243.54867005348206	movie	1		175.0	80.0	2.5	/experiments/knapen_aot/videos/S_production_ID_3927047.mp4	0.0	317.1252329349518	2.5083489418029785
82	246.05701899528503	fix_post	2		12.0	80.0	2.5	/experiments/knapen_aot/videos/S_production_ID_3927047.mp4	0.0	319.63358187675476	0.09996509552001953
83	246.15698409080505	fix_pre	0		10.0	81.0	2.5	/experiments/knapen_aot/videos/S_yt-rlEPywo5BEQ_36.mp4	0.0	319.7335469722748	0.0833289623260498
83	246.2321150302887	response	0	2		81.0	2.5	/experiments/knapen_aot/videos/S_yt-rlEPywo5BEQ_36.mp4	0.0	319.8086779117584	
83	246.2403130531311	movie	1		301.0	81.0	2.5	/experiments/knapen_aot/videos/S_yt-rlEPywo5BEQ_36.mp4	0.0	319.81687593460083	2.5083210468292236
83	248.74863409996033	fix_post	2		12.0	81.0	2.5	/experiments/knapen_aot/videos/S_yt-rlEPywo5BEQ_36.mp4	0.0	322.32519698143005	0.10004496574401855
84	248.84867906570435	fix_pre	0		22.0	82.0	2.5	/experiments/knapen_aot/videos/R_S_yt-YykKZWKmLnQ_386.mp4	0.0	322.4252419471741	0.18330693244934082
84	249.02378702163696	response	0	2		82.0	2.5	/experiments/knapen_aot/videos/R_S_yt-YykKZWKmLnQ_386.mp4	0.0	322.6003499031067	
84	249.0319859981537	movie	1		300.0	82.0	2.5	/experiments/knapen_aot/videos/R_S_yt-YykKZWKmLnQ_386.mp4	0.0	322.6085488796234	2.5083529949188232
84	251.5403389930725	fix_post	2		12.0	82.0	2.5	/experiments/knapen_aot/videos/R_S_yt-YykKZWKmLnQ_386.mp4	0.0	325.11690187454224	0.10000896453857422
85	251.64034795761108	fix_pre	0		14.0	83.0	2.5	blank	1.0	325.2169108390808	0.11667203903198242
85	251.74871397018433	response	0	2		83.0	2.5	blank	1.0	325.32527685165405	
85	251.75701999664307	movie	1		301.0	83.0	2.5	blank	1.0	325.3335828781128	2.5083389282226562
85	254.26535892486572	fix_post	2		12.0	83.0	2.5	blank	1.0	327.84192180633545	0.09995508193969727
87	254.36531400680542	stim	0		292.0					327.94187688827515	2.4333701133728027
87	254.61542892456055	response	0	2						328.1919918060303	
87	256.7942759990692	response	0	space						330.37083888053894	
