trial_nr	onset	event_type	phase	response	nr_frames	movie_index	movie_duration	movie_file	blank	onset_abs	duration
0	0.12471818923950195	stim	0		31.0					116.37501311302185	0.2584679126739502
0	0.37485814094543457	response	0	space						116.62515306472778	
1	0.38318610191345215	stim	0		121.0					116.6334810256958	1.0078630447387695
1	1.0577950477600098	response	0	space						117.30808997154236	
1	1.3910491466522217	stim	1		120.0					117.64134407043457	0.9999430179595947
1	1.4078381061553955	response	1	space						117.65813302993774	
1	1.8995141983032227	response	1	space						118.14980912208557	
2	2.3909921646118164	fix_pre	0		27.0	0.0	2.5	/experiments/knapen_aot/videos/R_S_yt-9Q7SZR0mgMA_155.mp4	0.0	118.64128708839417	0.22499489784240723
2	2.6078240871429443	response	0	space		0.0	2.5	/experiments/knapen_aot/videos/R_S_yt-9Q7SZR0mgMA_155.mp4	0.0	118.8581190109253	
2	2.6159870624542236	movie	1		301.0	0.0	2.5	/experiments/knapen_aot/videos/R_S_yt-9Q7SZR0mgMA_155.mp4	0.0	118.86628198623657	2.508388042449951
2	5.124375104904175	fix_post	2		12.0	0.0	2.5	/experiments/knapen_aot/videos/R_S_yt-9Q7SZR0mgMA_155.mp4	0.0	121.37467002868652	0.10000491142272949
3	5.224380016326904	fix_pre	0		80.0	1.0	2.5	/experiments/knapen_aot/videos/S_production_ID_4325513.mp4	0.0	121.47467494010925	0.6690120697021484
3	5.8803160190582275	response	0	2		1.0	2.5	/experiments/knapen_aot/videos/S_production_ID_4325513.mp4	0.0	122.13061094284058	
3	5.893392086029053	movie	1		195.0	1.0	2.5	/experiments/knapen_aot/videos/S_production_ID_4325513.mp4	0.0	122.1436870098114	2.5059430599212646
3	8.399335145950317	fix_post	2		12.0	1.0	2.5	/experiments/knapen_aot/videos/S_production_ID_4325513.mp4	0.0	124.64963006973267	0.10005903244018555
4	8.499394178390503	fix_pre	0		126.0	2.0	2.5	/experiments/knapen_aot/videos/R_S_yt-D9uD7yM6bxQ_269.mp4	0.0	124.74968910217285	1.0500450134277344
4	9.541182041168213	response	0	2		2.0	2.5	/experiments/knapen_aot/videos/R_S_yt-D9uD7yM6bxQ_269.mp4	0.0	125.79147696495056	
4	9.549439191818237	movie	1		301.0	2.0	2.5	/experiments/knapen_aot/videos/R_S_yt-D9uD7yM6bxQ_269.mp4	0.0	125.79973411560059	2.508220911026001
4	12.057660102844238	fix_post	2		12.0	2.0	2.5	/experiments/knapen_aot/videos/R_S_yt-D9uD7yM6bxQ_269.mp4	0.0	128.3079550266266	0.0999300479888916
5	12.15759015083313	fix_pre	0		102.0	3.0	2.5	/experiments/knapen_aot/videos/S_yt-9pUeQix6EW8_7.mp4	0.0	128.40788507461548	0.8500409126281738
5	12.99948000907898	response	0	2		3.0	2.5	/experiments/knapen_aot/videos/S_yt-9pUeQix6EW8_7.mp4	0.0	129.24977493286133	
5	13.007631063461304	movie	1		301.0	3.0	2.5	/experiments/knapen_aot/videos/S_yt-9pUeQix6EW8_7.mp4	0.0	129.25792598724365	2.5083839893341064
5	15.51601505279541	fix_post	2		12.0	3.0	2.5	/experiments/knapen_aot/videos/S_yt-9pUeQix6EW8_7.mp4	0.0	131.76630997657776	0.10002303123474121
6	15.616038084030151	fix_pre	0		122.0	4.0	2.5	/experiments/knapen_aot/videos/R_S_yt-s2tZ2NIQrxg_175.mp4	0.0	131.8663330078125	1.0165660381317139
6	16.6245059967041	response	0	2		4.0	2.5	/experiments/knapen_aot/videos/R_S_yt-s2tZ2NIQrxg_175.mp4	0.0	132.87480092048645	
6	16.632604122161865	movie	1		301.0	4.0	2.5	/experiments/knapen_aot/videos/R_S_yt-s2tZ2NIQrxg_175.mp4	0.0	132.8828990459442	2.5083489418029785
6	19.140953063964844	fix_post	2		12.0	4.0	2.5	/experiments/knapen_aot/videos/R_S_yt-s2tZ2NIQrxg_175.mp4	0.0	135.3912479877472	0.10003805160522461
7	19.24099111557007	fix_pre	0		134.0	5.0	2.5	/experiments/knapen_aot/videos/S_pexels-pavel-danilyuk-8057714.mp4	0.0	135.49128603935242	1.1175298690795898
7	20.34943413734436	response	0	2		5.0	2.5	/experiments/knapen_aot/videos/S_pexels-pavel-danilyuk-8057714.mp4	0.0	136.5997290611267	
7	20.358520984649658	movie	1		171.0	5.0	2.5	/experiments/knapen_aot/videos/S_pexels-pavel-danilyuk-8057714.mp4	0.0	136.608815908432	2.507373094558716
7	22.865894079208374	fix_post	2		12.0	5.0	2.5	/experiments/knapen_aot/videos/S_pexels-pavel-danilyuk-8057714.mp4	0.0	139.11618900299072	0.10006189346313477
8	22.96595597267151	fix_pre	0		75.0	6.0	2.5	/experiments/knapen_aot/videos/S_yt-2i53vKte7SA_117.mp4	0.0	139.21625089645386	0.62502121925354
8	23.582780122756958	response	0	2		6.0	2.5	/experiments/knapen_aot/videos/S_yt-2i53vKte7SA_117.mp4	0.0	139.8330750465393	
8	23.59097719192505	movie	1		301.0	6.0	2.5	/experiments/knapen_aot/videos/S_yt-2i53vKte7SA_117.mp4	0.0	139.8412721157074	2.508283853530884
8	26.099261045455933	fix_post	2		12.0	6.0	2.5	/experiments/knapen_aot/videos/S_yt-2i53vKte7SA_117.mp4	0.0	142.34955596923828	0.09990596771240234
9	26.199167013168335	fix_pre	0		111.0	7.0	2.5	blank	1.0	142.44946193695068	0.9250750541687012
9	27.116132020950317	response	0	2		7.0	2.5	blank	1.0	143.36642694473267	
9	27.124242067337036	movie	1		301.0	7.0	2.5	blank	1.0	143.37453699111938	2.508341073989868
9	29.632583141326904	fix_post	2		12.0	7.0	2.5	blank	1.0	145.88287806510925	0.0998990535736084
10	29.732482194900513	fix_pre	0		87.0	8.0	2.5	/experiments/knapen_aot/videos/S_ILSVRC2015_train_00044004.mp4	0.0	145.98277711868286	0.7250409126281738
10	30.44932198524475	response	0	2		8.0	2.5	/experiments/knapen_aot/videos/S_ILSVRC2015_train_00044004.mp4	0.0	146.6996169090271	
10	30.457523107528687	movie	1		301.0	8.0	2.5	/experiments/knapen_aot/videos/S_ILSVRC2015_train_00044004.mp4	0.0	146.70781803131104	2.508359909057617
10	32.965883016586304	fix_post	2		12.0	8.0	2.5	/experiments/knapen_aot/videos/S_ILSVRC2015_train_00044004.mp4	0.0	149.21617794036865	0.09992098808288574
11	33.06580400466919	fix_pre	0		94.0	9.0	2.5	/experiments/knapen_aot/videos/R_S_video-8.mp4	0.0	149.31609892845154	0.7833759784698486
11	33.84105110168457	response	0	2		9.0	2.5	/experiments/knapen_aot/videos/R_S_video-8.mp4	0.0	150.09134602546692	
11	33.84917998313904	movie	1		198.0	9.0	2.5	/experiments/knapen_aot/videos/R_S_video-8.mp4	0.0	150.0994749069214	2.508364200592041
11	36.35754418373108	fix_post	2		12.0	9.0	2.5	/experiments/knapen_aot/videos/R_S_video-8.mp4	0.0	152.60783910751343	0.09997892379760742
12	36.45752310752869	fix_pre	0		87.0	10.0	2.5	/experiments/knapen_aot/videos/S_SPNvf6JCjGw_123.mp4	0.0	152.70781803131104	0.7250070571899414
12	37.16676902770996	response	0	2		10.0	2.5	/experiments/knapen_aot/videos/S_SPNvf6JCjGw_123.mp4	0.0	153.4170639514923	
12	37.18253016471863	movie	1		301.0	10.0	2.5	/experiments/knapen_aot/videos/S_SPNvf6JCjGw_123.mp4	0.0	153.43282508850098	2.5083348751068115
12	39.69086503982544	fix_post	2		12.0	10.0	2.5	/experiments/knapen_aot/videos/S_SPNvf6JCjGw_123.mp4	0.0	155.9411599636078	0.10006403923034668
13	39.790929079055786	fix_pre	0		81.0	11.0	2.5	/experiments/knapen_aot/videos/S_comp_A012_C014_1223PT_v53_SDR_PS_FINAL_20180709_F0F8700_SDR_2K_AVC.mp4	0.0	156.04122400283813	0.6748969554901123
13	40.45767903327942	response	0	2		11.0	2.5	/experiments/knapen_aot/videos/S_comp_A012_C014_1223PT_v53_SDR_PS_FINAL_20180709_F0F8700_SDR_2K_AVC.mp4	0.0	156.70797395706177	
13	40.4658260345459	movie	1		164.0	11.0	2.5	/experiments/knapen_aot/videos/S_comp_A012_C014_1223PT_v53_SDR_PS_FINAL_20180709_F0F8700_SDR_2K_AVC.mp4	0.0	156.71612095832825	2.5084011554718018
13	42.9742271900177	fix_post	2		12.0	11.0	2.5	/experiments/knapen_aot/videos/S_comp_A012_C014_1223PT_v53_SDR_PS_FINAL_20180709_F0F8700_SDR_2K_AVC.mp4	0.0	159.22452211380005	0.10006284713745117
14	43.07429003715515	fix_pre	0		80.0	12.0	2.5	/experiments/knapen_aot/videos/R_S_yt-EFrazkRaYbs_21.mp4	0.0	159.3245849609375	0.6665730476379395
14	43.73271298408508	response	0	2		12.0	2.5	/experiments/knapen_aot/videos/R_S_yt-EFrazkRaYbs_21.mp4	0.0	159.98300790786743	
14	43.74086308479309	movie	1		301.0	12.0	2.5	/experiments/knapen_aot/videos/R_S_yt-EFrazkRaYbs_21.mp4	0.0	159.99115800857544	2.508307933807373
14	46.249171018600464	fix_post	2		12.0	12.0	2.5	/experiments/knapen_aot/videos/R_S_yt-EFrazkRaYbs_21.mp4	0.0	162.4994659423828	0.10006403923034668
15	46.34923505783081	fix_pre	0		76.0	13.0	2.5	/experiments/knapen_aot/videos/S_yt-6MwA-jx56AQ_612.mp4	0.0	162.59952998161316	0.6339781284332275
15	46.974395990371704	response	0	2		13.0	2.5	/experiments/knapen_aot/videos/S_yt-6MwA-jx56AQ_612.mp4	0.0	163.22469091415405	
15	46.98321318626404	movie	1		301.0	13.0	2.5	/experiments/knapen_aot/videos/S_yt-6MwA-jx56AQ_612.mp4	0.0	163.2335081100464	2.507622003555298
15	49.490835189819336	fix_post	2		12.0	13.0	2.5	/experiments/knapen_aot/videos/S_yt-6MwA-jx56AQ_612.mp4	0.0	165.74113011360168	0.10003089904785156
16	49.59086608886719	fix_pre	0		82.0	14.0	2.5	blank	1.0	165.84116101264954	0.6840701103210449
16	50.26598000526428	response	0	2		14.0	2.5	blank	1.0	166.51627492904663	
16	50.27493619918823	movie	1		301.0	14.0	2.5	blank	1.0	166.52523112297058	2.5075528621673584
16	52.78248906135559	fix_post	2		12.0	14.0	2.5	blank	1.0	169.03278398513794	0.09992098808288574
17	52.88241004943848	fix_pre	0		89.0	15.0	2.5	/experiments/knapen_aot/videos/S_yt-BqJHT4K7Qf8_127.mp4	0.0	169.13270497322083	0.7416880130767822
17	53.61588501930237	response	0	2		15.0	2.5	/experiments/knapen_aot/videos/S_yt-BqJHT4K7Qf8_127.mp4	0.0	169.86617994308472	
17	53.62409806251526	movie	1		301.0	15.0	2.5	/experiments/knapen_aot/videos/S_yt-BqJHT4K7Qf8_127.mp4	0.0	169.8743929862976	2.508319139480591
17	56.13241720199585	fix_post	2		12.0	15.0	2.5	/experiments/knapen_aot/videos/S_yt-BqJHT4K7Qf8_127.mp4	0.0	172.3827121257782	0.09996294975280762
18	56.23238015174866	fix_pre	0		101.0	16.0	2.5	/experiments/knapen_aot/videos/R_S_ILSVRC2015_train_00292005.mp4	0.0	172.482675075531	0.84169602394104
18	57.06588315963745	response	0	2		16.0	2.5	/experiments/knapen_aot/videos/R_S_ILSVRC2015_train_00292005.mp4	0.0	173.3161780834198	
18	57.0740761756897	movie	1		298.0	16.0	2.5	/experiments/knapen_aot/videos/R_S_ILSVRC2015_train_00292005.mp4	0.0	173.32437109947205	2.508358955383301
18	59.582435131073	fix_post	2		12.0	16.0	2.5	/experiments/knapen_aot/videos/R_S_ILSVRC2015_train_00292005.mp4	0.0	175.83273005485535	0.1000070571899414
19	59.68244218826294	fix_pre	0		64.0	17.0	2.5	/experiments/knapen_aot/videos/R_S_video-5.mp4	0.0	175.9327371120453	0.5332980155944824
19	60.207622051239014	response	0	2		17.0	2.5	/experiments/knapen_aot/videos/R_S_video-5.mp4	0.0	176.45791697502136	
19	60.21574020385742	movie	1		172.0	17.0	2.5	/experiments/knapen_aot/videos/R_S_video-5.mp4	0.0	176.46603512763977	2.508302927017212
19	62.724043130874634	fix_post	2		12.0	17.0	2.5	/experiments/knapen_aot/videos/R_S_video-5.mp4	0.0	178.97433805465698	0.10005307197570801
20	62.82409620285034	fix_pre	0		74.0	18.0	2.5	/experiments/knapen_aot/videos/S_yt-mL3MuCfKtdY_79.mp4	0.0	179.0743911266327	0.6172618865966797
20	63.43256211280823	response	0	2		18.0	2.5	/experiments/knapen_aot/videos/S_yt-mL3MuCfKtdY_79.mp4	0.0	179.68285703659058	
20	63.44135808944702	movie	1		301.0	18.0	2.5	/experiments/knapen_aot/videos/S_yt-mL3MuCfKtdY_79.mp4	0.0	179.69165301322937	2.5077309608459473
20	65.94908905029297	fix_post	2		12.0	18.0	2.5	/experiments/knapen_aot/videos/S_yt-mL3MuCfKtdY_79.mp4	0.0	182.19938397407532	0.10003209114074707
21	66.04912114143372	fix_pre	0		95.0	19.0	2.5	/experiments/knapen_aot/videos/R_S_yt-jy96-k8drRE_1.mp4	0.0	182.29941606521606	0.7916500568389893
21	66.83261108398438	response	0	2		19.0	2.5	/experiments/knapen_aot/videos/R_S_yt-jy96-k8drRE_1.mp4	0.0	183.08290600776672	
21	66.8407711982727	movie	1		301.0	19.0	2.5	/experiments/knapen_aot/videos/R_S_yt-jy96-k8drRE_1.mp4	0.0	183.09106612205505	2.5082919597625732
21	69.34906315803528	fix_post	2		12.0	19.0	2.5	/experiments/knapen_aot/videos/R_S_yt-jy96-k8drRE_1.mp4	0.0	185.59935808181763	0.0999758243560791
22	69.44903898239136	fix_pre	0		105.0	20.0	2.5	/experiments/knapen_aot/videos/R_S_yt-UPgF4YAHBQY_33.mp4	0.0	185.6993339061737	0.8750061988830566
22	70.31587505340576	response	0	2		20.0	2.5	/experiments/knapen_aot/videos/R_S_yt-UPgF4YAHBQY_33.mp4	0.0	186.5661699771881	
22	70.32404518127441	movie	1		301.0	20.0	2.5	/experiments/knapen_aot/videos/R_S_yt-UPgF4YAHBQY_33.mp4	0.0	186.57434010505676	2.5085577964782715
22	72.83260297775269	fix_post	2		12.0	20.0	2.5	/experiments/knapen_aot/videos/R_S_yt-UPgF4YAHBQY_33.mp4	0.0	189.08289790153503	0.09975910186767578
23	72.93236207962036	fix_pre	0		72.0	21.0	2.5	blank	1.0	189.1826570034027	0.6000430583953857
23	73.52433919906616	response	0	2		21.0	2.5	blank	1.0	189.7746341228485	
23	73.53240513801575	movie	1		301.0	21.0	2.5	blank	1.0	189.7827000617981	2.508296012878418
23	76.04070115089417	fix_post	2		12.0	21.0	2.5	blank	1.0	192.2909960746765	0.09999990463256836
24	76.14070105552673	fix_pre	0		99.0	22.0	2.5	/experiments/knapen_aot/videos/R_S_yt-zhQ32_OayBQ_39.mp4	0.0	192.39099597930908	0.8249781131744385
24	76.9574670791626	response	0	2		22.0	2.5	/experiments/knapen_aot/videos/R_S_yt-zhQ32_OayBQ_39.mp4	0.0	193.20776200294495	
24	76.96567916870117	movie	1		301.0	22.0	2.5	/experiments/knapen_aot/videos/R_S_yt-zhQ32_OayBQ_39.mp4	0.0	193.21597409248352	2.5083229541778564
24	79.47400212287903	fix_post	2		12.0	22.0	2.5	/experiments/knapen_aot/videos/R_S_yt-zhQ32_OayBQ_39.mp4	0.0	195.72429704666138	0.10018491744995117
25	79.57418704032898	fix_pre	0		126.0	23.0	2.5	/experiments/knapen_aot/videos/S_yt-hvuC_2YXsTQ_73.mp4	0.0	195.82448196411133	1.049767017364502
25	80.61583209037781	response	0	2		23.0	2.5	/experiments/knapen_aot/videos/S_yt-hvuC_2YXsTQ_73.mp4	0.0	196.86612701416016	
25	80.62395405769348	movie	1		301.0	23.0	2.5	/experiments/knapen_aot/videos/S_yt-hvuC_2YXsTQ_73.mp4	0.0	196.87424898147583	2.5083611011505127
25	83.132315158844	fix_post	2		12.0	23.0	2.5	/experiments/knapen_aot/videos/S_yt-hvuC_2YXsTQ_73.mp4	0.0	199.38261008262634	0.10004997253417969
26	83.23236513137817	fix_pre	0		73.0	24.0	2.5	/experiments/knapen_aot/videos/S_yt-CZ2qiY-kS7Y_105.mp4	0.0	199.48266005516052	0.6082930564880371
26	83.83243203163147	response	0	2		24.0	2.5	/experiments/knapen_aot/videos/S_yt-CZ2qiY-kS7Y_105.mp4	0.0	200.08272695541382	
26	83.84065818786621	movie	1		299.0	24.0	2.5	/experiments/knapen_aot/videos/S_yt-CZ2qiY-kS7Y_105.mp4	0.0	200.09095311164856	2.5083348751068115
26	86.34899306297302	fix_post	2		12.0	24.0	2.5	/experiments/knapen_aot/videos/S_yt-CZ2qiY-kS7Y_105.mp4	0.0	202.59928798675537	0.09993791580200195
27	86.44893097877502	fix_pre	0		62.0	25.0	2.5	/experiments/knapen_aot/videos/S_yt-BqJHT4K7Qf8_127.mp4	0.0	202.69922590255737	0.5167250633239746
27	86.95754909515381	response	0	2		25.0	2.5	/experiments/knapen_aot/videos/S_yt-BqJHT4K7Qf8_127.mp4	0.0	203.20784401893616	
27	86.965656042099	movie	1		301.0	25.0	2.5	/experiments/knapen_aot/videos/S_yt-BqJHT4K7Qf8_127.mp4	0.0	203.21595096588135	2.5083210468292236
27	89.47397708892822	fix_post	2		12.0	25.0	2.5	/experiments/knapen_aot/videos/S_yt-BqJHT4K7Qf8_127.mp4	0.0	205.72427201271057	0.09998893737792969
28	89.57396602630615	fix_pre	0		80.0	26.0	2.5	/experiments/knapen_aot/videos/R_S_yt-4wYTkhggZNM_90.mp4	0.0	205.8242609500885	0.6666359901428223
28	90.23242402076721	response	0	2		26.0	2.5	/experiments/knapen_aot/videos/R_S_yt-4wYTkhggZNM_90.mp4	0.0	206.48271894454956	
28	90.24060201644897	movie	1		301.0	26.0	2.5	/experiments/knapen_aot/videos/R_S_yt-4wYTkhggZNM_90.mp4	0.0	206.49089694023132	2.508445978164673
28	92.74904799461365	fix_post	2		12.0	26.0	2.5	/experiments/knapen_aot/videos/R_S_yt-4wYTkhggZNM_90.mp4	0.0	208.999342918396	0.09993505477905273
29	92.8489830493927	fix_pre	0		72.0	27.0	2.5	/experiments/knapen_aot/videos/R_S_yt-fIEGqReekCM_10.mp4	0.0	209.09927797317505	0.5998821258544922
29	93.44073414802551	response	0	2		27.0	2.5	/experiments/knapen_aot/videos/R_S_yt-fIEGqReekCM_10.mp4	0.0	209.69102907180786	
29	93.44886517524719	movie	1		301.0	27.0	2.5	/experiments/knapen_aot/videos/R_S_yt-fIEGqReekCM_10.mp4	0.0	209.69916009902954	2.5083959102630615
29	95.95726108551025	fix_post	2		12.0	27.0	2.5	/experiments/knapen_aot/videos/R_S_yt-fIEGqReekCM_10.mp4	0.0	212.2075560092926	0.10002303123474121
30	96.057284116745	fix_pre	0		87.0	28.0	2.5	blank	1.0	212.30757904052734	0.7249629497528076
30	96.77410197257996	response	0	2		28.0	2.5	blank	1.0	213.0243968963623	
30	96.7822470664978	movie	1		301.0	28.0	2.5	blank	1.0	213.03254199028015	2.508328914642334
30	99.29057598114014	fix_post	2		12.0	28.0	2.5	blank	1.0	215.54087090492249	0.10004901885986328
31	99.390625	fix_pre	0		108.0	29.0	2.5	/experiments/knapen_aot/videos/R_S_yt-WpLgDX6Yw_s_20.mp4	0.0	215.64091992378235	0.8999722003936768
31	100.2823851108551	response	0	2		29.0	2.5	/experiments/knapen_aot/videos/R_S_yt-WpLgDX6Yw_s_20.mp4	0.0	216.53268003463745	
31	100.29059720039368	movie	1		300.0	29.0	2.5	/experiments/knapen_aot/videos/R_S_yt-WpLgDX6Yw_s_20.mp4	0.0	216.54089212417603	2.508274793624878
31	102.79887199401855	fix_post	2		12.0	29.0	2.5	/experiments/knapen_aot/videos/R_S_yt-WpLgDX6Yw_s_20.mp4	0.0	219.0491669178009	0.10003209114074707
32	102.8989040851593	fix_pre	0		119.0	30.0	2.5	/experiments/knapen_aot/videos/S_yt-1uk2k3PnTNw_37.0.mp4	0.0	219.14919900894165	0.991602897644043
32	103.88239407539368	response	0	2		30.0	2.5	/experiments/knapen_aot/videos/S_yt-1uk2k3PnTNw_37.0.mp4	0.0	220.13268899917603	
32	103.89050698280334	movie	1		301.0	30.0	2.5	/experiments/knapen_aot/videos/S_yt-1uk2k3PnTNw_37.0.mp4	0.0	220.1408019065857	2.5083861351013184
32	106.39889311790466	fix_post	2		12.0	30.0	2.5	/experiments/knapen_aot/videos/S_yt-1uk2k3PnTNw_37.0.mp4	0.0	222.649188041687	0.10004401206970215
33	106.49893712997437	fix_pre	0		104.0	31.0	2.5	/experiments/knapen_aot/videos/S_yt-gikcYT6ZLzA_7.mp4	0.0	222.7492320537567	0.8665719032287598
33	107.35738015174866	response	0	2		31.0	2.5	/experiments/knapen_aot/videos/S_yt-gikcYT6ZLzA_7.mp4	0.0	223.607675075531	
33	107.36550903320312	movie	1		301.0	31.0	2.5	/experiments/knapen_aot/videos/S_yt-gikcYT6ZLzA_7.mp4	0.0	223.61580395698547	2.508419990539551
33	109.87392902374268	fix_post	2		12.0	31.0	2.5	/experiments/knapen_aot/videos/S_yt-gikcYT6ZLzA_7.mp4	0.0	226.12422394752502	0.09995818138122559
34	109.9738872051239	fix_pre	0		108.0	32.0	2.5	/experiments/knapen_aot/videos/S_video-3.mp4	0.0	226.22418212890625	0.9000108242034912
34	110.86576008796692	response	0	2		32.0	2.5	/experiments/knapen_aot/videos/S_video-3.mp4	0.0	227.11605501174927	
34	110.87389802932739	movie	1		165.0	32.0	2.5	/experiments/knapen_aot/videos/S_video-3.mp4	0.0	227.12419295310974	2.5082950592041016
34	113.3821930885315	fix_post	2		12.0	32.0	2.5	/experiments/knapen_aot/videos/S_video-3.mp4	0.0	229.63248801231384	0.10003399848937988
35	113.48222708702087	fix_pre	0		108.0	33.0	2.5	/experiments/knapen_aot/videos/R_S_yt-wqdTPz0bLrM_561.mp4	0.0	229.73252201080322	0.8999168872833252
35	114.37394309043884	response	0	2		33.0	2.5	/experiments/knapen_aot/videos/R_S_yt-wqdTPz0bLrM_561.mp4	0.0	230.6242380142212	
35	114.3821439743042	movie	1		301.0	33.0	2.5	/experiments/knapen_aot/videos/R_S_yt-wqdTPz0bLrM_561.mp4	0.0	230.63243889808655	2.5083940029144287
35	116.89053797721863	fix_post	2		12.0	33.0	2.5	/experiments/knapen_aot/videos/R_S_yt-wqdTPz0bLrM_561.mp4	0.0	233.14083290100098	0.09991717338562012
36	116.99045515060425	fix_pre	0		113.0	34.0	2.5	/experiments/knapen_aot/videos/S_yt-EFrazkRaYbs_21.mp4	0.0	233.2407500743866	0.9416990280151367
36	117.9164400100708	response	0	2		34.0	2.5	/experiments/knapen_aot/videos/S_yt-EFrazkRaYbs_21.mp4	0.0	234.16673493385315	
36	117.93215417861938	movie	1		301.0	34.0	2.5	/experiments/knapen_aot/videos/S_yt-EFrazkRaYbs_21.mp4	0.0	234.18244910240173	2.508387804031372
36	120.44054198265076	fix_post	2		12.0	34.0	2.5	/experiments/knapen_aot/videos/S_yt-EFrazkRaYbs_21.mp4	0.0	236.6908369064331	0.09995007514953613
37	120.5404920578003	fix_pre	0		152.0	35.0	2.5	blank	1.0	236.79078698158264	1.2666149139404297
37	121.79899716377258	response	0	2		35.0	2.5	blank	1.0	238.04929208755493	
37	121.80710697174072	movie	1		301.0	35.0	2.5	blank	1.0	238.05740189552307	2.5084311962127686
37	124.31553816795349	fix_post	2		12.0	35.0	2.5	blank	1.0	240.56583309173584	0.09997701644897461
38	124.41551518440247	fix_pre	0		91.0	36.0	2.5	/experiments/knapen_aot/videos/R_S_yt-he_RSdeVinA_68.mp4	0.0	240.66581010818481	0.7583189010620117
38	125.16562700271606	response	0	2		36.0	2.5	/experiments/knapen_aot/videos/R_S_yt-he_RSdeVinA_68.mp4	0.0	241.4159219264984	
38	125.17383408546448	movie	1		301.0	36.0	2.5	/experiments/knapen_aot/videos/R_S_yt-he_RSdeVinA_68.mp4	0.0	241.42412900924683	2.508255958557129
38	127.6820900440216	fix_post	2		12.0	36.0	2.5	/experiments/knapen_aot/videos/R_S_yt-he_RSdeVinA_68.mp4	0.0	243.93238496780396	0.10005807876586914
39	127.78214812278748	fix_pre	0		83.0	37.0	2.5	/experiments/knapen_aot/videos/S_ILSVRC2015_train_00415007.mp4	0.0	244.03244304656982	0.6916508674621582
39	128.46544814109802	response	0	2		37.0	2.5	/experiments/knapen_aot/videos/S_ILSVRC2015_train_00415007.mp4	0.0	244.71574306488037	
39	128.47379899024963	movie	1		301.0	37.0	2.5	/experiments/knapen_aot/videos/S_ILSVRC2015_train_00415007.mp4	0.0	244.72409391403198	2.5084149837493896
39	130.98221397399902	fix_post	2		12.0	37.0	2.5	/experiments/knapen_aot/videos/S_ILSVRC2015_train_00415007.mp4	0.0	247.23250889778137	0.09991216659545898
40	131.08212614059448	fix_pre	0		64.0	38.0	2.5	/experiments/knapen_aot/videos/S_yt-nqRBIR8dFYc_328.mp4	0.0	247.33242106437683	0.5499558448791504
40	131.62390518188477	response	0	2		38.0	2.5	/experiments/knapen_aot/videos/S_yt-nqRBIR8dFYc_328.mp4	0.0	247.87420010566711	
40	131.63208198547363	movie	1		301.0	38.0	2.5	/experiments/knapen_aot/videos/S_yt-nqRBIR8dFYc_328.mp4	0.0	247.88237690925598	2.5082991123199463
40	134.14038109779358	fix_post	2		12.0	38.0	2.5	/experiments/knapen_aot/videos/S_yt-nqRBIR8dFYc_328.mp4	0.0	250.39067602157593	0.10006904602050781
41	134.2404501438141	fix_pre	0		94.0	39.0	2.5	/experiments/knapen_aot/videos/S_xTlFOCRvy68_1564.mp4	0.0	250.49074506759644	0.7836308479309082
41	135.01560997962952	response	0	2		39.0	2.5	/experiments/knapen_aot/videos/S_xTlFOCRvy68_1564.mp4	0.0	251.26590490341187	
41	135.024080991745	movie	1		301.0	39.0	2.5	/experiments/knapen_aot/videos/S_xTlFOCRvy68_1564.mp4	0.0	251.27437591552734	2.508005142211914
41	137.5320861339569	fix_post	2		12.0	39.0	2.5	/experiments/knapen_aot/videos/S_xTlFOCRvy68_1564.mp4	0.0	253.78238105773926	0.10000395774841309
42	137.63209009170532	fix_pre	0		83.0	40.0	2.5	/experiments/knapen_aot/videos/S_yt-fP2JRJAFGZ4_25.mp4	0.0	253.88238501548767	0.6916170120239258
42	138.31566619873047	response	0	2		40.0	2.5	/experiments/knapen_aot/videos/S_yt-fP2JRJAFGZ4_25.mp4	0.0	254.56596112251282	
42	138.32370710372925	movie	1		301.0	40.0	2.5	/experiments/knapen_aot/videos/S_yt-fP2JRJAFGZ4_25.mp4	0.0	254.5740020275116	2.508357048034668
42	140.83206415176392	fix_post	2		12.0	40.0	2.5	/experiments/knapen_aot/videos/S_yt-fP2JRJAFGZ4_25.mp4	0.0	257.08235907554626	0.10003185272216797
43	140.93209600448608	fix_pre	0		126.0	41.0	2.5	blank	1.0	257.18239092826843	1.0502140522003174
43	141.97386598587036	response	0	2		41.0	2.5	blank	1.0	258.2241609096527	
43	141.9823100566864	movie	1		301.0	41.0	2.5	blank	1.0	258.23260498046875	2.5080790519714355
43	144.49038910865784	fix_post	2		12.0	41.0	2.5	blank	1.0	260.7406840324402	0.09998297691345215
44	144.5903720855713	fix_pre	0		154.0	42.0	2.5	/experiments/knapen_aot/videos/R_S_video-8.mp4	0.0	260.84066700935364	1.2832980155944824
44	145.86549711227417	response	0	2		42.0	2.5	/experiments/knapen_aot/videos/R_S_video-8.mp4	0.0	262.1157920360565	
44	145.87367010116577	movie	1		195.0	42.0	2.5	/experiments/knapen_aot/videos/R_S_video-8.mp4	0.0	262.1239650249481	2.5083959102630615
44	148.38206601142883	fix_post	2		12.0	42.0	2.5	/experiments/knapen_aot/videos/R_S_video-8.mp4	0.0	264.6323609352112	0.1001889705657959
45	148.48225498199463	fix_pre	0		90.0	43.0	2.5	/experiments/knapen_aot/videos/S_wc-TAGpcap1KdAS_212.mp4	0.0	264.732549905777	0.7499651908874512
45	149.2163050174713	response	0	2		43.0	2.5	/experiments/knapen_aot/videos/S_wc-TAGpcap1KdAS_212.mp4	0.0	265.46659994125366	
45	149.23222017288208	movie	1		301.0	43.0	2.5	/experiments/knapen_aot/videos/S_wc-TAGpcap1KdAS_212.mp4	0.0	265.48251509666443	2.5081629753112793
45	151.74038314819336	fix_post	2		12.0	43.0	2.5	/experiments/knapen_aot/videos/S_wc-TAGpcap1KdAS_212.mp4	0.0	267.9906780719757	0.09997987747192383
46	151.84036302566528	fix_pre	0		122.0	44.0	2.5	/experiments/knapen_aot/videos/S_yt-y6zr69M0yHI_76.mp4	0.0	268.09065794944763	1.016874074935913
46	152.84885120391846	response	0	2		44.0	2.5	/experiments/knapen_aot/videos/S_yt-y6zr69M0yHI_76.mp4	0.0	269.0991461277008	
46	152.8572371006012	movie	1		301.0	44.0	2.5	/experiments/knapen_aot/videos/S_yt-y6zr69M0yHI_76.mp4	0.0	269.10753202438354	2.508070945739746
46	155.36530804634094	fix_post	2		12.0	44.0	2.5	/experiments/knapen_aot/videos/S_yt-y6zr69M0yHI_76.mp4	0.0	271.6156029701233	0.1002039909362793
47	155.46551203727722	fix_pre	0		109.0	45.0	2.5	/experiments/knapen_aot/videos/S_yt-fP2JRJAFGZ4_25.mp4	0.0	271.71580696105957	0.9080760478973389
47	156.3655149936676	response	0	2		45.0	2.5	/experiments/knapen_aot/videos/S_yt-fP2JRJAFGZ4_25.mp4	0.0	272.61580991744995	
47	156.37358808517456	movie	1		300.0	45.0	2.5	/experiments/knapen_aot/videos/S_yt-fP2JRJAFGZ4_25.mp4	0.0	272.6238830089569	2.5083770751953125
47	158.88196516036987	fix_post	2		12.0	45.0	2.5	/experiments/knapen_aot/videos/S_yt-fP2JRJAFGZ4_25.mp4	0.0	275.1322600841522	0.10021090507507324
48	158.98217606544495	fix_pre	0		103.0	46.0	2.5	/experiments/knapen_aot/videos/R_S_yt-PCSXJ5YB_AE_3.mp4	0.0	275.2324709892273	0.8581271171569824
48	159.83215498924255	response	0	2		46.0	2.5	/experiments/knapen_aot/videos/R_S_yt-PCSXJ5YB_AE_3.mp4	0.0	276.0824499130249	
48	159.84030318260193	movie	1		301.0	46.0	2.5	/experiments/knapen_aot/videos/R_S_yt-PCSXJ5YB_AE_3.mp4	0.0	276.0905981063843	2.5083658695220947
48	162.34866905212402	fix_post	2		12.0	46.0	2.5	/experiments/knapen_aot/videos/R_S_yt-PCSXJ5YB_AE_3.mp4	0.0	278.5989639759064	0.09999513626098633
49	162.448664188385	fix_pre	0		113.0	47.0	2.5	/experiments/knapen_aot/videos/S_comp_H007_C003_PS_v01_SDR_PS_20180925_SDR_2K_AVC.mp4	0.0	278.69895911216736	0.9415278434753418
49	163.38213300704956	response	0	2		47.0	2.5	/experiments/knapen_aot/videos/S_comp_H007_C003_PS_v01_SDR_PS_20180925_SDR_2K_AVC.mp4	0.0	279.6324279308319	
49	163.39019203186035	movie	1		168.0	47.0	2.5	/experiments/knapen_aot/videos/S_comp_H007_C003_PS_v01_SDR_PS_20180925_SDR_2K_AVC.mp4	0.0	279.6404869556427	2.5086519718170166
49	165.89884400367737	fix_post	2		12.0	47.0	2.5	/experiments/knapen_aot/videos/S_comp_H007_C003_PS_v01_SDR_PS_20180925_SDR_2K_AVC.mp4	0.0	282.1491389274597	0.09979009628295898
50	165.99863409996033	fix_pre	0		81.0	48.0	2.5	/experiments/knapen_aot/videos/R_S_goAwcQiFu1Q_99.mp4	0.0	282.2489290237427	0.674921989440918
50	166.665452003479	response	0	2		48.0	2.5	/experiments/knapen_aot/videos/R_S_goAwcQiFu1Q_99.mp4	0.0	282.91574692726135	
50	166.67355608940125	movie	1		301.0	48.0	2.5	/experiments/knapen_aot/videos/R_S_goAwcQiFu1Q_99.mp4	0.0	282.9238510131836	2.5084590911865234
50	169.18201518058777	fix_post	2		12.0	48.0	2.5	/experiments/knapen_aot/videos/R_S_goAwcQiFu1Q_99.mp4	0.0	285.4323101043701	0.09994888305664062
51	169.2819640636444	fix_pre	0		66.0	49.0	2.5	blank	1.0	285.53225898742676	0.5500180721282959
51	169.8238010406494	response	0	2		49.0	2.5	blank	1.0	286.07409596443176	
51	169.8319821357727	movie	1		301.0	49.0	2.5	blank	1.0	286.08227705955505	2.5083389282226562
51	172.34032106399536	fix_post	2		12.0	49.0	2.5	blank	1.0	288.5906159877777	0.10010504722595215
52	172.4404261112213	fix_pre	0		101.0	50.0	2.5	/experiments/knapen_aot/videos/S_yt-w_e3sxIzepA_115.mp4	0.0	288.69072103500366	0.8414769172668457
52	173.2737021446228	response	0	2		50.0	2.5	/experiments/knapen_aot/videos/S_yt-w_e3sxIzepA_115.mp4	0.0	289.52399706840515	
52	173.28190302848816	movie	1		301.0	50.0	2.5	/experiments/knapen_aot/videos/S_yt-w_e3sxIzepA_115.mp4	0.0	289.5321979522705	2.5083611011505127
52	175.79026412963867	fix_post	2		12.0	50.0	2.5	/experiments/knapen_aot/videos/S_yt-w_e3sxIzepA_115.mp4	0.0	292.040559053421	0.09999394416809082
53	175.89025807380676	fix_pre	0		87.0	51.0	2.5	/experiments/knapen_aot/videos/S_3WAnGcPubBY_143.mp4	0.0	292.1405529975891	0.7249770164489746
53	176.6069941520691	response	0	2		51.0	2.5	/experiments/knapen_aot/videos/S_3WAnGcPubBY_143.mp4	0.0	292.85728907585144	
53	176.61523509025574	movie	1		300.0	51.0	2.5	/experiments/knapen_aot/videos/S_3WAnGcPubBY_143.mp4	0.0	292.8655300140381	2.5083398818969727
53	179.1235749721527	fix_post	2		12.0	51.0	2.5	/experiments/knapen_aot/videos/S_3WAnGcPubBY_143.mp4	0.0	295.37386989593506	0.0999760627746582
54	179.22355103492737	fix_pre	0		74.0	52.0	2.5	/experiments/knapen_aot/videos/S_video-5.mp4	0.0	295.4738459587097	0.6166319847106934
54	179.82447719573975	response	0	2		52.0	2.5	/experiments/knapen_aot/videos/S_video-5.mp4	0.0	296.0747721195221	
54	179.84018301963806	movie	1		170.0	52.0	2.5	/experiments/knapen_aot/videos/S_video-5.mp4	0.0	296.0904779434204	2.5083160400390625
54	182.34849905967712	fix_post	2		12.0	52.0	2.5	/experiments/knapen_aot/videos/S_video-5.mp4	0.0	298.5987939834595	0.10007810592651367
55	182.44857716560364	fix_pre	0		69.0	53.0	2.5	/experiments/knapen_aot/videos/S_yt-1uk2k3PnTNw_37.0.mp4	0.0	298.698872089386	0.5750298500061035
55	183.01536202430725	response	0	2		53.0	2.5	/experiments/knapen_aot/videos/S_yt-1uk2k3PnTNw_37.0.mp4	0.0	299.2656569480896	
55	183.02360701560974	movie	1		299.0	53.0	2.5	/experiments/knapen_aot/videos/S_yt-1uk2k3PnTNw_37.0.mp4	0.0	299.2739019393921	2.508301019668579
55	185.53190803527832	fix_post	2		12.0	53.0	2.5	/experiments/knapen_aot/videos/S_yt-1uk2k3PnTNw_37.0.mp4	0.0	301.78220295906067	0.10001611709594727
56	185.63192415237427	fix_pre	0		90.0	54.0	2.5	/experiments/knapen_aot/videos/S_ILSVRC2015_train_00484001.mp4	0.0	301.8822190761566	0.7499468326568604
56	186.37371516227722	response	0	2		54.0	2.5	/experiments/knapen_aot/videos/S_ILSVRC2015_train_00484001.mp4	0.0	302.62401008605957	
56	186.38187098503113	movie	1		301.0	54.0	2.5	/experiments/knapen_aot/videos/S_ILSVRC2015_train_00484001.mp4	0.0	302.6321659088135	2.508284091949463
56	188.8901550769806	fix_post	2		12.0	54.0	2.5	/experiments/knapen_aot/videos/S_ILSVRC2015_train_00484001.mp4	0.0	305.14045000076294	0.10000991821289062
57	188.99016499519348	fix_pre	0		118.0	55.0	2.5	blank	1.0	305.24045991897583	0.983349084854126
57	189.965322971344	response	0	2		55.0	2.5	blank	1.0	306.21561789512634	
57	189.9735140800476	movie	1		301.0	55.0	2.5	blank	1.0	306.22380900382996	2.5083091259002686
57	192.48182320594788	fix_post	2		12.0	55.0	2.5	blank	1.0	308.7321181297302	0.10008478164672852
58	192.5819079875946	fix_pre	0		76.0	56.0	2.5	/experiments/knapen_aot/videos/S_yt-deiWoIfK6vg_44.mp4	0.0	308.83220291137695	0.6332240104675293
58	193.20688199996948	response	0	2		56.0	2.5	/experiments/knapen_aot/videos/S_yt-deiWoIfK6vg_44.mp4	0.0	309.45717692375183	
58	193.21513199806213	movie	1		301.0	56.0	2.5	/experiments/knapen_aot/videos/S_yt-deiWoIfK6vg_44.mp4	0.0	309.4654269218445	2.5083601474761963
58	195.72349214553833	fix_post	2		12.0	56.0	2.5	/experiments/knapen_aot/videos/S_yt-deiWoIfK6vg_44.mp4	0.0	311.9737870693207	0.10000395774841309
59	195.82349610328674	fix_pre	0		125.0	57.0	2.5	/experiments/knapen_aot/videos/S_g201_TH_804_A001_8_SDR_20191031_SDR_2K_AVC.mp4	0.0	312.0737910270691	1.041590929031372
59	196.8568902015686	response	0	2		57.0	2.5	/experiments/knapen_aot/videos/S_g201_TH_804_A001_8_SDR_20191031_SDR_2K_AVC.mp4	0.0	313.10718512535095	
59	196.86508703231812	movie	1		166.0	57.0	2.5	/experiments/knapen_aot/videos/S_g201_TH_804_A001_8_SDR_20191031_SDR_2K_AVC.mp4	0.0	313.11538195610046	2.5083861351013184
59	199.37347316741943	fix_post	2		12.0	57.0	2.5	/experiments/knapen_aot/videos/S_g201_TH_804_A001_8_SDR_20191031_SDR_2K_AVC.mp4	0.0	315.6237680912018	0.1000518798828125
60	199.47352504730225	fix_pre	0		88.0	58.0	2.5	/experiments/knapen_aot/videos/S_yt-K7viJXt9vX8_143.mp4	0.0	315.7238199710846	0.733220100402832
60	200.1986060142517	response	0	2		58.0	2.5	/experiments/knapen_aot/videos/S_yt-K7viJXt9vX8_143.mp4	0.0	316.44890093803406	
60	200.20674514770508	movie	1		301.0	58.0	2.5	/experiments/knapen_aot/videos/S_yt-K7viJXt9vX8_143.mp4	0.0	316.4570400714874	2.508380889892578
60	202.71512603759766	fix_post	2		12.0	58.0	2.5	/experiments/knapen_aot/videos/S_yt-K7viJXt9vX8_143.mp4	0.0	318.96542096138	0.09997797012329102
61	202.81510400772095	fix_pre	0		60.0	59.0	2.5	/experiments/knapen_aot/videos/S_yt-wVMhACNFF-M_154.mp4	0.0	319.0653989315033	0.49998998641967773
61	203.30685114860535	response	0	2		59.0	2.5	/experiments/knapen_aot/videos/S_yt-wVMhACNFF-M_154.mp4	0.0	319.5571460723877	
61	203.31509399414062	movie	1		298.0	59.0	2.5	/experiments/knapen_aot/videos/S_yt-wVMhACNFF-M_154.mp4	0.0	319.565388917923	2.508390188217163
61	205.8234841823578	fix_post	2		12.0	59.0	2.5	/experiments/knapen_aot/videos/S_yt-wVMhACNFF-M_154.mp4	0.0	322.07377910614014	0.10001587867736816
62	205.92350006103516	fix_pre	0		91.0	60.0	2.5	/experiments/knapen_aot/videos/R_S_yt-n6aLw10f2Yw_317.mp4	0.0	322.1737949848175	0.7595949172973633
62	206.67363619804382	response	0	2		60.0	2.5	/experiments/knapen_aot/videos/R_S_yt-n6aLw10f2Yw_317.mp4	0.0	322.9239311218262	
62	206.68309497833252	movie	1		301.0	60.0	2.5	/experiments/knapen_aot/videos/R_S_yt-n6aLw10f2Yw_317.mp4	0.0	322.93338990211487	2.506991147994995
62	209.19008612632751	fix_post	2		12.0	60.0	2.5	/experiments/knapen_aot/videos/R_S_yt-n6aLw10f2Yw_317.mp4	0.0	325.44038105010986	0.0999908447265625
63	209.29007697105408	fix_pre	0		86.0	61.0	2.5	/experiments/knapen_aot/videos/R_S_yt-1n1jTroiwJs_163.mp4	0.0	325.5403718948364	0.7166831493377686
63	209.99855208396912	response	0	2		61.0	2.5	/experiments/knapen_aot/videos/R_S_yt-1n1jTroiwJs_163.mp4	0.0	326.24884700775146	
63	210.00676012039185	movie	1		301.0	61.0	2.5	/experiments/knapen_aot/videos/R_S_yt-1n1jTroiwJs_163.mp4	0.0	326.2570550441742	2.508275032043457
63	212.5150351524353	fix_post	2		12.0	61.0	2.5	/experiments/knapen_aot/videos/R_S_yt-1n1jTroiwJs_163.mp4	0.0	328.76533007621765	0.10003805160522461
64	212.61507320404053	fix_pre	0		60.0	62.0	2.5	/experiments/knapen_aot/videos/R_S_yt-jy7rAnpu0u8_128.mp4	0.0	328.8653681278229	0.49997878074645996
64	213.10681700706482	response	0	2		62.0	2.5	/experiments/knapen_aot/videos/R_S_yt-jy7rAnpu0u8_128.mp4	0.0	329.35711193084717	
64	213.115051984787	movie	1		301.0	62.0	2.5	/experiments/knapen_aot/videos/R_S_yt-jy7rAnpu0u8_128.mp4	0.0	329.36534690856934	2.508366107940674
64	215.62341809272766	fix_post	2		12.0	62.0	2.5	/experiments/knapen_aot/videos/R_S_yt-jy7rAnpu0u8_128.mp4	0.0	331.87371301651	0.10006308555603027
65	215.7234811782837	fix_pre	0		53.0	63.0	2.5	blank	1.0	331.97377610206604	0.4415769577026367
65	216.1568431854248	response	0	2		63.0	2.5	blank	1.0	332.40713810920715	
65	216.16505813598633	movie	1		301.0	63.0	2.5	blank	1.0	332.4153530597687	2.5083558559417725
65	218.6734139919281	fix_post	2		12.0	63.0	2.5	blank	1.0	334.92370891571045	0.10002303123474121
66	218.77343702316284	fix_pre	0		24.0	64.0	2.5	/experiments/knapen_aot/videos/R_S_ILSVRC2015_train_00371010.mp4	0.0	335.0237319469452	0.20115113258361816
66	218.96525311470032	response	0	2		64.0	2.5	/experiments/knapen_aot/videos/R_S_ILSVRC2015_train_00371010.mp4	0.0	335.21554803848267	
66	218.97458815574646	movie	1		298.0	64.0	2.5	/experiments/knapen_aot/videos/R_S_ILSVRC2015_train_00371010.mp4	0.0	335.2248830795288	2.50705885887146
66	221.48164701461792	fix_post	2		12.0	64.0	2.5	/experiments/knapen_aot/videos/R_S_ILSVRC2015_train_00371010.mp4	0.0	337.73194193840027	0.10001111030578613
67	221.5816581249237	fix_pre	0		108.0	65.0	2.5	/experiments/knapen_aot/videos/S_yt-NqyG4Ar2JWo_10.mp4	0.0	337.83195304870605	0.9000229835510254
67	222.47358202934265	response	0	2		65.0	2.5	/experiments/knapen_aot/videos/S_yt-NqyG4Ar2JWo_10.mp4	0.0	338.723876953125	
67	222.48168110847473	movie	1		301.0	65.0	2.5	/experiments/knapen_aot/videos/S_yt-NqyG4Ar2JWo_10.mp4	0.0	338.7319760322571	2.508328914642334
67	224.99001002311707	fix_post	2		12.0	65.0	2.5	/experiments/knapen_aot/videos/S_yt-NqyG4Ar2JWo_10.mp4	0.0	341.2403049468994	0.09994101524353027
68	225.0899510383606	fix_pre	0		123.0	66.0	2.5	/experiments/knapen_aot/videos/R_S_yt-Fm97IY0Z2LU_79.mp4	0.0	341.34024596214294	1.0250401496887207
68	226.10680198669434	response	0	2		66.0	2.5	/experiments/knapen_aot/videos/R_S_yt-Fm97IY0Z2LU_79.mp4	0.0	342.3570969104767	
68	226.11499118804932	movie	1		301.0	66.0	2.5	/experiments/knapen_aot/videos/R_S_yt-Fm97IY0Z2LU_79.mp4	0.0	342.36528611183167	2.5084078311920166
68	228.62339901924133	fix_post	2		12.0	66.0	2.5	/experiments/knapen_aot/videos/R_S_yt-Fm97IY0Z2LU_79.mp4	0.0	344.8736939430237	0.09990501403808594
69	228.72330403327942	fix_pre	0		106.0	67.0	2.5	/experiments/knapen_aot/videos/S_yt-J1dw4AznwmQ_7.mp4	0.0	344.97359895706177	0.8833420276641846
69	229.5909559726715	response	0	2		67.0	2.5	/experiments/knapen_aot/videos/S_yt-J1dw4AznwmQ_7.mp4	0.0	345.84125089645386	
69	229.6066460609436	movie	1		301.0	67.0	2.5	/experiments/knapen_aot/videos/S_yt-J1dw4AznwmQ_7.mp4	0.0	345.85694098472595	2.508384943008423
69	232.11503100395203	fix_post	2		12.0	67.0	2.5	/experiments/knapen_aot/videos/S_yt-J1dw4AznwmQ_7.mp4	0.0	348.3653259277344	0.09996819496154785
70	232.21499919891357	fix_pre	0		105.0	68.0	2.5	/experiments/knapen_aot/videos/S_P007_C027_UHD_SDR_2K_AVC.mp4	0.0	348.4652941226959	0.8750159740447998
70	233.08180117607117	response	0	2		68.0	2.5	/experiments/knapen_aot/videos/S_P007_C027_UHD_SDR_2K_AVC.mp4	0.0	349.3320960998535	
70	233.09001517295837	movie	1		167.0	68.0	2.5	/experiments/knapen_aot/videos/S_P007_C027_UHD_SDR_2K_AVC.mp4	0.0	349.3403100967407	2.5082709789276123
70	235.598286151886	fix_post	2		12.0	68.0	2.5	/experiments/knapen_aot/videos/S_P007_C027_UHD_SDR_2K_AVC.mp4	0.0	351.84858107566833	0.09995889663696289
71	235.69824504852295	fix_pre	0		78.0	69.0	2.5	/experiments/knapen_aot/videos/R_S_yt-UmLeGNcqouI_718.mp4	0.0	351.9485399723053	0.6511960029602051
71	236.34012508392334	response	0	2		69.0	2.5	/experiments/knapen_aot/videos/R_S_yt-UmLeGNcqouI_718.mp4	0.0	352.5904200077057	
71	236.34944105148315	movie	1		299.0	69.0	2.5	/experiments/knapen_aot/videos/R_S_yt-UmLeGNcqouI_718.mp4	0.0	352.5997359752655	2.507174015045166
71	238.85661506652832	fix_post	2		12.0	69.0	2.5	/experiments/knapen_aot/videos/R_S_yt-UmLeGNcqouI_718.mp4	0.0	355.10690999031067	0.10002803802490234
72	238.95664310455322	fix_pre	0		87.0	70.0	2.5	blank	1.0	355.20693802833557	0.7249369621276855
72	239.67336916923523	response	0	2		70.0	2.5	blank	1.0	355.9236640930176	
72	239.6815800666809	movie	1		301.0	70.0	2.5	blank	1.0	355.93187499046326	2.508357048034668
72	242.18993711471558	fix_post	2		12.0	70.0	2.5	blank	1.0	358.4402320384979	0.10004091262817383
73	242.28997802734375	fix_pre	0		93.0	71.0	2.5	/experiments/knapen_aot/videos/S_I003_C015_SDR_2K_AVC.mp4	0.0	358.5402729511261	0.7749161720275879
73	243.05675411224365	response	0	2		71.0	2.5	/experiments/knapen_aot/videos/S_I003_C015_SDR_2K_AVC.mp4	0.0	359.307049036026	
73	243.06489419937134	movie	1		170.0	71.0	2.5	/experiments/knapen_aot/videos/S_I003_C015_SDR_2K_AVC.mp4	0.0	359.3151891231537	2.50833797454834
73	245.57323217391968	fix_post	2		12.0	71.0	2.5	/experiments/knapen_aot/videos/S_I003_C015_SDR_2K_AVC.mp4	0.0	361.823527097702	0.10002398490905762
74	245.67325615882874	fix_pre	0		94.0	72.0	2.5	/experiments/knapen_aot/videos/R_S_yt-qurTr1BJMec_244.mp4	0.0	361.9235510826111	0.783322811126709
74	246.44837617874146	response	0	2		72.0	2.5	/experiments/knapen_aot/videos/R_S_yt-qurTr1BJMec_244.mp4	0.0	362.6986711025238	
74	246.45657896995544	movie	1		301.0	72.0	2.5	/experiments/knapen_aot/videos/R_S_yt-qurTr1BJMec_244.mp4	0.0	362.7068738937378	2.5083701610565186
74	248.96494913101196	fix_post	2		12.0	72.0	2.5	/experiments/knapen_aot/videos/R_S_yt-qurTr1BJMec_244.mp4	0.0	365.2152440547943	0.09996294975280762
75	249.06491208076477	fix_pre	0		97.0	73.0	2.5	/experiments/knapen_aot/videos/R_S_2RTDFkjD6vI_93.mp4	0.0	365.3152070045471	0.8083419799804688
75	249.86507320404053	response	0	2		73.0	2.5	/experiments/knapen_aot/videos/R_S_2RTDFkjD6vI_93.mp4	0.0	366.1153681278229	
75	249.87325406074524	movie	1		297.0	73.0	2.5	/experiments/knapen_aot/videos/R_S_2RTDFkjD6vI_93.mp4	0.0	366.1235489845276	2.508228063583374
75	252.3814821243286	fix_post	2		12.0	73.0	2.5	/experiments/knapen_aot/videos/R_S_2RTDFkjD6vI_93.mp4	0.0	368.63177704811096	0.10009288787841797
76	252.48157501220703	fix_pre	0		107.0	74.0	2.5	/experiments/knapen_aot/videos/S_yt-UmLeGNcqouI_718.mp4	0.0	368.7318699359894	0.8917121887207031
76	253.3652331829071	response	0	2		74.0	2.5	/experiments/knapen_aot/videos/S_yt-UmLeGNcqouI_718.mp4	0.0	369.61552810668945	
76	253.37328720092773	movie	1		301.0	74.0	2.5	/experiments/knapen_aot/videos/S_yt-UmLeGNcqouI_718.mp4	0.0	369.6235821247101	2.508246898651123
76	255.88153409957886	fix_post	2		12.0	74.0	2.5	/experiments/knapen_aot/videos/S_yt-UmLeGNcqouI_718.mp4	0.0	372.1318290233612	0.10005998611450195
77	255.98159408569336	fix_pre	0		110.0	75.0	2.5	/experiments/knapen_aot/videos/S_yt-9CY7rDYBYUI_40.mp4	0.0	372.2318890094757	0.9166259765625
77	256.8900201320648	response	0	2		75.0	2.5	/experiments/knapen_aot/videos/S_yt-9CY7rDYBYUI_40.mp4	0.0	373.14031505584717	
77	256.89822006225586	movie	1		301.0	75.0	2.5	/experiments/knapen_aot/videos/S_yt-9CY7rDYBYUI_40.mp4	0.0	373.1485149860382	2.5083460807800293
77	259.4065661430359	fix_post	2		12.0	75.0	2.5	/experiments/knapen_aot/videos/S_yt-9CY7rDYBYUI_40.mp4	0.0	375.65686106681824	0.10009193420410156
78	259.50665807724	fix_pre	0		84.0	76.0	2.5	/experiments/knapen_aot/videos/R_S_yt-j3Sk8ZnAiEA_32.mp4	0.0	375.75695300102234	0.6998560428619385
78	260.1983640193939	response	0	2		76.0	2.5	/experiments/knapen_aot/videos/R_S_yt-j3Sk8ZnAiEA_32.mp4	0.0	376.44865894317627	
78	260.20651412010193	movie	1		300.0	76.0	2.5	/experiments/knapen_aot/videos/R_S_yt-j3Sk8ZnAiEA_32.mp4	0.0	376.4568090438843	2.508236885070801
78	262.71475100517273	fix_post	2		12.0	76.0	2.5	/experiments/knapen_aot/videos/R_S_yt-j3Sk8ZnAiEA_32.mp4	0.0	378.9650459289551	0.10005402565002441
79	262.81480503082275	fix_pre	0		101.0	77.0	2.5	blank	1.0	379.0650999546051	0.8416869640350342
79	263.64832305908203	response	0	2		77.0	2.5	blank	1.0	379.8986179828644	
79	263.6564919948578	movie	1		301.0	77.0	2.5	blank	1.0	379.90678691864014	2.5083091259002686
79	266.16480112075806	fix_post	2		12.0	77.0	2.5	blank	1.0	382.4150960445404	0.10009193420410156
80	266.26489305496216	fix_pre	0		74.0	78.0	2.5	/experiments/knapen_aot/videos/R_S_yt-WCT9dyz0-gQ_36.mp4	0.0	382.5151879787445	0.6165659427642822
80	266.873202085495	response	0	2		78.0	2.5	/experiments/knapen_aot/videos/R_S_yt-WCT9dyz0-gQ_36.mp4	0.0	383.12349700927734	
80	266.88145899772644	movie	1		301.0	78.0	2.5	/experiments/knapen_aot/videos/R_S_yt-WCT9dyz0-gQ_36.mp4	0.0	383.1317539215088	2.508331060409546
80	269.389790058136	fix_post	2		12.0	78.0	2.5	/experiments/knapen_aot/videos/R_S_yt-WCT9dyz0-gQ_36.mp4	0.0	385.64008498191833	0.09997105598449707
81	269.4897611141205	fix_pre	0		58.0	79.0	2.5	/experiments/knapen_aot/videos/S_ILSVRC2015_train_00318000.mp4	0.0	385.74005603790283	0.48439502716064453
81	269.9649431705475	response	0	2		79.0	2.5	/experiments/knapen_aot/videos/S_ILSVRC2015_train_00318000.mp4	0.0	386.21523809432983	
81	269.9741561412811	movie	1		301.0	79.0	2.5	/experiments/knapen_aot/videos/S_ILSVRC2015_train_00318000.mp4	0.0	386.2244510650635	2.5072810649871826
81	272.4814372062683	fix_post	2		12.0	79.0	2.5	/experiments/knapen_aot/videos/S_ILSVRC2015_train_00318000.mp4	0.0	388.73173213005066	0.09999585151672363
82	272.58143305778503	fix_pre	0		68.0	80.0	2.5	/experiments/knapen_aot/videos/S_yt-WpLgDX6Yw_s_20.mp4	0.0	388.8317279815674	0.5666959285736084
82	273.1398470401764	response	0	2		80.0	2.5	/experiments/knapen_aot/videos/S_yt-WpLgDX6Yw_s_20.mp4	0.0	389.39014196395874	
82	273.14812898635864	movie	1		301.0	80.0	2.5	/experiments/knapen_aot/videos/S_yt-WpLgDX6Yw_s_20.mp4	0.0	389.398423910141	2.508275032043457
82	275.6564040184021	fix_post	2		12.0	80.0	2.5	/experiments/knapen_aot/videos/S_yt-WpLgDX6Yw_s_20.mp4	0.0	391.90669894218445	0.10010218620300293
83	275.7565062046051	fix_pre	0		80.0	81.0	2.5	/experiments/knapen_aot/videos/S_goAwcQiFu1Q_99.mp4	0.0	392.00680112838745	0.6665549278259277
83	276.41501808166504	response	0	2		81.0	2.5	/experiments/knapen_aot/videos/S_goAwcQiFu1Q_99.mp4	0.0	392.6653130054474	
83	276.42306113243103	movie	1		301.0	81.0	2.5	/experiments/knapen_aot/videos/S_goAwcQiFu1Q_99.mp4	0.0	392.6733560562134	2.508410930633545
83	278.9314720630646	fix_post	2		12.0	81.0	2.5	/experiments/knapen_aot/videos/S_goAwcQiFu1Q_99.mp4	0.0	395.1817669868469	0.10000395774841309
84	279.031476020813	fix_pre	0		75.0	82.0	2.5	/experiments/knapen_aot/videos/S_PA_A001_C007_SDR_20190717_SDR_2K_AVC.mp4	0.0	395.28177094459534	0.6249780654907227
84	279.6408271789551	response	0	2		82.0	2.5	/experiments/knapen_aot/videos/S_PA_A001_C007_SDR_20190717_SDR_2K_AVC.mp4	0.0	395.8911221027374	
84	279.6564540863037	movie	1		162.0	82.0	2.5	/experiments/knapen_aot/videos/S_PA_A001_C007_SDR_20190717_SDR_2K_AVC.mp4	0.0	395.90674901008606	2.508255958557129
84	282.16471004486084	fix_post	2		12.0	82.0	2.5	/experiments/knapen_aot/videos/S_PA_A001_C007_SDR_20190717_SDR_2K_AVC.mp4	0.0	398.4150049686432	0.10006308555603027
85	282.26477313041687	fix_pre	0		84.0	83.0	2.5	blank	1.0	398.5150680541992	0.6999189853668213
85	282.95656514167786	response	0	2		83.0	2.5	blank	1.0	399.2068600654602	
85	282.9646921157837	movie	1		301.0	83.0	2.5	blank	1.0	399.21498703956604	2.508375883102417
85	285.4730679988861	fix_post	2		12.0	83.0	2.5	blank	1.0	401.72336292266846	0.10001707077026367
87	285.5730850696564	stim	0		123.0					401.8233799934387	1.0258820056915283
87	286.5905020236969	response	0	space						402.84079694747925	
