trial_nr	onset	event_type	phase	response	nr_frames	movie_index	movie_duration	movie_file	blank	onset_abs	duration
0	0.15281915664672852	stim	0		39.0					207.17489504814148	0.3209969997406006
0	0.4657411575317383	response	0	space						207.4878170490265	
1	0.4738161563873291	stim	0		121.0					207.49589204788208	1.0081689357757568
1	1.481985092163086	stim	1		120.0					208.50406098365784	1.000011920928955
1	1.973621129989624	response	1	space						208.99569702148438	
2	2.481997013092041	fix_pre	0		4.0	0.0	2.5	/experiments/knapen_aot/videos/R_S_yt-0MB_IYX1fgo_44.mp4	0.0	209.5040729045868	0.03316807746887207
2	2.5070321559906006	response	0	space		0.0	2.5	/experiments/knapen_aot/videos/R_S_yt-0MB_IYX1fgo_44.mp4	0.0	209.52910804748535	
2	2.515165090560913	movie	1		300.0	0.0	2.5	/experiments/knapen_aot/videos/R_S_yt-0MB_IYX1fgo_44.mp4	0.0	209.53724098205566	2.5084478855133057
2	5.023612976074219	fix_post	2		12.0	0.0	2.5	/experiments/knapen_aot/videos/R_S_yt-0MB_IYX1fgo_44.mp4	0.0	212.04568886756897	0.09994006156921387
3	5.123553037643433	fix_pre	0		78.0	1.0	2.5	/experiments/knapen_aot/videos/S_comp_L004_C011_PS_v01_SDR_PS_20180925_SDR_2K_AVC.mp4	0.0	212.14562892913818	0.6499431133270264
3	5.766749143600464	response	0	2		1.0	2.5	/experiments/knapen_aot/videos/S_comp_L004_C011_PS_v01_SDR_PS_20180925_SDR_2K_AVC.mp4	0.0	212.78882503509521	
3	5.773496150970459	movie	1		164.0	1.0	2.5	/experiments/knapen_aot/videos/S_comp_L004_C011_PS_v01_SDR_PS_20180925_SDR_2K_AVC.mp4	0.0	212.7955720424652	2.508553981781006
3	8.282050132751465	fix_post	2		12.0	1.0	2.5	/experiments/knapen_aot/videos/S_comp_L004_C011_PS_v01_SDR_PS_20180925_SDR_2K_AVC.mp4	0.0	215.30412602424622	0.09977197647094727
4	8.381822109222412	fix_pre	0		26.0	2.0	2.5	/experiments/knapen_aot/videos/R_S_yt-dkBlyE3igk0_44.mp4	0.0	215.40389800071716	0.2166280746459961
4	8.590275049209595	response	0	2		2.0	2.5	/experiments/knapen_aot/videos/R_S_yt-dkBlyE3igk0_44.mp4	0.0	215.61235094070435	
4	8.598450183868408	movie	1		301.0	2.0	2.5	/experiments/knapen_aot/videos/R_S_yt-dkBlyE3igk0_44.mp4	0.0	215.62052607536316	2.508366823196411
4	11.10681700706482	fix_post	2		12.0	2.0	2.5	/experiments/knapen_aot/videos/R_S_yt-dkBlyE3igk0_44.mp4	0.0	218.12889289855957	0.10005807876586914
5	11.206875085830688	fix_pre	0		33.0	3.0	2.5	/experiments/knapen_aot/videos/R_S_ILSVRC2015_train_00756000.mp4	0.0	218.22895097732544	0.27490997314453125
5	11.473639011383057	response	0	2		3.0	2.5	/experiments/knapen_aot/videos/R_S_ILSVRC2015_train_00756000.mp4	0.0	218.4957149028778	
5	11.48178505897522	movie	1		301.0	3.0	2.5	/experiments/knapen_aot/videos/R_S_ILSVRC2015_train_00756000.mp4	0.0	218.50386095046997	2.5083580017089844
5	13.990143060684204	fix_post	2		12.0	3.0	2.5	/experiments/knapen_aot/videos/R_S_ILSVRC2015_train_00756000.mp4	0.0	221.01221895217896	0.10002493858337402
6	14.090167999267578	fix_pre	0		39.0	4.0	2.5	/experiments/knapen_aot/videos/R_S_yt-5rC42egLl5E_387.mp4	0.0	221.11224389076233	0.3260509967803955
6	14.40699815750122	response	0	2		4.0	2.5	/experiments/knapen_aot/videos/R_S_yt-5rC42egLl5E_387.mp4	0.0	221.42907404899597	
6	14.416218996047974	movie	1		301.0	4.0	2.5	/experiments/knapen_aot/videos/R_S_yt-5rC42egLl5E_387.mp4	0.0	221.43829488754272	2.5073330402374268
6	16.9235520362854	fix_post	2		12.0	4.0	2.5	/experiments/knapen_aot/videos/R_S_yt-5rC42egLl5E_387.mp4	0.0	223.94562792778015	0.09985899925231934
7	17.02341103553772	fix_pre	0		47.0	5.0	2.5	blank	1.0	224.04548692703247	0.39264798164367676
7	17.406938076019287	response	0	2		5.0	2.5	blank	1.0	224.42901396751404	
7	17.416059017181396	movie	1		301.0	5.0	2.5	blank	1.0	224.43813490867615	2.5073490142822266
7	19.923408031463623	fix_post	2		12.0	5.0	2.5	blank	1.0	226.94548392295837	0.10008502006530762
8	20.02349305152893	fix_pre	0		43.0	6.0	2.5	/experiments/knapen_aot/videos/S_yt-28ODBE9bVh0_44.mp4	0.0	227.04556894302368	0.35819292068481445
8	20.366077184677124	response	0	2		6.0	2.5	/experiments/knapen_aot/videos/S_yt-28ODBE9bVh0_44.mp4	0.0	227.38815307617188	
8	20.381685972213745	movie	1		301.0	6.0	2.5	/experiments/knapen_aot/videos/S_yt-28ODBE9bVh0_44.mp4	0.0	227.4037618637085	2.5083730220794678
8	22.890058994293213	fix_post	2		12.0	6.0	2.5	/experiments/knapen_aot/videos/S_yt-28ODBE9bVh0_44.mp4	0.0	229.91213488578796	0.10007500648498535
9	22.9901340007782	fix_pre	0		24.0	7.0	2.5	/experiments/knapen_aot/videos/S_ILSVRC2015_train_00479004.mp4	0.0	230.01220989227295	0.19996905326843262
9	23.181926012039185	response	0	2		7.0	2.5	/experiments/knapen_aot/videos/S_ILSVRC2015_train_00479004.mp4	0.0	230.20400190353394	
9	23.19010305404663	movie	1		301.0	7.0	2.5	/experiments/knapen_aot/videos/S_ILSVRC2015_train_00479004.mp4	0.0	230.21217894554138	2.5083460807800293
9	25.69844913482666	fix_post	2		12.0	7.0	2.5	/experiments/knapen_aot/videos/S_ILSVRC2015_train_00479004.mp4	0.0	232.7205250263214	0.09997296333312988
10	25.79842209815979	fix_pre	0		22.0	8.0	2.5	/experiments/knapen_aot/videos/S_yt-PYP0fEQ357c_89.mp4	0.0	232.82049798965454	0.18337106704711914
10	25.973531007766724	response	0	2		8.0	2.5	/experiments/knapen_aot/videos/S_yt-PYP0fEQ357c_89.mp4	0.0	232.99560689926147	
10	25.98179316520691	movie	1		301.0	8.0	2.5	/experiments/knapen_aot/videos/S_yt-PYP0fEQ357c_89.mp4	0.0	233.00386905670166	2.5083279609680176
10	28.490121126174927	fix_post	2		12.0	8.0	2.5	/experiments/knapen_aot/videos/S_yt-PYP0fEQ357c_89.mp4	0.0	235.51219701766968	0.09992194175720215
11	28.59004306793213	fix_pre	0		58.0	9.0	2.5	/experiments/knapen_aot/videos/R_S_ILSVRC2015_train_00155004.mp4	0.0	235.61211895942688	0.48336291313171387
11	29.065131187438965	response	0	2		9.0	2.5	/experiments/knapen_aot/videos/R_S_ILSVRC2015_train_00155004.mp4	0.0	236.08720707893372	
11	29.073405981063843	movie	1		301.0	9.0	2.5	/experiments/knapen_aot/videos/R_S_ILSVRC2015_train_00155004.mp4	0.0	236.0954818725586	2.5083470344543457
11	31.58175301551819	fix_post	2		12.0	9.0	2.5	/experiments/knapen_aot/videos/R_S_ILSVRC2015_train_00155004.mp4	0.0	238.60382890701294	0.09998416900634766
12	31.681737184524536	fix_pre	0		59.0	10.0	2.5	/experiments/knapen_aot/videos/R_S_yt-GO26QIueqRw_385.mp4	0.0	238.7038130760193	0.4916388988494873
12	32.16512608528137	response	0	2		10.0	2.5	/experiments/knapen_aot/videos/R_S_yt-GO26QIueqRw_385.mp4	0.0	239.18720197677612	
12	32.17337608337402	movie	1		301.0	10.0	2.5	/experiments/knapen_aot/videos/R_S_yt-GO26QIueqRw_385.mp4	0.0	239.19545197486877	2.5083630084991455
12	34.68173909187317	fix_post	2		12.0	10.0	2.5	/experiments/knapen_aot/videos/R_S_yt-GO26QIueqRw_385.mp4	0.0	241.70381498336792	0.10001802444458008
13	34.78175711631775	fix_pre	0		14.0	11.0	2.5	/experiments/knapen_aot/videos/R_S_ILSVRC2015_train_00463000.mp4	0.0	241.8038330078125	0.11665987968444824
13	34.88260507583618	response	0	2		11.0	2.5	/experiments/knapen_aot/videos/R_S_ILSVRC2015_train_00463000.mp4	0.0	241.90468096733093	
13	34.8984169960022	movie	1		301.0	11.0	2.5	/experiments/knapen_aot/videos/R_S_ILSVRC2015_train_00463000.mp4	0.0	241.92049288749695	2.50835919380188
13	37.40677618980408	fix_post	2		12.0	11.0	2.5	/experiments/knapen_aot/videos/R_S_ILSVRC2015_train_00463000.mp4	0.0	244.42885208129883	0.09994983673095703
14	37.506726026535034	fix_pre	0		39.0	12.0	2.5	/experiments/knapen_aot/videos/R_S_yt-bhiGMKSAz2g_370.mp4	0.0	244.52880191802979	0.32590317726135254
14	37.82345509529114	response	0	2		12.0	2.5	/experiments/knapen_aot/videos/R_S_yt-bhiGMKSAz2g_370.mp4	0.0	244.8455309867859	
14	37.83262920379639	movie	1		301.0	12.0	2.5	/experiments/knapen_aot/videos/R_S_yt-bhiGMKSAz2g_370.mp4	0.0	244.85470509529114	2.507396936416626
14	40.34002614021301	fix_post	2		12.0	12.0	2.5	/experiments/knapen_aot/videos/R_S_yt-bhiGMKSAz2g_370.mp4	0.0	247.36210203170776	0.1000359058380127
15	40.440062046051025	fix_pre	0		39.0	13.0	2.5	blank	1.0	247.46213793754578	0.32497501373291016
15	40.7568461894989	response	0	2		13.0	2.5	blank	1.0	247.77892208099365	
15	40.765037059783936	movie	1		301.0	13.0	2.5	blank	1.0	247.7871129512787	2.5083351135253906
15	43.273372173309326	fix_post	2		12.0	13.0	2.5	blank	1.0	250.29544806480408	0.10022497177124023
16	43.373597145080566	fix_pre	0		44.0	14.0	2.5	/experiments/knapen_aot/videos/S_pexels-koolshooters-7691440.mp4	0.0	250.39567303657532	0.36638593673706055
16	43.731796979904175	response	0	2		14.0	2.5	/experiments/knapen_aot/videos/S_pexels-koolshooters-7691440.mp4	0.0	250.75387287139893	
16	43.73998308181763	movie	1		164.0	14.0	2.5	/experiments/knapen_aot/videos/S_pexels-koolshooters-7691440.mp4	0.0	250.76205897331238	2.5083909034729004
16	46.24837398529053	fix_post	2		12.0	14.0	2.5	/experiments/knapen_aot/videos/S_pexels-koolshooters-7691440.mp4	0.0	253.27044987678528	0.09998512268066406
17	46.34835910797119	fix_pre	0		41.0	15.0	2.5	/experiments/knapen_aot/videos/S_yt-b7bIulV49DQ_81.mp4	0.0	253.37043499946594	0.34159398078918457
17	46.68179798126221	response	0	2		15.0	2.5	/experiments/knapen_aot/videos/S_yt-b7bIulV49DQ_81.mp4	0.0	253.70387387275696	
17	46.689953088760376	movie	1		301.0	15.0	2.5	/experiments/knapen_aot/videos/S_yt-b7bIulV49DQ_81.mp4	0.0	253.71202898025513	2.5083940029144287
17	49.198347091674805	fix_post	2		12.0	15.0	2.5	/experiments/knapen_aot/videos/S_yt-b7bIulV49DQ_81.mp4	0.0	256.22042298316956	0.09998703002929688
18	49.2983341217041	fix_pre	0		28.0	16.0	2.5	/experiments/knapen_aot/videos/S_production_ID_4707837.mp4	0.0	256.32041001319885	0.23328495025634766
18	49.523420095443726	response	0	2		16.0	2.5	/experiments/knapen_aot/videos/S_production_ID_4707837.mp4	0.0	256.5454959869385	
18	49.53161907196045	movie	1		165.0	16.0	2.5	/experiments/knapen_aot/videos/S_production_ID_4707837.mp4	0.0	256.5536949634552	2.5083179473876953
18	52.039937019348145	fix_post	2		12.0	16.0	2.5	/experiments/knapen_aot/videos/S_production_ID_4707837.mp4	0.0	259.0620129108429	0.10006213188171387
19	52.13999915122986	fix_pre	0		259.0	17.0	2.5	/experiments/knapen_aot/videos/S_yt-1CV2cYtUlxE_57.mp4	0.0	259.1620750427246	2.158323049545288
19	54.29010200500488	response	0	2		17.0	2.5	/experiments/knapen_aot/videos/S_yt-1CV2cYtUlxE_57.mp4	0.0	261.31217789649963	
19	54.29832220077515	movie	1		301.0	17.0	2.5	/experiments/knapen_aot/videos/S_yt-1CV2cYtUlxE_57.mp4	0.0	261.3203980922699	2.5083208084106445
19	56.80664300918579	fix_post	2		12.0	17.0	2.5	/experiments/knapen_aot/videos/S_yt-1CV2cYtUlxE_57.mp4	0.0	263.82871890068054	0.10002017021179199
20	56.90666317939758	fix_pre	0		45.0	18.0	2.5	/experiments/knapen_aot/videos/R_S_yt-ayx4rU9bJrU_179.mp4	0.0	263.92873907089233	0.37494492530822754
20	57.27349519729614	response	0	2		18.0	2.5	/experiments/knapen_aot/videos/R_S_yt-ayx4rU9bJrU_179.mp4	0.0	264.2955710887909	
20	57.28160810470581	movie	1		301.0	18.0	2.5	/experiments/knapen_aot/videos/R_S_yt-ayx4rU9bJrU_179.mp4	0.0	264.30368399620056	2.508323907852173
20	59.78993201255798	fix_post	2		12.0	18.0	2.5	/experiments/knapen_aot/videos/R_S_yt-ayx4rU9bJrU_179.mp4	0.0	266.81200790405273	0.10004401206970215
21	59.889976024627686	fix_pre	0		30.0	19.0	2.5	/experiments/knapen_aot/videos/S_comp_A105_C003_0212CT_FLARE_v10_SDR_PS_FINAL_20180711_SDR_2K_AVC.mp4	0.0	266.91205191612244	0.24996209144592285
21	60.13181209564209	response	0	2		19.0	2.5	/experiments/knapen_aot/videos/S_comp_A105_C003_0212CT_FLARE_v10_SDR_PS_FINAL_20180711_SDR_2K_AVC.mp4	0.0	267.15388798713684	
21	60.13993811607361	movie	1		175.0	19.0	2.5	/experiments/knapen_aot/videos/S_comp_A105_C003_0212CT_FLARE_v10_SDR_PS_FINAL_20180711_SDR_2K_AVC.mp4	0.0	267.16201400756836	2.5082950592041016
21	62.64823317527771	fix_post	2		12.0	19.0	2.5	/experiments/knapen_aot/videos/S_comp_A105_C003_0212CT_FLARE_v10_SDR_PS_FINAL_20180711_SDR_2K_AVC.mp4	0.0	269.67030906677246	0.10004091262817383
22	62.748274087905884	fix_pre	0		23.0	20.0	2.5	blank	1.0	269.77034997940063	0.19175291061401367
22	62.93190908432007	response	0	2		20.0	2.5	blank	1.0	269.9539849758148	
22	62.9400269985199	movie	1		301.0	20.0	2.5	blank	1.0	269.96210289001465	2.5082480907440186
22	65.44827508926392	fix_post	2		12.0	20.0	2.5	blank	1.0	272.47035098075867	0.10000395774841309
23	65.54827904701233	fix_pre	0		35.0	21.0	2.5	/experiments/knapen_aot/videos/S_yt-w_C-15eJeCQ_191.mp4	0.0	272.5703549385071	0.2915959358215332
23	65.83169412612915	response	0	2		21.0	2.5	/experiments/knapen_aot/videos/S_yt-w_C-15eJeCQ_191.mp4	0.0	272.8537700176239	
23	65.83987498283386	movie	1		301.0	21.0	2.5	/experiments/knapen_aot/videos/S_yt-w_C-15eJeCQ_191.mp4	0.0	272.8619508743286	2.508385181427002
23	68.34826016426086	fix_post	2		12.0	21.0	2.5	/experiments/knapen_aot/videos/S_yt-w_C-15eJeCQ_191.mp4	0.0	275.3703360557556	0.1000208854675293
24	68.4482810497284	fix_pre	0		188.0	22.0	2.5	/experiments/knapen_aot/videos/R_S_yt--I4Ggi6-QOE_23.mp4	0.0	275.47035694122314	1.5666041374206543
24	70.00675797462463	response	0	2		22.0	2.5	/experiments/knapen_aot/videos/R_S_yt--I4Ggi6-QOE_23.mp4	0.0	277.0288338661194	
24	70.01488518714905	movie	1		300.0	22.0	2.5	/experiments/knapen_aot/videos/R_S_yt--I4Ggi6-QOE_23.mp4	0.0	277.0369610786438	2.508384943008423
24	72.52327013015747	fix_post	2		12.0	22.0	2.5	/experiments/knapen_aot/videos/R_S_yt--I4Ggi6-QOE_23.mp4	0.0	279.5453460216522	0.09996390342712402
25	72.6232340335846	fix_pre	0		23.0	23.0	2.5	/experiments/knapen_aot/videos/R_S_ILSVRC2015_train_00303005.mp4	0.0	279.64530992507935	0.19155502319335938
25	72.80674505233765	response	0	2		23.0	2.5	/experiments/knapen_aot/videos/R_S_ILSVRC2015_train_00303005.mp4	0.0	279.8288209438324	
25	72.81478905677795	movie	1		301.0	23.0	2.5	/experiments/knapen_aot/videos/R_S_ILSVRC2015_train_00303005.mp4	0.0	279.8368649482727	2.5085160732269287
25	75.32330513000488	fix_post	2		12.0	23.0	2.5	/experiments/knapen_aot/videos/R_S_ILSVRC2015_train_00303005.mp4	0.0	282.34538102149963	0.09999394416809082
26	75.42329907417297	fix_pre	0		20.0	24.0	2.5	/experiments/knapen_aot/videos/R_S_yt-9pYW_TqVpU4_43.mp4	0.0	282.4453749656677	0.1666259765625
26	75.58168911933899	response	0	2		24.0	2.5	/experiments/knapen_aot/videos/R_S_yt-9pYW_TqVpU4_43.mp4	0.0	282.60376501083374	
26	75.58992505073547	movie	1		301.0	24.0	2.5	/experiments/knapen_aot/videos/R_S_yt-9pYW_TqVpU4_43.mp4	0.0	282.6120009422302	2.5084750652313232
26	78.0984001159668	fix_post	2		12.0	24.0	2.5	/experiments/knapen_aot/videos/R_S_yt-9pYW_TqVpU4_43.mp4	0.0	285.12047600746155	0.0997769832611084
27	78.1981770992279	fix_pre	0		32.0	25.0	2.5	/experiments/knapen_aot/videos/R_S_yt-w_C-15eJeCQ_191.mp4	0.0	285.22025299072266	0.2667210102081299
27	78.45669913291931	response	0	2		25.0	2.5	/experiments/knapen_aot/videos/R_S_yt-w_C-15eJeCQ_191.mp4	0.0	285.47877502441406	
27	78.46489810943604	movie	1		301.0	25.0	2.5	/experiments/knapen_aot/videos/R_S_yt-w_C-15eJeCQ_191.mp4	0.0	285.4869740009308	2.508297920227051
27	80.79057812690735	response	1	2		25.0	2.5	/experiments/knapen_aot/videos/R_S_yt-w_C-15eJeCQ_191.mp4	0.0	287.8126540184021	
27	80.97319602966309	fix_post	2		12.0	25.0	2.5	/experiments/knapen_aot/videos/R_S_yt-w_C-15eJeCQ_191.mp4	0.0	287.99527192115784	0.0999910831451416
28	81.07318711280823	fix_pre	0		167.0	26.0	2.5	blank	1.0	288.095263004303	1.39164400100708
28	82.45665216445923	response	0	2		26.0	2.5	blank	1.0	289.478728055954	
28	82.46483111381531	movie	1		301.0	26.0	2.5	blank	1.0	289.48690700531006	2.508342981338501
28	84.97317409515381	fix_post	2		12.0	26.0	2.5	blank	1.0	291.99524998664856	0.10001492500305176
29	85.07318902015686	fix_pre	0		26.0	27.0	2.5	/experiments/knapen_aot/videos/S_yt-9Q7SZR0mgMA_155.mp4	0.0	292.0952649116516	0.2172400951385498
29	85.28156518936157	response	0	2		27.0	2.5	/experiments/knapen_aot/videos/S_yt-9Q7SZR0mgMA_155.mp4	0.0	292.3036410808563	
29	85.29042911529541	movie	1		301.0	27.0	2.5	/experiments/knapen_aot/videos/S_yt-9Q7SZR0mgMA_155.mp4	0.0	292.31250500679016	2.507722854614258
29	87.79815196990967	fix_post	2		12.0	27.0	2.5	/experiments/knapen_aot/videos/S_yt-9Q7SZR0mgMA_155.mp4	0.0	294.8202278614044	0.100006103515625
30	87.8981580734253	fix_pre	0		28.0	28.0	2.5	/experiments/knapen_aot/videos/R_S_yt-PyO8-WsbaLU_43.mp4	0.0	294.92023396492004	0.2333540916442871
30	88.12328505516052	response	0	2		28.0	2.5	/experiments/knapen_aot/videos/R_S_yt-PyO8-WsbaLU_43.mp4	0.0	295.1453609466553	
30	88.13151216506958	movie	1		301.0	28.0	2.5	/experiments/knapen_aot/videos/R_S_yt-PyO8-WsbaLU_43.mp4	0.0	295.15358805656433	2.5083470344543457
30	90.63985919952393	fix_post	2		12.0	28.0	2.5	/experiments/knapen_aot/videos/R_S_yt-PyO8-WsbaLU_43.mp4	0.0	297.6619350910187	0.09991884231567383
31	90.7397780418396	fix_pre	0		41.0	29.0	2.5	/experiments/knapen_aot/videos/R_S_ILSVRC2015_train_00682000.mp4	0.0	297.76185393333435	0.3422870635986328
31	91.07330799102783	response	0	2		29.0	2.5	/experiments/knapen_aot/videos/R_S_ILSVRC2015_train_00682000.mp4	0.0	298.0953838825226	
31	91.08206510543823	movie	1		301.0	29.0	2.5	/experiments/knapen_aot/videos/R_S_ILSVRC2015_train_00682000.mp4	0.0	298.104140996933	2.5077619552612305
31	93.58982706069946	fix_post	2		12.0	29.0	2.5	/experiments/knapen_aot/videos/R_S_ILSVRC2015_train_00682000.mp4	0.0	300.6119029521942	0.09997701644897461
32	93.68980407714844	fix_pre	0		52.0	30.0	2.5	/experiments/knapen_aot/videos/S_ILSVRC2015_train_00292005.mp4	0.0	300.7118799686432	0.4340040683746338
32	94.1073100566864	response	0	2		30.0	2.5	/experiments/knapen_aot/videos/S_ILSVRC2015_train_00292005.mp4	0.0	301.12938594818115	
32	94.12380814552307	movie	1		301.0	30.0	2.5	/experiments/knapen_aot/videos/S_ILSVRC2015_train_00292005.mp4	0.0	301.1458840370178	2.5076558589935303
32	96.6314640045166	fix_post	2		12.0	30.0	2.5	/experiments/knapen_aot/videos/S_ILSVRC2015_train_00292005.mp4	0.0	303.65353989601135	0.09996604919433594
33	96.73143005371094	fix_pre	0		450.0	31.0	2.5	/experiments/knapen_aot/videos/S_yt-wjBwgccZM5k_150.mp4	0.0	303.7535059452057	3.74992299079895
33	100.47321105003357	response	0	2		31.0	2.5	/experiments/knapen_aot/videos/S_yt-wjBwgccZM5k_150.mp4	0.0	307.4952869415283	
33	100.48135304450989	movie	1		301.0	31.0	2.5	/experiments/knapen_aot/videos/S_yt-wjBwgccZM5k_150.mp4	0.0	307.50342893600464	2.508389949798584
33	102.98974299430847	fix_post	2		12.0	31.0	2.5	/experiments/knapen_aot/videos/S_yt-wjBwgccZM5k_150.mp4	0.0	310.0118188858032	0.10005402565002441
34	103.0897970199585	fix_pre	0		332.0	32.0	2.5	/experiments/knapen_aot/videos/R_S_yt-b29VtKvlnWE_430.mp4	0.0	310.11187291145325	2.766577959060669
34	105.84821605682373	response	0	2		32.0	2.5	/experiments/knapen_aot/videos/R_S_yt-b29VtKvlnWE_430.mp4	0.0	312.8702919483185	
34	105.85637497901917	movie	1		301.0	32.0	2.5	/experiments/knapen_aot/videos/R_S_yt-b29VtKvlnWE_430.mp4	0.0	312.8784508705139	2.5083541870117188
34	108.36472916603088	fix_post	2		12.0	32.0	2.5	/experiments/knapen_aot/videos/R_S_yt-b29VtKvlnWE_430.mp4	0.0	315.38680505752563	0.09995698928833008
35	108.46468615531921	fix_pre	0		126.0	33.0	2.5	/experiments/knapen_aot/videos/S_yt-W00vtWnXgIk_73.mp4	0.0	315.48676204681396	1.0499999523162842
35	109.5066351890564	response	0	2		33.0	2.5	/experiments/knapen_aot/videos/S_yt-W00vtWnXgIk_73.mp4	0.0	316.52871108055115	
35	109.5146861076355	movie	1		301.0	33.0	2.5	/experiments/knapen_aot/videos/S_yt-W00vtWnXgIk_73.mp4	0.0	316.53676199913025	2.508471965789795
35	112.0231580734253	fix_post	2		12.0	33.0	2.5	/experiments/knapen_aot/videos/S_yt-W00vtWnXgIk_73.mp4	0.0	319.04523396492004	0.09993600845336914
36	112.12309408187866	fix_pre	0		43.0	34.0	2.5	/experiments/knapen_aot/videos/R_S_JApTAOdfunE_1251.mp4	0.0	319.1451699733734	0.35826897621154785
36	112.4731810092926	response	0	2		34.0	2.5	/experiments/knapen_aot/videos/R_S_JApTAOdfunE_1251.mp4	0.0	319.49525690078735	
36	112.48136305809021	movie	1		301.0	34.0	2.5	/experiments/knapen_aot/videos/R_S_JApTAOdfunE_1251.mp4	0.0	319.50343894958496	2.5084171295166016
36	114.98978018760681	fix_post	2		12.0	34.0	2.5	/experiments/knapen_aot/videos/R_S_JApTAOdfunE_1251.mp4	0.0	322.01185607910156	0.09996294975280762
37	115.08974313735962	fix_pre	0		111.0	35.0	2.5	blank	1.0	322.11181902885437	0.9249179363250732
37	116.00646615028381	response	0	2		35.0	2.5	blank	1.0	323.02854204177856	
37	116.01466107368469	movie	1		301.0	35.0	2.5	blank	1.0	323.03673696517944	2.5082719326019287
37	118.52293300628662	fix_post	2		12.0	35.0	2.5	blank	1.0	325.5450088977814	0.1005699634552002
38	118.62350296974182	fix_pre	0		142.0	36.0	2.5	/experiments/knapen_aot/videos/S_yt-_zDYi2P-QxY_128.mp4	0.0	325.6455788612366	1.1827611923217773
38	119.7981321811676	response	0	2		36.0	2.5	/experiments/knapen_aot/videos/S_yt-_zDYi2P-QxY_128.mp4	0.0	326.82020807266235	
38	119.8062641620636	movie	1		301.0	36.0	2.5	/experiments/knapen_aot/videos/S_yt-_zDYi2P-QxY_128.mp4	0.0	326.82834005355835	2.508417844772339
38	122.31468200683594	fix_post	2		12.0	36.0	2.5	/experiments/knapen_aot/videos/S_yt-_zDYi2P-QxY_128.mp4	0.0	329.3367578983307	0.1000370979309082
39	122.41471910476685	fix_pre	0		32.0	37.0	2.5	/experiments/knapen_aot/videos/R_S_yt--I4Ggi6-QOE_23.mp4	0.0	329.4367949962616	0.2665870189666748
39	122.67311000823975	response	0	2		37.0	2.5	/experiments/knapen_aot/videos/R_S_yt--I4Ggi6-QOE_23.mp4	0.0	329.6951858997345	
39	122.68130612373352	movie	1		301.0	37.0	2.5	/experiments/knapen_aot/videos/R_S_yt--I4Ggi6-QOE_23.mp4	0.0	329.70338201522827	2.5084409713745117
39	125.18974709510803	fix_post	2		12.0	37.0	2.5	/experiments/knapen_aot/videos/R_S_yt--I4Ggi6-QOE_23.mp4	0.0	332.2118229866028	0.09992694854736328
40	125.2896740436554	fix_pre	0		16.0	38.0	2.5	/experiments/knapen_aot/videos/R_S_yt-074ygGXNoQ8_64.mp4	0.0	332.31174993515015	0.13335108757019043
40	125.41481399536133	response	0	2		38.0	2.5	/experiments/knapen_aot/videos/R_S_yt-074ygGXNoQ8_64.mp4	0.0	332.4368898868561	
40	125.42302513122559	movie	1		301.0	38.0	2.5	/experiments/knapen_aot/videos/R_S_yt-074ygGXNoQ8_64.mp4	0.0	332.44510102272034	2.508596897125244
40	127.93162202835083	fix_post	2		12.0	38.0	2.5	/experiments/knapen_aot/videos/R_S_yt-074ygGXNoQ8_64.mp4	0.0	334.9536979198456	0.09972810745239258
41	128.03135013580322	fix_pre	0		24.0	39.0	2.5	/experiments/knapen_aot/videos/S_BO_A014_C023_SDR_20190717_F240F3709_SDR_2K_AVC.mp4	0.0	335.053426027298	0.1998610496520996
41	128.22314310073853	response	0	2		39.0	2.5	/experiments/knapen_aot/videos/S_BO_A014_C023_SDR_20190717_F240F3709_SDR_2K_AVC.mp4	0.0	335.2452189922333	
41	128.23121118545532	movie	1		167.0	39.0	2.5	/experiments/knapen_aot/videos/S_BO_A014_C023_SDR_20190717_F240F3709_SDR_2K_AVC.mp4	0.0	335.2532870769501	2.5084588527679443
41	130.73967003822327	fix_post	2		12.0	39.0	2.5	/experiments/knapen_aot/videos/S_BO_A014_C023_SDR_20190717_F240F3709_SDR_2K_AVC.mp4	0.0	337.761745929718	0.10001111030578613
42	130.83968114852905	fix_pre	0		15.0	40.0	2.5	blank	1.0	337.8617570400238	0.12501287460327148
42	130.9565281867981	response	0	2		40.0	2.5	blank	1.0	337.97860407829285	
42	130.96469402313232	movie	1		301.0	40.0	2.5	blank	1.0	337.9867699146271	2.5083301067352295
42	133.47302412986755	fix_post	2		12.0	40.0	2.5	blank	1.0	340.4951000213623	0.10000896453857422
43	133.57303309440613	fix_pre	0		32.0	41.0	2.5	/experiments/knapen_aot/videos/R_S_yt-7W50lcw5FCo_37.mp4	0.0	340.5951089859009	0.26664304733276367
43	133.83145213127136	response	0	2		41.0	2.5	/experiments/knapen_aot/videos/R_S_yt-7W50lcw5FCo_37.mp4	0.0	340.8535280227661	
43	133.8396761417389	movie	1		301.0	41.0	2.5	/experiments/knapen_aot/videos/R_S_yt-7W50lcw5FCo_37.mp4	0.0	340.86175203323364	2.508262872695923
43	136.34793901443481	fix_post	2		12.0	41.0	2.5	/experiments/knapen_aot/videos/R_S_yt-7W50lcw5FCo_37.mp4	0.0	343.37001490592957	0.10005712509155273
44	136.44799613952637	fix_pre	0		37.0	42.0	2.5	/experiments/knapen_aot/videos/S_ILSVRC2015_train_00251004.mp4	0.0	343.4700720310211	0.30834102630615234
44	136.74799799919128	response	0	2		42.0	2.5	/experiments/knapen_aot/videos/S_ILSVRC2015_train_00251004.mp4	0.0	343.77007389068604	
44	136.75633716583252	movie	1		301.0	42.0	2.5	/experiments/knapen_aot/videos/S_ILSVRC2015_train_00251004.mp4	0.0	343.77841305732727	2.5083048343658447
44	139.26464200019836	fix_post	2		12.0	42.0	2.5	/experiments/knapen_aot/videos/S_ILSVRC2015_train_00251004.mp4	0.0	346.2867178916931	0.09997320175170898
45	139.36461520195007	fix_pre	0		101.0	43.0	2.5	/experiments/knapen_aot/videos/S_yt-83nimFMNhrM_131.mp4	0.0	346.3866910934448	0.8420448303222656
45	140.19801807403564	response	0	2		43.0	2.5	/experiments/knapen_aot/videos/S_yt-83nimFMNhrM_131.mp4	0.0	347.2200939655304	
45	140.20666003227234	movie	1		301.0	43.0	2.5	/experiments/knapen_aot/videos/S_yt-83nimFMNhrM_131.mp4	0.0	347.2287359237671	2.507941961288452
45	142.7146019935608	fix_post	2		12.0	43.0	2.5	/experiments/knapen_aot/videos/S_yt-83nimFMNhrM_131.mp4	0.0	349.73667788505554	0.09993910789489746
46	142.8145411014557	fix_pre	0		47.0	44.0	2.5	/experiments/knapen_aot/videos/R_S_yt-xNITUMXoU0g_9.mp4	0.0	349.83661699295044	0.39195799827575684
46	143.1978940963745	response	0	2		44.0	2.5	/experiments/knapen_aot/videos/R_S_yt-xNITUMXoU0g_9.mp4	0.0	350.21996998786926	
46	143.20649909973145	movie	1		301.0	44.0	2.5	/experiments/knapen_aot/videos/R_S_yt-xNITUMXoU0g_9.mp4	0.0	350.2285749912262	2.5082130432128906
46	145.71471214294434	fix_post	2		12.0	44.0	2.5	/experiments/knapen_aot/videos/R_S_yt-xNITUMXoU0g_9.mp4	0.0	352.7367880344391	0.09980988502502441
47	145.81452202796936	fix_pre	0		20.0	45.0	2.5	/experiments/knapen_aot/videos/R_S_yt-kQpE9L-fsNE_55.mp4	0.0	352.8365979194641	0.1667189598083496
47	145.97299814224243	response	0	2		45.0	2.5	/experiments/knapen_aot/videos/R_S_yt-kQpE9L-fsNE_55.mp4	0.0	352.9950740337372	
47	145.9812409877777	movie	1		301.0	45.0	2.5	/experiments/knapen_aot/videos/R_S_yt-kQpE9L-fsNE_55.mp4	0.0	353.00331687927246	2.5084261894226074
47	148.48966717720032	fix_post	2		12.0	45.0	2.5	/experiments/knapen_aot/videos/R_S_yt-kQpE9L-fsNE_55.mp4	0.0	355.51174306869507	0.09990191459655762
48	148.58956909179688	fix_pre	0		62.0	46.0	2.5	/experiments/knapen_aot/videos/S_EFR8AteY59I_15.mp4	0.0	355.6116449832916	0.5166349411010742
48	149.09797406196594	response	0	2		46.0	2.5	/experiments/knapen_aot/videos/S_EFR8AteY59I_15.mp4	0.0	356.1200499534607	
48	149.10620403289795	movie	1		301.0	46.0	2.5	/experiments/knapen_aot/videos/S_EFR8AteY59I_15.mp4	0.0	356.1282799243927	2.5083601474761963
48	151.61456418037415	fix_post	2		12.0	46.0	2.5	/experiments/knapen_aot/videos/S_EFR8AteY59I_15.mp4	0.0	358.6366400718689	0.09995293617248535
49	151.71451711654663	fix_pre	0		39.0	47.0	2.5	/experiments/knapen_aot/videos/R_S_yt-5rC42egLl5E_387.mp4	0.0	358.7365930080414	0.3253650665283203
49	152.0313491821289	response	0	2		47.0	2.5	/experiments/knapen_aot/videos/R_S_yt-5rC42egLl5E_387.mp4	0.0	359.05342507362366	
49	152.03988218307495	movie	1		301.0	47.0	2.5	/experiments/knapen_aot/videos/R_S_yt-5rC42egLl5E_387.mp4	0.0	359.0619580745697	2.508037805557251
49	154.5479199886322	fix_post	2		12.0	47.0	2.5	/experiments/knapen_aot/videos/R_S_yt-5rC42egLl5E_387.mp4	0.0	361.56999588012695	0.09993815422058105
50	154.64785814285278	fix_pre	0		130.0	48.0	2.5	/experiments/knapen_aot/videos/S_yt-uXDyvrm0Tw0_17.mp4	0.0	361.66993403434753	1.0834178924560547
50	155.72300100326538	response	0	2		48.0	2.5	/experiments/knapen_aot/videos/S_yt-uXDyvrm0Tw0_17.mp4	0.0	362.74507689476013	
50	155.73127603530884	movie	1		301.0	48.0	2.5	/experiments/knapen_aot/videos/S_yt-uXDyvrm0Tw0_17.mp4	0.0	362.7533519268036	2.508258104324341
50	158.23953413963318	fix_post	2		12.0	48.0	2.5	/experiments/knapen_aot/videos/S_yt-uXDyvrm0Tw0_17.mp4	0.0	365.26161003112793	0.09998202323913574
51	158.33951616287231	fix_pre	0		76.0	49.0	2.5	blank	1.0	365.36159205436707	0.6333589553833008
51	158.9646351337433	response	0	2		49.0	2.5	blank	1.0	365.98671102523804	
51	158.97287511825562	movie	1		301.0	49.0	2.5	blank	1.0	365.99495100975037	2.5083088874816895
51	161.4811840057373	fix_post	2		12.0	49.0	2.5	blank	1.0	368.50325989723206	0.10019111633300781
52	161.5813751220703	fix_pre	0		34.0	50.0	2.5	/experiments/knapen_aot/videos/S_pexels-roman-odintsov-8232443_1.mp4	0.0	368.60345101356506	0.2831099033355713
52	161.8561990261078	response	0	2		50.0	2.5	/experiments/knapen_aot/videos/S_pexels-roman-odintsov-8232443_1.mp4	0.0	368.87827491760254	
52	161.86448502540588	movie	1		206.0	50.0	2.5	/experiments/knapen_aot/videos/S_pexels-roman-odintsov-8232443_1.mp4	0.0	368.88656091690063	2.508342981338501
52	164.37282800674438	fix_post	2		12.0	50.0	2.5	/experiments/knapen_aot/videos/S_pexels-roman-odintsov-8232443_1.mp4	0.0	371.39490389823914	0.09993410110473633
53	164.47276210784912	fix_pre	0		34.0	51.0	2.5	/experiments/knapen_aot/videos/R_S_yt-eVAlSjH8E8k_127.mp4	0.0	371.4948379993439	0.28336000442504883
53	164.74794697761536	response	0	2		51.0	2.5	/experiments/knapen_aot/videos/R_S_yt-eVAlSjH8E8k_127.mp4	0.0	371.7700228691101	
53	164.75612211227417	movie	1		301.0	51.0	2.5	/experiments/knapen_aot/videos/R_S_yt-eVAlSjH8E8k_127.mp4	0.0	371.7781980037689	2.5084049701690674
53	167.26452708244324	fix_post	2		12.0	51.0	2.5	/experiments/knapen_aot/videos/R_S_yt-eVAlSjH8E8k_127.mp4	0.0	374.286602973938	0.10004901885986328
54	167.3645761013031	fix_pre	0		35.0	52.0	2.5	/experiments/knapen_aot/videos/S_production_ID_4997166.mp4	0.0	374.38665199279785	0.291485071182251
54	167.64791798591614	response	0	2		52.0	2.5	/experiments/knapen_aot/videos/S_production_ID_4997166.mp4	0.0	374.6699938774109	
54	167.65606117248535	movie	1		165.0	52.0	2.5	/experiments/knapen_aot/videos/S_production_ID_4997166.mp4	0.0	374.6781370639801	2.508615016937256
54	170.1646761894226	fix_post	2		12.0	52.0	2.5	/experiments/knapen_aot/videos/S_production_ID_4997166.mp4	0.0	377.18675208091736	0.09981799125671387
55	170.26449418067932	fix_pre	0		30.0	53.0	2.5	/experiments/knapen_aot/videos/R_S_wc-ikynRrpJVaWp_12.mp4	0.0	377.2865700721741	0.250140905380249
55	170.5063099861145	response	0	2		53.0	2.5	/experiments/knapen_aot/videos/R_S_wc-ikynRrpJVaWp_12.mp4	0.0	377.52838587760925	
55	170.51463508605957	movie	1		163.0	53.0	2.5	/experiments/knapen_aot/videos/R_S_wc-ikynRrpJVaWp_12.mp4	0.0	377.5367109775543	2.5081989765167236
55	173.0228340625763	fix_post	2		12.0	53.0	2.5	/experiments/knapen_aot/videos/R_S_wc-ikynRrpJVaWp_12.mp4	0.0	380.04490995407104	0.1001439094543457
56	173.12297797203064	fix_pre	0		25.0	54.0	2.5	/experiments/knapen_aot/videos/R_S_yt-uE9XoCLZlFo_1.mp4	0.0	380.1450538635254	0.2082509994506836
56	173.32287001609802	response	0	2		54.0	2.5	/experiments/knapen_aot/videos/R_S_yt-uE9XoCLZlFo_1.mp4	0.0	380.3449459075928	
56	173.33122897148132	movie	1		301.0	54.0	2.5	/experiments/knapen_aot/videos/R_S_yt-uE9XoCLZlFo_1.mp4	0.0	380.3533048629761	2.5082271099090576
56	175.83945608139038	fix_post	2		12.0	54.0	2.5	/experiments/knapen_aot/videos/R_S_yt-uE9XoCLZlFo_1.mp4	0.0	382.86153197288513	0.1000521183013916
57	175.93950819969177	fix_pre	0		46.0	55.0	2.5	/experiments/knapen_aot/videos/R_S_comp_LA_A006_C008_PSNK_ALL_LOGOS_v10_SDR_PS_FINAL_20180801_SDR_2K_AVC.mp4	0.0	382.9615840911865	0.3832228183746338
57	176.30707097053528	response	0	2		55.0	2.5	/experiments/knapen_aot/videos/R_S_comp_LA_A006_C008_PSNK_ALL_LOGOS_v10_SDR_PS_FINAL_20180801_SDR_2K_AVC.mp4	0.0	383.32914686203003	
57	176.3227310180664	movie	1		172.0	55.0	2.5	/experiments/knapen_aot/videos/R_S_comp_LA_A006_C008_PSNK_ALL_LOGOS_v10_SDR_PS_FINAL_20180801_SDR_2K_AVC.mp4	0.0	383.34480690956116	2.508833169937134
57	178.83156418800354	fix_post	2		12.0	55.0	2.5	/experiments/knapen_aot/videos/R_S_comp_LA_A006_C008_PSNK_ALL_LOGOS_v10_SDR_PS_FINAL_20180801_SDR_2K_AVC.mp4	0.0	385.8536400794983	0.09948182106018066
57	178.89786314964294	response	2	2		55.0	2.5	/experiments/knapen_aot/videos/R_S_comp_LA_A006_C008_PSNK_ALL_LOGOS_v10_SDR_PS_FINAL_20180801_SDR_2K_AVC.mp4	0.0	385.9199390411377	
58	178.93104600906372	fix_pre	0		118.0	56.0	2.5	blank	1.0	385.9531219005585	0.9834489822387695
58	179.90624403953552	response	0	2		56.0	2.5	blank	1.0	386.9283199310303	
58	179.9144949913025	movie	1		301.0	56.0	2.5	blank	1.0	386.93657088279724	2.508308172225952
58	182.42280316352844	fix_post	2		12.0	56.0	2.5	blank	1.0	389.4448790550232	0.09989786148071289
59	182.52270102500916	fix_pre	0		42.0	57.0	2.5	/experiments/knapen_aot/videos/R_S_ILSVRC2015_train_00251004.mp4	0.0	389.5447769165039	0.3500709533691406
59	182.8644881248474	response	0	2		57.0	2.5	/experiments/knapen_aot/videos/R_S_ILSVRC2015_train_00251004.mp4	0.0	389.88656401634216	
59	182.8727719783783	movie	1		301.0	57.0	2.5	/experiments/knapen_aot/videos/R_S_ILSVRC2015_train_00251004.mp4	0.0	389.89484786987305	2.508681058883667
59	185.38145303726196	fix_post	2		12.0	57.0	2.5	/experiments/knapen_aot/videos/R_S_ILSVRC2015_train_00251004.mp4	0.0	392.4035289287567	0.09964203834533691
60	185.4810950756073	fix_pre	0		33.0	58.0	2.5	/experiments/knapen_aot/videos/R_S_ILSVRC2015_train_00423000.mp4	0.0	392.50317096710205	0.2749509811401367
60	185.74781012535095	response	0	2		58.0	2.5	/experiments/knapen_aot/videos/R_S_ILSVRC2015_train_00423000.mp4	0.0	392.7698860168457	
60	185.75604605674744	movie	1		301.0	58.0	2.5	/experiments/knapen_aot/videos/R_S_ILSVRC2015_train_00423000.mp4	0.0	392.7781219482422	2.5083460807800293
60	188.26439213752747	fix_post	2		12.0	58.0	2.5	/experiments/knapen_aot/videos/R_S_ILSVRC2015_train_00423000.mp4	0.0	395.2864680290222	0.10026288032531738
61	188.36465501785278	fix_pre	0		20.0	59.0	2.5	/experiments/knapen_aot/videos/R_S_yt-rY_ra5Tb9XU_51.mp4	0.0	395.38673090934753	0.16639018058776855
61	188.52285313606262	response	0	2		59.0	2.5	/experiments/knapen_aot/videos/R_S_yt-rY_ra5Tb9XU_51.mp4	0.0	395.5449290275574	
61	188.53104519844055	movie	1		301.0	59.0	2.5	/experiments/knapen_aot/videos/R_S_yt-rY_ra5Tb9XU_51.mp4	0.0	395.5531210899353	2.5084428787231445
61	191.0394880771637	fix_post	2		12.0	59.0	2.5	/experiments/knapen_aot/videos/R_S_yt-rY_ra5Tb9XU_51.mp4	0.0	398.06156396865845	0.10000801086425781
62	191.13949608802795	fix_pre	0		46.0	60.0	2.5	/experiments/knapen_aot/videos/S_ILSVRC2015_train_00155004.mp4	0.0	398.1615719795227	0.38319993019104004
62	191.51448917388916	response	0	2		60.0	2.5	/experiments/knapen_aot/videos/S_ILSVRC2015_train_00155004.mp4	0.0	398.5365650653839	
62	191.522696018219	movie	1		301.0	60.0	2.5	/experiments/knapen_aot/videos/S_ILSVRC2015_train_00155004.mp4	0.0	398.54477190971375	2.5084381103515625
62	194.03113412857056	fix_post	2		12.0	60.0	2.5	/experiments/knapen_aot/videos/S_ILSVRC2015_train_00155004.mp4	0.0	401.0532100200653	0.09995794296264648
63	194.1310920715332	fix_pre	0		36.0	61.0	2.5	blank	1.0	401.15316796302795	0.2999269962310791
63	194.42293906211853	response	0	2		61.0	2.5	blank	1.0	401.4450149536133	
63	194.43101906776428	movie	1		301.0	61.0	2.5	blank	1.0	401.45309495925903	2.5082850456237793
63	196.93930411338806	fix_post	2		12.0	61.0	2.5	blank	1.0	403.9613800048828	0.10010504722595215
64	197.039409160614	fix_pre	0		37.0	62.0	2.5	/experiments/knapen_aot/videos/R_S_yt-hRAqAwRhmwE_58.mp4	0.0	404.06148505210876	0.30821990966796875
64	197.33942103385925	response	0	2		62.0	2.5	/experiments/knapen_aot/videos/R_S_yt-hRAqAwRhmwE_58.mp4	0.0	404.361496925354	
64	197.34762907028198	movie	1		301.0	62.0	2.5	/experiments/knapen_aot/videos/R_S_yt-hRAqAwRhmwE_58.mp4	0.0	404.36970496177673	2.5083820819854736
64	199.85601115226746	fix_post	2		12.0	62.0	2.5	/experiments/knapen_aot/videos/R_S_yt-hRAqAwRhmwE_58.mp4	0.0	406.8780870437622	0.1000828742980957
65	199.95609402656555	fix_pre	0		56.0	63.0	2.5	/experiments/knapen_aot/videos/S_ILSVRC2015_train_00463000.mp4	0.0	406.9781699180603	0.46656012535095215
65	200.41449403762817	response	0	2		63.0	2.5	/experiments/knapen_aot/videos/S_ILSVRC2015_train_00463000.mp4	0.0	407.4365699291229	
65	200.4226541519165	movie	1		300.0	63.0	2.5	/experiments/knapen_aot/videos/S_ILSVRC2015_train_00463000.mp4	0.0	407.44473004341125	2.508330821990967
65	202.93098497390747	fix_post	2		12.0	63.0	2.5	/experiments/knapen_aot/videos/S_ILSVRC2015_train_00463000.mp4	0.0	409.9530608654022	0.10001516342163086
66	203.0310001373291	fix_pre	0		144.0	64.0	2.5	/experiments/knapen_aot/videos/R_S_yt-XUnZ7FbBtvk_162.mp4	0.0	410.05307602882385	1.2000248432159424
66	204.22279715538025	response	0	2		64.0	2.5	/experiments/knapen_aot/videos/R_S_yt-XUnZ7FbBtvk_162.mp4	0.0	411.244873046875	
66	204.23102498054504	movie	1		301.0	64.0	2.5	/experiments/knapen_aot/videos/R_S_yt-XUnZ7FbBtvk_162.mp4	0.0	411.2531008720398	2.5083160400390625
66	206.7393410205841	fix_post	2		12.0	64.0	2.5	/experiments/knapen_aot/videos/R_S_yt-XUnZ7FbBtvk_162.mp4	0.0	413.76141691207886	0.09996294975280762
67	206.8393039703369	fix_pre	0		59.0	65.0	2.5	/experiments/knapen_aot/videos/S_comp_GMT329_113NC_396B_1105_CHINA_v04_SDR_FINAL_20180706_F900F2700_SDR_2K_AVC.mp4	0.0	413.86137986183167	0.49164819717407227
67	207.32268714904785	response	0	2		65.0	2.5	/experiments/knapen_aot/videos/S_comp_GMT329_113NC_396B_1105_CHINA_v04_SDR_FINAL_20180706_F900F2700_SDR_2K_AVC.mp4	0.0	414.3447630405426	
67	207.330952167511	movie	1		163.0	65.0	2.5	/experiments/knapen_aot/videos/S_comp_GMT329_113NC_396B_1105_CHINA_v04_SDR_FINAL_20180706_F900F2700_SDR_2K_AVC.mp4	0.0	414.35302805900574	2.508405923843384
67	209.83935809135437	fix_post	2		12.0	65.0	2.5	/experiments/knapen_aot/videos/S_comp_GMT329_113NC_396B_1105_CHINA_v04_SDR_FINAL_20180706_F900F2700_SDR_2K_AVC.mp4	0.0	416.8614339828491	0.10004401206970215
68	209.93940210342407	fix_pre	0		27.0	66.0	2.5	/experiments/knapen_aot/videos/S_ILSVRC2015_train_00743005.mp4	0.0	416.9614779949188	0.22485804557800293
68	210.15597009658813	response	0	2		66.0	2.5	/experiments/knapen_aot/videos/S_ILSVRC2015_train_00743005.mp4	0.0	417.1780459880829	
68	210.16426014900208	movie	1		301.0	66.0	2.5	/experiments/knapen_aot/videos/S_ILSVRC2015_train_00743005.mp4	0.0	417.1863360404968	2.5083768367767334
68	212.6726369857788	fix_post	2		12.0	66.0	2.5	/experiments/knapen_aot/videos/S_ILSVRC2015_train_00743005.mp4	0.0	419.69471287727356	0.09999799728393555
69	212.77263498306274	fix_pre	0		74.0	67.0	2.5	/experiments/knapen_aot/videos/S_ILSVRC2015_train_00756000.mp4	0.0	419.7947108745575	0.6166181564331055
69	213.3810110092163	response	0	2		67.0	2.5	/experiments/knapen_aot/videos/S_ILSVRC2015_train_00756000.mp4	0.0	420.40308690071106	
69	213.38925313949585	movie	1		301.0	67.0	2.5	/experiments/knapen_aot/videos/S_ILSVRC2015_train_00756000.mp4	0.0	420.4113290309906	2.508347988128662
69	215.8976011276245	fix_post	2		12.0	67.0	2.5	/experiments/knapen_aot/videos/S_ILSVRC2015_train_00756000.mp4	0.0	422.91967701911926	0.10007691383361816
70	215.99767804145813	fix_pre	0		47.0	68.0	2.5	/experiments/knapen_aot/videos/S_yt-HwZFMTZ7Xko_35.mp4	0.0	423.0197539329529	0.391556978225708
70	216.38110899925232	response	0	2		68.0	2.5	/experiments/knapen_aot/videos/S_yt-HwZFMTZ7Xko_35.mp4	0.0	423.40318489074707	
70	216.38923501968384	movie	1		301.0	68.0	2.5	/experiments/knapen_aot/videos/S_yt-HwZFMTZ7Xko_35.mp4	0.0	423.4113109111786	2.5084171295166016
70	218.89765214920044	fix_post	2		12.0	68.0	2.5	/experiments/knapen_aot/videos/S_yt-HwZFMTZ7Xko_35.mp4	0.0	425.9197280406952	0.09994101524353027
71	218.99759316444397	fix_pre	0		43.0	69.0	2.5	/experiments/knapen_aot/videos/R_S_yt-PYP0fEQ357c_89.mp4	0.0	426.0196690559387	0.35831594467163086
71	219.34773802757263	response	0	2		69.0	2.5	/experiments/knapen_aot/videos/R_S_yt-PYP0fEQ357c_89.mp4	0.0	426.3698139190674	
71	219.3559091091156	movie	1		301.0	69.0	2.5	/experiments/knapen_aot/videos/R_S_yt-PYP0fEQ357c_89.mp4	0.0	426.37798500061035	2.5083248615264893
71	221.8642339706421	fix_post	2		12.0	69.0	2.5	/experiments/knapen_aot/videos/R_S_yt-PYP0fEQ357c_89.mp4	0.0	428.88630986213684	0.10001802444458008
72	221.96425199508667	fix_pre	0		97.0	70.0	2.5	blank	1.0	428.9863278865814	0.8083369731903076
72	222.76438117027283	response	0	2		70.0	2.5	blank	1.0	429.7864570617676	
72	222.77258896827698	movie	1		301.0	70.0	2.5	blank	1.0	429.79466485977173	2.5085771083831787
72	225.28116607666016	fix_post	2		12.0	70.0	2.5	blank	1.0	432.3032419681549	0.09975600242614746
73	225.3809220790863	fix_pre	0		84.0	71.0	2.5	/experiments/knapen_aot/videos/S_flickr-clarkstonscamp-4863427159_1.mp4	0.0	432.40299797058105	0.6999680995941162
73	226.07267808914185	response	0	2		71.0	2.5	/experiments/knapen_aot/videos/S_flickr-clarkstonscamp-4863427159_1.mp4	0.0	433.0947539806366	
73	226.08089017868042	movie	1		301.0	71.0	2.5	/experiments/knapen_aot/videos/S_flickr-clarkstonscamp-4863427159_1.mp4	0.0	433.10296607017517	2.5083158016204834
73	228.5892059803009	fix_post	2		12.0	71.0	2.5	/experiments/knapen_aot/videos/S_flickr-clarkstonscamp-4863427159_1.mp4	0.0	435.61128187179565	0.10001802444458008
74	228.68922400474548	fix_pre	0		39.0	72.0	2.5	/experiments/knapen_aot/videos/R_S_yt-aiWUhl8MCto_71.mp4	0.0	435.71129989624023	0.32510900497436523
74	229.00599908828735	response	0	2		72.0	2.5	/experiments/knapen_aot/videos/R_S_yt-aiWUhl8MCto_71.mp4	0.0	436.0280749797821	
74	229.01433300971985	movie	1		301.0	72.0	2.5	/experiments/knapen_aot/videos/R_S_yt-aiWUhl8MCto_71.mp4	0.0	436.0364089012146	2.508226156234741
74	231.5225591659546	fix_post	2		12.0	72.0	2.5	/experiments/knapen_aot/videos/R_S_yt-aiWUhl8MCto_71.mp4	0.0	438.54463505744934	0.09994196891784668
75	231.62250113487244	fix_pre	0		53.0	73.0	2.5	/experiments/knapen_aot/videos/S_production_ID_4540332.mp4	0.0	438.6445770263672	0.4416489601135254
75	232.05598402023315	response	0	2		73.0	2.5	/experiments/knapen_aot/videos/S_production_ID_4540332.mp4	0.0	439.0780599117279	
75	232.06415009498596	movie	1		170.0	73.0	2.5	/experiments/knapen_aot/videos/S_production_ID_4540332.mp4	0.0	439.0862259864807	2.508333921432495
75	234.57248401641846	fix_post	2		12.0	73.0	2.5	/experiments/knapen_aot/videos/S_production_ID_4540332.mp4	0.0	441.5945599079132	0.10011911392211914
76	234.67260313034058	fix_pre	0		21.0	74.0	2.5	/experiments/knapen_aot/videos/R_S_yt-Q9fI2ar05IE_77.mp4	0.0	441.6946790218353	0.1749110221862793
76	234.83930706977844	response	0	2		74.0	2.5	/experiments/knapen_aot/videos/R_S_yt-Q9fI2ar05IE_77.mp4	0.0	441.8613829612732	
76	234.84751415252686	movie	1		301.0	74.0	2.5	/experiments/knapen_aot/videos/R_S_yt-Q9fI2ar05IE_77.mp4	0.0	441.8695900440216	2.5083489418029785
76	237.35586309432983	fix_post	2		12.0	74.0	2.5	/experiments/knapen_aot/videos/R_S_yt-Q9fI2ar05IE_77.mp4	0.0	444.3779389858246	0.1000370979309082
77	237.45590019226074	fix_pre	0		49.0	75.0	2.5	/experiments/knapen_aot/videos/S_yt-6vkiJedss6g_5.mp4	0.0	444.4779760837555	0.40951991081237793
77	237.85601019859314	response	0	2		75.0	2.5	/experiments/knapen_aot/videos/S_yt-6vkiJedss6g_5.mp4	0.0	444.8780860900879	
77	237.86542010307312	movie	1		301.0	75.0	2.5	/experiments/knapen_aot/videos/S_yt-6vkiJedss6g_5.mp4	0.0	444.88749599456787	2.507077932357788
77	240.3724980354309	fix_post	2		12.0	75.0	2.5	/experiments/knapen_aot/videos/S_yt-6vkiJedss6g_5.mp4	0.0	447.39457392692566	0.10002899169921875
78	240.47252702713013	fix_pre	0		50.0	76.0	2.5	/experiments/knapen_aot/videos/R_S_ILSVRC2015_train_00251005.mp4	0.0	447.4946029186249	0.41660213470458984
78	240.88094806671143	response	0	2		76.0	2.5	/experiments/knapen_aot/videos/R_S_ILSVRC2015_train_00251005.mp4	0.0	447.9030239582062	
78	240.88912916183472	movie	1		301.0	76.0	2.5	/experiments/knapen_aot/videos/R_S_ILSVRC2015_train_00251005.mp4	0.0	447.91120505332947	2.508302927017212
78	243.39743208885193	fix_post	2		12.0	76.0	2.5	/experiments/knapen_aot/videos/R_S_ILSVRC2015_train_00251005.mp4	0.0	450.4195079803467	0.1000831127166748
79	243.4975152015686	fix_pre	0		386.0	77.0	2.5	blank	1.0	450.51959109306335	3.216540813446045
79	246.7059211730957	response	0	2		77.0	2.5	blank	1.0	453.72799706459045	
79	246.71405601501465	movie	1		301.0	77.0	2.5	blank	1.0	453.7361319065094	2.5084011554718018
79	249.22245717048645	fix_post	2		12.0	77.0	2.5	blank	1.0	456.2445330619812	0.10001397132873535
80	249.32247114181519	fix_pre	0		58.0	78.0	2.5	/experiments/knapen_aot/videos/S_yt--cAfxH1WnPo_3.mp4	0.0	456.34454703330994	0.48335695266723633
80	249.79755902290344	response	0	2		78.0	2.5	/experiments/knapen_aot/videos/S_yt--cAfxH1WnPo_3.mp4	0.0	456.8196349143982	
80	249.80582809448242	movie	1		301.0	78.0	2.5	/experiments/knapen_aot/videos/S_yt--cAfxH1WnPo_3.mp4	0.0	456.8279039859772	2.5083210468292236
80	252.31414914131165	fix_post	2		12.0	78.0	2.5	/experiments/knapen_aot/videos/S_yt--cAfxH1WnPo_3.mp4	0.0	459.3362250328064	0.09995293617248535
81	252.41410207748413	fix_pre	0		77.0	79.0	2.5	/experiments/knapen_aot/videos/R_S_ILSVRC2015_train_00303008.mp4	0.0	459.4361779689789	0.6416189670562744
81	253.0476269721985	response	0	2		79.0	2.5	/experiments/knapen_aot/videos/R_S_ILSVRC2015_train_00303008.mp4	0.0	460.06970286369324	
81	253.0557210445404	movie	1		301.0	79.0	2.5	/experiments/knapen_aot/videos/R_S_ILSVRC2015_train_00303008.mp4	0.0	460.07779693603516	2.508517026901245
81	255.56423807144165	fix_post	2		12.0	79.0	2.5	/experiments/knapen_aot/videos/R_S_ILSVRC2015_train_00303008.mp4	0.0	462.5863139629364	0.09989809989929199
82	255.66413617134094	fix_pre	0		34.0	80.0	2.5	/experiments/knapen_aot/videos/R_S_production_ID_4540332.mp4	0.0	462.6862120628357	0.2843759059906006
82	255.9392430782318	response	0	2		80.0	2.5	/experiments/knapen_aot/videos/R_S_production_ID_4540332.mp4	0.0	462.96131896972656	
82	255.94851207733154	movie	1		166.0	80.0	2.5	/experiments/knapen_aot/videos/R_S_production_ID_4540332.mp4	0.0	462.9705879688263	2.507373094558716
82	258.45588517189026	fix_post	2		12.0	80.0	2.5	/experiments/knapen_aot/videos/R_S_production_ID_4540332.mp4	0.0	465.477961063385	0.09986281394958496
83	258.55574798583984	fix_pre	0		114.0	81.0	2.5	/experiments/knapen_aot/videos/S_yt-EApB0DJ3ECg_66.mp4	0.0	465.5778238773346	0.9499461650848389
83	259.49749207496643	response	0	2		81.0	2.5	/experiments/knapen_aot/videos/S_yt-EApB0DJ3ECg_66.mp4	0.0	466.5195679664612	
83	259.5056941509247	movie	1		301.0	81.0	2.5	/experiments/knapen_aot/videos/S_yt-EApB0DJ3ECg_66.mp4	0.0	466.52777004241943	2.508389949798584
83	262.01408410072327	fix_post	2		12.0	81.0	2.5	/experiments/knapen_aot/videos/S_yt-EApB0DJ3ECg_66.mp4	0.0	469.036159992218	0.09998703002929688
84	262.11407113075256	fix_pre	0		37.0	82.0	2.5	/experiments/knapen_aot/videos/R_S_yt-6vkiJedss6g_5.mp4	0.0	469.1361470222473	0.3082718849182129
84	262.4141731262207	response	0	2		82.0	2.5	/experiments/knapen_aot/videos/R_S_yt-6vkiJedss6g_5.mp4	0.0	469.43624901771545	
84	262.4223430156708	movie	1		301.0	82.0	2.5	/experiments/knapen_aot/videos/R_S_yt-6vkiJedss6g_5.mp4	0.0	469.4444189071655	2.5084331035614014
84	264.9307761192322	fix_post	2		12.0	82.0	2.5	/experiments/knapen_aot/videos/R_S_yt-6vkiJedss6g_5.mp4	0.0	471.95285201072693	0.09999394416809082
85	265.03077006340027	fix_pre	0		83.0	83.0	2.5	blank	1.0	472.052845954895	0.6916110515594482
85	265.714152097702	response	0	2		83.0	2.5	blank	1.0	472.7362279891968	
85	265.7223811149597	movie	1		301.0	83.0	2.5	blank	1.0	472.74445700645447	2.5082900524139404
85	268.23067116737366	fix_post	2		12.0	83.0	2.5	blank	1.0	475.2527470588684	0.10009980201721191
87	268.33077096939087	stim	0		162.0					475.3528468608856	1.3537521362304688
87	269.6768341064453	response	0	space						476.69890999794006	
