trial_nr	onset	event_type	phase	response	nr_frames	movie_index	movie_duration	movie_file	blank	onset_abs	duration
0	0.15401005744934082	stim	0		70.0					120.11010098457336	0.5836319923400879
0	0.7293660640716553	response	0	space						120.68545699119568	
1	0.7376420497894287	stim	0		121.0					120.69373297691345	1.00779390335083
1	1.7454359531402588	stim	1		120.0					121.70152688026428	1.0000011920928955
1	2.4205920696258545	response	1	space						122.37668299674988	
2	2.7454371452331543	fix_pre	0		55.0	0.0	2.5	/experiments/knapen_aot/videos/R_S_ILSVRC2015_train_00044004.mp4	0.0	122.70152807235718	0.4582679271697998
2	3.1955461502075195	response	0	space		0.0	2.5	/experiments/knapen_aot/videos/R_S_ILSVRC2015_train_00044004.mp4	0.0	123.15163707733154	
2	3.203705072402954	movie	1		300.0	0.0	2.5	/experiments/knapen_aot/videos/R_S_ILSVRC2015_train_00044004.mp4	0.0	123.15979599952698	2.508384943008423
2	5.712090015411377	fix_post	2		12.0	0.0	2.5	/experiments/knapen_aot/videos/R_S_ILSVRC2015_train_00044004.mp4	0.0	125.6681809425354	0.0999910831451416
3	5.8120810985565186	fix_pre	0		306.0	1.0	2.5	/experiments/knapen_aot/videos/R_S_Pexels_Videos_2786546.mp4	0.0	125.76817202568054	2.5499210357666016
3	8.351479053497314	response	0	2		1.0	2.5	/experiments/knapen_aot/videos/R_S_Pexels_Videos_2786546.mp4	0.0	128.30756998062134	
3	8.36200213432312	movie	1		170.0	1.0	2.5	/experiments/knapen_aot/videos/R_S_Pexels_Videos_2786546.mp4	0.0	128.31809306144714	2.5083789825439453
3	10.870381116867065	fix_post	2		12.0	1.0	2.5	/experiments/knapen_aot/videos/R_S_Pexels_Videos_2786546.mp4	0.0	130.8264720439911	0.09994387626647949
4	10.970324993133545	fix_pre	0		48.0	2.0	2.5	/experiments/knapen_aot/videos/R_S_pexels-cottonbro-6788024.mp4	0.0	130.92641592025757	0.40004801750183105
4	11.362133026123047	response	0	2		2.0	2.5	/experiments/knapen_aot/videos/R_S_pexels-cottonbro-6788024.mp4	0.0	131.31822395324707	
4	11.370373010635376	movie	1		204.0	2.0	2.5	/experiments/knapen_aot/videos/R_S_pexels-cottonbro-6788024.mp4	0.0	131.3264639377594	2.5082950592041016
4	13.878668069839478	fix_post	2		12.0	2.0	2.5	/experiments/knapen_aot/videos/R_S_pexels-cottonbro-6788024.mp4	0.0	133.8347589969635	0.10005903244018555
5	13.978727102279663	fix_pre	0		29.0	3.0	2.5	/experiments/knapen_aot/videos/S_pexels-anastasia-shuraeva-601407_2.mp4	0.0	133.9348180294037	0.24164390563964844
5	14.212152004241943	response	0	2		3.0	2.5	/experiments/knapen_aot/videos/S_pexels-anastasia-shuraeva-601407_2.mp4	0.0	134.16824293136597	
5	14.220371007919312	movie	1		197.0	3.0	2.5	/experiments/knapen_aot/videos/S_pexels-anastasia-shuraeva-601407_2.mp4	0.0	134.17646193504333	2.5083770751953125
5	16.728748083114624	fix_post	2		12.0	3.0	2.5	/experiments/knapen_aot/videos/S_pexels-anastasia-shuraeva-601407_2.mp4	0.0	136.68483901023865	0.09993886947631836
6	16.828686952590942	fix_pre	0		16.0	4.0	2.5	/experiments/knapen_aot/videos/S_yt-wLylWnZs3z0_27.mp4	0.0	136.78477787971497	0.13329505920410156
6	16.953859090805054	response	0	2		4.0	2.5	/experiments/knapen_aot/videos/S_yt-wLylWnZs3z0_27.mp4	0.0	136.90995001792908	
6	16.961982011795044	movie	1		301.0	4.0	2.5	/experiments/knapen_aot/videos/S_yt-wLylWnZs3z0_27.mp4	0.0	136.91807293891907	2.5084011554718018
6	19.470383167266846	fix_post	2		12.0	4.0	2.5	/experiments/knapen_aot/videos/S_yt-wLylWnZs3z0_27.mp4	0.0	139.42647409439087	0.09999299049377441
7	19.57037615776062	fix_pre	0		550.0	5.0	2.5	/experiments/knapen_aot/videos/R_S_yt-BLmwmX-mni8_56.mp4	0.0	139.52646708488464	4.5832438468933105
7	24.145482063293457	response	0	2		5.0	2.5	/experiments/knapen_aot/videos/R_S_yt-BLmwmX-mni8_56.mp4	0.0	144.10157299041748	
7	24.15362000465393	movie	1		301.0	5.0	2.5	/experiments/knapen_aot/videos/R_S_yt-BLmwmX-mni8_56.mp4	0.0	144.10971093177795	2.5083601474761963
7	26.661980152130127	fix_post	2		12.0	5.0	2.5	/experiments/knapen_aot/videos/R_S_yt-BLmwmX-mni8_56.mp4	0.0	146.61807107925415	0.10008382797241211
7	26.729000091552734	response	2	2		5.0	2.5	/experiments/knapen_aot/videos/R_S_yt-BLmwmX-mni8_56.mp4	0.0	146.68509101867676	
8	26.76206398010254	fix_pre	0		42.0	6.0	2.5	blank	1.0	146.71815490722656	0.34989118576049805
8	27.103783130645752	response	0	2		6.0	2.5	blank	1.0	147.05987405776978	
8	27.111955165863037	movie	1		301.0	6.0	2.5	blank	1.0	147.06804609298706	2.5084028244018555
8	29.620357990264893	fix_post	2		12.0	6.0	2.5	blank	1.0	149.57644891738892	0.09989309310913086
9	29.720251083374023	fix_pre	0		18.0	7.0	2.5	/experiments/knapen_aot/videos/S_yt-3JApfnMu5cU_378.mp4	0.0	149.67634201049805	0.15001296997070312
9	29.86203694343567	response	0	2		7.0	2.5	/experiments/knapen_aot/videos/S_yt-3JApfnMu5cU_378.mp4	0.0	149.8181278705597	
9	29.870264053344727	movie	1		300.0	7.0	2.5	/experiments/knapen_aot/videos/S_yt-3JApfnMu5cU_378.mp4	0.0	149.82635498046875	2.5083730220794678
9	32.378637075424194	fix_post	2		12.0	7.0	2.5	/experiments/knapen_aot/videos/S_yt-3JApfnMu5cU_378.mp4	0.0	152.33472800254822	0.10000491142272949
10	32.478641986846924	fix_pre	0		89.0	8.0	2.5	/experiments/knapen_aot/videos/R_S_yt-6xXEMHBQ08A_28.mp4	0.0	152.43473291397095	0.7416019439697266
10	33.21205401420593	response	0	2		8.0	2.5	/experiments/knapen_aot/videos/R_S_yt-6xXEMHBQ08A_28.mp4	0.0	153.16814494132996	
10	33.22024393081665	movie	1		301.0	8.0	2.5	/experiments/knapen_aot/videos/R_S_yt-6xXEMHBQ08A_28.mp4	0.0	153.17633485794067	2.508369207382202
10	35.72861313819885	fix_post	2		12.0	8.0	2.5	/experiments/knapen_aot/videos/R_S_yt-6xXEMHBQ08A_28.mp4	0.0	155.68470406532288	0.1000359058380127
11	35.828649044036865	fix_pre	0		16.0	9.0	2.5	/experiments/knapen_aot/videos/S_yt-O6W6CZPXvlA_15.mp4	0.0	155.7847399711609	0.13319802284240723
11	35.95376896858215	response	0	2		9.0	2.5	/experiments/knapen_aot/videos/S_yt-O6W6CZPXvlA_15.mp4	0.0	155.90985989570618	
11	35.96184706687927	movie	1		301.0	9.0	2.5	/experiments/knapen_aot/videos/S_yt-O6W6CZPXvlA_15.mp4	0.0	155.9179379940033	2.5084140300750732
11	38.470261096954346	fix_post	2		12.0	9.0	2.5	/experiments/knapen_aot/videos/S_yt-O6W6CZPXvlA_15.mp4	0.0	158.42635202407837	0.09997200965881348
12	38.57023310661316	fix_pre	0		29.0	10.0	2.5	/experiments/knapen_aot/videos/R_S_yt-j-ifVbxZePQ_70.mp4	0.0	158.52632403373718	0.24168992042541504
12	38.803755044937134	response	0	2		10.0	2.5	/experiments/knapen_aot/videos/R_S_yt-j-ifVbxZePQ_70.mp4	0.0	158.75984597206116	
12	38.811923027038574	movie	1		301.0	10.0	2.5	/experiments/knapen_aot/videos/R_S_yt-j-ifVbxZePQ_70.mp4	0.0	158.7680139541626	2.5083580017089844
12	41.32028102874756	fix_post	2		12.0	10.0	2.5	/experiments/knapen_aot/videos/R_S_yt-j-ifVbxZePQ_70.mp4	0.0	161.27637195587158	0.10001802444458008
13	41.42029905319214	fix_pre	0		17.0	11.0	2.5	/experiments/knapen_aot/videos/R_S_production_ID_5144824.mp4	0.0	161.37638998031616	0.14165592193603516
13	41.55379104614258	response	0	2		11.0	2.5	/experiments/knapen_aot/videos/R_S_production_ID_5144824.mp4	0.0	161.5098819732666	
13	41.561954975128174	movie	1		169.0	11.0	2.5	/experiments/knapen_aot/videos/R_S_production_ID_5144824.mp4	0.0	161.5180459022522	2.508301019668579
13	44.07025599479675	fix_post	2		12.0	11.0	2.5	/experiments/knapen_aot/videos/R_S_production_ID_5144824.mp4	0.0	164.02634692192078	0.0999901294708252
14	44.17024612426758	fix_pre	0		22.0	12.0	2.5	blank	1.0	164.1263370513916	0.18332386016845703
14	44.345356941223145	response	0	2		12.0	2.5	blank	1.0	164.30144786834717	
14	44.353569984436035	movie	1		301.0	12.0	2.5	blank	1.0	164.30966091156006	2.5083999633789062
14	46.86196994781494	fix_post	2		12.0	12.0	2.5	blank	1.0	166.81806087493896	0.099945068359375
15	46.961915016174316	fix_pre	0		23.0	13.0	2.5	/experiments/knapen_aot/videos/R_S_production_ID_4325513.mp4	0.0	166.91800594329834	0.19162893295288086
15	47.137832164764404	response	0	2		13.0	2.5	/experiments/knapen_aot/videos/R_S_production_ID_4325513.mp4	0.0	167.09392309188843	
15	47.1535439491272	movie	1		203.0	13.0	2.5	/experiments/knapen_aot/videos/R_S_production_ID_4325513.mp4	0.0	167.10963487625122	2.508406162261963
15	49.66195011138916	fix_post	2		12.0	13.0	2.5	/experiments/knapen_aot/videos/R_S_production_ID_4325513.mp4	0.0	169.61804103851318	0.09997701644897461
16	49.761927127838135	fix_pre	0		27.0	14.0	2.5	/experiments/knapen_aot/videos/S_yt-YyKEeu2gLrI_158.mp4	0.0	169.71801805496216	0.22498703002929688
16	49.97121214866638	response	0	2		14.0	2.5	/experiments/knapen_aot/videos/S_yt-YyKEeu2gLrI_158.mp4	0.0	169.9273030757904	
16	49.98691415786743	movie	1		300.0	14.0	2.5	/experiments/knapen_aot/videos/S_yt-YyKEeu2gLrI_158.mp4	0.0	169.94300508499146	2.508255958557129
16	52.445307970047	response	1	2		14.0	2.5	/experiments/knapen_aot/videos/S_yt-YyKEeu2gLrI_158.mp4	0.0	172.40139889717102	
16	52.49517011642456	fix_post	2		12.0	14.0	2.5	/experiments/knapen_aot/videos/S_yt-YyKEeu2gLrI_158.mp4	0.0	172.45126104354858	0.10007190704345703
17	52.59524202346802	fix_pre	0		33.0	15.0	2.5	/experiments/knapen_aot/videos/S_yt-2XRGfGc0q44_37.mp4	0.0	172.55133295059204	0.27491211891174316
17	52.861937046051025	response	0	2		15.0	2.5	/experiments/knapen_aot/videos/S_yt-2XRGfGc0q44_37.mp4	0.0	172.81802797317505	
17	52.87015414237976	movie	1		300.0	15.0	2.5	/experiments/knapen_aot/videos/S_yt-2XRGfGc0q44_37.mp4	0.0	172.82624506950378	2.508347988128662
17	55.37850213050842	fix_post	2		12.0	15.0	2.5	/experiments/knapen_aot/videos/S_yt-2XRGfGc0q44_37.mp4	0.0	175.33459305763245	0.09997987747192383
18	55.47848200798035	fix_pre	0		17.0	16.0	2.5	/experiments/knapen_aot/videos/R_S_yt-XBAU3cq0rZs_150.mp4	0.0	175.43457293510437	0.14171600341796875
18	55.61194705963135	response	0	2		16.0	2.5	/experiments/knapen_aot/videos/R_S_yt-XBAU3cq0rZs_150.mp4	0.0	175.56803798675537	
18	55.620198011398315	movie	1		299.0	16.0	2.5	/experiments/knapen_aot/videos/R_S_yt-XBAU3cq0rZs_150.mp4	0.0	175.57628893852234	2.5083160400390625
18	58.12851405143738	fix_post	2		12.0	16.0	2.5	/experiments/knapen_aot/videos/R_S_yt-XBAU3cq0rZs_150.mp4	0.0	178.0846049785614	0.09999299049377441
19	58.22850704193115	fix_pre	0		14.0	17.0	2.5	/experiments/knapen_aot/videos/R_S_comp_A105_C002_v06_SDR_FINAL_25062018_SDR_2K_AVC.mp4	0.0	178.18459796905518	0.11780595779418945
19	58.3369140625	response	0	2		17.0	2.5	/experiments/knapen_aot/videos/R_S_comp_A105_C002_v06_SDR_FINAL_25062018_SDR_2K_AVC.mp4	0.0	178.29300498962402	
19	58.34631299972534	movie	1		167.0	17.0	2.5	/experiments/knapen_aot/videos/R_S_comp_A105_C002_v06_SDR_FINAL_25062018_SDR_2K_AVC.mp4	0.0	178.30240392684937	2.507223129272461
19	60.8535361289978	fix_post	2		12.0	17.0	2.5	/experiments/knapen_aot/videos/R_S_comp_A105_C002_v06_SDR_FINAL_25062018_SDR_2K_AVC.mp4	0.0	180.80962705612183	0.0999898910522461
20	60.95352602005005	fix_pre	0		4.0	18.0	2.5	/experiments/knapen_aot/videos/R_S_SE_A016_C009_SDR_20190717_SDR_2K_AVC.mp4	0.0	180.90961694717407	0.03331494331359863
20	60.97858214378357	response	0	2		18.0	2.5	/experiments/knapen_aot/videos/R_S_SE_A016_C009_SDR_20190717_SDR_2K_AVC.mp4	0.0	180.9346730709076	
20	60.98684096336365	movie	1		175.0	18.0	2.5	/experiments/knapen_aot/videos/R_S_SE_A016_C009_SDR_20190717_SDR_2K_AVC.mp4	0.0	180.94293189048767	2.5083200931549072
20	63.495161056518555	fix_post	2		12.0	18.0	2.5	/experiments/knapen_aot/videos/R_S_SE_A016_C009_SDR_20190717_SDR_2K_AVC.mp4	0.0	183.45125198364258	0.09997892379760742
21	63.59513998031616	fix_pre	0		14.0	19.0	2.5	blank	1.0	183.55123090744019	0.11666417121887207
21	63.70364999771118	response	0	2		19.0	2.5	blank	1.0	183.6597409248352	
21	63.711804151535034	movie	1		301.0	19.0	2.5	blank	1.0	183.66789507865906	2.5082638263702393
21	66.22006797790527	fix_post	2		12.0	19.0	2.5	blank	1.0	186.1761589050293	0.10009407997131348
22	66.32016205787659	fix_pre	0		17.0	20.0	2.5	/experiments/knapen_aot/videos/S_Pexels_Videos_2795171.mp4	0.0	186.2762529850006	0.14163589477539062
22	66.45354413986206	response	0	2		20.0	2.5	/experiments/knapen_aot/videos/S_Pexels_Videos_2795171.mp4	0.0	186.40963506698608	
22	66.46179795265198	movie	1		166.0	20.0	2.5	/experiments/knapen_aot/videos/S_Pexels_Videos_2795171.mp4	0.0	186.417888879776	2.508287191390991
22	68.97008514404297	fix_post	2		12.0	20.0	2.5	/experiments/knapen_aot/videos/S_Pexels_Videos_2795171.mp4	0.0	188.926176071167	0.10009193420410156
23	69.07017707824707	fix_pre	0		4.0	21.0	2.5	/experiments/knapen_aot/videos/R_S_video_inspire_oregon_portland_00064.1080-h264.mp4	0.0	189.0262680053711	0.033357858657836914
23	69.09534811973572	response	0	2		21.0	2.5	/experiments/knapen_aot/videos/R_S_video_inspire_oregon_portland_00064.1080-h264.mp4	0.0	189.05143904685974	
23	69.10353493690491	movie	1		171.0	21.0	2.5	/experiments/knapen_aot/videos/R_S_video_inspire_oregon_portland_00064.1080-h264.mp4	0.0	189.05962586402893	2.508169174194336
23	71.61170411109924	fix_post	2		12.0	21.0	2.5	/experiments/knapen_aot/videos/R_S_video_inspire_oregon_portland_00064.1080-h264.mp4	0.0	191.56779503822327	0.10007786750793457
23	71.64688014984131	response	2	2		21.0	2.5	/experiments/knapen_aot/videos/R_S_video_inspire_oregon_portland_00064.1080-h264.mp4	0.0	191.60297107696533	
24	71.71178197860718	fix_pre	0		27.0	22.0	2.5	/experiments/knapen_aot/videos/R_S_production_ID_4720614.mp4	0.0	191.6678729057312	0.2251119613647461
24	71.92852711677551	response	0	2		22.0	2.5	/experiments/knapen_aot/videos/R_S_production_ID_4720614.mp4	0.0	191.88461804389954	
24	71.93689393997192	movie	1		214.0	22.0	2.5	/experiments/knapen_aot/videos/R_S_production_ID_4720614.mp4	0.0	191.89298486709595	2.508204221725464
24	74.44509816169739	fix_post	2		12.0	22.0	2.5	/experiments/knapen_aot/videos/R_S_production_ID_4720614.mp4	0.0	194.4011890888214	0.09993982315063477
25	74.54503798484802	fix_pre	0		19.0	23.0	2.5	/experiments/knapen_aot/videos/S_ILSVRC2015_train_00044004.mp4	0.0	194.50112891197205	0.15837907791137695
25	74.69533705711365	response	0	2		23.0	2.5	/experiments/knapen_aot/videos/S_ILSVRC2015_train_00044004.mp4	0.0	194.65142798423767	
25	74.7034170627594	movie	1		300.0	23.0	2.5	/experiments/knapen_aot/videos/S_ILSVRC2015_train_00044004.mp4	0.0	194.65950798988342	2.5083320140838623
25	77.21174907684326	fix_post	2		12.0	23.0	2.5	/experiments/knapen_aot/videos/S_ILSVRC2015_train_00044004.mp4	0.0	197.16784000396729	0.10002589225769043
26	77.31177496910095	fix_pre	0		2.0	24.0	2.5	/experiments/knapen_aot/videos/R_S_yt-Kwfwhd07dVo_2.mp4	0.0	197.26786589622498	0.016666173934936523
26	77.32038116455078	response	0	2		24.0	2.5	/experiments/knapen_aot/videos/R_S_yt-Kwfwhd07dVo_2.mp4	0.0	197.2764720916748	
26	77.32844114303589	movie	1		301.0	24.0	2.5	/experiments/knapen_aot/videos/R_S_yt-Kwfwhd07dVo_2.mp4	0.0	197.2845320701599	2.5082998275756836
26	79.83674097061157	fix_post	2		12.0	24.0	2.5	/experiments/knapen_aot/videos/R_S_yt-Kwfwhd07dVo_2.mp4	0.0	199.7928318977356	0.1000370979309082
27	79.93677806854248	fix_pre	0		31.0	25.0	2.5	/experiments/knapen_aot/videos/S_yt-LZS1RrEtTeQ_136.mp4	0.0	199.8928689956665	0.2583479881286621
27	80.18692708015442	response	0	2		25.0	2.5	/experiments/knapen_aot/videos/S_yt-LZS1RrEtTeQ_136.mp4	0.0	200.14301800727844	
27	80.19512605667114	movie	1		301.0	25.0	2.5	/experiments/knapen_aot/videos/S_yt-LZS1RrEtTeQ_136.mp4	0.0	200.15121698379517	2.5083189010620117
27	82.70344495773315	fix_post	2		10.0	25.0	2.5	/experiments/knapen_aot/videos/S_yt-LZS1RrEtTeQ_136.mp4	0.0	202.65953588485718	0.09998297691345215
28	82.8034279346466	fix_pre	0		11.0	26.0	2.5	/experiments/knapen_aot/videos/R_S_yt-ni4JaYu7PhU_6.mp4	0.0	202.75951886177063	0.09160709381103516
28	82.88689112663269	response	0	2		26.0	2.5	/experiments/knapen_aot/videos/R_S_yt-ni4JaYu7PhU_6.mp4	0.0	202.8429820537567	
28	82.89503502845764	movie	1		301.0	26.0	2.5	/experiments/knapen_aot/videos/R_S_yt-ni4JaYu7PhU_6.mp4	0.0	202.85112595558167	2.5083091259002686
28	85.40334415435791	fix_post	2		12.0	26.0	2.5	/experiments/knapen_aot/videos/R_S_yt-ni4JaYu7PhU_6.mp4	0.0	205.35943508148193	0.10007786750793457
29	85.50342202186584	fix_pre	0		19.0	27.0	2.5	/experiments/knapen_aot/videos/R_S__9v_wUywaAA_35.mp4	0.0	205.45951294898987	0.15821313858032227
29	85.65354013442993	response	0	2		27.0	2.5	/experiments/knapen_aot/videos/R_S__9v_wUywaAA_35.mp4	0.0	205.60963106155396	
29	85.66163516044617	movie	1		301.0	27.0	2.5	/experiments/knapen_aot/videos/R_S__9v_wUywaAA_35.mp4	0.0	205.6177260875702	2.5083608627319336
29	88.1699960231781	fix_post	2		12.0	27.0	2.5	/experiments/knapen_aot/videos/R_S__9v_wUywaAA_35.mp4	0.0	208.12608695030212	0.10003399848937988
30	88.27003002166748	fix_pre	0		10.0	28.0	2.5	blank	1.0	208.2261209487915	0.08328104019165039
30	88.34517216682434	response	0	2		28.0	2.5	blank	1.0	208.30126309394836	
30	88.35331106185913	movie	1		301.0	28.0	2.5	blank	1.0	208.30940198898315	2.5084331035614014
30	90.86174416542053	fix_post	2		12.0	28.0	2.5	blank	1.0	210.81783509254456	0.09997081756591797
31	90.96171498298645	fix_pre	0		25.0	29.0	2.5	/experiments/knapen_aot/videos/R_S_yt-2XRGfGc0q44_37.mp4	0.0	210.91780591011047	0.20832109451293945
31	91.1618161201477	response	0	2		29.0	2.5	/experiments/knapen_aot/videos/R_S_yt-2XRGfGc0q44_37.mp4	0.0	211.11790704727173	
31	91.17003607749939	movie	1		301.0	29.0	2.5	/experiments/knapen_aot/videos/R_S_yt-2XRGfGc0q44_37.mp4	0.0	211.1261270046234	2.508378028869629
31	93.67841410636902	fix_post	2		12.0	29.0	2.5	/experiments/knapen_aot/videos/R_S_yt-2XRGfGc0q44_37.mp4	0.0	213.63450503349304	0.0999748706817627
32	93.77838897705078	fix_pre	0		2.0	30.0	2.5	/experiments/knapen_aot/videos/S_yt-ZTAaH5XbtfE_3.mp4	0.0	213.7344799041748	0.01659417152404785
32	93.7868320941925	response	0	2		30.0	2.5	/experiments/knapen_aot/videos/S_yt-ZTAaH5XbtfE_3.mp4	0.0	213.74292302131653	
32	93.79498314857483	movie	1		301.0	30.0	2.5	/experiments/knapen_aot/videos/S_yt-ZTAaH5XbtfE_3.mp4	0.0	213.75107407569885	2.508347988128662
32	96.30333113670349	fix_post	2		11.0	30.0	2.5	/experiments/knapen_aot/videos/S_yt-ZTAaH5XbtfE_3.mp4	0.0	216.25942206382751	0.09165501594543457
32	96.38675999641418	response	2	2		30.0	2.5	/experiments/knapen_aot/videos/S_yt-ZTAaH5XbtfE_3.mp4	0.0	216.3428509235382	
33	96.39498615264893	fix_pre	0		40.0	31.0	2.5	/experiments/knapen_aot/videos/R_S_Oo8otu7cQ20_112.mp4	0.0	216.35107707977295	0.33333277702331543
33	96.71257901191711	response	0	2		31.0	2.5	/experiments/knapen_aot/videos/R_S_Oo8otu7cQ20_112.mp4	0.0	216.66866993904114	
33	96.72831892967224	movie	1		301.0	31.0	2.5	/experiments/knapen_aot/videos/R_S_Oo8otu7cQ20_112.mp4	0.0	216.68440985679626	2.5083420276641846
33	99.23666095733643	fix_post	2		12.0	31.0	2.5	/experiments/knapen_aot/videos/R_S_Oo8otu7cQ20_112.mp4	0.0	219.19275188446045	0.09999918937683105
34	99.33666014671326	fix_pre	0		6.0	32.0	2.5	/experiments/knapen_aot/videos/S_yt-l_pvPAznG1A_20.mp4	0.0	219.29275107383728	0.05109000205993652
34	99.37848114967346	response	0	2		32.0	2.5	/experiments/knapen_aot/videos/S_yt-l_pvPAznG1A_20.mp4	0.0	219.33457207679749	
34	99.3877501487732	movie	1		301.0	32.0	2.5	/experiments/knapen_aot/videos/S_yt-l_pvPAznG1A_20.mp4	0.0	219.34384107589722	2.50716495513916
34	101.89491510391235	fix_post	2		12.0	32.0	2.5	/experiments/knapen_aot/videos/S_yt-l_pvPAznG1A_20.mp4	0.0	221.85100603103638	0.10006189346313477
35	101.99497699737549	fix_pre	0		7.0	33.0	2.5	/experiments/knapen_aot/videos/S_comp_A105_C002_v06_SDR_FINAL_25062018_SDR_2K_AVC.mp4	0.0	221.9510679244995	0.059301137924194336
35	102.03770899772644	response	0	2		33.0	2.5	/experiments/knapen_aot/videos/S_comp_A105_C002_v06_SDR_FINAL_25062018_SDR_2K_AVC.mp4	0.0	221.99379992485046	
35	102.05427813529968	movie	1		165.0	33.0	2.5	/experiments/knapen_aot/videos/S_comp_A105_C002_v06_SDR_FINAL_25062018_SDR_2K_AVC.mp4	0.0	222.0103690624237	2.5073888301849365
35	104.56166696548462	fix_post	2		12.0	33.0	2.5	/experiments/knapen_aot/videos/S_comp_A105_C002_v06_SDR_FINAL_25062018_SDR_2K_AVC.mp4	0.0	224.51775789260864	0.09995698928833008
35	104.65347599983215	response	2	2		33.0	2.5	/experiments/knapen_aot/videos/S_comp_A105_C002_v06_SDR_FINAL_25062018_SDR_2K_AVC.mp4	0.0	224.60956692695618	
36	104.66162395477295	fix_pre	0		34.0	34.0	2.5	blank	1.0	224.61771488189697	0.28334999084472656
36	104.92920398712158	response	0	2		34.0	2.5	blank	1.0	224.8852949142456	
36	104.94497394561768	movie	1		301.0	34.0	2.5	blank	1.0	224.9010648727417	2.5083580017089844
36	107.45333194732666	fix_post	2		12.0	34.0	2.5	blank	1.0	227.40942287445068	0.09997010231018066
37	107.55330204963684	fix_pre	0		20.0	35.0	2.5	/experiments/knapen_aot/videos/R_S_comp_A083_C002_1130KZ_v04_SDR_PS_FINAL_20180725_SDR_2K_AVC.mp4	0.0	227.50939297676086	0.16754388809204102
37	107.71169900894165	response	0	2		35.0	2.5	/experiments/knapen_aot/videos/R_S_comp_A083_C002_1130KZ_v04_SDR_PS_FINAL_20180725_SDR_2K_AVC.mp4	0.0	227.66778993606567	
37	107.72084593772888	movie	1		165.0	35.0	2.5	/experiments/knapen_aot/videos/R_S_comp_A083_C002_1130KZ_v04_SDR_PS_FINAL_20180725_SDR_2K_AVC.mp4	0.0	227.6769368648529	2.5074410438537598
37	110.22828698158264	fix_post	2		12.0	35.0	2.5	/experiments/knapen_aot/videos/R_S_comp_A083_C002_1130KZ_v04_SDR_PS_FINAL_20180725_SDR_2K_AVC.mp4	0.0	230.18437790870667	0.10001111030578613
38	110.32829809188843	fix_pre	0		2.0	36.0	2.5	/experiments/knapen_aot/videos/S_yt-FsXOl6JjzSY_15.mp4	0.0	230.28438901901245	0.01752185821533203
38	110.33675599098206	response	0	2		36.0	2.5	/experiments/knapen_aot/videos/S_yt-FsXOl6JjzSY_15.mp4	0.0	230.29284691810608	
38	110.34581995010376	movie	1		300.0	36.0	2.5	/experiments/knapen_aot/videos/S_yt-FsXOl6JjzSY_15.mp4	0.0	230.30191087722778	2.5074870586395264
38	112.85330700874329	fix_post	2		12.0	36.0	2.5	/experiments/knapen_aot/videos/S_yt-FsXOl6JjzSY_15.mp4	0.0	232.8093979358673	0.1000361442565918
39	112.95334315299988	fix_pre	0		13.0	37.0	2.5	/experiments/knapen_aot/videos/R_S_comp_A001_C004_1207W5_v23_SDR_FINAL_20180706_SDR_2K_AVC.mp4	0.0	232.9094340801239	0.10824179649353027
39	113.05336308479309	response	0	2		37.0	2.5	/experiments/knapen_aot/videos/R_S_comp_A001_C004_1207W5_v23_SDR_FINAL_20180706_SDR_2K_AVC.mp4	0.0	233.00945401191711	
39	113.06158494949341	movie	1		168.0	37.0	2.5	/experiments/knapen_aot/videos/R_S_comp_A001_C004_1207W5_v23_SDR_FINAL_20180706_SDR_2K_AVC.mp4	0.0	233.01767587661743	2.5083580017089844
39	115.56994295120239	fix_post	2		12.0	37.0	2.5	/experiments/knapen_aot/videos/R_S_comp_A001_C004_1207W5_v23_SDR_FINAL_20180706_SDR_2K_AVC.mp4	0.0	235.52603387832642	0.09997320175170898
39	115.6036479473114	response	2	2		37.0	2.5	/experiments/knapen_aot/videos/R_S_comp_A001_C004_1207W5_v23_SDR_FINAL_20180706_SDR_2K_AVC.mp4	0.0	235.55973887443542	
40	115.6699161529541	fix_pre	0		24.0	38.0	2.5	/experiments/knapen_aot/videos/S_production_ID_4325513.mp4	0.0	235.62600708007812	0.19999289512634277
40	115.86162614822388	response	0	2		38.0	2.5	/experiments/knapen_aot/videos/S_production_ID_4325513.mp4	0.0	235.8177170753479	
40	115.86990904808044	movie	1		208.0	38.0	2.5	/experiments/knapen_aot/videos/S_production_ID_4325513.mp4	0.0	235.82599997520447	2.508352041244507
40	118.37826108932495	fix_post	2		12.0	38.0	2.5	/experiments/knapen_aot/videos/S_production_ID_4325513.mp4	0.0	238.33435201644897	0.09996795654296875
40	118.40437507629395	response	2	2		38.0	2.5	/experiments/knapen_aot/videos/S_production_ID_4325513.mp4	0.0	238.36046600341797	
41	118.47822904586792	fix_pre	0		30.0	39.0	2.5	/experiments/knapen_aot/videos/R_S_yt-2LCHVTVwJ5E_235.mp4	0.0	238.43431997299194	0.2500779628753662
41	118.72002696990967	response	0	2		39.0	2.5	/experiments/knapen_aot/videos/R_S_yt-2LCHVTVwJ5E_235.mp4	0.0	238.6761178970337	
41	118.72830700874329	movie	1		301.0	39.0	2.5	/experiments/knapen_aot/videos/R_S_yt-2LCHVTVwJ5E_235.mp4	0.0	238.6843979358673	2.5082449913024902
41	121.23655200004578	fix_post	2		12.0	39.0	2.5	/experiments/knapen_aot/videos/R_S_yt-2LCHVTVwJ5E_235.mp4	0.0	241.1926429271698	0.09995698928833008
42	121.3365089893341	fix_pre	0		17.0	40.0	2.5	/experiments/knapen_aot/videos/R_S_yt-2l6VKd94eAI_151.mp4	0.0	241.29259991645813	0.14185404777526855
42	121.46257400512695	response	0	2		40.0	2.5	/experiments/knapen_aot/videos/R_S_yt-2l6VKd94eAI_151.mp4	0.0	241.41866493225098	
42	121.47836303710938	movie	1		301.0	40.0	2.5	/experiments/knapen_aot/videos/R_S_yt-2l6VKd94eAI_151.mp4	0.0	241.4344539642334	2.508204936981201
42	123.98656797409058	fix_post	2		12.0	40.0	2.5	/experiments/knapen_aot/videos/R_S_yt-2l6VKd94eAI_151.mp4	0.0	243.9426589012146	0.1000070571899414
43	124.08657503128052	fix_pre	0		9.0	41.0	2.5	/experiments/knapen_aot/videos/R_S_yt-xqjVM0Vj4mI_161.mp4	0.0	244.04266595840454	0.07497406005859375
43	124.1459391117096	response	0	2		41.0	2.5	/experiments/knapen_aot/videos/R_S_yt-xqjVM0Vj4mI_161.mp4	0.0	244.10203003883362	
43	124.16154909133911	movie	1		301.0	41.0	2.5	/experiments/knapen_aot/videos/R_S_yt-xqjVM0Vj4mI_161.mp4	0.0	244.11764001846313	2.5083279609680176
43	126.66987705230713	fix_post	2		12.0	41.0	2.5	/experiments/knapen_aot/videos/R_S_yt-xqjVM0Vj4mI_161.mp4	0.0	246.62596797943115	0.10001492500305176
43	126.67920708656311	response	2	2		41.0	2.5	/experiments/knapen_aot/videos/R_S_yt-xqjVM0Vj4mI_161.mp4	0.0	246.63529801368713	
44	126.76989197731018	fix_pre	0		26.0	42.0	2.5	blank	1.0	246.7259829044342	0.21668195724487305
44	126.97824501991272	response	0	2		42.0	2.5	blank	1.0	246.93433594703674	
44	126.98657393455505	movie	1		301.0	42.0	2.5	blank	1.0	246.94266486167908	2.5082650184631348
44	129.4948389530182	fix_post	2		12.0	42.0	2.5	blank	1.0	249.4509298801422	0.10005021095275879
45	129.59488916397095	fix_pre	0		17.0	43.0	2.5	/experiments/knapen_aot/videos/S_yt-r2jZ0zZrqzQ_45.mp4	0.0	249.55098009109497	0.14168882369995117
45	129.7207100391388	response	0	2		43.0	2.5	/experiments/knapen_aot/videos/S_yt-r2jZ0zZrqzQ_45.mp4	0.0	249.67680096626282	
45	129.7365779876709	movie	1		301.0	43.0	2.5	/experiments/knapen_aot/videos/S_yt-r2jZ0zZrqzQ_45.mp4	0.0	249.69266891479492	2.508319139480591
45	132.2448971271515	fix_post	2		12.0	43.0	2.5	/experiments/knapen_aot/videos/S_yt-r2jZ0zZrqzQ_45.mp4	0.0	252.2009880542755	0.09996891021728516
46	132.34486603736877	fix_pre	0		1.0	44.0	2.5	/experiments/knapen_aot/videos/R_S_yt-6xXEMHBQ08A_28.mp4	0.0	252.3009569644928	0.008404016494750977
46	132.34658908843994	response	0	2		44.0	2.5	/experiments/knapen_aot/videos/R_S_yt-6xXEMHBQ08A_28.mp4	0.0	252.30268001556396	
46	132.35327005386353	movie	1		301.0	44.0	2.5	/experiments/knapen_aot/videos/R_S_yt-6xXEMHBQ08A_28.mp4	0.0	252.30936098098755	2.508284091949463
46	134.861554145813	fix_post	2		12.0	44.0	2.5	/experiments/knapen_aot/videos/R_S_yt-6xXEMHBQ08A_28.mp4	0.0	254.817645072937	0.09999489784240723
47	134.9615490436554	fix_pre	0		4.0	45.0	2.5	/experiments/knapen_aot/videos/S_ILSVRC2015_train_00463000.mp4	0.0	254.91763997077942	0.03374004364013672
47	134.9866499900818	response	0	2		45.0	2.5	/experiments/knapen_aot/videos/S_ILSVRC2015_train_00463000.mp4	0.0	254.9427409172058	
47	134.99528908729553	movie	1		301.0	45.0	2.5	/experiments/knapen_aot/videos/S_ILSVRC2015_train_00463000.mp4	0.0	254.95138001441956	2.5079429149627686
47	137.5032320022583	fix_post	2		12.0	45.0	2.5	/experiments/knapen_aot/videos/S_ILSVRC2015_train_00463000.mp4	0.0	257.4593229293823	0.0999600887298584
48	137.60319209098816	fix_pre	0		11.0	46.0	2.5	/experiments/knapen_aot/videos/S_yt-rY_ra5Tb9XU_51.mp4	0.0	257.5592830181122	0.09157204627990723
48	137.68663501739502	response	0	2		46.0	2.5	/experiments/knapen_aot/videos/S_yt-rY_ra5Tb9XU_51.mp4	0.0	257.64272594451904	
48	137.69476413726807	movie	1		301.0	46.0	2.5	/experiments/knapen_aot/videos/S_yt-rY_ra5Tb9XU_51.mp4	0.0	257.6508550643921	2.5083229541778564
48	140.20308709144592	fix_post	2		12.0	46.0	2.5	/experiments/knapen_aot/videos/S_yt-rY_ra5Tb9XU_51.mp4	0.0	260.15917801856995	0.1001429557800293
49	140.30323004722595	fix_pre	0		7.0	47.0	2.5	/experiments/knapen_aot/videos/S_production_ID_3967181.mp4	0.0	260.25932097435	0.05828499794006348
49	140.3532519340515	response	0	2		47.0	2.5	/experiments/knapen_aot/videos/S_production_ID_3967181.mp4	0.0	260.30934286117554	
49	140.36151504516602	movie	1		195.0	47.0	2.5	/experiments/knapen_aot/videos/S_production_ID_3967181.mp4	0.0	260.31760597229004	2.508333921432495
49	142.8698489665985	fix_post	2		12.0	47.0	2.5	/experiments/knapen_aot/videos/S_production_ID_3967181.mp4	0.0	262.82593989372253	0.10072708129882812
49	142.92160296440125	response	2	2		47.0	2.5	/experiments/knapen_aot/videos/S_production_ID_3967181.mp4	0.0	262.87769389152527	
50	142.97057604789734	fix_pre	0		26.0	48.0	2.5	blank	1.0	262.92666697502136	0.21590399742126465
50	143.17821598052979	response	0	2		48.0	2.5	blank	1.0	263.1343069076538	
50	143.1864800453186	movie	1		301.0	48.0	2.5	blank	1.0	263.1425709724426	2.5083630084991455
50	145.69484305381775	fix_post	2		12.0	48.0	2.5	blank	1.0	265.6509339809418	0.0999460220336914
51	145.79478907585144	fix_pre	0		17.0	49.0	2.5	/experiments/knapen_aot/videos/R_S_yt-O6W6CZPXvlA_15.mp4	0.0	265.75088000297546	0.14174199104309082
51	145.9282341003418	response	0	2		49.0	2.5	/experiments/knapen_aot/videos/R_S_yt-O6W6CZPXvlA_15.mp4	0.0	265.8843250274658	
51	145.93653106689453	movie	1		301.0	49.0	2.5	/experiments/knapen_aot/videos/R_S_yt-O6W6CZPXvlA_15.mp4	0.0	265.89262199401855	2.508298873901367
51	148.4448299407959	fix_post	2		12.0	49.0	2.5	/experiments/knapen_aot/videos/R_S_yt-O6W6CZPXvlA_15.mp4	0.0	268.4009208679199	0.10000014305114746
52	148.54483008384705	fix_pre	0		4.0	50.0	2.5	/experiments/knapen_aot/videos/R_S_yt-r7brAHgxZSU_248.mp4	0.0	268.50092101097107	0.03325700759887695
52	148.5699770450592	response	0	2		50.0	2.5	/experiments/knapen_aot/videos/R_S_yt-r7brAHgxZSU_248.mp4	0.0	268.5260679721832	
52	148.57808709144592	movie	1		301.0	50.0	2.5	/experiments/knapen_aot/videos/R_S_yt-r7brAHgxZSU_248.mp4	0.0	268.53417801856995	2.5083818435668945
52	151.08646893501282	fix_post	2		12.0	50.0	2.5	/experiments/knapen_aot/videos/R_S_yt-r7brAHgxZSU_248.mp4	0.0	271.04255986213684	0.10003304481506348
52	151.1783299446106	response	2	2		50.0	2.5	/experiments/knapen_aot/videos/R_S_yt-r7brAHgxZSU_248.mp4	0.0	271.1344208717346	
53	151.18650197982788	fix_pre	0		38.0	51.0	2.5	/experiments/knapen_aot/videos/S_comp_A351_C001_v06_SDR_PS_20180725_SDR_2K_AVC.mp4	0.0	271.1425929069519	0.316601037979126
53	151.48733806610107	response	0	2		51.0	2.5	/experiments/knapen_aot/videos/S_comp_A351_C001_v06_SDR_PS_20180725_SDR_2K_AVC.mp4	0.0	271.4434289932251	
53	151.503103017807	movie	1		166.0	51.0	2.5	/experiments/knapen_aot/videos/S_comp_A351_C001_v06_SDR_PS_20180725_SDR_2K_AVC.mp4	0.0	271.45919394493103	2.5083510875701904
53	154.0114541053772	fix_post	2		12.0	51.0	2.5	/experiments/knapen_aot/videos/S_comp_A351_C001_v06_SDR_PS_20180725_SDR_2K_AVC.mp4	0.0	273.9675450325012	0.09991288185119629
54	154.1113669872284	fix_pre	0		1.0	52.0	2.5	/experiments/knapen_aot/videos/S_yt-NuZy8Rjk4d0_156.mp4	0.0	274.0674579143524	0.00841212272644043
54	154.11300110816956	response	0	2		52.0	2.5	/experiments/knapen_aot/videos/S_yt-NuZy8Rjk4d0_156.mp4	0.0	274.0690920352936	
54	154.11977910995483	movie	1		301.0	52.0	2.5	/experiments/knapen_aot/videos/S_yt-NuZy8Rjk4d0_156.mp4	0.0	274.07587003707886	2.5083298683166504
54	156.62810897827148	fix_post	2		12.0	52.0	2.5	/experiments/knapen_aot/videos/S_yt-NuZy8Rjk4d0_156.mp4	0.0	276.5841999053955	0.09996199607849121
55	156.72807097434998	fix_pre	0		17.0	53.0	2.5	/experiments/knapen_aot/videos/R_S_yt-rZA9zXR-A6s_426.mp4	0.0	276.684161901474	0.14170598983764648
55	156.85410904884338	response	0	2		53.0	2.5	/experiments/knapen_aot/videos/R_S_yt-rZA9zXR-A6s_426.mp4	0.0	276.8101999759674	
55	156.86977696418762	movie	1		301.0	53.0	2.5	/experiments/knapen_aot/videos/R_S_yt-rZA9zXR-A6s_426.mp4	0.0	276.82586789131165	2.508301019668579
55	159.3780779838562	fix_post	2		12.0	53.0	2.5	/experiments/knapen_aot/videos/R_S_yt-rZA9zXR-A6s_426.mp4	0.0	279.3341689109802	0.10009407997131348
56	159.47817206382751	fix_pre	0		1.0	54.0	2.5	blank	1.0	279.43426299095154	0.008236885070800781
56	159.47982716560364	response	0	2		54.0	2.5	blank	1.0	279.43591809272766	
56	159.48640894889832	movie	1		301.0	54.0	2.5	blank	1.0	279.44249987602234	2.5083441734313965
56	161.9947531223297	fix_post	2		12.0	54.0	2.5	blank	1.0	281.95084404945374	0.10002303123474121
57	162.09477615356445	fix_pre	0		9.0	55.0	2.5	/experiments/knapen_aot/videos/S_yt-jzDaQD-g168_103.mp4	0.0	282.0508670806885	0.0749509334564209
57	162.16146898269653	response	0	2		55.0	2.5	/experiments/knapen_aot/videos/S_yt-jzDaQD-g168_103.mp4	0.0	282.11755990982056	
57	162.16972708702087	movie	1		300.0	55.0	2.5	/experiments/knapen_aot/videos/S_yt-jzDaQD-g168_103.mp4	0.0	282.1258180141449	2.5083508491516113
57	164.67807793617249	fix_post	2		12.0	55.0	2.5	/experiments/knapen_aot/videos/S_yt-jzDaQD-g168_103.mp4	0.0	284.6341688632965	0.10002923011779785
58	164.77810716629028	fix_pre	0		22.0	56.0	2.5	/experiments/knapen_aot/videos/S_yt-GjFQxAklviE_25.mp4	0.0	284.7341980934143	0.18332290649414062
58	164.95320200920105	response	0	2		56.0	2.5	/experiments/knapen_aot/videos/S_yt-GjFQxAklviE_25.mp4	0.0	284.9092929363251	
58	164.96143007278442	movie	1		301.0	56.0	2.5	/experiments/knapen_aot/videos/S_yt-GjFQxAklviE_25.mp4	0.0	284.91752099990845	2.5083248615264893
58	167.4697549343109	fix_post	2		12.0	56.0	2.5	/experiments/knapen_aot/videos/S_yt-GjFQxAklviE_25.mp4	0.0	287.42584586143494	0.10010814666748047
59	167.5698630809784	fix_pre	0		9.0	57.0	2.5	/experiments/knapen_aot/videos/R_S_yt-l_pvPAznG1A_20.mp4	0.0	287.5259540081024	0.07487797737121582
59	167.636549949646	response	0	2		57.0	2.5	/experiments/knapen_aot/videos/R_S_yt-l_pvPAznG1A_20.mp4	0.0	287.59264087677	
59	167.6447410583496	movie	1		301.0	57.0	2.5	/experiments/knapen_aot/videos/R_S_yt-l_pvPAznG1A_20.mp4	0.0	287.60083198547363	2.5083720684051514
59	170.15311312675476	fix_post	2		12.0	57.0	2.5	/experiments/knapen_aot/videos/R_S_yt-l_pvPAznG1A_20.mp4	0.0	290.1092040538788	0.09997200965881348
60	170.25308513641357	fix_pre	0		5.0	58.0	2.5	/experiments/knapen_aot/videos/R_S_yt-3JApfnMu5cU_378.mp4	0.0	290.2091760635376	0.041687965393066406
60	170.2865970134735	response	0	2		58.0	2.5	/experiments/knapen_aot/videos/R_S_yt-3JApfnMu5cU_378.mp4	0.0	290.24268794059753	
60	170.29477310180664	movie	1		298.0	58.0	2.5	/experiments/knapen_aot/videos/R_S_yt-3JApfnMu5cU_378.mp4	0.0	290.25086402893066	2.5083110332489014
60	172.80308413505554	fix_post	2		12.0	58.0	2.5	/experiments/knapen_aot/videos/R_S_yt-3JApfnMu5cU_378.mp4	0.0	292.75917506217957	0.09996485710144043
61	172.90304899215698	fix_pre	0		13.0	59.0	2.5	/experiments/knapen_aot/videos/R_S_ILSVRC2015_train_00369000.mp4	0.0	292.859139919281	0.10887503623962402
61	173.0031840801239	response	0	2		59.0	2.5	/experiments/knapen_aot/videos/R_S_ILSVRC2015_train_00369000.mp4	0.0	292.9592750072479	
61	173.0119240283966	movie	1		301.0	59.0	2.5	/experiments/knapen_aot/videos/R_S_ILSVRC2015_train_00369000.mp4	0.0	292.96801495552063	2.507797956466675
61	175.43653416633606	response	1	2		59.0	2.5	/experiments/knapen_aot/videos/R_S_ILSVRC2015_train_00369000.mp4	0.0	295.3926250934601	
61	175.51972198486328	fix_post	2		12.0	59.0	2.5	/experiments/knapen_aot/videos/R_S_ILSVRC2015_train_00369000.mp4	0.0	295.4758129119873	0.10002398490905762
62	175.61974596977234	fix_pre	0		23.0	60.0	2.5	/experiments/knapen_aot/videos/R_S_yt-ZTAaH5XbtfE_3.mp4	0.0	295.57583689689636	0.19161510467529297
62	175.80315709114075	response	0	2		60.0	2.5	/experiments/knapen_aot/videos/R_S_yt-ZTAaH5XbtfE_3.mp4	0.0	295.75924801826477	
62	175.81136107444763	movie	1		301.0	60.0	2.5	/experiments/knapen_aot/videos/R_S_yt-ZTAaH5XbtfE_3.mp4	0.0	295.76745200157166	2.5083529949188232
62	178.31971406936646	fix_post	2		12.0	60.0	2.5	/experiments/knapen_aot/videos/R_S_yt-ZTAaH5XbtfE_3.mp4	0.0	298.2758049964905	0.10001087188720703
62	178.34549808502197	response	2	2		60.0	2.5	/experiments/knapen_aot/videos/R_S_yt-ZTAaH5XbtfE_3.mp4	0.0	298.301589012146	
63	178.41972494125366	fix_pre	0		28.0	61.0	2.5	blank	1.0	298.3758158683777	0.23326611518859863
63	178.64477801322937	response	0	2		61.0	2.5	blank	1.0	298.6008689403534	
63	178.65299105644226	movie	1		301.0	61.0	2.5	blank	1.0	298.6090819835663	2.5083730220794678
63	181.16136407852173	fix_post	2		12.0	61.0	2.5	blank	1.0	301.11745500564575	0.09995603561401367
64	181.26132011413574	fix_pre	0		24.0	62.0	2.5	/experiments/knapen_aot/videos/S_ILSVRC2015_train_00463000.mp4	0.0	301.21741104125977	0.1999950408935547
64	181.45298314094543	response	0	2		62.0	2.5	/experiments/knapen_aot/videos/S_ILSVRC2015_train_00463000.mp4	0.0	301.40907406806946	
64	181.4613151550293	movie	1		301.0	62.0	2.5	/experiments/knapen_aot/videos/S_ILSVRC2015_train_00463000.mp4	0.0	301.4174060821533	2.5082948207855225
64	183.96960997581482	fix_post	2		12.0	62.0	2.5	/experiments/knapen_aot/videos/S_ILSVRC2015_train_00463000.mp4	0.0	303.92570090293884	0.10003018379211426
65	184.06964015960693	fix_pre	0		27.0	63.0	2.5	/experiments/knapen_aot/videos/S_yt-iT6jsSikmGM_4.mp4	0.0	304.02573108673096	0.22492384910583496
65	184.28641605377197	response	0	2		63.0	2.5	/experiments/knapen_aot/videos/S_yt-iT6jsSikmGM_4.mp4	0.0	304.242506980896	
65	184.29456400871277	movie	1		301.0	63.0	2.5	/experiments/knapen_aot/videos/S_yt-iT6jsSikmGM_4.mp4	0.0	304.2506549358368	2.5083510875701904
65	186.80291509628296	fix_post	2		12.0	63.0	2.5	/experiments/knapen_aot/videos/S_yt-iT6jsSikmGM_4.mp4	0.0	306.759006023407	0.10000801086425781
66	186.90292310714722	fix_pre	0		6.0	64.0	2.5	/experiments/knapen_aot/videos/R_S_pexels-koolshooters-7689098.mp4	0.0	306.85901403427124	0.0751190185546875
66	186.97000193595886	response	0	2		64.0	2.5	/experiments/knapen_aot/videos/R_S_pexels-koolshooters-7689098.mp4	0.0	306.9260928630829	
66	186.9780421257019	movie	1		165.0	64.0	2.5	/experiments/knapen_aot/videos/R_S_pexels-koolshooters-7689098.mp4	0.0	306.9341330528259	2.508298873901367
66	189.48634099960327	fix_post	2		12.0	64.0	2.5	/experiments/knapen_aot/videos/R_S_pexels-koolshooters-7689098.mp4	0.0	309.4424319267273	0.10000205039978027
66	189.56984615325928	response	2	2		64.0	2.5	/experiments/knapen_aot/videos/R_S_pexels-koolshooters-7689098.mp4	0.0	309.5259370803833	
67	189.58634305000305	fix_pre	0		39.0	65.0	2.5	/experiments/knapen_aot/videos/R_S_ILSVRC2015_train_00569006.mp4	0.0	309.5424339771271	0.32498908042907715
67	189.9030420780182	response	0	2		65.0	2.5	/experiments/knapen_aot/videos/R_S_ILSVRC2015_train_00569006.mp4	0.0	309.8591330051422	
67	189.91133213043213	movie	1		300.0	65.0	2.5	/experiments/knapen_aot/videos/R_S_ILSVRC2015_train_00569006.mp4	0.0	309.86742305755615	2.5083158016204834
67	192.4196479320526	fix_post	2		12.0	65.0	2.5	/experiments/knapen_aot/videos/R_S_ILSVRC2015_train_00569006.mp4	0.0	312.37573885917664	0.09996223449707031
68	192.51961016654968	fix_pre	0		9.0	66.0	2.5	/experiments/knapen_aot/videos/R_S_yt-ZTAaH5XbtfE_3.mp4	0.0	312.4757010936737	0.07552480697631836
68	192.58643007278442	response	0	2		66.0	2.5	/experiments/knapen_aot/videos/R_S_yt-ZTAaH5XbtfE_3.mp4	0.0	312.54252099990845	
68	192.595134973526	movie	1		301.0	66.0	2.5	/experiments/knapen_aot/videos/R_S_yt-ZTAaH5XbtfE_3.mp4	0.0	312.55122590065	2.5077641010284424
68	195.10289907455444	fix_post	2		12.0	66.0	2.5	/experiments/knapen_aot/videos/R_S_yt-ZTAaH5XbtfE_3.mp4	0.0	315.05899000167847	0.10003900527954102
69	195.20293807983398	fix_pre	0		6.0	67.0	2.5	/experiments/knapen_aot/videos/S_yt-YyKEeu2gLrI_158.mp4	0.0	315.159029006958	0.0499570369720459
69	195.24478101730347	response	0	2		67.0	2.5	/experiments/knapen_aot/videos/S_yt-YyKEeu2gLrI_158.mp4	0.0	315.2008719444275	
69	195.25289511680603	movie	1		301.0	67.0	2.5	/experiments/knapen_aot/videos/S_yt-YyKEeu2gLrI_158.mp4	0.0	315.20898604393005	2.5083999633789062
69	197.76129508018494	fix_post	2		12.0	67.0	2.5	/experiments/knapen_aot/videos/S_yt-YyKEeu2gLrI_158.mp4	0.0	317.71738600730896	0.10003495216369629
70	197.86133003234863	fix_pre	0		3.0	68.0	2.5	/experiments/knapen_aot/videos/S_comp_GMT306_139NC_139J_3066_CALI_TO_VEGAS_v08_SDR_PS_20180824_SDR_2K_AVC.mp4	0.0	317.81742095947266	0.025439977645874023
70	197.8783450126648	response	0	2		68.0	2.5	/experiments/knapen_aot/videos/S_comp_GMT306_139NC_139J_3066_CALI_TO_VEGAS_v08_SDR_PS_20180824_SDR_2K_AVC.mp4	0.0	317.8344359397888	
70	197.8867700099945	movie	1		166.0	68.0	2.5	/experiments/knapen_aot/videos/S_comp_GMT306_139NC_139J_3066_CALI_TO_VEGAS_v08_SDR_PS_20180824_SDR_2K_AVC.mp4	0.0	317.84286093711853	2.507807970046997
70	200.3945779800415	fix_post	2		12.0	68.0	2.5	/experiments/knapen_aot/videos/S_comp_GMT306_139NC_139J_3066_CALI_TO_VEGAS_v08_SDR_PS_20180824_SDR_2K_AVC.mp4	0.0	320.3506689071655	0.10001802444458008
71	200.49459600448608	fix_pre	0		18.0	69.0	2.5	/experiments/knapen_aot/videos/S_yt--WPE_4bqQXc_26.mp4	0.0	320.4506869316101	0.15001893043518066
71	200.6363410949707	response	0	2		69.0	2.5	/experiments/knapen_aot/videos/S_yt--WPE_4bqQXc_26.mp4	0.0	320.5924320220947	
71	200.64461493492126	movie	1		300.0	69.0	2.5	/experiments/knapen_aot/videos/S_yt--WPE_4bqQXc_26.mp4	0.0	320.6007058620453	2.508315086364746
71	203.152930021286	fix_post	2		12.0	69.0	2.5	/experiments/knapen_aot/videos/S_yt--WPE_4bqQXc_26.mp4	0.0	323.10902094841003	0.09999608993530273
72	203.2529261112213	fix_pre	0		21.0	70.0	2.5	blank	1.0	323.20901703834534	0.1754150390625
72	203.41974115371704	response	0	2		70.0	2.5	blank	1.0	323.37583208084106	
72	203.4283411502838	movie	1		301.0	70.0	2.5	blank	1.0	323.38443207740784	2.5077857971191406
72	205.93612694740295	fix_post	2		12.0	70.0	2.5	blank	1.0	325.892217874527	0.10009503364562988
73	206.03622198104858	fix_pre	0		20.0	71.0	2.5	/experiments/knapen_aot/videos/R_S_yt-jbvXEFk2Gyw_12.mp4	0.0	325.9923129081726	0.1666700839996338
73	206.19464015960693	response	0	2		71.0	2.5	/experiments/knapen_aot/videos/R_S_yt-jbvXEFk2Gyw_12.mp4	0.0	326.15073108673096	
73	206.20289206504822	movie	1		301.0	71.0	2.5	/experiments/knapen_aot/videos/R_S_yt-jbvXEFk2Gyw_12.mp4	0.0	326.15898299217224	2.508352041244507
73	208.71124410629272	fix_post	2		12.0	71.0	2.5	/experiments/knapen_aot/videos/R_S_yt-jbvXEFk2Gyw_12.mp4	0.0	328.66733503341675	0.09987783432006836
74	208.8111219406128	fix_pre	0		19.0	72.0	2.5	/experiments/knapen_aot/videos/S_pexels-cottonbro-10640532.mp4	0.0	328.7672128677368	0.1587510108947754
74	208.95388412475586	response	0	2		72.0	2.5	/experiments/knapen_aot/videos/S_pexels-cottonbro-10640532.mp4	0.0	328.9099750518799	
74	208.96987295150757	movie	1		201.0	72.0	2.5	/experiments/knapen_aot/videos/S_pexels-cottonbro-10640532.mp4	0.0	328.9259638786316	2.5079891681671143
74	211.47786211967468	fix_post	2		12.0	72.0	2.5	/experiments/knapen_aot/videos/S_pexels-cottonbro-10640532.mp4	0.0	331.4339530467987	0.10006093978881836
75	211.5779230594635	fix_pre	0		33.0	73.0	2.5	/experiments/knapen_aot/videos/S_pexels-anastasia-shuraeva-601407_2.mp4	0.0	331.5340139865875	0.27497005462646484
75	211.84467315673828	response	0	2		73.0	2.5	/experiments/knapen_aot/videos/S_pexels-anastasia-shuraeva-601407_2.mp4	0.0	331.8007640838623	
75	211.85289311408997	movie	1		189.0	73.0	2.5	/experiments/knapen_aot/videos/S_pexels-anastasia-shuraeva-601407_2.mp4	0.0	331.808984041214	2.5082998275756836
75	214.36119294166565	fix_post	2		12.0	73.0	2.5	/experiments/knapen_aot/videos/S_pexels-anastasia-shuraeva-601407_2.mp4	0.0	334.3172838687897	0.09993720054626465
76	214.4611301422119	fix_pre	0		21.0	74.0	2.5	/experiments/knapen_aot/videos/S_yt-gikcYT6ZLzA_7.mp4	0.0	334.41722106933594	0.17538094520568848
76	214.62795495986938	response	0	2		74.0	2.5	/experiments/knapen_aot/videos/S_yt-gikcYT6ZLzA_7.mp4	0.0	334.5840458869934	
76	214.6365110874176	movie	1		301.0	74.0	2.5	/experiments/knapen_aot/videos/S_yt-gikcYT6ZLzA_7.mp4	0.0	334.5926020145416	2.508060932159424
76	217.14457201957703	fix_post	2		11.0	74.0	2.5	/experiments/knapen_aot/videos/S_yt-gikcYT6ZLzA_7.mp4	0.0	337.10066294670105	0.09989404678344727
77	217.24446606636047	fix_pre	0		24.0	75.0	2.5	blank	1.0	337.2005569934845	0.20001506805419922
77	217.42863297462463	response	0	2		75.0	2.5	blank	1.0	337.38472390174866	
77	217.44448113441467	movie	1		301.0	75.0	2.5	blank	1.0	337.4005720615387	2.5083858966827393
77	219.9528670310974	fix_post	2		12.0	75.0	2.5	blank	1.0	339.90895795822144	0.10035204887390137
78	220.0532190799713	fix_pre	0		16.0	76.0	2.5	/experiments/knapen_aot/videos/R_S_b2-4.mp4	0.0	340.00931000709534	0.13294506072998047
78	220.17793202400208	response	0	2		76.0	2.5	/experiments/knapen_aot/videos/R_S_b2-4.mp4	0.0	340.1340229511261	
78	220.1861641407013	movie	1		168.0	76.0	2.5	/experiments/knapen_aot/videos/R_S_b2-4.mp4	0.0	340.1422550678253	2.5083208084106445
78	222.69448494911194	fix_post	2		12.0	76.0	2.5	/experiments/knapen_aot/videos/R_S_b2-4.mp4	0.0	342.65057587623596	0.09998416900634766
79	222.7944691181183	fix_pre	0		4.0	77.0	2.5	/experiments/knapen_aot/videos/S_yt-kuzdrmHa-W0_39.mp4	0.0	342.7505600452423	0.03341484069824219
79	222.8195869922638	response	0	2		77.0	2.5	/experiments/knapen_aot/videos/S_yt-kuzdrmHa-W0_39.mp4	0.0	342.7756779193878	
79	222.82788395881653	movie	1		301.0	77.0	2.5	/experiments/knapen_aot/videos/S_yt-kuzdrmHa-W0_39.mp4	0.0	342.78397488594055	2.5082361698150635
79	225.3361201286316	fix_post	2		12.0	77.0	2.5	/experiments/knapen_aot/videos/S_yt-kuzdrmHa-W0_39.mp4	0.0	345.2922110557556	0.10003089904785156
80	225.43615102767944	fix_pre	0		19.0	78.0	2.5	/experiments/knapen_aot/videos/S_production_ID_4787635.mp4	0.0	345.39224195480347	0.15857410430908203
80	225.58622097969055	response	0	2		78.0	2.5	/experiments/knapen_aot/videos/S_production_ID_4787635.mp4	0.0	345.5423119068146	
80	225.59472513198853	movie	1		167.0	78.0	2.5	/experiments/knapen_aot/videos/S_production_ID_4787635.mp4	0.0	345.55081605911255	2.5080528259277344
80	228.10277795791626	fix_post	2		12.0	78.0	2.5	/experiments/knapen_aot/videos/S_production_ID_4787635.mp4	0.0	348.0588688850403	0.10001111030578613
81	228.20278906822205	fix_pre	0		4.0	79.0	2.5	/experiments/knapen_aot/videos/S__9v_wUywaAA_35.mp4	0.0	348.15887999534607	0.03341102600097656
81	228.22811913490295	response	0	2		79.0	2.5	/experiments/knapen_aot/videos/S__9v_wUywaAA_35.mp4	0.0	348.184210062027	
81	228.23620009422302	movie	1		301.0	79.0	2.5	/experiments/knapen_aot/videos/S__9v_wUywaAA_35.mp4	0.0	348.19229102134705	2.5082409381866455
81	230.74444103240967	fix_post	2		12.0	79.0	2.5	/experiments/knapen_aot/videos/S__9v_wUywaAA_35.mp4	0.0	350.7005319595337	0.10025191307067871
82	230.84469294548035	fix_pre	0		11.0	80.0	2.5	/experiments/knapen_aot/videos/R_S_BsNCrwV7d8Q_9.mp4	0.0	350.80078387260437	0.0914011001586914
82	230.92789793014526	response	0	2		80.0	2.5	/experiments/knapen_aot/videos/R_S_BsNCrwV7d8Q_9.mp4	0.0	350.8839888572693	
82	230.93609404563904	movie	1		298.0	80.0	2.5	/experiments/knapen_aot/videos/R_S_BsNCrwV7d8Q_9.mp4	0.0	350.89218497276306	2.508312940597534
82	233.44440698623657	fix_post	2		12.0	80.0	2.5	/experiments/knapen_aot/videos/R_S_BsNCrwV7d8Q_9.mp4	0.0	353.4004979133606	0.09995198249816895
83	233.54435896873474	fix_pre	0		26.0	81.0	2.5	/experiments/knapen_aot/videos/R_S_yt-NuZy8Rjk4d0_156.mp4	0.0	353.50044989585876	0.21696209907531738
83	233.75291109085083	response	0	2		81.0	2.5	/experiments/knapen_aot/videos/R_S_yt-NuZy8Rjk4d0_156.mp4	0.0	353.70900201797485	
83	233.76132106781006	movie	1		301.0	81.0	2.5	/experiments/knapen_aot/videos/R_S_yt-NuZy8Rjk4d0_156.mp4	0.0	353.7174119949341	2.5081069469451904
83	236.26942801475525	fix_post	2		12.0	81.0	2.5	/experiments/knapen_aot/videos/R_S_yt-NuZy8Rjk4d0_156.mp4	0.0	356.2255189418793	0.10000395774841309
84	236.36943197250366	fix_pre	0		17.0	82.0	2.5	/experiments/knapen_aot/videos/R_S_yt-STL3ejY9u_Q_73.mp4	0.0	356.3255228996277	0.1418161392211914
84	236.5028841495514	response	0	2		82.0	2.5	/experiments/knapen_aot/videos/R_S_yt-STL3ejY9u_Q_73.mp4	0.0	356.4589750766754	
84	236.51124811172485	movie	1		300.0	82.0	2.5	/experiments/knapen_aot/videos/R_S_yt-STL3ejY9u_Q_73.mp4	0.0	356.4673390388489	2.508175849914551
84	239.0194239616394	fix_post	2		12.0	82.0	2.5	/experiments/knapen_aot/videos/R_S_yt-STL3ejY9u_Q_73.mp4	0.0	358.9755148887634	0.10002517700195312
85	239.11944913864136	fix_pre	0		30.0	83.0	2.5	blank	1.0	359.0755400657654	0.2500119209289551
85	239.36124897003174	response	0	2		83.0	2.5	blank	1.0	359.31733989715576	
85	239.3694610595703	movie	1		301.0	83.0	2.5	blank	1.0	359.32555198669434	2.508315086364746
85	241.87777614593506	fix_post	2		12.0	83.0	2.5	blank	1.0	361.8338670730591	0.1001119613647461
87	241.9778881072998	stim	0		177.0					361.9339790344238	1.477843999862671
87	242.06135416030884	response	0	2						362.01744508743286	
87	243.44838309288025	response	0	space						363.4044740200043	
