trial_nr	onset	event_type	phase	response	nr_frames	movie_index	movie_duration	movie_file	blank	onset_abs	duration
0	0.1271049976348877	stim	0		77.0					66.97160983085632	0.6469900608062744
0	0.7664690017700195	response	0	space						67.61097383499146	
1	0.7740950584411621	stim	0		121.0					67.6185998916626	1.0080540180206299
1	1.782149076461792	stim	1		120.0					68.62665390968323	0.9999029636383057
1	2.6988790035247803	response	1	space						69.54338383674622	
2	2.7820520401000977	fix_pre	0		128.0	0.0	2.5	/experiments/knapen_aot/videos/S_KP_A010_C002_SDR_20190717_SDR_2K_AVC.mp4	0.0	69.62655687332153	1.0669500827789307
2	3.8405661582946777	response	0	space		0.0	2.5	/experiments/knapen_aot/videos/S_KP_A010_C002_SDR_20190717_SDR_2K_AVC.mp4	0.0	70.68507099151611	
2	3.8490021228790283	movie	1		162.0	0.0	2.5	/experiments/knapen_aot/videos/S_KP_A010_C002_SDR_20190717_SDR_2K_AVC.mp4	0.0	70.69350695610046	2.508035898208618
2	6.3570380210876465	fix_post	2		11.0	0.0	2.5	/experiments/knapen_aot/videos/S_KP_A010_C002_SDR_20190717_SDR_2K_AVC.mp4	0.0	73.20154285430908	0.09619402885437012
2	6.442645072937012	response	2	2		0.0	2.5	/experiments/knapen_aot/videos/S_KP_A010_C002_SDR_20190717_SDR_2K_AVC.mp4	0.0	73.28714990615845	
3	6.453232049942017	fix_pre	0		49.0	1.0	2.5	/experiments/knapen_aot/videos/R_S_yt-aSEKRE_FNaI_62.mp4	0.0	73.29773688316345	0.403886079788208
3	6.848884105682373	response	0	2		1.0	2.5	/experiments/knapen_aot/videos/R_S_yt-aSEKRE_FNaI_62.mp4	0.0	73.69338893890381	
3	6.857118129730225	movie	1		301.0	1.0	2.5	/experiments/knapen_aot/videos/R_S_yt-aSEKRE_FNaI_62.mp4	0.0	73.70162296295166	2.508286952972412
3	9.365405082702637	fix_post	2		12.0	1.0	2.5	/experiments/knapen_aot/videos/R_S_yt-aSEKRE_FNaI_62.mp4	0.0	76.20990991592407	0.10001897811889648
4	9.465424060821533	fix_pre	0		10.0	2.0	2.5	/experiments/knapen_aot/videos/S_wc-0SAXOWjdNVGC_8.mp4	0.0	76.30992889404297	0.08331513404846191
4	9.540661096572876	response	0	2		2.0	2.5	/experiments/knapen_aot/videos/S_wc-0SAXOWjdNVGC_8.mp4	0.0	76.38516592979431	
4	9.548739194869995	movie	1		160.0	2.0	2.5	/experiments/knapen_aot/videos/S_wc-0SAXOWjdNVGC_8.mp4	0.0	76.39324402809143	2.5082759857177734
4	12.057015180587769	fix_post	2		12.0	2.0	2.5	/experiments/knapen_aot/videos/S_wc-0SAXOWjdNVGC_8.mp4	0.0	78.9015200138092	0.1001439094543457
5	12.157159090042114	fix_pre	0		3.0	3.0	2.5	/experiments/knapen_aot/videos/R_S_Pz_NXxhQCJc_70.mp4	0.0	79.00166392326355	0.025527000427246094
5	12.173869132995605	response	0	2		3.0	2.5	/experiments/knapen_aot/videos/R_S_Pz_NXxhQCJc_70.mp4	0.0	79.01837396621704	
5	12.18268609046936	movie	1		301.0	3.0	2.5	/experiments/knapen_aot/videos/R_S_Pz_NXxhQCJc_70.mp4	0.0	79.0271909236908	2.5078039169311523
5	14.690490007400513	fix_post	2		12.0	3.0	2.5	/experiments/knapen_aot/videos/R_S_Pz_NXxhQCJc_70.mp4	0.0	81.53499484062195	0.09993505477905273
5	14.766188144683838	response	2	2		3.0	2.5	/experiments/knapen_aot/videos/R_S_Pz_NXxhQCJc_70.mp4	0.0	81.61069297790527	
6	14.790425062179565	fix_pre	0		43.0	4.0	2.5	/experiments/knapen_aot/videos/S_yt-jUGt_Byqczw_599.mp4	0.0	81.634929895401	0.35831403732299805
6	15.140528202056885	response	0	2		4.0	2.5	/experiments/knapen_aot/videos/S_yt-jUGt_Byqczw_599.mp4	0.0	81.98503303527832	
6	15.148739099502563	movie	1		301.0	4.0	2.5	/experiments/knapen_aot/videos/S_yt-jUGt_Byqczw_599.mp4	0.0	81.993243932724	2.508363962173462
6	17.657103061676025	fix_post	2		12.0	4.0	2.5	/experiments/knapen_aot/videos/S_yt-jUGt_Byqczw_599.mp4	0.0	84.50160789489746	0.09999394416809082
7	17.757097005844116	fix_pre	0		1.0	5.0	2.5	/experiments/knapen_aot/videos/R_S_yt-pB9w3AA-woE_37.mp4	0.0	84.60160183906555	0.0084991455078125
7	17.758623123168945	response	0	2		5.0	2.5	/experiments/knapen_aot/videos/R_S_yt-pB9w3AA-woE_37.mp4	0.0	84.60312795639038	
7	17.76559615135193	movie	1		301.0	5.0	2.5	/experiments/knapen_aot/videos/R_S_yt-pB9w3AA-woE_37.mp4	0.0	84.61010098457336	2.50815486907959
7	20.27375102043152	fix_post	2		12.0	5.0	2.5	/experiments/knapen_aot/videos/R_S_yt-pB9w3AA-woE_37.mp4	0.0	87.11825585365295	0.09993100166320801
8	20.373682022094727	fix_pre	0		5.0	6.0	2.5	blank	1.0	87.21818685531616	0.04172205924987793
8	20.407231092453003	response	0	2		6.0	2.5	blank	1.0	87.25173592567444	
8	20.415404081344604	movie	1		301.0	6.0	2.5	blank	1.0	87.25990891456604	2.5083060264587402
8	22.923710107803345	fix_post	2		12.0	6.0	2.5	blank	1.0	89.76821494102478	0.10020995140075684
9	23.0239200592041	fix_pre	0		24.0	7.0	2.5	/experiments/knapen_aot/videos/R_S_yt-fQgLKiz2tuM_14.mp4	0.0	89.86842489242554	0.19990301132202148
9	23.215471029281616	response	0	2		7.0	2.5	/experiments/knapen_aot/videos/R_S_yt-fQgLKiz2tuM_14.mp4	0.0	90.05997586250305	
9	23.223823070526123	movie	1		301.0	7.0	2.5	/experiments/knapen_aot/videos/R_S_yt-fQgLKiz2tuM_14.mp4	0.0	90.06832790374756	2.508162021636963
9	25.731985092163086	fix_post	2		12.0	7.0	2.5	/experiments/knapen_aot/videos/R_S_yt-fQgLKiz2tuM_14.mp4	0.0	92.57648992538452	0.09994292259216309
10	25.83192801475525	fix_pre	0		11.0	8.0	2.5	/experiments/knapen_aot/videos/R_S_production_ID_4510622.mp4	0.0	92.67643284797668	0.09168219566345215
10	25.91553807258606	response	0	2		8.0	2.5	/experiments/knapen_aot/videos/R_S_production_ID_4510622.mp4	0.0	92.7600429058075	
10	25.9236102104187	movie	1		165.0	8.0	2.5	/experiments/knapen_aot/videos/R_S_production_ID_4510622.mp4	0.0	92.76811504364014	2.508511781692505
10	28.432121992111206	fix_post	2		12.0	8.0	2.5	/experiments/knapen_aot/videos/R_S_production_ID_4510622.mp4	0.0	95.27662682533264	0.09988117218017578
11	28.532003164291382	fix_pre	0		14.0	9.0	2.5	/experiments/knapen_aot/videos/S_yt-i3-YlGenYmk_411.mp4	0.0	95.37650799751282	0.11666297912597656
11	28.640538215637207	response	0	2		9.0	2.5	/experiments/knapen_aot/videos/S_yt-i3-YlGenYmk_411.mp4	0.0	95.48504304885864	
11	28.64866614341736	movie	1		301.0	9.0	2.5	/experiments/knapen_aot/videos/S_yt-i3-YlGenYmk_411.mp4	0.0	95.4931709766388	2.5084009170532227
11	31.15706706047058	fix_post	2		12.0	9.0	2.5	/experiments/knapen_aot/videos/S_yt-i3-YlGenYmk_411.mp4	0.0	98.00157189369202	0.09993100166320801
12	31.25699806213379	fix_pre	0		10.0	10.0	2.5	/experiments/knapen_aot/videos/S_video_inspire_oregon_lone-ranch-beach_00001.1080-h264.mp4	0.0	98.10150289535522	0.08336496353149414
12	31.332199096679688	response	0	2		10.0	2.5	/experiments/knapen_aot/videos/S_video_inspire_oregon_lone-ranch-beach_00001.1080-h264.mp4	0.0	98.17670392990112	
12	31.340363025665283	movie	1		164.0	10.0	2.5	/experiments/knapen_aot/videos/S_video_inspire_oregon_lone-ranch-beach_00001.1080-h264.mp4	0.0	98.18486785888672	2.5083601474761963
12	33.84872317314148	fix_post	2		12.0	10.0	2.5	/experiments/knapen_aot/videos/S_video_inspire_oregon_lone-ranch-beach_00001.1080-h264.mp4	0.0	100.69322800636292	0.09996294975280762
13	33.94868612289429	fix_pre	0		24.0	11.0	2.5	/experiments/knapen_aot/videos/S_flickr-evananderica-2662125519_8.mp4	0.0	100.79319095611572	0.1999950408935547
13	34.14046502113342	response	0	2		11.0	2.5	/experiments/knapen_aot/videos/S_flickr-evananderica-2662125519_8.mp4	0.0	100.98496985435486	
13	34.14868116378784	movie	1		301.0	11.0	2.5	/experiments/knapen_aot/videos/S_flickr-evananderica-2662125519_8.mp4	0.0	100.99318599700928	2.508301019668579
13	36.65698218345642	fix_post	2		12.0	11.0	2.5	/experiments/knapen_aot/videos/S_flickr-evananderica-2662125519_8.mp4	0.0	103.50148701667786	0.09989690780639648
14	36.75687909126282	fix_pre	0		29.0	12.0	2.5	/experiments/knapen_aot/videos/R_S_ILSVRC2015_train_00363000.mp4	0.0	103.60138392448425	0.24176406860351562
14	36.99052309989929	response	0	2		12.0	2.5	/experiments/knapen_aot/videos/R_S_ILSVRC2015_train_00363000.mp4	0.0	103.83502793312073	
14	36.99864315986633	movie	1		301.0	12.0	2.5	/experiments/knapen_aot/videos/R_S_ILSVRC2015_train_00363000.mp4	0.0	103.84314799308777	2.508302927017212
14	39.506946086883545	fix_post	2		12.0	12.0	2.5	/experiments/knapen_aot/videos/R_S_ILSVRC2015_train_00363000.mp4	0.0	106.35145092010498	0.09998893737792969
15	39.606935024261475	fix_pre	0		16.0	13.0	2.5	blank	1.0	106.45143985748291	0.1332721710205078
15	39.73212218284607	response	0	2		13.0	2.5	blank	1.0	106.5766270160675	
15	39.74020719528198	movie	1		301.0	13.0	2.5	blank	1.0	106.58471202850342	2.5084638595581055
15	42.24867105484009	fix_post	2		12.0	13.0	2.5	blank	1.0	109.09317588806152	0.09997010231018066
16	42.34864115715027	fix_pre	0		60.0	14.0	2.5	/experiments/knapen_aot/videos/S_yt-e_eOzV7qMZo_374.mp4	0.0	109.1931459903717	0.5000019073486328
16	42.84042000770569	response	0	2		14.0	2.5	/experiments/knapen_aot/videos/S_yt-e_eOzV7qMZo_374.mp4	0.0	109.68492484092712	
16	42.8486430644989	movie	1		301.0	14.0	2.5	/experiments/knapen_aot/videos/S_yt-e_eOzV7qMZo_374.mp4	0.0	109.69314789772034	2.5083420276641846
16	45.356985092163086	fix_post	2		12.0	14.0	2.5	/experiments/knapen_aot/videos/S_yt-e_eOzV7qMZo_374.mp4	0.0	112.20148992538452	0.09996891021728516
17	45.45695400238037	fix_pre	0		12.0	15.0	2.5	/experiments/knapen_aot/videos/S_yt-0d5TkclKWVA_146.mp4	0.0	112.3014588356018	0.10002398490905762
17	45.54877209663391	response	0	2		15.0	2.5	/experiments/knapen_aot/videos/S_yt-0d5TkclKWVA_146.mp4	0.0	112.39327692985535	
17	45.55697798728943	movie	1		301.0	15.0	2.5	/experiments/knapen_aot/videos/S_yt-0d5TkclKWVA_146.mp4	0.0	112.40148282051086	2.508366107940674
17	48.0653440952301	fix_post	2		12.0	15.0	2.5	/experiments/knapen_aot/videos/S_yt-0d5TkclKWVA_146.mp4	0.0	114.90984892845154	0.10000300407409668
18	48.1653470993042	fix_pre	0		20.0	16.0	2.5	/experiments/knapen_aot/videos/R_S_flickr-reginahart-31964450591_23.mp4	0.0	115.00985193252563	0.16655206680297852
18	48.323753118515015	response	0	2		16.0	2.5	/experiments/knapen_aot/videos/R_S_flickr-reginahart-31964450591_23.mp4	0.0	115.16825795173645	
18	48.33189916610718	movie	1		172.0	16.0	2.5	/experiments/knapen_aot/videos/R_S_flickr-reginahart-31964450591_23.mp4	0.0	115.17640399932861	2.5083539485931396
18	50.84025311470032	fix_post	2		12.0	16.0	2.5	/experiments/knapen_aot/videos/R_S_flickr-reginahart-31964450591_23.mp4	0.0	117.68475794792175	0.09994792938232422
18	50.898688077926636	response	2	2		16.0	2.5	/experiments/knapen_aot/videos/R_S_flickr-reginahart-31964450591_23.mp4	0.0	117.74319291114807	
19	50.94020104408264	fix_pre	0		44.0	17.0	2.5	/experiments/knapen_aot/videos/S_yt-giRwl4yChlw_9.mp4	0.0	117.78470587730408	0.3667330741882324
19	51.29870820045471	response	0	2		17.0	2.5	/experiments/knapen_aot/videos/S_yt-giRwl4yChlw_9.mp4	0.0	118.14321303367615	
19	51.306934118270874	movie	1		299.0	17.0	2.5	/experiments/knapen_aot/videos/S_yt-giRwl4yChlw_9.mp4	0.0	118.15143895149231	2.5083250999450684
19	53.81525921821594	fix_post	2		12.0	17.0	2.5	/experiments/knapen_aot/videos/S_yt-giRwl4yChlw_9.mp4	0.0	120.65976405143738	0.10003495216369629
20	53.91529417037964	fix_pre	0		11.0	18.0	2.5	/experiments/knapen_aot/videos/S_yt-XtzmBXKYEWk_60.mp4	0.0	120.75979900360107	0.09165382385253906
20	53.998692989349365	response	0	2		18.0	2.5	/experiments/knapen_aot/videos/S_yt-XtzmBXKYEWk_60.mp4	0.0	120.8431978225708	
20	54.00694799423218	movie	1		301.0	18.0	2.5	/experiments/knapen_aot/videos/S_yt-XtzmBXKYEWk_60.mp4	0.0	120.85145282745361	2.5083420276641846
20	56.3736732006073	response	1	2		18.0	2.5	/experiments/knapen_aot/videos/S_yt-XtzmBXKYEWk_60.mp4	0.0	123.21817803382874	
20	56.51529002189636	fix_post	2		12.0	18.0	2.5	/experiments/knapen_aot/videos/S_yt-XtzmBXKYEWk_60.mp4	0.0	123.3597948551178	0.09998917579650879
21	56.61527919769287	fix_pre	0		25.0	19.0	2.5	/experiments/knapen_aot/videos/R_S_yt-l_pvPAznG1A_20.mp4	0.0	123.4597840309143	0.20831990242004395
21	56.81546711921692	response	0	2		19.0	2.5	/experiments/knapen_aot/videos/R_S_yt-l_pvPAznG1A_20.mp4	0.0	123.65997195243835	
21	56.823599100112915	movie	1		301.0	19.0	2.5	/experiments/knapen_aot/videos/R_S_yt-l_pvPAznG1A_20.mp4	0.0	123.66810393333435	2.508208990097046
21	59.33180809020996	fix_post	2		12.0	19.0	2.5	/experiments/knapen_aot/videos/R_S_yt-l_pvPAznG1A_20.mp4	0.0	126.1763129234314	0.10006594657897949
22	59.43187403678894	fix_pre	0		20.0	20.0	2.5	/experiments/knapen_aot/videos/R_S_yt-fymgyhmYnMI_76.mp4	0.0	126.27637887001038	0.1666700839996338
22	59.59035515785217	response	0	2		20.0	2.5	/experiments/knapen_aot/videos/R_S_yt-fymgyhmYnMI_76.mp4	0.0	126.43485999107361	
22	59.598544120788574	movie	1		301.0	20.0	2.5	/experiments/knapen_aot/videos/R_S_yt-fymgyhmYnMI_76.mp4	0.0	126.44304895401001	2.5083930492401123
22	62.10693717002869	fix_post	2		12.0	20.0	2.5	/experiments/knapen_aot/videos/R_S_yt-fymgyhmYnMI_76.mp4	0.0	128.95144200325012	0.09996604919433594
23	62.20690321922302	fix_pre	0		37.0	21.0	2.5	blank	1.0	129.05140805244446	0.3083817958831787
23	62.507084131240845	response	0	2		21.0	2.5	blank	1.0	129.35158896446228	
23	62.5152850151062	movie	1		301.0	21.0	2.5	blank	1.0	129.35978984832764	2.508289098739624
23	65.02357411384583	fix_post	2		12.0	21.0	2.5	blank	1.0	131.86807894706726	0.1000208854675293
24	65.12359499931335	fix_pre	0		57.0	22.0	2.5	/experiments/knapen_aot/videos/S_yt-TxU1H5A6BaQ_52.mp4	0.0	131.9680998325348	0.47495603561401367
24	65.59039211273193	response	0	2		22.0	2.5	/experiments/knapen_aot/videos/S_yt-TxU1H5A6BaQ_52.mp4	0.0	132.43489694595337	
24	65.59855103492737	movie	1		301.0	22.0	2.5	/experiments/knapen_aot/videos/S_yt-TxU1H5A6BaQ_52.mp4	0.0	132.4430558681488	2.508380174636841
24	68.10693120956421	fix_post	2		12.0	22.0	2.5	/experiments/knapen_aot/videos/S_yt-TxU1H5A6BaQ_52.mp4	0.0	134.95143604278564	0.10004687309265137
25	68.20697808265686	fix_pre	0		25.0	23.0	2.5	/experiments/knapen_aot/videos/S_pexels-c-technical-6753390_2.mp4	0.0	135.0514829158783	0.20822596549987793
25	68.4070360660553	response	0	2		23.0	2.5	/experiments/knapen_aot/videos/S_pexels-c-technical-6753390_2.mp4	0.0	135.25154089927673	
25	68.41520404815674	movie	1		179.0	23.0	2.5	/experiments/knapen_aot/videos/S_pexels-c-technical-6753390_2.mp4	0.0	135.25970888137817	2.508319139480591
25	70.92352318763733	fix_post	2		12.0	23.0	2.5	/experiments/knapen_aot/videos/S_pexels-c-technical-6753390_2.mp4	0.0	137.76802802085876	0.10006284713745117
26	71.02358603477478	fix_pre	0		15.0	24.0	2.5	/experiments/knapen_aot/videos/R_S_yt-i3-YlGenYmk_411.mp4	0.0	137.86809086799622	0.12497711181640625
26	71.14036822319031	response	0	2		24.0	2.5	/experiments/knapen_aot/videos/R_S_yt-i3-YlGenYmk_411.mp4	0.0	137.98487305641174	
26	71.14856314659119	movie	1		299.0	24.0	2.5	/experiments/knapen_aot/videos/R_S_yt-i3-YlGenYmk_411.mp4	0.0	137.99306797981262	2.5082199573516846
26	73.65678310394287	fix_post	2		12.0	24.0	2.5	/experiments/knapen_aot/videos/R_S_yt-i3-YlGenYmk_411.mp4	0.0	140.5012879371643	0.09999608993530273
27	73.75677919387817	fix_pre	0		13.0	25.0	2.5	/experiments/knapen_aot/videos/R_S_yt-GI8BEHw2Lq8_3.mp4	0.0	140.6012840270996	0.10838198661804199
27	73.85691809654236	response	0	2		25.0	2.5	/experiments/knapen_aot/videos/R_S_yt-GI8BEHw2Lq8_3.mp4	0.0	140.7014229297638	
27	73.86516118049622	movie	1		301.0	25.0	2.5	/experiments/knapen_aot/videos/R_S_yt-GI8BEHw2Lq8_3.mp4	0.0	140.70966601371765	2.5083189010620117
27	76.37348008155823	fix_post	2		12.0	25.0	2.5	/experiments/knapen_aot/videos/R_S_yt-GI8BEHw2Lq8_3.mp4	0.0	143.21798491477966	0.09996414184570312
28	76.47344422340393	fix_pre	0		17.0	26.0	2.5	/experiments/knapen_aot/videos/S_KP_A010_C002_SDR_20190717_SDR_2K_AVC.mp4	0.0	143.31794905662537	0.14171886444091797
28	76.60700511932373	response	0	2		26.0	2.5	/experiments/knapen_aot/videos/S_KP_A010_C002_SDR_20190717_SDR_2K_AVC.mp4	0.0	143.45150995254517	
28	76.61516308784485	movie	1		164.0	26.0	2.5	/experiments/knapen_aot/videos/S_KP_A010_C002_SDR_20190717_SDR_2K_AVC.mp4	0.0	143.45966792106628	2.508310079574585
28	79.12347316741943	fix_post	2		12.0	26.0	2.5	/experiments/knapen_aot/videos/S_KP_A010_C002_SDR_20190717_SDR_2K_AVC.mp4	0.0	145.96797800064087	0.09999990463256836
29	79.223473072052	fix_pre	0		44.0	27.0	2.5	/experiments/knapen_aot/videos/R_S_ILSVRC2015_train_00584001.mp4	0.0	146.06797790527344	0.36661314964294434
29	79.58197116851807	response	0	2		27.0	2.5	/experiments/knapen_aot/videos/R_S_ILSVRC2015_train_00584001.mp4	0.0	146.4264760017395	
29	79.59008622169495	movie	1		301.0	27.0	2.5	/experiments/knapen_aot/videos/R_S_ILSVRC2015_train_00584001.mp4	0.0	146.43459105491638	2.508413791656494
29	82.09850001335144	fix_post	2		12.0	27.0	2.5	/experiments/knapen_aot/videos/R_S_ILSVRC2015_train_00584001.mp4	0.0	148.94300484657288	0.09997320175170898
30	82.19847321510315	fix_pre	0		43.0	28.0	2.5	blank	1.0	149.04297804832458	0.35825490951538086
30	82.54859709739685	response	0	2		28.0	2.5	blank	1.0	149.3931019306183	
30	82.55672812461853	movie	1		301.0	28.0	2.5	blank	1.0	149.40123295783997	2.5084030628204346
30	85.06513118743896	fix_post	2		12.0	28.0	2.5	blank	1.0	151.9096360206604	0.09995198249816895
31	85.16508316993713	fix_pre	0		52.0	29.0	2.5	/experiments/knapen_aot/videos/R_S_yt-v9WGfC67DPk_50.mp4	0.0	152.00958800315857	0.43328094482421875
31	85.59021520614624	response	0	2		29.0	2.5	/experiments/knapen_aot/videos/R_S_yt-v9WGfC67DPk_50.mp4	0.0	152.43472003936768	
31	85.59836411476135	movie	1		299.0	29.0	2.5	/experiments/knapen_aot/videos/R_S_yt-v9WGfC67DPk_50.mp4	0.0	152.4428689479828	2.508423089981079
31	88.10678720474243	fix_post	2		12.0	29.0	2.5	/experiments/knapen_aot/videos/R_S_yt-v9WGfC67DPk_50.mp4	0.0	154.95129203796387	0.09999394416809082
32	88.20678114891052	fix_pre	0		10.0	30.0	2.5	/experiments/knapen_aot/videos/R_S_yt-HRuCkU_kBoE_239.mp4	0.0	155.05128598213196	0.08332204818725586
32	88.2819471359253	response	0	2		30.0	2.5	/experiments/knapen_aot/videos/R_S_yt-HRuCkU_kBoE_239.mp4	0.0	155.12645196914673	
32	88.29010319709778	movie	1		301.0	30.0	2.5	/experiments/knapen_aot/videos/R_S_yt-HRuCkU_kBoE_239.mp4	0.0	155.1346080303192	2.5083630084991455
32	90.79846620559692	fix_post	2		12.0	30.0	2.5	/experiments/knapen_aot/videos/R_S_yt-HRuCkU_kBoE_239.mp4	0.0	157.64297103881836	0.0999917984008789
33	90.8984580039978	fix_pre	0		37.0	31.0	2.5	/experiments/knapen_aot/videos/R_S_yt-kXarkCFJLeg_46.mp4	0.0	157.74296283721924	0.30822205543518066
33	91.19862914085388	response	0	2		31.0	2.5	/experiments/knapen_aot/videos/R_S_yt-kXarkCFJLeg_46.mp4	0.0	158.04313397407532	
33	91.20668005943298	movie	1		301.0	31.0	2.5	/experiments/knapen_aot/videos/R_S_yt-kXarkCFJLeg_46.mp4	0.0	158.05118489265442	2.5083911418914795
33	93.71507120132446	fix_post	2		12.0	31.0	2.5	/experiments/knapen_aot/videos/R_S_yt-kXarkCFJLeg_46.mp4	0.0	160.5595760345459	0.10003495216369629
34	93.81510615348816	fix_pre	0		36.0	32.0	2.5	/experiments/knapen_aot/videos/S_yt-w_e3sxIzepA_115.mp4	0.0	160.6596109867096	0.2999758720397949
34	94.10683703422546	response	0	2		32.0	2.5	/experiments/knapen_aot/videos/S_yt-w_e3sxIzepA_115.mp4	0.0	160.9513418674469	
34	94.11508202552795	movie	1		300.0	32.0	2.5	/experiments/knapen_aot/videos/S_yt-w_e3sxIzepA_115.mp4	0.0	160.9595868587494	2.5083200931549072
34	96.62340211868286	fix_post	2		12.0	32.0	2.5	/experiments/knapen_aot/videos/S_yt-w_e3sxIzepA_115.mp4	0.0	163.4679069519043	0.10001897811889648
35	96.72342109680176	fix_pre	0		30.0	33.0	2.5	blank	1.0	163.5679259300232	0.25002598762512207
35	96.96519708633423	response	0	2		33.0	2.5	blank	1.0	163.80970191955566	
35	96.97344708442688	movie	1		301.0	33.0	2.5	blank	1.0	163.81795191764832	2.5083091259002686
35	99.48175621032715	fix_post	2		12.0	33.0	2.5	blank	1.0	166.32626104354858	0.09996700286865234
36	99.5817232131958	fix_pre	0		30.0	34.0	2.5	/experiments/knapen_aot/videos/R_S_ILSVRC2015_train_00379000.mp4	0.0	166.42622804641724	0.2500038146972656
36	99.8235092163086	response	0	2		34.0	2.5	/experiments/knapen_aot/videos/R_S_ILSVRC2015_train_00379000.mp4	0.0	166.66801404953003	
36	99.83172702789307	movie	1		301.0	34.0	2.5	/experiments/knapen_aot/videos/R_S_ILSVRC2015_train_00379000.mp4	0.0	166.6762318611145	2.5083019733428955
36	102.34002900123596	fix_post	2		12.0	34.0	2.5	/experiments/knapen_aot/videos/R_S_ILSVRC2015_train_00379000.mp4	0.0	169.1845338344574	0.100006103515625
37	102.44003510475159	fix_pre	0		17.0	35.0	2.5	/experiments/knapen_aot/videos/S_ILSVRC2015_train_00704000.mp4	0.0	169.28453993797302	0.14165210723876953
37	102.57348203659058	response	0	2		35.0	2.5	/experiments/knapen_aot/videos/S_ILSVRC2015_train_00704000.mp4	0.0	169.417986869812	
37	102.58168721199036	movie	1		301.0	35.0	2.5	/experiments/knapen_aot/videos/S_ILSVRC2015_train_00704000.mp4	0.0	169.4261920452118	2.508366823196411
37	105.09005403518677	fix_post	2		12.0	35.0	2.5	/experiments/knapen_aot/videos/S_ILSVRC2015_train_00704000.mp4	0.0	171.9345588684082	0.10002517700195312
38	105.19007921218872	fix_pre	0		14.0	36.0	2.5	/experiments/knapen_aot/videos/R_S_yt-SS7pSyb0_d0_32.mp4	0.0	172.03458404541016	0.11664700508117676
38	105.29850101470947	response	0	2		36.0	2.5	/experiments/knapen_aot/videos/R_S_yt-SS7pSyb0_d0_32.mp4	0.0	172.1430058479309	
38	105.3067262172699	movie	1		300.0	36.0	2.5	/experiments/knapen_aot/videos/R_S_yt-SS7pSyb0_d0_32.mp4	0.0	172.15123105049133	2.5083248615264893
38	107.81505107879639	fix_post	2		12.0	36.0	2.5	/experiments/knapen_aot/videos/R_S_yt-SS7pSyb0_d0_32.mp4	0.0	174.65955591201782	0.09999203681945801
39	107.91504311561584	fix_pre	0		28.0	37.0	2.5	/experiments/knapen_aot/videos/S_yt-T1mMDOVjvrE_83.mp4	0.0	174.75954794883728	0.23333287239074707
39	108.14017415046692	response	0	2		37.0	2.5	/experiments/knapen_aot/videos/S_yt-T1mMDOVjvrE_83.mp4	0.0	174.98467898368835	
39	108.14837598800659	movie	1		301.0	37.0	2.5	/experiments/knapen_aot/videos/S_yt-T1mMDOVjvrE_83.mp4	0.0	174.99288082122803	2.508289098739624
39	110.65666508674622	fix_post	2		12.0	37.0	2.5	/experiments/knapen_aot/videos/S_yt-T1mMDOVjvrE_83.mp4	0.0	177.50116991996765	0.09993100166320801
40	110.75659608840942	fix_pre	0		11.0	38.0	2.5	/experiments/knapen_aot/videos/R_S_Pexels_Videos_2795731.mp4	0.0	177.60110092163086	0.09174990653991699
40	110.8403491973877	response	0	2		38.0	2.5	/experiments/knapen_aot/videos/R_S_Pexels_Videos_2795731.mp4	0.0	177.68485403060913	
40	110.84834599494934	movie	1		162.0	38.0	2.5	/experiments/knapen_aot/videos/R_S_Pexels_Videos_2795731.mp4	0.0	177.69285082817078	2.508345127105713
40	113.35669112205505	fix_post	2		12.0	38.0	2.5	/experiments/knapen_aot/videos/R_S_Pexels_Videos_2795731.mp4	0.0	180.2011959552765	0.09997391700744629
41	113.4566650390625	fix_pre	0		7.0	39.0	2.5	/experiments/knapen_aot/videos/R_S_yt-22c5eZ1UNME_76.mp4	0.0	180.30116987228394	0.05829811096191406
41	113.50677919387817	response	0	2		39.0	2.5	/experiments/knapen_aot/videos/R_S_yt-22c5eZ1UNME_76.mp4	0.0	180.3512840270996	
41	113.51496315002441	movie	1		301.0	39.0	2.5	/experiments/knapen_aot/videos/R_S_yt-22c5eZ1UNME_76.mp4	0.0	180.35946798324585	2.5083730220794678
41	116.02333617210388	fix_post	2		12.0	39.0	2.5	/experiments/knapen_aot/videos/R_S_yt-22c5eZ1UNME_76.mp4	0.0	182.86784100532532	0.09997797012329102
42	116.12331414222717	fix_pre	0		14.0	40.0	2.5	/experiments/knapen_aot/videos/S_yt-NLfzvAJgyJ4_120.mp4	0.0	182.9678189754486	0.11664485931396484
42	116.23184013366699	response	0	2		40.0	2.5	/experiments/knapen_aot/videos/S_yt-NLfzvAJgyJ4_120.mp4	0.0	183.07634496688843	
42	116.23995900154114	movie	1		301.0	40.0	2.5	/experiments/knapen_aot/videos/S_yt-NLfzvAJgyJ4_120.mp4	0.0	183.08446383476257	2.508345127105713
42	118.74830412864685	fix_post	2		12.0	40.0	2.5	/experiments/knapen_aot/videos/S_yt-NLfzvAJgyJ4_120.mp4	0.0	185.5928089618683	0.10005307197570801
43	118.84835720062256	fix_pre	0		26.0	41.0	2.5	blank	1.0	185.692862033844	0.21659493446350098
43	119.05673122406006	response	0	2		41.0	2.5	blank	1.0	185.9012360572815	
43	119.06495213508606	movie	1		301.0	41.0	2.5	blank	1.0	185.9094569683075	2.50838303565979
43	121.57333517074585	fix_post	2		12.0	41.0	2.5	blank	1.0	188.41784000396729	0.09995794296264648
44	121.6732931137085	fix_pre	0		68.0	42.0	2.5	/experiments/knapen_aot/videos/S_yt-2V2tq9-O_Nc_1669.mp4	0.0	188.51779794692993	0.5666370391845703
44	122.2318332195282	response	0	2		42.0	2.5	/experiments/knapen_aot/videos/S_yt-2V2tq9-O_Nc_1669.mp4	0.0	189.07633805274963	
44	122.23993015289307	movie	1		301.0	42.0	2.5	/experiments/knapen_aot/videos/S_yt-2V2tq9-O_Nc_1669.mp4	0.0	189.0844349861145	2.508323907852173
44	124.74825406074524	fix_post	2		12.0	42.0	2.5	/experiments/knapen_aot/videos/S_yt-2V2tq9-O_Nc_1669.mp4	0.0	191.59275889396667	0.10006594657897949
45	124.84832000732422	fix_pre	0		15.0	43.0	2.5	/experiments/knapen_aot/videos/R_S_comp_LA_A011_C003_DGRN_LNFIX_STAB_v57_SDR_PS_20181002_SDR_2K_AVC.mp4	0.0	191.69282484054565	0.12498998641967773
45	124.96500706672668	response	0	2		43.0	2.5	/experiments/knapen_aot/videos/R_S_comp_LA_A011_C003_DGRN_LNFIX_STAB_v57_SDR_PS_20181002_SDR_2K_AVC.mp4	0.0	191.80951189994812	
45	124.9733099937439	movie	1		168.0	43.0	2.5	/experiments/knapen_aot/videos/R_S_comp_LA_A011_C003_DGRN_LNFIX_STAB_v57_SDR_PS_20181002_SDR_2K_AVC.mp4	0.0	191.81781482696533	2.508213996887207
45	127.4815239906311	fix_post	2		12.0	43.0	2.5	/experiments/knapen_aot/videos/R_S_comp_LA_A011_C003_DGRN_LNFIX_STAB_v57_SDR_PS_20181002_SDR_2K_AVC.mp4	0.0	194.32602882385254	0.10009002685546875
46	127.58161401748657	fix_pre	0		12.0	44.0	2.5	/experiments/knapen_aot/videos/R_S_yt-2i53vKte7SA_117.mp4	0.0	194.426118850708	0.10002803802490234
46	127.67342901229858	response	0	2		44.0	2.5	/experiments/knapen_aot/videos/R_S_yt-2i53vKte7SA_117.mp4	0.0	194.51793384552002	
46	127.68164205551147	movie	1		301.0	44.0	2.5	/experiments/knapen_aot/videos/R_S_yt-2i53vKte7SA_117.mp4	0.0	194.5261468887329	2.508296012878418
46	130.1899380683899	fix_post	2		12.0	44.0	2.5	/experiments/knapen_aot/videos/R_S_yt-2i53vKte7SA_117.mp4	0.0	197.03444290161133	0.10001397132873535
47	130.28995203971863	fix_pre	0		39.0	45.0	2.5	/experiments/knapen_aot/videos/S_S003_C020_SDR_2K_AVC.mp4	0.0	197.13445687294006	0.32488298416137695
47	130.60673022270203	response	0	2		45.0	2.5	/experiments/knapen_aot/videos/S_S003_C020_SDR_2K_AVC.mp4	0.0	197.45123505592346	
47	130.61483502388	movie	1		171.0	45.0	2.5	/experiments/knapen_aot/videos/S_S003_C020_SDR_2K_AVC.mp4	0.0	197.45933985710144	2.508423089981079
47	133.12325811386108	fix_post	2		12.0	45.0	2.5	/experiments/knapen_aot/videos/S_S003_C020_SDR_2K_AVC.mp4	0.0	199.96776294708252	0.10001993179321289
48	133.2232780456543	fix_pre	0		6.0	46.0	2.5	/experiments/knapen_aot/videos/R_S_yt-KpOAdMtPGFs_17.mp4	0.0	200.06778287887573	0.04999113082885742
48	133.26499915122986	response	0	2		46.0	2.5	/experiments/knapen_aot/videos/R_S_yt-KpOAdMtPGFs_17.mp4	0.0	200.1095039844513	
48	133.27326917648315	movie	1		301.0	46.0	2.5	/experiments/knapen_aot/videos/R_S_yt-KpOAdMtPGFs_17.mp4	0.0	200.1177740097046	2.5083348751068115
48	135.78160405158997	fix_post	2		12.0	46.0	2.5	/experiments/knapen_aot/videos/R_S_yt-KpOAdMtPGFs_17.mp4	0.0	202.6261088848114	0.09997916221618652
49	135.88158321380615	fix_pre	0		14.0	47.0	2.5	blank	1.0	202.7260880470276	0.11665797233581543
49	135.9900040626526	response	0	2		47.0	2.5	blank	1.0	202.83450889587402	
49	135.99824118614197	movie	1		301.0	47.0	2.5	blank	1.0	202.8427460193634	2.5083389282226562
49	138.50658011436462	fix_post	2		12.0	47.0	2.5	blank	1.0	205.35108494758606	0.09997296333312988
50	138.60655307769775	fix_pre	0		30.0	48.0	2.5	/experiments/knapen_aot/videos/S_yt-2l6VKd94eAI_151.mp4	0.0	205.4510579109192	0.25002312660217285
50	138.84836101531982	response	0	2		48.0	2.5	/experiments/knapen_aot/videos/S_yt-2l6VKd94eAI_151.mp4	0.0	205.69286584854126	
50	138.85657620429993	movie	1		301.0	48.0	2.5	/experiments/knapen_aot/videos/S_yt-2l6VKd94eAI_151.mp4	0.0	205.70108103752136	2.508286952972412
50	141.36486315727234	fix_post	2		12.0	48.0	2.5	/experiments/knapen_aot/videos/S_yt-2l6VKd94eAI_151.mp4	0.0	208.20936799049377	0.09994792938232422
51	141.46481108665466	fix_pre	0		35.0	49.0	2.5	/experiments/knapen_aot/videos/R_S_yt-giRwl4yChlw_9.mp4	0.0	208.3093159198761	0.2926011085510254
51	141.74842619895935	response	0	2		49.0	2.5	/experiments/knapen_aot/videos/R_S_yt-giRwl4yChlw_9.mp4	0.0	208.5929310321808	
51	141.7574121952057	movie	1		301.0	49.0	2.5	/experiments/knapen_aot/videos/R_S_yt-giRwl4yChlw_9.mp4	0.0	208.60191702842712	2.507368803024292
51	144.26478099822998	fix_post	2		12.0	49.0	2.5	/experiments/knapen_aot/videos/R_S_yt-giRwl4yChlw_9.mp4	0.0	211.10928583145142	0.10004520416259766
51	144.28999519348145	response	2	2		49.0	2.5	/experiments/knapen_aot/videos/R_S_yt-giRwl4yChlw_9.mp4	0.0	211.13450002670288	
52	144.36482620239258	fix_pre	0		31.0	50.0	2.5	/experiments/knapen_aot/videos/S_yt-CNq5mTA8oXY_176.mp4	0.0	211.209331035614	0.2583928108215332
52	144.61495518684387	response	0	2		50.0	2.5	/experiments/knapen_aot/videos/S_yt-CNq5mTA8oXY_176.mp4	0.0	211.4594600200653	
52	144.6232190132141	movie	1		301.0	50.0	2.5	/experiments/knapen_aot/videos/S_yt-CNq5mTA8oXY_176.mp4	0.0	211.46772384643555	2.5083529949188232
52	147.13157200813293	fix_post	2		12.0	50.0	2.5	/experiments/knapen_aot/videos/S_yt-CNq5mTA8oXY_176.mp4	0.0	213.97607684135437	0.09996604919433594
53	147.23153805732727	fix_pre	0		7.0	51.0	2.5	/experiments/knapen_aot/videos/S_yt-Fm97IY0Z2LU_79.mp4	0.0	214.0760428905487	0.05826902389526367
53	147.2816641330719	response	0	2		51.0	2.5	/experiments/knapen_aot/videos/S_yt-Fm97IY0Z2LU_79.mp4	0.0	214.12616896629333	
53	147.28980708122253	movie	1		301.0	51.0	2.5	/experiments/knapen_aot/videos/S_yt-Fm97IY0Z2LU_79.mp4	0.0	214.13431191444397	2.5083539485931396
53	149.79816102981567	fix_post	2		12.0	51.0	2.5	/experiments/knapen_aot/videos/S_yt-Fm97IY0Z2LU_79.mp4	0.0	216.6426658630371	0.10003805160522461
54	149.8981990814209	fix_pre	0		19.0	52.0	2.5	/experiments/knapen_aot/videos/R_S_yt-LGwEki4ghNw_69.mp4	0.0	216.74270391464233	0.1583099365234375
54	150.04833316802979	response	0	2		52.0	2.5	/experiments/knapen_aot/videos/R_S_yt-LGwEki4ghNw_69.mp4	0.0	216.89283800125122	
54	150.05650901794434	movie	1		301.0	52.0	2.5	/experiments/knapen_aot/videos/R_S_yt-LGwEki4ghNw_69.mp4	0.0	216.90101385116577	2.508249044418335
54	152.56475806236267	fix_post	2		12.0	52.0	2.5	/experiments/knapen_aot/videos/R_S_yt-LGwEki4ghNw_69.mp4	0.0	219.4092628955841	0.10007715225219727
55	152.66483521461487	fix_pre	0		26.0	53.0	2.5	/experiments/knapen_aot/videos/S_yt-lkpfs_4qAGE_50.mp4	0.0	219.5093400478363	0.21751093864440918
55	152.8732771873474	response	0	2		53.0	2.5	/experiments/knapen_aot/videos/S_yt-lkpfs_4qAGE_50.mp4	0.0	219.71778202056885	
55	152.88234615325928	movie	1		301.0	53.0	2.5	/experiments/knapen_aot/videos/S_yt-lkpfs_4qAGE_50.mp4	0.0	219.7268509864807	2.507474899291992
55	155.38982105255127	fix_post	2		12.0	53.0	2.5	/experiments/knapen_aot/videos/S_yt-lkpfs_4qAGE_50.mp4	0.0	222.2343258857727	0.09995794296264648
56	155.48977899551392	fix_pre	0		18.0	54.0	2.5	/experiments/knapen_aot/videos/S_yt-Dlk44AGz-xM_37.mp4	0.0	222.33428382873535	0.15002107620239258
56	155.63161706924438	response	0	2		54.0	2.5	/experiments/knapen_aot/videos/S_yt-Dlk44AGz-xM_37.mp4	0.0	222.47612190246582	
56	155.6398000717163	movie	1		301.0	54.0	2.5	/experiments/knapen_aot/videos/S_yt-Dlk44AGz-xM_37.mp4	0.0	222.48430490493774	2.5083839893341064
56	158.14818406105042	fix_post	2		12.0	54.0	2.5	/experiments/knapen_aot/videos/S_yt-Dlk44AGz-xM_37.mp4	0.0	224.99268889427185	0.09993910789489746
57	158.2481231689453	fix_pre	0		1.0	55.0	2.5	/experiments/knapen_aot/videos/R_S_flickr-evananderica-2662125519_8.mp4	0.0	225.09262800216675	0.009235858917236328
57	158.24980401992798	response	0	2		55.0	2.5	/experiments/knapen_aot/videos/R_S_flickr-evananderica-2662125519_8.mp4	0.0	225.0943088531494	
57	158.25735902786255	movie	1		301.0	55.0	2.5	/experiments/knapen_aot/videos/R_S_flickr-evananderica-2662125519_8.mp4	0.0	225.10186386108398	2.507460117340088
57	160.76481914520264	fix_post	2		12.0	55.0	2.5	/experiments/knapen_aot/videos/R_S_flickr-evananderica-2662125519_8.mp4	0.0	227.60932397842407	0.10004901885986328
58	160.8648681640625	fix_pre	0		3.0	56.0	2.5	blank	1.0	227.70937299728394	0.024909019470214844
58	160.8816430568695	response	0	2		56.0	2.5	blank	1.0	227.72614789009094	
58	160.88977718353271	movie	1		301.0	56.0	2.5	blank	1.0	227.73428201675415	2.50836181640625
58	163.39813899993896	fix_post	2		12.0	56.0	2.5	blank	1.0	230.2426438331604	0.10001301765441895
59	163.49815201759338	fix_pre	0		31.0	57.0	2.5	/experiments/knapen_aot/videos/S_ILSVRC2015_train_00587000.mp4	0.0	230.34265685081482	0.25911808013916016
59	163.7482521533966	response	0	2		57.0	2.5	/experiments/knapen_aot/videos/S_ILSVRC2015_train_00587000.mp4	0.0	230.59275698661804	
59	163.75727009773254	movie	1		299.0	57.0	2.5	/experiments/knapen_aot/videos/S_ILSVRC2015_train_00587000.mp4	0.0	230.60177493095398	2.5075409412384033
59	166.26481103897095	fix_post	2		12.0	57.0	2.5	/experiments/knapen_aot/videos/S_ILSVRC2015_train_00587000.mp4	0.0	233.10931587219238	0.09998703002929688
60	166.36479806900024	fix_pre	0		4.0	58.0	2.5	/experiments/knapen_aot/videos/R_S_pexels-c-technical-6753390_2.mp4	0.0	233.20930290222168	0.03332400321960449
60	166.38987708091736	response	0	2		58.0	2.5	/experiments/knapen_aot/videos/R_S_pexels-c-technical-6753390_2.mp4	0.0	233.2343819141388	
60	166.39812207221985	movie	1		203.0	58.0	2.5	/experiments/knapen_aot/videos/R_S_pexels-c-technical-6753390_2.mp4	0.0	233.24262690544128	2.5083580017089844
60	168.90648007392883	fix_post	2		12.0	58.0	2.5	/experiments/knapen_aot/videos/R_S_pexels-c-technical-6753390_2.mp4	0.0	235.75098490715027	0.09989809989929199
61	169.00637817382812	fix_pre	0		12.0	59.0	2.5	/experiments/knapen_aot/videos/S_ILSVRC2015_train_00404003.mp4	0.0	235.85088300704956	0.10004401206970215
61	169.09817910194397	response	0	2		59.0	2.5	/experiments/knapen_aot/videos/S_ILSVRC2015_train_00404003.mp4	0.0	235.9426839351654	
61	169.10642218589783	movie	1		301.0	59.0	2.5	/experiments/knapen_aot/videos/S_ILSVRC2015_train_00404003.mp4	0.0	235.95092701911926	2.50836181640625
61	171.61478400230408	fix_post	2		12.0	59.0	2.5	/experiments/knapen_aot/videos/S_ILSVRC2015_train_00404003.mp4	0.0	238.4592888355255	0.10001015663146973
62	171.71479415893555	fix_pre	0		2.0	60.0	2.5	/experiments/knapen_aot/videos/S_ILSVRC2015_train_00704000.mp4	0.0	238.55929899215698	0.01665186882019043
62	171.7232370376587	response	0	2		60.0	2.5	/experiments/knapen_aot/videos/S_ILSVRC2015_train_00704000.mp4	0.0	238.56774187088013	
62	171.73144602775574	movie	1		301.0	60.0	2.5	/experiments/knapen_aot/videos/S_ILSVRC2015_train_00704000.mp4	0.0	238.57595086097717	2.508571147918701
62	174.24001717567444	fix_post	2		12.0	60.0	2.5	/experiments/knapen_aot/videos/S_ILSVRC2015_train_00704000.mp4	0.0	241.08452200889587	0.09978485107421875
63	174.33980202674866	fix_pre	0		33.0	61.0	2.5	/experiments/knapen_aot/videos/R_S_pexels-koolshooters-7327401.mp4	0.0	241.1843068599701	0.274960994720459
63	174.6066381931305	response	0	2		61.0	2.5	/experiments/knapen_aot/videos/R_S_pexels-koolshooters-7327401.mp4	0.0	241.45114302635193	
63	174.61476302146912	movie	1		165.0	61.0	2.5	/experiments/knapen_aot/videos/R_S_pexels-koolshooters-7327401.mp4	0.0	241.45926785469055	2.50835919380188
63	177.123122215271	fix_post	2		12.0	61.0	2.5	/experiments/knapen_aot/videos/R_S_pexels-koolshooters-7327401.mp4	0.0	243.96762704849243	0.09991884231567383
64	177.22304105758667	fix_pre	0		7.0	62.0	2.5	/experiments/knapen_aot/videos/S_bing-www_break_com_video_like-a-cat-catching-a-fly-3131008_12.mp4	0.0	244.0675458908081	0.05840015411376953
64	177.26608419418335	response	0	2		62.0	2.5	/experiments/knapen_aot/videos/S_bing-www_break_com_video_like-a-cat-catching-a-fly-3131008_12.mp4	0.0	244.11058902740479	
64	177.28144121170044	movie	1		301.0	62.0	2.5	/experiments/knapen_aot/videos/S_bing-www_break_com_video_like-a-cat-catching-a-fly-3131008_12.mp4	0.0	244.12594604492188	2.508330821990967
64	179.7897720336914	fix_post	2		12.0	62.0	2.5	/experiments/knapen_aot/videos/S_bing-www_break_com_video_like-a-cat-catching-a-fly-3131008_12.mp4	0.0	246.63427686691284	0.099945068359375
65	179.88971710205078	fix_pre	0		16.0	63.0	2.5	blank	1.0	246.73422193527222	0.13339996337890625
65	180.01488614082336	response	0	2		63.0	2.5	blank	1.0	246.8593909740448	
65	180.0231170654297	movie	1		301.0	63.0	2.5	blank	1.0	246.86762189865112	2.508319139480591
65	182.53143620491028	fix_post	2		12.0	63.0	2.5	blank	1.0	249.3759410381317	0.10000896453857422
66	182.63144516944885	fix_pre	0		45.0	64.0	2.5	/experiments/knapen_aot/videos/S_yt-K_gHa2x2OQA_319.mp4	0.0	249.4759500026703	0.375654935836792
66	182.99819207191467	response	0	2		64.0	2.5	/experiments/knapen_aot/videos/S_yt-K_gHa2x2OQA_319.mp4	0.0	249.8426969051361	
66	183.00710010528564	movie	1		301.0	64.0	2.5	/experiments/knapen_aot/videos/S_yt-K_gHa2x2OQA_319.mp4	0.0	249.85160493850708	2.507607936859131
66	185.51470804214478	fix_post	2		12.0	64.0	2.5	/experiments/knapen_aot/videos/S_yt-K_gHa2x2OQA_319.mp4	0.0	252.3592128753662	0.10000300407409668
67	185.61471104621887	fix_pre	0		5.0	65.0	2.5	/experiments/knapen_aot/videos/R_S_Pexels_Videos_2795731_1.mp4	0.0	252.4592158794403	0.04169297218322754
67	185.64823412895203	response	0	2		65.0	2.5	/experiments/knapen_aot/videos/R_S_Pexels_Videos_2795731_1.mp4	0.0	252.49273896217346	
67	185.6564040184021	movie	1		164.0	65.0	2.5	/experiments/knapen_aot/videos/R_S_Pexels_Videos_2795731_1.mp4	0.0	252.50090885162354	2.508373975753784
67	188.16477799415588	fix_post	2		12.0	65.0	2.5	/experiments/knapen_aot/videos/R_S_Pexels_Videos_2795731_1.mp4	0.0	255.00928282737732	0.09992504119873047
68	188.26470303535461	fix_pre	0		32.0	66.0	2.5	/experiments/knapen_aot/videos/S_ILSVRC2015_train_00559000.mp4	0.0	255.10920786857605	0.26664113998413086
68	188.52318120002747	response	0	2		66.0	2.5	/experiments/knapen_aot/videos/S_ILSVRC2015_train_00559000.mp4	0.0	255.3676860332489	
68	188.53134417533875	movie	1		301.0	66.0	2.5	/experiments/knapen_aot/videos/S_ILSVRC2015_train_00559000.mp4	0.0	255.37584900856018	2.5083539485931396
68	191.03969812393188	fix_post	2		12.0	66.0	2.5	/experiments/knapen_aot/videos/S_ILSVRC2015_train_00559000.mp4	0.0	257.8842029571533	0.09998798370361328
69	191.1396861076355	fix_pre	0		29.0	67.0	2.5	/experiments/knapen_aot/videos/R_S_yt-kkbtZP78JxQ_96.mp4	0.0	257.98419094085693	0.24234604835510254
69	191.3731451034546	response	0	2		67.0	2.5	/experiments/knapen_aot/videos/R_S_yt-kkbtZP78JxQ_96.mp4	0.0	258.217649936676	
69	191.3820321559906	movie	1		301.0	67.0	2.5	/experiments/knapen_aot/videos/R_S_yt-kkbtZP78JxQ_96.mp4	0.0	258.22653698921204	2.507650852203369
69	193.88968300819397	fix_post	2		12.0	67.0	2.5	/experiments/knapen_aot/videos/R_S_yt-kkbtZP78JxQ_96.mp4	0.0	260.7341878414154	0.10001206398010254
70	193.98969507217407	fix_pre	0		6.0	68.0	2.5	/experiments/knapen_aot/videos/S_ILSVRC2015_train_00067005.mp4	0.0	260.8341999053955	0.050004005432128906
70	194.03145098686218	response	0	2		68.0	2.5	/experiments/knapen_aot/videos/S_ILSVRC2015_train_00067005.mp4	0.0	260.8759558200836	
70	194.0396990776062	movie	1		301.0	68.0	2.5	/experiments/knapen_aot/videos/S_ILSVRC2015_train_00067005.mp4	0.0	260.88420391082764	2.5083401203155518
70	196.54803919792175	fix_post	2		12.0	68.0	2.5	/experiments/knapen_aot/videos/S_ILSVRC2015_train_00067005.mp4	0.0	263.3925440311432	0.10000181198120117
71	196.64804100990295	fix_pre	0		13.0	69.0	2.5	blank	1.0	263.4925458431244	0.10895013809204102
71	196.74819016456604	response	0	2		69.0	2.5	blank	1.0	263.5926949977875	
71	196.756991147995	movie	1		301.0	69.0	2.5	blank	1.0	263.60149598121643	2.5076839923858643
71	199.26467514038086	fix_post	2		12.0	69.0	2.5	blank	1.0	266.1091799736023	0.1000058650970459
72	199.3646810054779	fix_pre	0		30.0	70.0	2.5	/experiments/knapen_aot/videos/S_ILSVRC2015_train_00379000.mp4	0.0	266.20918583869934	0.2499840259552002
72	199.60639810562134	response	0	2		70.0	2.5	/experiments/knapen_aot/videos/S_ILSVRC2015_train_00379000.mp4	0.0	266.4509029388428	
72	199.6146650314331	movie	1		301.0	70.0	2.5	/experiments/knapen_aot/videos/S_ILSVRC2015_train_00379000.mp4	0.0	266.45916986465454	2.508341073989868
72	202.12300610542297	fix_post	2		12.0	70.0	2.5	/experiments/knapen_aot/videos/S_ILSVRC2015_train_00379000.mp4	0.0	268.9675109386444	0.10000491142272949
73	202.2230110168457	fix_pre	0		3.0	71.0	2.5	/experiments/knapen_aot/videos/S_yt-zydTlQGCUjQ_277.mp4	0.0	269.06751585006714	0.02495408058166504
73	202.23980522155762	response	0	2		71.0	2.5	/experiments/knapen_aot/videos/S_yt-zydTlQGCUjQ_277.mp4	0.0	269.08431005477905	
73	202.24796509742737	movie	1		301.0	71.0	2.5	/experiments/knapen_aot/videos/S_yt-zydTlQGCUjQ_277.mp4	0.0	269.0924699306488	2.508357048034668
73	204.75632214546204	fix_post	2		12.0	71.0	2.5	/experiments/knapen_aot/videos/S_yt-zydTlQGCUjQ_277.mp4	0.0	271.6008269786835	0.09999203681945801
74	204.8563141822815	fix_pre	0		19.0	72.0	2.5	/experiments/knapen_aot/videos/R_S_yt-XtzmBXKYEWk_60.mp4	0.0	271.70081901550293	0.15831589698791504
74	204.99888801574707	response	0	2		72.0	2.5	/experiments/knapen_aot/videos/R_S_yt-XtzmBXKYEWk_60.mp4	0.0	271.8433928489685	
74	205.0146300792694	movie	1		301.0	72.0	2.5	/experiments/knapen_aot/videos/R_S_yt-XtzmBXKYEWk_60.mp4	0.0	271.85913491249084	2.508302927017212
74	207.52293300628662	fix_post	2		12.0	72.0	2.5	/experiments/knapen_aot/videos/R_S_yt-XtzmBXKYEWk_60.mp4	0.0	274.36743783950806	0.09999513626098633
75	207.6229281425476	fix_pre	0		41.0	73.0	2.5	/experiments/knapen_aot/videos/R_S_ILSVRC2015_train_00165009.mp4	0.0	274.46743297576904	0.34221601486206055
75	207.95641016960144	response	0	2		73.0	2.5	/experiments/knapen_aot/videos/R_S_ILSVRC2015_train_00165009.mp4	0.0	274.8009150028229	
75	207.96514415740967	movie	1		301.0	73.0	2.5	/experiments/knapen_aot/videos/R_S_ILSVRC2015_train_00165009.mp4	0.0	274.8096489906311	2.5078039169311523
75	210.47294807434082	fix_post	2		12.0	73.0	2.5	/experiments/knapen_aot/videos/R_S_ILSVRC2015_train_00165009.mp4	0.0	277.31745290756226	0.09990096092224121
76	210.57284903526306	fix_pre	0		5.0	74.0	2.5	/experiments/knapen_aot/videos/R_S_yt-wrfAMDCg93Y_8.mp4	0.0	277.4173538684845	0.041828155517578125
76	210.60651421546936	response	0	2		74.0	2.5	/experiments/knapen_aot/videos/R_S_yt-wrfAMDCg93Y_8.mp4	0.0	277.4510190486908	
76	210.61467719078064	movie	1		301.0	74.0	2.5	/experiments/knapen_aot/videos/R_S_yt-wrfAMDCg93Y_8.mp4	0.0	277.4591820240021	2.5082218647003174
76	213.12289905548096	fix_post	2		12.0	74.0	2.5	/experiments/knapen_aot/videos/R_S_yt-wrfAMDCg93Y_8.mp4	0.0	279.9674038887024	0.09998297691345215
77	213.2228820323944	fix_pre	0		9.0	75.0	2.5	blank	1.0	280.06738686561584	0.07558703422546387
77	213.28971815109253	response	0	2		75.0	2.5	blank	1.0	280.13422298431396	
77	213.29846906661987	movie	1		301.0	75.0	2.5	blank	1.0	280.1429738998413	2.5077641010284424
77	215.80623316764832	fix_post	2		12.0	75.0	2.5	blank	1.0	282.65073800086975	0.10000300407409668
78	215.9062361717224	fix_pre	0		19.0	76.0	2.5	/experiments/knapen_aot/videos/S_comp_GL_G010_C006_PSNK_NOSUN_v12_SDR_PS_FINAL_20180709_SDR_2K_AVC.mp4	0.0	282.75074100494385	0.15829801559448242
78	216.05636501312256	response	0	2		76.0	2.5	/experiments/knapen_aot/videos/S_comp_GL_G010_C006_PSNK_NOSUN_v12_SDR_PS_FINAL_20180709_SDR_2K_AVC.mp4	0.0	282.900869846344	
78	216.0645341873169	movie	1		163.0	76.0	2.5	/experiments/knapen_aot/videos/S_comp_GL_G010_C006_PSNK_NOSUN_v12_SDR_PS_FINAL_20180709_SDR_2K_AVC.mp4	0.0	282.90903902053833	2.5083818435668945
78	218.5729160308838	fix_post	2		12.0	76.0	2.5	/experiments/knapen_aot/videos/S_comp_GL_G010_C006_PSNK_NOSUN_v12_SDR_PS_FINAL_20180709_SDR_2K_AVC.mp4	0.0	285.4174208641052	0.0999600887298584
79	218.67287611961365	fix_pre	0		12.0	77.0	2.5	/experiments/knapen_aot/videos/S_video_inspire_oregon_lone-ranch-beach_00001.1080-h264.mp4	0.0	285.5173809528351	0.10001993179321289
79	218.76471710205078	response	0	2		77.0	2.5	/experiments/knapen_aot/videos/S_video_inspire_oregon_lone-ranch-beach_00001.1080-h264.mp4	0.0	285.6092219352722	
79	218.77289605140686	movie	1		164.0	77.0	2.5	/experiments/knapen_aot/videos/S_video_inspire_oregon_lone-ranch-beach_00001.1080-h264.mp4	0.0	285.6174008846283	2.5083601474761963
79	221.28125619888306	fix_post	2		12.0	77.0	2.5	/experiments/knapen_aot/videos/S_video_inspire_oregon_lone-ranch-beach_00001.1080-h264.mp4	0.0	288.1257610321045	0.09999990463256836
80	221.38125610351562	fix_pre	0		30.0	78.0	2.5	/experiments/knapen_aot/videos/S_yt-fymgyhmYnMI_76.mp4	0.0	288.22576093673706	0.2504720687866211
80	221.62307810783386	response	0	2		78.0	2.5	/experiments/knapen_aot/videos/S_yt-fymgyhmYnMI_76.mp4	0.0	288.4675829410553	
80	221.63172817230225	movie	1		301.0	78.0	2.5	/experiments/knapen_aot/videos/S_yt-fymgyhmYnMI_76.mp4	0.0	288.4762330055237	2.507884979248047
80	224.1396131515503	fix_post	2		12.0	78.0	2.5	/experiments/knapen_aot/videos/S_yt-fymgyhmYnMI_76.mp4	0.0	290.98411798477173	0.10000205039978027
81	224.23961520195007	fix_pre	0		56.0	79.0	2.5	/experiments/knapen_aot/videos/S_ILSVRC2015_train_00518001.mp4	0.0	291.0841200351715	0.46660780906677246
81	224.69054102897644	response	0	2		79.0	2.5	/experiments/knapen_aot/videos/S_ILSVRC2015_train_00518001.mp4	0.0	291.5350458621979	
81	224.70622301101685	movie	1		301.0	79.0	2.5	/experiments/knapen_aot/videos/S_ILSVRC2015_train_00518001.mp4	0.0	291.5507278442383	2.5083250999450684
81	227.2145481109619	fix_post	2		12.0	79.0	2.5	/experiments/knapen_aot/videos/S_ILSVRC2015_train_00518001.mp4	0.0	294.05905294418335	0.09998297691345215
82	227.31453108787537	fix_pre	0		15.0	80.0	2.5	/experiments/knapen_aot/videos/S_comp_DB_D008_C010_PSNK_v21_SDR_PS_20180914_F0F16157_SDR_2K_AVC.mp4	0.0	294.1590359210968	0.12498807907104492
82	227.43128108978271	response	0	2		80.0	2.5	/experiments/knapen_aot/videos/S_comp_DB_D008_C010_PSNK_v21_SDR_PS_20180914_F0F16157_SDR_2K_AVC.mp4	0.0	294.27578592300415	
82	227.4395191669464	movie	1		169.0	80.0	2.5	/experiments/knapen_aot/videos/S_comp_DB_D008_C010_PSNK_v21_SDR_PS_20180914_F0F16157_SDR_2K_AVC.mp4	0.0	294.28402400016785	2.5083649158477783
82	229.9478840827942	fix_post	2		12.0	80.0	2.5	/experiments/knapen_aot/videos/S_comp_DB_D008_C010_PSNK_v21_SDR_PS_20180914_F0F16157_SDR_2K_AVC.mp4	0.0	296.7923889160156	0.10002303123474121
83	230.04790711402893	fix_pre	0		22.0	81.0	2.5	/experiments/knapen_aot/videos/R_S_yt-s73Xqkcq9Js_285.mp4	0.0	296.89241194725037	0.18329501152038574
83	230.22293615341187	response	0	2		81.0	2.5	/experiments/knapen_aot/videos/R_S_yt-s73Xqkcq9Js_285.mp4	0.0	297.0674409866333	
83	230.23120212554932	movie	1		301.0	81.0	2.5	/experiments/knapen_aot/videos/R_S_yt-s73Xqkcq9Js_285.mp4	0.0	297.07570695877075	2.5083000659942627
83	232.73950219154358	fix_post	2		12.0	81.0	2.5	/experiments/knapen_aot/videos/R_S_yt-s73Xqkcq9Js_285.mp4	0.0	299.584007024765	0.10004496574401855
84	232.8395471572876	fix_pre	0		7.0	82.0	2.5	/experiments/knapen_aot/videos/R_S_yt-5ws2gxbcjs4_381.mp4	0.0	299.68405199050903	0.05829000473022461
84	232.88965511322021	response	0	2		82.0	2.5	/experiments/knapen_aot/videos/R_S_yt-5ws2gxbcjs4_381.mp4	0.0	299.73415994644165	
84	232.89783716201782	movie	1		301.0	82.0	2.5	/experiments/knapen_aot/videos/R_S_yt-5ws2gxbcjs4_381.mp4	0.0	299.74234199523926	2.5083229541778564
84	235.40616011619568	fix_post	2		12.0	82.0	2.5	/experiments/knapen_aot/videos/R_S_yt-5ws2gxbcjs4_381.mp4	0.0	302.2506649494171	0.10047292709350586
85	235.50663304328918	fix_pre	0		28.0	83.0	2.5	blank	1.0	302.3511378765106	0.23294997215270996
85	235.73139810562134	response	0	2		83.0	2.5	blank	1.0	302.5759029388428	
85	235.7395830154419	movie	1		301.0	83.0	2.5	blank	1.0	302.58408784866333	2.508141040802002
85	238.2477240562439	fix_post	2		12.0	83.0	2.5	blank	1.0	305.09222888946533	0.1000521183013916
87	238.3477761745453	stim	0		61.0					305.1922810077667	0.50838303565979
87	238.8503839969635	response	0	space						305.69488883018494	
