trial_nr	onset	event_type	phase	response	nr_frames	movie_index	movie_duration	movie_file	blank	onset_abs	duration
0	0.15453481674194336	stim	0		75.0					58.60638880729675	0.6301920413970947
0	0.7747259140014648	response	0	space						59.226579904556274	
1	0.7847268581390381	stim	0		121.0					59.23658084869385	1.0063929557800293
1	1.6007068157196045	response	0	space						60.052560806274414	
1	1.7911198139190674	stim	1		120.0					60.24297380447388	1.0001561641693115
1	1.9577369689941406	response	1	space						60.40959095954895	
1	2.7835710048675537	response	1	space						61.23542499542236	
2	2.791275978088379	fix_pre	0		68.0	0.0	2.5	/experiments/knapen_aot/videos/R_S_pexels-cottonbro-6789231.mp4	0.0	61.24312996864319	0.5661740303039551
2	3.349242925643921	response	0	space		0.0	2.5	/experiments/knapen_aot/videos/R_S_pexels-cottonbro-6789231.mp4	0.0	61.80109691619873	
2	3.357450008392334	movie	1		203.0	0.0	2.5	/experiments/knapen_aot/videos/R_S_pexels-cottonbro-6789231.mp4	0.0	61.809303998947144	2.508314847946167
2	5.865764856338501	fix_post	2		12.0	0.0	2.5	/experiments/knapen_aot/videos/R_S_pexels-cottonbro-6789231.mp4	0.0	64.31761884689331	0.10006403923034668
3	5.965828895568848	fix_pre	0		74.0	1.0	2.5	/experiments/knapen_aot/videos/S_production_ID_4584682.mp4	0.0	64.41768288612366	0.6170339584350586
3	6.577178955078125	response	0	2		1.0	2.5	/experiments/knapen_aot/videos/S_production_ID_4584682.mp4	0.0	65.02903294563293	
3	6.582862854003906	movie	1		166.0	1.0	2.5	/experiments/knapen_aot/videos/S_production_ID_4584682.mp4	0.0	65.03471684455872	2.507884979248047
3	9.090747833251953	fix_post	2		12.0	1.0	2.5	/experiments/knapen_aot/videos/S_production_ID_4584682.mp4	0.0	67.54260182380676	0.10010099411010742
4	9.19084882736206	fix_pre	0		52.0	2.0	2.5	/experiments/knapen_aot/videos/S_ILSVRC2015_train_00379000.mp4	0.0	67.64270281791687	0.4336111545562744
4	9.608394861221313	response	0	2		2.0	2.5	/experiments/knapen_aot/videos/S_ILSVRC2015_train_00379000.mp4	0.0	68.06024885177612	
4	9.624459981918335	movie	1		301.0	2.0	2.5	/experiments/knapen_aot/videos/S_ILSVRC2015_train_00379000.mp4	0.0	68.07631397247314	2.507938861846924
4	12.132398843765259	fix_post	2		12.0	2.0	2.5	/experiments/knapen_aot/videos/S_ILSVRC2015_train_00379000.mp4	0.0	70.58425283432007	0.10000109672546387
5	12.232399940490723	fix_pre	0		23.0	3.0	2.5	/experiments/knapen_aot/videos/R_S_yt-7WYXuBHeorw_188.mp4	0.0	70.68425393104553	0.191727876663208
5	12.41590690612793	response	0	2		3.0	2.5	/experiments/knapen_aot/videos/R_S_yt-7WYXuBHeorw_188.mp4	0.0	70.86776089668274	
5	12.42412781715393	movie	1		301.0	3.0	2.5	/experiments/knapen_aot/videos/R_S_yt-7WYXuBHeorw_188.mp4	0.0	70.87598180770874	2.5083069801330566
5	14.932434797286987	fix_post	2		12.0	3.0	2.5	/experiments/knapen_aot/videos/R_S_yt-7WYXuBHeorw_188.mp4	0.0	73.3842887878418	0.09993910789489746
6	15.032373905181885	fix_pre	0		18.0	4.0	2.5	/experiments/knapen_aot/videos/S_bing-www_dailymotion_com_video_x64hzm7_8.mp4	0.0	73.4842278957367	0.15005707740783691
6	15.17425799369812	response	0	2		4.0	2.5	/experiments/knapen_aot/videos/S_bing-www_dailymotion_com_video_x64hzm7_8.mp4	0.0	73.62611198425293	
6	15.182430982589722	movie	1		172.0	4.0	2.5	/experiments/knapen_aot/videos/S_bing-www_dailymotion_com_video_x64hzm7_8.mp4	0.0	73.63428497314453	2.50834584236145
6	17.690776824951172	fix_post	2		12.0	4.0	2.5	/experiments/knapen_aot/videos/S_bing-www_dailymotion_com_video_x64hzm7_8.mp4	0.0	76.14263081550598	0.10037398338317871
7	17.79115080833435	fix_pre	0		127.0	5.0	2.5	/experiments/knapen_aot/videos/S_yt-lADkWM79teI_18.mp4	0.0	76.24300479888916	1.0579102039337158
7	18.840868949890137	response	0	2		5.0	2.5	/experiments/knapen_aot/videos/S_yt-lADkWM79teI_18.mp4	0.0	77.29272294044495	
7	18.849061012268066	movie	1		301.0	5.0	2.5	/experiments/knapen_aot/videos/S_yt-lADkWM79teI_18.mp4	0.0	77.30091500282288	2.508298873901367
7	21.357359886169434	fix_post	2		12.0	5.0	2.5	/experiments/knapen_aot/videos/S_yt-lADkWM79teI_18.mp4	0.0	79.80921387672424	0.10005903244018555
8	21.45741891860962	fix_pre	0		55.0	6.0	2.5	blank	1.0	79.90927290916443	0.4586920738220215
8	21.90750479698181	response	0	2		6.0	2.5	blank	1.0	80.35935878753662	
8	21.91611099243164	movie	1		301.0	6.0	2.5	blank	1.0	80.36796498298645	2.507941961288452
8	24.424052953720093	fix_post	2		12.0	6.0	2.5	blank	1.0	82.8759069442749	0.10006904602050781
9	24.5241219997406	fix_pre	0		226.0	7.0	2.5	/experiments/knapen_aot/videos/R_S_yt-sGckFFOLO30_164.mp4	0.0	82.97597599029541	1.8832948207855225
9	26.391631841659546	response	0	2		7.0	2.5	/experiments/knapen_aot/videos/R_S_yt-sGckFFOLO30_164.mp4	0.0	84.84348583221436	
9	26.407416820526123	movie	1		301.0	7.0	2.5	/experiments/knapen_aot/videos/R_S_yt-sGckFFOLO30_164.mp4	0.0	84.85927081108093	2.5082690715789795
9	28.915685892105103	fix_post	2		12.0	7.0	2.5	/experiments/knapen_aot/videos/R_S_yt-sGckFFOLO30_164.mp4	0.0	87.36753988265991	0.10002589225769043
10	29.015711784362793	fix_pre	0		30.0	8.0	2.5	/experiments/knapen_aot/videos/R_S_yt-JTuopUgmg1w_101.mp4	0.0	87.4675657749176	0.2500021457672119
10	29.25748085975647	response	0	2		8.0	2.5	/experiments/knapen_aot/videos/R_S_yt-JTuopUgmg1w_101.mp4	0.0	87.70933485031128	
10	29.265713930130005	movie	1		301.0	8.0	2.5	/experiments/knapen_aot/videos/R_S_yt-JTuopUgmg1w_101.mp4	0.0	87.71756792068481	2.508310079574585
10	31.77402400970459	fix_post	2		12.0	8.0	2.5	/experiments/knapen_aot/videos/R_S_yt-JTuopUgmg1w_101.mp4	0.0	90.2258780002594	0.10027098655700684
11	31.874294996261597	fix_pre	0		48.0	9.0	2.5	/experiments/knapen_aot/videos/R_S_yt-4rwBpRuHg-c_1308.mp4	0.0	90.3261489868164	0.3997218608856201
11	32.265766859054565	response	0	2		9.0	2.5	/experiments/knapen_aot/videos/R_S_yt-4rwBpRuHg-c_1308.mp4	0.0	90.71762084960938	
11	32.27401685714722	movie	1		299.0	9.0	2.5	/experiments/knapen_aot/videos/R_S_yt-4rwBpRuHg-c_1308.mp4	0.0	90.72587084770203	2.508371114730835
11	34.78238797187805	fix_post	2		12.0	9.0	2.5	/experiments/knapen_aot/videos/R_S_yt-4rwBpRuHg-c_1308.mp4	0.0	93.23424196243286	0.09990882873535156
12	34.8822968006134	fix_pre	0		50.0	10.0	2.5	/experiments/knapen_aot/videos/S_yt-TSSPDwAQLXs_158.mp4	0.0	93.33415079116821	0.41668105125427246
12	35.29082798957825	response	0	2		10.0	2.5	/experiments/knapen_aot/videos/S_yt-TSSPDwAQLXs_158.mp4	0.0	93.74268198013306	
12	35.298977851867676	movie	1		301.0	10.0	2.5	/experiments/knapen_aot/videos/S_yt-TSSPDwAQLXs_158.mp4	0.0	93.75083184242249	2.5083999633789062
12	37.80737781524658	fix_post	2		12.0	10.0	2.5	/experiments/knapen_aot/videos/S_yt-TSSPDwAQLXs_158.mp4	0.0	96.25923180580139	0.09996509552001953
13	37.9073429107666	fix_pre	0		54.0	11.0	2.5	/experiments/knapen_aot/videos/R_S_bing-www_cnet_com_videos_amazon-wants-to-put-alexa-on-your-pc__50.mp4	0.0	96.35919690132141	0.4500100612640381
13	38.34913396835327	response	0	2		11.0	2.5	/experiments/knapen_aot/videos/R_S_bing-www_cnet_com_videos_amazon-wants-to-put-alexa-on-your-pc__50.mp4	0.0	96.80098795890808	
13	38.35735297203064	movie	1		166.0	11.0	2.5	/experiments/knapen_aot/videos/R_S_bing-www_cnet_com_videos_amazon-wants-to-put-alexa-on-your-pc__50.mp4	0.0	96.80920696258545	2.5083110332489014
13	40.86566400527954	fix_post	2		12.0	11.0	2.5	/experiments/knapen_aot/videos/R_S_bing-www_cnet_com_videos_amazon-wants-to-put-alexa-on-your-pc__50.mp4	0.0	99.31751799583435	0.0999457836151123
14	40.96560978889465	fix_pre	0		55.0	12.0	2.5	blank	1.0	99.41746377944946	0.4583761692047119
14	41.415756940841675	response	0	2		12.0	2.5	blank	1.0	99.86761093139648	
14	41.423985958099365	movie	1		301.0	12.0	2.5	blank	1.0	99.87583994865417	2.5083959102630615
14	43.93238186836243	fix_post	2		12.0	12.0	2.5	blank	1.0	102.38423585891724	0.09992408752441406
15	44.03230595588684	fix_pre	0		36.0	13.0	2.5	/experiments/knapen_aot/videos/S_yt-bOgChEHiroI_20.mp4	0.0	102.48415994644165	0.3001878261566162
15	44.324137926101685	response	0	2		13.0	2.5	/experiments/knapen_aot/videos/S_yt-bOgChEHiroI_20.mp4	0.0	102.7759919166565	
15	44.33249378204346	movie	1		298.0	13.0	2.5	/experiments/knapen_aot/videos/S_yt-bOgChEHiroI_20.mp4	0.0	102.78434777259827	2.5081210136413574
15	46.840614795684814	fix_post	2		12.0	13.0	2.5	/experiments/knapen_aot/videos/S_yt-bOgChEHiroI_20.mp4	0.0	105.29246878623962	0.10000014305114746
16	46.94061493873596	fix_pre	0		129.0	14.0	2.5	/experiments/knapen_aot/videos/R_S_ILSVRC2015_train_00415003.mp4	0.0	105.39246892929077	1.0750000476837158
16	48.007550954818726	response	0	2		14.0	2.5	/experiments/knapen_aot/videos/R_S_ILSVRC2015_train_00415003.mp4	0.0	106.45940494537354	
16	48.01561498641968	movie	1		301.0	14.0	2.5	/experiments/knapen_aot/videos/R_S_ILSVRC2015_train_00415003.mp4	0.0	106.46746897697449	2.508340835571289
16	50.52395582199097	fix_post	2		12.0	14.0	2.5	/experiments/knapen_aot/videos/R_S_ILSVRC2015_train_00415003.mp4	0.0	108.97580981254578	0.1002051830291748
17	50.62416100502014	fix_pre	0		24.0	15.0	2.5	/experiments/knapen_aot/videos/S_yt-b7JAHOeiTqU_44.mp4	0.0	109.07601499557495	0.19986581802368164
17	50.808192014694214	response	0	2		15.0	2.5	/experiments/knapen_aot/videos/S_yt-b7JAHOeiTqU_44.mp4	0.0	109.26004600524902	
17	50.82402682304382	movie	1		301.0	15.0	2.5	/experiments/knapen_aot/videos/S_yt-b7JAHOeiTqU_44.mp4	0.0	109.27588081359863	2.5082790851593018
17	53.332305908203125	fix_post	2		12.0	15.0	2.5	/experiments/knapen_aot/videos/S_yt-b7JAHOeiTqU_44.mp4	0.0	111.78415989875793	0.09987807273864746
18	53.43218398094177	fix_pre	0		175.0	16.0	2.5	/experiments/knapen_aot/videos/R_S_yt-uT4MXm0UBJM_64.mp4	0.0	111.88403797149658	1.4584059715270996
18	54.88237190246582	response	0	2		16.0	2.5	/experiments/knapen_aot/videos/R_S_yt-uT4MXm0UBJM_64.mp4	0.0	113.33422589302063	
18	54.89058995246887	movie	1		301.0	16.0	2.5	/experiments/knapen_aot/videos/R_S_yt-uT4MXm0UBJM_64.mp4	0.0	113.34244394302368	2.5083868503570557
18	57.39897680282593	fix_post	2		12.0	16.0	2.5	/experiments/knapen_aot/videos/R_S_yt-uT4MXm0UBJM_64.mp4	0.0	115.85083079338074	0.10010719299316406
19	57.49908399581909	fix_pre	0		45.0	17.0	2.5	/experiments/knapen_aot/videos/S_yt-JTuopUgmg1w_101.mp4	0.0	115.9509379863739	0.3749380111694336
19	57.865702867507935	response	0	2		17.0	2.5	/experiments/knapen_aot/videos/S_yt-JTuopUgmg1w_101.mp4	0.0	116.31755685806274	
19	57.874022006988525	movie	1		301.0	17.0	2.5	/experiments/knapen_aot/videos/S_yt-JTuopUgmg1w_101.mp4	0.0	116.32587599754333	2.5081708431243896
19	60.382192850112915	fix_post	2		12.0	17.0	2.5	/experiments/knapen_aot/videos/S_yt-JTuopUgmg1w_101.mp4	0.0	118.83404684066772	0.10006999969482422
20	60.48226284980774	fix_pre	0		79.0	18.0	2.5	/experiments/knapen_aot/videos/R_S_yt-y-boY803u9A_12.mp4	0.0	118.93411684036255	0.6582679748535156
20	61.132380962371826	response	0	2		18.0	2.5	/experiments/knapen_aot/videos/R_S_yt-y-boY803u9A_12.mp4	0.0	119.58423495292664	
20	61.140530824661255	movie	1		301.0	18.0	2.5	/experiments/knapen_aot/videos/R_S_yt-y-boY803u9A_12.mp4	0.0	119.59238481521606	2.508371114730835
20	63.64890193939209	fix_post	2		12.0	18.0	2.5	/experiments/knapen_aot/videos/R_S_yt-y-boY803u9A_12.mp4	0.0	122.1007559299469	0.10012102127075195
21	63.74902296066284	fix_pre	0		236.0	19.0	2.5	/experiments/knapen_aot/videos/S_ILSVRC2015_train_00042002.mp4	0.0	122.20087695121765	1.9664978981018066
21	65.70736789703369	response	0	2		19.0	2.5	/experiments/knapen_aot/videos/S_ILSVRC2015_train_00042002.mp4	0.0	124.1592218875885	
21	65.71552085876465	movie	1		301.0	19.0	2.5	/experiments/knapen_aot/videos/S_ILSVRC2015_train_00042002.mp4	0.0	124.16737484931946	2.508345127105713
21	68.22386598587036	fix_post	2		12.0	19.0	2.5	/experiments/knapen_aot/videos/S_ILSVRC2015_train_00042002.mp4	0.0	126.67571997642517	0.09999895095825195
22	68.32386493682861	fix_pre	0		101.0	20.0	2.5	/experiments/knapen_aot/videos/R_S_yt-WhQMF3WM0Ig_29.mp4	0.0	126.77571892738342	0.841778039932251
22	69.15734887123108	response	0	2		20.0	2.5	/experiments/knapen_aot/videos/R_S_yt-WhQMF3WM0Ig_29.mp4	0.0	127.60920286178589	
22	69.16564297676086	movie	1		301.0	20.0	2.5	/experiments/knapen_aot/videos/R_S_yt-WhQMF3WM0Ig_29.mp4	0.0	127.61749696731567	2.508227825164795
22	71.67387080192566	fix_post	2		12.0	20.0	2.5	/experiments/knapen_aot/videos/R_S_yt-WhQMF3WM0Ig_29.mp4	0.0	130.12572479248047	0.09997820854187012
23	71.77384901046753	fix_pre	0		23.0	21.0	2.5	blank	1.0	130.22570300102234	0.19170379638671875
23	71.95735478401184	response	0	2		21.0	2.5	blank	1.0	130.40920877456665	
23	71.96555280685425	movie	1		301.0	21.0	2.5	blank	1.0	130.41740679740906	2.508289098739624
23	74.47384190559387	fix_post	2		12.0	21.0	2.5	blank	1.0	132.92569589614868	0.10001206398010254
24	74.57385396957397	fix_pre	0		51.0	22.0	2.5	/experiments/knapen_aot/videos/R_S_yt-1UFhynm5g6Y_266.mp4	0.0	133.02570796012878	0.42504191398620605
24	74.99064493179321	response	0	2		22.0	2.5	/experiments/knapen_aot/videos/R_S_yt-1UFhynm5g6Y_266.mp4	0.0	133.44249892234802	
24	74.99889588356018	movie	1		301.0	22.0	2.5	/experiments/knapen_aot/videos/R_S_yt-1UFhynm5g6Y_266.mp4	0.0	133.450749874115	2.5083229541778564
24	77.50721883773804	fix_post	2		12.0	22.0	2.5	/experiments/knapen_aot/videos/R_S_yt-1UFhynm5g6Y_266.mp4	0.0	135.95907282829285	0.09999895095825195
25	77.60721778869629	fix_pre	0		253.0	23.0	2.5	/experiments/knapen_aot/videos/R_S_yt-LQrnLKP5tiQ_48.mp4	0.0	136.0590717792511	2.1083312034606934
25	79.70740079879761	response	0	2		23.0	2.5	/experiments/knapen_aot/videos/R_S_yt-LQrnLKP5tiQ_48.mp4	0.0	138.15925478935242	
25	79.71554899215698	movie	1		301.0	23.0	2.5	/experiments/knapen_aot/videos/R_S_yt-LQrnLKP5tiQ_48.mp4	0.0	138.1674029827118	2.508323907852173
25	82.22387290000916	fix_post	2		12.0	23.0	2.5	/experiments/knapen_aot/videos/R_S_yt-LQrnLKP5tiQ_48.mp4	0.0	140.67572689056396	0.09999990463256836
26	82.32387280464172	fix_pre	0		85.0	24.0	2.5	/experiments/knapen_aot/videos/R_S_yt-Iu2ZPHLqXuY_32.mp4	0.0	140.77572679519653	0.7082691192626953
26	83.02398300170898	response	0	2		24.0	2.5	/experiments/knapen_aot/videos/R_S_yt-Iu2ZPHLqXuY_32.mp4	0.0	141.4758369922638	
26	83.03214192390442	movie	1		301.0	24.0	2.5	/experiments/knapen_aot/videos/R_S_yt-Iu2ZPHLqXuY_32.mp4	0.0	141.48399591445923	2.5083320140838623
26	85.54047393798828	fix_post	2		12.0	24.0	2.5	/experiments/knapen_aot/videos/R_S_yt-Iu2ZPHLqXuY_32.mp4	0.0	143.9923279285431	0.09996891021728516
27	85.64044284820557	fix_pre	0		44.0	25.0	2.5	/experiments/knapen_aot/videos/S_yt-uSHBdUi8_V0_24.mp4	0.0	144.09229683876038	0.36669206619262695
27	85.9989709854126	response	0	2		25.0	2.5	/experiments/knapen_aot/videos/S_yt-uSHBdUi8_V0_24.mp4	0.0	144.4508249759674	
27	86.0071349143982	movie	1		300.0	25.0	2.5	/experiments/knapen_aot/videos/S_yt-uSHBdUi8_V0_24.mp4	0.0	144.458988904953	2.508284091949463
27	88.51541900634766	fix_post	2		12.0	25.0	2.5	/experiments/knapen_aot/videos/S_yt-uSHBdUi8_V0_24.mp4	0.0	146.96727299690247	0.1000509262084961
28	88.61546993255615	fix_pre	0		184.0	26.0	2.5	blank	1.0	147.06732392311096	1.53330397605896
28	90.14063787460327	response	0	2		26.0	2.5	blank	1.0	148.59249186515808	
28	90.14877390861511	movie	1		301.0	26.0	2.5	blank	1.0	148.60062789916992	2.508349895477295
28	92.65712380409241	fix_post	2		12.0	26.0	2.5	blank	1.0	151.10897779464722	0.09998011589050293
29	92.75710391998291	fix_pre	0		324.0	27.0	2.5	/experiments/knapen_aot/videos/S_yt-7VVzNnp36DM_62.mp4	0.0	151.20895791053772	2.6999120712280273
29	95.44891786575317	response	0	2		27.0	2.5	/experiments/knapen_aot/videos/S_yt-7VVzNnp36DM_62.mp4	0.0	153.90077185630798	
29	95.45701599121094	movie	1		301.0	27.0	2.5	/experiments/knapen_aot/videos/S_yt-7VVzNnp36DM_62.mp4	0.0	153.90886998176575	2.508430004119873
29	97.96544599533081	fix_post	2		12.0	27.0	2.5	/experiments/knapen_aot/videos/S_yt-7VVzNnp36DM_62.mp4	0.0	156.41729998588562	0.09997200965881348
30	98.06541800498962	fix_pre	0		90.0	28.0	2.5	/experiments/knapen_aot/videos/S_yt-X6ivH9SqGu8_306.mp4	0.0	156.51727199554443	0.7499959468841553
30	98.79967379570007	response	0	2		28.0	2.5	/experiments/knapen_aot/videos/S_yt-X6ivH9SqGu8_306.mp4	0.0	157.25152778625488	
30	98.81541395187378	movie	1		299.0	28.0	2.5	/experiments/knapen_aot/videos/S_yt-X6ivH9SqGu8_306.mp4	0.0	157.2672679424286	2.5083138942718506
30	101.32372784614563	fix_post	2		12.0	28.0	2.5	/experiments/knapen_aot/videos/S_yt-X6ivH9SqGu8_306.mp4	0.0	159.77558183670044	0.100006103515625
31	101.42373394966125	fix_pre	0		70.0	29.0	2.5	/experiments/knapen_aot/videos/S_yt-lGQ3wMI5-Yg_140.mp4	0.0	159.87558794021606	0.5833230018615723
31	101.99886393547058	response	0	2		29.0	2.5	/experiments/knapen_aot/videos/S_yt-lGQ3wMI5-Yg_140.mp4	0.0	160.4507179260254	
31	102.00705695152283	movie	1		301.0	29.0	2.5	/experiments/knapen_aot/videos/S_yt-lGQ3wMI5-Yg_140.mp4	0.0	160.45891094207764	2.5083608627319336
31	104.51541781425476	fix_post	2		12.0	29.0	2.5	/experiments/knapen_aot/videos/S_yt-lGQ3wMI5-Yg_140.mp4	0.0	162.96727180480957	0.09997105598449707
32	104.61538887023926	fix_pre	0		230.0	30.0	2.5	/experiments/knapen_aot/videos/R_S_yt-M5qZo3CUXYE_27.mp4	0.0	163.06724286079407	1.917963981628418
32	106.52388596534729	response	0	2		30.0	2.5	/experiments/knapen_aot/videos/R_S_yt-M5qZo3CUXYE_27.mp4	0.0	164.9757399559021	
32	106.53335285186768	movie	1		301.0	30.0	2.5	/experiments/knapen_aot/videos/R_S_yt-M5qZo3CUXYE_27.mp4	0.0	164.98520684242249	2.507014036178589
32	109.04036688804626	fix_post	2		12.0	30.0	2.5	/experiments/knapen_aot/videos/R_S_yt-M5qZo3CUXYE_27.mp4	0.0	167.49222087860107	0.10014891624450684
33	109.14051580429077	fix_pre	0		207.0	31.0	2.5	/experiments/knapen_aot/videos/S_yt-uT4MXm0UBJM_64.mp4	0.0	167.59236979484558	1.724912166595459
33	110.85717391967773	response	0	2		31.0	2.5	/experiments/knapen_aot/videos/S_yt-uT4MXm0UBJM_64.mp4	0.0	169.30902791023254	
33	110.86542797088623	movie	1		301.0	31.0	2.5	/experiments/knapen_aot/videos/S_yt-uT4MXm0UBJM_64.mp4	0.0	169.31728196144104	2.5082969665527344
33	113.37372493743896	fix_post	2		12.0	31.0	2.5	/experiments/knapen_aot/videos/S_yt-uT4MXm0UBJM_64.mp4	0.0	171.82557892799377	0.09992384910583496
34	113.4736487865448	fix_pre	0		56.0	32.0	2.5	/experiments/knapen_aot/videos/S_yt-SgiTZNjCPCo_19.mp4	0.0	171.9255027770996	0.4666781425476074
34	113.93215084075928	response	0	2		32.0	2.5	/experiments/knapen_aot/videos/S_yt-SgiTZNjCPCo_19.mp4	0.0	172.3840048313141	
34	113.94032692909241	movie	1		300.0	32.0	2.5	/experiments/knapen_aot/videos/S_yt-SgiTZNjCPCo_19.mp4	0.0	172.39218091964722	2.508368968963623
34	116.44869589805603	fix_post	2		12.0	32.0	2.5	/experiments/knapen_aot/videos/S_yt-SgiTZNjCPCo_19.mp4	0.0	174.90054988861084	0.09990811347961426
35	116.54860401153564	fix_pre	0		55.0	33.0	2.5	blank	1.0	175.00045800209045	0.4583628177642822
35	116.99895691871643	response	0	2		33.0	2.5	blank	1.0	175.45081090927124	
35	117.00696682929993	movie	1		301.0	33.0	2.5	blank	1.0	175.45882081985474	2.5082950592041016
35	119.51526188850403	fix_post	2		12.0	33.0	2.5	blank	1.0	177.96711587905884	0.10001993179321289
36	119.61528182029724	fix_pre	0		35.0	34.0	2.5	/experiments/knapen_aot/videos/R_S_wc-rs31_SV1Opy__6.mp4	0.0	178.06713581085205	0.2929110527038574
36	119.89869785308838	response	0	2		34.0	2.5	/experiments/knapen_aot/videos/R_S_wc-rs31_SV1Opy__6.mp4	0.0	178.3505518436432	
36	119.9081928730011	movie	1		162.0	34.0	2.5	/experiments/knapen_aot/videos/R_S_wc-rs31_SV1Opy__6.mp4	0.0	178.3600468635559	2.507148027420044
36	122.41534090042114	fix_post	2		12.0	34.0	2.5	/experiments/knapen_aot/videos/R_S_wc-rs31_SV1Opy__6.mp4	0.0	180.86719489097595	0.0999760627746582
37	122.5153169631958	fix_pre	0		48.0	35.0	2.5	/experiments/knapen_aot/videos/S_yt-x6tYi0lRGqU_114.mp4	0.0	180.9671709537506	0.40004587173461914
37	122.90712785720825	response	0	2		35.0	2.5	/experiments/knapen_aot/videos/S_yt-x6tYi0lRGqU_114.mp4	0.0	181.35898184776306	
37	122.91536283493042	movie	1		301.0	35.0	2.5	/experiments/knapen_aot/videos/S_yt-x6tYi0lRGqU_114.mp4	0.0	181.36721682548523	2.508265972137451
37	125.42362880706787	fix_post	2		12.0	35.0	2.5	/experiments/knapen_aot/videos/S_yt-x6tYi0lRGqU_114.mp4	0.0	183.87548279762268	0.09995818138122559
38	125.5235869884491	fix_pre	0		47.0	36.0	2.5	/experiments/knapen_aot/videos/R_S_ILSVRC2015_train_00042002.mp4	0.0	183.9754409790039	0.3916800022125244
38	125.90711379051208	response	0	2		36.0	2.5	/experiments/knapen_aot/videos/R_S_ILSVRC2015_train_00042002.mp4	0.0	184.3589677810669	
38	125.91526699066162	movie	1		301.0	36.0	2.5	/experiments/knapen_aot/videos/R_S_ILSVRC2015_train_00042002.mp4	0.0	184.36712098121643	2.5082600116729736
38	128.4235270023346	fix_post	2		12.0	36.0	2.5	/experiments/knapen_aot/videos/R_S_ILSVRC2015_train_00042002.mp4	0.0	186.8753809928894	0.10004878044128418
39	128.52357578277588	fix_pre	0		169.0	37.0	2.5	/experiments/knapen_aot/videos/R_S_ILSVRC2015_train_00371010.mp4	0.0	186.9754297733307	1.408384084701538
39	129.92386198043823	response	0	2		37.0	2.5	/experiments/knapen_aot/videos/R_S_ILSVRC2015_train_00371010.mp4	0.0	188.37571597099304	
39	129.93195986747742	movie	1		300.0	37.0	2.5	/experiments/knapen_aot/videos/R_S_ILSVRC2015_train_00371010.mp4	0.0	188.38381385803223	2.508312940597534
39	132.44027280807495	fix_post	2		12.0	37.0	2.5	/experiments/knapen_aot/videos/R_S_ILSVRC2015_train_00371010.mp4	0.0	190.89212679862976	0.10015702247619629
40	132.54042983055115	fix_pre	0		45.0	38.0	2.5	/experiments/knapen_aot/videos/S_yt-8vm83GUgYxI_1.mp4	0.0	190.99228382110596	0.3748171329498291
40	132.90709686279297	response	0	2		38.0	2.5	/experiments/knapen_aot/videos/S_yt-8vm83GUgYxI_1.mp4	0.0	191.35895085334778	
40	132.91524696350098	movie	1		301.0	38.0	2.5	/experiments/knapen_aot/videos/S_yt-8vm83GUgYxI_1.mp4	0.0	191.3671009540558	2.508258819580078
40	135.42350578308105	fix_post	2		12.0	38.0	2.5	/experiments/knapen_aot/videos/S_yt-8vm83GUgYxI_1.mp4	0.0	193.87535977363586	0.10006308555603027
41	135.52356886863708	fix_pre	0		298.0	39.0	2.5	/experiments/knapen_aot/videos/R_S_production_ID_5020960.mp4	0.0	193.9754228591919	2.4832749366760254
41	137.99113988876343	response	0	2		39.0	2.5	/experiments/knapen_aot/videos/R_S_production_ID_5020960.mp4	0.0	196.44299387931824	
41	138.0068438053131	movie	1		203.0	39.0	2.5	/experiments/knapen_aot/videos/R_S_production_ID_5020960.mp4	0.0	196.45869779586792	2.508397102355957
41	140.51524090766907	fix_post	2		12.0	39.0	2.5	/experiments/knapen_aot/videos/R_S_production_ID_5020960.mp4	0.0	198.96709489822388	0.09997987747192383
42	140.615220785141	fix_pre	0		27.0	40.0	2.5	/experiments/knapen_aot/videos/R_S_yt-kQpE9L-fsNE_55.mp4	0.0	199.0670747756958	0.224992036819458
42	140.82450580596924	response	0	2		40.0	2.5	/experiments/knapen_aot/videos/R_S_yt-kQpE9L-fsNE_55.mp4	0.0	199.27635979652405	
42	140.84021282196045	movie	1		301.0	40.0	2.5	/experiments/knapen_aot/videos/R_S_yt-kQpE9L-fsNE_55.mp4	0.0	199.29206681251526	2.5083351135253906
42	143.34854793548584	fix_post	2		12.0	40.0	2.5	/experiments/knapen_aot/videos/R_S_yt-kQpE9L-fsNE_55.mp4	0.0	201.80040192604065	0.10115385055541992
43	143.44970178604126	fix_pre	0		203.0	41.0	2.5	/experiments/knapen_aot/videos/S_yt-YLcmfyfIokU_64.mp4	0.0	201.90155577659607	1.6904680728912354
43	145.12448000907898	response	0	2		41.0	2.5	/experiments/knapen_aot/videos/S_yt-YLcmfyfIokU_64.mp4	0.0	203.5763339996338	
43	145.1401698589325	movie	1		301.0	41.0	2.5	/experiments/knapen_aot/videos/S_yt-YLcmfyfIokU_64.mp4	0.0	203.5920238494873	2.5082991123199463
43	147.64846897125244	fix_post	2		12.0	41.0	2.5	/experiments/knapen_aot/videos/S_yt-YLcmfyfIokU_64.mp4	0.0	206.10032296180725	0.10007381439208984
44	147.74854278564453	fix_pre	0		34.0	42.0	2.5	blank	1.0	206.20039677619934	0.28330421447753906
44	148.0235869884491	response	0	2		42.0	2.5	blank	1.0	206.4754409790039	
44	148.03184700012207	movie	1		301.0	42.0	2.5	blank	1.0	206.48370099067688	2.508384943008423
44	150.5402319431305	fix_post	2		12.0	42.0	2.5	blank	1.0	208.9920859336853	0.09996199607849121
45	150.64019393920898	fix_pre	0		57.0	43.0	2.5	/experiments/knapen_aot/videos/R_S_yt-eczLsCTIyn0_553.mp4	0.0	209.0920479297638	0.47603297233581543
45	151.09948897361755	response	0	2		43.0	2.5	/experiments/knapen_aot/videos/R_S_yt-eczLsCTIyn0_553.mp4	0.0	209.55134296417236	
45	151.1162269115448	movie	1		301.0	43.0	2.5	/experiments/knapen_aot/videos/R_S_yt-eczLsCTIyn0_553.mp4	0.0	209.5680809020996	2.5072031021118164
45	153.62343001365662	fix_post	2		12.0	43.0	2.5	/experiments/knapen_aot/videos/R_S_yt-eczLsCTIyn0_553.mp4	0.0	212.07528400421143	0.10003495216369629
46	153.7234649658203	fix_pre	0		130.0	44.0	2.5	/experiments/knapen_aot/videos/S_yt-nE8YJOhW4e4_171.mp4	0.0	212.17531895637512	1.0833549499511719
46	154.79861688613892	response	0	2		44.0	2.5	/experiments/knapen_aot/videos/S_yt-nE8YJOhW4e4_171.mp4	0.0	213.25047087669373	
46	154.80681991577148	movie	1		301.0	44.0	2.5	/experiments/knapen_aot/videos/S_yt-nE8YJOhW4e4_171.mp4	0.0	213.2586739063263	2.5083658695220947
46	157.31518578529358	fix_post	2		12.0	44.0	2.5	/experiments/knapen_aot/videos/S_yt-nE8YJOhW4e4_171.mp4	0.0	215.7670397758484	0.09994101524353027
47	157.4151268005371	fix_pre	0		31.0	45.0	2.5	/experiments/knapen_aot/videos/S_comp_DB_D001_C005_COMP_PSNK_v12_SDR_PS_20180912_SDR_2K_AVC.mp4	0.0	215.86698079109192	0.2583630084991455
47	157.66532683372498	response	0	2		45.0	2.5	/experiments/knapen_aot/videos/S_comp_DB_D001_C005_COMP_PSNK_v12_SDR_PS_20180912_SDR_2K_AVC.mp4	0.0	216.11718082427979	
47	157.67348980903625	movie	1		166.0	45.0	2.5	/experiments/knapen_aot/videos/S_comp_DB_D001_C005_COMP_PSNK_v12_SDR_PS_20180912_SDR_2K_AVC.mp4	0.0	216.12534379959106	2.5082690715789795
47	160.18175888061523	fix_post	2		12.0	45.0	2.5	/experiments/knapen_aot/videos/S_comp_DB_D001_C005_COMP_PSNK_v12_SDR_PS_20180912_SDR_2K_AVC.mp4	0.0	218.63361287117004	0.10004806518554688
48	160.28180694580078	fix_pre	0		215.0	46.0	2.5	/experiments/knapen_aot/videos/S_yt-9NV8zv2Sdq4_30.mp4	0.0	218.7336609363556	1.792625904083252
48	162.06528496742249	response	0	2		46.0	2.5	/experiments/knapen_aot/videos/S_yt-9NV8zv2Sdq4_30.mp4	0.0	220.5171389579773	
48	162.07443284988403	movie	1		301.0	46.0	2.5	/experiments/knapen_aot/videos/S_yt-9NV8zv2Sdq4_30.mp4	0.0	220.52628684043884	2.5073471069335938
48	164.58177995681763	fix_post	2		12.0	46.0	2.5	/experiments/knapen_aot/videos/S_yt-9NV8zv2Sdq4_30.mp4	0.0	223.03363394737244	0.10006284713745117
49	164.68184280395508	fix_pre	0		50.0	47.0	2.5	blank	1.0	223.1336967945099	0.4166121482849121
49	165.09027194976807	response	0	2		47.0	2.5	blank	1.0	223.54212594032288	
49	165.09845495224	movie	1		301.0	47.0	2.5	blank	1.0	223.5503089427948	2.5083389282226562
49	167.60679388046265	fix_post	2		12.0	47.0	2.5	blank	1.0	226.05864787101746	0.09998202323913574
50	167.70677590370178	fix_pre	0		42.0	48.0	2.5	/experiments/knapen_aot/videos/R_S_yt-kYMffy4hTMo_107.mp4	0.0	226.1586298942566	0.3499770164489746
50	168.0485348701477	response	0	2		48.0	2.5	/experiments/knapen_aot/videos/R_S_yt-kYMffy4hTMo_107.mp4	0.0	226.50038886070251	
50	168.05675292015076	movie	1		301.0	48.0	2.5	/experiments/knapen_aot/videos/R_S_yt-kYMffy4hTMo_107.mp4	0.0	226.50860691070557	2.5083670616149902
50	170.56511998176575	fix_post	2		12.0	48.0	2.5	/experiments/knapen_aot/videos/R_S_yt-kYMffy4hTMo_107.mp4	0.0	229.01697397232056	0.09996795654296875
51	170.66508793830872	fix_pre	0		111.0	49.0	2.5	/experiments/knapen_aot/videos/R_S_yt-sGckFFOLO30_164.mp4	0.0	229.11694192886353	0.9250659942626953
51	171.58191394805908	response	0	2		49.0	2.5	/experiments/knapen_aot/videos/R_S_yt-sGckFFOLO30_164.mp4	0.0	230.0337679386139	
51	171.5901539325714	movie	1		300.0	49.0	2.5	/experiments/knapen_aot/videos/R_S_yt-sGckFFOLO30_164.mp4	0.0	230.04200792312622	2.508312940597534
51	174.09846687316895	fix_post	2		12.0	49.0	2.5	/experiments/knapen_aot/videos/R_S_yt-sGckFFOLO30_164.mp4	0.0	232.55032086372375	0.09990406036376953
52	174.19837093353271	fix_pre	0		32.0	50.0	2.5	/experiments/knapen_aot/videos/R_S_yt-iKe-0YNR5Eo_164.mp4	0.0	232.65022492408752	0.266787052154541
52	174.45694398880005	response	0	2		50.0	2.5	/experiments/knapen_aot/videos/R_S_yt-iKe-0YNR5Eo_164.mp4	0.0	232.90879797935486	
52	174.46515798568726	movie	1		301.0	50.0	2.5	/experiments/knapen_aot/videos/R_S_yt-iKe-0YNR5Eo_164.mp4	0.0	232.91701197624207	2.5082449913024902
52	176.97340297698975	fix_post	2		12.0	50.0	2.5	/experiments/knapen_aot/videos/R_S_yt-iKe-0YNR5Eo_164.mp4	0.0	235.42525696754456	0.09996581077575684
53	177.0733687877655	fix_pre	0		264.0	51.0	2.5	/experiments/knapen_aot/videos/S_yt-zh2yLr-o_8A_953.mp4	0.0	235.5252227783203	2.1999711990356445
53	179.26520085334778	response	0	2		51.0	2.5	/experiments/knapen_aot/videos/S_yt-zh2yLr-o_8A_953.mp4	0.0	237.7170548439026	
53	179.27333998680115	movie	1		301.0	51.0	2.5	/experiments/knapen_aot/videos/S_yt-zh2yLr-o_8A_953.mp4	0.0	237.72519397735596	2.5084168910980225
53	181.78175687789917	fix_post	2		12.0	51.0	2.5	/experiments/knapen_aot/videos/S_yt-zh2yLr-o_8A_953.mp4	0.0	240.23361086845398	0.09996891021728516
54	181.88172578811646	fix_pre	0		151.0	52.0	2.5	/experiments/knapen_aot/videos/R_S_bing-www_dailymotion_com_video_x64hzm7_8.mp4	0.0	240.33357977867126	1.2583250999450684
54	183.13186693191528	response	0	2		52.0	2.5	/experiments/knapen_aot/videos/R_S_bing-www_dailymotion_com_video_x64hzm7_8.mp4	0.0	241.5837209224701	
54	183.14005088806152	movie	1		170.0	52.0	2.5	/experiments/knapen_aot/videos/R_S_bing-www_dailymotion_com_video_x64hzm7_8.mp4	0.0	241.59190487861633	2.5084009170532227
54	185.64845180511475	fix_post	2		12.0	52.0	2.5	/experiments/knapen_aot/videos/R_S_bing-www_dailymotion_com_video_x64hzm7_8.mp4	0.0	244.10030579566956	0.09992218017578125
55	185.74837398529053	fix_pre	0		38.0	53.0	2.5	/experiments/knapen_aot/videos/R_S_ILSVRC2015_train_00743001.mp4	0.0	244.20022797584534	0.3166689872741699
55	186.0568699836731	response	0	2		53.0	2.5	/experiments/knapen_aot/videos/R_S_ILSVRC2015_train_00743001.mp4	0.0	244.5087239742279	
55	186.0650429725647	movie	1		298.0	53.0	2.5	/experiments/knapen_aot/videos/R_S_ILSVRC2015_train_00743001.mp4	0.0	244.5168969631195	2.508388042449951
55	188.57343101501465	fix_post	2		12.0	53.0	2.5	/experiments/knapen_aot/videos/R_S_ILSVRC2015_train_00743001.mp4	0.0	247.02528500556946	0.0999448299407959
56	188.67337584495544	fix_pre	0		54.0	54.0	2.5	/experiments/knapen_aot/videos/R_S_yt-3roniRu6w58_10.mp4	0.0	247.12522983551025	0.4500141143798828
56	189.11519384384155	response	0	2		54.0	2.5	/experiments/knapen_aot/videos/R_S_yt-3roniRu6w58_10.mp4	0.0	247.56704783439636	
56	189.12338995933533	movie	1		301.0	54.0	2.5	/experiments/knapen_aot/videos/R_S_yt-3roniRu6w58_10.mp4	0.0	247.57524394989014	2.5082879066467285
56	191.63167786598206	fix_post	2		12.0	54.0	2.5	/experiments/knapen_aot/videos/R_S_yt-3roniRu6w58_10.mp4	0.0	250.08353185653687	0.10008907318115234
57	191.7317669391632	fix_pre	0		109.0	55.0	2.5	/experiments/knapen_aot/videos/S_comp_CH_C002_C005_PSNK_v05_SDR_PS_FINAL_20180709_SDR_2K_AVC.mp4	0.0	250.18362092971802	0.9082620143890381
57	192.62440490722656	response	0	2		55.0	2.5	/experiments/knapen_aot/videos/S_comp_CH_C002_C005_PSNK_v05_SDR_PS_FINAL_20180709_SDR_2K_AVC.mp4	0.0	251.07625889778137	
57	192.64002895355225	movie	1		174.0	55.0	2.5	/experiments/knapen_aot/videos/S_comp_CH_C002_C005_PSNK_v05_SDR_PS_FINAL_20180709_SDR_2K_AVC.mp4	0.0	251.09188294410706	2.5083398818969727
57	195.14836883544922	fix_post	2		12.0	55.0	2.5	/experiments/knapen_aot/videos/S_comp_CH_C002_C005_PSNK_v05_SDR_PS_FINAL_20180709_SDR_2K_AVC.mp4	0.0	253.60022282600403	0.10004401206970215
58	195.24841284751892	fix_pre	0		29.0	56.0	2.5	blank	1.0	253.70026683807373	0.24254894256591797
58	195.48189091682434	response	0	2		56.0	2.5	blank	1.0	253.93374490737915	
58	195.49096179008484	movie	1		301.0	56.0	2.5	blank	1.0	253.94281578063965	2.507436990737915
58	197.99839878082275	fix_post	2		12.0	56.0	2.5	blank	1.0	256.45025277137756	0.10000300407409668
59	198.09840178489685	fix_pre	0		39.0	57.0	2.5	/experiments/knapen_aot/videos/S_yt-nE8YJOhW4e4_171.mp4	0.0	256.55025577545166	0.32493114471435547
59	198.41512894630432	response	0	2		57.0	2.5	/experiments/knapen_aot/videos/S_yt-nE8YJOhW4e4_171.mp4	0.0	256.86698293685913	
59	198.4233329296112	movie	1		301.0	57.0	2.5	/experiments/knapen_aot/videos/S_yt-nE8YJOhW4e4_171.mp4	0.0	256.875186920166	2.5083658695220947
59	200.9316987991333	fix_post	2		12.0	57.0	2.5	/experiments/knapen_aot/videos/S_yt-nE8YJOhW4e4_171.mp4	0.0	259.3835527896881	0.10001015663146973
60	201.03170895576477	fix_pre	0		221.0	58.0	2.5	/experiments/knapen_aot/videos/R_S_yt-RVoC19C420Y_27.mp4	0.0	259.4835629463196	1.8415820598602295
60	202.8651659488678	response	0	2		58.0	2.5	/experiments/knapen_aot/videos/R_S_yt-RVoC19C420Y_27.mp4	0.0	261.3170199394226	
60	202.873291015625	movie	1		301.0	58.0	2.5	/experiments/knapen_aot/videos/R_S_yt-RVoC19C420Y_27.mp4	0.0	261.3251450061798	2.508394956588745
60	205.38168597221375	fix_post	2		12.0	58.0	2.5	/experiments/knapen_aot/videos/R_S_yt-RVoC19C420Y_27.mp4	0.0	263.83353996276855	0.10003495216369629
61	205.48172092437744	fix_pre	0		67.0	59.0	2.5	/experiments/knapen_aot/videos/R_S_yt-9pYW_TqVpU4_43.mp4	0.0	263.93357491493225	0.5582358837127686
61	206.03179597854614	response	0	2		59.0	2.5	/experiments/knapen_aot/videos/R_S_yt-9pYW_TqVpU4_43.mp4	0.0	264.48364996910095	
61	206.0399568080902	movie	1		301.0	59.0	2.5	/experiments/knapen_aot/videos/R_S_yt-9pYW_TqVpU4_43.mp4	0.0	264.491810798645	2.5083231925964355
61	208.54828000068665	fix_post	2		12.0	59.0	2.5	/experiments/knapen_aot/videos/R_S_yt-9pYW_TqVpU4_43.mp4	0.0	267.00013399124146	0.1000058650970459
62	208.6482858657837	fix_pre	0		78.0	60.0	2.5	/experiments/knapen_aot/videos/R_S_yt-IDpUZ2NWBUY_60.mp4	0.0	267.1001398563385	0.6500189304351807
62	209.29011487960815	response	0	2		60.0	2.5	/experiments/knapen_aot/videos/R_S_yt-IDpUZ2NWBUY_60.mp4	0.0	267.74196887016296	
62	209.29830479621887	movie	1		301.0	60.0	2.5	/experiments/knapen_aot/videos/R_S_yt-IDpUZ2NWBUY_60.mp4	0.0	267.7501587867737	2.508316993713379
62	211.80662178993225	fix_post	2		12.0	60.0	2.5	/experiments/knapen_aot/videos/R_S_yt-IDpUZ2NWBUY_60.mp4	0.0	270.25847578048706	0.09996199607849121
63	211.90658378601074	fix_pre	0		373.0	61.0	2.5	/experiments/knapen_aot/videos/S_yt-9Q7SZR0mgMA_155.mp4	0.0	270.35843777656555	3.1083381175994873
63	215.00663781166077	response	0	2		61.0	2.5	/experiments/knapen_aot/videos/S_yt-9Q7SZR0mgMA_155.mp4	0.0	273.4584918022156	
63	215.01492190361023	movie	1		301.0	61.0	2.5	/experiments/knapen_aot/videos/S_yt-9Q7SZR0mgMA_155.mp4	0.0	273.46677589416504	2.508366107940674
63	217.5232880115509	fix_post	2		12.0	61.0	2.5	/experiments/knapen_aot/videos/S_yt-9Q7SZR0mgMA_155.mp4	0.0	275.9751420021057	0.10000395774841309
64	217.62329196929932	fix_pre	0		196.0	62.0	2.5	blank	1.0	276.0751459598541	1.6332969665527344
64	219.24844193458557	response	0	2		62.0	2.5	blank	1.0	277.7002959251404	
64	219.25658893585205	movie	1		301.0	62.0	2.5	blank	1.0	277.70844292640686	2.5083088874816895
64	221.76489782333374	fix_post	2		12.0	62.0	2.5	blank	1.0	280.21675181388855	0.10003805160522461
65	221.86493587493896	fix_pre	0		78.0	63.0	2.5	/experiments/knapen_aot/videos/R_S_yt-lkpfs_4qAGE_50.mp4	0.0	280.3167898654938	0.6499481201171875
65	222.50673294067383	response	0	2		63.0	2.5	/experiments/knapen_aot/videos/R_S_yt-lkpfs_4qAGE_50.mp4	0.0	280.95858693122864	
65	222.51488399505615	movie	1		301.0	63.0	2.5	/experiments/knapen_aot/videos/R_S_yt-lkpfs_4qAGE_50.mp4	0.0	280.96673798561096	2.508319854736328
65	225.02320384979248	fix_post	2		12.0	63.0	2.5	/experiments/knapen_aot/videos/R_S_yt-lkpfs_4qAGE_50.mp4	0.0	283.4750578403473	0.10006594657897949
66	225.12326979637146	fix_pre	0		59.0	64.0	2.5	/experiments/knapen_aot/videos/S_comp_LA_A011_C003_DGRN_LNFIX_STAB_v57_SDR_PS_20181002_SDR_2K_AVC.mp4	0.0	283.57512378692627	0.49230003356933594
66	225.60681891441345	response	0	2		64.0	2.5	/experiments/knapen_aot/videos/S_comp_LA_A011_C003_DGRN_LNFIX_STAB_v57_SDR_PS_20181002_SDR_2K_AVC.mp4	0.0	284.05867290496826	
66	225.6155698299408	movie	1		167.0	64.0	2.5	/experiments/knapen_aot/videos/S_comp_LA_A011_C003_DGRN_LNFIX_STAB_v57_SDR_PS_20181002_SDR_2K_AVC.mp4	0.0	284.0674238204956	2.5075430870056152
66	228.1231129169464	fix_post	2		12.0	64.0	2.5	/experiments/knapen_aot/videos/S_comp_LA_A011_C003_DGRN_LNFIX_STAB_v57_SDR_PS_20181002_SDR_2K_AVC.mp4	0.0	286.5749669075012	0.10008907318115234
67	228.22320199012756	fix_pre	0		25.0	65.0	2.5	/experiments/knapen_aot/videos/R_S_yt-zh2yLr-o_8A_953.mp4	0.0	286.6750559806824	0.20833086967468262
67	228.4233319759369	response	0	2		65.0	2.5	/experiments/knapen_aot/videos/R_S_yt-zh2yLr-o_8A_953.mp4	0.0	286.8751859664917	
67	228.43153285980225	movie	1		301.0	65.0	2.5	/experiments/knapen_aot/videos/R_S_yt-zh2yLr-o_8A_953.mp4	0.0	286.88338685035706	2.508331060409546
67	230.9398639202118	fix_post	2		12.0	65.0	2.5	/experiments/knapen_aot/videos/R_S_yt-zh2yLr-o_8A_953.mp4	0.0	289.3917179107666	0.09995102882385254
68	231.03981494903564	fix_pre	0		46.0	66.0	2.5	/experiments/knapen_aot/videos/R_S_pexels-mikael-blomkvist-8689852.mp4	0.0	289.49166893959045	0.3832828998565674
68	231.40756583213806	response	0	2		66.0	2.5	/experiments/knapen_aot/videos/R_S_pexels-mikael-blomkvist-8689852.mp4	0.0	289.85941982269287	
68	231.4230978488922	movie	1		164.0	66.0	2.5	/experiments/knapen_aot/videos/R_S_pexels-mikael-blomkvist-8689852.mp4	0.0	289.874951839447	2.5084550380706787
68	233.9315528869629	fix_post	2		12.0	66.0	2.5	/experiments/knapen_aot/videos/R_S_pexels-mikael-blomkvist-8689852.mp4	0.0	292.3834068775177	0.09991002082824707
69	234.03146290779114	fix_pre	0		174.0	67.0	2.5	/experiments/knapen_aot/videos/R_S_yt-aSEKRE_FNaI_62.mp4	0.0	292.48331689834595	1.4500548839569092
69	235.47334384918213	response	0	2		67.0	2.5	/experiments/knapen_aot/videos/R_S_yt-aSEKRE_FNaI_62.mp4	0.0	293.92519783973694	
69	235.48151779174805	movie	1		301.0	67.0	2.5	/experiments/knapen_aot/videos/R_S_yt-aSEKRE_FNaI_62.mp4	0.0	293.93337178230286	2.508350133895874
69	237.98986792564392	fix_post	2		12.0	67.0	2.5	/experiments/knapen_aot/videos/R_S_yt-aSEKRE_FNaI_62.mp4	0.0	296.44172191619873	0.0999748706817627
70	238.08984279632568	fix_pre	0		29.0	68.0	2.5	/experiments/knapen_aot/videos/S_yt-uSHBdUi8_V0_24.mp4	0.0	296.5416967868805	0.24166011810302734
70	238.32329893112183	response	0	2		68.0	2.5	/experiments/knapen_aot/videos/S_yt-uSHBdUi8_V0_24.mp4	0.0	296.77515292167664	
70	238.3315029144287	movie	1		301.0	68.0	2.5	/experiments/knapen_aot/videos/S_yt-uSHBdUi8_V0_24.mp4	0.0	296.7833569049835	2.5083298683166504
70	240.83983278274536	fix_post	2		12.0	68.0	2.5	/experiments/knapen_aot/videos/S_yt-uSHBdUi8_V0_24.mp4	0.0	299.29168677330017	0.09999704360961914
71	240.93982982635498	fix_pre	0		32.0	69.0	2.5	/experiments/knapen_aot/videos/R_S_yt-mL3MuCfKtdY_79.mp4	0.0	299.3916838169098	0.2666480541229248
71	241.19821000099182	response	0	2		69.0	2.5	/experiments/knapen_aot/videos/R_S_yt-mL3MuCfKtdY_79.mp4	0.0	299.65006399154663	
71	241.2064778804779	movie	1		300.0	69.0	2.5	/experiments/knapen_aot/videos/R_S_yt-mL3MuCfKtdY_79.mp4	0.0	299.6583318710327	2.508341073989868
71	243.71481895446777	fix_post	2		12.0	69.0	2.5	/experiments/knapen_aot/videos/R_S_yt-mL3MuCfKtdY_79.mp4	0.0	302.1666729450226	0.10000395774841309
72	243.8148229122162	fix_pre	0		49.0	70.0	2.5	blank	1.0	302.266676902771	0.40834808349609375
72	244.21493887901306	response	0	2		70.0	2.5	blank	1.0	302.66679286956787	
72	244.22317099571228	movie	1		301.0	70.0	2.5	blank	1.0	302.6750249862671	2.508309841156006
72	246.7314808368683	fix_post	2		12.0	70.0	2.5	blank	1.0	305.1833348274231	0.10002803802490234
73	246.8315088748932	fix_pre	0		40.0	71.0	2.5	/experiments/knapen_aot/videos/S_FZ0hLmjCR0s_26.mp4	0.0	305.283362865448	0.3332791328430176
73	247.15659880638123	response	0	2		71.0	2.5	/experiments/knapen_aot/videos/S_FZ0hLmjCR0s_26.mp4	0.0	305.60845279693604	
73	247.1647880077362	movie	1		301.0	71.0	2.5	/experiments/knapen_aot/videos/S_FZ0hLmjCR0s_26.mp4	0.0	305.616641998291	2.5083718299865723
73	249.67315983772278	fix_post	2		12.0	71.0	2.5	/experiments/knapen_aot/videos/S_FZ0hLmjCR0s_26.mp4	0.0	308.1250138282776	0.09995412826538086
74	249.77311396598816	fix_pre	0		37.0	72.0	2.5	/experiments/knapen_aot/videos/R_S_yt-mJzkLd3Mr_c_35.mp4	0.0	308.22496795654297	0.3082399368286133
74	250.06585097312927	response	0	2		72.0	2.5	/experiments/knapen_aot/videos/R_S_yt-mJzkLd3Mr_c_35.mp4	0.0	308.5177049636841	
74	250.08135390281677	movie	1		301.0	72.0	2.5	/experiments/knapen_aot/videos/R_S_yt-mJzkLd3Mr_c_35.mp4	0.0	308.5332078933716	2.5083858966827393
74	252.5897397994995	fix_post	2		12.0	72.0	2.5	/experiments/knapen_aot/videos/R_S_yt-mJzkLd3Mr_c_35.mp4	0.0	311.0415937900543	0.10006117820739746
75	252.6898009777069	fix_pre	0		66.0	73.0	2.5	/experiments/knapen_aot/videos/R_S_yt-kNZUFy3cbjQ_9.mp4	0.0	311.1416549682617	0.5504918098449707
75	253.23163890838623	response	0	2		73.0	2.5	/experiments/knapen_aot/videos/R_S_yt-kNZUFy3cbjQ_9.mp4	0.0	311.68349289894104	
75	253.24029278755188	movie	1		301.0	73.0	2.5	/experiments/knapen_aot/videos/R_S_yt-kNZUFy3cbjQ_9.mp4	0.0	311.6921467781067	2.5078330039978027
75	255.74812579154968	fix_post	2		12.0	73.0	2.5	/experiments/knapen_aot/videos/R_S_yt-kNZUFy3cbjQ_9.mp4	0.0	314.1999797821045	0.09999203681945801
76	255.84811782836914	fix_pre	0		65.0	74.0	2.5	/experiments/knapen_aot/videos/R_S_ILSVRC2015_train_00067003.mp4	0.0	314.29997181892395	0.5416581630706787
76	256.37407183647156	response	0	2		74.0	2.5	/experiments/knapen_aot/videos/R_S_ILSVRC2015_train_00067003.mp4	0.0	314.82592582702637	
76	256.3897759914398	movie	1		301.0	74.0	2.5	/experiments/knapen_aot/videos/R_S_ILSVRC2015_train_00067003.mp4	0.0	314.84162998199463	2.50833797454834
76	258.89811396598816	fix_post	2		12.0	74.0	2.5	/experiments/knapen_aot/videos/R_S_ILSVRC2015_train_00067003.mp4	0.0	317.34996795654297	0.1000359058380127
77	258.9981498718262	fix_pre	0		38.0	75.0	2.5	/experiments/knapen_aot/videos/S_pexels-koolshooters-7327405.mp4	0.0	317.450003862381	0.3166060447692871
77	259.30656385421753	response	0	2		75.0	2.5	/experiments/knapen_aot/videos/S_pexels-koolshooters-7327405.mp4	0.0	317.75841784477234	
77	259.31475591659546	movie	1		164.0	75.0	2.5	/experiments/knapen_aot/videos/S_pexels-koolshooters-7327405.mp4	0.0	317.76660990715027	2.5085039138793945
77	261.82325983047485	fix_post	2		12.0	75.0	2.5	/experiments/knapen_aot/videos/S_pexels-koolshooters-7327405.mp4	0.0	320.27511382102966	0.09983301162719727
78	261.92309284210205	fix_pre	0		373.0	76.0	2.5	blank	1.0	320.37494683265686	3.1088790893554688
78	265.0232059955597	response	0	2		76.0	2.5	blank	1.0	323.4750599861145	
78	265.0319719314575	movie	1		301.0	76.0	2.5	blank	1.0	323.48382592201233	2.5077600479125977
78	267.5397319793701	fix_post	2		12.0	76.0	2.5	blank	1.0	325.9915859699249	0.09997987747192383
79	267.63971185684204	fix_pre	0		22.0	77.0	2.5	/experiments/knapen_aot/videos/S_yt-wrxk7fFkxHg_177.mp4	0.0	326.09156584739685	0.1836869716644287
79	267.814749956131	response	0	2		77.0	2.5	/experiments/knapen_aot/videos/S_yt-wrxk7fFkxHg_177.mp4	0.0	326.2666039466858	
79	267.82339882850647	movie	1		300.0	77.0	2.5	/experiments/knapen_aot/videos/S_yt-wrxk7fFkxHg_177.mp4	0.0	326.2752528190613	2.5080041885375977
79	270.33140301704407	fix_post	2		12.0	77.0	2.5	/experiments/knapen_aot/videos/S_yt-wrxk7fFkxHg_177.mp4	0.0	328.7832570075989	0.1000208854675293
80	270.4314239025116	fix_pre	0		18.0	78.0	2.5	/experiments/knapen_aot/videos/S_yt-O_6CyqHeJig_132.mp4	0.0	328.8832778930664	0.14994192123413086
80	270.57322788238525	response	0	2		78.0	2.5	/experiments/knapen_aot/videos/S_yt-O_6CyqHeJig_132.mp4	0.0	329.02508187294006	
80	270.5813658237457	movie	1		301.0	78.0	2.5	/experiments/knapen_aot/videos/S_yt-O_6CyqHeJig_132.mp4	0.0	329.03321981430054	2.5083611011505127
80	273.08972692489624	fix_post	2		12.0	78.0	2.5	/experiments/knapen_aot/videos/S_yt-O_6CyqHeJig_132.mp4	0.0	331.54158091545105	0.09997797012329102
81	273.18970489501953	fix_pre	0		30.0	79.0	2.5	/experiments/knapen_aot/videos/S_yt-83nimFMNhrM_131.mp4	0.0	331.64155888557434	0.24998998641967773
81	273.4315028190613	response	0	2		79.0	2.5	/experiments/knapen_aot/videos/S_yt-83nimFMNhrM_131.mp4	0.0	331.8833568096161	
81	273.4396948814392	movie	1		301.0	79.0	2.5	/experiments/knapen_aot/videos/S_yt-83nimFMNhrM_131.mp4	0.0	331.891548871994	2.5083301067352295
81	275.94802498817444	fix_post	2		12.0	79.0	2.5	/experiments/knapen_aot/videos/S_yt-83nimFMNhrM_131.mp4	0.0	334.39987897872925	0.10003900527954102
82	276.048063993454	fix_pre	0		31.0	80.0	2.5	/experiments/knapen_aot/videos/R_S_yt-IDpUZ2NWBUY_60.mp4	0.0	334.4999179840088	0.2582848072052002
82	276.29814887046814	response	0	2		80.0	2.5	/experiments/knapen_aot/videos/R_S_yt-IDpUZ2NWBUY_60.mp4	0.0	334.75000286102295	
82	276.3063488006592	movie	1		301.0	80.0	2.5	/experiments/knapen_aot/videos/R_S_yt-IDpUZ2NWBUY_60.mp4	0.0	334.758202791214	2.5083630084991455
82	278.8147118091583	fix_post	2		12.0	80.0	2.5	/experiments/knapen_aot/videos/R_S_yt-IDpUZ2NWBUY_60.mp4	0.0	337.26656579971313	0.09998106956481934
83	278.91469287872314	fix_pre	0		30.0	81.0	2.5	/experiments/knapen_aot/videos/R_S_yt-TSSPDwAQLXs_158.mp4	0.0	337.36654686927795	0.2500131130218506
83	279.1565079689026	response	0	2		81.0	2.5	/experiments/knapen_aot/videos/R_S_yt-TSSPDwAQLXs_158.mp4	0.0	337.6083619594574	
83	279.164705991745	movie	1		301.0	81.0	2.5	/experiments/knapen_aot/videos/R_S_yt-TSSPDwAQLXs_158.mp4	0.0	337.6165599822998	2.5083558559417725
83	281.67306184768677	fix_post	2		12.0	81.0	2.5	/experiments/knapen_aot/videos/R_S_yt-TSSPDwAQLXs_158.mp4	0.0	340.1249158382416	0.09994101524353027
84	281.7730028629303	fix_pre	0		30.0	82.0	2.5	/experiments/knapen_aot/videos/R_S_video_inspire_oregon_portland_00064.1080-h264.mp4	0.0	340.2248568534851	0.2500300407409668
84	282.0148379802704	response	0	2		82.0	2.5	/experiments/knapen_aot/videos/R_S_video_inspire_oregon_portland_00064.1080-h264.mp4	0.0	340.4666919708252	
84	282.02303290367126	movie	1		168.0	82.0	2.5	/experiments/knapen_aot/videos/R_S_video_inspire_oregon_portland_00064.1080-h264.mp4	0.0	340.4748868942261	2.5082969665527344
84	284.531329870224	fix_post	2		12.0	82.0	2.5	/experiments/knapen_aot/videos/R_S_video_inspire_oregon_portland_00064.1080-h264.mp4	0.0	342.9831838607788	0.09996509552001953
85	284.631294965744	fix_pre	0		7.0	83.0	2.5	blank	1.0	343.0831489562988	0.05841493606567383
85	284.67460799217224	response	0	2		83.0	2.5	blank	1.0	343.12646198272705	
85	284.6897099018097	movie	1		301.0	83.0	2.5	blank	1.0	343.1415638923645	2.5082359313964844
85	287.1979458332062	fix_post	2		12.0	83.0	2.5	blank	1.0	345.649799823761	0.09999608993530273
87	287.2979419231415	stim	0		159.0					345.7497959136963	1.324967861175537
87	287.31481885910034	response	0	2						345.76667284965515	
87	288.6171669960022	response	0	space						347.069020986557	
