trial_nr	onset	event_type	phase	response	nr_frames	movie_index	movie_duration	movie_file	blank	onset_abs	duration
0	0.13329696655273438	stim	0		60.0					84.15937399864197	0.5003578662872314
0	0.624924898147583	response	0	space						84.65100193023682	
1	0.6336548328399658	stim	0		121.0					84.6597318649292	1.0074901580810547
1	1.6411449909210205	stim	1		120.0					85.66722202301025	1.0000598430633545
1	2.49177885055542	response	1	space						86.51785588264465	
2	2.641204833984375	fix_pre	0		105.0	0.0	2.5	/experiments/knapen_aot/videos/S_yt-GO26QIueqRw_385.mp4	0.0	86.66728186607361	0.8749790191650391
2	3.507964849472046	response	0	space		0.0	2.5	/experiments/knapen_aot/videos/S_yt-GO26QIueqRw_385.mp4	0.0	87.53404188156128	
2	3.516183853149414	movie	1		300.0	0.0	2.5	/experiments/knapen_aot/videos/S_yt-GO26QIueqRw_385.mp4	0.0	87.54226088523865	2.508378028869629
2	6.024561882019043	fix_post	2		12.0	0.0	2.5	/experiments/knapen_aot/videos/S_yt-GO26QIueqRw_385.mp4	0.0	90.05063891410828	0.10011601448059082
3	6.124677896499634	fix_pre	0		23.0	1.0	2.5	/experiments/knapen_aot/videos/R_S_ILSVRC2015_train_00594000.mp4	0.0	90.15075492858887	0.1932079792022705
3	6.312398910522461	response	0	2		1.0	2.5	/experiments/knapen_aot/videos/R_S_ILSVRC2015_train_00594000.mp4	0.0	90.3384759426117	
3	6.317885875701904	movie	1		301.0	1.0	2.5	/experiments/knapen_aot/videos/R_S_ILSVRC2015_train_00594000.mp4	0.0	90.34396290779114	2.506659984588623
3	8.824545860290527	fix_post	2		12.0	1.0	2.5	/experiments/knapen_aot/videos/R_S_ILSVRC2015_train_00594000.mp4	0.0	92.85062289237976	0.09999895095825195
4	8.92454481124878	fix_pre	0		32.0	2.0	2.5	/experiments/knapen_aot/videos/R_S_yt-YLcmfyfIokU_64.mp4	0.0	92.95062184333801	0.26665616035461426
4	9.183005809783936	response	0	2		2.0	2.5	/experiments/knapen_aot/videos/R_S_yt-YLcmfyfIokU_64.mp4	0.0	93.20908284187317	
4	9.191200971603394	movie	1		301.0	2.0	2.5	/experiments/knapen_aot/videos/R_S_yt-YLcmfyfIokU_64.mp4	0.0	93.21727800369263	2.508272886276245
4	11.699473857879639	fix_post	2		12.0	2.0	2.5	/experiments/knapen_aot/videos/R_S_yt-YLcmfyfIokU_64.mp4	0.0	95.72555088996887	0.1000521183013916
5	11.79952597618103	fix_pre	0		123.0	3.0	2.5	/experiments/knapen_aot/videos/S_P001_C005_UHD_SDR_2K_AVC.mp4	0.0	95.82560300827026	1.02524995803833
5	12.816339015960693	response	0	2		3.0	2.5	/experiments/knapen_aot/videos/S_P001_C005_UHD_SDR_2K_AVC.mp4	0.0	96.84241604804993	
5	12.82477593421936	movie	1		168.0	3.0	2.5	/experiments/knapen_aot/videos/S_P001_C005_UHD_SDR_2K_AVC.mp4	0.0	96.8508529663086	2.5080718994140625
5	15.332847833633423	fix_post	2		12.0	3.0	2.5	/experiments/knapen_aot/videos/S_P001_C005_UHD_SDR_2K_AVC.mp4	0.0	99.35892486572266	0.10000896453857422
6	15.432856798171997	fix_pre	0		26.0	4.0	2.5	/experiments/knapen_aot/videos/R_S_yt-yJmHtBFyhH4_15.mp4	0.0	99.45893383026123	0.21666908264160156
6	15.641273021697998	response	0	2		4.0	2.5	/experiments/knapen_aot/videos/R_S_yt-yJmHtBFyhH4_15.mp4	0.0	99.66735005378723	
6	15.649525880813599	movie	1		298.0	4.0	2.5	/experiments/knapen_aot/videos/R_S_yt-yJmHtBFyhH4_15.mp4	0.0	99.67560291290283	2.5082690715789795
6	18.157794952392578	fix_post	2		12.0	4.0	2.5	/experiments/knapen_aot/videos/R_S_yt-yJmHtBFyhH4_15.mp4	0.0	102.18387198448181	0.099945068359375
7	18.257740020751953	fix_pre	0		33.0	5.0	2.5	/experiments/knapen_aot/videos/R_S_yt-1ruRqcfBMw0_21.mp4	0.0	102.28381705284119	0.2752718925476074
7	18.524642944335938	response	0	2		5.0	2.5	/experiments/knapen_aot/videos/R_S_yt-1ruRqcfBMw0_21.mp4	0.0	102.55071997642517	
7	18.53301191329956	movie	1		301.0	5.0	2.5	/experiments/knapen_aot/videos/R_S_yt-1ruRqcfBMw0_21.mp4	0.0	102.5590889453888	2.5081920623779297
7	21.04120397567749	fix_post	2		12.0	5.0	2.5	/experiments/knapen_aot/videos/R_S_yt-1ruRqcfBMw0_21.mp4	0.0	105.06728100776672	0.09999895095825195
8	21.141202926635742	fix_pre	0		28.0	6.0	2.5	blank	1.0	105.16727995872498	0.23331689834594727
8	21.36653780937195	response	0	2		6.0	2.5	blank	1.0	105.39261484146118	
8	21.37451982498169	movie	1		301.0	6.0	2.5	blank	1.0	105.40059685707092	2.5082831382751465
8	23.882802963256836	fix_post	2		12.0	6.0	2.5	blank	1.0	107.90887999534607	0.10007596015930176
9	23.982878923416138	fix_pre	0		141.0	7.0	2.5	/experiments/knapen_aot/videos/R_S_Y004_C015_SDR_2K_AVC.mp4	0.0	108.00895595550537	1.1751489639282227
9	25.149658918380737	response	0	2		7.0	2.5	/experiments/knapen_aot/videos/R_S_Y004_C015_SDR_2K_AVC.mp4	0.0	109.17573595046997	
9	25.15802788734436	movie	1		171.0	7.0	2.5	/experiments/knapen_aot/videos/R_S_Y004_C015_SDR_2K_AVC.mp4	0.0	109.1841049194336	2.508167028427124
9	27.666194915771484	fix_post	2		12.0	7.0	2.5	/experiments/knapen_aot/videos/R_S_Y004_C015_SDR_2K_AVC.mp4	0.0	111.69227194786072	0.09995007514953613
10	27.76614499092102	fix_pre	0		43.0	8.0	2.5	/experiments/knapen_aot/videos/R_S_yt-0Zze3Ff12Ys_58.mp4	0.0	111.79222202301025	0.35831689834594727
10	28.116302967071533	response	0	2		8.0	2.5	/experiments/knapen_aot/videos/R_S_yt-0Zze3Ff12Ys_58.mp4	0.0	112.14237999916077	
10	28.124461889266968	movie	1		301.0	8.0	2.5	/experiments/knapen_aot/videos/R_S_yt-0Zze3Ff12Ys_58.mp4	0.0	112.1505389213562	2.5083069801330566
10	30.632768869400024	fix_post	2		12.0	8.0	2.5	/experiments/knapen_aot/videos/R_S_yt-0Zze3Ff12Ys_58.mp4	0.0	114.65884590148926	0.09999704360961914
11	30.732765913009644	fix_pre	0		41.0	9.0	2.5	/experiments/knapen_aot/videos/S_ioSkDvwpEaU_35.mp4	0.0	114.75884294509888	0.3418300151824951
11	31.066282987594604	response	0	2		9.0	2.5	/experiments/knapen_aot/videos/S_ioSkDvwpEaU_35.mp4	0.0	115.09236001968384	
11	31.07459592819214	movie	1		301.0	9.0	2.5	/experiments/knapen_aot/videos/S_ioSkDvwpEaU_35.mp4	0.0	115.10067296028137	2.508120059967041
11	33.58271598815918	fix_post	2		12.0	9.0	2.5	/experiments/knapen_aot/videos/S_ioSkDvwpEaU_35.mp4	0.0	117.60879302024841	0.10001993179321289
12	33.68273591995239	fix_pre	0		20.0	10.0	2.5	/experiments/knapen_aot/videos/R_S_yt-IDpUZ2NWBUY_60.mp4	0.0	117.70881295204163	0.16670799255371094
12	33.841139793395996	response	0	2		10.0	2.5	/experiments/knapen_aot/videos/R_S_yt-IDpUZ2NWBUY_60.mp4	0.0	117.86721682548523	
12	33.8494439125061	movie	1		301.0	10.0	2.5	/experiments/knapen_aot/videos/R_S_yt-IDpUZ2NWBUY_60.mp4	0.0	117.87552094459534	2.5083489418029785
12	36.35779285430908	fix_post	2		12.0	10.0	2.5	/experiments/knapen_aot/videos/R_S_yt-IDpUZ2NWBUY_60.mp4	0.0	120.38386988639832	0.10004615783691406
13	36.457839012145996	fix_pre	0		5.0	11.0	2.5	/experiments/knapen_aot/videos/S_DV6V38rplag_215.mp4	0.0	120.48391604423523	0.04163098335266113
13	36.49188685417175	response	0	2		11.0	2.5	/experiments/knapen_aot/videos/S_DV6V38rplag_215.mp4	0.0	120.51796388626099	
13	36.49946999549866	movie	1		301.0	11.0	2.5	/experiments/knapen_aot/videos/S_DV6V38rplag_215.mp4	0.0	120.52554702758789	2.5082859992980957
13	39.00775599479675	fix_post	2		12.0	11.0	2.5	/experiments/knapen_aot/videos/S_DV6V38rplag_215.mp4	0.0	123.03383302688599	0.09995079040527344
14	39.107706785202026	fix_pre	0		16.0	12.0	2.5	/experiments/knapen_aot/videos/S_pexels-c-technical-6763571.mp4	0.0	123.13378381729126	0.13348913192749023
14	39.2328519821167	response	0	2		12.0	2.5	/experiments/knapen_aot/videos/S_pexels-c-technical-6763571.mp4	0.0	123.25892901420593	
14	39.24119591712952	movie	1		204.0	12.0	2.5	/experiments/knapen_aot/videos/S_pexels-c-technical-6763571.mp4	0.0	123.26727294921875	2.5081350803375244
14	41.74933099746704	fix_post	2		12.0	12.0	2.5	/experiments/knapen_aot/videos/S_pexels-c-technical-6763571.mp4	0.0	125.77540802955627	0.10008001327514648
15	41.84941101074219	fix_pre	0		10.0	13.0	2.5	/experiments/knapen_aot/videos/R_S_yt-zSSnQYeO_DE_338.mp4	0.0	125.87548804283142	0.08326387405395508
15	41.92455983161926	response	0	2		13.0	2.5	/experiments/knapen_aot/videos/R_S_yt-zSSnQYeO_DE_338.mp4	0.0	125.9506368637085	
15	41.93267488479614	movie	1		301.0	13.0	2.5	/experiments/knapen_aot/videos/R_S_yt-zSSnQYeO_DE_338.mp4	0.0	125.95875191688538	2.508350133895874
15	44.44102501869202	fix_post	2		12.0	13.0	2.5	/experiments/knapen_aot/videos/R_S_yt-zSSnQYeO_DE_338.mp4	0.0	128.46710205078125	0.09999585151672363
16	44.54102087020874	fix_pre	0		23.0	14.0	2.5	blank	1.0	128.56709790229797	0.19160199165344238
16	44.72452998161316	response	0	2		14.0	2.5	blank	1.0	128.7506070137024	
16	44.73262286186218	movie	1		301.0	14.0	2.5	blank	1.0	128.75869989395142	2.508618116378784
16	47.24124097824097	fix_post	2		12.0	14.0	2.5	blank	1.0	131.2673180103302	0.09976387023925781
17	47.341004848480225	fix_pre	0		18.0	15.0	2.5	/experiments/knapen_aot/videos/R_S_yt-qBPDvSQD0XY_5.mp4	0.0	131.36708188056946	0.15012907981872559
17	47.48275279998779	response	0	2		15.0	2.5	/experiments/knapen_aot/videos/R_S_yt-qBPDvSQD0XY_5.mp4	0.0	131.50882983207703	
17	47.49113392829895	movie	1		300.0	15.0	2.5	/experiments/knapen_aot/videos/R_S_yt-qBPDvSQD0XY_5.mp4	0.0	131.51721096038818	2.508327007293701
17	49.99946093559265	fix_post	2		12.0	15.0	2.5	/experiments/knapen_aot/videos/R_S_yt-qBPDvSQD0XY_5.mp4	0.0	134.02553796768188	0.09996390342712402
18	50.099424839019775	fix_pre	0		17.0	16.0	2.5	/experiments/knapen_aot/videos/S_yt-7bSTxOajpjc_58.mp4	0.0	134.125501871109	0.1416921615600586
18	50.23289489746094	response	0	2		16.0	2.5	/experiments/knapen_aot/videos/S_yt-7bSTxOajpjc_58.mp4	0.0	134.25897192955017	
18	50.241117000579834	movie	1		301.0	16.0	2.5	/experiments/knapen_aot/videos/S_yt-7bSTxOajpjc_58.mp4	0.0	134.26719403266907	2.5082969665527344
18	52.74941396713257	fix_post	2		12.0	16.0	2.5	/experiments/knapen_aot/videos/S_yt-7bSTxOajpjc_58.mp4	0.0	136.7754909992218	0.099884033203125
19	52.84929800033569	fix_pre	0		15.0	17.0	2.5	/experiments/knapen_aot/videos/S_yt-ZwnliF0525U_95.mp4	0.0	136.87537503242493	0.1250150203704834
19	52.96618294715881	response	0	2		17.0	2.5	/experiments/knapen_aot/videos/S_yt-ZwnliF0525U_95.mp4	0.0	136.99225997924805	
19	52.97431302070618	movie	1		301.0	17.0	2.5	/experiments/knapen_aot/videos/S_yt-ZwnliF0525U_95.mp4	0.0	137.0003900527954	2.5083529949188232
19	55.482666015625	fix_post	2		12.0	17.0	2.5	/experiments/knapen_aot/videos/S_yt-ZwnliF0525U_95.mp4	0.0	139.50874304771423	0.0999608039855957
20	55.582626819610596	fix_pre	0		20.0	18.0	2.5	/experiments/knapen_aot/videos/S_yt-lzXao6Reec4_14.mp4	0.0	139.60870385169983	0.16671013832092285
20	55.741153955459595	response	0	2		18.0	2.5	/experiments/knapen_aot/videos/S_yt-lzXao6Reec4_14.mp4	0.0	139.76723098754883	
20	55.74933695793152	movie	1		299.0	18.0	2.5	/experiments/knapen_aot/videos/S_yt-lzXao6Reec4_14.mp4	0.0	139.77541399002075	2.5083279609680176
20	58.257664918899536	fix_post	2		12.0	18.0	2.5	/experiments/knapen_aot/videos/S_yt-lzXao6Reec4_14.mp4	0.0	142.28374195098877	0.10005903244018555
20	58.33281588554382	response	2	2		18.0	2.5	/experiments/knapen_aot/videos/S_yt-lzXao6Reec4_14.mp4	0.0	142.35889291763306	
21	58.35772395133972	fix_pre	0		73.0	19.0	2.5	/experiments/knapen_aot/videos/S_pexels-vlada-karpovich-8044792.mp4	0.0	142.38380098342896	0.6082949638366699
21	58.95782399177551	response	0	2		19.0	2.5	/experiments/knapen_aot/videos/S_pexels-vlada-karpovich-8044792.mp4	0.0	142.98390102386475	
21	58.96601891517639	movie	1		171.0	19.0	2.5	/experiments/knapen_aot/videos/S_pexels-vlada-karpovich-8044792.mp4	0.0	142.99209594726562	2.508246898651123
21	61.474265813827515	fix_post	2		12.0	19.0	2.5	/experiments/knapen_aot/videos/S_pexels-vlada-karpovich-8044792.mp4	0.0	145.50034284591675	0.10006213188171387
22	61.57432794570923	fix_pre	0		31.0	20.0	2.5	blank	1.0	145.60040497779846	0.2582240104675293
22	61.82441687583923	response	0	2		20.0	2.5	blank	1.0	145.85049390792847	
22	61.83255195617676	movie	1		301.0	20.0	2.5	blank	1.0	145.858628988266	2.5084140300750732
22	64.34096598625183	fix_post	2		12.0	20.0	2.5	blank	1.0	148.36704301834106	0.09994792938232422
23	64.44091391563416	fix_pre	0		15.0	21.0	2.5	/experiments/knapen_aot/videos/R_S_yt-xgqx7tH92-c_6.mp4	0.0	148.4669909477234	0.12506103515625
23	64.55772089958191	response	0	2		21.0	2.5	/experiments/knapen_aot/videos/R_S_yt-xgqx7tH92-c_6.mp4	0.0	148.58379793167114	
23	64.5659749507904	movie	1		301.0	21.0	2.5	/experiments/knapen_aot/videos/R_S_yt-xgqx7tH92-c_6.mp4	0.0	148.59205198287964	2.508312940597534
23	67.07428789138794	fix_post	2		12.0	21.0	2.5	/experiments/knapen_aot/videos/R_S_yt-xgqx7tH92-c_6.mp4	0.0	151.10036492347717	0.0999610424041748
24	67.17424893379211	fix_pre	0		98.0	22.0	2.5	/experiments/knapen_aot/videos/R_S_yt-SyePE8wOlxs_321.mp4	0.0	151.20032596588135	0.8167209625244141
24	67.98278880119324	response	0	2		22.0	2.5	/experiments/knapen_aot/videos/R_S_yt-SyePE8wOlxs_321.mp4	0.0	152.00886583328247	
24	67.99096989631653	movie	1		301.0	22.0	2.5	/experiments/knapen_aot/videos/R_S_yt-SyePE8wOlxs_321.mp4	0.0	152.01704692840576	2.5083138942718506
24	70.49928379058838	fix_post	2		12.0	22.0	2.5	/experiments/knapen_aot/videos/R_S_yt-SyePE8wOlxs_321.mp4	0.0	154.5253608226776	0.1000051498413086
25	70.59928894042969	fix_pre	0		34.0	23.0	2.5	/experiments/knapen_aot/videos/R_S_ILSVRC2015_train_00165011.mp4	0.0	154.62536597251892	0.2832679748535156
25	70.87441802024841	response	0	2		23.0	2.5	/experiments/knapen_aot/videos/R_S_ILSVRC2015_train_00165011.mp4	0.0	154.90049505233765	
25	70.8825569152832	movie	1		301.0	23.0	2.5	/experiments/knapen_aot/videos/R_S_ILSVRC2015_train_00165011.mp4	0.0	154.90863394737244	2.5084519386291504
25	73.39100885391235	fix_post	2		12.0	23.0	2.5	/experiments/knapen_aot/videos/R_S_ILSVRC2015_train_00165011.mp4	0.0	157.4170858860016	0.09995102882385254
26	73.4909598827362	fix_pre	0		16.0	24.0	2.5	/experiments/knapen_aot/videos/S_yt-fCjjH_4i8Fg_115.mp4	0.0	157.51703691482544	0.13339900970458984
26	73.61606097221375	response	0	2		24.0	2.5	/experiments/knapen_aot/videos/S_yt-fCjjH_4i8Fg_115.mp4	0.0	157.64213800430298	
26	73.6243588924408	movie	1		301.0	24.0	2.5	/experiments/knapen_aot/videos/S_yt-fCjjH_4i8Fg_115.mp4	0.0	157.65043592453003	2.5082509517669678
26	76.13260984420776	fix_post	2		12.0	24.0	2.5	/experiments/knapen_aot/videos/S_yt-fCjjH_4i8Fg_115.mp4	0.0	160.158686876297	0.09998607635498047
27	76.23259592056274	fix_pre	0		25.0	25.0	2.5	/experiments/knapen_aot/videos/S_yt-2lnxIdOTxog_157.mp4	0.0	160.25867295265198	0.20829486846923828
27	76.43271493911743	response	0	2		25.0	2.5	/experiments/knapen_aot/videos/S_yt-2lnxIdOTxog_157.mp4	0.0	160.45879197120667	
27	76.44089078903198	movie	1		301.0	25.0	2.5	/experiments/knapen_aot/videos/S_yt-2lnxIdOTxog_157.mp4	0.0	160.46696782112122	2.5083491802215576
27	78.94923996925354	fix_post	2		12.0	25.0	2.5	/experiments/knapen_aot/videos/S_yt-2lnxIdOTxog_157.mp4	0.0	162.97531700134277	0.09999489784240723
28	79.04923486709595	fix_pre	0		51.0	26.0	2.5	/experiments/knapen_aot/videos/S_yt-JH6qCYAnX-I_70.mp4	0.0	163.07531189918518	0.42498207092285156
28	79.46607184410095	response	0	2		26.0	2.5	/experiments/knapen_aot/videos/S_yt-JH6qCYAnX-I_70.mp4	0.0	163.49214887619019	
28	79.4742169380188	movie	1		301.0	26.0	2.5	/experiments/knapen_aot/videos/S_yt-JH6qCYAnX-I_70.mp4	0.0	163.50029397010803	2.5084428787231445
28	81.98265981674194	fix_post	2		12.0	26.0	2.5	/experiments/knapen_aot/videos/S_yt-JH6qCYAnX-I_70.mp4	0.0	166.00873684883118	0.09990906715393066
29	82.08256888389587	fix_pre	0		109.0	27.0	2.5	/experiments/knapen_aot/videos/R_S_yt--a-d97T4Gak_75.mp4	0.0	166.1086459159851	0.9082860946655273
29	82.98266386985779	response	0	2		27.0	2.5	/experiments/knapen_aot/videos/R_S_yt--a-d97T4Gak_75.mp4	0.0	167.00874090194702	
29	82.9908549785614	movie	1		300.0	27.0	2.5	/experiments/knapen_aot/videos/R_S_yt--a-d97T4Gak_75.mp4	0.0	167.01693201065063	2.5083959102630615
29	85.49925088882446	fix_post	2		12.0	27.0	2.5	/experiments/knapen_aot/videos/R_S_yt--a-d97T4Gak_75.mp4	0.0	169.5253279209137	0.09995198249816895
30	85.59920287132263	fix_pre	0		35.0	28.0	2.5	blank	1.0	169.62527990341187	0.29161691665649414
30	85.88269996643066	response	0	2		28.0	2.5	blank	1.0	169.9087769985199	
30	85.89081978797913	movie	1		301.0	28.0	2.5	blank	1.0	169.91689682006836	2.5083441734313965
30	88.39916396141052	fix_post	2		12.0	28.0	2.5	blank	1.0	172.42524099349976	0.10007786750793457
31	88.49924182891846	fix_pre	0		36.0	29.0	2.5	/experiments/knapen_aot/videos/R_S_yt-qBPDvSQD0XY_5.mp4	0.0	172.5253188610077	0.3000211715698242
31	88.79093194007874	response	0	2		29.0	2.5	/experiments/knapen_aot/videos/R_S_yt-qBPDvSQD0XY_5.mp4	0.0	172.81700897216797	
31	88.79926300048828	movie	1		301.0	29.0	2.5	/experiments/knapen_aot/videos/R_S_yt-qBPDvSQD0XY_5.mp4	0.0	172.82534003257751	2.508272886276245
31	91.30753588676453	fix_post	2		12.0	29.0	2.5	/experiments/knapen_aot/videos/R_S_yt-qBPDvSQD0XY_5.mp4	0.0	175.33361291885376	0.1000070571899414
32	91.40754294395447	fix_pre	0		13.0	30.0	2.5	/experiments/knapen_aot/videos/S_yt-4RKOPaRF42o_124.mp4	0.0	175.4336199760437	0.1082620620727539
32	91.50767087936401	response	0	2		30.0	2.5	/experiments/knapen_aot/videos/S_yt-4RKOPaRF42o_124.mp4	0.0	175.53374791145325	
32	91.51580500602722	movie	1		301.0	30.0	2.5	/experiments/knapen_aot/videos/S_yt-4RKOPaRF42o_124.mp4	0.0	175.54188203811646	2.5083818435668945
32	94.02418684959412	fix_post	2		12.0	30.0	2.5	/experiments/knapen_aot/videos/S_yt-4RKOPaRF42o_124.mp4	0.0	178.05026388168335	0.10001015663146973
33	94.12419700622559	fix_pre	0		78.0	31.0	2.5	/experiments/knapen_aot/videos/R_S_yt-kAUL5o7i5mo_116.mp4	0.0	178.15027403831482	0.6512298583984375
33	94.7660059928894	response	0	2		31.0	2.5	/experiments/knapen_aot/videos/R_S_yt-kAUL5o7i5mo_116.mp4	0.0	178.79208302497864	
33	94.77542686462402	movie	1		301.0	31.0	2.5	/experiments/knapen_aot/videos/R_S_yt-kAUL5o7i5mo_116.mp4	0.0	178.80150389671326	2.507115125656128
33	97.28254199028015	fix_post	2		12.0	31.0	2.5	/experiments/knapen_aot/videos/R_S_yt-kAUL5o7i5mo_116.mp4	0.0	181.30861902236938	0.09999680519104004
34	97.38253879547119	fix_pre	0		28.0	32.0	2.5	/experiments/knapen_aot/videos/S_yt-8vm83GUgYxI_1.mp4	0.0	181.40861582756042	0.23331618309020996
34	97.60769891738892	response	0	2		32.0	2.5	/experiments/knapen_aot/videos/S_yt-8vm83GUgYxI_1.mp4	0.0	181.63377594947815	
34	97.6158549785614	movie	1		301.0	32.0	2.5	/experiments/knapen_aot/videos/S_yt-8vm83GUgYxI_1.mp4	0.0	181.64193201065063	2.508298873901367
34	100.12415385246277	fix_post	2		12.0	32.0	2.5	/experiments/knapen_aot/videos/S_yt-8vm83GUgYxI_1.mp4	0.0	184.150230884552	0.10004210472106934
35	100.22419595718384	fix_pre	0		15.0	33.0	2.5	/experiments/knapen_aot/videos/R_S_yt-7bSTxOajpjc_58.mp4	0.0	184.25027298927307	0.12499284744262695
35	100.34095501899719	response	0	2		33.0	2.5	/experiments/knapen_aot/videos/R_S_yt-7bSTxOajpjc_58.mp4	0.0	184.36703205108643	
35	100.34918880462646	movie	1		301.0	33.0	2.5	/experiments/knapen_aot/videos/R_S_yt-7bSTxOajpjc_58.mp4	0.0	184.3752658367157	2.508350133895874
35	102.85753893852234	fix_post	2		12.0	33.0	2.5	/experiments/knapen_aot/videos/R_S_yt-7bSTxOajpjc_58.mp4	0.0	186.88361597061157	0.09997391700744629
36	102.95751285552979	fix_pre	0		13.0	34.0	2.5	/experiments/knapen_aot/videos/S_yt-_WFwhcmbXXY_51.mp4	0.0	186.98358988761902	0.10949897766113281
36	103.05762982368469	response	0	2		34.0	2.5	/experiments/knapen_aot/videos/S_yt-_WFwhcmbXXY_51.mp4	0.0	187.08370685577393	
36	103.06701183319092	movie	1		301.0	34.0	2.5	/experiments/knapen_aot/videos/S_yt-_WFwhcmbXXY_51.mp4	0.0	187.09308886528015	2.507160186767578
36	105.5741720199585	fix_post	2		12.0	34.0	2.5	/experiments/knapen_aot/videos/S_yt-_WFwhcmbXXY_51.mp4	0.0	189.60024905204773	0.09994077682495117
37	105.67411279678345	fix_pre	0		33.0	35.0	2.5	blank	1.0	189.70018982887268	0.27505922317504883
37	105.94101285934448	response	0	2		35.0	2.5	blank	1.0	189.96708989143372	
37	105.9491720199585	movie	1		301.0	35.0	2.5	blank	1.0	189.97524905204773	2.508309841156006
37	108.4574818611145	fix_post	2		12.0	35.0	2.5	blank	1.0	192.48355889320374	0.10003900527954102
38	108.55752086639404	fix_pre	0		25.0	36.0	2.5	/experiments/knapen_aot/videos/R_S_yt-xrWo3lnbshw_80.mp4	0.0	192.58359789848328	0.20827507972717285
38	108.75762391090393	response	0	2		36.0	2.5	/experiments/knapen_aot/videos/R_S_yt-xrWo3lnbshw_80.mp4	0.0	192.78370094299316	
38	108.76579594612122	movie	1		298.0	36.0	2.5	/experiments/knapen_aot/videos/R_S_yt-xrWo3lnbshw_80.mp4	0.0	192.79187297821045	2.5083489418029785
38	111.2741448879242	fix_post	2		12.0	36.0	2.5	/experiments/knapen_aot/videos/R_S_yt-xrWo3lnbshw_80.mp4	0.0	195.30022192001343	0.09999799728393555
39	111.37414288520813	fix_pre	0		9.0	37.0	2.5	/experiments/knapen_aot/videos/S_yt-qE70lj3-A78_228.mp4	0.0	195.40021991729736	0.07498502731323242
39	111.44087982177734	response	0	2		37.0	2.5	/experiments/knapen_aot/videos/S_yt-qE70lj3-A78_228.mp4	0.0	195.46695685386658	
39	111.44912791252136	movie	1		301.0	37.0	2.5	/experiments/knapen_aot/videos/S_yt-qE70lj3-A78_228.mp4	0.0	195.4752049446106	2.5083370208740234
39	113.95746493339539	fix_post	2		12.0	37.0	2.5	/experiments/knapen_aot/videos/S_yt-qE70lj3-A78_228.mp4	0.0	197.98354196548462	0.09996199607849121
40	114.05742692947388	fix_pre	0		39.0	38.0	2.5	/experiments/knapen_aot/videos/R_S_ILSVRC2015_train_00594000.mp4	0.0	198.0835039615631	0.3250410556793213
40	114.37429285049438	response	0	2		38.0	2.5	/experiments/knapen_aot/videos/R_S_ILSVRC2015_train_00594000.mp4	0.0	198.40036988258362	
40	114.3824679851532	movie	1		301.0	38.0	2.5	/experiments/knapen_aot/videos/R_S_ILSVRC2015_train_00594000.mp4	0.0	198.40854501724243	2.5084028244018555
40	116.89087080955505	fix_post	2		12.0	38.0	2.5	/experiments/knapen_aot/videos/R_S_ILSVRC2015_train_00594000.mp4	0.0	200.9169478416443	0.09992313385009766
41	116.99079394340515	fix_pre	0		5.0	39.0	2.5	/experiments/knapen_aot/videos/S__6qAy77ODUI_175.mp4	0.0	201.01687097549438	0.04169487953186035
41	117.01693987846375	response	0	2		39.0	2.5	/experiments/knapen_aot/videos/S__6qAy77ODUI_175.mp4	0.0	201.04301691055298	
41	117.03248882293701	movie	1		301.0	39.0	2.5	/experiments/knapen_aot/videos/S__6qAy77ODUI_175.mp4	0.0	201.05856585502625	2.508277177810669
41	119.54076600074768	fix_post	2		12.0	39.0	2.5	/experiments/knapen_aot/videos/S__6qAy77ODUI_175.mp4	0.0	203.5668430328369	0.10002279281616211
42	119.64078879356384	fix_pre	0		15.0	40.0	2.5	/experiments/knapen_aot/videos/R_S_yt-iO0efV_PV-k_102.mp4	0.0	203.66686582565308	0.12489700317382812
42	119.75752902030945	response	0	2		40.0	2.5	/experiments/knapen_aot/videos/R_S_yt-iO0efV_PV-k_102.mp4	0.0	203.78360605239868	
42	119.76568579673767	movie	1		301.0	40.0	2.5	/experiments/knapen_aot/videos/R_S_yt-iO0efV_PV-k_102.mp4	0.0	203.7917628288269	2.5083940029144287
42	122.2740797996521	fix_post	2		12.0	40.0	2.5	/experiments/knapen_aot/videos/R_S_yt-iO0efV_PV-k_102.mp4	0.0	206.30015683174133	0.09993100166320801
43	122.37401080131531	fix_pre	0		1.0	41.0	2.5	/experiments/knapen_aot/videos/R_S_yt-x6tYi0lRGqU_114.mp4	0.0	206.40008783340454	0.008362054824829102
43	122.37564301490784	response	0	2		41.0	2.5	/experiments/knapen_aot/videos/R_S_yt-x6tYi0lRGqU_114.mp4	0.0	206.40172004699707	
43	122.38237285614014	movie	1		300.0	41.0	2.5	/experiments/knapen_aot/videos/R_S_yt-x6tYi0lRGqU_114.mp4	0.0	206.40844988822937	2.5083041191101074
43	124.89067697525024	fix_post	2		12.0	41.0	2.5	/experiments/knapen_aot/videos/R_S_yt-x6tYi0lRGqU_114.mp4	0.0	208.91675400733948	0.10004401206970215
44	124.99072098731995	fix_pre	0		14.0	42.0	2.5	blank	1.0	209.01679801940918	0.11660480499267578
44	125.09920883178711	response	0	2		42.0	2.5	blank	1.0	209.12528586387634	
44	125.10732579231262	movie	1		301.0	42.0	2.5	blank	1.0	209.13340282440186	2.5083820819854736
44	127.6157078742981	fix_post	2		12.0	42.0	2.5	blank	1.0	211.64178490638733	0.09997701644897461
45	127.71568489074707	fix_pre	0		27.0	43.0	2.5	/experiments/knapen_aot/videos/R_S__6qAy77ODUI_175.mp4	0.0	211.7417619228363	0.2260761260986328
45	127.93247389793396	response	0	2		43.0	2.5	/experiments/knapen_aot/videos/R_S__6qAy77ODUI_175.mp4	0.0	211.9585509300232	
45	127.9417610168457	movie	1		299.0	43.0	2.5	/experiments/knapen_aot/videos/R_S__6qAy77ODUI_175.mp4	0.0	211.96783804893494	2.507283926010132
45	130.44904494285583	fix_post	2		12.0	43.0	2.5	/experiments/knapen_aot/videos/R_S__6qAy77ODUI_175.mp4	0.0	214.47512197494507	0.09998703002929688
46	130.54903197288513	fix_pre	0		8.0	44.0	2.5	/experiments/knapen_aot/videos/S_ILSVRC2015_train_00569007.mp4	0.0	214.57510900497437	0.06657886505126953
46	130.60741186141968	response	0	2		44.0	2.5	/experiments/knapen_aot/videos/S_ILSVRC2015_train_00569007.mp4	0.0	214.6334888935089	
46	130.6156108379364	movie	1		301.0	44.0	2.5	/experiments/knapen_aot/videos/S_ILSVRC2015_train_00569007.mp4	0.0	214.64168787002563	2.5083870887756348
46	133.12399792671204	fix_post	2		12.0	44.0	2.5	/experiments/knapen_aot/videos/S_ILSVRC2015_train_00569007.mp4	0.0	217.15007495880127	0.1000368595123291
47	133.22403478622437	fix_pre	0		20.0	45.0	2.5	/experiments/knapen_aot/videos/R_S_yt-MyL1VlXiZa4_25.mp4	0.0	217.2501118183136	0.16660523414611816
47	133.3824508190155	response	0	2		45.0	2.5	/experiments/knapen_aot/videos/R_S_yt-MyL1VlXiZa4_25.mp4	0.0	217.40852785110474	
47	133.39064002037048	movie	1		301.0	45.0	2.5	/experiments/knapen_aot/videos/R_S_yt-MyL1VlXiZa4_25.mp4	0.0	217.41671705245972	2.508394956588745
47	135.89903497695923	fix_post	2		11.0	45.0	2.5	/experiments/knapen_aot/videos/R_S_yt-MyL1VlXiZa4_25.mp4	0.0	219.92511200904846	0.09166789054870605
47	135.98249101638794	response	2	2		45.0	2.5	/experiments/knapen_aot/videos/R_S_yt-MyL1VlXiZa4_25.mp4	0.0	220.00856804847717	
48	135.99070286750793	fix_pre	0		57.0	46.0	2.5	/experiments/knapen_aot/videos/R_S_ILSVRC2015_train_00715000.mp4	0.0	220.01677989959717	0.47498106956481934
48	136.45758080482483	response	0	2		46.0	2.5	/experiments/knapen_aot/videos/R_S_ILSVRC2015_train_00715000.mp4	0.0	220.48365783691406	
48	136.46568393707275	movie	1		300.0	46.0	2.5	/experiments/knapen_aot/videos/R_S_ILSVRC2015_train_00715000.mp4	0.0	220.491760969162	2.5083539485931396
48	138.9740378856659	fix_post	2		12.0	46.0	2.5	/experiments/knapen_aot/videos/R_S_ILSVRC2015_train_00715000.mp4	0.0	223.00011491775513	0.09999608993530273
49	139.0740339756012	fix_pre	0		25.0	47.0	2.5	blank	1.0	223.10011100769043	0.20829200744628906
49	139.27423882484436	response	0	2		47.0	2.5	blank	1.0	223.3003158569336	
49	139.28232598304749	movie	1		301.0	47.0	2.5	blank	1.0	223.30840301513672	2.508225917816162
49	141.79055190086365	fix_post	2		12.0	47.0	2.5	blank	1.0	225.81662893295288	0.1000669002532959
50	141.89061880111694	fix_pre	0		22.0	48.0	2.5	/experiments/knapen_aot/videos/S_yt-xgqx7tH92-c_6.mp4	0.0	225.91669583320618	0.183333158493042
50	142.06568789482117	response	0	2		48.0	2.5	/experiments/knapen_aot/videos/S_yt-xgqx7tH92-c_6.mp4	0.0	226.0917649269104	
50	142.07395195960999	movie	1		301.0	48.0	2.5	/experiments/knapen_aot/videos/S_yt-xgqx7tH92-c_6.mp4	0.0	226.10002899169922	2.508384943008423
50	144.5823369026184	fix_post	2		12.0	48.0	2.5	/experiments/knapen_aot/videos/S_yt-xgqx7tH92-c_6.mp4	0.0	228.60841393470764	0.09991097450256348
51	144.68224787712097	fix_pre	0		9.0	49.0	2.5	/experiments/knapen_aot/videos/S_yt-2SVpSaBAxsw_78.mp4	0.0	228.7083249092102	0.07507014274597168
51	144.74909687042236	response	0	2		49.0	2.5	/experiments/knapen_aot/videos/S_yt-2SVpSaBAxsw_78.mp4	0.0	228.7751739025116	
51	144.75731801986694	movie	1		301.0	49.0	2.5	/experiments/knapen_aot/videos/S_yt-2SVpSaBAxsw_78.mp4	0.0	228.78339505195618	2.508246898651123
51	147.26556491851807	fix_post	2		12.0	49.0	2.5	/experiments/knapen_aot/videos/S_yt-2SVpSaBAxsw_78.mp4	0.0	231.2916419506073	0.1000969409942627
52	147.36566185951233	fix_pre	0		303.0	50.0	2.5	/experiments/knapen_aot/videos/S_Nh81j72Utbs_5.mp4	0.0	231.39173889160156	2.5249290466308594
52	149.8749179840088	response	0	2		50.0	2.5	/experiments/knapen_aot/videos/S_Nh81j72Utbs_5.mp4	0.0	233.90099501609802	
52	149.8905909061432	movie	1		297.0	50.0	2.5	/experiments/knapen_aot/videos/S_Nh81j72Utbs_5.mp4	0.0	233.91666793823242	2.508357048034668
52	152.39894795417786	fix_post	2		12.0	50.0	2.5	/experiments/knapen_aot/videos/S_Nh81j72Utbs_5.mp4	0.0	236.4250249862671	0.10000085830688477
53	152.49894881248474	fix_pre	0		39.0	51.0	2.5	/experiments/knapen_aot/videos/S_pexels-c-technical-6754008.mp4	0.0	236.52502584457397	0.3249781131744385
53	152.81569600105286	response	0	2		51.0	2.5	/experiments/knapen_aot/videos/S_pexels-c-technical-6754008.mp4	0.0	236.8417730331421	
53	152.82392692565918	movie	1		191.0	51.0	2.5	/experiments/knapen_aot/videos/S_pexels-c-technical-6754008.mp4	0.0	236.8500039577484	2.508293867111206
53	155.33222079277039	fix_post	2		12.0	51.0	2.5	/experiments/knapen_aot/videos/S_pexels-c-technical-6754008.mp4	0.0	239.35829782485962	0.10005712509155273
54	155.43227791786194	fix_pre	0		25.0	52.0	2.5	/experiments/knapen_aot/videos/S_yt-gzjV6YoK6X0_3.mp4	0.0	239.45835494995117	0.2082231044769287
54	155.63240885734558	response	0	2		52.0	2.5	/experiments/knapen_aot/videos/S_yt-gzjV6YoK6X0_3.mp4	0.0	239.65848588943481	
54	155.64050102233887	movie	1		301.0	52.0	2.5	/experiments/knapen_aot/videos/S_yt-gzjV6YoK6X0_3.mp4	0.0	239.6665780544281	2.508405923843384
54	158.14890694618225	fix_post	2		12.0	52.0	2.5	/experiments/knapen_aot/videos/S_yt-gzjV6YoK6X0_3.mp4	0.0	242.17498397827148	0.09996294975280762
55	158.24886989593506	fix_pre	0		256.0	53.0	2.5	/experiments/knapen_aot/videos/R_S_yt-2lnxIdOTxog_157.mp4	0.0	242.2749469280243	2.1333160400390625
55	160.3740668296814	response	0	2		53.0	2.5	/experiments/knapen_aot/videos/R_S_yt-2lnxIdOTxog_157.mp4	0.0	244.40014386177063	
55	160.38218593597412	movie	1		301.0	53.0	2.5	/experiments/knapen_aot/videos/R_S_yt-2lnxIdOTxog_157.mp4	0.0	244.40826296806335	2.5083980560302734
55	162.8905839920044	fix_post	2		12.0	53.0	2.5	/experiments/knapen_aot/videos/R_S_yt-2lnxIdOTxog_157.mp4	0.0	246.91666102409363	0.09996390342712402
56	162.99054789543152	fix_pre	0		9.0	54.0	2.5	/experiments/knapen_aot/videos/R_S_yt-Jo6PxivsTOg_247.mp4	0.0	247.01662492752075	0.07588696479797363
56	163.05734992027283	response	0	2		54.0	2.5	/experiments/knapen_aot/videos/R_S_yt-Jo6PxivsTOg_247.mp4	0.0	247.08342695236206	
56	163.0664348602295	movie	1		301.0	54.0	2.5	/experiments/knapen_aot/videos/R_S_yt-Jo6PxivsTOg_247.mp4	0.0	247.09251189231873	2.5074119567871094
56	165.5738468170166	fix_post	2		12.0	54.0	2.5	/experiments/knapen_aot/videos/R_S_yt-Jo6PxivsTOg_247.mp4	0.0	249.59992384910583	0.10007810592651367
57	165.67392492294312	fix_pre	0		27.0	55.0	2.5	/experiments/knapen_aot/videos/R_S_pexels-c-technical-6763571.mp4	0.0	249.70000195503235	0.22582101821899414
57	165.89068484306335	response	0	2		55.0	2.5	/experiments/knapen_aot/videos/R_S_pexels-c-technical-6763571.mp4	0.0	249.9167618751526	
57	165.8997459411621	movie	1		188.0	55.0	2.5	/experiments/knapen_aot/videos/R_S_pexels-c-technical-6763571.mp4	0.0	249.92582297325134	2.5074260234832764
57	168.40717196464539	fix_post	2		12.0	55.0	2.5	/experiments/knapen_aot/videos/R_S_pexels-c-technical-6763571.mp4	0.0	252.43324899673462	0.10002493858337402
58	168.50719690322876	fix_pre	0		82.0	56.0	2.5	blank	1.0	252.533273935318	0.683326005935669
58	169.17481780052185	response	0	2		56.0	2.5	blank	1.0	253.20089483261108	
58	169.19052290916443	movie	1		301.0	56.0	2.5	blank	1.0	253.21659994125366	2.5082859992980957
58	171.69880890846252	fix_post	2		12.0	56.0	2.5	blank	1.0	255.72488594055176	0.10001802444458008
59	171.7988269329071	fix_pre	0		24.0	57.0	2.5	/experiments/knapen_aot/videos/S_yt-yJmHtBFyhH4_15.mp4	0.0	255.82490396499634	0.19997096061706543
59	171.99065279960632	response	0	2		57.0	2.5	/experiments/knapen_aot/videos/S_yt-yJmHtBFyhH4_15.mp4	0.0	256.01672983169556	
59	171.99879789352417	movie	1		301.0	57.0	2.5	/experiments/knapen_aot/videos/S_yt-yJmHtBFyhH4_15.mp4	0.0	256.0248749256134	2.50838303565979
59	174.50718092918396	fix_post	2		12.0	57.0	2.5	/experiments/knapen_aot/videos/S_yt-yJmHtBFyhH4_15.mp4	0.0	258.5332579612732	0.0999460220336914
60	174.60712695121765	fix_pre	0		13.0	58.0	2.5	/experiments/knapen_aot/videos/S_ILSVRC2015_test_00001002.mp4	0.0	258.6332039833069	0.10838794708251953
60	174.7072958946228	response	0	2		58.0	2.5	/experiments/knapen_aot/videos/S_ILSVRC2015_test_00001002.mp4	0.0	258.73337292671204	
60	174.71551489830017	movie	1		301.0	58.0	2.5	/experiments/knapen_aot/videos/S_ILSVRC2015_test_00001002.mp4	0.0	258.7415919303894	2.508255958557129
60	177.2237708568573	fix_post	2		12.0	58.0	2.5	/experiments/knapen_aot/videos/S_ILSVRC2015_test_00001002.mp4	0.0	261.24984788894653	0.10007715225219727
61	177.3238480091095	fix_pre	0		27.0	59.0	2.5	/experiments/knapen_aot/videos/R_S_yt-rPYBHkUEwwc_10.mp4	0.0	261.34992504119873	0.22499489784240723
61	177.54058480262756	response	0	2		59.0	2.5	/experiments/knapen_aot/videos/R_S_yt-rPYBHkUEwwc_10.mp4	0.0	261.5666618347168	
61	177.5488429069519	movie	1		301.0	59.0	2.5	/experiments/knapen_aot/videos/R_S_yt-rPYBHkUEwwc_10.mp4	0.0	261.57491993904114	2.508315086364746
61	180.05715799331665	fix_post	2		12.0	59.0	2.5	/experiments/knapen_aot/videos/R_S_yt-rPYBHkUEwwc_10.mp4	0.0	264.0832350254059	0.10000395774841309
62	180.15716195106506	fix_pre	0		22.0	60.0	2.5	/experiments/knapen_aot/videos/R_S_yt-dj0XQUJos38_14.mp4	0.0	264.1832389831543	0.18331503868103027
62	180.32472395896912	response	0	2		60.0	2.5	/experiments/knapen_aot/videos/R_S_yt-dj0XQUJos38_14.mp4	0.0	264.35080099105835	
62	180.3404769897461	movie	1		301.0	60.0	2.5	/experiments/knapen_aot/videos/R_S_yt-dj0XQUJos38_14.mp4	0.0	264.3665540218353	2.508349895477295
62	182.8488268852234	fix_post	2		12.0	60.0	2.5	/experiments/knapen_aot/videos/R_S_yt-dj0XQUJos38_14.mp4	0.0	266.8749039173126	0.10002303123474121
63	182.94884991645813	fix_pre	0		13.0	61.0	2.5	/experiments/knapen_aot/videos/R_S_yt-yyIimWrvRyI_246.mp4	0.0	266.97492694854736	0.10833096504211426
63	183.0489478111267	response	0	2		61.0	2.5	/experiments/knapen_aot/videos/R_S_yt-yyIimWrvRyI_246.mp4	0.0	267.07502484321594	
63	183.05718088150024	movie	1		301.0	61.0	2.5	/experiments/knapen_aot/videos/R_S_yt-yyIimWrvRyI_246.mp4	0.0	267.0832579135895	2.5083041191101074
63	185.56548500061035	fix_post	2		12.0	61.0	2.5	/experiments/knapen_aot/videos/R_S_yt-yyIimWrvRyI_246.mp4	0.0	269.5915620326996	0.0999898910522461
64	185.6654748916626	fix_pre	0		16.0	62.0	2.5	blank	1.0	269.69155192375183	0.13336992263793945
64	185.79059195518494	response	0	2		62.0	2.5	blank	1.0	269.81666898727417	
64	185.79884481430054	movie	1		301.0	62.0	2.5	blank	1.0	269.82492184638977	2.5082590579986572
64	188.3071038722992	fix_post	2		12.0	62.0	2.5	blank	1.0	272.3331809043884	0.1000361442565918
65	188.4071400165558	fix_pre	0		83.0	63.0	2.5	/experiments/knapen_aot/videos/S_yt-jbvXEFk2Gyw_12.mp4	0.0	272.433217048645	0.6916718482971191
65	189.090646982193	response	0	2		63.0	2.5	/experiments/knapen_aot/videos/S_yt-jbvXEFk2Gyw_12.mp4	0.0	273.1167240142822	
65	189.0988118648529	movie	1		301.0	63.0	2.5	/experiments/knapen_aot/videos/S_yt-jbvXEFk2Gyw_12.mp4	0.0	273.12488889694214	2.508280038833618
65	191.60709190368652	fix_post	2		12.0	63.0	2.5	/experiments/knapen_aot/videos/S_yt-jbvXEFk2Gyw_12.mp4	0.0	275.63316893577576	0.10005903244018555
65	191.6581928730011	response	2	2		63.0	2.5	/experiments/knapen_aot/videos/S_yt-jbvXEFk2Gyw_12.mp4	0.0	275.68426990509033	
66	191.7071509361267	fix_pre	0		41.0	64.0	2.5	/experiments/knapen_aot/videos/R_S_yt-FzMLLmcD1mE_19.mp4	0.0	275.73322796821594	0.3416130542755127
66	192.04052996635437	response	0	2		64.0	2.5	/experiments/knapen_aot/videos/R_S_yt-FzMLLmcD1mE_19.mp4	0.0	276.0666069984436	
66	192.04876399040222	movie	1		301.0	64.0	2.5	/experiments/knapen_aot/videos/R_S_yt-FzMLLmcD1mE_19.mp4	0.0	276.07484102249146	2.5082898139953613
66	194.55705380439758	fix_post	2		12.0	64.0	2.5	/experiments/knapen_aot/videos/R_S_yt-FzMLLmcD1mE_19.mp4	0.0	278.5831308364868	0.10009407997131348
66	194.64883995056152	response	2	2		64.0	2.5	/experiments/knapen_aot/videos/R_S_yt-FzMLLmcD1mE_19.mp4	0.0	278.67491698265076	
67	194.6571478843689	fix_pre	0		48.0	65.0	2.5	/experiments/knapen_aot/videos/R_S_yt-hMyqUMAbFAk_303.mp4	0.0	278.68322491645813	0.3998870849609375
67	195.04883790016174	response	0	2		65.0	2.5	/experiments/knapen_aot/videos/R_S_yt-hMyqUMAbFAk_303.mp4	0.0	279.074914932251	
67	195.05703496932983	movie	1		300.0	65.0	2.5	/experiments/knapen_aot/videos/R_S_yt-hMyqUMAbFAk_303.mp4	0.0	279.08311200141907	2.499955892562866
67	197.54883480072021	response	1	2		65.0	2.5	/experiments/knapen_aot/videos/R_S_yt-hMyqUMAbFAk_303.mp4	0.0	281.57491183280945	
67	197.5569908618927	fix_post	2		13.0	65.0	2.5	/experiments/knapen_aot/videos/R_S_yt-hMyqUMAbFAk_303.mp4	0.0	281.58306789398193	0.10833215713500977
68	197.6653230190277	fix_pre	0		35.0	66.0	2.5	/experiments/knapen_aot/videos/S_yt-EBuE7GbFw7U_180.mp4	0.0	281.69140005111694	0.29175496101379395
68	197.94889283180237	response	0	2		66.0	2.5	/experiments/knapen_aot/videos/S_yt-EBuE7GbFw7U_180.mp4	0.0	281.9749698638916	
68	197.9570779800415	movie	1		301.0	66.0	2.5	/experiments/knapen_aot/videos/S_yt-EBuE7GbFw7U_180.mp4	0.0	281.98315501213074	2.508316993713379
68	198.72790694236755	response	1	2		66.0	2.5	/experiments/knapen_aot/videos/S_yt-EBuE7GbFw7U_180.mp4	0.0	282.7539839744568	
68	200.46539497375488	fix_post	2		12.0	66.0	2.5	/experiments/knapen_aot/videos/S_yt-EBuE7GbFw7U_180.mp4	0.0	284.4914720058441	0.09998488426208496
69	200.56537985801697	fix_pre	0		5.0	67.0	2.5	/experiments/knapen_aot/videos/R_S_yt-oPq1uvbw-lQ_62.mp4	0.0	284.5914568901062	0.04262495040893555
69	200.5987548828125	response	0	2		67.0	2.5	/experiments/knapen_aot/videos/R_S_yt-oPq1uvbw-lQ_62.mp4	0.0	284.62483191490173	
69	200.6080048084259	movie	1		301.0	67.0	2.5	/experiments/knapen_aot/videos/R_S_yt-oPq1uvbw-lQ_62.mp4	0.0	284.63408184051514	2.507420063018799
69	203.1154248714447	fix_post	2		12.0	67.0	2.5	/experiments/knapen_aot/videos/R_S_yt-oPq1uvbw-lQ_62.mp4	0.0	287.14150190353394	0.09997391700744629
70	203.21539878845215	fix_pre	0		41.0	68.0	2.5	/experiments/knapen_aot/videos/S_yt-2IxVZeiSv3g_28.mp4	0.0	287.2414758205414	0.3416121006011963
70	203.54886293411255	response	0	2		68.0	2.5	/experiments/knapen_aot/videos/S_yt-2IxVZeiSv3g_28.mp4	0.0	287.5749399662018	
70	203.55701088905334	movie	1		301.0	68.0	2.5	/experiments/knapen_aot/videos/S_yt-2IxVZeiSv3g_28.mp4	0.0	287.5830879211426	2.5083999633789062
70	206.06541085243225	fix_post	2		12.0	68.0	2.5	/experiments/knapen_aot/videos/S_yt-2IxVZeiSv3g_28.mp4	0.0	290.0914878845215	0.09999299049377441
71	206.16540384292603	fix_pre	0		16.0	69.0	2.5	/experiments/knapen_aot/videos/R_S_BsNCrwV7d8Q_9.mp4	0.0	290.19148087501526	0.13327813148498535
71	206.29046988487244	response	0	2		69.0	2.5	/experiments/knapen_aot/videos/R_S_BsNCrwV7d8Q_9.mp4	0.0	290.31654691696167	
71	206.298681974411	movie	1		301.0	69.0	2.5	/experiments/knapen_aot/videos/R_S_BsNCrwV7d8Q_9.mp4	0.0	290.32475900650024	2.508357048034668
71	208.80703902244568	fix_post	2		12.0	69.0	2.5	/experiments/knapen_aot/videos/R_S_BsNCrwV7d8Q_9.mp4	0.0	292.8331160545349	0.09998488426208496
72	208.90702390670776	fix_pre	0		2.0	70.0	2.5	blank	1.0	292.933100938797	0.016661882400512695
72	208.9154918193817	response	0	2		70.0	2.5	blank	1.0	292.94156885147095	
72	208.92368578910828	movie	1		301.0	70.0	2.5	blank	1.0	292.9497628211975	2.508366107940674
72	211.43205189704895	fix_post	2		12.0	70.0	2.5	blank	1.0	295.4581289291382	0.09995388984680176
73	211.53200578689575	fix_pre	0		14.0	71.0	2.5	/experiments/knapen_aot/videos/S_ILSVRC2015_train_00762000.mp4	0.0	295.558082818985	0.11728310585021973
73	211.64045095443726	response	0	2		71.0	2.5	/experiments/knapen_aot/videos/S_ILSVRC2015_train_00762000.mp4	0.0	295.6665279865265	
73	211.64928889274597	movie	1		301.0	71.0	2.5	/experiments/knapen_aot/videos/S_ILSVRC2015_train_00762000.mp4	0.0	295.6753659248352	2.5077309608459473
73	214.15701985359192	fix_post	2		12.0	71.0	2.5	/experiments/knapen_aot/videos/S_ILSVRC2015_train_00762000.mp4	0.0	298.18309688568115	0.09994101524353027
74	214.25696086883545	fix_pre	0		77.0	72.0	2.5	/experiments/knapen_aot/videos/R_S_yt-wz2opOBqClo_14.mp4	0.0	298.2830379009247	0.642319917678833
74	214.88281202316284	response	0	2		72.0	2.5	/experiments/knapen_aot/videos/R_S_yt-wz2opOBqClo_14.mp4	0.0	298.9088890552521	
74	214.89928078651428	movie	1		301.0	72.0	2.5	/experiments/knapen_aot/videos/R_S_yt-wz2opOBqClo_14.mp4	0.0	298.9253578186035	2.5077481269836426
74	217.40702891349792	fix_post	2		12.0	72.0	2.5	/experiments/knapen_aot/videos/R_S_yt-wz2opOBqClo_14.mp4	0.0	301.43310594558716	0.0999760627746582
75	217.50700497627258	fix_pre	0		2.0	73.0	2.5	/experiments/knapen_aot/videos/R_S_yt-zKnjBBYWe90_369.mp4	0.0	301.5330820083618	0.01747584342956543
75	217.51551294326782	response	0	2		73.0	2.5	/experiments/knapen_aot/videos/R_S_yt-zKnjBBYWe90_369.mp4	0.0	301.54158997535706	
75	217.52448081970215	movie	1		301.0	73.0	2.5	/experiments/knapen_aot/videos/R_S_yt-zKnjBBYWe90_369.mp4	0.0	301.5505578517914	2.5073981285095215
75	220.03187894821167	fix_post	2		12.0	73.0	2.5	/experiments/knapen_aot/videos/R_S_yt-zKnjBBYWe90_369.mp4	0.0	304.0579559803009	0.10010194778442383
76	220.1319808959961	fix_pre	0		12.0	74.0	2.5	/experiments/knapen_aot/videos/R_S_yt-Jo6PxivsTOg_247.mp4	0.0	304.1580579280853	0.10054397583007812
76	220.22373485565186	response	0	2		74.0	2.5	/experiments/knapen_aot/videos/R_S_yt-Jo6PxivsTOg_247.mp4	0.0	304.2498118877411	
76	220.23252487182617	movie	1		301.0	74.0	2.5	/experiments/knapen_aot/videos/R_S_yt-Jo6PxivsTOg_247.mp4	0.0	304.2586019039154	2.5077500343322754
76	222.74027490615845	fix_post	2		12.0	74.0	2.5	/experiments/knapen_aot/videos/R_S_yt-Jo6PxivsTOg_247.mp4	0.0	306.7663519382477	0.10001897811889648
77	222.84029388427734	fix_pre	0		17.0	75.0	2.5	/experiments/knapen_aot/videos/S_yt-c6kLumgTX54_7.mp4	0.0	306.8663709163666	0.14218807220458984
77	222.97375082969666	response	0	2		75.0	2.5	/experiments/knapen_aot/videos/S_yt-c6kLumgTX54_7.mp4	0.0	306.9998278617859	
77	222.98248195648193	movie	1		301.0	75.0	2.5	/experiments/knapen_aot/videos/S_yt-c6kLumgTX54_7.mp4	0.0	307.00855898857117	2.5078048706054688
77	225.4902868270874	fix_post	2		12.0	75.0	2.5	/experiments/knapen_aot/videos/S_yt-c6kLumgTX54_7.mp4	0.0	309.51636385917664	0.10003209114074707
78	225.59031891822815	fix_pre	0		25.0	76.0	2.5	/experiments/knapen_aot/videos/R_S_IrGYVLkWeQs_9.mp4	0.0	309.6163959503174	0.20826506614685059
78	225.7904088497162	response	0	2		76.0	2.5	/experiments/knapen_aot/videos/R_S_IrGYVLkWeQs_9.mp4	0.0	309.8164858818054	
78	225.798583984375	movie	1		301.0	76.0	2.5	/experiments/knapen_aot/videos/R_S_IrGYVLkWeQs_9.mp4	0.0	309.82466101646423	2.5083248615264893
78	228.3069088459015	fix_post	2		12.0	76.0	2.5	/experiments/knapen_aot/videos/R_S_IrGYVLkWeQs_9.mp4	0.0	312.3329858779907	0.10004615783691406
79	228.4069550037384	fix_pre	0		94.0	77.0	2.5	blank	1.0	312.43303203582764	0.7838549613952637
79	229.18212485313416	response	0	2		77.0	2.5	blank	1.0	313.2082018852234	
79	229.19080996513367	movie	1		301.0	77.0	2.5	blank	1.0	313.2168869972229	2.5077688694000244
79	231.45701789855957	response	1	2		77.0	2.5	blank	1.0	315.4830949306488	
79	231.6985788345337	fix_post	2		12.0	77.0	2.5	blank	1.0	315.7246558666229	0.10000109672546387
80	231.79857993125916	fix_pre	0		32.0	78.0	2.5	/experiments/knapen_aot/videos/R_S_yt-Gokv9ZtV6zo_70.mp4	0.0	315.8246569633484	0.2672998905181885
80	232.05703783035278	response	0	2		78.0	2.5	/experiments/knapen_aot/videos/R_S_yt-Gokv9ZtV6zo_70.mp4	0.0	316.083114862442	
80	232.06587982177734	movie	1		299.0	78.0	2.5	/experiments/knapen_aot/videos/R_S_yt-Gokv9ZtV6zo_70.mp4	0.0	316.0919568538666	2.5077450275421143
80	234.57362484931946	fix_post	2		12.0	78.0	2.5	/experiments/knapen_aot/videos/R_S_yt-Gokv9ZtV6zo_70.mp4	0.0	318.5997018814087	0.09998106956481934
81	234.67360591888428	fix_pre	0		16.0	79.0	2.5	/experiments/knapen_aot/videos/S_Y009_C015_SDR_2K_AVC.mp4	0.0	318.6996829509735	0.13333988189697266
81	234.79125881195068	response	0	2		79.0	2.5	/experiments/knapen_aot/videos/S_Y009_C015_SDR_2K_AVC.mp4	0.0	318.8173358440399	
81	234.80694580078125	movie	1		174.0	79.0	2.5	/experiments/knapen_aot/videos/S_Y009_C015_SDR_2K_AVC.mp4	0.0	318.8330228328705	2.5083160400390625
81	237.23209595680237	response	1	2		79.0	2.5	/experiments/knapen_aot/videos/S_Y009_C015_SDR_2K_AVC.mp4	0.0	321.2581729888916	
81	237.3152618408203	fix_post	2		12.0	79.0	2.5	/experiments/knapen_aot/videos/S_Y009_C015_SDR_2K_AVC.mp4	0.0	321.34133887290955	0.10002517700195312
82	237.41528701782227	fix_pre	0		34.0	80.0	2.5	/experiments/knapen_aot/videos/S_yt-k-MRlbCOzZU_163.mp4	0.0	321.4413640499115	0.28327488899230957
82	237.69051885604858	response	0	2		80.0	2.5	/experiments/knapen_aot/videos/S_yt-k-MRlbCOzZU_163.mp4	0.0	321.7165958881378	
82	237.69856190681458	movie	1		301.0	80.0	2.5	/experiments/knapen_aot/videos/S_yt-k-MRlbCOzZU_163.mp4	0.0	321.7246389389038	2.508305072784424
82	240.206866979599	fix_post	2		12.0	80.0	2.5	/experiments/knapen_aot/videos/S_yt-k-MRlbCOzZU_163.mp4	0.0	324.23294401168823	0.10006499290466309
83	240.30693197250366	fix_pre	0		9.0	81.0	2.5	/experiments/knapen_aot/videos/R_S_ILSVRC2015_train_00404004.mp4	0.0	324.3330090045929	0.07497382164001465
83	240.373694896698	response	0	2		81.0	2.5	/experiments/knapen_aot/videos/R_S_ILSVRC2015_train_00404004.mp4	0.0	324.39977192878723	
83	240.38190579414368	movie	1		300.0	81.0	2.5	/experiments/knapen_aot/videos/R_S_ILSVRC2015_train_00404004.mp4	0.0	324.4079828262329	2.508430004119873
83	242.89033579826355	fix_post	2		11.0	81.0	2.5	/experiments/knapen_aot/videos/R_S_ILSVRC2015_train_00404004.mp4	0.0	326.9164128303528	0.0923161506652832
83	242.97372698783875	response	2	2		81.0	2.5	/experiments/knapen_aot/videos/R_S_ILSVRC2015_train_00404004.mp4	0.0	326.999804019928	
84	242.98265194892883	fix_pre	0		42.0	82.0	2.5	/experiments/knapen_aot/videos/R_S_yt-2SVpSaBAxsw_78.mp4	0.0	327.00872898101807	0.34924793243408203
84	243.32364988327026	response	0	2		82.0	2.5	/experiments/knapen_aot/videos/R_S_yt-2SVpSaBAxsw_78.mp4	0.0	327.3497269153595	
84	243.33189988136292	movie	1		301.0	82.0	2.5	/experiments/knapen_aot/videos/R_S_yt-2SVpSaBAxsw_78.mp4	0.0	327.35797691345215	2.5083060264587402
84	245.84020590782166	fix_post	2		12.0	82.0	2.5	/experiments/knapen_aot/videos/R_S_yt-2SVpSaBAxsw_78.mp4	0.0	329.8662829399109	0.1000208854675293
85	245.94022679328918	fix_pre	0		17.0	83.0	2.5	blank	1.0	329.9663038253784	0.14159822463989258
85	246.07363986968994	response	0	2		83.0	2.5	blank	1.0	330.0997169017792	
85	246.08182501792908	movie	1		301.0	83.0	2.5	blank	1.0	330.1079020500183	2.508384943008423
85	248.5902099609375	fix_post	2		12.0	83.0	2.5	blank	1.0	332.61628699302673	0.10046505928039551
87	248.6906750202179	stim	0		407.0					332.71675205230713	3.3910868167877197
87	248.82372188568115	response	0	2						332.8497989177704	
87	252.07059979438782	response	0	space						336.09667682647705	
