trial_nr	onset	event_type	phase	response	nr_frames	movie_index	movie_duration	movie_file	blank	onset_abs	duration
0	0.12501811981201172	stim	0		26.0					60.752532958984375	0.21663498878479004
0	0.3335590362548828	response	0	space						60.961073875427246	
1	0.34165310859680176	stim	0		121.0					60.969167947769165	1.0084178447723389
1	0.7669370174407959	response	0	space						61.39445185661316	
1	1.0667181015014648	response	0	space						61.69423294067383	
1	1.3500709533691406	stim	1		120.0					61.977585792541504	0.9995810985565186
1	1.475175142288208	response	1	space						62.10268998146057	
1	1.7997159957885742	response	1	space						62.42723083496094	
1	2.2330169677734375	response	1	space						62.8605318069458	
2	2.349652051925659	fix_pre	0		22.0	0.0	2.5	/experiments/knapen_aot/videos/S_yt-gaXgXGEanCk_140.mp4	0.0	62.97716689109802	0.184067964553833
2	2.5247509479522705	response	0	space		0.0	2.5	/experiments/knapen_aot/videos/S_yt-gaXgXGEanCk_140.mp4	0.0	63.152265787124634	
2	2.533720016479492	movie	1		301.0	0.0	2.5	/experiments/knapen_aot/videos/S_yt-gaXgXGEanCk_140.mp4	0.0	63.161234855651855	2.5075900554656982
2	5.04131007194519	fix_post	2		12.0	0.0	2.5	/experiments/knapen_aot/videos/S_yt-gaXgXGEanCk_140.mp4	0.0	65.66882491111755	0.09998297691345215
3	5.141293048858643	fix_pre	0		70.0	1.0	2.5	/experiments/knapen_aot/videos/R_S_yt-074ygGXNoQ8_64.mp4	0.0	65.768807888031	0.5833680629730225
3	5.7183849811553955	response	0	2		1.0	2.5	/experiments/knapen_aot/videos/R_S_yt-074ygGXNoQ8_64.mp4	0.0	66.34589982032776	
3	5.724661111831665	movie	1		301.0	1.0	2.5	/experiments/knapen_aot/videos/R_S_yt-074ygGXNoQ8_64.mp4	0.0	66.35217595100403	2.5083160400390625
3	8.232977151870728	fix_post	2		12.0	1.0	2.5	/experiments/knapen_aot/videos/R_S_yt-074ygGXNoQ8_64.mp4	0.0	68.86049199104309	0.10003089904785156
4	8.333008050918579	fix_pre	0		61.0	2.0	2.5	/experiments/knapen_aot/videos/S_production_ID_5119260.mp4	0.0	68.96052289009094	0.5082480907440186
4	8.833110094070435	response	0	2		2.0	2.5	/experiments/knapen_aot/videos/S_production_ID_5119260.mp4	0.0	69.4606249332428	
4	8.841256141662598	movie	1		164.0	2.0	2.5	/experiments/knapen_aot/videos/S_production_ID_5119260.mp4	0.0	69.46877098083496	2.508330821990967
4	11.349586963653564	fix_post	2		12.0	2.0	2.5	/experiments/knapen_aot/videos/S_production_ID_5119260.mp4	0.0	71.97710180282593	0.10003113746643066
5	11.449618101119995	fix_pre	0		57.0	3.0	2.5	/experiments/knapen_aot/videos/R_S_yt-BAQ3Xhm_PPE_23.mp4	0.0	72.07713294029236	0.4749128818511963
5	11.916430950164795	response	0	2		3.0	2.5	/experiments/knapen_aot/videos/R_S_yt-BAQ3Xhm_PPE_23.mp4	0.0	72.54394578933716	
5	11.924530982971191	movie	1		301.0	3.0	2.5	/experiments/knapen_aot/videos/R_S_yt-BAQ3Xhm_PPE_23.mp4	0.0	72.55204582214355	2.50839900970459
5	14.432929992675781	fix_post	2		12.0	3.0	2.5	/experiments/knapen_aot/videos/R_S_yt-BAQ3Xhm_PPE_23.mp4	0.0	75.06044483184814	0.1000509262084961
6	14.532980918884277	fix_pre	0		58.0	4.0	2.5	/experiments/knapen_aot/videos/S_production_ID_5119260.mp4	0.0	75.16049575805664	0.48325610160827637
6	15.000618934631348	response	0	2		4.0	2.5	/experiments/knapen_aot/videos/S_production_ID_5119260.mp4	0.0	75.62813377380371	
6	15.016237020492554	movie	1		162.0	4.0	2.5	/experiments/knapen_aot/videos/S_production_ID_5119260.mp4	0.0	75.64375185966492	2.5083301067352295
6	17.524567127227783	fix_post	2		12.0	4.0	2.5	/experiments/knapen_aot/videos/S_production_ID_5119260.mp4	0.0	78.15208196640015	0.10001182556152344
7	17.624578952789307	fix_pre	0		47.0	5.0	2.5	blank	1.0	78.25209379196167	0.3917059898376465
7	18.008023977279663	response	0	2		5.0	2.5	blank	1.0	78.63553881645203	
7	18.016284942626953	movie	1		301.0	5.0	2.5	blank	1.0	78.64379978179932	2.5082921981811523
7	20.524577140808105	fix_post	2		12.0	5.0	2.5	blank	1.0	81.15209197998047	0.0999917984008789
8	20.624568939208984	fix_pre	0		58.0	6.0	2.5	/experiments/knapen_aot/videos/R_S_yt-11S5tcT2Tm0_254.mp4	0.0	81.25208377838135	0.4832642078399658
8	21.099687099456787	response	0	2		6.0	2.5	/experiments/knapen_aot/videos/R_S_yt-11S5tcT2Tm0_254.mp4	0.0	81.72720193862915	
8	21.10783314704895	movie	1		301.0	6.0	2.5	/experiments/knapen_aot/videos/R_S_yt-11S5tcT2Tm0_254.mp4	0.0	81.73534798622131	2.5084259510040283
8	23.61625909805298	fix_post	2		12.0	6.0	2.5	/experiments/knapen_aot/videos/R_S_yt-11S5tcT2Tm0_254.mp4	0.0	84.24377393722534	0.0999598503112793
9	23.716218948364258	fix_pre	0		61.0	7.0	2.5	/experiments/knapen_aot/videos/S_yt-2ftSsLqRQnA_84.mp4	0.0	84.34373378753662	0.5083050727844238
9	24.20885705947876	response	0	2		7.0	2.5	/experiments/knapen_aot/videos/S_yt-2ftSsLqRQnA_84.mp4	0.0	84.83637189865112	
9	24.22452402114868	movie	1		298.0	7.0	2.5	/experiments/knapen_aot/videos/S_yt-2ftSsLqRQnA_84.mp4	0.0	84.85203886032104	2.5083329677581787
9	26.73285698890686	fix_post	2		12.0	7.0	2.5	/experiments/knapen_aot/videos/S_yt-2ftSsLqRQnA_84.mp4	0.0	87.36037182807922	0.10005497932434082
10	26.8329119682312	fix_pre	0		65.0	8.0	2.5	/experiments/knapen_aot/videos/R_S_yt--5ls65Ue1RA_52.mp4	0.0	87.46042680740356	0.5415940284729004
10	27.36639714241028	response	0	2		8.0	2.5	/experiments/knapen_aot/videos/R_S_yt--5ls65Ue1RA_52.mp4	0.0	87.99391198158264	
10	27.3745059967041	movie	1		301.0	8.0	2.5	/experiments/knapen_aot/videos/R_S_yt--5ls65Ue1RA_52.mp4	0.0	88.00202083587646	2.508404016494751
10	29.882910013198853	fix_post	2		12.0	8.0	2.5	/experiments/knapen_aot/videos/R_S_yt--5ls65Ue1RA_52.mp4	0.0	90.51042485237122	0.09992599487304688
11	29.9828360080719	fix_pre	0		49.0	9.0	2.5	/experiments/knapen_aot/videos/S_pexels-cottonbro-10640532.mp4	0.0	90.61035084724426	0.4083890914916992
11	30.383053064346313	response	0	2		9.0	2.5	/experiments/knapen_aot/videos/S_pexels-cottonbro-10640532.mp4	0.0	91.01056790351868	
11	30.3912250995636	movie	1		195.0	9.0	2.5	/experiments/knapen_aot/videos/S_pexels-cottonbro-10640532.mp4	0.0	91.01873993873596	2.508354902267456
11	32.899580001831055	fix_post	2		12.0	9.0	2.5	/experiments/knapen_aot/videos/S_pexels-cottonbro-10640532.mp4	0.0	93.52709484100342	0.09994697570800781
12	32.99952697753906	fix_pre	0		63.0	10.0	2.5	/experiments/knapen_aot/videos/R_S_yt-GfPep7IhZIU_47.mp4	0.0	93.62704181671143	0.5249619483947754
12	33.516364097595215	response	0	2		10.0	2.5	/experiments/knapen_aot/videos/R_S_yt-GfPep7IhZIU_47.mp4	0.0	94.14387893676758	
12	33.52448892593384	movie	1		301.0	10.0	2.5	/experiments/knapen_aot/videos/R_S_yt-GfPep7IhZIU_47.mp4	0.0	94.1520037651062	2.5083510875701904
12	36.03284001350403	fix_post	2		12.0	10.0	2.5	/experiments/knapen_aot/videos/R_S_yt-GfPep7IhZIU_47.mp4	0.0	96.66035485267639	0.10005497932434082
13	36.13289499282837	fix_pre	0		54.0	11.0	2.5	/experiments/knapen_aot/videos/S_yt-kXarkCFJLeg_46.mp4	0.0	96.76040983200073	0.44992494583129883
13	36.57463502883911	response	0	2		11.0	2.5	/experiments/knapen_aot/videos/S_yt-kXarkCFJLeg_46.mp4	0.0	97.20214986801147	
13	36.58281993865967	movie	1		301.0	11.0	2.5	/experiments/knapen_aot/videos/S_yt-kXarkCFJLeg_46.mp4	0.0	97.21033477783203	2.508341073989868
13	39.091161012649536	fix_post	2		12.0	11.0	2.5	/experiments/knapen_aot/videos/S_yt-kXarkCFJLeg_46.mp4	0.0	99.7186758518219	0.09998393058776855
14	39.191144943237305	fix_pre	0		74.0	12.0	2.5	/experiments/knapen_aot/videos/S_yt-7bSTxOajpjc_58.mp4	0.0	99.81865978240967	0.6166880130767822
14	39.79960012435913	response	0	2		12.0	2.5	/experiments/knapen_aot/videos/S_yt-7bSTxOajpjc_58.mp4	0.0	100.4271149635315	
14	39.80783295631409	movie	1		301.0	12.0	2.5	/experiments/knapen_aot/videos/S_yt-7bSTxOajpjc_58.mp4	0.0	100.43534779548645	2.5083529949188232
14	42.31618595123291	fix_post	2		12.0	12.0	2.5	/experiments/knapen_aot/videos/S_yt-7bSTxOajpjc_58.mp4	0.0	102.94370079040527	0.0998680591583252
15	42.416054010391235	fix_pre	0		90.0	13.0	2.5	/experiments/knapen_aot/videos/S_yt-OPzchvF7jO8_53.mp4	0.0	103.0435688495636	0.7501010894775391
15	43.15797710418701	response	0	2		13.0	2.5	/experiments/knapen_aot/videos/S_yt-OPzchvF7jO8_53.mp4	0.0	103.78549194335938	
15	43.166155099868774	movie	1		301.0	13.0	2.5	/experiments/knapen_aot/videos/S_yt-OPzchvF7jO8_53.mp4	0.0	103.79366993904114	2.5083398818969727
15	45.67449498176575	fix_post	2		12.0	13.0	2.5	/experiments/knapen_aot/videos/S_yt-OPzchvF7jO8_53.mp4	0.0	106.30200982093811	0.09997916221618652
16	45.774474143981934	fix_pre	0		98.0	14.0	2.5	blank	1.0	106.4019889831543	0.8166818618774414
16	46.582926988601685	response	0	2		14.0	2.5	blank	1.0	107.21044182777405	
16	46.591156005859375	movie	1		301.0	14.0	2.5	blank	1.0	107.21867084503174	2.508319139480591
16	49.099475145339966	fix_post	2		12.0	14.0	2.5	blank	1.0	109.72698998451233	0.09995198249816895
17	49.199427127838135	fix_pre	0		67.0	15.0	2.5	/experiments/knapen_aot/videos/S_production_ID_5102663.mp4	0.0	109.8269419670105	0.5583558082580566
17	49.7495801448822	response	0	2		15.0	2.5	/experiments/knapen_aot/videos/S_production_ID_5102663.mp4	0.0	110.37709498405457	
17	49.75778293609619	movie	1		209.0	15.0	2.5	/experiments/knapen_aot/videos/S_production_ID_5102663.mp4	0.0	110.38529777526855	2.5083701610565186
17	52.26615309715271	fix_post	2		12.0	15.0	2.5	/experiments/knapen_aot/videos/S_production_ID_5102663.mp4	0.0	112.89366793632507	0.09990382194519043
18	52.3660569190979	fix_pre	0		99.0	16.0	2.5	/experiments/knapen_aot/videos/S_bing-www_nbcnews_com_storyline_isis-terror_fall-isis-stronghold-raqqa-will-change-war-extremists-not-end-n808621_86.mp4	0.0	112.99357175827026	0.8250081539154053
18	53.18293499946594	response	0	2		16.0	2.5	/experiments/knapen_aot/videos/S_bing-www_nbcnews_com_storyline_isis-terror_fall-isis-stronghold-raqqa-will-change-war-extremists-not-end-n808621_86.mp4	0.0	113.8104498386383	
18	53.191065073013306	movie	1		166.0	16.0	2.5	/experiments/knapen_aot/videos/S_bing-www_nbcnews_com_storyline_isis-terror_fall-isis-stronghold-raqqa-will-change-war-extremists-not-end-n808621_86.mp4	0.0	113.81857991218567	2.5084550380706787
18	55.699520111083984	fix_post	2		12.0	16.0	2.5	/experiments/knapen_aot/videos/S_bing-www_nbcnews_com_storyline_isis-terror_fall-isis-stronghold-raqqa-will-change-war-extremists-not-end-n808621_86.mp4	0.0	116.32703495025635	0.09987998008728027
19	55.799400091171265	fix_pre	0		129.0	17.0	2.5	/experiments/knapen_aot/videos/S_yt-GWOOQZ19-oU_331.mp4	0.0	116.42691493034363	1.0750060081481934
19	56.866260051727295	response	0	2		17.0	2.5	/experiments/knapen_aot/videos/S_yt-GWOOQZ19-oU_331.mp4	0.0	117.49377489089966	
19	56.87440609931946	movie	1		301.0	17.0	2.5	/experiments/knapen_aot/videos/S_yt-GWOOQZ19-oU_331.mp4	0.0	117.50192093849182	2.5083799362182617
19	59.38278603553772	fix_post	2		12.0	17.0	2.5	/experiments/knapen_aot/videos/S_yt-GWOOQZ19-oU_331.mp4	0.0	120.01030087471008	0.09992098808288574
20	59.482707023620605	fix_pre	0		100.0	18.0	2.5	/experiments/knapen_aot/videos/S_2RTDFkjD6vI_93.mp4	0.0	120.11022186279297	0.8333420753479004
20	60.30784511566162	response	0	2		18.0	2.5	/experiments/knapen_aot/videos/S_2RTDFkjD6vI_93.mp4	0.0	120.93535995483398	
20	60.316049098968506	movie	1		301.0	18.0	2.5	/experiments/knapen_aot/videos/S_2RTDFkjD6vI_93.mp4	0.0	120.94356393814087	2.508354902267456
20	62.82440400123596	fix_post	2		12.0	18.0	2.5	/experiments/knapen_aot/videos/S_2RTDFkjD6vI_93.mp4	0.0	123.45191884040833	0.10003399848937988
21	62.92443799972534	fix_pre	0		55.0	19.0	2.5	blank	1.0	123.5519528388977	0.4582180976867676
21	63.37452793121338	response	0	2		19.0	2.5	blank	1.0	124.00204277038574	
21	63.38265609741211	movie	1		301.0	19.0	2.5	blank	1.0	124.01017093658447	2.508443832397461
21	65.89109992980957	fix_post	2		12.0	19.0	2.5	blank	1.0	126.51861476898193	0.09994816780090332
22	65.99104809761047	fix_pre	0		80.0	20.0	2.5	/experiments/knapen_aot/videos/R_S_WO9z7lBUvOs_151.mp4	0.0	126.61856293678284	0.6671040058135986
22	66.64953398704529	response	0	2		20.0	2.5	/experiments/knapen_aot/videos/R_S_WO9z7lBUvOs_151.mp4	0.0	127.27704882621765	
22	66.65815210342407	movie	1		301.0	20.0	2.5	/experiments/knapen_aot/videos/R_S_WO9z7lBUvOs_151.mp4	0.0	127.28566694259644	2.507884979248047
22	69.16603708267212	fix_post	2		12.0	20.0	2.5	/experiments/knapen_aot/videos/R_S_WO9z7lBUvOs_151.mp4	0.0	129.79355192184448	0.10003900527954102
23	69.26607608795166	fix_pre	0		42.0	21.0	2.5	/experiments/knapen_aot/videos/S_ILSVRC2015_train_00689000.mp4	0.0	129.89359092712402	0.3503539562225342
23	69.60786509513855	response	0	2		21.0	2.5	/experiments/knapen_aot/videos/S_ILSVRC2015_train_00689000.mp4	0.0	130.2353799343109	
23	69.6164300441742	movie	1		301.0	21.0	2.5	/experiments/knapen_aot/videos/S_ILSVRC2015_train_00689000.mp4	0.0	130.24394488334656	2.5078790187835693
23	72.12430906295776	fix_post	2		12.0	21.0	2.5	/experiments/knapen_aot/videos/S_ILSVRC2015_train_00689000.mp4	0.0	132.75182390213013	0.10009407997131348
24	72.22440314292908	fix_pre	0		82.0	22.0	2.5	/experiments/knapen_aot/videos/R_S_ILSVRC2015_train_00495000.mp4	0.0	132.85191798210144	0.6916999816894531
24	72.89950394630432	response	0	2		22.0	2.5	/experiments/knapen_aot/videos/R_S_ILSVRC2015_train_00495000.mp4	0.0	133.52701878547668	
24	72.91610312461853	movie	1		300.0	22.0	2.5	/experiments/knapen_aot/videos/R_S_ILSVRC2015_train_00495000.mp4	0.0	133.5436179637909	2.499905824661255
24	75.41600894927979	fix_post	2		12.0	22.0	2.5	/experiments/knapen_aot/videos/R_S_ILSVRC2015_train_00495000.mp4	0.0	136.04352378845215	0.10004210472106934
25	75.51605105400085	fix_pre	0		53.0	23.0	2.5	/experiments/knapen_aot/videos/S_yt-GytLOB9Qjro_76.mp4	0.0	136.14356589317322	0.4416160583496094
25	75.94195604324341	response	0	2		23.0	2.5	/experiments/knapen_aot/videos/S_yt-GytLOB9Qjro_76.mp4	0.0	136.56947088241577	
25	75.95766711235046	movie	1		301.0	23.0	2.5	/experiments/knapen_aot/videos/S_yt-GytLOB9Qjro_76.mp4	0.0	136.58518195152283	2.508409023284912
25	78.46607613563538	fix_post	2		12.0	23.0	2.5	/experiments/knapen_aot/videos/S_yt-GytLOB9Qjro_76.mp4	0.0	139.09359097480774	0.09997701644897461
26	78.56605315208435	fix_pre	0		72.0	24.0	2.5	/experiments/knapen_aot/videos/S_yt-5rC42egLl5E_387.mp4	0.0	139.1935679912567	0.5999329090118408
26	79.15788197517395	response	0	2		24.0	2.5	/experiments/knapen_aot/videos/S_yt-5rC42egLl5E_387.mp4	0.0	139.7853968143463	
26	79.16598606109619	movie	1		301.0	24.0	2.5	/experiments/knapen_aot/videos/S_yt-5rC42egLl5E_387.mp4	0.0	139.79350090026855	2.508370876312256
26	81.67435693740845	fix_post	2		12.0	24.0	2.5	/experiments/knapen_aot/videos/S_yt-5rC42egLl5E_387.mp4	0.0	142.3018717765808	0.10000205039978027
27	81.77435898780823	fix_pre	0		52.0	25.0	2.5	/experiments/knapen_aot/videos/R_S_yt-ROhKDdF1gV4_21.mp4	0.0	142.4018738269806	0.43323802947998047
27	82.19946694374084	response	0	2		25.0	2.5	/experiments/knapen_aot/videos/R_S_yt-ROhKDdF1gV4_21.mp4	0.0	142.8269817829132	
27	82.20759701728821	movie	1		301.0	25.0	2.5	/experiments/knapen_aot/videos/R_S_yt-ROhKDdF1gV4_21.mp4	0.0	142.83511185646057	2.5083820819854736
27	84.71597909927368	fix_post	2		12.0	25.0	2.5	/experiments/knapen_aot/videos/R_S_yt-ROhKDdF1gV4_21.mp4	0.0	145.34349393844604	0.10003304481506348
28	84.81601214408875	fix_pre	0		56.0	26.0	2.5	blank	1.0	145.4435269832611	0.46701478958129883
28	85.27444505691528	response	0	2		26.0	2.5	blank	1.0	145.90195989608765	
28	85.28302693367004	movie	1		301.0	26.0	2.5	blank	1.0	145.9105417728424	2.5079472064971924
28	87.79097414016724	fix_post	2		12.0	26.0	2.5	blank	1.0	148.4184889793396	0.09998583793640137
29	87.89095997810364	fix_pre	0		62.0	27.0	2.5	/experiments/knapen_aot/videos/R_S_pexels-nkem-6237382.mp4	0.0	148.518474817276	0.5169999599456787
29	88.39937710762024	response	0	2		27.0	2.5	/experiments/knapen_aot/videos/R_S_pexels-nkem-6237382.mp4	0.0	149.0268919467926	
29	88.40795993804932	movie	1		161.0	27.0	2.5	/experiments/knapen_aot/videos/R_S_pexels-nkem-6237382.mp4	0.0	149.03547477722168	2.5080161094665527
29	90.91597604751587	fix_post	2		12.0	27.0	2.5	/experiments/knapen_aot/videos/R_S_pexels-nkem-6237382.mp4	0.0	151.54349088668823	0.10004687309265137
30	91.01602292060852	fix_pre	0		60.0	28.0	2.5	/experiments/knapen_aot/videos/R_S_yt-d5jBQ-LOW2I_17.mp4	0.0	151.64353775978088	0.4999821186065674
30	91.50781798362732	response	0	2		28.0	2.5	/experiments/knapen_aot/videos/R_S_yt-d5jBQ-LOW2I_17.mp4	0.0	152.13533282279968	
30	91.51600503921509	movie	1		298.0	28.0	2.5	/experiments/knapen_aot/videos/R_S_yt-d5jBQ-LOW2I_17.mp4	0.0	152.14351987838745	2.508323907852173
30	94.02432894706726	fix_post	2		12.0	28.0	2.5	/experiments/knapen_aot/videos/R_S_yt-d5jBQ-LOW2I_17.mp4	0.0	154.65184378623962	0.09995913505554199
31	94.1242880821228	fix_pre	0		67.0	29.0	2.5	/experiments/knapen_aot/videos/S_9smWynsk6sI_158.mp4	0.0	154.75180292129517	0.5583529472351074
31	94.6744499206543	response	0	2		29.0	2.5	/experiments/knapen_aot/videos/S_9smWynsk6sI_158.mp4	0.0	155.30196475982666	
31	94.68264102935791	movie	1		301.0	29.0	2.5	/experiments/knapen_aot/videos/S_9smWynsk6sI_158.mp4	0.0	155.31015586853027	2.5083351135253906
31	97.1909761428833	fix_post	2		12.0	29.0	2.5	/experiments/knapen_aot/videos/S_9smWynsk6sI_158.mp4	0.0	157.81849098205566	0.1000359058380127
32	97.29101204872131	fix_pre	0		70.0	30.0	2.5	/experiments/knapen_aot/videos/S_yt-14tjqjjjAEI_15.mp4	0.0	157.91852688789368	0.5832700729370117
32	97.86614394187927	response	0	2		30.0	2.5	/experiments/knapen_aot/videos/S_yt-14tjqjjjAEI_15.mp4	0.0	158.49365878105164	
32	97.87428212165833	movie	1		301.0	30.0	2.5	/experiments/knapen_aot/videos/S_yt-14tjqjjjAEI_15.mp4	0.0	158.5017969608307	2.508314847946167
32	100.38259696960449	fix_post	2		12.0	30.0	2.5	/experiments/knapen_aot/videos/S_yt-14tjqjjjAEI_15.mp4	0.0	161.01011180877686	0.10000395774841309
33	100.4826009273529	fix_pre	0		60.0	31.0	2.5	/experiments/knapen_aot/videos/S_yt-RlHmMGUjT9E_130.mp4	0.0	161.11011576652527	0.4999570846557617
33	100.9744200706482	response	0	2		31.0	2.5	/experiments/knapen_aot/videos/S_yt-RlHmMGUjT9E_130.mp4	0.0	161.60193490982056	
33	100.98255801200867	movie	1		301.0	31.0	2.5	/experiments/knapen_aot/videos/S_yt-RlHmMGUjT9E_130.mp4	0.0	161.61007285118103	2.508289098739624
33	103.49084711074829	fix_post	2		12.0	31.0	2.5	/experiments/knapen_aot/videos/S_yt-RlHmMGUjT9E_130.mp4	0.0	164.11836194992065	0.10006093978881836
34	103.59090805053711	fix_pre	0		57.0	32.0	2.5	/experiments/knapen_aot/videos/R_S_yt-EKPrSw5xF7k_112.mp4	0.0	164.21842288970947	0.47498488426208496
34	104.05766105651855	response	0	2		32.0	2.5	/experiments/knapen_aot/videos/R_S_yt-EKPrSw5xF7k_112.mp4	0.0	164.68517589569092	
34	104.0658929347992	movie	1		301.0	32.0	2.5	/experiments/knapen_aot/videos/R_S_yt-EKPrSw5xF7k_112.mp4	0.0	164.69340777397156	2.5085761547088623
34	106.57446908950806	fix_post	2		12.0	32.0	2.5	/experiments/knapen_aot/videos/R_S_yt-EKPrSw5xF7k_112.mp4	0.0	167.20198392868042	0.09972500801086426
35	106.67419409751892	fix_pre	0		67.0	33.0	2.5	/experiments/knapen_aot/videos/S_yt-zlbtESb7Fcw_28.mp4	0.0	167.30170893669128	0.558323860168457
35	107.2244119644165	response	0	2		33.0	2.5	/experiments/knapen_aot/videos/S_yt-zlbtESb7Fcw_28.mp4	0.0	167.85192680358887	
35	107.23251795768738	movie	1		301.0	33.0	2.5	/experiments/knapen_aot/videos/S_yt-zlbtESb7Fcw_28.mp4	0.0	167.86003279685974	2.508435010910034
35	109.74095296859741	fix_post	2		12.0	33.0	2.5	/experiments/knapen_aot/videos/S_yt-zlbtESb7Fcw_28.mp4	0.0	170.36846780776978	0.09997105598449707
36	109.84092402458191	fix_pre	0		61.0	34.0	2.5	/experiments/knapen_aot/videos/S_yt-PcOWc5EJbVo_39.mp4	0.0	170.46843886375427	0.5083301067352295
36	110.34109497070312	response	0	2		34.0	2.5	/experiments/knapen_aot/videos/S_yt-PcOWc5EJbVo_39.mp4	0.0	170.9686098098755	
36	110.34925413131714	movie	1		298.0	34.0	2.5	/experiments/knapen_aot/videos/S_yt-PcOWc5EJbVo_39.mp4	0.0	170.9767689704895	2.5082998275756836
36	112.85755395889282	fix_post	2		12.0	34.0	2.5	/experiments/knapen_aot/videos/S_yt-PcOWc5EJbVo_39.mp4	0.0	173.48506879806519	0.09999418258666992
37	112.95754814147949	fix_pre	0		64.0	35.0	2.5	blank	1.0	173.58506298065186	0.5336019992828369
37	113.48270893096924	response	0	2		35.0	2.5	blank	1.0	174.1102237701416	
37	113.49115014076233	movie	1		301.0	35.0	2.5	blank	1.0	174.1186649799347	2.5081698894500732
37	115.9993200302124	fix_post	2		12.0	35.0	2.5	blank	1.0	176.62683486938477	0.09983396530151367
38	116.09915399551392	fix_pre	0		64.0	36.0	2.5	/experiments/knapen_aot/videos/S_yt-Bx2kLEUuN0E_456.mp4	0.0	176.72666883468628	0.5333631038665771
38	116.62439703941345	response	0	2		36.0	2.5	/experiments/knapen_aot/videos/S_yt-Bx2kLEUuN0E_456.mp4	0.0	177.25191187858582	
38	116.6325170993805	movie	1		301.0	36.0	2.5	/experiments/knapen_aot/videos/S_yt-Bx2kLEUuN0E_456.mp4	0.0	177.26003193855286	2.5083608627319336
38	119.14087796211243	fix_post	2		12.0	36.0	2.5	/experiments/knapen_aot/videos/S_yt-Bx2kLEUuN0E_456.mp4	0.0	179.7683928012848	0.10016202926635742
39	119.24103999137878	fix_pre	0		54.0	37.0	2.5	/experiments/knapen_aot/videos/R_S_yt-roThCERxVCs_133.mp4	0.0	179.86855483055115	0.4498291015625
39	119.68280911445618	response	0	2		37.0	2.5	/experiments/knapen_aot/videos/R_S_yt-roThCERxVCs_133.mp4	0.0	180.31032395362854	
39	119.69086909294128	movie	1		301.0	37.0	2.5	/experiments/knapen_aot/videos/R_S_yt-roThCERxVCs_133.mp4	0.0	180.31838393211365	2.508481025695801
39	122.19935011863708	fix_post	2		12.0	37.0	2.5	/experiments/knapen_aot/videos/R_S_yt-roThCERxVCs_133.mp4	0.0	182.82686495780945	0.0997779369354248
40	122.29912805557251	fix_pre	0		75.0	38.0	2.5	/experiments/knapen_aot/videos/S_ILSVRC2015_train_00689000.mp4	0.0	182.92664289474487	0.6250820159912109
40	122.91597604751587	response	0	2		38.0	2.5	/experiments/knapen_aot/videos/S_ILSVRC2015_train_00689000.mp4	0.0	183.54349088668823	
40	122.92421007156372	movie	1		301.0	38.0	2.5	/experiments/knapen_aot/videos/S_ILSVRC2015_train_00689000.mp4	0.0	183.55172491073608	2.5083110332489014
40	125.43252110481262	fix_post	2		12.0	38.0	2.5	/experiments/knapen_aot/videos/S_ILSVRC2015_train_00689000.mp4	0.0	186.06003594398499	0.10007381439208984
41	125.53259491920471	fix_pre	0		86.0	39.0	2.5	/experiments/knapen_aot/videos/R_S_pexels-anthony-shkraba-production-8135459.mp4	0.0	186.16010975837708	0.716494083404541
41	126.24098014831543	response	0	2		39.0	2.5	/experiments/knapen_aot/videos/R_S_pexels-anthony-shkraba-production-8135459.mp4	0.0	186.8684949874878	
41	126.24908900260925	movie	1		164.0	39.0	2.5	/experiments/knapen_aot/videos/R_S_pexels-anthony-shkraba-production-8135459.mp4	0.0	186.87660384178162	2.508397102355957
41	128.7574861049652	fix_post	2		12.0	39.0	2.5	/experiments/knapen_aot/videos/R_S_pexels-anthony-shkraba-production-8135459.mp4	0.0	189.38500094413757	0.09993982315063477
42	128.85742592811584	fix_pre	0		48.0	40.0	2.5	/experiments/knapen_aot/videos/R_S_yt-HwEfWfFJhRo_126.mp4	0.0	189.4849407672882	0.4000120162963867
42	129.24929404258728	response	0	2		40.0	2.5	/experiments/knapen_aot/videos/R_S_yt-HwEfWfFJhRo_126.mp4	0.0	189.87680888175964	
42	129.25743794441223	movie	1		301.0	40.0	2.5	/experiments/knapen_aot/videos/R_S_yt-HwEfWfFJhRo_126.mp4	0.0	189.8849527835846	2.5083980560302734
42	131.7658360004425	fix_post	2		12.0	40.0	2.5	/experiments/knapen_aot/videos/R_S_yt-HwEfWfFJhRo_126.mp4	0.0	192.39335083961487	0.10004591941833496
43	131.86588191986084	fix_pre	0		51.0	41.0	2.5	/experiments/knapen_aot/videos/R_S_yt-hvuC_2YXsTQ_73.mp4	0.0	192.4933967590332	0.42494702339172363
43	132.27514910697937	response	0	2		41.0	2.5	/experiments/knapen_aot/videos/R_S_yt-hvuC_2YXsTQ_73.mp4	0.0	192.90266394615173	
43	132.29082894325256	movie	1		301.0	41.0	2.5	/experiments/knapen_aot/videos/R_S_yt-hvuC_2YXsTQ_73.mp4	0.0	192.91834378242493	2.5083529949188232
43	134.7991819381714	fix_post	2		12.0	41.0	2.5	/experiments/knapen_aot/videos/R_S_yt-hvuC_2YXsTQ_73.mp4	0.0	195.42669677734375	0.09997701644897461
44	134.89915895462036	fix_pre	0		24.0	42.0	2.5	blank	1.0	195.52667379379272	0.20004916191101074
44	135.0908751487732	response	0	2		42.0	2.5	blank	1.0	195.71838998794556	
44	135.09920811653137	movie	1		301.0	42.0	2.5	blank	1.0	195.72672295570374	2.508283853530884
44	137.60749197006226	fix_post	2		12.0	42.0	2.5	blank	1.0	198.23500680923462	0.09996414184570312
45	137.70745611190796	fix_pre	0		72.0	43.0	2.5	/experiments/knapen_aot/videos/R_S_yt-kXarkCFJLeg_46.mp4	0.0	198.33497095108032	0.5999748706817627
45	138.2991931438446	response	0	2		43.0	2.5	/experiments/knapen_aot/videos/R_S_yt-kXarkCFJLeg_46.mp4	0.0	198.92670798301697	
45	138.30743098258972	movie	1		301.0	43.0	2.5	/experiments/knapen_aot/videos/R_S_yt-kXarkCFJLeg_46.mp4	0.0	198.93494582176208	2.508392095565796
45	140.81582307815552	fix_post	2		12.0	43.0	2.5	/experiments/knapen_aot/videos/R_S_yt-kXarkCFJLeg_46.mp4	0.0	201.44333791732788	0.09995603561401367
46	140.91577911376953	fix_pre	0		52.0	44.0	2.5	/experiments/knapen_aot/videos/S_ILSVRC2015_train_00404003.mp4	0.0	201.5432939529419	0.43345189094543457
46	141.34098505973816	response	0	2		44.0	2.5	/experiments/knapen_aot/videos/S_ILSVRC2015_train_00404003.mp4	0.0	201.96849989891052	
46	141.34923100471497	movie	1		301.0	44.0	2.5	/experiments/knapen_aot/videos/S_ILSVRC2015_train_00404003.mp4	0.0	201.97674584388733	2.5082149505615234
46	143.8574459552765	fix_post	2		12.0	44.0	2.5	/experiments/knapen_aot/videos/S_ILSVRC2015_train_00404003.mp4	0.0	204.48496079444885	0.10000109672546387
47	143.95744705200195	fix_pre	0		67.0	45.0	2.5	/experiments/knapen_aot/videos/S_ILSVRC2015_train_00460000.mp4	0.0	204.58496189117432	0.5583360195159912
47	144.50762295722961	response	0	2		45.0	2.5	/experiments/knapen_aot/videos/S_ILSVRC2015_train_00460000.mp4	0.0	205.13513779640198	
47	144.51578307151794	movie	1		301.0	45.0	2.5	/experiments/knapen_aot/videos/S_ILSVRC2015_train_00460000.mp4	0.0	205.1432979106903	2.508349895477295
47	147.02413296699524	fix_post	2		12.0	45.0	2.5	/experiments/knapen_aot/videos/S_ILSVRC2015_train_00460000.mp4	0.0	207.6516478061676	0.099945068359375
48	147.12407803535461	fix_pre	0		45.0	46.0	2.5	/experiments/knapen_aot/videos/R_S_yt-PvWkOmfZuSY_4.mp4	0.0	207.75159287452698	0.3750131130218506
48	147.49090003967285	response	0	2		46.0	2.5	/experiments/knapen_aot/videos/R_S_yt-PvWkOmfZuSY_4.mp4	0.0	208.11841487884521	
48	147.49909114837646	movie	1		301.0	46.0	2.5	/experiments/knapen_aot/videos/R_S_yt-PvWkOmfZuSY_4.mp4	0.0	208.12660598754883	2.5083417892456055
48	150.00743293762207	fix_post	2		12.0	46.0	2.5	/experiments/knapen_aot/videos/R_S_yt-PvWkOmfZuSY_4.mp4	0.0	210.63494777679443	0.1000220775604248
49	150.1074550151825	fix_pre	0		45.0	47.0	2.5	/experiments/knapen_aot/videos/S_cST9H3zu3zQ_126.mp4	0.0	210.73496985435486	0.37496209144592285
49	150.47423601150513	response	0	2		47.0	2.5	/experiments/knapen_aot/videos/S_cST9H3zu3zQ_126.mp4	0.0	211.1017508506775	
49	150.48241710662842	movie	1		298.0	47.0	2.5	/experiments/knapen_aot/videos/S_cST9H3zu3zQ_126.mp4	0.0	211.10993194580078	2.508255958557129
49	152.99067306518555	fix_post	2		12.0	47.0	2.5	/experiments/knapen_aot/videos/S_cST9H3zu3zQ_126.mp4	0.0	213.6181879043579	0.1000368595123291
50	153.09070992469788	fix_pre	0		50.0	48.0	2.5	blank	1.0	213.71822476387024	0.4166231155395508
50	153.49915313720703	response	0	2		48.0	2.5	blank	1.0	214.1266679763794	
50	153.50733304023743	movie	1		301.0	48.0	2.5	blank	1.0	214.1348478794098	2.5083670616149902
50	156.01570010185242	fix_post	2		12.0	48.0	2.5	blank	1.0	216.64321494102478	0.09999203681945801
51	156.11569213867188	fix_pre	0		62.0	49.0	2.5	/experiments/knapen_aot/videos/S_yt-2IN85w8ptmM_51.mp4	0.0	216.74320697784424	0.5166699886322021
51	156.62410306930542	response	0	2		49.0	2.5	/experiments/knapen_aot/videos/S_yt-2IN85w8ptmM_51.mp4	0.0	217.25161790847778	
51	156.63236212730408	movie	1		301.0	49.0	2.5	/experiments/knapen_aot/videos/S_yt-2IN85w8ptmM_51.mp4	0.0	217.25987696647644	2.5083608627319336
51	159.140722990036	fix_post	2		12.0	49.0	2.5	/experiments/knapen_aot/videos/S_yt-2IN85w8ptmM_51.mp4	0.0	219.76823782920837	0.09999895095825195
52	159.24072194099426	fix_pre	0		93.0	50.0	2.5	/experiments/knapen_aot/videos/R_S_yt-HwEfWfFJhRo_126.mp4	0.0	219.86823678016663	0.7749431133270264
52	160.0074441432953	response	0	2		50.0	2.5	/experiments/knapen_aot/videos/R_S_yt-HwEfWfFJhRo_126.mp4	0.0	220.63495898246765	
52	160.0156650543213	movie	1		301.0	50.0	2.5	/experiments/knapen_aot/videos/R_S_yt-HwEfWfFJhRo_126.mp4	0.0	220.64317989349365	2.508305072784424
52	162.5239701271057	fix_post	2		12.0	50.0	2.5	/experiments/knapen_aot/videos/R_S_yt-HwEfWfFJhRo_126.mp4	0.0	223.15148496627808	0.10003089904785156
53	162.62400102615356	fix_pre	0		46.0	51.0	2.5	/experiments/knapen_aot/videos/R_S_ILSVRC2015_train_00654000.mp4	0.0	223.25151586532593	0.38336801528930664
53	162.99916696548462	response	0	2		51.0	2.5	/experiments/knapen_aot/videos/R_S_ILSVRC2015_train_00654000.mp4	0.0	223.62668180465698	
53	163.00736904144287	movie	1		301.0	51.0	2.5	/experiments/knapen_aot/videos/R_S_ILSVRC2015_train_00654000.mp4	0.0	223.63488388061523	2.508344888687134
53	165.51571393013	fix_post	2		12.0	51.0	2.5	/experiments/knapen_aot/videos/R_S_ILSVRC2015_train_00654000.mp4	0.0	226.14322876930237	0.10004520416259766
54	165.6157591342926	fix_pre	0		59.0	52.0	2.5	/experiments/knapen_aot/videos/R_S_ILSVRC2015_train_00610000.mp4	0.0	226.24327397346497	0.49290895462036133
54	166.0991930961609	response	0	2		52.0	2.5	/experiments/knapen_aot/videos/R_S_ILSVRC2015_train_00610000.mp4	0.0	226.72670793533325	
54	166.10866808891296	movie	1		301.0	52.0	2.5	/experiments/knapen_aot/videos/R_S_ILSVRC2015_train_00610000.mp4	0.0	226.73618292808533	2.507024049758911
54	168.61569213867188	fix_post	2		12.0	52.0	2.5	/experiments/knapen_aot/videos/R_S_ILSVRC2015_train_00610000.mp4	0.0	229.24320697784424	0.09998679161071777
55	168.7156789302826	fix_pre	0		67.0	53.0	2.5	/experiments/knapen_aot/videos/S_BsNCrwV7d8Q_9.mp4	0.0	229.34319376945496	0.55961012840271
55	169.26583099365234	response	0	2		53.0	2.5	/experiments/knapen_aot/videos/S_BsNCrwV7d8Q_9.mp4	0.0	229.8933458328247	
55	169.2752890586853	movie	1		301.0	53.0	2.5	/experiments/knapen_aot/videos/S_BsNCrwV7d8Q_9.mp4	0.0	229.90280389785767	2.507004976272583
55	171.78229403495789	fix_post	2		12.0	53.0	2.5	/experiments/knapen_aot/videos/S_BsNCrwV7d8Q_9.mp4	0.0	232.40980887413025	0.1000208854675293
56	171.88231492042542	fix_pre	0		56.0	54.0	2.5	/experiments/knapen_aot/videos/R_S_yt-eVAlSjH8E8k_127.mp4	0.0	232.50982975959778	0.46666502952575684
56	172.34080004692078	response	0	2		54.0	2.5	/experiments/knapen_aot/videos/R_S_yt-eVAlSjH8E8k_127.mp4	0.0	232.96831488609314	
56	172.34897994995117	movie	1		301.0	54.0	2.5	/experiments/knapen_aot/videos/R_S_yt-eVAlSjH8E8k_127.mp4	0.0	232.97649478912354	2.508289098739624
56	174.8572690486908	fix_post	2		12.0	54.0	2.5	/experiments/knapen_aot/videos/R_S_yt-eVAlSjH8E8k_127.mp4	0.0	235.48478388786316	0.09994101524353027
57	174.95721006393433	fix_pre	0		38.0	55.0	2.5	blank	1.0	235.5847249031067	0.31676197052001953
57	175.26585412025452	response	0	2		55.0	2.5	blank	1.0	235.89336895942688	
57	175.27397203445435	movie	1		301.0	55.0	2.5	blank	1.0	235.9014868736267	2.5083401203155518
57	177.7823121547699	fix_post	2		12.0	55.0	2.5	blank	1.0	238.40982699394226	0.10002899169921875
58	177.88234114646912	fix_pre	0		75.0	56.0	2.5	/experiments/knapen_aot/videos/R_S_flickr-hapanine-31880782705_22.mp4	0.0	238.50985598564148	0.6250159740447998
58	178.49910402297974	response	0	2		56.0	2.5	/experiments/knapen_aot/videos/R_S_flickr-hapanine-31880782705_22.mp4	0.0	239.1266188621521	
58	178.50735712051392	movie	1		165.0	56.0	2.5	/experiments/knapen_aot/videos/R_S_flickr-hapanine-31880782705_22.mp4	0.0	239.13487195968628	2.5082569122314453
58	181.01561403274536	fix_post	2		12.0	56.0	2.5	/experiments/knapen_aot/videos/R_S_flickr-hapanine-31880782705_22.mp4	0.0	241.64312887191772	0.09996891021728516
59	181.11558294296265	fix_pre	0		44.0	57.0	2.5	/experiments/knapen_aot/videos/R_S_yt-9mWz93En7Gw_97.mp4	0.0	241.743097782135	0.36789703369140625
59	181.47407293319702	response	0	2		57.0	2.5	/experiments/knapen_aot/videos/R_S_yt-9mWz93En7Gw_97.mp4	0.0	242.10158777236938	
59	181.48347997665405	movie	1		301.0	57.0	2.5	/experiments/knapen_aot/videos/R_S_yt-9mWz93En7Gw_97.mp4	0.0	242.11099481582642	2.5071120262145996
59	183.99059200286865	fix_post	2		12.0	57.0	2.5	/experiments/knapen_aot/videos/R_S_yt-9mWz93En7Gw_97.mp4	0.0	244.61810684204102	0.1000070571899414
60	184.0905990600586	fix_pre	0		45.0	58.0	2.5	/experiments/knapen_aot/videos/R_S_yt-8RmEimCI80g_35.mp4	0.0	244.71811389923096	0.37493395805358887
60	184.45744109153748	response	0	2		58.0	2.5	/experiments/knapen_aot/videos/R_S_yt-8RmEimCI80g_35.mp4	0.0	245.08495593070984	
60	184.46553301811218	movie	1		301.0	58.0	2.5	/experiments/knapen_aot/videos/R_S_yt-8RmEimCI80g_35.mp4	0.0	245.09304785728455	2.5083870887756348
60	186.97392010688782	fix_post	2		12.0	58.0	2.5	/experiments/knapen_aot/videos/R_S_yt-8RmEimCI80g_35.mp4	0.0	247.60143494606018	0.09998583793640137
61	187.07390594482422	fix_pre	0		63.0	59.0	2.5	/experiments/knapen_aot/videos/S_bing-www_nbcnews_com_storyline_isis-terror_fall-isis-stronghold-raqqa-will-change-war-extremists-not-end-n808621_86.mp4	0.0	247.70142078399658	0.5249881744384766
61	187.5907199382782	response	0	2		59.0	2.5	/experiments/knapen_aot/videos/S_bing-www_nbcnews_com_storyline_isis-terror_fall-isis-stronghold-raqqa-will-change-war-extremists-not-end-n808621_86.mp4	0.0	248.21823477745056	
61	187.5988941192627	movie	1		162.0	59.0	2.5	/experiments/knapen_aot/videos/S_bing-www_nbcnews_com_storyline_isis-terror_fall-isis-stronghold-raqqa-will-change-war-extremists-not-end-n808621_86.mp4	0.0	248.22640895843506	2.5082948207855225
61	190.10718894004822	fix_post	2		12.0	59.0	2.5	/experiments/knapen_aot/videos/S_bing-www_nbcnews_com_storyline_isis-terror_fall-isis-stronghold-raqqa-will-change-war-extremists-not-end-n808621_86.mp4	0.0	250.73470377922058	0.09998321533203125
62	190.20717215538025	fix_pre	0		71.0	60.0	2.5	/experiments/knapen_aot/videos/S_video_inspire_uk_london_hampstead-heath_003.1080-h264.mp4	0.0	250.8346869945526	0.5916709899902344
62	190.7907199859619	response	0	2		60.0	2.5	/experiments/knapen_aot/videos/S_video_inspire_uk_london_hampstead-heath_003.1080-h264.mp4	0.0	251.41823482513428	
62	190.79884314537048	movie	1		171.0	60.0	2.5	/experiments/knapen_aot/videos/S_video_inspire_uk_london_hampstead-heath_003.1080-h264.mp4	0.0	251.42635798454285	2.508413791656494
62	193.30725693702698	fix_post	2		12.0	60.0	2.5	/experiments/knapen_aot/videos/S_video_inspire_uk_london_hampstead-heath_003.1080-h264.mp4	0.0	253.93477177619934	0.09999799728393555
63	193.4072549343109	fix_pre	0		55.0	61.0	2.5	/experiments/knapen_aot/videos/R_S_yt-H5LQq4MPIao_660.mp4	0.0	254.03476977348328	0.4582631587982178
63	193.85736799240112	response	0	2		61.0	2.5	/experiments/knapen_aot/videos/R_S_yt-H5LQq4MPIao_660.mp4	0.0	254.4848828315735	
63	193.86551809310913	movie	1		300.0	61.0	2.5	/experiments/knapen_aot/videos/R_S_yt-H5LQq4MPIao_660.mp4	0.0	254.4930329322815	2.5082919597625732
63	196.3738100528717	fix_post	2		12.0	61.0	2.5	/experiments/knapen_aot/videos/R_S_yt-H5LQq4MPIao_660.mp4	0.0	257.00132489204407	0.10007786750793457
64	196.47388792037964	fix_pre	0		71.0	62.0	2.5	blank	1.0	257.101402759552	0.5916521549224854
64	197.0573329925537	response	0	2		62.0	2.5	blank	1.0	257.6848478317261	
64	197.06554007530212	movie	1		301.0	62.0	2.5	blank	1.0	257.6930549144745	2.5083329677581787
64	199.5738730430603	fix_post	2		12.0	62.0	2.5	blank	1.0	260.20138788223267	0.09999608993530273
65	199.6738691329956	fix_pre	0		57.0	63.0	2.5	/experiments/knapen_aot/videos/R_S_video_inspire_uk_edinburgh_arthursseat_010.1080-h264.mp4	0.0	260.30138397216797	0.4761087894439697
65	200.14071607589722	response	0	2		63.0	2.5	/experiments/knapen_aot/videos/R_S_video_inspire_uk_edinburgh_arthursseat_010.1080-h264.mp4	0.0	260.7682309150696	
65	200.14997792243958	movie	1		173.0	63.0	2.5	/experiments/knapen_aot/videos/R_S_video_inspire_uk_edinburgh_arthursseat_010.1080-h264.mp4	0.0	260.77749276161194	2.5071911811828613
65	202.65716910362244	fix_post	2		12.0	63.0	2.5	/experiments/knapen_aot/videos/R_S_video_inspire_uk_edinburgh_arthursseat_010.1080-h264.mp4	0.0	263.2846839427948	0.09996390342712402
66	202.75713300704956	fix_pre	0		54.0	64.0	2.5	/experiments/knapen_aot/videos/S_yt-6aqg1P9YqR8_38.mp4	0.0	263.3846478462219	0.4500420093536377
66	203.19901609420776	response	0	2		64.0	2.5	/experiments/knapen_aot/videos/S_yt-6aqg1P9YqR8_38.mp4	0.0	263.8265309333801	
66	203.2071750164032	movie	1		298.0	64.0	2.5	/experiments/knapen_aot/videos/S_yt-6aqg1P9YqR8_38.mp4	0.0	263.83468985557556	2.5084729194641113
66	205.7156479358673	fix_post	2		12.0	64.0	2.5	/experiments/knapen_aot/videos/S_yt-6aqg1P9YqR8_38.mp4	0.0	266.3431627750397	0.09990715980529785
67	205.8155550956726	fix_pre	0		63.0	65.0	2.5	/experiments/knapen_aot/videos/R_S_yt-hQ5pge893b4_6.mp4	0.0	266.44306993484497	0.5249769687652588
67	206.33235812187195	response	0	2		65.0	2.5	/experiments/knapen_aot/videos/R_S_yt-hQ5pge893b4_6.mp4	0.0	266.9598729610443	
67	206.34053206443787	movie	1		301.0	65.0	2.5	/experiments/knapen_aot/videos/R_S_yt-hQ5pge893b4_6.mp4	0.0	266.96804690361023	2.5083608627319336
67	208.8488929271698	fix_post	2		12.0	65.0	2.5	/experiments/knapen_aot/videos/R_S_yt-hQ5pge893b4_6.mp4	0.0	269.47640776634216	0.09990119934082031
68	208.94879412651062	fix_pre	0		83.0	66.0	2.5	/experiments/knapen_aot/videos/R_S_yt-J-tkAYy40uY_84.mp4	0.0	269.576308965683	0.6916608810424805
68	209.6323311328888	response	0	2		66.0	2.5	/experiments/knapen_aot/videos/R_S_yt-J-tkAYy40uY_84.mp4	0.0	270.25984597206116	
68	209.6404550075531	movie	1		298.0	66.0	2.5	/experiments/knapen_aot/videos/R_S_yt-J-tkAYy40uY_84.mp4	0.0	270.26796984672546	2.50838303565979
68	212.1488380432129	fix_post	2		12.0	66.0	2.5	/experiments/knapen_aot/videos/R_S_yt-J-tkAYy40uY_84.mp4	0.0	272.77635288238525	0.10000491142272949
69	212.24884295463562	fix_pre	0		67.0	67.0	2.5	/experiments/knapen_aot/videos/S_yt-nYi_FfCjepk_74.mp4	0.0	272.876357793808	0.558251142501831
69	212.7989239692688	response	0	2		67.0	2.5	/experiments/knapen_aot/videos/S_yt-nYi_FfCjepk_74.mp4	0.0	273.42643880844116	
69	212.80709409713745	movie	1		301.0	67.0	2.5	/experiments/knapen_aot/videos/S_yt-nYi_FfCjepk_74.mp4	0.0	273.4346089363098	2.5085270404815674
69	215.31562113761902	fix_post	2		12.0	67.0	2.5	/experiments/knapen_aot/videos/S_yt-nYi_FfCjepk_74.mp4	0.0	275.9431359767914	0.09988284111022949
70	215.41550397872925	fix_pre	0		69.0	68.0	2.5	/experiments/knapen_aot/videos/R_S_ILSVRC2015_train_00185002.mp4	0.0	276.0430188179016	0.5749740600585938
70	215.98227405548096	response	0	2		68.0	2.5	/experiments/knapen_aot/videos/R_S_ILSVRC2015_train_00185002.mp4	0.0	276.6097888946533	
70	215.99047803878784	movie	1		301.0	68.0	2.5	/experiments/knapen_aot/videos/R_S_ILSVRC2015_train_00185002.mp4	0.0	276.6179928779602	2.508307933807373
70	218.49878597259521	fix_post	2		12.0	68.0	2.5	/experiments/knapen_aot/videos/R_S_ILSVRC2015_train_00185002.mp4	0.0	279.1263008117676	0.1000370979309082
71	218.59882307052612	fix_pre	0		50.0	69.0	2.5	/experiments/knapen_aot/videos/R_S_yt-TSSPDwAQLXs_158.mp4	0.0	279.2263379096985	0.41663503646850586
71	219.0072419643402	response	0	2		69.0	2.5	/experiments/knapen_aot/videos/R_S_yt-TSSPDwAQLXs_158.mp4	0.0	279.6347568035126	
71	219.01545810699463	movie	1		301.0	69.0	2.5	/experiments/knapen_aot/videos/R_S_yt-TSSPDwAQLXs_158.mp4	0.0	279.642972946167	2.5083160400390625
71	221.5237741470337	fix_post	2		12.0	69.0	2.5	/experiments/knapen_aot/videos/R_S_yt-TSSPDwAQLXs_158.mp4	0.0	282.15128898620605	0.10000085830688477
72	221.62377500534058	fix_pre	0		62.0	70.0	2.5	blank	1.0	282.25128984451294	0.5167450904846191
72	222.1321930885315	response	0	2		70.0	2.5	blank	1.0	282.75970792770386	
72	222.1405200958252	movie	1		301.0	70.0	2.5	blank	1.0	282.76803493499756	2.5082428455352783
72	224.64876294136047	fix_post	2		12.0	70.0	2.5	blank	1.0	285.27627778053284	0.09996414184570312
73	224.74872708320618	fix_pre	0		36.0	71.0	2.5	/experiments/knapen_aot/videos/R_S_wc-AyT9mzwZsu0T_14.mp4	0.0	285.37624192237854	0.3001549243927002
73	225.04054307937622	response	0	2		71.0	2.5	/experiments/knapen_aot/videos/R_S_wc-AyT9mzwZsu0T_14.mp4	0.0	285.6680579185486	
73	225.04888200759888	movie	1		166.0	71.0	2.5	/experiments/knapen_aot/videos/R_S_wc-AyT9mzwZsu0T_14.mp4	0.0	285.67639684677124	2.5081520080566406
73	227.55703401565552	fix_post	2		12.0	71.0	2.5	/experiments/knapen_aot/videos/R_S_wc-AyT9mzwZsu0T_14.mp4	0.0	288.1845488548279	0.09999203681945801
74	227.65702605247498	fix_pre	0		48.0	72.0	2.5	/experiments/knapen_aot/videos/S_ILSVRC2015_train_00638001.mp4	0.0	288.28454089164734	0.400022029876709
74	228.04890513420105	response	0	2		72.0	2.5	/experiments/knapen_aot/videos/S_ILSVRC2015_train_00638001.mp4	0.0	288.6764199733734	
74	228.05704808235168	movie	1		301.0	72.0	2.5	/experiments/knapen_aot/videos/S_ILSVRC2015_train_00638001.mp4	0.0	288.68456292152405	2.5083038806915283
74	230.5653519630432	fix_post	2		12.0	72.0	2.5	/experiments/knapen_aot/videos/S_ILSVRC2015_train_00638001.mp4	0.0	291.1928668022156	0.10000205039978027
75	230.665354013443	fix_pre	0		48.0	73.0	2.5	/experiments/knapen_aot/videos/R_S_comp_GMT308_139K_142NC_CARIBBEAN_DAY_v09_SDR_FINAL_22062018_SDR_2K_AVC.mp4	0.0	291.29286885261536	0.40103912353515625
75	231.05717301368713	response	0	2		73.0	2.5	/experiments/knapen_aot/videos/R_S_comp_GMT308_139K_142NC_CARIBBEAN_DAY_v09_SDR_FINAL_22062018_SDR_2K_AVC.mp4	0.0	291.6846878528595	
75	231.06639313697815	movie	1		170.0	73.0	2.5	/experiments/knapen_aot/videos/R_S_comp_GMT308_139K_142NC_CARIBBEAN_DAY_v09_SDR_FINAL_22062018_SDR_2K_AVC.mp4	0.0	291.6939079761505	2.5073277950286865
75	233.57372093200684	fix_post	2		12.0	73.0	2.5	/experiments/knapen_aot/videos/R_S_comp_GMT308_139K_142NC_CARIBBEAN_DAY_v09_SDR_FINAL_22062018_SDR_2K_AVC.mp4	0.0	294.2012357711792	0.100006103515625
76	233.67372703552246	fix_pre	0		68.0	74.0	2.5	/experiments/knapen_aot/videos/S_1y-EvnfGO9Y_70.mp4	0.0	294.3012418746948	0.5667810440063477
76	234.23218703269958	response	0	2		74.0	2.5	/experiments/knapen_aot/videos/S_1y-EvnfGO9Y_70.mp4	0.0	294.85970187187195	
76	234.2405080795288	movie	1		301.0	74.0	2.5	/experiments/knapen_aot/videos/S_1y-EvnfGO9Y_70.mp4	0.0	294.8680229187012	2.5082509517669678
76	236.74875903129578	fix_post	2		12.0	74.0	2.5	/experiments/knapen_aot/videos/S_1y-EvnfGO9Y_70.mp4	0.0	297.37627387046814	0.09990501403808594
77	236.84866404533386	fix_pre	0		71.0	75.0	2.5	/experiments/knapen_aot/videos/R_S_yt-RlHmMGUjT9E_130.mp4	0.0	297.4761788845062	0.5926320552825928
77	237.4321870803833	response	0	2		75.0	2.5	/experiments/knapen_aot/videos/R_S_yt-RlHmMGUjT9E_130.mp4	0.0	298.05970191955566	
77	237.44129610061646	movie	1		301.0	75.0	2.5	/experiments/knapen_aot/videos/R_S_yt-RlHmMGUjT9E_130.mp4	0.0	298.0688109397888	2.5074069499969482
77	239.9487030506134	fix_post	2		12.0	75.0	2.5	/experiments/knapen_aot/videos/R_S_yt-RlHmMGUjT9E_130.mp4	0.0	300.57621788978577	0.10002303123474121
78	240.04872608184814	fix_pre	0		66.0	76.0	2.5	/experiments/knapen_aot/videos/R_S_yt-hQ5pge893b4_6.mp4	0.0	300.6762409210205	0.5500268936157227
78	240.5905089378357	response	0	2		76.0	2.5	/experiments/knapen_aot/videos/R_S_yt-hQ5pge893b4_6.mp4	0.0	301.21802377700806	
78	240.59875297546387	movie	1		301.0	76.0	2.5	/experiments/knapen_aot/videos/R_S_yt-hQ5pge893b4_6.mp4	0.0	301.22626781463623	2.5083320140838623
78	243.10708498954773	fix_post	2		12.0	76.0	2.5	/experiments/knapen_aot/videos/R_S_yt-hQ5pge893b4_6.mp4	0.0	303.7345998287201	0.09992098808288574
79	243.20700597763062	fix_pre	0		69.0	77.0	2.5	blank	1.0	303.834520816803	0.5749709606170654
79	243.77378106117249	response	0	2		77.0	2.5	blank	1.0	304.40129590034485	
79	243.78197693824768	movie	1		301.0	77.0	2.5	blank	1.0	304.40949177742004	2.5083961486816406
79	246.29037308692932	fix_post	2		12.0	77.0	2.5	blank	1.0	306.9178879261017	0.10003805160522461
80	246.39041113853455	fix_pre	0		103.0	78.0	2.5	/experiments/knapen_aot/videos/S_comp_H012_C009_PS_v01_SDR_PS_20180925_SDR_2K_AVC.mp4	0.0	307.0179259777069	0.8583087921142578
80	247.24043703079224	response	0	2		78.0	2.5	/experiments/knapen_aot/videos/S_comp_H012_C009_PS_v01_SDR_PS_20180925_SDR_2K_AVC.mp4	0.0	307.8679518699646	
80	247.2487199306488	movie	1		168.0	78.0	2.5	/experiments/knapen_aot/videos/S_comp_H012_C009_PS_v01_SDR_PS_20180925_SDR_2K_AVC.mp4	0.0	307.87623476982117	2.508270025253296
80	249.7569899559021	fix_post	2		12.0	78.0	2.5	/experiments/knapen_aot/videos/S_comp_H012_C009_PS_v01_SDR_PS_20180925_SDR_2K_AVC.mp4	0.0	310.38450479507446	0.10002303123474121
81	249.85701298713684	fix_pre	0		64.0	79.0	2.5	/experiments/knapen_aot/videos/S_yt-Ndwek2tpIOA_169.mp4	0.0	310.4845278263092	0.5333139896392822
81	250.38214302062988	response	0	2		79.0	2.5	/experiments/knapen_aot/videos/S_yt-Ndwek2tpIOA_169.mp4	0.0	311.00965785980225	
81	250.39032697677612	movie	1		297.0	79.0	2.5	/experiments/knapen_aot/videos/S_yt-Ndwek2tpIOA_169.mp4	0.0	311.0178418159485	2.508392095565796
81	252.89871907234192	fix_post	2		12.0	79.0	2.5	/experiments/knapen_aot/videos/S_yt-Ndwek2tpIOA_169.mp4	0.0	313.5262339115143	0.10000801086425781
82	252.99872708320618	fix_pre	0		63.0	80.0	2.5	/experiments/knapen_aot/videos/S_yt-9mWz93En7Gw_97.mp4	0.0	313.62624192237854	0.525825023651123
82	253.51542496681213	response	0	2		80.0	2.5	/experiments/knapen_aot/videos/S_yt-9mWz93En7Gw_97.mp4	0.0	314.1429398059845	
82	253.5245521068573	movie	1		301.0	80.0	2.5	/experiments/knapen_aot/videos/S_yt-9mWz93En7Gw_97.mp4	0.0	314.15206694602966	2.507382869720459
82	256.03193497657776	fix_post	2		12.0	80.0	2.5	/experiments/knapen_aot/videos/S_yt-9mWz93En7Gw_97.mp4	0.0	316.6594498157501	0.10007715225219727
83	256.13201212882996	fix_pre	0		56.0	81.0	2.5	/experiments/knapen_aot/videos/S_production_ID_4153808.mp4	0.0	316.7595269680023	0.4666128158569336
83	256.5829050540924	response	0	2		81.0	2.5	/experiments/knapen_aot/videos/S_production_ID_4153808.mp4	0.0	317.21041989326477	
83	256.5986249446869	movie	1		194.0	81.0	2.5	/experiments/knapen_aot/videos/S_production_ID_4153808.mp4	0.0	317.22613978385925	2.5083110332489014
83	259.1069359779358	fix_post	2		12.0	81.0	2.5	/experiments/knapen_aot/videos/S_production_ID_4153808.mp4	0.0	319.73445081710815	0.10007095336914062
84	259.20700693130493	fix_pre	0		55.0	82.0	2.5	blank	1.0	319.8345217704773	0.45833516120910645
84	259.6571190357208	response	0	2		82.0	2.5	blank	1.0	320.2846338748932	
84	259.66534209251404	movie	1		301.0	82.0	2.5	blank	1.0	320.2928569316864	2.5082688331604004
84	262.17361092567444	fix_post	2		12.0	82.0	2.5	blank	1.0	322.8011257648468	0.09997105598449707
85	262.27358198165894	fix_pre	0		54.0	83.0	2.5	/experiments/knapen_aot/videos/S_yt-XA6RBioito4_18.mp4	0.0	322.9010968208313	0.4500100612640381
85	262.70783400535583	response	0	2		83.0	2.5	/experiments/knapen_aot/videos/S_yt-XA6RBioito4_18.mp4	0.0	323.3353488445282	
85	262.723592042923	movie	1		301.0	83.0	2.5	/experiments/knapen_aot/videos/S_yt-XA6RBioito4_18.mp4	0.0	323.35110688209534	2.5083730220794678
85	265.23196506500244	fix_post	2		12.0	83.0	2.5	/experiments/knapen_aot/videos/S_yt-XA6RBioito4_18.mp4	0.0	325.8594799041748	0.10002398490905762
87	265.3319890499115	stim	0		173.0					325.95950388908386	1.4423680305480957
87	266.76633310317993	response	0	space						327.3938479423523	
