trial_nr	onset	event_type	phase	response	nr_frames	movie_index	movie_duration	movie_file	blank	onset_abs	duration
0	0.13759517669677734	stim	0		25.0					89.44753527641296	0.21408486366271973
0	0.3417661190032959	response	0	space						89.65170621871948	
1	0.35168004035949707	stim	0		121.0					89.66162014007568	1.006296157836914
1	0.8916511535644531	response	0	space						90.20159125328064	
1	1.3579761981964111	stim	1		120.0					90.6679162979126	0.9998939037322998
1	1.724769115447998	response	1	space						91.03470921516418	
1	2.133824110031128	response	1	space						91.44376420974731	
2	2.357870101928711	fix_pre	0		23.0	0.0	2.5	/experiments/knapen_aot/oldvideos/S_pexels-pavel-danilyuk-8057714.mp4	0.0	91.6678102016449	0.19174909591674805
2	2.5339090824127197	response	0	space		0.0	2.5	/experiments/knapen_aot/oldvideos/S_pexels-pavel-danilyuk-8057714.mp4	0.0	91.8438491821289	
2	2.549619197845459	movie	1		164.0	0.0	2.5	/experiments/knapen_aot/oldvideos/S_pexels-pavel-danilyuk-8057714.mp4	0.0	91.85955929756165	2.508291006088257
2	5.057910203933716	fix_post	2		12.0	0.0	2.5	/experiments/knapen_aot/oldvideos/S_pexels-pavel-danilyuk-8057714.mp4	0.0	94.3678503036499	0.09998583793640137
3	5.157896041870117	fix_pre	0		111.0	1.0	2.5	/experiments/knapen_aot/oldvideos/S_yt-MXLxcvKZDHw_22.mp4	0.0	94.4678361415863	0.9249851703643799
3	6.076988220214844	response	0	2		1.0	2.5	/experiments/knapen_aot/oldvideos/S_yt-MXLxcvKZDHw_22.mp4	0.0	95.38692831993103	
3	6.082881212234497	movie	1		296.0	1.0	2.5	/experiments/knapen_aot/oldvideos/S_yt-MXLxcvKZDHw_22.mp4	0.0	95.39282131195068	2.50846791267395
3	8.591349124908447	fix_post	2		12.0	1.0	2.5	/experiments/knapen_aot/oldvideos/S_yt-MXLxcvKZDHw_22.mp4	0.0	97.90128922462463	0.09990596771240234
4	8.69125509262085	fix_pre	0		14.0	2.0	2.5	/experiments/knapen_aot/oldvideos/R_S_production_ID_4154238.mp4	0.0	98.00119519233704	0.11658501625061035
4	8.799714088439941	response	0	2		2.0	2.5	/experiments/knapen_aot/oldvideos/R_S_production_ID_4154238.mp4	0.0	98.10965418815613	
4	8.80784010887146	movie	1		203.0	2.0	2.5	/experiments/knapen_aot/oldvideos/R_S_production_ID_4154238.mp4	0.0	98.11778020858765	2.5085630416870117
4	11.316403150558472	fix_post	2		12.0	2.0	2.5	/experiments/knapen_aot/oldvideos/R_S_production_ID_4154238.mp4	0.0	100.62634325027466	0.0998380184173584
5	11.41624116897583	fix_pre	0		8.0	3.0	2.5	/experiments/knapen_aot/oldvideos/R_S_yt-pbFpqAQJCJo_149.mp4	0.0	100.72618126869202	0.06691694259643555
5	11.467113018035889	response	0	2		3.0	2.5	/experiments/knapen_aot/oldvideos/R_S_yt-pbFpqAQJCJo_149.mp4	0.0	100.77705311775208	
5	11.483158111572266	movie	1		301.0	3.0	2.5	/experiments/knapen_aot/oldvideos/R_S_yt-pbFpqAQJCJo_149.mp4	0.0	100.79309821128845	2.508002996444702
5	13.991161108016968	fix_post	2		12.0	3.0	2.5	/experiments/knapen_aot/oldvideos/R_S_yt-pbFpqAQJCJo_149.mp4	0.0	103.30110120773315	0.10014510154724121
6	14.091306209564209	fix_pre	0		40.0	4.0	2.5	/experiments/knapen_aot/oldvideos/R_S_yt-NOnR6C2sjpI_97.mp4	0.0	103.4012463092804	0.3332397937774658
6	14.41627812385559	response	0	2		4.0	2.5	/experiments/knapen_aot/oldvideos/R_S_yt-NOnR6C2sjpI_97.mp4	0.0	103.72621822357178	
6	14.424546003341675	movie	1		301.0	4.0	2.5	/experiments/knapen_aot/oldvideos/R_S_yt-NOnR6C2sjpI_97.mp4	0.0	103.73448610305786	2.5083131790161133
6	16.932859182357788	fix_post	2		12.0	4.0	2.5	/experiments/knapen_aot/oldvideos/R_S_yt-NOnR6C2sjpI_97.mp4	0.0	106.24279928207397	0.09998893737792969
7	17.032848119735718	fix_pre	0		4.0	5.0	2.5	/experiments/knapen_aot/oldvideos/S_yt-n_eO-7KedAE_21.mp4	0.0	106.3427882194519	0.033998966217041016
7	17.058072090148926	response	0	2		5.0	2.5	/experiments/knapen_aot/oldvideos/S_yt-n_eO-7KedAE_21.mp4	0.0	106.36801218986511	
7	17.06684708595276	movie	1		301.0	5.0	2.5	/experiments/knapen_aot/oldvideos/S_yt-n_eO-7KedAE_21.mp4	0.0	106.37678718566895	2.5076470375061035
7	19.566258192062378	response	1	4		5.0	2.5	/experiments/knapen_aot/oldvideos/S_yt-n_eO-7KedAE_21.mp4	0.0	108.87619829177856	
7	19.574494123458862	fix_post	2		12.0	5.0	2.5	/experiments/knapen_aot/oldvideos/S_yt-n_eO-7KedAE_21.mp4	0.0	108.88443422317505	0.1000070571899414
8	19.674501180648804	fix_pre	0		25.0	6.0	2.5	blank	1.0	108.98444128036499	0.20828890800476074
8	19.867027044296265	response	0	4		6.0	2.5	blank	1.0	109.17696714401245	
8	19.882790088653564	movie	1		301.0	6.0	2.5	blank	1.0	109.19273018836975	2.5083789825439453
8	22.23295307159424	response	1	4		6.0	2.5	blank	1.0	111.54289317131042	
8	22.39116907119751	fix_post	2		12.0	6.0	2.5	blank	1.0	111.7011091709137	0.09998512268066406
9	22.491154193878174	fix_pre	0		6.0	7.0	2.5	/experiments/knapen_aot/oldvideos/S_yt-EuyfT0PuOoQ_91.mp4	0.0	111.80109429359436	0.04997992515563965
9	22.532923221588135	response	0	4		7.0	2.5	/experiments/knapen_aot/oldvideos/S_yt-EuyfT0PuOoQ_91.mp4	0.0	111.84286332130432	
9	22.541134119033813	movie	1		301.0	7.0	2.5	/experiments/knapen_aot/oldvideos/S_yt-EuyfT0PuOoQ_91.mp4	0.0	111.85107421875	2.508359909057617
9	24.574586153030396	response	1	4		7.0	2.5	/experiments/knapen_aot/oldvideos/S_yt-EuyfT0PuOoQ_91.mp4	0.0	113.88452625274658	
9	24.886077165603638	response	1	4		7.0	2.5	/experiments/knapen_aot/oldvideos/S_yt-EuyfT0PuOoQ_91.mp4	0.0	114.19601726531982	
9	25.04949402809143	fix_post	2		12.0	7.0	2.5	/experiments/knapen_aot/oldvideos/S_yt-EuyfT0PuOoQ_91.mp4	0.0	114.35943412780762	0.10033702850341797
10	25.14983105659485	fix_pre	0		3.0	8.0	2.5	/experiments/knapen_aot/oldvideos/R_S_yt-khmJAQuCRRE_119.mp4	0.0	114.45977115631104	0.024706125259399414
10	25.166303157806396	response	0	4		8.0	2.5	/experiments/knapen_aot/oldvideos/R_S_yt-khmJAQuCRRE_119.mp4	0.0	114.47624325752258	
10	25.174537181854248	movie	1		301.0	8.0	2.5	/experiments/knapen_aot/oldvideos/R_S_yt-khmJAQuCRRE_119.mp4	0.0	114.48447728157043	2.508455991744995
10	27.682993173599243	fix_post	2		12.0	8.0	2.5	/experiments/knapen_aot/oldvideos/R_S_yt-khmJAQuCRRE_119.mp4	0.0	116.99293327331543	0.09981799125671387
11	27.782811164855957	fix_pre	0		2.0	9.0	2.5	/experiments/knapen_aot/oldvideos/R_S_ILSVRC2015_train_00538001.mp4	0.0	117.09275126457214	0.016672849655151367
11	27.791187047958374	response	0	2		9.0	2.5	/experiments/knapen_aot/oldvideos/R_S_ILSVRC2015_train_00538001.mp4	0.0	117.10112714767456	
11	27.79948401451111	movie	1		301.0	9.0	2.5	/experiments/knapen_aot/oldvideos/R_S_ILSVRC2015_train_00538001.mp4	0.0	117.1094241142273	2.508357048034668
11	29.916254997253418	response	1	2		9.0	2.5	/experiments/knapen_aot/oldvideos/R_S_ILSVRC2015_train_00538001.mp4	0.0	119.2261950969696	
11	30.307841062545776	fix_post	2		12.0	9.0	2.5	/experiments/knapen_aot/oldvideos/R_S_ILSVRC2015_train_00538001.mp4	0.0	119.61778116226196	0.10002303123474121
12	30.407864093780518	fix_pre	0		21.0	10.0	2.5	/experiments/knapen_aot/oldvideos/S_Y004_C015_SDR_2K_AVC.mp4	0.0	119.7178041934967	0.17492413520812988
12	30.574485063552856	response	0	2		10.0	2.5	/experiments/knapen_aot/oldvideos/S_Y004_C015_SDR_2K_AVC.mp4	0.0	119.88442516326904	
12	30.582788228988647	movie	1		166.0	10.0	2.5	/experiments/knapen_aot/oldvideos/S_Y004_C015_SDR_2K_AVC.mp4	0.0	119.89272832870483	2.5084078311920166
12	32.791280031204224	response	1	2		10.0	2.5	/experiments/knapen_aot/oldvideos/S_Y004_C015_SDR_2K_AVC.mp4	0.0	122.10122013092041	
12	33.057852029800415	response	1	2		10.0	2.5	/experiments/knapen_aot/oldvideos/S_Y004_C015_SDR_2K_AVC.mp4	0.0	122.3677921295166	
12	33.091196060180664	fix_post	2		12.0	10.0	2.5	/experiments/knapen_aot/oldvideos/S_Y004_C015_SDR_2K_AVC.mp4	0.0	122.40113615989685	0.10031509399414062
13	33.191511154174805	fix_pre	0		35.0	11.0	2.5	/experiments/knapen_aot/oldvideos/S_yt-Ul81y6R9YbE_12.mp4	0.0	122.50145125389099	0.29146599769592285
13	33.474499225616455	response	0	2		11.0	2.5	/experiments/knapen_aot/oldvideos/S_yt-Ul81y6R9YbE_12.mp4	0.0	122.78443932533264	
13	33.48297715187073	movie	1		301.0	11.0	2.5	/experiments/knapen_aot/oldvideos/S_yt-Ul81y6R9YbE_12.mp4	0.0	122.79291725158691	2.5081100463867188
13	35.991087198257446	fix_post	2		12.0	11.0	2.5	/experiments/knapen_aot/oldvideos/S_yt-Ul81y6R9YbE_12.mp4	0.0	125.30102729797363	0.10002398490905762
14	36.091111183166504	fix_pre	0		5.0	12.0	2.5	blank	1.0	125.40105128288269	0.041649818420410156
14	36.124579191207886	response	0	2		12.0	2.5	blank	1.0	125.43451929092407	
14	36.132761001586914	movie	1		301.0	12.0	2.5	blank	1.0	125.4427011013031	2.5083510875701904
14	38.641112089157104	fix_post	2		12.0	12.0	2.5	blank	1.0	127.95105218887329	0.09998297691345215
15	38.74109506607056	fix_pre	0		9.0	13.0	2.5	/experiments/knapen_aot/oldvideos/S_ILSVRC2015_train_00044004.mp4	0.0	128.05103516578674	0.07515907287597656
15	38.80791521072388	response	0	2		13.0	2.5	/experiments/knapen_aot/oldvideos/S_ILSVRC2015_train_00044004.mp4	0.0	128.11785531044006	
15	38.81625413894653	movie	1		301.0	13.0	2.5	/experiments/knapen_aot/oldvideos/S_ILSVRC2015_train_00044004.mp4	0.0	128.12619423866272	2.5081820487976074
15	41.32443618774414	fix_post	2		12.0	13.0	2.5	/experiments/knapen_aot/oldvideos/S_ILSVRC2015_train_00044004.mp4	0.0	130.63437628746033	0.1003878116607666
16	41.42482399940491	fix_pre	0		1.0	14.0	2.5	/experiments/knapen_aot/oldvideos/R_S_yt-RMjo2PPEPEA_112.mp4	0.0	130.7347640991211	0.009499073028564453
16	41.4264760017395	response	0	2		14.0	2.5	/experiments/knapen_aot/oldvideos/R_S_yt-RMjo2PPEPEA_112.mp4	0.0	130.7364161014557	
16	41.43432307243347	movie	1		301.0	14.0	2.5	/experiments/knapen_aot/oldvideos/R_S_yt-RMjo2PPEPEA_112.mp4	0.0	130.74426317214966	2.506948947906494
16	43.84951114654541	response	1	2		14.0	2.5	/experiments/knapen_aot/oldvideos/R_S_yt-RMjo2PPEPEA_112.mp4	0.0	133.1594512462616	
16	43.941272020339966	fix_post	2		12.0	14.0	2.5	/experiments/knapen_aot/oldvideos/R_S_yt-RMjo2PPEPEA_112.mp4	0.0	133.25121212005615	0.09977602958679199
17	44.04104804992676	fix_pre	0		29.0	15.0	2.5	/experiments/knapen_aot/oldvideos/R_S_ILSVRC2015_train_00446000.mp4	0.0	133.35098814964294	0.24169611930847168
17	44.27451014518738	response	0	2		15.0	2.5	/experiments/knapen_aot/oldvideos/R_S_ILSVRC2015_train_00446000.mp4	0.0	133.58445024490356	
17	44.28274416923523	movie	1		301.0	15.0	2.5	/experiments/knapen_aot/oldvideos/R_S_ILSVRC2015_train_00446000.mp4	0.0	133.59268426895142	2.5082499980926514
17	46.79099416732788	fix_post	2		12.0	15.0	2.5	/experiments/knapen_aot/oldvideos/R_S_ILSVRC2015_train_00446000.mp4	0.0	136.10093426704407	0.10008597373962402
18	46.891080141067505	fix_pre	0		18.0	16.0	2.5	/experiments/knapen_aot/oldvideos/S_pexels-c-technical-6754008.mp4	0.0	136.2010202407837	0.1499319076538086
18	47.03281021118164	response	0	2		16.0	2.5	/experiments/knapen_aot/oldvideos/S_pexels-c-technical-6754008.mp4	0.0	136.34275031089783	
18	47.04101204872131	movie	1		192.0	16.0	2.5	/experiments/knapen_aot/oldvideos/S_pexels-c-technical-6754008.mp4	0.0	136.3509521484375	2.508388042449951
18	49.549400091171265	fix_post	2		12.0	16.0	2.5	/experiments/knapen_aot/oldvideos/S_pexels-c-technical-6754008.mp4	0.0	138.85934019088745	0.10040092468261719
19	49.64980101585388	fix_pre	0		11.0	17.0	2.5	/experiments/knapen_aot/oldvideos/S_yt-VxTTEZNJWjs_110.mp4	0.0	138.95974111557007	0.09129714965820312
19	49.732795000076294	response	0	2		17.0	2.5	/experiments/knapen_aot/oldvideos/S_yt-VxTTEZNJWjs_110.mp4	0.0	139.04273509979248	
19	49.741098165512085	movie	1		301.0	17.0	2.5	/experiments/knapen_aot/oldvideos/S_yt-VxTTEZNJWjs_110.mp4	0.0	139.05103826522827	2.5083749294281006
19	52.249473094940186	fix_post	2		12.0	17.0	2.5	/experiments/knapen_aot/oldvideos/S_yt-VxTTEZNJWjs_110.mp4	0.0	141.55941319465637	0.09991192817687988
20	52.349385023117065	fix_pre	0		6.0	18.0	2.5	/experiments/knapen_aot/oldvideos/R_S_yt-VQtbKGzI9SE_431.mp4	0.0	141.65932512283325	0.05004119873046875
20	52.391189098358154	response	0	4		18.0	2.5	/experiments/knapen_aot/oldvideos/R_S_yt-VQtbKGzI9SE_431.mp4	0.0	141.70112919807434	
20	52.399426221847534	movie	1		301.0	18.0	2.5	/experiments/knapen_aot/oldvideos/R_S_yt-VQtbKGzI9SE_431.mp4	0.0	141.70936632156372	2.5082600116729736
20	54.78272604942322	response	1	4		18.0	2.5	/experiments/knapen_aot/oldvideos/R_S_yt-VQtbKGzI9SE_431.mp4	0.0	144.0926661491394	
20	54.90768623352051	fix_post	2		12.0	18.0	2.5	/experiments/knapen_aot/oldvideos/R_S_yt-VQtbKGzI9SE_431.mp4	0.0	144.2176263332367	0.10002994537353516
21	55.00771617889404	fix_pre	0		3.0	19.0	2.5	blank	1.0	144.31765627861023	0.0250089168548584
21	55.02497720718384	response	0	4		19.0	2.5	blank	1.0	144.33491730690002	
21	55.0327250957489	movie	1		301.0	19.0	2.5	blank	1.0	144.3426651954651	2.508323907852173
21	57.541049003601074	fix_post	2		12.0	19.0	2.5	blank	1.0	146.85098910331726	0.09991812705993652
21	57.54306721687317	response	2	4		19.0	2.5	blank	1.0	146.85300731658936	
22	57.64096713066101	fix_pre	0		19.0	20.0	2.5	/experiments/knapen_aot/oldvideos/S_ILSVRC2015_train_00418001.mp4	0.0	146.9509072303772	0.15838003158569336
22	57.79112505912781	response	0	4		20.0	2.5	/experiments/knapen_aot/oldvideos/S_ILSVRC2015_train_00418001.mp4	0.0	147.101065158844	
22	57.799347162246704	movie	1		301.0	20.0	2.5	/experiments/knapen_aot/oldvideos/S_ILSVRC2015_train_00418001.mp4	0.0	147.1092872619629	2.5083630084991455
22	59.559351205825806	response	1	4		20.0	2.5	/experiments/knapen_aot/oldvideos/S_ILSVRC2015_train_00418001.mp4	0.0	148.869291305542	
22	59.81627702713013	response	1	4		20.0	2.5	/experiments/knapen_aot/oldvideos/S_ILSVRC2015_train_00418001.mp4	0.0	149.1262171268463	
22	60.035884141922	response	1	4		20.0	2.5	/experiments/knapen_aot/oldvideos/S_ILSVRC2015_train_00418001.mp4	0.0	149.34582424163818	
22	60.249409198760986	response	1	4		20.0	2.5	/experiments/knapen_aot/oldvideos/S_ILSVRC2015_train_00418001.mp4	0.0	149.55934929847717	
22	60.30771017074585	fix_post	2		12.0	20.0	2.5	/experiments/knapen_aot/oldvideos/S_ILSVRC2015_train_00418001.mp4	0.0	149.61765027046204	0.10006594657897949
23	60.40777611732483	fix_pre	0		24.0	21.0	2.5	/experiments/knapen_aot/oldvideos/S_yt-aiDGx4AN8J0_9.mp4	0.0	149.71771621704102	0.19997501373291016
23	60.5994291305542	response	0	4		21.0	2.5	/experiments/knapen_aot/oldvideos/S_yt-aiDGx4AN8J0_9.mp4	0.0	149.90936923027039	
23	60.60775113105774	movie	1		301.0	21.0	2.5	/experiments/knapen_aot/oldvideos/S_yt-aiDGx4AN8J0_9.mp4	0.0	149.91769123077393	2.5082900524139404
23	63.11604118347168	fix_post	2		12.0	21.0	2.5	/experiments/knapen_aot/oldvideos/S_yt-aiDGx4AN8J0_9.mp4	0.0	152.42598128318787	0.09996891021728516
23	63.1411190032959	response	2	4		21.0	2.5	/experiments/knapen_aot/oldvideos/S_yt-aiDGx4AN8J0_9.mp4	0.0	152.45105910301208	
24	63.216010093688965	fix_pre	0		23.0	22.0	2.5	/experiments/knapen_aot/oldvideos/S_zr0tzAC2XHk_334.mp4	0.0	152.52595019340515	0.19164204597473145
24	63.39938020706177	response	0	4		22.0	2.5	/experiments/knapen_aot/oldvideos/S_zr0tzAC2XHk_334.mp4	0.0	152.70932030677795	
24	63.407652139663696	movie	1		301.0	22.0	2.5	/experiments/knapen_aot/oldvideos/S_zr0tzAC2XHk_334.mp4	0.0	152.71759223937988	2.508301019668579
24	65.91595315933228	fix_post	2		12.0	22.0	2.5	/experiments/knapen_aot/oldvideos/S_zr0tzAC2XHk_334.mp4	0.0	155.22589325904846	0.10004687309265137
24	65.94110417366028	response	2	4		22.0	2.5	/experiments/knapen_aot/oldvideos/S_zr0tzAC2XHk_334.mp4	0.0	155.25104427337646	
25	66.01600003242493	fix_pre	0		21.0	23.0	2.5	/experiments/knapen_aot/oldvideos/R_S_wc-DcFDe419cL3d_17.mp4	0.0	155.3259401321411	0.1833651065826416
25	66.17515420913696	response	0	4		23.0	2.5	/experiments/knapen_aot/oldvideos/R_S_wc-DcFDe419cL3d_17.mp4	0.0	155.48509430885315	
25	66.19936513900757	movie	1		160.0	23.0	2.5	/experiments/knapen_aot/oldvideos/R_S_wc-DcFDe419cL3d_17.mp4	0.0	155.50930523872375	2.4999539852142334
25	68.6993191242218	fix_post	2		12.0	23.0	2.5	/experiments/knapen_aot/oldvideos/R_S_wc-DcFDe419cL3d_17.mp4	0.0	158.009259223938	0.09998703002929688
26	68.7993061542511	fix_pre	0		8.0	24.0	2.5	/experiments/knapen_aot/oldvideos/R_S_yt-YEiNSML5iiQ_18.mp4	0.0	158.10924625396729	0.06664085388183594
26	68.85776209831238	response	0	4		24.0	2.5	/experiments/knapen_aot/oldvideos/R_S_yt-YEiNSML5iiQ_18.mp4	0.0	158.16770219802856	
26	68.86594700813293	movie	1		301.0	24.0	2.5	/experiments/knapen_aot/oldvideos/R_S_yt-YEiNSML5iiQ_18.mp4	0.0	158.17588710784912	2.5083091259002686
26	71.3742561340332	fix_post	2		12.0	24.0	2.5	/experiments/knapen_aot/oldvideos/R_S_yt-YEiNSML5iiQ_18.mp4	0.0	160.6841962337494	0.10006189346313477
27	71.47431802749634	fix_pre	0		2.0	25.0	2.5	/experiments/knapen_aot/oldvideos/R_S_ILSVRC2015_train_00369000.mp4	0.0	160.78425812721252	0.0166471004486084
27	71.48333215713501	response	0	4		25.0	2.5	/experiments/knapen_aot/oldvideos/R_S_ILSVRC2015_train_00369000.mp4	0.0	160.7932722568512	
27	71.49096512794495	movie	1		301.0	25.0	2.5	/experiments/knapen_aot/oldvideos/R_S_ILSVRC2015_train_00369000.mp4	0.0	160.80090522766113	2.508389949798584
27	73.99935507774353	fix_post	2		12.0	25.0	2.5	/experiments/knapen_aot/oldvideos/R_S_ILSVRC2015_train_00369000.mp4	0.0	163.30929517745972	0.09990811347961426
28	74.09926319122314	fix_pre	0		7.0	26.0	2.5	/experiments/knapen_aot/oldvideos/R_S_Pexels_Videos_2795171.mp4	0.0	163.40920329093933	0.058426856994628906
28	74.14935517311096	response	0	4		26.0	2.5	/experiments/knapen_aot/oldvideos/R_S_Pexels_Videos_2795171.mp4	0.0	163.45929527282715	
28	74.15769004821777	movie	1		164.0	26.0	2.5	/experiments/knapen_aot/oldvideos/R_S_Pexels_Videos_2795171.mp4	0.0	163.46763014793396	2.5082461833953857
28	76.66593623161316	fix_post	2		12.0	26.0	2.5	/experiments/knapen_aot/oldvideos/R_S_Pexels_Videos_2795171.mp4	0.0	165.97587633132935	0.10000991821289062
29	76.76594614982605	fix_pre	0		8.0	27.0	2.5	blank	1.0	166.07588624954224	0.06658506393432617
29	76.81692004203796	response	0	4		27.0	2.5	blank	1.0	166.12686014175415	
29	76.83253121376038	movie	1		301.0	27.0	2.5	blank	1.0	166.14247131347656	2.508441925048828
29	79.3409731388092	fix_post	2		12.0	27.0	2.5	blank	1.0	168.6509132385254	0.1000208854675293
30	79.44099402427673	fix_pre	0		17.0	28.0	2.5	/experiments/knapen_aot/oldvideos/S_yt-1H8sfkZGZK8_3.mp4	0.0	168.75093412399292	0.14154911041259766
30	79.57435011863708	response	0	4		28.0	2.5	/experiments/knapen_aot/oldvideos/S_yt-1H8sfkZGZK8_3.mp4	0.0	168.88429021835327	
30	79.58254313468933	movie	1		301.0	28.0	2.5	/experiments/knapen_aot/oldvideos/S_yt-1H8sfkZGZK8_3.mp4	0.0	168.89248323440552	2.5083730220794678
30	82.0909161567688	fix_post	2		12.0	28.0	2.5	/experiments/knapen_aot/oldvideos/S_yt-1H8sfkZGZK8_3.mp4	0.0	171.40085625648499	0.10002994537353516
31	82.19094610214233	fix_pre	0		2.0	29.0	2.5	/experiments/knapen_aot/oldvideos/S_DV6V38rplag_215.mp4	0.0	171.50088620185852	0.016638994216918945
31	82.19931316375732	response	0	4		29.0	2.5	/experiments/knapen_aot/oldvideos/S_DV6V38rplag_215.mp4	0.0	171.5092532634735	
31	82.20758509635925	movie	1		301.0	29.0	2.5	/experiments/knapen_aot/oldvideos/S_DV6V38rplag_215.mp4	0.0	171.51752519607544	2.508328914642334
31	84.71591401100159	fix_post	2		12.0	29.0	2.5	/experiments/knapen_aot/oldvideos/S_DV6V38rplag_215.mp4	0.0	174.02585411071777	0.10042905807495117
32	84.81634306907654	fix_pre	0		16.0	30.0	2.5	/experiments/knapen_aot/oldvideos/R_S_ILSVRC2015_train_00762000.mp4	0.0	174.12628316879272	0.13288497924804688
32	84.94104719161987	response	0	4		30.0	2.5	/experiments/knapen_aot/oldvideos/R_S_ILSVRC2015_train_00762000.mp4	0.0	174.25098729133606	
32	84.94922804832458	movie	1		301.0	30.0	2.5	/experiments/knapen_aot/oldvideos/R_S_ILSVRC2015_train_00762000.mp4	0.0	174.25916814804077	2.5083930492401123
32	87.4576210975647	fix_post	2		12.0	30.0	2.5	/experiments/knapen_aot/oldvideos/R_S_ILSVRC2015_train_00762000.mp4	0.0	176.76756119728088	0.09995102882385254
32	87.52430319786072	response	2	4		30.0	2.5	/experiments/knapen_aot/oldvideos/R_S_ILSVRC2015_train_00762000.mp4	0.0	176.8342432975769	
33	87.55757212638855	fix_pre	0		39.0	31.0	2.5	/experiments/knapen_aot/oldvideos/S_ILSVRC2015_train_00743005.mp4	0.0	176.86751222610474	0.324984073638916
33	87.8667471408844	response	0	4		31.0	2.5	/experiments/knapen_aot/oldvideos/S_ILSVRC2015_train_00743005.mp4	0.0	177.1766872406006	
33	87.88255620002747	movie	1		301.0	31.0	2.5	/experiments/knapen_aot/oldvideos/S_ILSVRC2015_train_00743005.mp4	0.0	177.19249629974365	2.5083279609680176
33	90.39088416099548	fix_post	2		12.0	31.0	2.5	/experiments/knapen_aot/oldvideos/S_ILSVRC2015_train_00743005.mp4	0.0	179.70082426071167	0.09996390342712402
34	90.49084806442261	fix_pre	0		9.0	32.0	2.5	/experiments/knapen_aot/oldvideos/R_S_yt-BW6jWEVbxxk_4.mp4	0.0	179.8007881641388	0.07498002052307129
34	90.55763721466064	response	0	4		32.0	2.5	/experiments/knapen_aot/oldvideos/R_S_yt-BW6jWEVbxxk_4.mp4	0.0	179.86757731437683	
34	90.56582808494568	movie	1		301.0	32.0	2.5	/experiments/knapen_aot/oldvideos/R_S_yt-BW6jWEVbxxk_4.mp4	0.0	179.87576818466187	2.508470058441162
34	92.6840341091156	response	1	4		32.0	2.5	/experiments/knapen_aot/oldvideos/R_S_yt-BW6jWEVbxxk_4.mp4	0.0	181.9939742088318	
34	93.07429814338684	fix_post	2		12.0	32.0	2.5	/experiments/knapen_aot/oldvideos/R_S_yt-BW6jWEVbxxk_4.mp4	0.0	182.38423824310303	0.09987401962280273
35	93.17417216300964	fix_pre	0		6.0	33.0	2.5	blank	1.0	182.48411226272583	0.049922943115234375
35	93.21596503257751	response	0	4		33.0	2.5	blank	1.0	182.5259051322937	
35	93.22409510612488	movie	1		301.0	33.0	2.5	blank	1.0	182.53403520584106	2.5083858966827393
35	95.65761613845825	response	1	4		33.0	2.5	blank	1.0	184.96755623817444	
35	95.73248100280762	fix_post	2		12.0	33.0	2.5	blank	1.0	185.0424211025238	0.10004901885986328
36	95.83253002166748	fix_pre	0		11.0	34.0	2.5	/experiments/knapen_aot/oldvideos/R_S_yt-IX6uxR5DSKk_2.mp4	0.0	185.14247012138367	0.09164810180664062
36	95.91594505310059	response	0	4		34.0	2.5	/experiments/knapen_aot/oldvideos/R_S_yt-IX6uxR5DSKk_2.mp4	0.0	185.22588515281677	
36	95.92417812347412	movie	1		301.0	34.0	2.5	/experiments/knapen_aot/oldvideos/R_S_yt-IX6uxR5DSKk_2.mp4	0.0	185.2341182231903	2.5083560943603516
36	98.43253421783447	fix_post	2		12.0	34.0	2.5	/experiments/knapen_aot/oldvideos/R_S_yt-IX6uxR5DSKk_2.mp4	0.0	187.74247431755066	0.1000969409942627
37	98.53263115882874	fix_pre	0		11.0	35.0	2.5	/experiments/knapen_aot/oldvideos/R_S_ILSVRC2015_train_00363000.mp4	0.0	187.84257125854492	0.09151196479797363
37	98.61600112915039	response	0	4		35.0	2.5	/experiments/knapen_aot/oldvideos/R_S_ILSVRC2015_train_00363000.mp4	0.0	187.92594122886658	
37	98.62414312362671	movie	1		301.0	35.0	2.5	/experiments/knapen_aot/oldvideos/R_S_ILSVRC2015_train_00363000.mp4	0.0	187.9340832233429	2.5083470344543457
37	101.13249015808105	fix_post	2		12.0	35.0	2.5	/experiments/knapen_aot/oldvideos/R_S_ILSVRC2015_train_00363000.mp4	0.0	190.44243025779724	0.10000491142272949
38	101.23249506950378	fix_pre	0		19.0	36.0	2.5	/experiments/knapen_aot/oldvideos/S_production_ID_4154238.mp4	0.0	190.54243516921997	0.15961003303527832
38	101.38259816169739	response	0	4		36.0	2.5	/experiments/knapen_aot/oldvideos/S_production_ID_4154238.mp4	0.0	190.69253826141357	
38	101.39210510253906	movie	1		201.0	36.0	2.5	/experiments/knapen_aot/oldvideos/S_production_ID_4154238.mp4	0.0	190.70204520225525	2.50714111328125
38	103.89924621582031	fix_post	2		12.0	36.0	2.5	/experiments/knapen_aot/oldvideos/S_production_ID_4154238.mp4	0.0	193.2091863155365	0.09991979598999023
39	103.9991660118103	fix_pre	0		35.0	37.0	2.5	/experiments/knapen_aot/oldvideos/S_yt-d5jBQ-LOW2I_17.mp4	0.0	193.3091061115265	0.29158520698547363
39	104.28265905380249	response	0	4		37.0	2.5	/experiments/knapen_aot/oldvideos/S_yt-d5jBQ-LOW2I_17.mp4	0.0	193.59259915351868	
39	104.29075121879578	movie	1		301.0	37.0	2.5	/experiments/knapen_aot/oldvideos/S_yt-d5jBQ-LOW2I_17.mp4	0.0	193.60069131851196	2.508342981338501
39	106.79909420013428	fix_post	2		12.0	37.0	2.5	/experiments/knapen_aot/oldvideos/S_yt-d5jBQ-LOW2I_17.mp4	0.0	196.10903429985046	0.10003280639648438
40	106.89912700653076	fix_pre	0		28.0	38.0	2.5	/experiments/knapen_aot/oldvideos/R_S_flickr-hapanine-31880782705_22.mp4	0.0	196.20906710624695	0.23329806327819824
40	107.12435722351074	response	0	4		38.0	2.5	/experiments/knapen_aot/oldvideos/R_S_flickr-hapanine-31880782705_22.mp4	0.0	196.43429732322693	
40	107.13242506980896	movie	1		165.0	38.0	2.5	/experiments/knapen_aot/oldvideos/R_S_flickr-hapanine-31880782705_22.mp4	0.0	196.44236516952515	2.508384943008423
40	109.64081001281738	fix_post	2		12.0	38.0	2.5	/experiments/knapen_aot/oldvideos/R_S_flickr-hapanine-31880782705_22.mp4	0.0	198.95075011253357	0.10000300407409668
41	109.74081301689148	fix_pre	0		5.0	39.0	2.5	/experiments/knapen_aot/oldvideos/R_S_video_inspire_texas_pecos_foggy-landscape_00018.1080-h264.mp4	0.0	199.05075311660767	0.04164910316467285
41	109.77428007125854	response	0	4		39.0	2.5	/experiments/knapen_aot/oldvideos/R_S_video_inspire_texas_pecos_foggy-landscape_00018.1080-h264.mp4	0.0	199.08422017097473	
41	109.78246212005615	movie	1		171.0	39.0	2.5	/experiments/knapen_aot/oldvideos/R_S_video_inspire_texas_pecos_foggy-landscape_00018.1080-h264.mp4	0.0	199.09240221977234	2.5083820819854736
41	112.29084420204163	fix_post	2		12.0	39.0	2.5	/experiments/knapen_aot/oldvideos/R_S_video_inspire_texas_pecos_foggy-landscape_00018.1080-h264.mp4	0.0	201.6007843017578	0.10009884834289551
41	112.35016322135925	response	2	4		39.0	2.5	/experiments/knapen_aot/oldvideos/R_S_video_inspire_texas_pecos_foggy-landscape_00018.1080-h264.mp4	0.0	201.66010332107544	
42	112.39094305038452	fix_pre	0		34.0	40.0	2.5	/experiments/knapen_aot/oldvideos/S_yt-0xzYSBvVfYM_197.mp4	0.0	201.7008831501007	0.2831540107727051
42	112.66589403152466	response	0	4		40.0	2.5	/experiments/knapen_aot/oldvideos/S_yt-0xzYSBvVfYM_197.mp4	0.0	201.97583413124084	
42	112.67409706115723	movie	1		301.0	40.0	2.5	/experiments/knapen_aot/oldvideos/S_yt-0xzYSBvVfYM_197.mp4	0.0	201.9840371608734	2.508449077606201
42	115.18254613876343	fix_post	2		12.0	40.0	2.5	/experiments/knapen_aot/oldvideos/S_yt-0xzYSBvVfYM_197.mp4	0.0	204.49248623847961	0.10013389587402344
43	115.28268003463745	fix_pre	0		17.0	41.0	2.5	blank	1.0	204.59262013435364	0.14146900177001953
43	115.41597819328308	response	0	4		41.0	2.5	blank	1.0	204.72591829299927	
43	115.42414903640747	movie	1		301.0	41.0	2.5	blank	1.0	204.73408913612366	2.5083210468292236
43	117.9324700832367	fix_post	2		12.0	41.0	2.5	blank	1.0	207.24241018295288	0.09999394416809082
44	118.03246402740479	fix_pre	0		16.0	42.0	2.5	/experiments/knapen_aot/oldvideos/R_S_yt-Xs-YKSogfak_24.mp4	0.0	207.34240412712097	0.13330817222595215
44	118.1575620174408	response	0	4		42.0	2.5	/experiments/knapen_aot/oldvideos/R_S_yt-Xs-YKSogfak_24.mp4	0.0	207.46750211715698	
44	118.16577219963074	movie	1		301.0	42.0	2.5	/experiments/knapen_aot/oldvideos/R_S_yt-Xs-YKSogfak_24.mp4	0.0	207.47571229934692	2.5086288452148438
44	120.67440104484558	fix_post	2		12.0	42.0	2.5	/experiments/knapen_aot/oldvideos/R_S_yt-Xs-YKSogfak_24.mp4	0.0	209.98434114456177	0.09974312782287598
45	120.77414417266846	fix_pre	0		25.0	43.0	2.5	/experiments/knapen_aot/oldvideos/R_S_ILSVRC2015_train_00479004.mp4	0.0	210.08408427238464	0.20830202102661133
45	120.9742271900177	response	0	4		43.0	2.5	/experiments/knapen_aot/oldvideos/R_S_ILSVRC2015_train_00479004.mp4	0.0	210.2841672897339	
45	120.98244619369507	movie	1		301.0	43.0	2.5	/experiments/knapen_aot/oldvideos/R_S_ILSVRC2015_train_00479004.mp4	0.0	210.29238629341125	2.5083258152008057
45	123.49077200889587	fix_post	2		12.0	43.0	2.5	/experiments/knapen_aot/oldvideos/R_S_ILSVRC2015_train_00479004.mp4	0.0	212.80071210861206	0.10004401206970215
46	123.59081602096558	fix_pre	0		5.0	44.0	2.5	/experiments/knapen_aot/oldvideos/R_S_yt-qxtmtMnUfD0_124.mp4	0.0	212.90075612068176	0.041567087173461914
46	123.62422919273376	response	0	4		44.0	2.5	/experiments/knapen_aot/oldvideos/R_S_yt-qxtmtMnUfD0_124.mp4	0.0	212.93416929244995	
46	123.63238310813904	movie	1		301.0	44.0	2.5	/experiments/knapen_aot/oldvideos/R_S_yt-qxtmtMnUfD0_124.mp4	0.0	212.94232320785522	2.5082709789276123
46	126.14065408706665	fix_post	2		12.0	44.0	2.5	/experiments/knapen_aot/oldvideos/R_S_yt-qxtmtMnUfD0_124.mp4	0.0	215.45059418678284	0.10010099411010742
47	126.24075508117676	fix_pre	0		15.0	45.0	2.5	/experiments/knapen_aot/oldvideos/S_yt-JVhfcpV7OaY_71.mp4	0.0	215.55069518089294	0.12496614456176758
47	126.3575792312622	response	0	4		45.0	2.5	/experiments/knapen_aot/oldvideos/S_yt-JVhfcpV7OaY_71.mp4	0.0	215.6675193309784	
47	126.36572122573853	movie	1		301.0	45.0	2.5	/experiments/knapen_aot/oldvideos/S_yt-JVhfcpV7OaY_71.mp4	0.0	215.6756613254547	2.508283853530884
47	128.8740050792694	fix_post	2		12.0	45.0	2.5	/experiments/knapen_aot/oldvideos/S_yt-JVhfcpV7OaY_71.mp4	0.0	218.1839451789856	0.10023212432861328
48	128.97423720359802	fix_pre	0		25.0	46.0	2.5	/experiments/knapen_aot/oldvideos/S_yt-hMyqUMAbFAk_303.mp4	0.0	218.2841773033142	0.20813393592834473
48	129.1664960384369	response	0	4		46.0	2.5	/experiments/knapen_aot/oldvideos/S_yt-hMyqUMAbFAk_303.mp4	0.0	218.47643613815308	
48	129.18237113952637	movie	1		301.0	46.0	2.5	/experiments/knapen_aot/oldvideos/S_yt-hMyqUMAbFAk_303.mp4	0.0	218.49231123924255	2.508419990539551
48	131.69079113006592	fix_post	2		12.0	46.0	2.5	/experiments/knapen_aot/oldvideos/S_yt-hMyqUMAbFAk_303.mp4	0.0	221.0007312297821	0.09988594055175781
48	131.78253817558289	response	2	4		46.0	2.5	/experiments/knapen_aot/oldvideos/S_yt-hMyqUMAbFAk_303.mp4	0.0	221.09247827529907	
49	131.79067707061768	fix_pre	0		35.0	47.0	2.5	blank	1.0	221.10061717033386	0.29172396659851074
49	132.0741741657257	response	0	4		47.0	2.5	blank	1.0	221.3841142654419	
49	132.0824010372162	movie	1		301.0	47.0	2.5	blank	1.0	221.39234113693237	2.5082621574401855
49	134.59066319465637	fix_post	2		12.0	47.0	2.5	blank	1.0	223.90060329437256	0.10004687309265137
50	134.69071006774902	fix_pre	0		20.0	48.0	2.5	/experiments/knapen_aot/oldvideos/S_ILSVRC2015_train_00682003.mp4	0.0	224.0006501674652	0.16661906242370605
50	134.84912705421448	response	0	4		48.0	2.5	/experiments/knapen_aot/oldvideos/S_ILSVRC2015_train_00682003.mp4	0.0	224.15906715393066	
50	134.85732913017273	movie	1		301.0	48.0	2.5	/experiments/knapen_aot/oldvideos/S_ILSVRC2015_train_00682003.mp4	0.0	224.16726922988892	2.5083730220794678
50	137.3657021522522	fix_post	2		12.0	48.0	2.5	/experiments/knapen_aot/oldvideos/S_ILSVRC2015_train_00682003.mp4	0.0	226.67564225196838	0.10002493858337402
50	137.41579818725586	response	2	4		48.0	2.5	/experiments/knapen_aot/oldvideos/S_ILSVRC2015_train_00682003.mp4	0.0	226.72573828697205	
51	137.46572709083557	fix_pre	0		36.0	49.0	2.5	/experiments/knapen_aot/oldvideos/S_yt-fjOsq03OC2c_188.mp4	0.0	226.77566719055176	0.3010580539703369
51	137.75741410255432	response	0	4		49.0	2.5	/experiments/knapen_aot/oldvideos/S_yt-fjOsq03OC2c_188.mp4	0.0	227.0673542022705	
51	137.7667851448059	movie	1		301.0	49.0	2.5	/experiments/knapen_aot/oldvideos/S_yt-fjOsq03OC2c_188.mp4	0.0	227.0767252445221	2.507422924041748
51	140.27420806884766	fix_post	2		12.0	49.0	2.5	/experiments/knapen_aot/oldvideos/S_yt-fjOsq03OC2c_188.mp4	0.0	229.58414816856384	0.09977412223815918
52	140.37398219108582	fix_pre	0		15.0	50.0	2.5	/experiments/knapen_aot/oldvideos/R_S_yt-AiXq1oDrEXI_123.mp4	0.0	229.683922290802	0.12498688697814941
52	140.49079203605652	response	0	4		50.0	2.5	/experiments/knapen_aot/oldvideos/R_S_yt-AiXq1oDrEXI_123.mp4	0.0	229.8007321357727	
52	140.49896907806396	movie	1		301.0	50.0	2.5	/experiments/knapen_aot/oldvideos/R_S_yt-AiXq1oDrEXI_123.mp4	0.0	229.80890917778015	2.5083560943603516
52	143.00732517242432	fix_post	2		12.0	50.0	2.5	/experiments/knapen_aot/oldvideos/R_S_yt-AiXq1oDrEXI_123.mp4	0.0	232.3172652721405	0.10002684593200684
53	143.10735201835632	fix_pre	0		8.0	51.0	2.5	/experiments/knapen_aot/oldvideos/R_S_production_ID_4101242.mp4	0.0	232.4172921180725	0.06661105155944824
53	143.16572618484497	response	0	4		51.0	2.5	/experiments/knapen_aot/oldvideos/R_S_production_ID_4101242.mp4	0.0	232.47566628456116	
53	143.17396306991577	movie	1		198.0	51.0	2.5	/experiments/knapen_aot/oldvideos/R_S_production_ID_4101242.mp4	0.0	232.48390316963196	2.508759021759033
53	145.6827220916748	fix_post	2		12.0	51.0	2.5	/experiments/knapen_aot/oldvideos/R_S_production_ID_4101242.mp4	0.0	234.992662191391	0.09955191612243652
54	145.78227400779724	fix_pre	0		13.0	52.0	2.5	/experiments/knapen_aot/oldvideos/R_S_yt-kKRGgUhVRzc_74.mp4	0.0	235.09221410751343	0.10960102081298828
54	145.8824601173401	response	0	4		52.0	2.5	/experiments/knapen_aot/oldvideos/R_S_yt-kKRGgUhVRzc_74.mp4	0.0	235.19240021705627	
54	145.89187502861023	movie	1		301.0	52.0	2.5	/experiments/knapen_aot/oldvideos/R_S_yt-kKRGgUhVRzc_74.mp4	0.0	235.20181512832642	2.5070960521698
54	148.39897108078003	fix_post	2		12.0	52.0	2.5	/experiments/knapen_aot/oldvideos/R_S_yt-kKRGgUhVRzc_74.mp4	0.0	237.70891118049622	0.09997391700744629
55	148.49894499778748	fix_pre	0		5.0	53.0	2.5	/experiments/knapen_aot/oldvideos/R_S_yt-3JApfnMu5cU_378.mp4	0.0	237.80888509750366	0.041645050048828125
55	148.5324079990387	response	0	4		53.0	2.5	/experiments/knapen_aot/oldvideos/R_S_yt-3JApfnMu5cU_378.mp4	0.0	237.84234809875488	
55	148.5405900478363	movie	1		301.0	53.0	2.5	/experiments/knapen_aot/oldvideos/R_S_yt-3JApfnMu5cU_378.mp4	0.0	237.8505301475525	2.5083940029144287
55	151.04898405075073	fix_post	2		12.0	53.0	2.5	/experiments/knapen_aot/oldvideos/R_S_yt-3JApfnMu5cU_378.mp4	0.0	240.35892415046692	0.09999704360961914
56	151.14898109436035	fix_pre	0		5.0	54.0	2.5	/experiments/knapen_aot/oldvideos/R_S_yt-6DJulOrg2-8_122.mp4	0.0	240.45892119407654	0.04154801368713379
56	151.17553400993347	response	0	4		54.0	2.5	/experiments/knapen_aot/oldvideos/R_S_yt-6DJulOrg2-8_122.mp4	0.0	240.48547410964966	
56	151.19052910804749	movie	1		301.0	54.0	2.5	/experiments/knapen_aot/oldvideos/R_S_yt-6DJulOrg2-8_122.mp4	0.0	240.50046920776367	2.508389949798584
56	153.69891905784607	fix_post	2		12.0	54.0	2.5	/experiments/knapen_aot/oldvideos/R_S_yt-6DJulOrg2-8_122.mp4	0.0	243.00885915756226	0.10003304481506348
57	153.79895210266113	fix_pre	0		2.0	55.0	2.5	blank	1.0	243.10889220237732	0.016624927520751953
57	153.80850315093994	response	0	4		55.0	2.5	blank	1.0	243.11844325065613	
57	153.81557703018188	movie	1		301.0	55.0	2.5	blank	1.0	243.12551712989807	2.5083181858062744
57	156.32389521598816	fix_post	2		12.0	55.0	2.5	blank	1.0	245.63383531570435	0.1000359058380127
58	156.42393112182617	fix_pre	0		26.0	56.0	2.5	/experiments/knapen_aot/oldvideos/S_bing-www_yahoo_com_entertainment_anastasia-karanikolaou-chantel-jeffries-discuss-182400502_html_9.mp4	0.0	245.73387122154236	0.2176680564880371
58	156.62477803230286	response	0	4		56.0	2.5	/experiments/knapen_aot/oldvideos/S_bing-www_yahoo_com_entertainment_anastasia-karanikolaou-chantel-jeffries-discuss-182400502_html_9.mp4	0.0	245.93471813201904	
58	156.6415991783142	movie	1		162.0	56.0	2.5	/experiments/knapen_aot/oldvideos/S_bing-www_yahoo_com_entertainment_anastasia-karanikolaou-chantel-jeffries-discuss-182400502_html_9.mp4	0.0	245.9515392780304	2.5074808597564697
58	159.14908003807068	fix_post	2		12.0	56.0	2.5	/experiments/knapen_aot/oldvideos/S_bing-www_yahoo_com_entertainment_anastasia-karanikolaou-chantel-jeffries-discuss-182400502_html_9.mp4	0.0	248.45902013778687	0.09988117218017578
59	159.24896121025085	fix_pre	0		3.0	57.0	2.5	/experiments/knapen_aot/oldvideos/S_yt-xqjVM0Vj4mI_161.mp4	0.0	248.55890130996704	0.024956941604614258
59	159.2657060623169	response	0	4		57.0	2.5	/experiments/knapen_aot/oldvideos/S_yt-xqjVM0Vj4mI_161.mp4	0.0	248.57564616203308	
59	159.27391815185547	movie	1		301.0	57.0	2.5	/experiments/knapen_aot/oldvideos/S_yt-xqjVM0Vj4mI_161.mp4	0.0	248.58385825157166	2.508352041244507
59	161.78227019309998	fix_post	2		12.0	57.0	2.5	/experiments/knapen_aot/oldvideos/S_yt-xqjVM0Vj4mI_161.mp4	0.0	251.09221029281616	0.10012602806091309
60	161.8823962211609	fix_pre	0		7.0	58.0	2.5	/experiments/knapen_aot/oldvideos/S_ILSVRC2015_train_00446000.mp4	0.0	251.19233632087708	0.058165788650512695
60	161.92496418952942	response	0	4		58.0	2.5	/experiments/knapen_aot/oldvideos/S_ILSVRC2015_train_00446000.mp4	0.0	251.2349042892456	
60	161.9405620098114	movie	1		301.0	58.0	2.5	/experiments/knapen_aot/oldvideos/S_ILSVRC2015_train_00446000.mp4	0.0	251.2505021095276	2.508327007293701
60	164.4488890171051	fix_post	2		12.0	58.0	2.5	/experiments/knapen_aot/oldvideos/S_ILSVRC2015_train_00446000.mp4	0.0	253.7588291168213	0.10000920295715332
61	164.54889822006226	fix_pre	0		23.0	59.0	2.5	/experiments/knapen_aot/oldvideos/S_production_ID_4584682.mp4	0.0	253.85883831977844	0.1916658878326416
61	164.73234105110168	response	0	4		59.0	2.5	/experiments/knapen_aot/oldvideos/S_production_ID_4584682.mp4	0.0	254.04228115081787	
61	164.7405641078949	movie	1		164.0	59.0	2.5	/experiments/knapen_aot/oldvideos/S_production_ID_4584682.mp4	0.0	254.05050420761108	2.5082550048828125
61	167.2488191127777	fix_post	2		12.0	59.0	2.5	/experiments/knapen_aot/oldvideos/S_production_ID_4584682.mp4	0.0	256.5587592124939	0.10009598731994629
62	167.34891510009766	fix_pre	0		1.0	60.0	2.5	/experiments/knapen_aot/oldvideos/S_yt-yJmHtBFyhH4_15.mp4	0.0	256.65885519981384	0.008317947387695312
62	167.35089707374573	response	0	4		60.0	2.5	/experiments/knapen_aot/oldvideos/S_yt-yJmHtBFyhH4_15.mp4	0.0	256.6608371734619	
62	167.35723304748535	movie	1		300.0	60.0	2.5	/experiments/knapen_aot/oldvideos/S_yt-yJmHtBFyhH4_15.mp4	0.0	256.66717314720154	2.508316993713379
62	169.86555004119873	fix_post	2		12.0	60.0	2.5	/experiments/knapen_aot/oldvideos/S_yt-yJmHtBFyhH4_15.mp4	0.0	259.1754901409149	0.1002039909362793
63	169.965754032135	fix_pre	0		26.0	61.0	2.5	/experiments/knapen_aot/oldvideos/S_yt-Ul81y6R9YbE_12.mp4	0.0	259.2756941318512	0.21729111671447754
63	170.17399311065674	response	0	4		61.0	2.5	/experiments/knapen_aot/oldvideos/S_yt-Ul81y6R9YbE_12.mp4	0.0	259.4839332103729	
63	170.1830451488495	movie	1		301.0	61.0	2.5	/experiments/knapen_aot/oldvideos/S_yt-Ul81y6R9YbE_12.mp4	0.0	259.4929852485657	2.5074880123138428
63	172.69053316116333	fix_post	2		12.0	61.0	2.5	/experiments/knapen_aot/oldvideos/S_yt-Ul81y6R9YbE_12.mp4	0.0	262.0004732608795	0.10003185272216797
64	172.7905650138855	fix_pre	0		9.0	62.0	2.5	/experiments/knapen_aot/oldvideos/R_S_ILSVRC2015_train_00762000.mp4	0.0	262.1005051136017	0.0749211311340332
64	172.8572850227356	response	0	4		62.0	2.5	/experiments/knapen_aot/oldvideos/R_S_ILSVRC2015_train_00762000.mp4	0.0	262.1672251224518	
64	172.86548614501953	movie	1		301.0	62.0	2.5	/experiments/knapen_aot/oldvideos/R_S_ILSVRC2015_train_00762000.mp4	0.0	262.1754262447357	2.5083649158477783
64	175.3738510608673	fix_post	2		12.0	62.0	2.5	/experiments/knapen_aot/oldvideos/R_S_ILSVRC2015_train_00762000.mp4	0.0	264.6837911605835	0.09998893737792969
65	175.47383999824524	fix_pre	0		18.0	63.0	2.5	blank	1.0	264.7837800979614	0.1500082015991211
65	175.61563110351562	response	0	4		63.0	2.5	blank	1.0	264.9255712032318	
65	175.62384819984436	movie	1		301.0	63.0	2.5	blank	1.0	264.93378829956055	2.508419990539551
65	178.1322681903839	fix_post	2		12.0	63.0	2.5	blank	1.0	267.4422082901001	0.09989500045776367
66	178.23216319084167	fix_pre	0		66.0	64.0	2.5	/experiments/knapen_aot/oldvideos/R_S_yt-H45g6700wbc_159.mp4	0.0	267.54210329055786	0.5499358177185059
66	178.7739930152893	response	0	4		64.0	2.5	/experiments/knapen_aot/oldvideos/R_S_yt-H45g6700wbc_159.mp4	0.0	268.0839331150055	
66	178.78209900856018	movie	1		301.0	64.0	2.5	/experiments/knapen_aot/oldvideos/R_S_yt-H45g6700wbc_159.mp4	0.0	268.09203910827637	2.5083370208740234
66	181.2904360294342	fix_post	2		12.0	64.0	2.5	/experiments/knapen_aot/oldvideos/R_S_yt-H45g6700wbc_159.mp4	0.0	270.6003761291504	0.10013699531555176
67	181.39057302474976	fix_pre	0		36.0	65.0	2.5	/experiments/knapen_aot/oldvideos/R_S_ILSVRC2015_train_00044004.mp4	0.0	270.70051312446594	0.2998931407928467
67	181.68231916427612	response	0	4		65.0	2.5	/experiments/knapen_aot/oldvideos/R_S_ILSVRC2015_train_00044004.mp4	0.0	270.9922592639923	
67	181.6904661655426	movie	1		301.0	65.0	2.5	/experiments/knapen_aot/oldvideos/R_S_ILSVRC2015_train_00044004.mp4	0.0	271.0004062652588	2.5083818435668945
67	184.1988480091095	fix_post	2		12.0	65.0	2.5	/experiments/knapen_aot/oldvideos/R_S_ILSVRC2015_train_00044004.mp4	0.0	273.5087881088257	0.09996509552001953
67	184.24133920669556	response	2	4		65.0	2.5	/experiments/knapen_aot/oldvideos/R_S_ILSVRC2015_train_00044004.mp4	0.0	273.55127930641174	
68	184.29881310462952	fix_pre	0		42.0	66.0	2.5	/experiments/knapen_aot/oldvideos/S_yt-F3hhts3bwWg_25.mp4	0.0	273.6087532043457	0.349992036819458
68	184.64056611061096	response	0	4		66.0	2.5	/experiments/knapen_aot/oldvideos/S_yt-F3hhts3bwWg_25.mp4	0.0	273.95050621032715	
68	184.64880514144897	movie	1		301.0	66.0	2.5	/experiments/knapen_aot/oldvideos/S_yt-F3hhts3bwWg_25.mp4	0.0	273.95874524116516	2.508315086364746
68	187.15712022781372	fix_post	2		12.0	66.0	2.5	/experiments/knapen_aot/oldvideos/S_yt-F3hhts3bwWg_25.mp4	0.0	276.4670603275299	0.10009598731994629
69	187.25721621513367	fix_pre	0		37.0	67.0	2.5	/experiments/knapen_aot/oldvideos/S_yt-Dj42sI_Z-kQ_38.mp4	0.0	276.56715631484985	0.3082268238067627
69	187.55724215507507	response	0	4		67.0	2.5	/experiments/knapen_aot/oldvideos/S_yt-Dj42sI_Z-kQ_38.mp4	0.0	276.86718225479126	
69	187.56544303894043	movie	1		301.0	67.0	2.5	/experiments/knapen_aot/oldvideos/S_yt-Dj42sI_Z-kQ_38.mp4	0.0	276.8753831386566	2.5083200931549072
69	190.07376313209534	fix_post	2		12.0	67.0	2.5	/experiments/knapen_aot/oldvideos/S_yt-Dj42sI_Z-kQ_38.mp4	0.0	279.3837032318115	0.10002803802490234
70	190.17379117012024	fix_pre	0		24.0	68.0	2.5	blank	1.0	279.4837312698364	0.1999518871307373
70	190.36553621292114	response	0	4		68.0	2.5	blank	1.0	279.67547631263733	
70	190.37374305725098	movie	1		301.0	68.0	2.5	blank	1.0	279.68368315696716	2.508384943008423
70	192.8821280002594	fix_post	2		12.0	68.0	2.5	blank	1.0	282.1920680999756	0.09993100166320801
71	192.9820590019226	fix_pre	0		43.0	69.0	2.5	/experiments/knapen_aot/oldvideos/S_yt-GWO7FHN1Jb4_142.mp4	0.0	282.2919991016388	0.3583550453186035
71	193.3321990966797	response	0	4		69.0	2.5	/experiments/knapen_aot/oldvideos/S_yt-GWO7FHN1Jb4_142.mp4	0.0	282.6421391963959	
71	193.3404140472412	movie	1		301.0	69.0	2.5	/experiments/knapen_aot/oldvideos/S_yt-GWO7FHN1Jb4_142.mp4	0.0	282.6503541469574	2.5084030628204346
71	195.84881711006165	fix_post	2		12.0	69.0	2.5	/experiments/knapen_aot/oldvideos/S_yt-GWO7FHN1Jb4_142.mp4	0.0	285.15875720977783	0.09994292259216309
71	195.90727615356445	response	2	4		69.0	2.5	/experiments/knapen_aot/oldvideos/S_yt-GWO7FHN1Jb4_142.mp4	0.0	285.21721625328064	
72	195.9487600326538	fix_pre	0		53.0	70.0	2.5	/experiments/knapen_aot/oldvideos/R_S_production_ID_4820325.mp4	0.0	285.25870013237	0.4423971176147461
72	196.38216519355774	response	0	4		70.0	2.5	/experiments/knapen_aot/oldvideos/R_S_production_ID_4820325.mp4	0.0	285.6921052932739	
72	196.39115715026855	movie	1		168.0	70.0	2.5	/experiments/knapen_aot/oldvideos/R_S_production_ID_4820325.mp4	0.0	285.70109724998474	2.5076940059661865
72	198.89885115623474	fix_post	2		12.0	70.0	2.5	/experiments/knapen_aot/oldvideos/R_S_production_ID_4820325.mp4	0.0	288.2087912559509	0.09988093376159668
72	198.97384119033813	response	2	4		70.0	2.5	/experiments/knapen_aot/oldvideos/R_S_production_ID_4820325.mp4	0.0	288.2837812900543	
73	198.99873208999634	fix_pre	0		45.0	71.0	2.5	/experiments/knapen_aot/oldvideos/S_pexels-roman-odintsov-8231493.mp4	0.0	288.3086721897125	0.3749871253967285
73	199.36543607711792	response	0	4		71.0	2.5	/experiments/knapen_aot/oldvideos/S_pexels-roman-odintsov-8231493.mp4	0.0	288.6753761768341	
73	199.37371921539307	movie	1		207.0	71.0	2.5	/experiments/knapen_aot/oldvideos/S_pexels-roman-odintsov-8231493.mp4	0.0	288.68365931510925	2.508340835571289
73	201.88206005096436	fix_post	2		12.0	71.0	2.5	/experiments/knapen_aot/oldvideos/S_pexels-roman-odintsov-8231493.mp4	0.0	291.19200015068054	0.09993910789489746
74	201.98199915885925	fix_pre	0		16.0	72.0	2.5	/experiments/knapen_aot/oldvideos/R_S_yt-z16pdVTZK1o_3.mp4	0.0	291.29193925857544	0.13333797454833984
74	202.1072540283203	response	0	2		72.0	2.5	/experiments/knapen_aot/oldvideos/R_S_yt-z16pdVTZK1o_3.mp4	0.0	291.4171941280365	
74	202.1153371334076	movie	1		301.0	72.0	2.5	/experiments/knapen_aot/oldvideos/R_S_yt-z16pdVTZK1o_3.mp4	0.0	291.4252772331238	2.508389949798584
74	204.62372708320618	fix_post	2		12.0	72.0	2.5	/experiments/knapen_aot/oldvideos/R_S_yt-z16pdVTZK1o_3.mp4	0.0	293.93366718292236	0.10000991821289062
75	204.72373700141907	fix_pre	0		10.0	73.0	2.5	/experiments/knapen_aot/oldvideos/S_b3TCugtX0h0_108.mp4	0.0	294.03367710113525	0.08407807350158691
75	204.79126501083374	response	0	4		73.0	2.5	/experiments/knapen_aot/oldvideos/S_b3TCugtX0h0_108.mp4	0.0	294.1012051105499	
75	204.80781507492065	movie	1		301.0	73.0	2.5	/experiments/knapen_aot/oldvideos/S_b3TCugtX0h0_108.mp4	0.0	294.11775517463684	2.5074949264526367
75	207.3153100013733	fix_post	2		12.0	73.0	2.5	/experiments/knapen_aot/oldvideos/S_b3TCugtX0h0_108.mp4	0.0	296.6252501010895	0.10004711151123047
76	207.41535711288452	fix_pre	0		1.0	74.0	2.5	/experiments/knapen_aot/oldvideos/R_S_Y005_C003_SDR_2K_AVC.mp4	0.0	296.7252972126007	0.010518074035644531
76	207.41739916801453	response	0	4		74.0	2.5	/experiments/knapen_aot/oldvideos/R_S_Y005_C003_SDR_2K_AVC.mp4	0.0	296.7273392677307	
76	207.42587518692017	movie	1		167.0	74.0	2.5	/experiments/knapen_aot/oldvideos/R_S_Y005_C003_SDR_2K_AVC.mp4	0.0	296.73581528663635	2.5061559677124023
76	209.93203115463257	fix_post	2		12.0	74.0	2.5	/experiments/knapen_aot/oldvideos/R_S_Y005_C003_SDR_2K_AVC.mp4	0.0	299.24197125434875	0.0999610424041748
77	210.03199219703674	fix_pre	0		13.0	75.0	2.5	/experiments/knapen_aot/oldvideos/R_S_comp_H004_C007_PS_v02_SDR_PS_20180925_SDR_2K_AVC.mp4	0.0	299.34193229675293	0.10912489891052246
77	210.13214015960693	response	0	4		75.0	2.5	/experiments/knapen_aot/oldvideos/R_S_comp_H004_C007_PS_v02_SDR_PS_20180925_SDR_2K_AVC.mp4	0.0	299.4420802593231	
77	210.14111709594727	movie	1		166.0	75.0	2.5	/experiments/knapen_aot/oldvideos/R_S_comp_H004_C007_PS_v02_SDR_PS_20180925_SDR_2K_AVC.mp4	0.0	299.45105719566345	2.5078210830688477
77	212.6489381790161	fix_post	2		12.0	75.0	2.5	/experiments/knapen_aot/oldvideos/R_S_comp_H004_C007_PS_v02_SDR_PS_20180925_SDR_2K_AVC.mp4	0.0	301.9588782787323	0.09971404075622559
78	212.74865221977234	fix_pre	0		5.0	76.0	2.5	blank	1.0	302.0585923194885	0.041734933853149414
78	212.78218913078308	response	0	4		76.0	2.5	blank	1.0	302.09212923049927	
78	212.7903871536255	movie	1		301.0	76.0	2.5	blank	1.0	302.1003272533417	2.5083210468292236
78	215.2987082004547	fix_post	2		12.0	76.0	2.5	blank	1.0	304.6086483001709	0.10006093978881836
79	215.39876914024353	fix_pre	0		18.0	77.0	2.5	/experiments/knapen_aot/oldvideos/R_S_yt-O6FS0xnF0CU_106.mp4	0.0	304.7087092399597	0.1498889923095703
79	215.54044103622437	response	0	4		77.0	2.5	/experiments/knapen_aot/oldvideos/R_S_yt-O6FS0xnF0CU_106.mp4	0.0	304.85038113594055	
79	215.5486581325531	movie	1		301.0	77.0	2.5	/experiments/knapen_aot/oldvideos/R_S_yt-O6FS0xnF0CU_106.mp4	0.0	304.8585982322693	2.5085508823394775
79	218.05720901489258	fix_post	2		12.0	77.0	2.5	/experiments/knapen_aot/oldvideos/R_S_yt-O6FS0xnF0CU_106.mp4	0.0	307.36714911460876	0.09978914260864258
80	218.15699815750122	fix_pre	0		6.0	78.0	2.5	/experiments/knapen_aot/oldvideos/S_comp_N008_C009_PS_v01_SDR_PS_20180925_SDR_2K_AVC.mp4	0.0	307.4669382572174	0.049939870834350586
80	218.19880604743958	response	0	4		78.0	2.5	/experiments/knapen_aot/oldvideos/S_comp_N008_C009_PS_v01_SDR_PS_20180925_SDR_2K_AVC.mp4	0.0	307.50874614715576	
80	218.20693802833557	movie	1		170.0	78.0	2.5	/experiments/knapen_aot/oldvideos/S_comp_N008_C009_PS_v01_SDR_PS_20180925_SDR_2K_AVC.mp4	0.0	307.51687812805176	2.5084002017974854
80	220.71533823013306	fix_post	2		12.0	78.0	2.5	/experiments/knapen_aot/oldvideos/S_comp_N008_C009_PS_v01_SDR_PS_20180925_SDR_2K_AVC.mp4	0.0	310.02527832984924	0.09994077682495117
80	220.74879121780396	response	2	4		78.0	2.5	/experiments/knapen_aot/oldvideos/S_comp_N008_C009_PS_v01_SDR_PS_20180925_SDR_2K_AVC.mp4	0.0	310.05873131752014	
81	220.815279006958	fix_pre	0		30.0	79.0	2.5	/experiments/knapen_aot/oldvideos/R_S_yt-fymgyhmYnMI_557.mp4	0.0	310.1252191066742	0.25008511543273926
81	221.05703401565552	response	0	4		79.0	2.5	/experiments/knapen_aot/oldvideos/R_S_yt-fymgyhmYnMI_557.mp4	0.0	310.3669741153717	
81	221.06536412239075	movie	1		301.0	79.0	2.5	/experiments/knapen_aot/oldvideos/R_S_yt-fymgyhmYnMI_557.mp4	0.0	310.37530422210693	2.508678913116455
81	223.5740430355072	fix_post	2		12.0	79.0	2.5	/experiments/knapen_aot/oldvideos/R_S_yt-fymgyhmYnMI_557.mp4	0.0	312.8839831352234	0.09956598281860352
82	223.6736090183258	fix_pre	0		4.0	80.0	2.5	/experiments/knapen_aot/oldvideos/R_S_yt-Ryb0K9lGPrg_5.mp4	0.0	312.983549118042	0.03334999084472656
82	223.69191908836365	response	0	4		80.0	2.5	/experiments/knapen_aot/oldvideos/R_S_yt-Ryb0K9lGPrg_5.mp4	0.0	313.00185918807983	
82	223.70695900917053	movie	1		301.0	80.0	2.5	/experiments/knapen_aot/oldvideos/R_S_yt-Ryb0K9lGPrg_5.mp4	0.0	313.0168991088867	2.508406162261963
82	226.2153651714325	fix_post	2		12.0	80.0	2.5	/experiments/knapen_aot/oldvideos/R_S_yt-Ryb0K9lGPrg_5.mp4	0.0	315.5253052711487	0.09992599487304688
83	226.31529116630554	fix_pre	0		6.0	81.0	2.5	/experiments/knapen_aot/oldvideos/R_S_ILSVRC2015_train_00369000.mp4	0.0	315.62523126602173	0.04991483688354492
83	226.3495330810547	response	0	4		81.0	2.5	/experiments/knapen_aot/oldvideos/R_S_ILSVRC2015_train_00369000.mp4	0.0	315.6594731807709	
83	226.3652060031891	movie	1		301.0	81.0	2.5	/experiments/knapen_aot/oldvideos/R_S_ILSVRC2015_train_00369000.mp4	0.0	315.6751461029053	2.5084750652313232
83	228.8736810684204	fix_post	2		12.0	81.0	2.5	/experiments/knapen_aot/oldvideos/R_S_ILSVRC2015_train_00369000.mp4	0.0	318.1836211681366	0.09995603561401367
84	228.97363710403442	fix_pre	0		6.0	82.0	2.5	blank	1.0	318.2835772037506	0.04991507530212402
84	229.01547813415527	response	0	4		82.0	2.5	blank	1.0	318.32541823387146	
84	229.02355217933655	movie	1		301.0	82.0	2.5	blank	1.0	318.33349227905273	2.5083348751068115
84	231.53188705444336	fix_post	2		12.0	82.0	2.5	blank	1.0	320.84182715415955	0.10006499290466309
85	231.63195204734802	fix_pre	0		17.0	83.0	2.5	/experiments/knapen_aot/oldvideos/R_S_yt-yJmHtBFyhH4_15.mp4	0.0	320.9418921470642	0.14162707328796387
85	231.76537418365479	response	0	4		83.0	2.5	/experiments/knapen_aot/oldvideos/R_S_yt-yJmHtBFyhH4_15.mp4	0.0	321.075314283371	
85	231.773579120636	movie	1		301.0	83.0	2.5	/experiments/knapen_aot/oldvideos/R_S_yt-yJmHtBFyhH4_15.mp4	0.0	321.0835192203522	2.508280038833618
85	234.2818591594696	fix_post	2		12.0	83.0	2.5	/experiments/knapen_aot/oldvideos/R_S_yt-yJmHtBFyhH4_15.mp4	0.0	323.5917992591858	0.10003304481506348
87	234.38189220428467	stim	0		866.0					323.69183230400085	7.217216968536377
87	234.41540622711182	response	0	4						323.725346326828	
87	241.59513521194458	response	0	space						330.90507531166077	
