trial_nr	onset	event_type	phase	response	nr_frames	movie_index	movie_duration	movie_file	blank	onset_abs	duration
0	0.1331169605255127	stim	0		78.0					100.78405475616455	0.6502439975738525
0	0.7681400775909424	response	0	space						101.41907787322998	
1	0.7833609580993652	stim	0		121.0					101.4342987537384	1.0079550743103027
1	1.391381025314331	response	0	space						102.04231882095337	
1	1.791316032409668	stim	1		120.0					102.4422538280487	0.9999639987945557
1	1.783905029296875	response	1	space						102.43484282493591	
1	2.5163440704345703	response	1	space						103.16728186607361	
2	2.7912800312042236	fix_pre	0		21.0	0.0	2.5	/experiments/knapen_aot/videos/R_S_yt-oVrkSsEpuvk_118.mp4	0.0	103.44221782684326	0.17499208450317383
2	2.958091974258423	response	0	space		0.0	2.5	/experiments/knapen_aot/videos/R_S_yt-oVrkSsEpuvk_118.mp4	0.0	103.60902976989746	
2	2.9662721157073975	movie	1		301.0	0.0	2.5	/experiments/knapen_aot/videos/R_S_yt-oVrkSsEpuvk_118.mp4	0.0	103.61720991134644	2.50838303565979
2	5.4746551513671875	fix_post	2		12.0	0.0	2.5	/experiments/knapen_aot/videos/R_S_yt-oVrkSsEpuvk_118.mp4	0.0	106.12559294700623	0.09995794296264648
3	5.574613094329834	fix_pre	0		7.0	1.0	2.5	/experiments/knapen_aot/videos/S_yt-2kPrGwVmRfE_169.mp4	0.0	106.22555088996887	0.05830693244934082
3	5.629805088043213	response	0	2		1.0	2.5	/experiments/knapen_aot/videos/S_yt-2kPrGwVmRfE_169.mp4	0.0	106.28074288368225	
3	5.632920026779175	movie	1		295.0	1.0	2.5	/experiments/knapen_aot/videos/S_yt-2kPrGwVmRfE_169.mp4	0.0	106.28385782241821	2.508366107940674
3	8.141286134719849	fix_post	2		12.0	1.0	2.5	/experiments/knapen_aot/videos/S_yt-2kPrGwVmRfE_169.mp4	0.0	108.79222393035889	0.09995388984680176
4	8.24124002456665	fix_pre	0		12.0	2.0	2.5	/experiments/knapen_aot/videos/S_video-2_copy.mp4	0.0	108.89217782020569	0.1000211238861084
4	8.332988023757935	response	0	2		2.0	2.5	/experiments/knapen_aot/videos/S_video-2_copy.mp4	0.0	108.98392581939697	
4	8.341261148452759	movie	1		164.0	2.0	2.5	/experiments/knapen_aot/videos/S_video-2_copy.mp4	0.0	108.9921989440918	2.5084328651428223
4	10.849694013595581	fix_post	2		12.0	2.0	2.5	/experiments/knapen_aot/videos/S_video-2_copy.mp4	0.0	111.50063180923462	0.09993100166320801
5	10.949625015258789	fix_pre	0		11.0	3.0	2.5	/experiments/knapen_aot/videos/S_production_ID_4325516.mp4	0.0	111.60056281089783	0.09268712997436523
5	11.033040046691895	response	0	2		3.0	2.5	/experiments/knapen_aot/videos/S_production_ID_4325516.mp4	0.0	111.68397784233093	
5	11.042312145233154	movie	1		200.0	3.0	2.5	/experiments/knapen_aot/videos/S_production_ID_4325516.mp4	0.0	111.69324994087219	2.5072708129882812
5	13.549582958221436	fix_post	2		12.0	3.0	2.5	/experiments/knapen_aot/videos/S_production_ID_4325516.mp4	0.0	114.20052075386047	0.10004210472106934
6	13.649625062942505	fix_pre	0		1.0	4.0	2.5	/experiments/knapen_aot/videos/S_yt-y3tyx6cZjmA_412.mp4	0.0	114.30056285858154	0.01058197021484375
6	13.651253938674927	response	0	2		4.0	2.5	/experiments/knapen_aot/videos/S_yt-y3tyx6cZjmA_412.mp4	0.0	114.30219173431396	
6	13.660207033157349	movie	1		301.0	4.0	2.5	/experiments/knapen_aot/videos/S_yt-y3tyx6cZjmA_412.mp4	0.0	114.31114482879639	2.506024122238159
6	16.166231155395508	fix_post	2		12.0	4.0	2.5	/experiments/knapen_aot/videos/S_yt-y3tyx6cZjmA_412.mp4	0.0	116.81716895103455	0.10012483596801758
7	16.266355991363525	fix_pre	0		15.0	5.0	2.5	/experiments/knapen_aot/videos/R_S_video_inspire_texas_austin_oct2019_evening_00085.1080-h264.mp4	0.0	116.91729378700256	0.1248929500579834
7	16.383023977279663	response	0	2		5.0	2.5	/experiments/knapen_aot/videos/R_S_video_inspire_texas_austin_oct2019_evening_00085.1080-h264.mp4	0.0	117.0339617729187	
7	16.39124894142151	movie	1		171.0	5.0	2.5	/experiments/knapen_aot/videos/R_S_video_inspire_texas_austin_oct2019_evening_00085.1080-h264.mp4	0.0	117.04218673706055	2.50835919380188
7	18.89960813522339	fix_post	2		12.0	5.0	2.5	/experiments/knapen_aot/videos/R_S_video_inspire_texas_austin_oct2019_evening_00085.1080-h264.mp4	0.0	119.55054593086243	0.10006880760192871
7	18.95797896385193	response	2	2		5.0	2.5	/experiments/knapen_aot/videos/R_S_video_inspire_texas_austin_oct2019_evening_00085.1080-h264.mp4	0.0	119.60891675949097	
8	18.999676942825317	fix_pre	0		35.0	6.0	2.5	/experiments/knapen_aot/videos/R_S_yt-giRwl4yChlw_9.mp4	0.0	119.65061473846436	0.2924480438232422
8	19.282873153686523	response	0	2		6.0	2.5	/experiments/knapen_aot/videos/R_S_yt-giRwl4yChlw_9.mp4	0.0	119.93381094932556	
8	19.29212498664856	movie	1		301.0	6.0	2.5	/experiments/knapen_aot/videos/R_S_yt-giRwl4yChlw_9.mp4	0.0	119.9430627822876	2.5073370933532715
8	21.791208028793335	response	1	2		6.0	2.5	/experiments/knapen_aot/videos/R_S_yt-giRwl4yChlw_9.mp4	0.0	122.44214582443237	
8	21.79946208000183	fix_post	2		12.0	6.0	2.5	/experiments/knapen_aot/videos/R_S_yt-giRwl4yChlw_9.mp4	0.0	122.45039987564087	0.10009884834289551
9	21.899560928344727	fix_pre	0		47.0	7.0	2.5	blank	1.0	122.55049872398376	0.3925302028656006
9	22.282938957214355	response	0	2		7.0	2.5	blank	1.0	122.9338767528534	
9	22.292091131210327	movie	1		301.0	7.0	2.5	blank	1.0	122.94302892684937	2.5074338912963867
9	24.799525022506714	fix_post	2		12.0	7.0	2.5	blank	1.0	125.45046281814575	0.09999704360961914
10	24.899522066116333	fix_pre	0		13.0	8.0	2.5	/experiments/knapen_aot/videos/S_yt-7W50lcw5FCo_37.mp4	0.0	125.55045986175537	0.10832405090332031
10	24.999582052230835	response	0	2		8.0	2.5	/experiments/knapen_aot/videos/S_yt-7W50lcw5FCo_37.mp4	0.0	125.65051984786987	
10	25.007846117019653	movie	1		301.0	8.0	2.5	/experiments/knapen_aot/videos/S_yt-7W50lcw5FCo_37.mp4	0.0	125.65878391265869	2.5083279609680176
10	27.51617407798767	fix_post	2		12.0	8.0	2.5	/experiments/knapen_aot/videos/S_yt-7W50lcw5FCo_37.mp4	0.0	128.1671118736267	0.09996604919433594
11	27.616140127182007	fix_pre	0		20.0	9.0	2.5	/experiments/knapen_aot/videos/R_S_yt-T_qmGKyeKNU_32.mp4	0.0	128.26707792282104	0.16664385795593262
11	27.76718306541443	response	0	2		9.0	2.5	/experiments/knapen_aot/videos/R_S_yt-T_qmGKyeKNU_32.mp4	0.0	128.41812086105347	
11	27.78278398513794	movie	1		301.0	9.0	2.5	/experiments/knapen_aot/videos/R_S_yt-T_qmGKyeKNU_32.mp4	0.0	128.43372178077698	2.508385181427002
11	30.29116916656494	fix_post	2		12.0	9.0	2.5	/experiments/knapen_aot/videos/R_S_yt-T_qmGKyeKNU_32.mp4	0.0	130.94210696220398	0.10001587867736816
12	30.39118504524231	fix_pre	0		9.0	10.0	2.5	/experiments/knapen_aot/videos/R_S_ioSkDvwpEaU_35.mp4	0.0	131.04212284088135	0.07491111755371094
12	30.457873106002808	response	0	2		10.0	2.5	/experiments/knapen_aot/videos/R_S_ioSkDvwpEaU_35.mp4	0.0	131.10881090164185	
12	30.46609616279602	movie	1		301.0	10.0	2.5	/experiments/knapen_aot/videos/R_S_ioSkDvwpEaU_35.mp4	0.0	131.11703395843506	2.508431911468506
12	32.974528074264526	fix_post	2		12.0	10.0	2.5	/experiments/knapen_aot/videos/R_S_ioSkDvwpEaU_35.mp4	0.0	133.62546586990356	0.09994697570800781
13	33.074475049972534	fix_pre	0		18.0	11.0	2.5	/experiments/knapen_aot/videos/R_S_yt-SRcIvTQcmOk_62.mp4	0.0	133.72541284561157	0.1499021053314209
13	33.20873403549194	response	0	2		11.0	2.5	/experiments/knapen_aot/videos/R_S_yt-SRcIvTQcmOk_62.mp4	0.0	133.85967183113098	
13	33.224377155303955	movie	1		301.0	11.0	2.5	/experiments/knapen_aot/videos/R_S_yt-SRcIvTQcmOk_62.mp4	0.0	133.875314950943	2.508354902267456
13	35.73273205757141	fix_post	2		12.0	11.0	2.5	/experiments/knapen_aot/videos/R_S_yt-SRcIvTQcmOk_62.mp4	0.0	136.38366985321045	0.1000978946685791
14	35.83282995223999	fix_pre	0		20.0	12.0	2.5	/experiments/knapen_aot/videos/R_S_yt-BCFGCganiuE_8.mp4	0.0	136.48376774787903	0.16750502586364746
14	35.99118709564209	response	0	2		12.0	2.5	/experiments/knapen_aot/videos/R_S_yt-BCFGCganiuE_8.mp4	0.0	136.64212489128113	
14	36.00033497810364	movie	1		301.0	12.0	2.5	/experiments/knapen_aot/videos/R_S_yt-BCFGCganiuE_8.mp4	0.0	136.65127277374268	2.5074820518493652
14	38.507817029953	fix_post	2		12.0	12.0	2.5	/experiments/knapen_aot/videos/R_S_yt-BCFGCganiuE_8.mp4	0.0	139.15875482559204	0.1000969409942627
15	38.607913970947266	fix_pre	0		15.0	13.0	2.5	/experiments/knapen_aot/videos/R_S_yt-a9bnYU0Gnxg_59.mp4	0.0	139.2588517665863	0.1248631477355957
15	38.72456407546997	response	0	2		13.0	2.5	/experiments/knapen_aot/videos/R_S_yt-a9bnYU0Gnxg_59.mp4	0.0	139.375501871109	
15	38.73277711868286	movie	1		301.0	13.0	2.5	/experiments/knapen_aot/videos/R_S_yt-a9bnYU0Gnxg_59.mp4	0.0	139.3837149143219	2.508419990539551
15	41.24119710922241	fix_post	2		12.0	13.0	2.5	/experiments/knapen_aot/videos/R_S_yt-a9bnYU0Gnxg_59.mp4	0.0	141.89213490486145	0.09993696212768555
16	41.3411340713501	fix_pre	0		27.0	14.0	2.5	blank	1.0	141.99207186698914	0.22490692138671875
16	41.55783200263977	response	0	2		14.0	2.5	blank	1.0	142.2087697982788	
16	41.566040992736816	movie	1		301.0	14.0	2.5	blank	1.0	142.21697878837585	2.50844407081604
16	44.074485063552856	fix_post	2		12.0	14.0	2.5	blank	1.0	144.7254228591919	0.09995007514953613
17	44.17443513870239	fix_pre	0		19.0	15.0	2.5	/experiments/knapen_aot/videos/R_S_yt-GI8BEHw2Lq8_3.mp4	0.0	144.82537293434143	0.1591169834136963
17	44.32452607154846	response	0	2		15.0	2.5	/experiments/knapen_aot/videos/R_S_yt-GI8BEHw2Lq8_3.mp4	0.0	144.9754638671875	
17	44.33355212211609	movie	1		301.0	15.0	2.5	/experiments/knapen_aot/videos/R_S_yt-GI8BEHw2Lq8_3.mp4	0.0	144.98448991775513	2.507580041885376
17	46.841132164001465	fix_post	2		12.0	15.0	2.5	/experiments/knapen_aot/videos/R_S_yt-GI8BEHw2Lq8_3.mp4	0.0	147.4920699596405	0.10008096694946289
18	46.94121313095093	fix_pre	0		26.0	16.0	2.5	/experiments/knapen_aot/videos/R_S_ILSVRC2015_train_00682000.mp4	0.0	147.59215092658997	0.21650481224060059
18	47.14943504333496	response	0	2		16.0	2.5	/experiments/knapen_aot/videos/R_S_ILSVRC2015_train_00682000.mp4	0.0	147.800372838974	
18	47.15771794319153	movie	1		301.0	16.0	2.5	/experiments/knapen_aot/videos/R_S_ILSVRC2015_train_00682000.mp4	0.0	147.80865573883057	2.5083930492401123
18	49.66611099243164	fix_post	2		12.0	16.0	2.5	/experiments/knapen_aot/videos/R_S_ILSVRC2015_train_00682000.mp4	0.0	150.31704878807068	0.09998011589050293
19	49.766091108322144	fix_pre	0		12.0	17.0	2.5	/experiments/knapen_aot/videos/R_S_yt-CXn1PGH67_s_20.mp4	0.0	150.41702890396118	0.09996294975280762
19	49.85780715942383	response	0	2		17.0	2.5	/experiments/knapen_aot/videos/R_S_yt-CXn1PGH67_s_20.mp4	0.0	150.50874495506287	
19	49.86605405807495	movie	1		301.0	17.0	2.5	/experiments/knapen_aot/videos/R_S_yt-CXn1PGH67_s_20.mp4	0.0	150.516991853714	2.5083348751068115
19	52.37438893318176	fix_post	2		12.0	17.0	2.5	/experiments/knapen_aot/videos/R_S_yt-CXn1PGH67_s_20.mp4	0.0	153.0253267288208	0.09999608993530273
20	52.474385023117065	fix_pre	0		29.0	18.0	2.5	/experiments/knapen_aot/videos/R_S_ILSVRC2015_train_00569004.mp4	0.0	153.1253228187561	0.24166297912597656
20	52.70785903930664	response	0	2		18.0	2.5	/experiments/knapen_aot/videos/R_S_ILSVRC2015_train_00569004.mp4	0.0	153.35879683494568	
20	52.71604800224304	movie	1		301.0	18.0	2.5	/experiments/knapen_aot/videos/R_S_ILSVRC2015_train_00569004.mp4	0.0	153.36698579788208	2.5083580017089844
20	55.224406003952026	fix_post	2		12.0	18.0	2.5	/experiments/knapen_aot/videos/R_S_ILSVRC2015_train_00569004.mp4	0.0	155.87534379959106	0.0999751091003418
21	55.32438111305237	fix_pre	0		7.0	19.0	2.5	blank	1.0	155.9753189086914	0.058267831802368164
21	55.37450909614563	response	0	2		19.0	2.5	blank	1.0	156.02544689178467	
21	55.382648944854736	movie	1		301.0	19.0	2.5	blank	1.0	156.03358674049377	2.5083630084991455
21	57.89101195335388	fix_post	2		12.0	19.0	2.5	blank	1.0	158.54194974899292	0.10014009475708008
22	57.99115204811096	fix_pre	0		42.0	20.0	2.5	/experiments/knapen_aot/videos/R_S_yt-LQrnLKP5tiQ_48.mp4	0.0	158.64208984375	0.34981608390808105
22	58.33288812637329	response	0	2		20.0	2.5	/experiments/knapen_aot/videos/R_S_yt-LQrnLKP5tiQ_48.mp4	0.0	158.98382592201233	
22	58.34096813201904	movie	1		301.0	20.0	2.5	/experiments/knapen_aot/videos/R_S_yt-LQrnLKP5tiQ_48.mp4	0.0	158.99190592765808	2.5084099769592285
22	60.84937810897827	fix_post	2		12.0	20.0	2.5	/experiments/knapen_aot/videos/R_S_yt-LQrnLKP5tiQ_48.mp4	0.0	161.5003159046173	0.09999799728393555
23	60.94937610626221	fix_pre	0		21.0	21.0	2.5	/experiments/knapen_aot/videos/S_yt-8fQ9LaF8U10_382.mp4	0.0	161.60031390190125	0.17564797401428223
23	61.116101026535034	response	0	2		21.0	2.5	/experiments/knapen_aot/videos/S_yt-8fQ9LaF8U10_382.mp4	0.0	161.76703882217407	
23	61.12502408027649	movie	1		301.0	21.0	2.5	/experiments/knapen_aot/videos/S_yt-8fQ9LaF8U10_382.mp4	0.0	161.77596187591553	2.507690906524658
23	63.63271498680115	fix_post	2		12.0	21.0	2.5	/experiments/knapen_aot/videos/S_yt-8fQ9LaF8U10_382.mp4	0.0	164.28365278244019	0.09997797012329102
24	63.73269295692444	fix_pre	0		17.0	22.0	2.5	/experiments/knapen_aot/videos/R_S_S005_C015_SDR_2K_AVC.mp4	0.0	164.38363075256348	0.1423320770263672
24	63.86606502532959	response	0	2		22.0	2.5	/experiments/knapen_aot/videos/R_S_S005_C015_SDR_2K_AVC.mp4	0.0	164.51700282096863	
24	63.875025033950806	movie	1		170.0	22.0	2.5	/experiments/knapen_aot/videos/R_S_S005_C015_SDR_2K_AVC.mp4	0.0	164.52596282958984	2.5077459812164307
24	66.38277101516724	fix_post	2		12.0	22.0	2.5	/experiments/knapen_aot/videos/R_S_S005_C015_SDR_2K_AVC.mp4	0.0	167.03370881080627	0.09990310668945312
24	66.44110798835754	response	2	2		22.0	2.5	/experiments/knapen_aot/videos/R_S_S005_C015_SDR_2K_AVC.mp4	0.0	167.09204578399658	
25	66.48267412185669	fix_pre	0		37.0	23.0	2.5	/experiments/knapen_aot/videos/R_S_production_ID_4360158.mp4	0.0	167.13361191749573	0.30890703201293945
25	66.77524614334106	response	0	2		23.0	2.5	/experiments/knapen_aot/videos/R_S_production_ID_4360158.mp4	0.0	167.4261839389801	
25	66.79158115386963	movie	1		165.0	23.0	2.5	/experiments/knapen_aot/videos/R_S_production_ID_4360158.mp4	0.0	167.44251894950867	2.507744789123535
25	69.29932594299316	fix_post	2		12.0	23.0	2.5	/experiments/knapen_aot/videos/R_S_production_ID_4360158.mp4	0.0	169.9502637386322	0.09999608993530273
26	69.39932203292847	fix_pre	0		7.0	24.0	2.5	/experiments/knapen_aot/videos/S_yt-ibDaDIEazxg_3.mp4	0.0	170.0502598285675	0.058960914611816406
26	69.44931316375732	response	0	2		24.0	2.5	/experiments/knapen_aot/videos/S_yt-ibDaDIEazxg_3.mp4	0.0	170.10025095939636	
26	69.45828294754028	movie	1		301.0	24.0	2.5	/experiments/knapen_aot/videos/S_yt-ibDaDIEazxg_3.mp4	0.0	170.10922074317932	2.50770902633667
26	71.96599197387695	fix_post	2		12.0	24.0	2.5	/experiments/knapen_aot/videos/S_yt-ibDaDIEazxg_3.mp4	0.0	172.616929769516	0.0999751091003418
27	72.0659670829773	fix_pre	0		4.0	25.0	2.5	/experiments/knapen_aot/videos/S_ILSVRC2015_train_00545000.mp4	0.0	172.71690487861633	0.033386945724487305
27	72.0910370349884	response	0	2		25.0	2.5	/experiments/knapen_aot/videos/S_ILSVRC2015_train_00545000.mp4	0.0	172.74197483062744	
27	72.09935402870178	movie	1		301.0	25.0	2.5	/experiments/knapen_aot/videos/S_ILSVRC2015_train_00545000.mp4	0.0	172.75029182434082	2.5084500312805176
27	74.6078040599823	fix_post	2		12.0	25.0	2.5	/experiments/knapen_aot/videos/S_ILSVRC2015_train_00545000.mp4	0.0	175.25874185562134	0.09982895851135254
28	74.70763301849365	fix_pre	0		17.0	26.0	2.5	/experiments/knapen_aot/videos/S_Y004_C015_SDR_2K_AVC.mp4	0.0	175.3585708141327	0.14163899421691895
28	74.84109616279602	response	0	2		26.0	2.5	/experiments/knapen_aot/videos/S_Y004_C015_SDR_2K_AVC.mp4	0.0	175.49203395843506	
28	74.84927201271057	movie	1		168.0	26.0	2.5	/experiments/knapen_aot/videos/S_Y004_C015_SDR_2K_AVC.mp4	0.0	175.5002098083496	2.5083889961242676
28	77.35766100883484	fix_post	2		12.0	26.0	2.5	/experiments/knapen_aot/videos/S_Y004_C015_SDR_2K_AVC.mp4	0.0	178.00859880447388	0.09998798370361328
29	77.45764899253845	fix_pre	0		28.0	27.0	2.5	/experiments/knapen_aot/videos/R_S_yt-wjBwgccZM5k_150.mp4	0.0	178.1085867881775	0.23325204849243164
29	77.68267011642456	response	0	2		27.0	2.5	/experiments/knapen_aot/videos/R_S_yt-wjBwgccZM5k_150.mp4	0.0	178.3336079120636	
29	77.69090104103088	movie	1		301.0	27.0	2.5	/experiments/knapen_aot/videos/R_S_yt-wjBwgccZM5k_150.mp4	0.0	178.34183883666992	2.508359909057617
29	80.1992609500885	fix_post	2		12.0	27.0	2.5	/experiments/knapen_aot/videos/R_S_yt-wjBwgccZM5k_150.mp4	0.0	180.85019874572754	0.10011506080627441
30	80.29937601089478	fix_pre	0		31.0	28.0	2.5	blank	1.0	180.9503138065338	0.25817108154296875
30	80.54174995422363	response	0	2		28.0	2.5	blank	1.0	181.19268774986267	
30	80.55754709243774	movie	1		301.0	28.0	2.5	blank	1.0	181.20848488807678	2.5084269046783447
30	83.06597399711609	fix_post	2		12.0	28.0	2.5	blank	1.0	183.71691179275513	0.09994816780090332
31	83.16592216491699	fix_pre	0		21.0	29.0	2.5	/experiments/knapen_aot/videos/R_S_yt-mDil5vGZb14_4049.mp4	0.0	183.81685996055603	0.17501497268676758
31	83.33267211914062	response	0	2		29.0	2.5	/experiments/knapen_aot/videos/R_S_yt-mDil5vGZb14_4049.mp4	0.0	183.98360991477966	
31	83.34093713760376	movie	1		301.0	29.0	2.5	/experiments/knapen_aot/videos/R_S_yt-mDil5vGZb14_4049.mp4	0.0	183.9918749332428	2.5083048343658447
31	85.8492419719696	fix_post	2		12.0	29.0	2.5	/experiments/knapen_aot/videos/R_S_yt-mDil5vGZb14_4049.mp4	0.0	186.50017976760864	0.10002708435058594
32	85.94926905632019	fix_pre	0		8.0	30.0	2.5	/experiments/knapen_aot/videos/S_ILSVRC2015_train_00569004.mp4	0.0	186.60020685195923	0.06660008430480957
32	86.00766205787659	response	0	2		30.0	2.5	/experiments/knapen_aot/videos/S_ILSVRC2015_train_00569004.mp4	0.0	186.65859985351562	
32	86.015869140625	movie	1		301.0	30.0	2.5	/experiments/knapen_aot/videos/S_ILSVRC2015_train_00569004.mp4	0.0	186.66680693626404	2.508401870727539
32	88.52427101135254	fix_post	2		12.0	30.0	2.5	/experiments/knapen_aot/videos/S_ILSVRC2015_train_00569004.mp4	0.0	189.17520880699158	0.09994792938232422
33	88.62421894073486	fix_pre	0		44.0	31.0	2.5	/experiments/knapen_aot/videos/S_production_ID_4360158.mp4	0.0	189.2751567363739	0.36667513847351074
33	88.9826500415802	response	0	2		31.0	2.5	/experiments/knapen_aot/videos/S_production_ID_4360158.mp4	0.0	189.63358783721924	
33	88.99089407920837	movie	1		162.0	31.0	2.5	/experiments/knapen_aot/videos/S_production_ID_4360158.mp4	0.0	189.6418318748474	2.50832200050354
33	91.49921607971191	fix_post	2		12.0	31.0	2.5	/experiments/knapen_aot/videos/S_production_ID_4360158.mp4	0.0	192.15015387535095	0.10000300407409668
34	91.59921908378601	fix_pre	0		3.0	32.0	2.5	/experiments/knapen_aot/videos/S_yt-i-1Gou9SA5U_3.mp4	0.0	192.25015687942505	0.025660991668701172
34	91.61595892906189	response	0	2		32.0	2.5	/experiments/knapen_aot/videos/S_yt-i-1Gou9SA5U_3.mp4	0.0	192.26689672470093	
34	91.62488007545471	movie	1		301.0	32.0	2.5	/experiments/knapen_aot/videos/S_yt-i-1Gou9SA5U_3.mp4	0.0	192.27581787109375	2.5077569484710693
34	94.13263702392578	fix_post	2		12.0	32.0	2.5	/experiments/knapen_aot/videos/S_yt-i-1Gou9SA5U_3.mp4	0.0	194.78357481956482	0.09990310668945312
35	94.23254013061523	fix_pre	0		29.0	33.0	2.5	/experiments/knapen_aot/videos/S_fHdEaNT0gA0_35.mp4	0.0	194.88347792625427	0.24168682098388672
35	94.46591210365295	response	0	2		33.0	2.5	/experiments/knapen_aot/videos/S_fHdEaNT0gA0_35.mp4	0.0	195.116849899292	
35	94.47422695159912	movie	1		301.0	33.0	2.5	/experiments/knapen_aot/videos/S_fHdEaNT0gA0_35.mp4	0.0	195.12516474723816	2.508305072784424
35	96.98253202438354	fix_post	2		12.0	33.0	2.5	/experiments/knapen_aot/videos/S_fHdEaNT0gA0_35.mp4	0.0	197.63346982002258	0.09999394416809082
36	97.08252596855164	fix_pre	0		29.0	34.0	2.5	blank	1.0	197.73346376419067	0.24165701866149902
36	97.31598901748657	response	0	2		34.0	2.5	blank	1.0	197.9669268131256	
36	97.32418298721313	movie	1		301.0	34.0	2.5	blank	1.0	197.97512078285217	2.5082809925079346
36	99.83246397972107	fix_post	2		12.0	34.0	2.5	blank	1.0	200.4834017753601	0.10003495216369629
37	99.93249893188477	fix_pre	0		26.0	35.0	2.5	/experiments/knapen_aot/videos/R_S_video-2.mp4	0.0	200.5834367275238	0.21667218208312988
37	100.13341307640076	response	0	2		35.0	2.5	/experiments/knapen_aot/videos/R_S_video-2.mp4	0.0	200.7843508720398	
37	100.1491711139679	movie	1		164.0	35.0	2.5	/experiments/knapen_aot/videos/R_S_video-2.mp4	0.0	200.80010890960693	2.5082578659057617
37	102.65742897987366	fix_post	2		12.0	35.0	2.5	/experiments/knapen_aot/videos/R_S_video-2.mp4	0.0	203.3083667755127	0.10007309913635254
38	102.75750207901001	fix_pre	0		5.0	36.0	2.5	/experiments/knapen_aot/videos/S_production_ID_4325516.mp4	0.0	203.40843987464905	0.041641950607299805
38	102.79095411300659	response	0	2		36.0	2.5	/experiments/knapen_aot/videos/S_production_ID_4325516.mp4	0.0	203.44189190864563	
38	102.79914402961731	movie	1		214.0	36.0	2.5	/experiments/knapen_aot/videos/S_production_ID_4325516.mp4	0.0	203.45008182525635	2.5083250999450684
38	105.30746912956238	fix_post	2		12.0	36.0	2.5	/experiments/knapen_aot/videos/S_production_ID_4325516.mp4	0.0	205.95840692520142	0.10007691383361816
39	105.407546043396	fix_pre	0		15.0	37.0	2.5	/experiments/knapen_aot/videos/S_yt-6aqg1P9YqR8_38.mp4	0.0	206.05848383903503	0.12488389015197754
39	105.52435398101807	response	0	2		37.0	2.5	/experiments/knapen_aot/videos/S_yt-6aqg1P9YqR8_38.mp4	0.0	206.1752917766571	
39	105.53242993354797	movie	1		301.0	37.0	2.5	/experiments/knapen_aot/videos/S_yt-6aqg1P9YqR8_38.mp4	0.0	206.183367729187	2.508364200592041
39	108.04079413414001	fix_post	2		12.0	37.0	2.5	/experiments/knapen_aot/videos/S_yt-6aqg1P9YqR8_38.mp4	0.0	208.69173192977905	0.10003185272216797
40	108.14082598686218	fix_pre	0		13.0	38.0	2.5	/experiments/knapen_aot/videos/S_yt-mmvWYAttrIw_2.mp4	0.0	208.79176378250122	0.10883307456970215
40	108.24101614952087	response	0	2		38.0	2.5	/experiments/knapen_aot/videos/S_yt-mmvWYAttrIw_2.mp4	0.0	208.8919539451599	
40	108.24965906143188	movie	1		301.0	38.0	2.5	/experiments/knapen_aot/videos/S_yt-mmvWYAttrIw_2.mp4	0.0	208.90059685707092	2.507772922515869
40	110.75743198394775	fix_post	2		12.0	38.0	2.5	/experiments/knapen_aot/videos/S_yt-mmvWYAttrIw_2.mp4	0.0	211.4083697795868	0.10003995895385742
41	110.85747194290161	fix_pre	0		16.0	39.0	2.5	/experiments/knapen_aot/videos/S_yt-a9bnYU0Gnxg_59.mp4	0.0	211.50840973854065	0.1332871913909912
41	110.98254609107971	response	0	2		39.0	2.5	/experiments/knapen_aot/videos/S_yt-a9bnYU0Gnxg_59.mp4	0.0	211.63348388671875	
41	110.9907591342926	movie	1		301.0	39.0	2.5	/experiments/knapen_aot/videos/S_yt-a9bnYU0Gnxg_59.mp4	0.0	211.64169692993164	2.5083580017089844
41	113.49911713600159	fix_post	2		12.0	39.0	2.5	/experiments/knapen_aot/videos/S_yt-a9bnYU0Gnxg_59.mp4	0.0	214.15005493164062	0.09998583793640137
42	113.59910297393799	fix_pre	0		10.0	40.0	2.5	/experiments/knapen_aot/videos/S_pexels-marcus-aurelius-6785014.mp4	0.0	214.25004076957703	0.08331418037414551
42	113.67423701286316	response	0	2		40.0	2.5	/experiments/knapen_aot/videos/S_pexels-marcus-aurelius-6785014.mp4	0.0	214.3251748085022	
42	113.68241715431213	movie	1		166.0	40.0	2.5	/experiments/knapen_aot/videos/S_pexels-marcus-aurelius-6785014.mp4	0.0	214.33335494995117	2.5083727836608887
42	116.19078993797302	fix_post	2		12.0	40.0	2.5	/experiments/knapen_aot/videos/S_pexels-marcus-aurelius-6785014.mp4	0.0	216.84172773361206	0.10045313835144043
43	116.29124307632446	fix_pre	0		16.0	41.0	2.5	blank	1.0	216.9421808719635	0.1328599452972412
43	116.41579103469849	response	0	2		41.0	2.5	blank	1.0	217.06672883033752	
43	116.4241030216217	movie	1		301.0	41.0	2.5	blank	1.0	217.07504081726074	2.508378028869629
43	118.93248105049133	fix_post	2		12.0	41.0	2.5	blank	1.0	219.58341884613037	0.10016798973083496
44	119.03264904022217	fix_pre	0		17.0	42.0	2.5	/experiments/knapen_aot/videos/R_S_yt-xrPrnzvWUkY_7.mp4	0.0	219.6835868358612	0.14142894744873047
44	119.16585803031921	response	0	2		42.0	2.5	/experiments/knapen_aot/videos/R_S_yt-xrPrnzvWUkY_7.mp4	0.0	219.81679582595825	
44	119.1740779876709	movie	1		301.0	42.0	2.5	/experiments/knapen_aot/videos/R_S_yt-xrPrnzvWUkY_7.mp4	0.0	219.82501578330994	2.5083680152893066
44	121.6824460029602	fix_post	2		12.0	42.0	2.5	/experiments/knapen_aot/videos/R_S_yt-xrPrnzvWUkY_7.mp4	0.0	222.33338379859924	0.09997415542602539
45	121.78242015838623	fix_pre	0		29.0	43.0	2.5	/experiments/knapen_aot/videos/R_S_yt-K_gHa2x2OQA_319.mp4	0.0	222.43335795402527	0.24162578582763672
45	122.01583814620972	response	0	2		43.0	2.5	/experiments/knapen_aot/videos/R_S_yt-K_gHa2x2OQA_319.mp4	0.0	222.66677594184875	
45	122.02404594421387	movie	1		301.0	43.0	2.5	/experiments/knapen_aot/videos/R_S_yt-K_gHa2x2OQA_319.mp4	0.0	222.6749837398529	2.5083839893341064
45	124.53242993354797	fix_post	2		12.0	43.0	2.5	/experiments/knapen_aot/videos/R_S_yt-K_gHa2x2OQA_319.mp4	0.0	225.183367729187	0.09998106956481934
46	124.6324110031128	fix_pre	0		20.0	44.0	2.5	/experiments/knapen_aot/videos/S_comp_L010_C006_PS_v01_SDR_PS_20180925_SDR_2K_AVC.mp4	0.0	225.28334879875183	0.16668009757995605
46	124.79089307785034	response	0	2		44.0	2.5	/experiments/knapen_aot/videos/S_comp_L010_C006_PS_v01_SDR_PS_20180925_SDR_2K_AVC.mp4	0.0	225.44183087348938	
46	124.79909110069275	movie	1		169.0	44.0	2.5	/experiments/knapen_aot/videos/S_comp_L010_C006_PS_v01_SDR_PS_20180925_SDR_2K_AVC.mp4	0.0	225.4500288963318	2.5084989070892334
46	127.30759000778198	fix_post	2		12.0	44.0	2.5	/experiments/knapen_aot/videos/S_comp_L010_C006_PS_v01_SDR_PS_20180925_SDR_2K_AVC.mp4	0.0	227.95852780342102	0.09990906715393066
47	127.40749907493591	fix_pre	0		19.0	45.0	2.5	/experiments/knapen_aot/videos/S_3dzza09VbXY_235.mp4	0.0	228.05843687057495	0.15823101997375488
47	127.55752301216125	response	0	2		45.0	2.5	/experiments/knapen_aot/videos/S_3dzza09VbXY_235.mp4	0.0	228.2084608078003	
47	127.56573009490967	movie	1		301.0	45.0	2.5	/experiments/knapen_aot/videos/S_3dzza09VbXY_235.mp4	0.0	228.2166678905487	2.5083580017089844
47	130.07408809661865	fix_post	2		12.0	45.0	2.5	/experiments/knapen_aot/videos/S_3dzza09VbXY_235.mp4	0.0	230.7250258922577	0.09997105598449707
48	130.17405915260315	fix_pre	0		10.0	46.0	2.5	/experiments/knapen_aot/videos/S_yt-GWOOQZ19-oU_331.mp4	0.0	230.8249969482422	0.08324193954467773
48	130.249125957489	response	0	2		46.0	2.5	/experiments/knapen_aot/videos/S_yt-GWOOQZ19-oU_331.mp4	0.0	230.90006375312805	
48	130.25730109214783	movie	1		301.0	46.0	2.5	/experiments/knapen_aot/videos/S_yt-GWOOQZ19-oU_331.mp4	0.0	230.90823888778687	2.5083348751068115
48	132.76563596725464	fix_post	2		12.0	46.0	2.5	/experiments/knapen_aot/videos/S_yt-GWOOQZ19-oU_331.mp4	0.0	233.41657376289368	0.1000521183013916
49	132.86568808555603	fix_pre	0		13.0	47.0	2.5	/experiments/knapen_aot/videos/S_yt-GytLOB9Qjro_76.mp4	0.0	233.51662588119507	0.10830307006835938
49	132.9658019542694	response	0	2		47.0	2.5	/experiments/knapen_aot/videos/S_yt-GytLOB9Qjro_76.mp4	0.0	233.61673974990845	
49	132.9739911556244	movie	1		301.0	47.0	2.5	/experiments/knapen_aot/videos/S_yt-GytLOB9Qjro_76.mp4	0.0	233.62492895126343	2.5084128379821777
49	135.48240399360657	fix_post	2		12.0	47.0	2.5	/experiments/knapen_aot/videos/S_yt-GytLOB9Qjro_76.mp4	0.0	236.1333417892456	0.1004180908203125
50	135.58282208442688	fix_pre	0		11.0	48.0	2.5	blank	1.0	236.23375988006592	0.09126806259155273
50	135.66582894325256	response	0	2		48.0	2.5	blank	1.0	236.3167667388916	
50	135.67409014701843	movie	1		301.0	48.0	2.5	blank	1.0	236.32502794265747	2.5083389282226562
50	138.1824290752411	fix_post	2		12.0	48.0	2.5	blank	1.0	238.83336687088013	0.09990406036376953
51	138.28233313560486	fix_pre	0		23.0	49.0	2.5	/experiments/knapen_aot/videos/S_yt-WRBmpC-RxIc_678.mp4	0.0	238.9332709312439	0.19161295890808105
51	138.4657859802246	response	0	2		49.0	2.5	/experiments/knapen_aot/videos/S_yt-WRBmpC-RxIc_678.mp4	0.0	239.11672377586365	
51	138.47394609451294	movie	1		301.0	49.0	2.5	/experiments/knapen_aot/videos/S_yt-WRBmpC-RxIc_678.mp4	0.0	239.12488389015198	2.5083959102630615
51	140.982342004776	fix_post	2		12.0	49.0	2.5	/experiments/knapen_aot/videos/S_yt-WRBmpC-RxIc_678.mp4	0.0	241.63327980041504	0.10033798217773438
52	141.08267998695374	fix_pre	0		13.0	50.0	2.5	/experiments/knapen_aot/videos/R_S_yt-FsylDeYfcxU_24.mp4	0.0	241.73361778259277	0.10794806480407715
52	141.17507696151733	response	0	2		50.0	2.5	/experiments/knapen_aot/videos/R_S_yt-FsylDeYfcxU_24.mp4	0.0	241.82601475715637	
52	141.1906280517578	movie	1		301.0	50.0	2.5	/experiments/knapen_aot/videos/R_S_yt-FsylDeYfcxU_24.mp4	0.0	241.84156584739685	2.508478879928589
52	143.6991069316864	fix_post	2		12.0	50.0	2.5	/experiments/knapen_aot/videos/R_S_yt-FsylDeYfcxU_24.mp4	0.0	244.35004472732544	0.09987211227416992
53	143.79897904396057	fix_pre	0		12.0	51.0	2.5	/experiments/knapen_aot/videos/S_yt-PyO8-WsbaLU_43.mp4	0.0	244.4499168395996	0.09997892379760742
53	143.89078307151794	response	0	2		51.0	2.5	/experiments/knapen_aot/videos/S_yt-PyO8-WsbaLU_43.mp4	0.0	244.54172086715698	
53	143.89895796775818	movie	1		301.0	51.0	2.5	/experiments/knapen_aot/videos/S_yt-PyO8-WsbaLU_43.mp4	0.0	244.54989576339722	2.508395195007324
53	146.4073531627655	fix_post	2		12.0	51.0	2.5	/experiments/knapen_aot/videos/S_yt-PyO8-WsbaLU_43.mp4	0.0	247.05829095840454	0.09989690780639648
54	146.5072500705719	fix_pre	0		27.0	52.0	2.5	/experiments/knapen_aot/videos/S_yt-mdxs8FCKLFc_232.mp4	0.0	247.15818786621094	0.22501206398010254
54	146.72407698631287	response	0	2		52.0	2.5	/experiments/knapen_aot/videos/S_yt-mdxs8FCKLFc_232.mp4	0.0	247.3750147819519	
54	146.732262134552	movie	1		301.0	52.0	2.5	/experiments/knapen_aot/videos/S_yt-mdxs8FCKLFc_232.mp4	0.0	247.38319993019104	2.5082828998565674
54	149.24054503440857	fix_post	2		12.0	52.0	2.5	/experiments/knapen_aot/videos/S_yt-mdxs8FCKLFc_232.mp4	0.0	249.8914828300476	0.1004791259765625
55	149.34102416038513	fix_pre	0		30.0	53.0	2.5	/experiments/knapen_aot/videos/S_yt-ObT9gF8E_tU_250.mp4	0.0	249.99196195602417	0.24956583976745605
55	149.5823700428009	response	0	2		53.0	2.5	/experiments/knapen_aot/videos/S_yt-ObT9gF8E_tU_250.mp4	0.0	250.23330783843994	
55	149.5905900001526	movie	1		301.0	53.0	2.5	/experiments/knapen_aot/videos/S_yt-ObT9gF8E_tU_250.mp4	0.0	250.24152779579163	2.508695125579834
55	152.09928512573242	fix_post	2		12.0	53.0	2.5	/experiments/knapen_aot/videos/S_yt-ObT9gF8E_tU_250.mp4	0.0	252.75022292137146	0.09969186782836914
56	152.1989769935608	fix_pre	0		9.0	54.0	2.5	/experiments/knapen_aot/videos/R_S_yt-4Qz0m5IYh10_167.mp4	0.0	252.84991478919983	0.07496500015258789
56	152.2656970024109	response	0	2		54.0	2.5	/experiments/knapen_aot/videos/R_S_yt-4Qz0m5IYh10_167.mp4	0.0	252.91663479804993	
56	152.27394199371338	movie	1		301.0	54.0	2.5	/experiments/knapen_aot/videos/R_S_yt-4Qz0m5IYh10_167.mp4	0.0	252.92487978935242	2.508366107940674
56	154.78230810165405	fix_post	2		12.0	54.0	2.5	/experiments/knapen_aot/videos/R_S_yt-4Qz0m5IYh10_167.mp4	0.0	255.4332458972931	0.09994292259216309
57	154.88225102424622	fix_pre	0		12.0	55.0	2.5	/experiments/knapen_aot/videos/S_yt-VQtbKGzI9SE_431.mp4	0.0	255.53318881988525	0.10001301765441895
57	154.97400307655334	response	0	2		55.0	2.5	/experiments/knapen_aot/videos/S_yt-VQtbKGzI9SE_431.mp4	0.0	255.62494087219238	
57	154.98226404190063	movie	1		301.0	55.0	2.5	/experiments/knapen_aot/videos/S_yt-VQtbKGzI9SE_431.mp4	0.0	255.63320183753967	2.5083060264587402
57	157.49057006835938	fix_post	2		12.0	55.0	2.5	/experiments/knapen_aot/videos/S_yt-VQtbKGzI9SE_431.mp4	0.0	258.1415078639984	0.09995007514953613
57	157.58243703842163	response	2	2		55.0	2.5	/experiments/knapen_aot/videos/S_yt-VQtbKGzI9SE_431.mp4	0.0	258.23337483406067	
58	157.5905201435089	fix_pre	0		42.0	56.0	2.5	blank	1.0	258.24145793914795	0.3500030040740967
58	157.93236994743347	response	0	2		56.0	2.5	blank	1.0	258.5833077430725	
58	157.940523147583	movie	1		301.0	56.0	2.5	blank	1.0	258.59146094322205	2.5085489749908447
58	160.44907212257385	fix_post	2		12.0	56.0	2.5	blank	1.0	261.1000099182129	0.09988999366760254
59	160.54896211624146	fix_pre	0		27.0	57.0	2.5	/experiments/knapen_aot/videos/S_yt-R9Iabv0XgOQ_80.mp4	0.0	261.1998999118805	0.22488093376159668
59	160.7656660079956	response	0	2		57.0	2.5	/experiments/knapen_aot/videos/S_yt-R9Iabv0XgOQ_80.mp4	0.0	261.41660380363464	
59	160.77384305000305	movie	1		301.0	57.0	2.5	/experiments/knapen_aot/videos/S_yt-R9Iabv0XgOQ_80.mp4	0.0	261.4247808456421	2.5084140300750732
59	163.28225708007812	fix_post	2		12.0	57.0	2.5	/experiments/knapen_aot/videos/S_yt-R9Iabv0XgOQ_80.mp4	0.0	263.93319487571716	0.10001707077026367
60	163.3822741508484	fix_pre	0		5.0	58.0	2.5	/experiments/knapen_aot/videos/S_pexels-sora-shimazaki-5925295.mp4	0.0	264.0332119464874	0.04155087471008301
60	163.41569113731384	response	0	2		58.0	2.5	/experiments/knapen_aot/videos/S_pexels-sora-shimazaki-5925295.mp4	0.0	264.0666289329529	
60	163.42382502555847	movie	1		170.0	58.0	2.5	/experiments/knapen_aot/videos/S_pexels-sora-shimazaki-5925295.mp4	0.0	264.0747628211975	2.5085089206695557
60	165.93233394622803	fix_post	2		12.0	58.0	2.5	/experiments/knapen_aot/videos/S_pexels-sora-shimazaki-5925295.mp4	0.0	266.58327174186707	0.0999000072479248
61	166.03223395347595	fix_pre	0		3.0	59.0	2.5	/experiments/knapen_aot/videos/S_yt--cAfxH1WnPo_3.mp4	0.0	266.683171749115	0.02501201629638672
61	166.04905915260315	response	0	2		59.0	2.5	/experiments/knapen_aot/videos/S_yt--cAfxH1WnPo_3.mp4	0.0	266.6999969482422	
61	166.05724596977234	movie	1		301.0	59.0	2.5	/experiments/knapen_aot/videos/S_yt--cAfxH1WnPo_3.mp4	0.0	266.7081837654114	2.5083019733428955
61	168.56554794311523	fix_post	2		12.0	59.0	2.5	/experiments/knapen_aot/videos/S_yt--cAfxH1WnPo_3.mp4	0.0	269.2164857387543	0.10018205642700195
62	168.66572999954224	fix_pre	0		17.0	60.0	2.5	/experiments/knapen_aot/videos/R_S_yt-GI8BEHw2Lq8_3.mp4	0.0	269.3166677951813	0.14147400856018066
62	168.79140496253967	response	0	2		60.0	2.5	/experiments/knapen_aot/videos/R_S_yt-GI8BEHw2Lq8_3.mp4	0.0	269.4423427581787	
62	168.80720400810242	movie	1		301.0	60.0	2.5	/experiments/knapen_aot/videos/R_S_yt-GI8BEHw2Lq8_3.mp4	0.0	269.45814180374146	2.508324146270752
62	171.31552815437317	fix_post	2		12.0	60.0	2.5	/experiments/knapen_aot/videos/R_S_yt-GI8BEHw2Lq8_3.mp4	0.0	271.9664659500122	0.10012197494506836
63	171.41565012931824	fix_pre	0		14.0	61.0	2.5	/experiments/knapen_aot/videos/R_S_comp_C003_C003_PS_v01_SDR_PS_20180925_SDR_2K_AVC.mp4	0.0	272.0665879249573	0.11651086807250977
63	171.52401494979858	response	0	2		61.0	2.5	/experiments/knapen_aot/videos/R_S_comp_C003_C003_PS_v01_SDR_PS_20180925_SDR_2K_AVC.mp4	0.0	272.1749527454376	
63	171.53216099739075	movie	1		166.0	61.0	2.5	/experiments/knapen_aot/videos/R_S_comp_C003_C003_PS_v01_SDR_PS_20180925_SDR_2K_AVC.mp4	0.0	272.1830987930298	2.5084991455078125
63	174.04066014289856	fix_post	2		12.0	61.0	2.5	/experiments/knapen_aot/videos/R_S_comp_C003_C003_PS_v01_SDR_PS_20180925_SDR_2K_AVC.mp4	0.0	274.6915979385376	0.09986400604248047
64	174.14052414894104	fix_pre	0		2.0	62.0	2.5	/experiments/knapen_aot/videos/S_comp_C003_C003_PS_v01_SDR_PS_20180925_SDR_2K_AVC.mp4	0.0	274.7914619445801	0.016672849655151367
64	174.14894604682922	response	0	2		62.0	2.5	/experiments/knapen_aot/videos/S_comp_C003_C003_PS_v01_SDR_PS_20180925_SDR_2K_AVC.mp4	0.0	274.79988384246826	
64	174.1571969985962	movie	1		191.0	62.0	2.5	/experiments/knapen_aot/videos/S_comp_C003_C003_PS_v01_SDR_PS_20180925_SDR_2K_AVC.mp4	0.0	274.80813479423523	2.508784055709839
64	176.66598105430603	fix_post	2		12.0	62.0	2.5	/experiments/knapen_aot/videos/S_comp_C003_C003_PS_v01_SDR_PS_20180925_SDR_2K_AVC.mp4	0.0	277.31691884994507	0.09970808029174805
65	176.76568913459778	fix_pre	0		13.0	63.0	2.5	blank	1.0	277.4166269302368	0.10825490951538086
65	176.86555814743042	response	0	2		63.0	2.5	blank	1.0	277.51649594306946	
65	176.87394404411316	movie	1		301.0	63.0	2.5	blank	1.0	277.5248818397522	2.5082130432128906
65	179.38215708732605	fix_post	2		12.0	63.0	2.5	blank	1.0	280.0330948829651	0.10009098052978516
66	179.48224806785583	fix_pre	0		22.0	64.0	2.5	/experiments/knapen_aot/videos/S_yt-tfHCqgH1guY_235.mp4	0.0	280.1331858634949	0.1832718849182129
66	179.6572780609131	response	0	2		64.0	2.5	/experiments/knapen_aot/videos/S_yt-tfHCqgH1guY_235.mp4	0.0	280.3082158565521	
66	179.66551995277405	movie	1		301.0	64.0	2.5	/experiments/knapen_aot/videos/S_yt-tfHCqgH1guY_235.mp4	0.0	280.3164577484131	2.508402109146118
66	182.17392206192017	fix_post	2		12.0	64.0	2.5	/experiments/knapen_aot/videos/S_yt-tfHCqgH1guY_235.mp4	0.0	282.8248598575592	0.1000070571899414
67	182.2739291191101	fix_pre	0		5.0	65.0	2.5	/experiments/knapen_aot/videos/S_yt-3E02UEHdoZ4_752.mp4	0.0	282.92486691474915	0.04157400131225586
67	182.29996705055237	response	0	2		65.0	2.5	/experiments/knapen_aot/videos/S_yt-3E02UEHdoZ4_752.mp4	0.0	282.9509048461914	
67	182.31550312042236	movie	1		301.0	65.0	2.5	/experiments/knapen_aot/videos/S_yt-3E02UEHdoZ4_752.mp4	0.0	282.9664409160614	2.5086629390716553
67	184.82416605949402	fix_post	2		12.0	65.0	2.5	/experiments/knapen_aot/videos/S_yt-3E02UEHdoZ4_752.mp4	0.0	285.47510385513306	0.0995628833770752
68	184.9237289428711	fix_pre	0		5.0	66.0	2.5	/experiments/knapen_aot/videos/R_S_ILSVRC2015_train_00396000.mp4	0.0	285.57466673851013	0.04169416427612305
68	184.9577670097351	response	0	2		66.0	2.5	/experiments/knapen_aot/videos/R_S_ILSVRC2015_train_00396000.mp4	0.0	285.60870480537415	
68	184.96542310714722	movie	1		301.0	66.0	2.5	/experiments/knapen_aot/videos/R_S_ILSVRC2015_train_00396000.mp4	0.0	285.61636090278625	2.508352041244507
68	187.47377514839172	fix_post	2		12.0	66.0	2.5	/experiments/knapen_aot/videos/R_S_ILSVRC2015_train_00396000.mp4	0.0	288.12471294403076	0.10004782676696777
69	187.5738229751587	fix_pre	0		8.0	67.0	2.5	/experiments/knapen_aot/videos/S_yt-l6WPyKg_3is_154.mp4	0.0	288.22476077079773	0.06663107872009277
69	187.63229393959045	response	0	2		67.0	2.5	/experiments/knapen_aot/videos/S_yt-l6WPyKg_3is_154.mp4	0.0	288.2832317352295	
69	187.64045405387878	movie	1		301.0	67.0	2.5	/experiments/knapen_aot/videos/S_yt-l6WPyKg_3is_154.mp4	0.0	288.2913918495178	2.5082569122314453
69	190.14871096611023	fix_post	2		12.0	67.0	2.5	/experiments/knapen_aot/videos/S_yt-l6WPyKg_3is_154.mp4	0.0	290.79964876174927	0.10020112991333008
70	190.24891209602356	fix_pre	0		30.0	68.0	2.5	/experiments/knapen_aot/videos/R_S_yt-d5jBQ-LOW2I_17.mp4	0.0	290.8998498916626	0.24987006187438965
70	190.49056315422058	response	0	2		68.0	2.5	/experiments/knapen_aot/videos/R_S_yt-d5jBQ-LOW2I_17.mp4	0.0	291.1415009498596	
70	190.49878215789795	movie	1		301.0	68.0	2.5	/experiments/knapen_aot/videos/R_S_yt-d5jBQ-LOW2I_17.mp4	0.0	291.149719953537	2.508232831954956
70	193.0070149898529	fix_post	2		12.0	68.0	2.5	/experiments/knapen_aot/videos/R_S_yt-d5jBQ-LOW2I_17.mp4	0.0	293.65795278549194	0.10008502006530762
71	193.1071000099182	fix_pre	0		29.0	69.0	2.5	/experiments/knapen_aot/videos/S_ILSVRC2015_train_00396000.mp4	0.0	293.75803780555725	0.24162912368774414
71	193.34050798416138	response	0	2		69.0	2.5	/experiments/knapen_aot/videos/S_ILSVRC2015_train_00396000.mp4	0.0	293.9914457798004	
71	193.34872913360596	movie	1		301.0	69.0	2.5	/experiments/knapen_aot/videos/S_ILSVRC2015_train_00396000.mp4	0.0	293.999666929245	2.5083630084991455
71	195.8570921421051	fix_post	2		12.0	69.0	2.5	/experiments/knapen_aot/videos/S_ILSVRC2015_train_00396000.mp4	0.0	296.50802993774414	0.10003280639648438
72	195.9571249485016	fix_pre	0		15.0	70.0	2.5	blank	1.0	296.6080627441406	0.1250011920928955
72	196.07389211654663	response	0	2		70.0	2.5	blank	1.0	296.72482991218567	
72	196.08212614059448	movie	1		301.0	70.0	2.5	blank	1.0	296.7330639362335	2.508314847946167
72	198.59044098854065	fix_post	2		12.0	70.0	2.5	blank	1.0	299.2413787841797	0.09997200965881348
73	198.69041299819946	fix_pre	0		27.0	71.0	2.5	/experiments/knapen_aot/videos/R_S_pexels-marcus-aurelius-6785014.mp4	0.0	299.3413507938385	0.22494196891784668
73	198.90711307525635	response	0	2		71.0	2.5	/experiments/knapen_aot/videos/R_S_pexels-marcus-aurelius-6785014.mp4	0.0	299.5580508708954	
73	198.9153549671173	movie	1		167.0	71.0	2.5	/experiments/knapen_aot/videos/R_S_pexels-marcus-aurelius-6785014.mp4	0.0	299.56629276275635	2.5084030628204346
73	201.42375802993774	fix_post	2		12.0	71.0	2.5	/experiments/knapen_aot/videos/R_S_pexels-marcus-aurelius-6785014.mp4	0.0	302.0746958255768	0.10002303123474121
73	201.47389101982117	response	2	2		71.0	2.5	/experiments/knapen_aot/videos/R_S_pexels-marcus-aurelius-6785014.mp4	0.0	302.1248288154602	
74	201.52378106117249	fix_pre	0		69.0	72.0	2.5	/experiments/knapen_aot/videos/R_S_wc-_W9iefBXz8bi_23.mp4	0.0	302.1747188568115	0.574897050857544
74	202.0904541015625	response	0	2		72.0	2.5	/experiments/knapen_aot/videos/R_S_wc-_W9iefBXz8bi_23.mp4	0.0	302.74139189720154	
74	202.09867811203003	movie	1		163.0	72.0	2.5	/experiments/knapen_aot/videos/R_S_wc-_W9iefBXz8bi_23.mp4	0.0	302.74961590766907	2.508396863937378
74	204.6070749759674	fix_post	2		12.0	72.0	2.5	/experiments/knapen_aot/videos/R_S_wc-_W9iefBXz8bi_23.mp4	0.0	305.25801277160645	0.09996318817138672
75	204.7070381641388	fix_pre	0		20.0	73.0	2.5	/experiments/knapen_aot/videos/R_S_3dzza09VbXY_235.mp4	0.0	305.35797595977783	0.16665387153625488
75	204.86552095413208	response	0	2		73.0	2.5	/experiments/knapen_aot/videos/R_S_3dzza09VbXY_235.mp4	0.0	305.5164587497711	
75	204.87369203567505	movie	1		301.0	73.0	2.5	/experiments/knapen_aot/videos/R_S_3dzza09VbXY_235.mp4	0.0	305.5246298313141	2.508286952972412
75	207.38197898864746	fix_post	2		12.0	73.0	2.5	/experiments/knapen_aot/videos/R_S_3dzza09VbXY_235.mp4	0.0	308.0329167842865	0.10007095336914062
76	207.4820499420166	fix_pre	0		11.0	74.0	2.5	/experiments/knapen_aot/videos/R_S_yt-kQpE9L-fsNE_55.mp4	0.0	308.13298773765564	0.09165310859680176
76	207.56540703773499	response	0	2		74.0	2.5	/experiments/knapen_aot/videos/R_S_yt-kQpE9L-fsNE_55.mp4	0.0	308.216344833374	
76	207.5737030506134	movie	1		301.0	74.0	2.5	/experiments/knapen_aot/videos/R_S_yt-kQpE9L-fsNE_55.mp4	0.0	308.22464084625244	2.508362054824829
76	210.08206510543823	fix_post	2		12.0	74.0	2.5	/experiments/knapen_aot/videos/R_S_yt-kQpE9L-fsNE_55.mp4	0.0	310.73300290107727	0.10002303123474121
77	210.18208813667297	fix_pre	0		25.0	75.0	2.5	blank	1.0	310.833025932312	0.20827293395996094
77	210.38212895393372	response	0	2		75.0	2.5	blank	1.0	311.03306674957275	
77	210.39036107063293	movie	1		301.0	75.0	2.5	blank	1.0	311.041298866272	2.50832200050354
77	212.89868307113647	fix_post	2		12.0	75.0	2.5	blank	1.0	313.5496208667755	0.09998893737792969
78	212.9986720085144	fix_pre	0		25.0	76.0	2.5	/experiments/knapen_aot/videos/S_comp_C003_C003_PS_v01_SDR_PS_20180925_SDR_2K_AVC.mp4	0.0	313.64960980415344	0.20828914642333984
78	213.1987659931183	response	0	2		76.0	2.5	/experiments/knapen_aot/videos/S_comp_C003_C003_PS_v01_SDR_PS_20180925_SDR_2K_AVC.mp4	0.0	313.8497037887573	
78	213.20696115493774	movie	1		163.0	76.0	2.5	/experiments/knapen_aot/videos/S_comp_C003_C003_PS_v01_SDR_PS_20180925_SDR_2K_AVC.mp4	0.0	313.8578989505768	2.5083658695220947
78	215.71532702445984	fix_post	2		12.0	76.0	2.5	/experiments/knapen_aot/videos/S_comp_C003_C003_PS_v01_SDR_PS_20180925_SDR_2K_AVC.mp4	0.0	316.3662648200989	0.10003900527954102
79	215.81536602973938	fix_pre	0		3.0	77.0	2.5	/experiments/knapen_aot/videos/R_S_3WAnGcPubBY_179.mp4	0.0	316.4663038253784	0.0249941349029541
79	215.83213996887207	response	0	2		77.0	2.5	/experiments/knapen_aot/videos/R_S_3WAnGcPubBY_179.mp4	0.0	316.4830777645111	
79	215.84036016464233	movie	1		301.0	77.0	2.5	/experiments/knapen_aot/videos/R_S_3WAnGcPubBY_179.mp4	0.0	316.4912979602814	2.5083508491516113
79	218.34871101379395	fix_post	2		12.0	77.0	2.5	/experiments/knapen_aot/videos/R_S_3WAnGcPubBY_179.mp4	0.0	318.999648809433	0.09999704360961914
80	218.44870805740356	fix_pre	0		14.0	78.0	2.5	/experiments/knapen_aot/videos/S_pexels-mikhail-nilov-8410084.mp4	0.0	319.0996458530426	0.11659693717956543
80	218.55719804763794	response	0	2		78.0	2.5	/experiments/knapen_aot/videos/S_pexels-mikhail-nilov-8410084.mp4	0.0	319.208135843277	
80	218.56530499458313	movie	1		165.0	78.0	2.5	/experiments/knapen_aot/videos/S_pexels-mikhail-nilov-8410084.mp4	0.0	319.21624279022217	2.508329153060913
80	221.07363414764404	fix_post	2		12.0	78.0	2.5	/experiments/knapen_aot/videos/S_pexels-mikhail-nilov-8410084.mp4	0.0	321.7245719432831	0.10015487670898438
80	221.13214206695557	response	2	2		78.0	2.5	/experiments/knapen_aot/videos/S_pexels-mikhail-nilov-8410084.mp4	0.0	321.7830798625946	
81	221.17378902435303	fix_pre	0		31.0	79.0	2.5	/experiments/knapen_aot/videos/R_S_BO_A014_C008_SDR_20190719_SDR_2K_AVC.mp4	0.0	321.82472681999207	0.2581801414489746
81	221.42365503311157	response	0	2		79.0	2.5	/experiments/knapen_aot/videos/R_S_BO_A014_C008_SDR_20190719_SDR_2K_AVC.mp4	0.0	322.0745928287506	
81	221.431969165802	movie	1		185.0	79.0	2.5	/experiments/knapen_aot/videos/R_S_BO_A014_C008_SDR_20190719_SDR_2K_AVC.mp4	0.0	322.08290696144104	2.508309841156006
81	223.82380509376526	response	1	2		79.0	2.5	/experiments/knapen_aot/videos/R_S_BO_A014_C008_SDR_20190719_SDR_2K_AVC.mp4	0.0	324.4747428894043	
81	223.940279006958	fix_post	2		12.0	79.0	2.5	/experiments/knapen_aot/videos/R_S_BO_A014_C008_SDR_20190719_SDR_2K_AVC.mp4	0.0	324.59121680259705	0.10007214546203613
82	224.04035115242004	fix_pre	0		6.0	80.0	2.5	/experiments/knapen_aot/videos/S_video-9.mp4	0.0	324.6912889480591	0.0499730110168457
82	224.07527709007263	response	0	2		80.0	2.5	/experiments/knapen_aot/videos/S_video-9.mp4	0.0	324.72621488571167	
82	224.0903241634369	movie	1		205.0	80.0	2.5	/experiments/knapen_aot/videos/S_video-9.mp4	0.0	324.7412619590759	2.508307933807373
82	226.59863209724426	fix_post	2		12.0	80.0	2.5	/experiments/knapen_aot/videos/S_video-9.mp4	0.0	327.2495698928833	0.1000208854675293
82	226.6004810333252	response	2	2		80.0	2.5	/experiments/knapen_aot/videos/S_video-9.mp4	0.0	327.25141882896423	
83	226.6986529827118	fix_pre	0		30.0	81.0	2.5	/experiments/knapen_aot/videos/S_yt-xSGPe0KemD4_384.mp4	0.0	327.34959077835083	0.25005412101745605
83	226.94029808044434	response	0	2		81.0	2.5	/experiments/knapen_aot/videos/S_yt-xSGPe0KemD4_384.mp4	0.0	327.5912358760834	
83	226.94870710372925	movie	1		301.0	81.0	2.5	/experiments/knapen_aot/videos/S_yt-xSGPe0KemD4_384.mp4	0.0	327.5996448993683	2.508584976196289
83	229.24871516227722	response	1	2		81.0	2.5	/experiments/knapen_aot/videos/S_yt-xSGPe0KemD4_384.mp4	0.0	329.89965295791626	
83	229.45729207992554	fix_post	2		12.0	81.0	2.5	/experiments/knapen_aot/videos/S_yt-xSGPe0KemD4_384.mp4	0.0	330.1082298755646	0.09987998008728027
83	229.4903690814972	response	2	2		81.0	2.5	/experiments/knapen_aot/videos/S_yt-xSGPe0KemD4_384.mp4	0.0	330.14130687713623	
84	229.55717206001282	fix_pre	0		20.0	82.0	2.5	/experiments/knapen_aot/videos/S_ILSVRC2015_train_00396000.mp4	0.0	330.20810985565186	0.16639995574951172
84	229.71544194221497	response	0	2		82.0	2.5	/experiments/knapen_aot/videos/S_ILSVRC2015_train_00396000.mp4	0.0	330.366379737854	
84	229.72357201576233	movie	1		301.0	82.0	2.5	/experiments/knapen_aot/videos/S_ILSVRC2015_train_00396000.mp4	0.0	330.37450981140137	2.508345127105713
84	232.23191714286804	fix_post	2		12.0	82.0	2.5	/experiments/knapen_aot/videos/S_ILSVRC2015_train_00396000.mp4	0.0	332.8828549385071	0.1000678539276123
85	232.33198499679565	fix_pre	0		8.0	83.0	2.5	blank	1.0	332.9829227924347	0.06652712821960449
85	232.38292813301086	response	0	2		83.0	2.5	blank	1.0	333.0338659286499	
85	232.39851212501526	movie	1		301.0	83.0	2.5	blank	1.0	333.0494499206543	2.508476972579956
85	234.90698909759521	fix_post	2		12.0	83.0	2.5	blank	1.0	335.55792689323425	0.09994983673095703
87	235.00693893432617	stim	0		133.0					335.6578767299652	1.1094632148742676
87	235.14048600196838	response	0	2						335.7914237976074	
87	236.1116361618042	response	0	space						336.76257395744324	
