trial_nr	onset	event_type	phase	response	nr_frames	movie_index	movie_duration	movie_file	blank	onset_abs	duration
0	0.1333470344543457	stim	0		29.0					175.8762810230255	0.24271893501281738
0	0.36684203147888184	response	0	space						176.10977602005005	
1	0.3760659694671631	stim	0		121.0					176.11899995803833	1.0072600841522217
1	1.3833260536193848	stim	1		120.0					177.12626004219055	0.9997339248657227
1	1.8580350875854492	response	1	space						177.60096907615662	
2	2.3830599784851074	fix_pre	0		31.0	0.0	2.5	/experiments/knapen_aot/videos/S_yt-iAQ98zgVlds_97.mp4	0.0	178.12599396705627	0.25815796852111816
2	2.63531494140625	response	0	4		0.0	2.5	/experiments/knapen_aot/videos/S_yt-iAQ98zgVlds_97.mp4	0.0	178.37824892997742	
2	2.6412179470062256	movie	1		297.0	0.0	2.5	/experiments/knapen_aot/videos/S_yt-iAQ98zgVlds_97.mp4	0.0	178.3841519355774	2.5083811283111572
2	2.7691409587860107	response	1	space		0.0	2.5	/experiments/knapen_aot/videos/S_yt-iAQ98zgVlds_97.mp4	0.0	178.51207494735718	
2	5.149599075317383	fix_post	2		12.0	0.0	2.5	/experiments/knapen_aot/videos/S_yt-iAQ98zgVlds_97.mp4	0.0	180.89253306388855	0.09996604919433594
3	5.249565124511719	fix_pre	0		533.0	1.0	2.5	/experiments/knapen_aot/videos/R_S_pexels-mart-production-8435081.mp4	0.0	180.99249911308289	4.441642999649048
3	9.68437910079956	response	0	4		1.0	2.5	/experiments/knapen_aot/videos/R_S_pexels-mart-production-8435081.mp4	0.0	185.42731308937073	
3	9.691208124160767	movie	1		193.0	1.0	2.5	/experiments/knapen_aot/videos/R_S_pexels-mart-production-8435081.mp4	0.0	185.43414211273193	2.5083508491516113
3	12.199558973312378	fix_post	2		12.0	1.0	2.5	/experiments/knapen_aot/videos/R_S_pexels-mart-production-8435081.mp4	0.0	187.94249296188354	0.10000300407409668
4	12.299561977386475	fix_pre	0		108.0	2.0	2.5	/experiments/knapen_aot/videos/S_ILSVRC2015_train_00251005.mp4	0.0	188.04249596595764	0.8999719619750977
4	13.191334962844849	response	0	4		2.0	2.5	/experiments/knapen_aot/videos/S_ILSVRC2015_train_00251005.mp4	0.0	188.93426895141602	
4	13.199533939361572	movie	1		301.0	2.0	2.5	/experiments/knapen_aot/videos/S_ILSVRC2015_train_00251005.mp4	0.0	188.94246792793274	2.508366107940674
4	15.707900047302246	fix_post	2		12.0	2.0	2.5	/experiments/knapen_aot/videos/S_ILSVRC2015_train_00251005.mp4	0.0	191.4508340358734	0.10000205039978027
5	15.807902097702026	fix_pre	0		108.0	3.0	2.5	/experiments/knapen_aot/videos/S_pexels-koolshooters-7327412_1.mp4	0.0	191.5508360862732	0.9010128974914551
5	16.699613094329834	response	0	4		3.0	2.5	/experiments/knapen_aot/videos/S_pexels-koolshooters-7327412_1.mp4	0.0	192.442547082901	
5	16.70891499519348	movie	1		160.0	3.0	2.5	/experiments/knapen_aot/videos/S_pexels-koolshooters-7327412_1.mp4	0.0	192.45184898376465	2.5072948932647705
5	19.216209888458252	fix_post	2		12.0	3.0	2.5	/experiments/knapen_aot/videos/S_pexels-koolshooters-7327412_1.mp4	0.0	194.95914387702942	0.10000109672546387
6	19.316210985183716	fix_pre	0		97.0	4.0	2.5	/experiments/knapen_aot/videos/S_yt-q9kT_c9QjbQ_34.mp4	0.0	195.05914497375488	0.809380054473877
6	20.116326093673706	response	0	4		4.0	2.5	/experiments/knapen_aot/videos/S_yt-q9kT_c9QjbQ_34.mp4	0.0	195.85926008224487	
6	20.125591039657593	movie	1		301.0	4.0	2.5	/experiments/knapen_aot/videos/S_yt-q9kT_c9QjbQ_34.mp4	0.0	195.86852502822876	2.5072779655456543
6	22.632869005203247	fix_post	2		12.0	4.0	2.5	/experiments/knapen_aot/videos/S_yt-q9kT_c9QjbQ_34.mp4	0.0	198.3758029937744	0.10001206398010254
7	22.73288106918335	fix_pre	0		122.0	5.0	2.5	/experiments/knapen_aot/videos/R_S_yt-q9kT_c9QjbQ_34.mp4	0.0	198.47581505775452	1.017683982849121
7	23.74132800102234	response	0	4		5.0	2.5	/experiments/knapen_aot/videos/R_S_yt-q9kT_c9QjbQ_34.mp4	0.0	199.4842619895935	
7	23.75056505203247	movie	1		298.0	5.0	2.5	/experiments/knapen_aot/videos/R_S_yt-q9kT_c9QjbQ_34.mp4	0.0	199.49349904060364	2.507261037826538
7	26.25782608985901	fix_post	2		12.0	5.0	2.5	/experiments/knapen_aot/videos/R_S_yt-q9kT_c9QjbQ_34.mp4	0.0	202.00076007843018	0.09999203681945801
8	26.357818126678467	fix_pre	0		73.0	6.0	2.5	blank	1.0	202.10075211524963	0.608360767364502
8	26.957931995391846	response	0	4		6.0	2.5	blank	1.0	202.700865983963	
8	26.96617889404297	movie	1		301.0	6.0	2.5	blank	1.0	202.70911288261414	2.5083181858062744
8	29.474497079849243	fix_post	2		12.0	6.0	2.5	blank	1.0	205.2174310684204	0.0999460220336914
9	29.574443101882935	fix_pre	0		342.0	7.0	2.5	/experiments/knapen_aot/videos/S_yt-11VGDAOVEag_8.mp4	0.0	205.3173770904541	2.8500068187713623
9	32.41620707511902	response	0	2		7.0	2.5	/experiments/knapen_aot/videos/S_yt-11VGDAOVEag_8.mp4	0.0	208.15914106369019	
9	32.4244499206543	movie	1		301.0	7.0	2.5	/experiments/knapen_aot/videos/S_yt-11VGDAOVEag_8.mp4	0.0	208.16738390922546	2.5083611011505127
9	34.93281102180481	fix_post	2		12.0	7.0	2.5	/experiments/knapen_aot/videos/S_yt-11VGDAOVEag_8.mp4	0.0	210.67574501037598	0.09995388984680176
10	35.03276491165161	fix_pre	0		22.0	8.0	2.5	/experiments/knapen_aot/videos/S_yt-XF0fyyFEgWo_280.mp4	0.0	210.77569890022278	0.18326616287231445
10	35.20790410041809	response	0	2		8.0	2.5	/experiments/knapen_aot/videos/S_yt-XF0fyyFEgWo_280.mp4	0.0	210.95083808898926	
10	35.216031074523926	movie	1		301.0	8.0	2.5	/experiments/knapen_aot/videos/S_yt-XF0fyyFEgWo_280.mp4	0.0	210.9589650630951	2.508344888687134
10	37.72437596321106	fix_post	2		12.0	8.0	2.5	/experiments/knapen_aot/videos/S_yt-XF0fyyFEgWo_280.mp4	0.0	213.46730995178223	0.1000831127166748
11	37.824459075927734	fix_pre	0		107.0	9.0	2.5	/experiments/knapen_aot/videos/R_S_ILSVRC2015_train_00017007.mp4	0.0	213.5673930644989	0.8916089534759521
11	38.70798707008362	response	0	2		9.0	2.5	/experiments/knapen_aot/videos/R_S_ILSVRC2015_train_00017007.mp4	0.0	214.45092105865479	
11	38.71606802940369	movie	1		301.0	9.0	2.5	/experiments/knapen_aot/videos/R_S_ILSVRC2015_train_00017007.mp4	0.0	214.45900201797485	2.50833797454834
11	41.224406003952026	fix_post	2		12.0	9.0	2.5	/experiments/knapen_aot/videos/R_S_ILSVRC2015_train_00017007.mp4	0.0	216.9673399925232	0.10005402565002441
12	41.32446002960205	fix_pre	0		22.0	10.0	2.5	/experiments/knapen_aot/videos/R_S_comp_A050_C004_1027V8_v16_SDR_FINAL_20180706_SDR_2K_AVC.mp4	0.0	217.06739401817322	0.18337392807006836
12	41.492027044296265	response	0	2		10.0	2.5	/experiments/knapen_aot/videos/R_S_comp_A050_C004_1027V8_v16_SDR_FINAL_20180706_SDR_2K_AVC.mp4	0.0	217.23496103286743	
12	41.50783395767212	movie	1		176.0	10.0	2.5	/experiments/knapen_aot/videos/R_S_comp_A050_C004_1027V8_v16_SDR_FINAL_20180706_SDR_2K_AVC.mp4	0.0	217.2507679462433	2.5082850456237793
12	44.0161190032959	fix_post	2		12.0	10.0	2.5	/experiments/knapen_aot/videos/R_S_comp_A050_C004_1027V8_v16_SDR_FINAL_20180706_SDR_2K_AVC.mp4	0.0	219.75905299186707	0.09996294975280762
13	44.116081953048706	fix_pre	0		243.0	11.0	2.5	/experiments/knapen_aot/videos/R_S_yt-KLInd-KrK_w_19.mp4	0.0	219.85901594161987	2.0249929428100586
13	46.13291096687317	response	0	2		11.0	2.5	/experiments/knapen_aot/videos/R_S_yt-KLInd-KrK_w_19.mp4	0.0	221.87584495544434	
13	46.141074895858765	movie	1		301.0	11.0	2.5	/experiments/knapen_aot/videos/R_S_yt-KLInd-KrK_w_19.mp4	0.0	221.88400888442993	2.50828218460083
13	48.649357080459595	fix_post	2		12.0	11.0	2.5	/experiments/knapen_aot/videos/R_S_yt-KLInd-KrK_w_19.mp4	0.0	224.39229106903076	0.10006284713745117
14	48.749419927597046	fix_pre	0		43.0	12.0	2.5	blank	1.0	224.4923539161682	0.35819506645202637
14	49.09951210021973	response	0	2		12.0	2.5	blank	1.0	224.8424460887909	
14	49.10761499404907	movie	1		301.0	12.0	2.5	blank	1.0	224.85054898262024	2.508392095565796
14	51.61600708961487	fix_post	2		12.0	12.0	2.5	blank	1.0	227.35894107818604	0.10007500648498535
15	51.71608209609985	fix_pre	0		39.0	13.0	2.5	/experiments/knapen_aot/videos/S_ILSVRC2015_train_00017007.mp4	0.0	227.45901608467102	0.3258998394012451
15	52.03284311294556	response	0	2		13.0	2.5	/experiments/knapen_aot/videos/S_ILSVRC2015_train_00017007.mp4	0.0	227.77577710151672	
15	52.0419819355011	movie	1		301.0	13.0	2.5	/experiments/knapen_aot/videos/S_ILSVRC2015_train_00017007.mp4	0.0	227.78491592407227	2.5074009895324707
15	54.54938292503357	fix_post	2		12.0	13.0	2.5	/experiments/knapen_aot/videos/S_ILSVRC2015_train_00017007.mp4	0.0	230.29231691360474	0.09999918937683105
16	54.6493821144104	fix_pre	0		40.0	14.0	2.5	/experiments/knapen_aot/videos/S_yt-BrepyEWKrPQ_20.mp4	0.0	230.39231610298157	0.33341383934020996
16	54.967036962509155	response	0	2		14.0	2.5	/experiments/knapen_aot/videos/S_yt-BrepyEWKrPQ_20.mp4	0.0	230.70997095108032	
16	54.98279595375061	movie	1		301.0	14.0	2.5	/experiments/knapen_aot/videos/S_yt-BrepyEWKrPQ_20.mp4	0.0	230.72572994232178	2.508254051208496
16	57.491050004959106	fix_post	2		12.0	14.0	2.5	/experiments/knapen_aot/videos/S_yt-BrepyEWKrPQ_20.mp4	0.0	233.23398399353027	0.09995794296264648
17	57.59100794792175	fix_pre	0		257.0	15.0	2.5	/experiments/knapen_aot/videos/R_S_yt-SkIJvj6KNOo_33.mp4	0.0	233.33394193649292	2.141616106033325
17	59.72447109222412	response	0	2		15.0	2.5	/experiments/knapen_aot/videos/R_S_yt-SkIJvj6KNOo_33.mp4	0.0	235.4674050807953	
17	59.73262405395508	movie	1		301.0	15.0	2.5	/experiments/knapen_aot/videos/R_S_yt-SkIJvj6KNOo_33.mp4	0.0	235.47555804252625	2.508378028869629
17	62.24100208282471	fix_post	2		12.0	15.0	2.5	/experiments/knapen_aot/videos/R_S_yt-SkIJvj6KNOo_33.mp4	0.0	237.98393607139587	0.10001993179321289
18	62.34102201461792	fix_pre	0		29.0	16.0	2.5	/experiments/knapen_aot/videos/S_yt-8fQ9LaF8U10_382.mp4	0.0	238.0839560031891	0.24254894256591797
18	62.56713390350342	response	0	2		16.0	2.5	/experiments/knapen_aot/videos/S_yt-8fQ9LaF8U10_382.mp4	0.0	238.31006789207458	
18	62.58357095718384	movie	1		301.0	16.0	2.5	/experiments/knapen_aot/videos/S_yt-8fQ9LaF8U10_382.mp4	0.0	238.326504945755	2.5138731002807617
18	65.0974440574646	fix_post	2		11.0	16.0	2.5	/experiments/knapen_aot/videos/S_yt-8fQ9LaF8U10_382.mp4	0.0	240.84037804603577	0.09355592727661133
19	65.19099998474121	fix_pre	0		74.0	17.0	2.5	/experiments/knapen_aot/videos/S_yt-BJsMGxfjrZk_59.mp4	0.0	240.93393397331238	0.6167070865631104
19	65.7995240688324	response	0	2		17.0	2.5	/experiments/knapen_aot/videos/S_yt-BJsMGxfjrZk_59.mp4	0.0	241.54245805740356	
19	65.80770707130432	movie	1		301.0	17.0	2.5	/experiments/knapen_aot/videos/S_yt-BJsMGxfjrZk_59.mp4	0.0	241.5506410598755	2.5084259510040283
19	68.31613302230835	fix_post	2		12.0	17.0	2.5	/experiments/knapen_aot/videos/S_yt-BJsMGxfjrZk_59.mp4	0.0	244.05906701087952	0.09984803199768066
20	68.41598105430603	fix_pre	0		21.0	18.0	2.5	/experiments/knapen_aot/videos/S_yt-r7PeFd-hIp0_378.mp4	0.0	244.1589150428772	0.17503786087036133
20	68.57529711723328	response	0	2		18.0	2.5	/experiments/knapen_aot/videos/S_yt-r7PeFd-hIp0_378.mp4	0.0	244.31823110580444	
20	68.59101891517639	movie	1		301.0	18.0	2.5	/experiments/knapen_aot/videos/S_yt-r7PeFd-hIp0_378.mp4	0.0	244.33395290374756	2.508334159851074
20	71.09935307502747	fix_post	2		12.0	18.0	2.5	/experiments/knapen_aot/videos/S_yt-r7PeFd-hIp0_378.mp4	0.0	246.84228706359863	0.09990096092224121
21	71.1992540359497	fix_pre	0		175.0	19.0	2.5	/experiments/knapen_aot/videos/S_yt-IC62JSYpq9w_71.mp4	0.0	246.94218802452087	1.458345890045166
21	72.6495099067688	response	0	2		19.0	2.5	/experiments/knapen_aot/videos/S_yt-IC62JSYpq9w_71.mp4	0.0	248.39244389533997	
21	72.65759992599487	movie	1		301.0	19.0	2.5	/experiments/knapen_aot/videos/S_yt-IC62JSYpq9w_71.mp4	0.0	248.40053391456604	2.5083580017089844
21	75.16595792770386	fix_post	2		12.0	19.0	2.5	/experiments/knapen_aot/videos/S_yt-IC62JSYpq9w_71.mp4	0.0	250.90889191627502	0.09999299049377441
22	75.26595091819763	fix_pre	0		80.0	20.0	2.5	/experiments/knapen_aot/videos/R_S_yt-qYuLW5vSotM_160.mp4	0.0	251.0088849067688	0.6666221618652344
22	75.91696310043335	response	0	2		20.0	2.5	/experiments/knapen_aot/videos/R_S_yt-qYuLW5vSotM_160.mp4	0.0	251.65989708900452	
22	75.93257308006287	movie	1		301.0	20.0	2.5	/experiments/knapen_aot/videos/R_S_yt-qYuLW5vSotM_160.mp4	0.0	251.67550706863403	2.5083818435668945
22	78.44095492362976	fix_post	2		12.0	20.0	2.5	/experiments/knapen_aot/videos/R_S_yt-qYuLW5vSotM_160.mp4	0.0	254.18388891220093	0.09996700286865234
23	78.54092192649841	fix_pre	0		28.0	21.0	2.5	blank	1.0	254.28385591506958	0.2333660125732422
23	78.76604008674622	response	0	2		21.0	2.5	blank	1.0	254.50897407531738	
23	78.77428793907166	movie	1		301.0	21.0	2.5	blank	1.0	254.51722192764282	2.5083460807800293
23	81.28263401985168	fix_post	2		12.0	21.0	2.5	blank	1.0	257.02556800842285	0.10002398490905762
24	81.38265800476074	fix_pre	0		36.0	22.0	2.5	/experiments/knapen_aot/videos/R_S_ILSVRC2015_train_00682009.mp4	0.0	257.1255919933319	0.2999410629272461
24	81.67434692382812	response	0	2		22.0	2.5	/experiments/knapen_aot/videos/R_S_ILSVRC2015_train_00682009.mp4	0.0	257.4172809123993	
24	81.68259906768799	movie	1		301.0	22.0	2.5	/experiments/knapen_aot/videos/R_S_ILSVRC2015_train_00682009.mp4	0.0	257.42553305625916	2.5083160400390625
24	84.19091510772705	fix_post	2		12.0	22.0	2.5	/experiments/knapen_aot/videos/R_S_ILSVRC2015_train_00682009.mp4	0.0	259.9338490962982	0.0999457836151123
25	84.29086089134216	fix_pre	0		46.0	23.0	2.5	/experiments/knapen_aot/videos/S_yt-XBAU3cq0rZs_150.mp4	0.0	260.03379487991333	0.3833591938018799
25	84.6660521030426	response	0	2		23.0	2.5	/experiments/knapen_aot/videos/S_yt-XBAU3cq0rZs_150.mp4	0.0	260.40898609161377	
25	84.67422008514404	movie	1		301.0	23.0	2.5	/experiments/knapen_aot/videos/S_yt-XBAU3cq0rZs_150.mp4	0.0	260.4171540737152	2.5083370208740234
25	87.18255710601807	fix_post	2		12.0	23.0	2.5	/experiments/knapen_aot/videos/S_yt-XBAU3cq0rZs_150.mp4	0.0	262.92549109458923	0.09999990463256836
26	87.28255701065063	fix_pre	0		35.0	24.0	2.5	/experiments/knapen_aot/videos/R_S_flickr-slruok-8006772217_6.mp4	0.0	263.0254909992218	0.29167699813842773
26	87.56602692604065	response	0	2		24.0	2.5	/experiments/knapen_aot/videos/R_S_flickr-slruok-8006772217_6.mp4	0.0	263.3089609146118	
26	87.57423400878906	movie	1		301.0	24.0	2.5	/experiments/knapen_aot/videos/R_S_flickr-slruok-8006772217_6.mp4	0.0	263.31716799736023	2.5082929134368896
26	90.08252692222595	fix_post	2		12.0	24.0	2.5	/experiments/knapen_aot/videos/R_S_flickr-slruok-8006772217_6.mp4	0.0	265.8254609107971	0.10008096694946289
27	90.18260788917542	fix_pre	0		213.0	25.0	2.5	/experiments/knapen_aot/videos/S_ILSVRC2015_train_00408000.mp4	0.0	265.9255418777466	1.7756381034851074
27	91.94186997413635	response	0	2		25.0	2.5	/experiments/knapen_aot/videos/S_ILSVRC2015_train_00408000.mp4	0.0	267.6848039627075	
27	91.95824599266052	movie	1		301.0	25.0	2.5	/experiments/knapen_aot/videos/S_ILSVRC2015_train_00408000.mp4	0.0	267.7011799812317	2.507664918899536
27	94.46591091156006	fix_post	2		12.0	25.0	2.5	/experiments/knapen_aot/videos/S_ILSVRC2015_train_00408000.mp4	0.0	270.2088449001312	0.09999299049377441
28	94.56590390205383	fix_pre	0		177.0	26.0	2.5	/experiments/knapen_aot/videos/R_S_yt-zlbtESb7Fcw_28.mp4	0.0	270.308837890625	1.4756441116333008
28	96.02517604827881	response	0	2		26.0	2.5	/experiments/knapen_aot/videos/R_S_yt-zlbtESb7Fcw_28.mp4	0.0	271.76811003685	
28	96.04154801368713	movie	1		301.0	26.0	2.5	/experiments/knapen_aot/videos/R_S_yt-zlbtESb7Fcw_28.mp4	0.0	271.7844820022583	2.5076520442962646
28	98.5492000579834	fix_post	2		12.0	26.0	2.5	/experiments/knapen_aot/videos/R_S_yt-zlbtESb7Fcw_28.mp4	0.0	274.29213404655457	0.09998703002929688
29	98.6491870880127	fix_pre	0		30.0	27.0	2.5	blank	1.0	274.39212107658386	0.25
29	98.8909969329834	response	0	2		27.0	2.5	blank	1.0	274.63393092155457	
29	98.8991870880127	movie	1		301.0	27.0	2.5	blank	1.0	274.64212107658386	2.5083370208740234
29	101.40752410888672	fix_post	2		12.0	27.0	2.5	blank	1.0	277.1504580974579	0.09995293617248535
30	101.5074770450592	fix_pre	0		84.0	28.0	2.5	/experiments/knapen_aot/videos/R_S_yt-7e6Z9QQieAk_183.mp4	0.0	277.25041103363037	0.700659990310669
30	102.199294090271	response	0	2		28.0	2.5	/experiments/knapen_aot/videos/R_S_yt-7e6Z9QQieAk_183.mp4	0.0	277.94222807884216	
30	102.20813703536987	movie	1		301.0	28.0	2.5	/experiments/knapen_aot/videos/R_S_yt-7e6Z9QQieAk_183.mp4	0.0	277.95107102394104	2.5076138973236084
30	104.71575093269348	fix_post	2		12.0	28.0	2.5	/experiments/knapen_aot/videos/R_S_yt-7e6Z9QQieAk_183.mp4	0.0	280.45868492126465	0.10005903244018555
31	104.81580996513367	fix_pre	0		29.0	29.0	2.5	/experiments/knapen_aot/videos/R_S_yt-8fQ9LaF8U10_382.mp4	0.0	280.55874395370483	0.2416400909423828
31	105.04931807518005	response	0	2		29.0	2.5	/experiments/knapen_aot/videos/R_S_yt-8fQ9LaF8U10_382.mp4	0.0	280.7922520637512	
31	105.05745005607605	movie	1		301.0	29.0	2.5	/experiments/knapen_aot/videos/R_S_yt-8fQ9LaF8U10_382.mp4	0.0	280.8003840446472	2.5083839893341064
31	107.56583404541016	fix_post	2		12.0	29.0	2.5	/experiments/knapen_aot/videos/R_S_yt-8fQ9LaF8U10_382.mp4	0.0	283.3087680339813	0.10057592391967773
32	107.66640996932983	fix_pre	0		378.0	30.0	2.5	/experiments/knapen_aot/videos/S_yt-eF5J5Kjt6oY_23.mp4	0.0	283.409343957901	3.149348020553589
32	110.80760407447815	response	0	2		30.0	2.5	/experiments/knapen_aot/videos/S_yt-eF5J5Kjt6oY_23.mp4	0.0	286.5505380630493	
32	110.81575798988342	movie	1		301.0	30.0	2.5	/experiments/knapen_aot/videos/S_yt-eF5J5Kjt6oY_23.mp4	0.0	286.5586919784546	2.5083529949188232
32	113.32411098480225	fix_post	2		12.0	30.0	2.5	/experiments/knapen_aot/videos/S_yt-eF5J5Kjt6oY_23.mp4	0.0	289.0670449733734	0.1000509262084961
33	113.42416191101074	fix_pre	0		37.0	31.0	2.5	/experiments/knapen_aot/videos/S_yt--cAfxH1WnPo_3.mp4	0.0	289.1670958995819	0.30829405784606934
33	113.71680808067322	response	0	2		31.0	2.5	/experiments/knapen_aot/videos/S_yt--cAfxH1WnPo_3.mp4	0.0	289.4597420692444	
33	113.73245596885681	movie	1		300.0	31.0	2.5	/experiments/knapen_aot/videos/S_yt--cAfxH1WnPo_3.mp4	0.0	289.475389957428	2.508310079574585
33	116.2407660484314	fix_post	2		12.0	31.0	2.5	/experiments/knapen_aot/videos/S_yt--cAfxH1WnPo_3.mp4	0.0	291.98370003700256	0.10002398490905762
34	116.34079003334045	fix_pre	0		201.0	32.0	2.5	/experiments/knapen_aot/videos/S_yt-r7PeFd-hIp0_378.mp4	0.0	292.0837240219116	1.6748709678649902
34	118.00760102272034	response	0	2		32.0	2.5	/experiments/knapen_aot/videos/S_yt-r7PeFd-hIp0_378.mp4	0.0	293.7505350112915	
34	118.01566100120544	movie	1		301.0	32.0	2.5	/experiments/knapen_aot/videos/S_yt-r7PeFd-hIp0_378.mp4	0.0	293.7585949897766	2.508342981338501
34	120.52400398254395	fix_post	2		12.0	32.0	2.5	/experiments/knapen_aot/videos/S_yt-r7PeFd-hIp0_378.mp4	0.0	296.2669379711151	0.10010313987731934
35	120.62410712242126	fix_pre	0		32.0	33.0	2.5	/experiments/knapen_aot/videos/S_yt-tQ-hgwTcMqU_43.mp4	0.0	296.36704111099243	0.2665588855743408
35	120.88254499435425	response	0	2		33.0	2.5	/experiments/knapen_aot/videos/S_yt-tQ-hgwTcMqU_43.mp4	0.0	296.6254789829254	
35	120.8906660079956	movie	1		301.0	33.0	2.5	/experiments/knapen_aot/videos/S_yt-tQ-hgwTcMqU_43.mp4	0.0	296.6335999965668	2.508402109146118
35	123.39906811714172	fix_post	2		12.0	33.0	2.5	/experiments/knapen_aot/videos/S_yt-tQ-hgwTcMqU_43.mp4	0.0	299.1420021057129	0.1000509262084961
36	123.49911904335022	fix_pre	0		26.0	34.0	2.5	/experiments/knapen_aot/videos/R_S_pexels-koolshooters-7327412_1.mp4	0.0	299.2420530319214	0.2166609764099121
36	123.70751595497131	response	0	2		34.0	2.5	/experiments/knapen_aot/videos/R_S_pexels-koolshooters-7327412_1.mp4	0.0	299.4504499435425	
36	123.71578001976013	movie	1		162.0	34.0	2.5	/experiments/knapen_aot/videos/R_S_pexels-koolshooters-7327412_1.mp4	0.0	299.4587140083313	2.5082879066467285
36	126.22406792640686	fix_post	2		12.0	34.0	2.5	/experiments/knapen_aot/videos/R_S_pexels-koolshooters-7327412_1.mp4	0.0	301.967001914978	0.09999299049377441
37	126.32406091690063	fix_pre	0		203.0	35.0	2.5	blank	1.0	302.0669949054718	1.6916639804840088
37	127.99995493888855	response	0	2		35.0	2.5	blank	1.0	303.7428889274597	
37	128.01572489738464	movie	1		301.0	35.0	2.5	blank	1.0	303.7586588859558	2.5082530975341797
37	130.52397799491882	fix_post	2		12.0	35.0	2.5	blank	1.0	306.26691198349	0.10007095336914062
38	130.62404894828796	fix_pre	0		41.0	36.0	2.5	/experiments/knapen_aot/videos/S_yt-xqHrTtvFFIs_3.mp4	0.0	306.36698293685913	0.3415989875793457
38	130.9574739933014	response	0	2		36.0	2.5	/experiments/knapen_aot/videos/S_yt-xqHrTtvFFIs_3.mp4	0.0	306.70040798187256	
38	130.9656479358673	movie	1		301.0	36.0	2.5	/experiments/knapen_aot/videos/S_yt-xqHrTtvFFIs_3.mp4	0.0	306.7085819244385	2.5083889961242676
38	133.47403693199158	fix_post	2		12.0	36.0	2.5	/experiments/knapen_aot/videos/S_yt-xqHrTtvFFIs_3.mp4	0.0	309.21697092056274	0.10002017021179199
39	133.57405710220337	fix_pre	0		69.0	37.0	2.5	/experiments/knapen_aot/videos/S_yt-QOnORDmVMyU_10.mp4	0.0	309.31699109077454	0.5749478340148926
39	134.14080095291138	response	0	2		37.0	2.5	/experiments/knapen_aot/videos/S_yt-QOnORDmVMyU_10.mp4	0.0	309.88373494148254	
39	134.14900493621826	movie	1		301.0	37.0	2.5	/experiments/knapen_aot/videos/S_yt-QOnORDmVMyU_10.mp4	0.0	309.89193892478943	2.5083980560302734
39	136.65740299224854	fix_post	2		12.0	37.0	2.5	/experiments/knapen_aot/videos/S_yt-QOnORDmVMyU_10.mp4	0.0	312.4003369808197	0.09991097450256348
40	136.7573139667511	fix_pre	0		57.0	38.0	2.5	/experiments/knapen_aot/videos/R_S_yt-ET5YTz1laWo_108.mp4	0.0	312.50024795532227	0.4750070571899414
40	137.22413897514343	response	0	2		38.0	2.5	/experiments/knapen_aot/videos/R_S_yt-ET5YTz1laWo_108.mp4	0.0	312.9670729637146	
40	137.23232102394104	movie	1		301.0	38.0	2.5	/experiments/knapen_aot/videos/R_S_yt-ET5YTz1laWo_108.mp4	0.0	312.9752550125122	2.508302927017212
40	139.74062395095825	fix_post	2		12.0	38.0	2.5	/experiments/knapen_aot/videos/R_S_yt-ET5YTz1laWo_108.mp4	0.0	315.4835579395294	0.10007596015930176
41	139.84069991111755	fix_pre	0		42.0	39.0	2.5	/experiments/knapen_aot/videos/R_S_yt-q9kT_c9QjbQ_34.mp4	0.0	315.5836338996887	0.3499441146850586
41	140.182452917099	response	0	2		39.0	2.5	/experiments/knapen_aot/videos/R_S_yt-q9kT_c9QjbQ_34.mp4	0.0	315.92538690567017	
41	140.1906440258026	movie	1		300.0	39.0	2.5	/experiments/knapen_aot/videos/R_S_yt-q9kT_c9QjbQ_34.mp4	0.0	315.9335780143738	2.5083398818969727
41	142.69898390769958	fix_post	2		12.0	39.0	2.5	/experiments/knapen_aot/videos/R_S_yt-q9kT_c9QjbQ_34.mp4	0.0	318.44191789627075	0.10002803802490234
42	142.7990119457245	fix_pre	0		20.0	40.0	2.5	blank	1.0	318.54194593429565	0.16658401489257812
42	142.95744109153748	response	0	2		40.0	2.5	blank	1.0	318.70037508010864	
42	142.96559596061707	movie	1		301.0	40.0	2.5	blank	1.0	318.70852994918823	2.508410930633545
42	145.4740068912506	fix_post	2		12.0	40.0	2.5	blank	1.0	321.2169408798218	0.09997105598449707
43	145.5739779472351	fix_pre	0		49.0	41.0	2.5	/experiments/knapen_aot/videos/S_yt-J2PiBa1MXI0_210.mp4	0.0	321.3169119358063	0.40831708908081055
43	145.96654796600342	response	0	2		41.0	2.5	/experiments/knapen_aot/videos/S_yt-J2PiBa1MXI0_210.mp4	0.0	321.7094819545746	
43	145.98229503631592	movie	1		301.0	41.0	2.5	/experiments/knapen_aot/videos/S_yt-J2PiBa1MXI0_210.mp4	0.0	321.7252290248871	2.5083189010620117
43	148.49061393737793	fix_post	2		12.0	41.0	2.5	/experiments/knapen_aot/videos/S_yt-J2PiBa1MXI0_210.mp4	0.0	324.2335479259491	0.10003018379211426
44	148.59064412117004	fix_pre	0		54.0	42.0	2.5	/experiments/knapen_aot/videos/R_S_yt-e9AZJKNv9ow_359.mp4	0.0	324.3335781097412	0.4503519535064697
44	149.0324420928955	response	0	2		42.0	2.5	/experiments/knapen_aot/videos/R_S_yt-e9AZJKNv9ow_359.mp4	0.0	324.7753760814667	
44	149.0409960746765	movie	1		299.0	42.0	2.5	/experiments/knapen_aot/videos/R_S_yt-e9AZJKNv9ow_359.mp4	0.0	324.7839300632477	2.5080158710479736
44	151.5490119457245	fix_post	2		12.0	42.0	2.5	/experiments/knapen_aot/videos/R_S_yt-e9AZJKNv9ow_359.mp4	0.0	327.29194593429565	0.09999299049377441
45	151.64900493621826	fix_pre	0		166.0	43.0	2.5	/experiments/knapen_aot/videos/S_yt-7Fyu2vr7zbA_31.mp4	0.0	327.39193892478943	1.3833019733428955
45	153.0241219997406	response	0	2		43.0	2.5	/experiments/knapen_aot/videos/S_yt-7Fyu2vr7zbA_31.mp4	0.0	328.76705598831177	
45	153.03230690956116	movie	1		301.0	43.0	2.5	/experiments/knapen_aot/videos/S_yt-7Fyu2vr7zbA_31.mp4	0.0	328.7752408981323	2.5083260536193848
45	155.54063296318054	fix_post	2		12.0	43.0	2.5	/experiments/knapen_aot/videos/S_yt-7Fyu2vr7zbA_31.mp4	0.0	331.2835669517517	0.10000014305114746
46	155.6406331062317	fix_pre	0		36.0	44.0	2.5	/experiments/knapen_aot/videos/S_ILSVRC2015_train_00185002.mp4	0.0	331.38356709480286	0.29990100860595703
46	155.93232893943787	response	0	2		44.0	2.5	/experiments/knapen_aot/videos/S_ILSVRC2015_train_00185002.mp4	0.0	331.67526292800903	
46	155.94053411483765	movie	1		299.0	44.0	2.5	/experiments/knapen_aot/videos/S_ILSVRC2015_train_00185002.mp4	0.0	331.6834681034088	2.508328914642334
46	158.44886302947998	fix_post	2		12.0	44.0	2.5	/experiments/knapen_aot/videos/S_ILSVRC2015_train_00185002.mp4	0.0	334.19179701805115	0.10002398490905762
47	158.54888701438904	fix_pre	0		38.0	45.0	2.5	/experiments/knapen_aot/videos/R_S_ILSVRC2015_train_00457000.mp4	0.0	334.2918210029602	0.31673288345336914
47	158.8573489189148	response	0	2		45.0	2.5	/experiments/knapen_aot/videos/R_S_ILSVRC2015_train_00457000.mp4	0.0	334.60028290748596	
47	158.8656198978424	movie	1		301.0	45.0	2.5	/experiments/knapen_aot/videos/R_S_ILSVRC2015_train_00457000.mp4	0.0	334.6085538864136	2.5082931518554688
47	161.37391304969788	fix_post	2		12.0	45.0	2.5	/experiments/knapen_aot/videos/R_S_ILSVRC2015_train_00457000.mp4	0.0	337.11684703826904	0.09998607635498047
48	161.47389912605286	fix_pre	0		39.0	46.0	2.5	/experiments/knapen_aot/videos/S_yt-e9AZJKNv9ow_359.mp4	0.0	337.216833114624	0.3249638080596924
48	161.7907350063324	response	0	2		46.0	2.5	/experiments/knapen_aot/videos/S_yt-e9AZJKNv9ow_359.mp4	0.0	337.53366899490356	
48	161.79886293411255	movie	1		301.0	46.0	2.5	/experiments/knapen_aot/videos/S_yt-e9AZJKNv9ow_359.mp4	0.0	337.5417969226837	2.508270025253296
48	164.30713295936584	fix_post	2		12.0	46.0	2.5	/experiments/knapen_aot/videos/S_yt-e9AZJKNv9ow_359.mp4	0.0	340.050066947937	0.1000831127166748
49	164.40721607208252	fix_pre	0		42.0	47.0	2.5	/experiments/knapen_aot/videos/R_S_yt-BJsMGxfjrZk_59.mp4	0.0	340.1501500606537	0.3499879837036133
49	164.74148297309875	response	0	2		47.0	2.5	/experiments/knapen_aot/videos/R_S_yt-BJsMGxfjrZk_59.mp4	0.0	340.4844169616699	
49	164.75720405578613	movie	1		301.0	47.0	2.5	/experiments/knapen_aot/videos/R_S_yt-BJsMGxfjrZk_59.mp4	0.0	340.5001380443573	2.5083940029144287
49	167.26559805870056	fix_post	2		12.0	47.0	2.5	/experiments/knapen_aot/videos/R_S_yt-BJsMGxfjrZk_59.mp4	0.0	343.00853204727173	0.0999288558959961
50	167.36552691459656	fix_pre	0		28.0	48.0	2.5	/experiments/knapen_aot/videos/R_S_yt-2IN85w8ptmM_51.mp4	0.0	343.1084609031677	0.2333221435546875
50	167.59070491790771	response	0	2		48.0	2.5	/experiments/knapen_aot/videos/R_S_yt-2IN85w8ptmM_51.mp4	0.0	343.3336389064789	
50	167.59884905815125	movie	1		299.0	48.0	2.5	/experiments/knapen_aot/videos/R_S_yt-2IN85w8ptmM_51.mp4	0.0	343.3417830467224	2.508307933807373
50	170.10715699195862	fix_post	2		12.0	48.0	2.5	/experiments/knapen_aot/videos/R_S_yt-2IN85w8ptmM_51.mp4	0.0	345.8500909805298	0.10034799575805664
51	170.20750498771667	fix_pre	0		57.0	49.0	2.5	blank	1.0	345.95043897628784	0.4745979309082031
51	170.67402911186218	response	0	2		49.0	2.5	blank	1.0	346.41696310043335	
51	170.68210291862488	movie	1		301.0	49.0	2.5	blank	1.0	346.42503690719604	2.5083680152893066
51	173.19047093391418	fix_post	2		12.0	49.0	2.5	blank	1.0	348.93340492248535	0.10008096694946289
52	173.29055190086365	fix_pre	0		140.0	50.0	2.5	/experiments/knapen_aot/videos/R_S_yt-RVoC19C420Y_27.mp4	0.0	349.0334858894348	1.1668992042541504
52	174.4491000175476	response	0	2		50.0	2.5	/experiments/knapen_aot/videos/R_S_yt-RVoC19C420Y_27.mp4	0.0	350.1920340061188	
52	174.4574511051178	movie	1		301.0	50.0	2.5	/experiments/knapen_aot/videos/R_S_yt-RVoC19C420Y_27.mp4	0.0	350.20038509368896	2.5080859661102295
52	176.96553707122803	fix_post	2		12.0	50.0	2.5	/experiments/knapen_aot/videos/R_S_yt-RVoC19C420Y_27.mp4	0.0	352.7084710597992	0.1000068187713623
53	177.0655438899994	fix_pre	0		142.0	51.0	2.5	/experiments/knapen_aot/videos/R_S_b8-2.mp4	0.0	352.80847787857056	1.1835711002349854
53	178.24078392982483	response	0	2		51.0	2.5	/experiments/knapen_aot/videos/R_S_b8-2.mp4	0.0	353.983717918396	
53	178.24911499023438	movie	1		171.0	51.0	2.5	/experiments/knapen_aot/videos/R_S_b8-2.mp4	0.0	353.99204897880554	2.5080630779266357
53	180.757178068161	fix_post	2		12.0	51.0	2.5	/experiments/knapen_aot/videos/R_S_b8-2.mp4	0.0	356.5001120567322	0.10002303123474121
54	180.85720109939575	fix_pre	0		18.0	52.0	2.5	/experiments/knapen_aot/videos/R_S_yt-roThCERxVCs_133.mp4	0.0	356.6001350879669	0.15001583099365234
54	180.99904990196228	response	0	2		52.0	2.5	/experiments/knapen_aot/videos/R_S_yt-roThCERxVCs_133.mp4	0.0	356.74198389053345	
54	181.0072169303894	movie	1		301.0	52.0	2.5	/experiments/knapen_aot/videos/R_S_yt-roThCERxVCs_133.mp4	0.0	356.75015091896057	2.508324146270752
54	183.51554107666016	fix_post	2		12.0	52.0	2.5	/experiments/knapen_aot/videos/R_S_yt-roThCERxVCs_133.mp4	0.0	359.2584750652313	0.09993195533752441
55	183.61547303199768	fix_pre	0		32.0	53.0	2.5	/experiments/knapen_aot/videos/S_ILSVRC2015_train_00415007.mp4	0.0	359.35840702056885	0.26670289039611816
55	183.87396097183228	response	0	2		53.0	2.5	/experiments/knapen_aot/videos/S_ILSVRC2015_train_00415007.mp4	0.0	359.61689496040344	
55	183.8821759223938	movie	1		301.0	53.0	2.5	/experiments/knapen_aot/videos/S_ILSVRC2015_train_00415007.mp4	0.0	359.62510991096497	2.5082969665527344
55	186.39047288894653	fix_post	2		12.0	53.0	2.5	/experiments/knapen_aot/videos/S_ILSVRC2015_train_00415007.mp4	0.0	362.1334068775177	0.09997010231018066
56	186.4904429912567	fix_pre	0		32.0	54.0	2.5	blank	1.0	362.2333769798279	0.26663994789123535
56	186.74892711639404	response	0	2		54.0	2.5	blank	1.0	362.4918611049652	
56	186.75708293914795	movie	1		301.0	54.0	2.5	blank	1.0	362.5000169277191	2.508385181427002
56	189.26546812057495	fix_post	2		12.0	54.0	2.5	blank	1.0	365.0084021091461	0.10174298286437988
57	189.36721110343933	fix_pre	0		35.0	55.0	2.5	/experiments/knapen_aot/videos/S_yt-452RKqKIeRU_16.mp4	0.0	365.1101450920105	0.28987693786621094
57	189.64151906967163	response	0	2		55.0	2.5	/experiments/knapen_aot/videos/S_yt-452RKqKIeRU_16.mp4	0.0	365.3844530582428	
57	189.65708804130554	movie	1		301.0	55.0	2.5	/experiments/knapen_aot/videos/S_yt-452RKqKIeRU_16.mp4	0.0	365.4000220298767	2.5085630416870117
57	192.16565108299255	fix_post	2		12.0	55.0	2.5	/experiments/knapen_aot/videos/S_yt-452RKqKIeRU_16.mp4	0.0	367.9085850715637	0.09975600242614746
58	192.2654070854187	fix_pre	0		39.0	56.0	2.5	/experiments/knapen_aot/videos/S_ILSVRC2015_train_00682009.mp4	0.0	368.00834107398987	0.32500386238098145
58	192.58223700523376	response	0	2		56.0	2.5	/experiments/knapen_aot/videos/S_ILSVRC2015_train_00682009.mp4	0.0	368.32517099380493	
58	192.59041094779968	movie	1		301.0	56.0	2.5	/experiments/knapen_aot/videos/S_ILSVRC2015_train_00682009.mp4	0.0	368.33334493637085	2.5083420276641846
58	195.09875297546387	fix_post	2		12.0	56.0	2.5	/experiments/knapen_aot/videos/S_ILSVRC2015_train_00682009.mp4	0.0	370.84168696403503	0.10001897811889648
59	195.19877195358276	fix_pre	0		17.0	57.0	2.5	/experiments/knapen_aot/videos/R_S_yt-2l6VKd94eAI_151.mp4	0.0	370.94170594215393	0.14156198501586914
59	195.33223795890808	response	0	2		57.0	2.5	/experiments/knapen_aot/videos/R_S_yt-2l6VKd94eAI_151.mp4	0.0	371.07517194747925	
59	195.34033393859863	movie	1		301.0	57.0	2.5	/experiments/knapen_aot/videos/R_S_yt-2l6VKd94eAI_151.mp4	0.0	371.0832679271698	2.5084071159362793
59	197.8487410545349	fix_post	2		12.0	57.0	2.5	/experiments/knapen_aot/videos/R_S_yt-2l6VKd94eAI_151.mp4	0.0	373.5916750431061	0.09999203681945801
60	197.94873309135437	fix_pre	0		18.0	58.0	2.5	/experiments/knapen_aot/videos/R_S_yt--v_iMUMMX6g_39.mp4	0.0	373.69166707992554	0.14999985694885254
60	198.09050297737122	response	0	2		58.0	2.5	/experiments/knapen_aot/videos/R_S_yt--v_iMUMMX6g_39.mp4	0.0	373.8334369659424	
60	198.09873294830322	movie	1		301.0	58.0	2.5	/experiments/knapen_aot/videos/R_S_yt--v_iMUMMX6g_39.mp4	0.0	373.8416669368744	2.5083441734313965
60	200.60707712173462	fix_post	2		12.0	58.0	2.5	/experiments/knapen_aot/videos/R_S_yt--v_iMUMMX6g_39.mp4	0.0	376.3500111103058	0.1000828742980957
61	200.70715999603271	fix_pre	0		21.0	59.0	2.5	/experiments/knapen_aot/videos/R_S_OdxWh1oU8e8_1.mp4	0.0	376.4500939846039	0.17490100860595703
61	200.87383699417114	response	0	2		59.0	2.5	/experiments/knapen_aot/videos/R_S_OdxWh1oU8e8_1.mp4	0.0	376.6167709827423	
61	200.88206100463867	movie	1		301.0	59.0	2.5	/experiments/knapen_aot/videos/R_S_OdxWh1oU8e8_1.mp4	0.0	376.62499499320984	2.508392095565796
61	203.39045310020447	fix_post	2		12.0	59.0	2.5	/experiments/knapen_aot/videos/R_S_OdxWh1oU8e8_1.mp4	0.0	379.13338708877563	0.10004997253417969
62	203.49050307273865	fix_pre	0		22.0	60.0	2.5	/experiments/knapen_aot/videos/R_S_bing-www_dailymotion_com_video_x64hzm7_8.mp4	0.0	379.2334370613098	0.1832578182220459
62	203.66553497314453	response	0	2		60.0	2.5	/experiments/knapen_aot/videos/R_S_bing-www_dailymotion_com_video_x64hzm7_8.mp4	0.0	379.4084689617157	
62	203.6737608909607	movie	1		167.0	60.0	2.5	/experiments/knapen_aot/videos/R_S_bing-www_dailymotion_com_video_x64hzm7_8.mp4	0.0	379.41669487953186	2.5082991123199463
62	206.18206000328064	fix_post	2		12.0	60.0	2.5	/experiments/knapen_aot/videos/R_S_bing-www_dailymotion_com_video_x64hzm7_8.mp4	0.0	381.9249939918518	0.09988808631896973
63	206.2819480895996	fix_pre	0		225.0	61.0	2.5	blank	1.0	382.0248820781708	1.8750548362731934
63	208.14135193824768	response	0	2		61.0	2.5	blank	1.0	383.88428592681885	
63	208.1570029258728	movie	1		301.0	61.0	2.5	blank	1.0	383.89993691444397	2.5084500312805176
63	210.66545295715332	fix_post	2		12.0	61.0	2.5	blank	1.0	386.4083869457245	0.09992599487304688
64	210.76537895202637	fix_pre	0		428.0	62.0	2.5	/experiments/knapen_aot/videos/R_S_yt-vjed5qyKqZw_1.mp4	0.0	386.50831294059753	3.5666630268096924
64	214.3237760066986	response	0	2		62.0	2.5	/experiments/knapen_aot/videos/R_S_yt-vjed5qyKqZw_1.mp4	0.0	390.0667099952698	
64	214.33204197883606	movie	1		300.0	62.0	2.5	/experiments/knapen_aot/videos/R_S_yt-vjed5qyKqZw_1.mp4	0.0	390.0749759674072	2.508207082748413
64	215.49885606765747	response	1	2		62.0	2.5	/experiments/knapen_aot/videos/R_S_yt-vjed5qyKqZw_1.mp4	0.0	391.24179005622864	
64	215.86002492904663	response	1	2		62.0	2.5	/experiments/knapen_aot/videos/R_S_yt-vjed5qyKqZw_1.mp4	0.0	391.6029589176178	
64	215.96546006202698	response	1	2		62.0	2.5	/experiments/knapen_aot/videos/R_S_yt-vjed5qyKqZw_1.mp4	0.0	391.70839405059814	
64	216.84024906158447	fix_post	2		12.0	62.0	2.5	/experiments/knapen_aot/videos/R_S_yt-vjed5qyKqZw_1.mp4	0.0	392.58318305015564	0.1000359058380127
65	216.94028496742249	fix_pre	0		33.0	63.0	2.5	/experiments/knapen_aot/videos/R_S_yt-bQRBtP9zkms_111.mp4	0.0	392.68321895599365	0.275007963180542
65	217.20711398124695	response	0	2		63.0	2.5	/experiments/knapen_aot/videos/R_S_yt-bQRBtP9zkms_111.mp4	0.0	392.9500479698181	
65	217.21529293060303	movie	1		301.0	63.0	2.5	/experiments/knapen_aot/videos/R_S_yt-bQRBtP9zkms_111.mp4	0.0	392.9582269191742	2.5083110332489014
65	219.72360396385193	fix_post	2		12.0	63.0	2.5	/experiments/knapen_aot/videos/R_S_yt-bQRBtP9zkms_111.mp4	0.0	395.4665379524231	0.10014009475708008
66	219.823744058609	fix_pre	0		11.0	64.0	2.5	/experiments/knapen_aot/videos/S_yt-ET5YTz1laWo_108.mp4	0.0	395.5666780471802	0.09157896041870117
66	219.89957094192505	response	0	2		64.0	2.5	/experiments/knapen_aot/videos/S_yt-ET5YTz1laWo_108.mp4	0.0	395.6425049304962	
66	219.9153230190277	movie	1		301.0	64.0	2.5	/experiments/knapen_aot/videos/S_yt-ET5YTz1laWo_108.mp4	0.0	395.6582570075989	2.5083680152893066
66	222.42369103431702	fix_post	2		12.0	64.0	2.5	/experiments/knapen_aot/videos/S_yt-ET5YTz1laWo_108.mp4	0.0	398.1666250228882	0.09987187385559082
67	222.5235629081726	fix_pre	0		12.0	65.0	2.5	/experiments/knapen_aot/videos/S_ILSVRC2015_train_00457000.mp4	0.0	398.2664968967438	0.10008811950683594
67	222.6154010295868	response	0	2		65.0	2.5	/experiments/knapen_aot/videos/S_ILSVRC2015_train_00457000.mp4	0.0	398.35833501815796	
67	222.62365102767944	movie	1		301.0	65.0	2.5	/experiments/knapen_aot/videos/S_ILSVRC2015_train_00457000.mp4	0.0	398.3665850162506	2.508344888687134
67	225.13199591636658	fix_post	2		12.0	65.0	2.5	/experiments/knapen_aot/videos/S_ILSVRC2015_train_00457000.mp4	0.0	400.87492990493774	0.09997701644897461
68	225.23197293281555	fix_pre	0		35.0	66.0	2.5	/experiments/knapen_aot/videos/S_yt-uX7qYKQm_pg_277.mp4	0.0	400.9749069213867	0.29164600372314453
68	225.51546812057495	response	0	2		66.0	2.5	/experiments/knapen_aot/videos/S_yt-uX7qYKQm_pg_277.mp4	0.0	401.2584021091461	
68	225.5236189365387	movie	1		301.0	66.0	2.5	/experiments/knapen_aot/videos/S_yt-uX7qYKQm_pg_277.mp4	0.0	401.26655292510986	2.508380174636841
68	228.03199911117554	fix_post	2		12.0	66.0	2.5	/experiments/knapen_aot/videos/S_yt-uX7qYKQm_pg_277.mp4	0.0	403.7749330997467	0.09997081756591797
69	228.13196992874146	fix_pre	0		71.0	67.0	2.5	/experiments/knapen_aot/videos/S_9smWynsk6sI_158.mp4	0.0	403.8749039173126	0.5916919708251953
69	228.71550607681274	response	0	2		67.0	2.5	/experiments/knapen_aot/videos/S_9smWynsk6sI_158.mp4	0.0	404.4584400653839	
69	228.72366189956665	movie	1		301.0	67.0	2.5	/experiments/knapen_aot/videos/S_9smWynsk6sI_158.mp4	0.0	404.4665958881378	2.5083580017089844
69	231.23201990127563	fix_post	2		12.0	67.0	2.5	/experiments/knapen_aot/videos/S_9smWynsk6sI_158.mp4	0.0	406.9749538898468	0.09993505477905273
70	231.3319549560547	fix_pre	0		41.0	68.0	2.5	/experiments/knapen_aot/videos/S_ILSVRC2015_train_00743002.mp4	0.0	407.07488894462585	0.34163808822631836
70	231.66535592079163	response	0	2		68.0	2.5	/experiments/knapen_aot/videos/S_ILSVRC2015_train_00743002.mp4	0.0	407.4082899093628	
70	231.673593044281	movie	1		301.0	68.0	2.5	/experiments/knapen_aot/videos/S_ILSVRC2015_train_00743002.mp4	0.0	407.4165270328522	2.5083649158477783
70	234.18195796012878	fix_post	2		11.0	68.0	2.5	/experiments/knapen_aot/videos/S_ILSVRC2015_train_00743002.mp4	0.0	409.92489194869995	0.0999910831451416
71	234.28194904327393	fix_pre	0		19.0	69.0	2.5	/experiments/knapen_aot/videos/R_S_ILSVRC2015_train_00743002.mp4	0.0	410.0248830318451	0.15837502479553223
71	234.42451810836792	response	0	2		69.0	2.5	/experiments/knapen_aot/videos/R_S_ILSVRC2015_train_00743002.mp4	0.0	410.1674520969391	
71	234.44032406806946	movie	1		301.0	69.0	2.5	/experiments/knapen_aot/videos/R_S_ILSVRC2015_train_00743002.mp4	0.0	410.1832580566406	2.5082719326019287
71	236.9485960006714	fix_post	2		12.0	69.0	2.5	/experiments/knapen_aot/videos/R_S_ILSVRC2015_train_00743002.mp4	0.0	412.69152998924255	0.09993696212768555
72	237.04853296279907	fix_pre	0		18.0	70.0	2.5	blank	1.0	412.79146695137024	0.15000295639038086
72	237.19038701057434	response	0	2		70.0	2.5	blank	1.0	412.9333209991455	
72	237.19853591918945	movie	1		301.0	70.0	2.5	blank	1.0	412.9414699077606	2.508388042449951
72	239.7069239616394	fix_post	2		12.0	70.0	2.5	blank	1.0	415.44985795021057	0.09996414184570312
73	239.8068881034851	fix_pre	0		40.0	71.0	2.5	/experiments/knapen_aot/videos/R_S_yt-2OoHcgS8sss_7.mp4	0.0	415.5498220920563	0.3333590030670166
73	240.1319990158081	response	0	2		71.0	2.5	/experiments/knapen_aot/videos/R_S_yt-2OoHcgS8sss_7.mp4	0.0	415.8749330043793	
73	240.14024710655212	movie	1		301.0	71.0	2.5	/experiments/knapen_aot/videos/R_S_yt-2OoHcgS8sss_7.mp4	0.0	415.8831810951233	2.508298873901367
73	242.6485459804535	fix_post	2		12.0	71.0	2.5	/experiments/knapen_aot/videos/R_S_yt-2OoHcgS8sss_7.mp4	0.0	418.39147996902466	0.10003495216369629
74	242.7485809326172	fix_pre	0		21.0	72.0	2.5	/experiments/knapen_aot/videos/S_production_ID_5146014.mp4	0.0	418.49151492118835	0.17493009567260742
74	242.91537594795227	response	0	2		72.0	2.5	/experiments/knapen_aot/videos/S_production_ID_5146014.mp4	0.0	418.65830993652344	
74	242.9235110282898	movie	1		166.0	72.0	2.5	/experiments/knapen_aot/videos/S_production_ID_5146014.mp4	0.0	418.66644501686096	2.5084218978881836
74	245.43193292617798	fix_post	2		12.0	72.0	2.5	/experiments/knapen_aot/videos/S_production_ID_5146014.mp4	0.0	421.17486691474915	0.0999150276184082
75	245.5318479537964	fix_pre	0		25.0	73.0	2.5	/experiments/knapen_aot/videos/R_S_yt-s73Xqkcq9Js_285.mp4	0.0	421.27478194236755	0.20835399627685547
75	245.724515914917	response	0	2		73.0	2.5	/experiments/knapen_aot/videos/R_S_yt-s73Xqkcq9Js_285.mp4	0.0	421.46744990348816	
75	245.74020195007324	movie	1		301.0	73.0	2.5	/experiments/knapen_aot/videos/R_S_yt-s73Xqkcq9Js_285.mp4	0.0	421.4831359386444	2.5083301067352295
75	248.24853205680847	fix_post	2		12.0	73.0	2.5	/experiments/knapen_aot/videos/R_S_yt-s73Xqkcq9Js_285.mp4	0.0	423.99146604537964	0.10000491142272949
76	248.3485369682312	fix_pre	0		25.0	74.0	2.5	/experiments/knapen_aot/videos/S_yt-2i53vKte7SA_117.mp4	0.0	424.09147095680237	0.20827293395996094
76	248.54863691329956	response	0	2		74.0	2.5	/experiments/knapen_aot/videos/S_yt-2i53vKte7SA_117.mp4	0.0	424.2915709018707	
76	248.55680990219116	movie	1		301.0	74.0	2.5	/experiments/knapen_aot/videos/S_yt-2i53vKte7SA_117.mp4	0.0	424.29974389076233	2.5083110332489014
76	251.06512093544006	fix_post	2		12.0	74.0	2.5	/experiments/knapen_aot/videos/S_yt-2i53vKte7SA_117.mp4	0.0	426.80805492401123	0.10007214546203613
77	251.1651930809021	fix_pre	0		232.0	75.0	2.5	blank	1.0	426.90812706947327	1.9332468509674072
77	253.090313911438	response	0	2		75.0	2.5	blank	1.0	428.83324790000916	
77	253.0984399318695	movie	1		301.0	75.0	2.5	blank	1.0	428.8413739204407	2.508392095565796
77	255.6068320274353	fix_post	2		12.0	75.0	2.5	blank	1.0	431.34976601600647	0.10003089904785156
78	255.70686292648315	fix_pre	0		41.0	76.0	2.5	/experiments/knapen_aot/videos/R_S_yt-nYi_FfCjepk_74.mp4	0.0	431.4497969150543	0.34156012535095215
78	256.03276109695435	response	0	2		76.0	2.5	/experiments/knapen_aot/videos/R_S_yt-nYi_FfCjepk_74.mp4	0.0	431.7756950855255	
78	256.0484230518341	movie	1		301.0	76.0	2.5	/experiments/knapen_aot/videos/R_S_yt-nYi_FfCjepk_74.mp4	0.0	431.7913570404053	2.5084009170532227
78	258.55682396888733	fix_post	2		12.0	76.0	2.5	/experiments/knapen_aot/videos/R_S_yt-nYi_FfCjepk_74.mp4	0.0	434.2997579574585	0.10000801086425781
79	258.6568319797516	fix_pre	0		32.0	77.0	2.5	/experiments/knapen_aot/videos/R_S_yt--jzScB82vKI_212.mp4	0.0	434.39976596832275	0.26665401458740234
79	258.91530203819275	response	0	2		77.0	2.5	/experiments/knapen_aot/videos/R_S_yt--jzScB82vKI_212.mp4	0.0	434.6582360267639	
79	258.923485994339	movie	1		301.0	77.0	2.5	/experiments/knapen_aot/videos/R_S_yt--jzScB82vKI_212.mp4	0.0	434.66641998291016	2.5083200931549072
79	261.4318060874939	fix_post	2		12.0	77.0	2.5	/experiments/knapen_aot/videos/R_S_yt--jzScB82vKI_212.mp4	0.0	437.17474007606506	0.10000801086425781
80	261.53181409835815	fix_pre	0		86.0	78.0	2.5	/experiments/knapen_aot/videos/R_S_yt-XPRNMelf5Fs_235.mp4	0.0	437.2747480869293	0.7166438102722168
80	262.2402551174164	response	0	2		78.0	2.5	/experiments/knapen_aot/videos/R_S_yt-XPRNMelf5Fs_235.mp4	0.0	437.98318910598755	
80	262.24845790863037	movie	1		301.0	78.0	2.5	/experiments/knapen_aot/videos/R_S_yt-XPRNMelf5Fs_235.mp4	0.0	437.99139189720154	2.5082859992980957
80	264.75674390792847	fix_post	2		12.0	78.0	2.5	/experiments/knapen_aot/videos/R_S_yt-XPRNMelf5Fs_235.mp4	0.0	440.49967789649963	0.1000521183013916
81	264.85679602622986	fix_pre	0		412.0	79.0	2.5	/experiments/knapen_aot/videos/S_yt-0buqUbXVTn8_48.mp4	0.0	440.599730014801	3.433324098587036
81	268.28187704086304	response	0	2		79.0	2.5	/experiments/knapen_aot/videos/S_yt-0buqUbXVTn8_48.mp4	0.0	444.0248110294342	
81	268.2901201248169	movie	1		301.0	79.0	2.5	/experiments/knapen_aot/videos/S_yt-0buqUbXVTn8_48.mp4	0.0	444.03305411338806	2.5083608627319336
81	270.7984809875488	fix_post	2		12.0	79.0	2.5	/experiments/knapen_aot/videos/S_yt-0buqUbXVTn8_48.mp4	0.0	446.54141497612	0.09990501403808594
82	270.8983860015869	fix_pre	0		118.0	80.0	2.5	/experiments/knapen_aot/videos/R_S_ILSVRC2015_train_00507000.mp4	0.0	446.6413199901581	0.9832839965820312
82	271.8735558986664	response	0	2		80.0	2.5	/experiments/knapen_aot/videos/R_S_ILSVRC2015_train_00507000.mp4	0.0	447.61648988723755	
82	271.88166999816895	movie	1		300.0	80.0	2.5	/experiments/knapen_aot/videos/R_S_ILSVRC2015_train_00507000.mp4	0.0	447.6246039867401	2.508445978164673
82	274.3901159763336	fix_post	2		12.0	80.0	2.5	/experiments/knapen_aot/videos/R_S_ILSVRC2015_train_00507000.mp4	0.0	450.1330499649048	0.09996294975280762
83	274.4900789260864	fix_pre	0		10.0	81.0	2.5	/experiments/knapen_aot/videos/S_yt-vjed5qyKqZw_1.mp4	0.0	450.2330129146576	0.08334112167358398
83	274.55778408050537	response	0	2		81.0	2.5	/experiments/knapen_aot/videos/S_yt-vjed5qyKqZw_1.mp4	0.0	450.30071806907654	
83	274.57342004776	movie	1		301.0	81.0	2.5	/experiments/knapen_aot/videos/S_yt-vjed5qyKqZw_1.mp4	0.0	450.3163540363312	2.5083248615264893
83	277.0817449092865	fix_post	2		12.0	81.0	2.5	/experiments/knapen_aot/videos/S_yt-vjed5qyKqZw_1.mp4	0.0	452.82467889785767	0.09994220733642578
84	277.1816871166229	fix_pre	0		32.0	82.0	2.5	/experiments/knapen_aot/videos/S_yt-gzjV6YoK6X0_3.mp4	0.0	452.9246211051941	0.26781797409057617
84	277.43266797065735	response	0	2		82.0	2.5	/experiments/knapen_aot/videos/S_yt-gzjV6YoK6X0_3.mp4	0.0	453.1756019592285	
84	277.4495050907135	movie	1		301.0	82.0	2.5	/experiments/knapen_aot/videos/S_yt-gzjV6YoK6X0_3.mp4	0.0	453.19243907928467	2.507229804992676
84	279.9567348957062	fix_post	2		12.0	82.0	2.5	/experiments/knapen_aot/videos/S_yt-gzjV6YoK6X0_3.mp4	0.0	455.69966888427734	0.09999203681945801
85	280.05672693252563	fix_pre	0		16.0	83.0	2.5	blank	1.0	455.7996609210968	0.1333141326904297
85	280.18196201324463	response	0	2		83.0	2.5	blank	1.0	455.9248960018158	
85	280.19004106521606	movie	1		301.0	83.0	2.5	blank	1.0	455.93297505378723	2.508314847946167
85	282.69835591316223	fix_post	2		12.0	83.0	2.5	blank	1.0	458.4412899017334	0.1000821590423584
87	282.7984380722046	stim	0		143.0					458.54137206077576	1.1927368640899658
87	283.05685210227966	response	0	2						458.79978609085083	
87	283.9832429885864	response	0	space						459.7261769771576	
