trial_nr	onset	event_type	phase	response	nr_frames	movie_index	movie_duration	movie_file	blank	onset_abs	duration
0	0.12560105323791504	stim	0		25.0					295.2400851249695	0.20761990547180176
0	0.32529783248901367	response	0	space						295.4397819042206	
1	0.3332209587097168	stim	0		121.0					295.4477050304413	1.0080430507659912
1	0.9416959285736084	response	0	space						296.0561800003052	
1	1.3162360191345215	response	0	space						296.4307200908661	
1	1.341264009475708	stim	1		120.0					296.4557480812073	0.9999568462371826
1	1.7164299488067627	response	1	space						296.83091402053833	
1	2.2329108715057373	response	1	space						297.3473949432373	
2	2.3412208557128906	fix_pre	0		45.0	0.0	2.5	/experiments/knapen_aot/videos/S_ILSVRC2015_train_00599000.mp4	0.0	297.45570492744446	0.37497997283935547
2	2.7079029083251953	response	0	space		0.0	2.5	/experiments/knapen_aot/videos/S_ILSVRC2015_train_00599000.mp4	0.0	297.82238698005676	
2	2.716200828552246	movie	1		300.0	0.0	2.5	/experiments/knapen_aot/videos/S_ILSVRC2015_train_00599000.mp4	0.0	297.8306849002838	2.5083770751953125
2	2.7339019775390625	response	1	2		0.0	2.5	/experiments/knapen_aot/videos/S_ILSVRC2015_train_00599000.mp4	0.0	297.84838604927063	
2	5.224577903747559	fix_post	2		12.0	0.0	2.5	/experiments/knapen_aot/videos/S_ILSVRC2015_train_00599000.mp4	0.0	300.3390619754791	0.1001279354095459
3	5.3247058391571045	fix_pre	0		12.0	1.0	2.5	/experiments/knapen_aot/videos/R_S_pexels-kindel-media-8164443.mp4	0.0	300.4391899108887	0.1040952205657959
3	5.420130014419556	response	0	2		1.0	2.5	/experiments/knapen_aot/videos/R_S_pexels-kindel-media-8164443.mp4	0.0	300.5346140861511	
3	5.4288010597229	movie	1		178.0	1.0	2.5	/experiments/knapen_aot/videos/R_S_pexels-kindel-media-8164443.mp4	0.0	300.54328513145447	2.5040149688720703
3	7.932816028594971	fix_post	2		12.0	1.0	2.5	/experiments/knapen_aot/videos/R_S_pexels-kindel-media-8164443.mp4	0.0	303.04730010032654	0.1001579761505127
3	7.950547933578491	response	2	2		1.0	2.5	/experiments/knapen_aot/videos/R_S_pexels-kindel-media-8164443.mp4	0.0	303.06503200531006	
4	8.032974004745483	fix_pre	0		31.0	2.0	2.5	/experiments/knapen_aot/videos/R_S__6qAy77ODUI_175.mp4	0.0	303.14745807647705	0.2583048343658447
4	8.282986879348755	response	0	2		2.0	2.5	/experiments/knapen_aot/videos/R_S__6qAy77ODUI_175.mp4	0.0	303.3974709510803	
4	8.291278839111328	movie	1		301.0	2.0	2.5	/experiments/knapen_aot/videos/R_S__6qAy77ODUI_175.mp4	0.0	303.4057629108429	2.508258104324341
4	10.799536943435669	fix_post	2		12.0	2.0	2.5	/experiments/knapen_aot/videos/R_S__6qAy77ODUI_175.mp4	0.0	305.91402101516724	0.09996390342712402
5	10.899500846862793	fix_pre	0		7.0	3.0	2.5	/experiments/knapen_aot/videos/R_S_yt-4BAsE47kJNk_88.mp4	0.0	306.01398491859436	0.05835700035095215
5	10.949678897857666	response	0	2		3.0	2.5	/experiments/knapen_aot/videos/R_S_yt-4BAsE47kJNk_88.mp4	0.0	306.06416296958923	
5	10.957857847213745	movie	1		301.0	3.0	2.5	/experiments/knapen_aot/videos/R_S_yt-4BAsE47kJNk_88.mp4	0.0	306.0723419189453	2.508397102355957
5	13.466254949569702	fix_post	2		12.0	3.0	2.5	/experiments/knapen_aot/videos/R_S_yt-4BAsE47kJNk_88.mp4	0.0	308.58073902130127	0.09998106956481934
5	13.532948970794678	response	2	2		3.0	2.5	/experiments/knapen_aot/videos/R_S_yt-4BAsE47kJNk_88.mp4	0.0	308.64743304252625	
6	13.566236019134521	fix_pre	0		44.0	4.0	2.5	/experiments/knapen_aot/videos/S_pexels-c-technical-6344801.mp4	0.0	308.6807200908661	0.3665938377380371
6	13.92449688911438	response	0	2		4.0	2.5	/experiments/knapen_aot/videos/S_pexels-c-technical-6344801.mp4	0.0	309.03898096084595	
6	13.932829856872559	movie	1		189.0	4.0	2.5	/experiments/knapen_aot/videos/S_pexels-c-technical-6344801.mp4	0.0	309.0473139286041	2.5083911418914795
6	16.441220998764038	fix_post	2		12.0	4.0	2.5	/experiments/knapen_aot/videos/S_pexels-c-technical-6344801.mp4	0.0	311.5557050704956	0.10014486312866211
7	16.5413658618927	fix_pre	0		3.0	5.0	2.5	blank	1.0	311.65584993362427	0.024880170822143555
7	16.55797290802002	response	0	2		5.0	2.5	blank	1.0	311.6724569797516	
7	16.566246032714844	movie	1		301.0	5.0	2.5	blank	1.0	311.6807301044464	2.5082268714904785
7	19.074472904205322	fix_post	2		12.0	5.0	2.5	blank	1.0	314.1889569759369	0.1000819206237793
8	19.1745548248291	fix_pre	0		15.0	6.0	2.5	/experiments/knapen_aot/videos/R_S_flickr-53807584@N00-5565833509_7.mp4	0.0	314.28903889656067	0.12492704391479492
8	19.283793926239014	response	0	2		6.0	2.5	/experiments/knapen_aot/videos/R_S_flickr-53807584@N00-5565833509_7.mp4	0.0	314.3982779979706	
8	19.299481868743896	movie	1		301.0	6.0	2.5	/experiments/knapen_aot/videos/R_S_flickr-53807584@N00-5565833509_7.mp4	0.0	314.41396594047546	2.5085620880126953
8	21.808043956756592	fix_post	2		12.0	6.0	2.5	/experiments/knapen_aot/videos/R_S_flickr-53807584@N00-5565833509_7.mp4	0.0	316.92252802848816	0.09989190101623535
9	21.907935857772827	fix_pre	0		3.0	7.0	2.5	/experiments/knapen_aot/videos/R_S_yt-WTxvvlP8xnw_113.mp4	0.0	317.0224199295044	0.02485513687133789
9	21.924641847610474	response	0	2		7.0	2.5	/experiments/knapen_aot/videos/R_S_yt-WTxvvlP8xnw_113.mp4	0.0	317.03912591934204	
9	21.932790994644165	movie	1		301.0	7.0	2.5	/experiments/knapen_aot/videos/R_S_yt-WTxvvlP8xnw_113.mp4	0.0	317.04727506637573	2.50832200050354
9	24.441112995147705	fix_post	2		12.0	7.0	2.5	/experiments/knapen_aot/videos/R_S_yt-WTxvvlP8xnw_113.mp4	0.0	319.5555970668793	0.10007691383361816
10	24.541189908981323	fix_pre	0		4.0	8.0	2.5	/experiments/knapen_aot/videos/R_S_ILSVRC2015_train_00404003.mp4	0.0	319.6556739807129	0.03328514099121094
10	24.566293954849243	response	0	2		8.0	2.5	/experiments/knapen_aot/videos/R_S_ILSVRC2015_train_00404003.mp4	0.0	319.6807780265808	
10	24.574475049972534	movie	1		301.0	8.0	2.5	/experiments/knapen_aot/videos/R_S_ILSVRC2015_train_00404003.mp4	0.0	319.6889591217041	2.50839900970459
10	27.082874059677124	fix_post	2		12.0	8.0	2.5	/experiments/knapen_aot/videos/R_S_ILSVRC2015_train_00404003.mp4	0.0	322.1973581314087	0.09992480278015137
11	27.182798862457275	fix_pre	0		17.0	9.0	2.5	/experiments/knapen_aot/videos/R_S_yt-IyxCMODHSSE_29.mp4	0.0	322.29728293418884	0.14167118072509766
11	27.31627082824707	response	0	2		9.0	2.5	/experiments/knapen_aot/videos/R_S_yt-IyxCMODHSSE_29.mp4	0.0	322.43075489997864	
11	27.324470043182373	movie	1		301.0	9.0	2.5	/experiments/knapen_aot/videos/R_S_yt-IyxCMODHSSE_29.mp4	0.0	322.43895411491394	2.508327007293701
11	29.442529916763306	response	1	2		9.0	2.5	/experiments/knapen_aot/videos/R_S_yt-IyxCMODHSSE_29.mp4	0.0	324.5570139884949	
11	29.699610948562622	response	1	2		9.0	2.5	/experiments/knapen_aot/videos/R_S_yt-IyxCMODHSSE_29.mp4	0.0	324.8140950202942	
11	29.832797050476074	fix_post	2		12.0	9.0	2.5	/experiments/knapen_aot/videos/R_S_yt-IyxCMODHSSE_29.mp4	0.0	324.94728112220764	0.10000491142272949
12	29.932801961898804	fix_pre	0		2.0	10.0	2.5	/experiments/knapen_aot/videos/R_S_yt-UBqUhu-GEVg_6.mp4	0.0	325.04728603363037	0.016676902770996094
12	29.942924976348877	response	0	2		10.0	2.5	/experiments/knapen_aot/videos/R_S_yt-UBqUhu-GEVg_6.mp4	0.0	325.05740904808044	
12	29.9494788646698	movie	1		301.0	10.0	2.5	/experiments/knapen_aot/videos/R_S_yt-UBqUhu-GEVg_6.mp4	0.0	325.06396293640137	2.5083091259002686
12	32.45778799057007	fix_post	2		12.0	10.0	2.5	/experiments/knapen_aot/videos/R_S_yt-UBqUhu-GEVg_6.mp4	0.0	327.57227206230164	0.10004901885986328
13	32.55783700942993	fix_pre	0		2.0	11.0	2.5	/experiments/knapen_aot/videos/S_ILSVRC2015_train_00324002.mp4	0.0	327.6723210811615	0.01659703254699707
13	32.56041193008423	response	0	2		11.0	2.5	/experiments/knapen_aot/videos/S_ILSVRC2015_train_00324002.mp4	0.0	327.6748960018158	
13	32.57443404197693	movie	1		301.0	11.0	2.5	/experiments/knapen_aot/videos/S_ILSVRC2015_train_00324002.mp4	0.0	327.6889181137085	2.508354902267456
13	35.082788944244385	fix_post	2		12.0	11.0	2.5	/experiments/knapen_aot/videos/S_ILSVRC2015_train_00324002.mp4	0.0	330.19727301597595	0.10000300407409668
13	35.14122700691223	response	2	2		11.0	2.5	/experiments/knapen_aot/videos/S_ILSVRC2015_train_00324002.mp4	0.0	330.2557110786438	
14	35.18279194831848	fix_pre	0		38.0	12.0	2.5	/experiments/knapen_aot/videos/S_pexels-cottonbro-5780808.mp4	0.0	330.29727602005005	0.31659507751464844
14	35.491211891174316	response	0	2		12.0	2.5	/experiments/knapen_aot/videos/S_pexels-cottonbro-5780808.mp4	0.0	330.6056959629059	
14	35.49938702583313	movie	1		166.0	12.0	2.5	/experiments/knapen_aot/videos/S_pexels-cottonbro-5780808.mp4	0.0	330.6138710975647	2.508307933807373
14	38.0076949596405	fix_post	2		12.0	12.0	2.5	/experiments/knapen_aot/videos/S_pexels-cottonbro-5780808.mp4	0.0	333.12217903137207	0.10007691383361816
14	38.01618695259094	response	2	2		12.0	2.5	/experiments/knapen_aot/videos/S_pexels-cottonbro-5780808.mp4	0.0	333.1306710243225	
15	38.10777187347412	fix_pre	0		25.0	13.0	2.5	blank	1.0	333.2222559452057	0.20836615562438965
15	38.30778884887695	response	0	2		13.0	2.5	blank	1.0	333.4222729206085	
15	38.31613802909851	movie	1		301.0	13.0	2.5	blank	1.0	333.4306221008301	2.508309841156006
15	40.82444787025452	fix_post	2		12.0	13.0	2.5	blank	1.0	335.9389319419861	0.09997701644897461
16	40.92442488670349	fix_pre	0		23.0	14.0	2.5	/experiments/knapen_aot/videos/R_S_yt-KQq7vTlXUiQ_173.mp4	0.0	336.03890895843506	0.19170403480529785
16	41.10787796974182	response	0	2		14.0	2.5	/experiments/knapen_aot/videos/R_S_yt-KQq7vTlXUiQ_173.mp4	0.0	336.2223620414734	
16	41.11612892150879	movie	1		301.0	14.0	2.5	/experiments/knapen_aot/videos/R_S_yt-KQq7vTlXUiQ_173.mp4	0.0	336.23061299324036	2.508376121520996
16	43.624505043029785	fix_post	2		12.0	14.0	2.5	/experiments/knapen_aot/videos/R_S_yt-KQq7vTlXUiQ_173.mp4	0.0	338.73898911476135	0.09986686706542969
17	43.724371910095215	fix_pre	0		4.0	15.0	2.5	/experiments/knapen_aot/videos/R_S_yt-J1dw4AznwmQ_7.mp4	0.0	338.8388559818268	0.033380985260009766
17	43.74951887130737	response	0	2		15.0	2.5	/experiments/knapen_aot/videos/R_S_yt-J1dw4AznwmQ_7.mp4	0.0	338.86400294303894	
17	43.757752895355225	movie	1		301.0	15.0	2.5	/experiments/knapen_aot/videos/R_S_yt-J1dw4AznwmQ_7.mp4	0.0	338.8722369670868	2.5083279609680176
17	46.26608085632324	fix_post	2		12.0	15.0	2.5	/experiments/knapen_aot/videos/R_S_yt-J1dw4AznwmQ_7.mp4	0.0	341.3805649280548	0.0999610424041748
17	46.35787391662598	response	2	2		15.0	2.5	/experiments/knapen_aot/videos/R_S_yt-J1dw4AznwmQ_7.mp4	0.0	341.47235798835754	
18	46.36604189872742	fix_pre	0		57.0	16.0	2.5	/experiments/knapen_aot/videos/R_S_yt-xgqx7tH92-c_6.mp4	0.0	341.480525970459	0.474959135055542
18	46.83286190032959	response	0	2		16.0	2.5	/experiments/knapen_aot/videos/R_S_yt-xgqx7tH92-c_6.mp4	0.0	341.94734597206116	
18	46.84100103378296	movie	1		301.0	16.0	2.5	/experiments/knapen_aot/videos/R_S_yt-xgqx7tH92-c_6.mp4	0.0	341.9554851055145	2.5083508491516113
18	49.34935188293457	fix_post	2		12.0	16.0	2.5	/experiments/knapen_aot/videos/R_S_yt-xgqx7tH92-c_6.mp4	0.0	344.46383595466614	0.10006594657897949
19	49.44941782951355	fix_pre	0		16.0	17.0	2.5	/experiments/knapen_aot/videos/S_yt-kAUL5o7i5mo_116.mp4	0.0	344.5639019012451	0.1333000659942627
19	49.57450294494629	response	0	2		17.0	2.5	/experiments/knapen_aot/videos/S_yt-kAUL5o7i5mo_116.mp4	0.0	344.68898701667786	
19	49.58271789550781	movie	1		301.0	17.0	2.5	/experiments/knapen_aot/videos/S_yt-kAUL5o7i5mo_116.mp4	0.0	344.6972019672394	2.508362054824829
19	52.09107995033264	fix_post	2		12.0	17.0	2.5	/experiments/knapen_aot/videos/S_yt-kAUL5o7i5mo_116.mp4	0.0	347.2055640220642	0.09995794296264648
20	52.19103789329529	fix_pre	0		19.0	18.0	2.5	/experiments/knapen_aot/videos/R_S_yt-C0INfEJ4Awk_53.mp4	0.0	347.30552196502686	0.15836715698242188
20	52.33361101150513	response	0	2		18.0	2.5	/experiments/knapen_aot/videos/R_S_yt-C0INfEJ4Awk_53.mp4	0.0	347.4480950832367	
20	52.34940505027771	movie	1		301.0	18.0	2.5	/experiments/knapen_aot/videos/R_S_yt-C0INfEJ4Awk_53.mp4	0.0	347.4638891220093	2.508375883102417
20	54.85778093338013	fix_post	2		12.0	18.0	2.5	/experiments/knapen_aot/videos/R_S_yt-C0INfEJ4Awk_53.mp4	0.0	349.9722650051117	0.09991693496704102
21	54.95769786834717	fix_pre	0		9.0	19.0	2.5	blank	1.0	350.07218194007874	0.07514309883117676
21	55.01692605018616	response	0	2		19.0	2.5	blank	1.0	350.1314101219177	
21	55.032840967178345	movie	1		301.0	19.0	2.5	blank	1.0	350.1473250389099	2.5081560611724854
21	57.54099702835083	fix_post	2		12.0	19.0	2.5	blank	1.0	352.6554811000824	0.10001897811889648
22	57.64101600646973	fix_pre	0		16.0	20.0	2.5	/experiments/knapen_aot/videos/S_yt-UBqUhu-GEVg_6.mp4	0.0	352.7555000782013	0.13335204124450684
22	57.76612591743469	response	0	2		20.0	2.5	/experiments/knapen_aot/videos/S_yt-UBqUhu-GEVg_6.mp4	0.0	352.88060998916626	
22	57.77436804771423	movie	1		301.0	20.0	2.5	/experiments/knapen_aot/videos/S_yt-UBqUhu-GEVg_6.mp4	0.0	352.8888521194458	2.5083088874816895
22	60.28267693519592	fix_post	2		12.0	20.0	2.5	/experiments/knapen_aot/videos/S_yt-UBqUhu-GEVg_6.mp4	0.0	355.3971610069275	0.1000070571899414
23	60.382683992385864	fix_pre	0		1.0	21.0	2.5	/experiments/knapen_aot/videos/R_S_yt-fymgyhmYnMI_557.mp4	0.0	355.49716806411743	0.010941028594970703
23	60.3844039440155	response	0	2		21.0	2.5	/experiments/knapen_aot/videos/R_S_yt-fymgyhmYnMI_557.mp4	0.0	355.49888801574707	
23	60.393625020980835	movie	1		301.0	21.0	2.5	/experiments/knapen_aot/videos/R_S_yt-fymgyhmYnMI_557.mp4	0.0	355.5081090927124	2.5057308673858643
23	62.8993558883667	fix_post	2		12.0	21.0	2.5	/experiments/knapen_aot/videos/R_S_yt-fymgyhmYnMI_557.mp4	0.0	358.01383996009827	0.09991097450256348
23	62.9744348526001	response	2	2		21.0	2.5	/experiments/knapen_aot/videos/R_S_yt-fymgyhmYnMI_557.mp4	0.0	358.08891892433167	
24	62.99926686286926	fix_pre	0		40.0	22.0	2.5	/experiments/knapen_aot/videos/S_yt-2cwARrUMj40_67.mp4	0.0	358.11375093460083	0.33339500427246094
24	63.32445287704468	response	0	2		22.0	2.5	/experiments/knapen_aot/videos/S_yt-2cwARrUMj40_67.mp4	0.0	358.43893694877625	
24	63.332661867141724	movie	1		301.0	22.0	2.5	/experiments/knapen_aot/videos/S_yt-2cwARrUMj40_67.mp4	0.0	358.4471459388733	2.508526086807251
24	65.35900783538818	response	1	2		22.0	2.5	/experiments/knapen_aot/videos/S_yt-2cwARrUMj40_67.mp4	0.0	360.47349190711975	
24	65.55252504348755	response	1	2		22.0	2.5	/experiments/knapen_aot/videos/S_yt-2cwARrUMj40_67.mp4	0.0	360.6670091152191	
24	65.72452688217163	response	1	2		22.0	2.5	/experiments/knapen_aot/videos/S_yt-2cwARrUMj40_67.mp4	0.0	360.8390109539032	
24	65.84118795394897	fix_post	2		12.0	22.0	2.5	/experiments/knapen_aot/videos/S_yt-2cwARrUMj40_67.mp4	0.0	360.95567202568054	0.09981894493103027
25	65.94100689888	fix_pre	0		34.0	23.0	2.5	/experiments/knapen_aot/videos/S_production_ID_3761571.mp4	0.0	361.0554909706116	0.28326416015625
25	66.20845699310303	response	0	2		23.0	2.5	/experiments/knapen_aot/videos/S_production_ID_3761571.mp4	0.0	361.3229410648346	
25	66.22427105903625	movie	1		163.0	23.0	2.5	/experiments/knapen_aot/videos/S_production_ID_3761571.mp4	0.0	361.3387551307678	2.508391857147217
25	68.73266291618347	fix_post	2		12.0	23.0	2.5	/experiments/knapen_aot/videos/S_production_ID_3761571.mp4	0.0	363.84714698791504	0.09998512268066406
26	68.83264803886414	fix_pre	0		13.0	24.0	2.5	/experiments/knapen_aot/videos/S_ILSVRC2015_train_00405001.mp4	0.0	363.9471321105957	0.10943484306335449
26	68.93286204338074	response	0	2		24.0	2.5	/experiments/knapen_aot/videos/S_ILSVRC2015_train_00405001.mp4	0.0	364.0473461151123	
26	68.94208288192749	movie	1		301.0	24.0	2.5	/experiments/knapen_aot/videos/S_ILSVRC2015_train_00405001.mp4	0.0	364.05656695365906	2.507219076156616
26	71.4493019580841	fix_post	2		12.0	24.0	2.5	/experiments/knapen_aot/videos/S_ILSVRC2015_train_00405001.mp4	0.0	366.5637860298157	0.09999799728393555
27	71.54929995536804	fix_pre	0		2.0	25.0	2.5	/experiments/knapen_aot/videos/S_yt-Uv0dt_-fWJU_40.mp4	0.0	366.6637840270996	0.016655921936035156
27	71.55770587921143	response	0	2		25.0	2.5	/experiments/knapen_aot/videos/S_yt-Uv0dt_-fWJU_40.mp4	0.0	366.672189950943	
27	71.56595587730408	movie	1		301.0	25.0	2.5	/experiments/knapen_aot/videos/S_yt-Uv0dt_-fWJU_40.mp4	0.0	366.68043994903564	2.50829815864563
27	73.83273696899414	response	1	2		25.0	2.5	/experiments/knapen_aot/videos/S_yt-Uv0dt_-fWJU_40.mp4	0.0	368.9472210407257	
27	74.06596684455872	response	1	2		25.0	2.5	/experiments/knapen_aot/videos/S_yt-Uv0dt_-fWJU_40.mp4	0.0	369.1804509162903	
27	74.0742540359497	fix_post	2		12.0	25.0	2.5	/experiments/knapen_aot/videos/S_yt-Uv0dt_-fWJU_40.mp4	0.0	369.1887381076813	0.09997892379760742
28	74.17423295974731	fix_pre	0		38.0	26.0	2.5	/experiments/knapen_aot/videos/S_ILSVRC2015_train_00044004.mp4	0.0	369.2887170314789	0.31672191619873047
28	74.4751238822937	response	0	2		26.0	2.5	/experiments/knapen_aot/videos/S_ILSVRC2015_train_00044004.mp4	0.0	369.58960795402527	
28	74.49095487594604	movie	1		301.0	26.0	2.5	/experiments/knapen_aot/videos/S_ILSVRC2015_train_00044004.mp4	0.0	369.6054389476776	2.508327007293701
28	76.99928188323975	fix_post	2		11.0	26.0	2.5	/experiments/knapen_aot/videos/S_ILSVRC2015_train_00044004.mp4	0.0	372.1137659549713	0.09167599678039551
28	77.08278203010559	response	2	2		26.0	2.5	/experiments/knapen_aot/videos/S_ILSVRC2015_train_00044004.mp4	0.0	372.19726610183716	
29	77.09095788002014	fix_pre	0		47.0	27.0	2.5	blank	1.0	372.2054419517517	0.3916029930114746
29	77.47433304786682	response	0	2		27.0	2.5	blank	1.0	372.5888171195984	
29	77.48256087303162	movie	1		301.0	27.0	2.5	blank	1.0	372.5970449447632	2.50839900970459
29	79.9909598827362	fix_post	2		12.0	27.0	2.5	blank	1.0	375.1054439544678	0.09992313385009766
30	80.0908830165863	fix_pre	0		23.0	28.0	2.5	/experiments/knapen_aot/videos/S_comp_LA_A008_C004_ALTB_ED_FROM_FLAME_RETIME_v46_SDR_PS_20180917_SDR_2K_AVC.mp4	0.0	375.20536708831787	0.1917128562927246
30	80.2743079662323	response	0	2		28.0	2.5	/experiments/knapen_aot/videos/S_comp_LA_A008_C004_ALTB_ED_FROM_FLAME_RETIME_v46_SDR_PS_20180917_SDR_2K_AVC.mp4	0.0	375.38879203796387	
30	80.28259587287903	movie	1		167.0	28.0	2.5	/experiments/knapen_aot/videos/S_comp_LA_A008_C004_ALTB_ED_FROM_FLAME_RETIME_v46_SDR_PS_20180917_SDR_2K_AVC.mp4	0.0	375.3970799446106	2.508350133895874
30	82.7909460067749	fix_post	2		12.0	28.0	2.5	/experiments/knapen_aot/videos/S_comp_LA_A008_C004_ALTB_ED_FROM_FLAME_RETIME_v46_SDR_PS_20180917_SDR_2K_AVC.mp4	0.0	377.90543007850647	0.09998297691345215
31	82.89092898368835	fix_pre	0		6.0	29.0	2.5	/experiments/knapen_aot/videos/R_S_ILSVRC2015_train_00165008.mp4	0.0	378.0054130554199	0.05108904838562012
31	82.9327290058136	response	0	2		29.0	2.5	/experiments/knapen_aot/videos/R_S_ILSVRC2015_train_00165008.mp4	0.0	378.04721307754517	
31	82.94201803207397	movie	1		301.0	29.0	2.5	/experiments/knapen_aot/videos/R_S_ILSVRC2015_train_00165008.mp4	0.0	378.05650210380554	2.507260799407959
31	85.44927883148193	fix_post	2		11.0	29.0	2.5	/experiments/knapen_aot/videos/R_S_ILSVRC2015_train_00165008.mp4	0.0	380.5637629032135	0.09157299995422363
31	85.5327160358429	response	2	2		29.0	2.5	/experiments/knapen_aot/videos/R_S_ILSVRC2015_train_00165008.mp4	0.0	380.64720010757446	
32	85.54085183143616	fix_pre	0		35.0	30.0	2.5	/experiments/knapen_aot/videos/S_yt-RHPOCG1mII0_138.mp4	0.0	380.6553359031677	0.2917201519012451
32	85.82433605194092	response	0	2		30.0	2.5	/experiments/knapen_aot/videos/S_yt-RHPOCG1mII0_138.mp4	0.0	380.9388201236725	
32	85.8325719833374	movie	1		301.0	30.0	2.5	/experiments/knapen_aot/videos/S_yt-RHPOCG1mII0_138.mp4	0.0	380.94705605506897	2.50832200050354
32	87.54933786392212	response	1	2		30.0	2.5	/experiments/knapen_aot/videos/S_yt-RHPOCG1mII0_138.mp4	0.0	382.6638219356537	
32	88.0159809589386	response	1	2		30.0	2.5	/experiments/knapen_aot/videos/S_yt-RHPOCG1mII0_138.mp4	0.0	383.13046503067017	
32	88.34089398384094	fix_post	2		12.0	30.0	2.5	/experiments/knapen_aot/videos/S_yt-RHPOCG1mII0_138.mp4	0.0	383.4553780555725	0.10004186630249023
33	88.44093585014343	fix_pre	0		14.0	31.0	2.5	/experiments/knapen_aot/videos/S_yt-4i1b6NQ9NKs_5.mp4	0.0	383.555419921875	0.11656713485717773
33	88.54933094978333	response	0	2		31.0	2.5	/experiments/knapen_aot/videos/S_yt-4i1b6NQ9NKs_5.mp4	0.0	383.6638150215149	
33	88.55750298500061	movie	1		301.0	31.0	2.5	/experiments/knapen_aot/videos/S_yt-4i1b6NQ9NKs_5.mp4	0.0	383.6719870567322	2.5085489749908447
33	91.03257584571838	response	1	2		31.0	2.5	/experiments/knapen_aot/videos/S_yt-4i1b6NQ9NKs_5.mp4	0.0	386.14705991744995	
33	91.06605195999146	fix_post	2		12.0	31.0	2.5	/experiments/knapen_aot/videos/S_yt-4i1b6NQ9NKs_5.mp4	0.0	386.180536031723	0.09993195533752441
34	91.16598391532898	fix_pre	0		22.0	32.0	2.5	/experiments/knapen_aot/videos/R_S_yt-0lfSyC79n14_7.mp4	0.0	386.28046798706055	0.18318510055541992
34	91.34103083610535	response	0	2		32.0	2.5	/experiments/knapen_aot/videos/R_S_yt-0lfSyC79n14_7.mp4	0.0	386.4555149078369	
34	91.3491690158844	movie	1		301.0	32.0	2.5	/experiments/knapen_aot/videos/R_S_yt-0lfSyC79n14_7.mp4	0.0	386.46365308761597	2.5083580017089844
34	93.48698997497559	response	1	2		32.0	2.5	/experiments/knapen_aot/videos/R_S_yt-0lfSyC79n14_7.mp4	0.0	388.60147404670715	
34	93.72676301002502	response	1	2		32.0	2.5	/experiments/knapen_aot/videos/R_S_yt-0lfSyC79n14_7.mp4	0.0	388.8412470817566	
34	93.85752701759338	fix_post	2		12.0	32.0	2.5	/experiments/knapen_aot/videos/R_S_yt-0lfSyC79n14_7.mp4	0.0	388.97201108932495	0.10000181198120117
35	93.95752882957458	fix_pre	0		15.0	33.0	2.5	blank	1.0	389.07201290130615	0.12506699562072754
35	94.07425498962402	response	0	2		33.0	2.5	blank	1.0	389.1887390613556	
35	94.08259582519531	movie	1		301.0	33.0	2.5	blank	1.0	389.1970798969269	2.508251190185547
35	96.59084701538086	fix_post	2		12.0	33.0	2.5	blank	1.0	391.7053310871124	0.09996485710144043
36	96.6908118724823	fix_pre	0		3.0	34.0	2.5	/experiments/knapen_aot/videos/R_S_yt-_6j2NXrB-zE_28.mp4	0.0	391.80529594421387	0.024979114532470703
36	96.70771193504333	response	0	2		34.0	2.5	/experiments/knapen_aot/videos/R_S_yt-_6j2NXrB-zE_28.mp4	0.0	391.8221960067749	
36	96.71579098701477	movie	1		301.0	34.0	2.5	/experiments/knapen_aot/videos/R_S_yt-_6j2NXrB-zE_28.mp4	0.0	391.83027505874634	2.5084869861602783
36	99.22427797317505	fix_post	2		12.0	34.0	2.5	/experiments/knapen_aot/videos/R_S_yt-_6j2NXrB-zE_28.mp4	0.0	394.3387620449066	0.09990501403808594
36	99.28261995315552	response	2	2		34.0	2.5	/experiments/knapen_aot/videos/R_S_yt-_6j2NXrB-zE_28.mp4	0.0	394.3971040248871	
37	99.32418298721313	fix_pre	0		26.0	35.0	2.5	/experiments/knapen_aot/videos/R_S_yt-2kPrGwVmRfE_169.mp4	0.0	394.4386670589447	0.21660804748535156
37	99.53258895874023	response	0	2		35.0	2.5	/experiments/knapen_aot/videos/R_S_yt-2kPrGwVmRfE_169.mp4	0.0	394.6470730304718	
37	99.54079103469849	movie	1		301.0	35.0	2.5	/experiments/knapen_aot/videos/R_S_yt-2kPrGwVmRfE_169.mp4	0.0	394.65527510643005	2.508596897125244
37	102.04938793182373	fix_post	2		12.0	35.0	2.5	/experiments/knapen_aot/videos/R_S_yt-2kPrGwVmRfE_169.mp4	0.0	397.1638720035553	0.10014796257019043
38	102.14953589439392	fix_pre	0		4.0	36.0	2.5	/experiments/knapen_aot/videos/S_wc-7ugQ0V4lxYkJ_131.mp4	0.0	397.2640199661255	0.03300809860229492
38	102.17430996894836	response	0	2		36.0	2.5	/experiments/knapen_aot/videos/S_wc-7ugQ0V4lxYkJ_131.mp4	0.0	397.28879404067993	
38	102.18254399299622	movie	1		301.0	36.0	2.5	/experiments/knapen_aot/videos/S_wc-7ugQ0V4lxYkJ_131.mp4	0.0	397.2970280647278	2.5083160400390625
38	104.69086003303528	fix_post	2		12.0	36.0	2.5	/experiments/knapen_aot/videos/S_wc-7ugQ0V4lxYkJ_131.mp4	0.0	399.80534410476685	0.09990596771240234
39	104.79076600074768	fix_pre	0		15.0	37.0	2.5	/experiments/knapen_aot/videos/S_flickr-clarkstonscamp-4863427159_1.mp4	0.0	399.90525007247925	0.12496495246887207
39	104.90758299827576	response	0	2		37.0	2.5	/experiments/knapen_aot/videos/S_flickr-clarkstonscamp-4863427159_1.mp4	0.0	400.0220670700073	
39	104.91573095321655	movie	1		301.0	37.0	2.5	/experiments/knapen_aot/videos/S_flickr-clarkstonscamp-4863427159_1.mp4	0.0	400.0302150249481	2.508641004562378
39	107.42437195777893	fix_post	2		12.0	37.0	2.5	/experiments/knapen_aot/videos/S_flickr-clarkstonscamp-4863427159_1.mp4	0.0	402.5388560295105	0.09983587265014648
40	107.52420783042908	fix_pre	0		27.0	38.0	2.5	/experiments/knapen_aot/videos/R_S_production_ID_4101307.mp4	0.0	402.63869190216064	0.22493720054626465
40	107.74093198776245	response	0	2		38.0	2.5	/experiments/knapen_aot/videos/R_S_production_ID_4101307.mp4	0.0	402.855416059494	
40	107.74914503097534	movie	1		197.0	38.0	2.5	/experiments/knapen_aot/videos/R_S_production_ID_4101307.mp4	0.0	402.8636291027069	2.5084588527679443
40	110.25760388374329	fix_post	2		12.0	38.0	2.5	/experiments/knapen_aot/videos/R_S_production_ID_4101307.mp4	0.0	405.37208795547485	0.09987401962280273
40	110.29927802085876	response	2	2		38.0	2.5	/experiments/knapen_aot/videos/R_S_production_ID_4101307.mp4	0.0	405.41376209259033	
41	110.35747790336609	fix_pre	0		34.0	39.0	2.5	/experiments/knapen_aot/videos/S_EFR8AteY59I_15.mp4	0.0	405.47196197509766	0.28330111503601074
41	110.63257384300232	response	0	2		39.0	2.5	/experiments/knapen_aot/videos/S_EFR8AteY59I_15.mp4	0.0	405.7470579147339	
41	110.6407790184021	movie	1		301.0	39.0	2.5	/experiments/knapen_aot/videos/S_EFR8AteY59I_15.mp4	0.0	405.75526309013367	2.5083889961242676
41	113.14916801452637	fix_post	2		12.0	39.0	2.5	/experiments/knapen_aot/videos/S_EFR8AteY59I_15.mp4	0.0	408.26365208625793	0.09998893737792969
42	113.2491569519043	fix_pre	0		8.0	40.0	2.5	/experiments/knapen_aot/videos/S_ILSVRC2015_train_00155004.mp4	0.0	408.36364102363586	0.0675349235534668
42	113.30753684043884	response	0	2		40.0	2.5	/experiments/knapen_aot/videos/S_ILSVRC2015_train_00155004.mp4	0.0	408.4220209121704	
42	113.31669187545776	movie	1		301.0	40.0	2.5	/experiments/knapen_aot/videos/S_ILSVRC2015_train_00155004.mp4	0.0	408.43117594718933	2.507478952407837
42	115.8241708278656	fix_post	2		12.0	40.0	2.5	/experiments/knapen_aot/videos/S_ILSVRC2015_train_00155004.mp4	0.0	410.93865489959717	0.09997320175170898
42	115.84933495521545	response	2	2		40.0	2.5	/experiments/knapen_aot/videos/S_ILSVRC2015_train_00155004.mp4	0.0	410.963819026947	
43	115.92414402961731	fix_pre	0		30.0	41.0	2.5	blank	1.0	411.0386281013489	0.24992990493774414
43	116.16577887535095	response	0	2		41.0	2.5	blank	1.0	411.2802629470825	
43	116.17407393455505	movie	1		301.0	41.0	2.5	blank	1.0	411.2885580062866	2.508373975753784
43	118.68244791030884	fix_post	2		12.0	41.0	2.5	blank	1.0	413.7969319820404	0.0999901294708252
44	118.78243803977966	fix_pre	0		19.0	42.0	2.5	/experiments/knapen_aot/videos/S_yt-x6tYi0lRGqU_114.mp4	0.0	413.89692211151123	0.15924382209777832
44	118.93246388435364	response	0	2		42.0	2.5	/experiments/knapen_aot/videos/S_yt-x6tYi0lRGqU_114.mp4	0.0	414.0469479560852	
44	118.94168186187744	movie	1		301.0	42.0	2.5	/experiments/knapen_aot/videos/S_yt-x6tYi0lRGqU_114.mp4	0.0	414.056165933609	2.507416009902954
44	121.4490978717804	fix_post	2		12.0	42.0	2.5	/experiments/knapen_aot/videos/S_yt-x6tYi0lRGqU_114.mp4	0.0	416.56358194351196	0.10004901885986328
45	121.54914689064026	fix_pre	0		10.0	43.0	2.5	/experiments/knapen_aot/videos/S_wc-lItGMdwvEd_l_7.mp4	0.0	416.6636309623718	0.08325505256652832
45	121.62418103218079	response	0	2		43.0	2.5	/experiments/knapen_aot/videos/S_wc-lItGMdwvEd_l_7.mp4	0.0	416.73866510391235	
45	121.63240194320679	movie	1		161.0	43.0	2.5	/experiments/knapen_aot/videos/S_wc-lItGMdwvEd_l_7.mp4	0.0	416.74688601493835	2.5082900524139404
45	124.14069199562073	fix_post	2		12.0	43.0	2.5	/experiments/knapen_aot/videos/S_wc-lItGMdwvEd_l_7.mp4	0.0	419.2551760673523	0.10007786750793457
46	124.24076986312866	fix_pre	0		7.0	44.0	2.5	/experiments/knapen_aot/videos/R_S_yt-aSEKRE_FNaI_62.mp4	0.0	419.35525393486023	0.058318138122558594
46	124.29085183143616	response	0	2		44.0	2.5	/experiments/knapen_aot/videos/R_S_yt-aSEKRE_FNaI_62.mp4	0.0	419.4053359031677	
46	124.29908800125122	movie	1		301.0	44.0	2.5	/experiments/knapen_aot/videos/R_S_yt-aSEKRE_FNaI_62.mp4	0.0	419.4135720729828	2.508307933807373
46	126.8073959350586	fix_post	2		12.0	44.0	2.5	/experiments/knapen_aot/videos/R_S_yt-aSEKRE_FNaI_62.mp4	0.0	421.92188000679016	0.09996891021728516
47	126.90736484527588	fix_pre	0		5.0	45.0	2.5	/experiments/knapen_aot/videos/R_S_yt-WFiEvQuOqqg_18.mp4	0.0	422.02184891700745	0.04169797897338867
47	126.94082593917847	response	0	2		45.0	2.5	/experiments/knapen_aot/videos/R_S_yt-WFiEvQuOqqg_18.mp4	0.0	422.05531001091003	
47	126.94906282424927	movie	1		301.0	45.0	2.5	/experiments/knapen_aot/videos/R_S_yt-WFiEvQuOqqg_18.mp4	0.0	422.06354689598083	2.5083351135253906
47	129.45739793777466	fix_post	2		12.0	45.0	2.5	/experiments/knapen_aot/videos/R_S_yt-WFiEvQuOqqg_18.mp4	0.0	424.5718820095062	0.09998798370361328
48	129.55738592147827	fix_pre	0		16.0	46.0	2.5	/experiments/knapen_aot/videos/R_S_pexels-cottonbro-10639398.mp4	0.0	424.67186999320984	0.13428902626037598
48	129.6824769973755	response	0	2		46.0	2.5	/experiments/knapen_aot/videos/R_S_pexels-cottonbro-10639398.mp4	0.0	424.79696106910706	
48	129.69167494773865	movie	1		191.0	46.0	2.5	/experiments/knapen_aot/videos/R_S_pexels-cottonbro-10639398.mp4	0.0	424.8061590194702	2.5074610710144043
48	132.19913601875305	fix_post	2		12.0	46.0	2.5	/experiments/knapen_aot/videos/R_S_pexels-cottonbro-10639398.mp4	0.0	427.3136200904846	0.10010480880737305
49	132.29924082756042	fix_pre	0		4.0	47.0	2.5	/experiments/knapen_aot/videos/R_S_yt-TbdZrcl_Jso_5.mp4	0.0	427.413724899292	0.033152103424072266
49	132.32420301437378	response	0	2		47.0	2.5	/experiments/knapen_aot/videos/R_S_yt-TbdZrcl_Jso_5.mp4	0.0	427.43868708610535	
49	132.3323929309845	movie	1		301.0	47.0	2.5	/experiments/knapen_aot/videos/R_S_yt-TbdZrcl_Jso_5.mp4	0.0	427.44687700271606	2.508435010910034
49	134.84082794189453	fix_post	2		12.0	47.0	2.5	/experiments/knapen_aot/videos/R_S_yt-TbdZrcl_Jso_5.mp4	0.0	429.9553120136261	0.09994888305664062
50	134.94077682495117	fix_pre	0		7.0	48.0	2.5	/experiments/knapen_aot/videos/S_yt-xNKgc8sFYvU_35.mp4	0.0	430.05526089668274	0.05822420120239258
50	134.99087190628052	response	0	2		48.0	2.5	/experiments/knapen_aot/videos/S_yt-xNKgc8sFYvU_35.mp4	0.0	430.1053559780121	
50	134.99900102615356	movie	1		301.0	48.0	2.5	/experiments/knapen_aot/videos/S_yt-xNKgc8sFYvU_35.mp4	0.0	430.11348509788513	2.5083749294281006
50	137.50737595558167	fix_post	2		12.0	48.0	2.5	/experiments/knapen_aot/videos/S_yt-xNKgc8sFYvU_35.mp4	0.0	432.62186002731323	0.10002398490905762
51	137.60739994049072	fix_pre	0		17.0	49.0	2.5	blank	1.0	432.7218840122223	0.14167189598083496
51	137.74078798294067	response	0	2		49.0	2.5	blank	1.0	432.85527205467224	
51	137.74907183647156	movie	1		301.0	49.0	2.5	blank	1.0	432.8635559082031	2.5083351135253906
51	140.25740694999695	fix_post	2		12.0	49.0	2.5	blank	1.0	435.3718910217285	0.10004997253417969
52	140.35745692253113	fix_pre	0		21.0	50.0	2.5	/experiments/knapen_aot/videos/S_ILSVRC2015_train_00404003.mp4	0.0	435.4719409942627	0.17482900619506836
52	140.52415204048157	response	0	2		50.0	2.5	/experiments/knapen_aot/videos/S_ILSVRC2015_train_00404003.mp4	0.0	435.63863611221313	
52	140.5322859287262	movie	1		301.0	50.0	2.5	/experiments/knapen_aot/videos/S_ILSVRC2015_train_00404003.mp4	0.0	435.64677000045776	2.5084590911865234
52	143.04074501991272	fix_post	2		12.0	50.0	2.5	/experiments/knapen_aot/videos/S_ILSVRC2015_train_00404003.mp4	0.0	438.1552290916443	0.09998083114624023
53	143.14072585105896	fix_pre	0		7.0	51.0	2.5	/experiments/knapen_aot/videos/R_S_flickr-hapanine-31880782705_22.mp4	0.0	438.2552099227905	0.0582430362701416
53	143.19078302383423	response	0	2		51.0	2.5	/experiments/knapen_aot/videos/R_S_flickr-hapanine-31880782705_22.mp4	0.0	438.3052670955658	
53	143.1989688873291	movie	1		166.0	51.0	2.5	/experiments/knapen_aot/videos/R_S_flickr-hapanine-31880782705_22.mp4	0.0	438.31345295906067	2.5084149837493896
53	145.7073838710785	fix_post	2		12.0	51.0	2.5	/experiments/knapen_aot/videos/R_S_flickr-hapanine-31880782705_22.mp4	0.0	440.82186794281006	0.09993910789489746
54	145.8073229789734	fix_pre	0		13.0	52.0	2.5	/experiments/knapen_aot/videos/S_yt-XPRNMelf5Fs_235.mp4	0.0	440.92180705070496	0.10841894149780273
54	145.90749287605286	response	0	2		52.0	2.5	/experiments/knapen_aot/videos/S_yt-XPRNMelf5Fs_235.mp4	0.0	441.0219769477844	
54	145.9157419204712	movie	1		301.0	52.0	2.5	/experiments/knapen_aot/videos/S_yt-XPRNMelf5Fs_235.mp4	0.0	441.03022599220276	2.508273124694824
54	148.42401504516602	fix_post	2		12.0	52.0	2.5	/experiments/knapen_aot/videos/S_yt-XPRNMelf5Fs_235.mp4	0.0	443.5384991168976	0.09999394416809082
55	148.5240089893341	fix_pre	0		6.0	53.0	2.5	/experiments/knapen_aot/videos/S_yt-aSEKRE_FNaI_62.mp4	0.0	443.6384930610657	0.04992198944091797
55	148.56578183174133	response	0	2		53.0	2.5	/experiments/knapen_aot/videos/S_yt-aSEKRE_FNaI_62.mp4	0.0	443.6802659034729	
55	148.57393097877502	movie	1		301.0	53.0	2.5	/experiments/knapen_aot/videos/S_yt-aSEKRE_FNaI_62.mp4	0.0	443.6884150505066	2.508405923843384
55	151.0823369026184	fix_post	2		12.0	53.0	2.5	/experiments/knapen_aot/videos/S_yt-aSEKRE_FNaI_62.mp4	0.0	446.19682097435	0.10006093978881836
56	151.18239784240723	fix_pre	0		8.0	54.0	2.5	blank	1.0	446.2968819141388	0.06657600402832031
56	151.2407670021057	response	0	2		54.0	2.5	blank	1.0	446.3552510738373	
56	151.24897384643555	movie	1		301.0	54.0	2.5	blank	1.0	446.3634579181671	2.5082859992980957
56	153.75725984573364	fix_post	2		12.0	54.0	2.5	blank	1.0	448.8717439174652	0.1000370979309082
57	153.85729694366455	fix_pre	0		27.0	55.0	2.5	/experiments/knapen_aot/videos/S_pexels-cottonbro-5780808.mp4	0.0	448.9717810153961	0.22500896453857422
57	154.07407402992249	response	0	2		55.0	2.5	/experiments/knapen_aot/videos/S_pexels-cottonbro-5780808.mp4	0.0	449.18855810165405	
57	154.08230590820312	movie	1		166.0	55.0	2.5	/experiments/knapen_aot/videos/S_pexels-cottonbro-5780808.mp4	0.0	449.1967899799347	2.5083250999450684
57	156.5906310081482	fix_post	2		12.0	55.0	2.5	/experiments/knapen_aot/videos/S_pexels-cottonbro-5780808.mp4	0.0	451.70511507987976	0.09995889663696289
58	156.69058990478516	fix_pre	0		18.0	56.0	2.5	/experiments/knapen_aot/videos/S_yt-hdZEAsVBEEM_19.mp4	0.0	451.8050739765167	0.14998912811279297
58	156.82485389709473	response	0	2		56.0	2.5	/experiments/knapen_aot/videos/S_yt-hdZEAsVBEEM_19.mp4	0.0	451.9393379688263	
58	156.84057903289795	movie	1		301.0	56.0	2.5	/experiments/knapen_aot/videos/S_yt-hdZEAsVBEEM_19.mp4	0.0	451.9550631046295	2.5083529949188232
58	159.34893202781677	fix_post	2		12.0	56.0	2.5	/experiments/knapen_aot/videos/S_yt-hdZEAsVBEEM_19.mp4	0.0	454.46341609954834	0.10011100769042969
59	159.4490430355072	fix_pre	0		4.0	57.0	2.5	/experiments/knapen_aot/videos/S_comp_LA_A008_C004_ALTB_ED_FROM_FLAME_RETIME_v46_SDR_PS_20180917_SDR_2K_AVC.mp4	0.0	454.56352710723877	0.03423881530761719
59	159.47397184371948	response	0	2		57.0	2.5	/experiments/knapen_aot/videos/S_comp_LA_A008_C004_ALTB_ED_FROM_FLAME_RETIME_v46_SDR_PS_20180917_SDR_2K_AVC.mp4	0.0	454.58845591545105	
59	159.48328185081482	movie	1		169.0	57.0	2.5	/experiments/knapen_aot/videos/S_comp_LA_A008_C004_ALTB_ED_FROM_FLAME_RETIME_v46_SDR_PS_20180917_SDR_2K_AVC.mp4	0.0	454.5977659225464	2.507277011871338
59	161.99055886268616	fix_post	2		12.0	57.0	2.5	/experiments/knapen_aot/videos/S_comp_LA_A008_C004_ALTB_ED_FROM_FLAME_RETIME_v46_SDR_PS_20180917_SDR_2K_AVC.mp4	0.0	457.1050429344177	0.10000300407409668
59	162.08233189582825	response	2	2		57.0	2.5	/experiments/knapen_aot/videos/S_comp_LA_A008_C004_ALTB_ED_FROM_FLAME_RETIME_v46_SDR_PS_20180917_SDR_2K_AVC.mp4	0.0	457.1968159675598	
60	162.09056186676025	fix_pre	0		39.0	58.0	2.5	/experiments/knapen_aot/videos/R_S_5Bc466bkeA0_35.mp4	0.0	457.2050459384918	0.32498717308044434
60	162.40732789039612	response	0	2		58.0	2.5	/experiments/knapen_aot/videos/R_S_5Bc466bkeA0_35.mp4	0.0	457.5218119621277	
60	162.4155490398407	movie	1		301.0	58.0	2.5	/experiments/knapen_aot/videos/R_S_5Bc466bkeA0_35.mp4	0.0	457.53003311157227	2.5084218978881836
60	164.92397093772888	fix_post	2		12.0	58.0	2.5	/experiments/knapen_aot/videos/R_S_5Bc466bkeA0_35.mp4	0.0	460.03845500946045	0.09993600845336914
61	165.02390694618225	fix_pre	0		13.0	59.0	2.5	/experiments/knapen_aot/videos/S_comp_DB_D011_D009_SIGNCMP_v15_6Mbps.mp4	0.0	460.1383910179138	0.1083669662475586
61	165.12407994270325	response	0	2		59.0	2.5	/experiments/knapen_aot/videos/S_comp_DB_D011_D009_SIGNCMP_v15_6Mbps.mp4	0.0	460.2385640144348	
61	165.1322739124298	movie	1		169.0	59.0	2.5	/experiments/knapen_aot/videos/S_comp_DB_D011_D009_SIGNCMP_v15_6Mbps.mp4	0.0	460.2467579841614	2.508310079574585
61	167.6405839920044	fix_post	2		12.0	59.0	2.5	/experiments/knapen_aot/videos/S_comp_DB_D011_D009_SIGNCMP_v15_6Mbps.mp4	0.0	462.75506806373596	0.09998703002929688
61	167.7323579788208	response	2	2		59.0	2.5	/experiments/knapen_aot/videos/S_comp_DB_D011_D009_SIGNCMP_v15_6Mbps.mp4	0.0	462.84684205055237	
62	167.7405710220337	fix_pre	0		41.0	60.0	2.5	/experiments/knapen_aot/videos/S_comp_DB_D011_D009_SIGNCMP_v15_6Mbps.mp4	0.0	462.85505509376526	0.3416788578033447
62	168.0740728378296	response	0	2		60.0	2.5	/experiments/knapen_aot/videos/S_comp_DB_D011_D009_SIGNCMP_v15_6Mbps.mp4	0.0	463.18855690956116	
62	168.08224987983704	movie	1		166.0	60.0	2.5	/experiments/knapen_aot/videos/S_comp_DB_D011_D009_SIGNCMP_v15_6Mbps.mp4	0.0	463.1967339515686	2.5083820819854736
62	170.5906319618225	fix_post	2		12.0	60.0	2.5	/experiments/knapen_aot/videos/S_comp_DB_D011_D009_SIGNCMP_v15_6Mbps.mp4	0.0	465.7051160335541	0.10003900527954102
62	170.64902997016907	response	2	2		60.0	2.5	/experiments/knapen_aot/videos/S_comp_DB_D011_D009_SIGNCMP_v15_6Mbps.mp4	0.0	465.76351404190063	
63	170.69067096710205	fix_pre	0		25.0	61.0	2.5	blank	1.0	465.8051550388336	0.20883989334106445
63	170.89073085784912	response	0	2		61.0	2.5	blank	1.0	466.0052149295807	
63	170.89951086044312	movie	1		301.0	61.0	2.5	blank	1.0	466.0139949321747	2.507716178894043
63	173.40722703933716	fix_post	2		12.0	61.0	2.5	blank	1.0	468.5217111110687	0.10007286071777344
64	173.50729990005493	fix_pre	0		21.0	62.0	2.5	/experiments/knapen_aot/videos/S_production_ID_5049072.mp4	0.0	468.6217839717865	0.17491412162780762
64	173.67402291297913	response	0	2		62.0	2.5	/experiments/knapen_aot/videos/S_production_ID_5049072.mp4	0.0	468.7885069847107	
64	173.68221402168274	movie	1		165.0	62.0	2.5	/experiments/knapen_aot/videos/S_production_ID_5049072.mp4	0.0	468.7966980934143	2.5084149837493896
64	176.19062900543213	fix_post	2		12.0	62.0	2.5	/experiments/knapen_aot/videos/S_production_ID_5049072.mp4	0.0	471.3051130771637	0.09999895095825195
65	176.29062795639038	fix_pre	0		6.0	63.0	2.5	/experiments/knapen_aot/videos/R_S_EFR8AteY59I_15.mp4	0.0	471.40511202812195	0.049902915954589844
65	176.3324339389801	response	0	2		63.0	2.5	/experiments/knapen_aot/videos/R_S_EFR8AteY59I_15.mp4	0.0	471.44691801071167	
65	176.34053087234497	movie	1		301.0	63.0	2.5	/experiments/knapen_aot/videos/R_S_EFR8AteY59I_15.mp4	0.0	471.45501494407654	2.5083460807800293
65	178.848876953125	fix_post	2		12.0	63.0	2.5	/experiments/knapen_aot/videos/R_S_EFR8AteY59I_15.mp4	0.0	473.96336102485657	0.09999704360961914
66	178.94887399673462	fix_pre	0		8.0	64.0	2.5	/experiments/knapen_aot/videos/R_S_video_inspire_sanfrancisco_castro_005.1080-h264.mp4	0.0	474.0633580684662	0.06661605834960938
66	179.00731682777405	response	0	2		64.0	2.5	/experiments/knapen_aot/videos/R_S_video_inspire_sanfrancisco_castro_005.1080-h264.mp4	0.0	474.1218008995056	
66	179.01549005508423	movie	1		165.0	64.0	2.5	/experiments/knapen_aot/videos/R_S_video_inspire_sanfrancisco_castro_005.1080-h264.mp4	0.0	474.1299741268158	2.5083389282226562
66	181.52382898330688	fix_post	2		12.0	64.0	2.5	/experiments/knapen_aot/videos/R_S_video_inspire_sanfrancisco_castro_005.1080-h264.mp4	0.0	476.63831305503845	0.10029101371765137
66	181.56559491157532	response	2	2		64.0	2.5	/experiments/knapen_aot/videos/R_S_video_inspire_sanfrancisco_castro_005.1080-h264.mp4	0.0	476.6800789833069	
67	181.62411999702454	fix_pre	0		36.0	65.0	2.5	/experiments/knapen_aot/videos/S_yt-bhiGMKSAz2g_370.mp4	0.0	476.7386040687561	0.2998158931732178
67	181.9155979156494	response	0	2		65.0	2.5	/experiments/knapen_aot/videos/S_yt-bhiGMKSAz2g_370.mp4	0.0	477.030081987381	
67	181.92393589019775	movie	1		301.0	65.0	2.5	/experiments/knapen_aot/videos/S_yt-bhiGMKSAz2g_370.mp4	0.0	477.0384199619293	2.5083141326904297
67	184.43225002288818	fix_post	2		12.0	65.0	2.5	/experiments/knapen_aot/videos/S_yt-bhiGMKSAz2g_370.mp4	0.0	479.54673409461975	0.09995293617248535
68	184.53220295906067	fix_pre	0		4.0	66.0	2.5	/experiments/knapen_aot/videos/R_S_production_ID_3943334.mp4	0.0	479.64668703079224	0.03413987159729004
68	184.55739402770996	response	0	2		66.0	2.5	/experiments/knapen_aot/videos/R_S_production_ID_3943334.mp4	0.0	479.6718780994415	
68	184.56634283065796	movie	1		205.0	66.0	2.5	/experiments/knapen_aot/videos/R_S_production_ID_3943334.mp4	0.0	479.6808269023895	2.5075201988220215
68	187.07386302947998	fix_post	2		12.0	66.0	2.5	/experiments/knapen_aot/videos/R_S_production_ID_3943334.mp4	0.0	482.18834710121155	0.09995889663696289
68	187.1406009197235	response	2	2		66.0	2.5	/experiments/knapen_aot/videos/R_S_production_ID_3943334.mp4	0.0	482.2550849914551	
69	187.17382192611694	fix_pre	0		34.0	67.0	2.5	/experiments/knapen_aot/videos/S_yt-WFiEvQuOqqg_18.mp4	0.0	482.2883059978485	0.2833271026611328
69	187.44892597198486	response	0	2		67.0	2.5	/experiments/knapen_aot/videos/S_yt-WFiEvQuOqqg_18.mp4	0.0	482.56341004371643	
69	187.45714902877808	movie	1		301.0	67.0	2.5	/experiments/knapen_aot/videos/S_yt-WFiEvQuOqqg_18.mp4	0.0	482.57163310050964	2.5083799362182617
69	189.96552896499634	fix_post	2		12.0	67.0	2.5	/experiments/knapen_aot/videos/S_yt-WFiEvQuOqqg_18.mp4	0.0	485.0800130367279	0.09990406036376953
70	190.0654330253601	fix_pre	0		11.0	68.0	2.5	blank	1.0	485.1799170970917	0.09163498878479004
70	190.1488950252533	response	0	2		68.0	2.5	blank	1.0	485.26337909698486	
70	190.1570680141449	movie	1		301.0	68.0	2.5	blank	1.0	485.27155208587646	2.5083909034729004
70	192.6654589176178	fix_post	2		12.0	68.0	2.5	blank	1.0	487.77994298934937	0.09999513626098633
71	192.76545405387878	fix_pre	0		11.0	69.0	2.5	/experiments/knapen_aot/videos/S_yt-GbL63AmOIss_116.mp4	0.0	487.87993812561035	0.09213590621948242
71	192.84887790679932	response	0	2		69.0	2.5	/experiments/knapen_aot/videos/S_yt-GbL63AmOIss_116.mp4	0.0	487.9633619785309	
71	192.85758996009827	movie	1		301.0	69.0	2.5	/experiments/knapen_aot/videos/S_yt-GbL63AmOIss_116.mp4	0.0	487.97207403182983	2.5079710483551025
71	195.36556100845337	fix_post	2		12.0	69.0	2.5	/experiments/knapen_aot/videos/S_yt-GbL63AmOIss_116.mp4	0.0	490.48004508018494	0.09993600845336914
72	195.46549701690674	fix_pre	0		15.0	70.0	2.5	/experiments/knapen_aot/videos/R_S_yt-RVoC19C420Y_27.mp4	0.0	490.5799810886383	0.12496781349182129
72	195.58221983909607	response	0	2		70.0	2.5	/experiments/knapen_aot/videos/R_S_yt-RVoC19C420Y_27.mp4	0.0	490.69670391082764	
72	195.59046483039856	movie	1		301.0	70.0	2.5	/experiments/knapen_aot/videos/R_S_yt-RVoC19C420Y_27.mp4	0.0	490.7049489021301	2.5083160400390625
72	198.09878087043762	fix_post	2		12.0	70.0	2.5	/experiments/knapen_aot/videos/R_S_yt-RVoC19C420Y_27.mp4	0.0	493.2132649421692	0.10003805160522461
73	198.19881892204285	fix_pre	0		4.0	71.0	2.5	/experiments/knapen_aot/videos/S_yt-xgqx7tH92-c_6.mp4	0.0	493.3133029937744	0.03401303291320801
73	198.2239580154419	response	0	2		71.0	2.5	/experiments/knapen_aot/videos/S_yt-xgqx7tH92-c_6.mp4	0.0	493.33844208717346	
73	198.23283195495605	movie	1		301.0	71.0	2.5	/experiments/knapen_aot/videos/S_yt-xgqx7tH92-c_6.mp4	0.0	493.3473160266876	2.507657051086426
73	200.74048900604248	fix_post	2		12.0	71.0	2.5	/experiments/knapen_aot/videos/S_yt-xgqx7tH92-c_6.mp4	0.0	495.85497307777405	0.09998798370361328
74	200.8404769897461	fix_pre	0		9.0	72.0	2.5	/experiments/knapen_aot/videos/S_yt-SjPYdaUBi7A_37.mp4	0.0	495.95496106147766	0.07492804527282715
74	200.90718483924866	response	0	2		72.0	2.5	/experiments/knapen_aot/videos/S_yt-SjPYdaUBi7A_37.mp4	0.0	496.0216689109802	
74	200.91540503501892	movie	1		301.0	72.0	2.5	/experiments/knapen_aot/videos/S_yt-SjPYdaUBi7A_37.mp4	0.0	496.0298891067505	2.5083680152893066
74	203.42377305030823	fix_post	2		12.0	72.0	2.5	/experiments/knapen_aot/videos/S_yt-SjPYdaUBi7A_37.mp4	0.0	498.5382571220398	0.10048794746398926
75	203.52426099777222	fix_pre	0		33.0	73.0	2.5	/experiments/knapen_aot/videos/R_S_yt-cjndulbUtRc_51.mp4	0.0	498.6387450695038	0.2745058536529541
75	203.79054999351501	response	0	2		73.0	2.5	/experiments/knapen_aot/videos/R_S_yt-cjndulbUtRc_51.mp4	0.0	498.9050340652466	
75	203.79876685142517	movie	1		301.0	73.0	2.5	/experiments/knapen_aot/videos/R_S_yt-cjndulbUtRc_51.mp4	0.0	498.91325092315674	2.5085630416870117
75	206.30732989311218	fix_post	2		12.0	73.0	2.5	/experiments/knapen_aot/videos/R_S_yt-cjndulbUtRc_51.mp4	0.0	501.42181396484375	0.09979414939880371
76	206.407124042511	fix_pre	0		15.0	74.0	2.5	/experiments/knapen_aot/videos/S_ILSVRC2015_train_00067005.mp4	0.0	501.52160811424255	0.12488889694213867
76	206.52381992340088	response	0	2		74.0	2.5	/experiments/knapen_aot/videos/S_ILSVRC2015_train_00067005.mp4	0.0	501.63830399513245	
76	206.53201293945312	movie	1		301.0	74.0	2.5	/experiments/knapen_aot/videos/S_ILSVRC2015_train_00067005.mp4	0.0	501.6464970111847	2.508439064025879
76	209.040452003479	fix_post	2		12.0	74.0	2.5	/experiments/knapen_aot/videos/S_ILSVRC2015_train_00067005.mp4	0.0	504.15493607521057	0.09997296333312988
77	209.14042496681213	fix_pre	0		4.0	75.0	2.5	/experiments/knapen_aot/videos/S_wc-jujp1kJRHrkJ_54.mp4	0.0	504.2549090385437	0.03332400321960449
77	209.1655569076538	response	0	2		75.0	2.5	/experiments/knapen_aot/videos/S_wc-jujp1kJRHrkJ_54.mp4	0.0	504.2800409793854	
77	209.17374897003174	movie	1		301.0	75.0	2.5	/experiments/knapen_aot/videos/S_wc-jujp1kJRHrkJ_54.mp4	0.0	504.2882330417633	2.5082578659057617
77	211.6820068359375	fix_post	2		12.0	75.0	2.5	/experiments/knapen_aot/videos/S_wc-jujp1kJRHrkJ_54.mp4	0.0	506.79649090766907	0.10032200813293457
78	211.78232884407043	fix_pre	0		12.0	76.0	2.5	/experiments/knapen_aot/videos/S_yt-l_pvPAznG1A_20.mp4	0.0	506.896812915802	0.09967517852783203
78	211.87383794784546	response	0	2		76.0	2.5	/experiments/knapen_aot/videos/S_yt-l_pvPAznG1A_20.mp4	0.0	506.988322019577	
78	211.88200402259827	movie	1		301.0	76.0	2.5	/experiments/knapen_aot/videos/S_yt-l_pvPAznG1A_20.mp4	0.0	506.99648809432983	2.5084238052368164
78	214.39042782783508	fix_post	2		12.0	76.0	2.5	/experiments/knapen_aot/videos/S_yt-l_pvPAznG1A_20.mp4	0.0	509.50491189956665	0.10007810592651367
79	214.4905059337616	fix_pre	0		3.0	77.0	2.5	blank	1.0	509.60499000549316	0.024852991104125977
79	214.5071668624878	response	0	2		77.0	2.5	blank	1.0	509.62165093421936	
79	214.51535892486572	movie	1		301.0	77.0	2.5	blank	1.0	509.6298429965973	2.5084381103515625
79	217.02379703521729	fix_post	2		12.0	77.0	2.5	blank	1.0	512.1382811069489	0.09994196891784668
80	217.12373900413513	fix_pre	0		9.0	78.0	2.5	/experiments/knapen_aot/videos/R_S_yt_R-JarqKC4X8nM_4.mp4	0.0	512.2382230758667	0.0749368667602539
80	217.1904559135437	response	0	2		78.0	2.5	/experiments/knapen_aot/videos/R_S_yt_R-JarqKC4X8nM_4.mp4	0.0	512.3049399852753	
80	217.19867587089539	movie	1		301.0	78.0	2.5	/experiments/knapen_aot/videos/R_S_yt_R-JarqKC4X8nM_4.mp4	0.0	512.313159942627	2.5083000659942627
80	219.70697593688965	fix_post	2		12.0	78.0	2.5	/experiments/knapen_aot/videos/R_S_yt_R-JarqKC4X8nM_4.mp4	0.0	514.8214600086212	0.10009407997131348
81	219.80707001686096	fix_pre	0		4.0	79.0	2.5	/experiments/knapen_aot/videos/R_S_pexels-cottonbro-6789228.mp4	0.0	514.9215540885925	0.03328680992126465
81	219.8322238922119	response	0	2		79.0	2.5	/experiments/knapen_aot/videos/R_S_pexels-cottonbro-6789228.mp4	0.0	514.9467079639435	
81	219.84035682678223	movie	1		205.0	79.0	2.5	/experiments/knapen_aot/videos/R_S_pexels-cottonbro-6789228.mp4	0.0	514.9548408985138	2.5083491802215576
81	222.34870600700378	fix_post	2		12.0	79.0	2.5	/experiments/knapen_aot/videos/R_S_pexels-cottonbro-6789228.mp4	0.0	517.4631900787354	0.10008692741394043
82	222.44879293441772	fix_pre	0		4.0	80.0	2.5	/experiments/knapen_aot/videos/R_S_yt-tNCrkObhB6c_17.mp4	0.0	517.5632770061493	0.033731937408447266
82	222.47387099266052	response	0	2		80.0	2.5	/experiments/knapen_aot/videos/R_S_yt-tNCrkObhB6c_17.mp4	0.0	517.5883550643921	
82	222.48252487182617	movie	1		301.0	80.0	2.5	/experiments/knapen_aot/videos/R_S_yt-tNCrkObhB6c_17.mp4	0.0	517.5970089435577	2.5078470706939697
82	224.99037194252014	fix_post	2		12.0	80.0	2.5	/experiments/knapen_aot/videos/R_S_yt-tNCrkObhB6c_17.mp4	0.0	520.1048560142517	0.10019993782043457
82	225.04042792320251	response	2	2		80.0	2.5	/experiments/knapen_aot/videos/R_S_yt-tNCrkObhB6c_17.mp4	0.0	520.1549119949341	
83	225.09057188034058	fix_pre	0		40.0	81.0	2.5	/experiments/knapen_aot/videos/R_S_yt-CEQnXB0LxQU_278.mp4	0.0	520.2050559520721	0.33304405212402344
83	225.41541290283203	response	0	2		81.0	2.5	/experiments/knapen_aot/videos/R_S_yt-CEQnXB0LxQU_278.mp4	0.0	520.5298969745636	
83	225.4236159324646	movie	1		301.0	81.0	2.5	/experiments/knapen_aot/videos/R_S_yt-CEQnXB0LxQU_278.mp4	0.0	520.5381000041962	2.5085439682006836
83	227.93215990066528	fix_post	2		12.0	81.0	2.5	/experiments/knapen_aot/videos/R_S_yt-CEQnXB0LxQU_278.mp4	0.0	523.0466439723969	0.09994792938232422
84	228.0321078300476	fix_pre	0		11.0	82.0	2.5	/experiments/knapen_aot/videos/R_S_ILSVRC2015_train_00654000.mp4	0.0	523.1465919017792	0.09153604507446289
84	228.1154749393463	response	0	2		82.0	2.5	/experiments/knapen_aot/videos/R_S_ILSVRC2015_train_00654000.mp4	0.0	523.2299590110779	
84	228.12364387512207	movie	1		301.0	82.0	2.5	/experiments/knapen_aot/videos/R_S_ILSVRC2015_train_00654000.mp4	0.0	523.2381279468536	2.508345127105713
84	230.63198900222778	fix_post	2		12.0	82.0	2.5	/experiments/knapen_aot/videos/R_S_ILSVRC2015_train_00654000.mp4	0.0	525.7464730739594	0.10036301612854004
85	230.73235201835632	fix_pre	0		15.0	83.0	2.5	blank	1.0	525.8468360900879	0.12504887580871582
85	230.8487639427185	response	0	2		83.0	2.5	blank	1.0	525.9632480144501	
85	230.85740089416504	movie	1		301.0	83.0	2.5	blank	1.0	525.9718849658966	2.5079400539398193
85	233.36534094810486	fix_post	2		12.0	83.0	2.5	blank	1.0	528.4798250198364	0.0999910831451416
87	233.46533203125	stim	0		145.0					528.5798161029816	1.2082669734954834
87	233.56543493270874	response	0	2						528.6799190044403	
87	234.66613602638245	response	0	space						529.780620098114	
