trial_nr	onset	event_type	phase	response	nr_frames	movie_index	movie_duration	movie_file	blank	onset_abs	duration
0	0.1586010456085205	stim	0		102.0					140.8777050971985	0.8498709201812744
0	1.0001499652862549	response	0	space						141.71925401687622	
1	1.008471965789795	stim	0		121.0					141.72757601737976	1.0079030990600586
1	1.5917348861694336	response	0	space						142.3108389377594	
1	2.0163750648498535	stim	1		120.0					142.73547911643982	1.0000739097595215
1	2.0414528846740723	response	1	space						142.76055693626404	
1	2.491473913192749	response	1	space						143.21057796478271	
2	3.016448974609375	fix_pre	0		18.0	0.0	2.5	/experiments/knapen_aot/oldvideos/R_S_yt-6KJ_yZR-Jco_14.mp4	0.0	143.73555302619934	0.14988088607788086
2	3.158066987991333	response	0	space		0.0	2.5	/experiments/knapen_aot/oldvideos/R_S_yt-6KJ_yZR-Jco_14.mp4	0.0	143.8771710395813	
2	3.166329860687256	movie	1		300.0	0.0	2.5	/experiments/knapen_aot/oldvideos/R_S_yt-6KJ_yZR-Jco_14.mp4	0.0	143.88543391227722	2.5083181858062744
2	5.67464804649353	fix_post	2		12.0	0.0	2.5	/experiments/knapen_aot/oldvideos/R_S_yt-6KJ_yZR-Jco_14.mp4	0.0	146.3937520980835	0.10001301765441895
3	5.774661064147949	fix_pre	0		103.0	1.0	2.5	/experiments/knapen_aot/oldvideos/S_comp_A001_C004_1207W5_v23_SDR_FINAL_20180706_SDR_2K_AVC.mp4	0.0	146.49376511573792	0.8625538349151611
3	6.6288440227508545	response	0	4		1.0	2.5	/experiments/knapen_aot/oldvideos/S_comp_A001_C004_1207W5_v23_SDR_FINAL_20180706_SDR_2K_AVC.mp4	0.0	147.34794807434082	
3	6.63721489906311	movie	1		165.0	1.0	2.5	/experiments/knapen_aot/oldvideos/S_comp_A001_C004_1207W5_v23_SDR_FINAL_20180706_SDR_2K_AVC.mp4	0.0	147.35631895065308	2.5040950775146484
3	9.141309976577759	fix_post	2		12.0	1.0	2.5	/experiments/knapen_aot/oldvideos/S_comp_A001_C004_1207W5_v23_SDR_FINAL_20180706_SDR_2K_AVC.mp4	0.0	149.86041402816772	0.1003260612487793
4	9.241636037826538	fix_pre	0		36.0	2.0	2.5	/experiments/knapen_aot/oldvideos/S_production_ID_4101309.mp4	0.0	149.9607400894165	0.29967188835144043
4	9.533107995986938	response	0	4		2.0	2.5	/experiments/knapen_aot/oldvideos/S_production_ID_4101309.mp4	0.0	150.2522120475769	
4	9.541307926177979	movie	1		193.0	2.0	2.5	/experiments/knapen_aot/oldvideos/S_production_ID_4101309.mp4	0.0	150.26041197776794	2.508378028869629
4	12.049685955047607	fix_post	2		12.0	2.0	2.5	/experiments/knapen_aot/oldvideos/S_production_ID_4101309.mp4	0.0	152.76879000663757	0.09998798370361328
5	12.14967393875122	fix_pre	0		50.0	3.0	2.5	/experiments/knapen_aot/oldvideos/S_yt-7NjoFHBdP7c_102.mp4	0.0	152.8687779903412	0.41662001609802246
5	12.55816102027893	response	0	4		3.0	2.5	/experiments/knapen_aot/oldvideos/S_yt-7NjoFHBdP7c_102.mp4	0.0	153.2772650718689	
5	12.566293954849243	movie	1		301.0	3.0	2.5	/experiments/knapen_aot/oldvideos/S_yt-7NjoFHBdP7c_102.mp4	0.0	153.2853980064392	2.5083720684051514
5	15.074666023254395	fix_post	2		12.0	3.0	2.5	/experiments/knapen_aot/oldvideos/S_yt-7NjoFHBdP7c_102.mp4	0.0	155.79377007484436	0.09996485710144043
6	15.174630880355835	fix_pre	0		21.0	4.0	2.5	/experiments/knapen_aot/oldvideos/R_S_yt-dQRqGgpS9mE_288.mp4	0.0	155.8937349319458	0.17498111724853516
6	15.341426849365234	response	0	4		4.0	2.5	/experiments/knapen_aot/oldvideos/R_S_yt-dQRqGgpS9mE_288.mp4	0.0	156.0605309009552	
6	15.34961199760437	movie	1		301.0	4.0	2.5	/experiments/knapen_aot/oldvideos/R_S_yt-dQRqGgpS9mE_288.mp4	0.0	156.06871604919434	2.508539915084839
6	17.85815191268921	fix_post	2		12.0	4.0	2.5	/experiments/knapen_aot/oldvideos/R_S_yt-dQRqGgpS9mE_288.mp4	0.0	158.57725596427917	0.09983611106872559
7	17.957988023757935	fix_pre	0		22.0	5.0	2.5	blank	1.0	158.6770920753479	0.18329191207885742
7	18.133055925369263	response	0	4		5.0	2.5	blank	1.0	158.85215997695923	
7	18.141279935836792	movie	1		301.0	5.0	2.5	blank	1.0	158.86038398742676	2.5082991123199463
7	20.64957904815674	fix_post	2		12.0	5.0	2.5	blank	1.0	161.3686830997467	0.1000969409942627
8	20.749675989151	fix_pre	0		43.0	6.0	2.5	/experiments/knapen_aot/oldvideos/S_video_inspire_uk_edinburgh_arthursseat_010.1080-h264.mp4	0.0	161.46878004074097	0.35820794105529785
8	21.099681854248047	response	0	4		6.0	2.5	/experiments/knapen_aot/oldvideos/S_video_inspire_uk_edinburgh_arthursseat_010.1080-h264.mp4	0.0	161.818785905838	
8	21.1078839302063	movie	1		169.0	6.0	2.5	/experiments/knapen_aot/oldvideos/S_video_inspire_uk_edinburgh_arthursseat_010.1080-h264.mp4	0.0	161.82698798179626	2.5084750652313232
8	23.616358995437622	fix_post	2		12.0	6.0	2.5	/experiments/knapen_aot/oldvideos/S_video_inspire_uk_edinburgh_arthursseat_010.1080-h264.mp4	0.0	164.3354630470276	0.09990787506103516
9	23.716266870498657	fix_pre	0		5.0	7.0	2.5	/experiments/knapen_aot/oldvideos/S_yt-Pinnv3-3GFU_452.mp4	0.0	164.43537092208862	0.04165506362915039
9	23.74970507621765	response	0	4		7.0	2.5	/experiments/knapen_aot/oldvideos/S_yt-Pinnv3-3GFU_452.mp4	0.0	164.46880912780762	
9	23.757921934127808	movie	1		301.0	7.0	2.5	/experiments/knapen_aot/oldvideos/S_yt-Pinnv3-3GFU_452.mp4	0.0	164.47702598571777	2.5083560943603516
9	26.26627802848816	fix_post	2		12.0	7.0	2.5	/experiments/knapen_aot/oldvideos/S_yt-Pinnv3-3GFU_452.mp4	0.0	166.98538208007812	0.09999203681945801
10	26.366270065307617	fix_pre	0		157.0	8.0	2.5	/experiments/knapen_aot/oldvideos/S_m-aeoYPMqfg_185.mp4	0.0	167.08537411689758	1.308318853378296
10	27.666373014450073	response	0	4		8.0	2.5	/experiments/knapen_aot/oldvideos/S_m-aeoYPMqfg_185.mp4	0.0	168.38547706604004	
10	27.674588918685913	movie	1		301.0	8.0	2.5	/experiments/knapen_aot/oldvideos/S_m-aeoYPMqfg_185.mp4	0.0	168.39369297027588	2.5083351135253906
10	30.182924032211304	fix_post	2		12.0	8.0	2.5	/experiments/knapen_aot/oldvideos/S_m-aeoYPMqfg_185.mp4	0.0	170.90202808380127	0.0999898910522461
11	30.28291392326355	fix_pre	0		23.0	9.0	2.5	/experiments/knapen_aot/oldvideos/R_S_ILSVRC2015_train_00638001.mp4	0.0	171.00201797485352	0.19153308868408203
11	30.466381072998047	response	0	4		9.0	2.5	/experiments/knapen_aot/oldvideos/R_S_ILSVRC2015_train_00638001.mp4	0.0	171.185485124588	
11	30.474447011947632	movie	1		301.0	9.0	2.5	/experiments/knapen_aot/oldvideos/R_S_ILSVRC2015_train_00638001.mp4	0.0	171.1935510635376	2.5086100101470947
11	32.98305702209473	fix_post	2		12.0	9.0	2.5	/experiments/knapen_aot/oldvideos/R_S_ILSVRC2015_train_00638001.mp4	0.0	173.7021610736847	0.09985089302062988
12	33.082907915115356	fix_pre	0		22.0	10.0	2.5	/experiments/knapen_aot/oldvideos/R_S_yt-5doJmCcFL7s_3.mp4	0.0	173.80201196670532	0.18329715728759766
12	33.25789189338684	response	0	4		10.0	2.5	/experiments/knapen_aot/oldvideos/R_S_yt-5doJmCcFL7s_3.mp4	0.0	173.9769959449768	
12	33.266205072402954	movie	1		301.0	10.0	2.5	/experiments/knapen_aot/oldvideos/R_S_yt-5doJmCcFL7s_3.mp4	0.0	173.98530912399292	2.5083417892456055
12	35.77454686164856	fix_post	2		12.0	10.0	2.5	/experiments/knapen_aot/oldvideos/R_S_yt-5doJmCcFL7s_3.mp4	0.0	176.49365091323853	0.10010218620300293
13	35.87464904785156	fix_pre	0		25.0	11.0	2.5	/experiments/knapen_aot/oldvideos/R_S_yt-b7bIulV49DQ_81.mp4	0.0	176.59375309944153	0.2082970142364502
13	36.06707000732422	response	0	4		11.0	2.5	/experiments/knapen_aot/oldvideos/R_S_yt-b7bIulV49DQ_81.mp4	0.0	176.78617405891418	
13	36.08294606208801	movie	1		301.0	11.0	2.5	/experiments/knapen_aot/oldvideos/R_S_yt-b7bIulV49DQ_81.mp4	0.0	176.80205011367798	2.508180856704712
13	38.591126918792725	fix_post	2		12.0	11.0	2.5	/experiments/knapen_aot/oldvideos/R_S_yt-b7bIulV49DQ_81.mp4	0.0	179.3102309703827	0.10004115104675293
13	38.59289288520813	response	2	4		11.0	2.5	/experiments/knapen_aot/oldvideos/R_S_yt-b7bIulV49DQ_81.mp4	0.0	179.3119969367981	
14	38.69116806983948	fix_pre	0		59.0	12.0	2.5	/experiments/knapen_aot/oldvideos/S_yt-RlHmMGUjT9E_130.mp4	0.0	179.41027212142944	0.49169397354125977
14	39.17456293106079	response	0	4		12.0	2.5	/experiments/knapen_aot/oldvideos/S_yt-RlHmMGUjT9E_130.mp4	0.0	179.89366698265076	
14	39.18286204338074	movie	1		301.0	12.0	2.5	/experiments/knapen_aot/oldvideos/S_yt-RlHmMGUjT9E_130.mp4	0.0	179.9019660949707	2.5083398818969727
14	41.69120192527771	fix_post	2		12.0	12.0	2.5	/experiments/knapen_aot/oldvideos/S_yt-RlHmMGUjT9E_130.mp4	0.0	182.41030597686768	0.10000991821289062
15	41.7912118434906	fix_pre	0		117.0	13.0	2.5	blank	1.0	182.51031589508057	0.9750030040740967
15	42.75035500526428	response	0	4		13.0	2.5	blank	1.0	183.46945905685425	
15	42.7662148475647	movie	1		301.0	13.0	2.5	blank	1.0	183.48531889915466	2.5082972049713135
15	45.27451205253601	fix_post	2		12.0	13.0	2.5	blank	1.0	185.99361610412598	0.10002589225769043
16	45.3745379447937	fix_pre	0		39.0	14.0	2.5	/experiments/knapen_aot/oldvideos/R_S_yt-thmqgEV-sYY_91.mp4	0.0	186.09364199638367	0.32490992546081543
16	45.69124507904053	response	0	4		14.0	2.5	/experiments/knapen_aot/oldvideos/R_S_yt-thmqgEV-sYY_91.mp4	0.0	186.4103491306305	
16	45.69944787025452	movie	1		301.0	14.0	2.5	/experiments/knapen_aot/oldvideos/R_S_yt-thmqgEV-sYY_91.mp4	0.0	186.41855192184448	2.508404016494751
16	48.20785188674927	fix_post	2		12.0	14.0	2.5	/experiments/knapen_aot/oldvideos/R_S_yt-thmqgEV-sYY_91.mp4	0.0	188.92695593833923	0.09998607635498047
17	48.30783796310425	fix_pre	0		48.0	15.0	2.5	/experiments/knapen_aot/oldvideos/S_yt-Ozx_f0a0ZDI_32.mp4	0.0	189.0269420146942	0.39997291564941406
17	48.69962501525879	response	0	4		15.0	2.5	/experiments/knapen_aot/oldvideos/S_yt-Ozx_f0a0ZDI_32.mp4	0.0	189.41872906684875	
17	48.70781087875366	movie	1		301.0	15.0	2.5	/experiments/knapen_aot/oldvideos/S_yt-Ozx_f0a0ZDI_32.mp4	0.0	189.42691493034363	2.508599042892456
17	51.21640992164612	fix_post	2		12.0	15.0	2.5	/experiments/knapen_aot/oldvideos/S_yt-Ozx_f0a0ZDI_32.mp4	0.0	191.93551397323608	0.09974408149719238
18	51.31615400314331	fix_pre	0		29.0	16.0	2.5	/experiments/knapen_aot/oldvideos/R_S_yt-zQnaVApUPH0_14.mp4	0.0	192.03525805473328	0.24174284934997559
18	51.54957604408264	response	0	4		16.0	2.5	/experiments/knapen_aot/oldvideos/R_S_yt-zQnaVApUPH0_14.mp4	0.0	192.2686800956726	
18	51.557896852493286	movie	1		301.0	16.0	2.5	/experiments/knapen_aot/oldvideos/R_S_yt-zQnaVApUPH0_14.mp4	0.0	192.27700090408325	2.508225202560425
18	54.06612205505371	fix_post	2		12.0	16.0	2.5	/experiments/knapen_aot/oldvideos/R_S_yt-zQnaVApUPH0_14.mp4	0.0	194.78522610664368	0.1001138687133789
19	54.16623592376709	fix_pre	0		24.0	17.0	2.5	/experiments/knapen_aot/oldvideos/R_S_yt-h09NHEfoKb0_8.mp4	0.0	194.88533997535706	0.19987797737121582
19	54.3578839302063	response	0	4		17.0	2.5	/experiments/knapen_aot/oldvideos/R_S_yt-h09NHEfoKb0_8.mp4	0.0	195.07698798179626	
19	54.366113901138306	movie	1		301.0	17.0	2.5	/experiments/knapen_aot/oldvideos/R_S_yt-h09NHEfoKb0_8.mp4	0.0	195.08521795272827	2.508341073989868
19	56.874454975128174	fix_post	2		12.0	17.0	2.5	/experiments/knapen_aot/oldvideos/R_S_yt-h09NHEfoKb0_8.mp4	0.0	197.59355902671814	0.09997200965881348
20	56.97442698478699	fix_pre	0		34.0	18.0	2.5	/experiments/knapen_aot/oldvideos/S_yt-6UFUeTKci2o_164.mp4	0.0	197.69353103637695	0.283344030380249
20	57.24958896636963	response	0	4		18.0	2.5	/experiments/knapen_aot/oldvideos/S_yt-6UFUeTKci2o_164.mp4	0.0	197.9686930179596	
20	57.257771015167236	movie	1		301.0	18.0	2.5	/experiments/knapen_aot/oldvideos/S_yt-6UFUeTKci2o_164.mp4	0.0	197.9768750667572	2.5084359645843506
20	59.76620697975159	fix_post	2		12.0	18.0	2.5	/experiments/knapen_aot/oldvideos/S_yt-6UFUeTKci2o_164.mp4	0.0	200.48531103134155	0.09985494613647461
21	59.86606192588806	fix_pre	0		53.0	19.0	2.5	blank	1.0	200.58516597747803	0.44166111946105957
21	60.292019844055176	response	0	4		19.0	2.5	blank	1.0	201.01112389564514	
21	60.30772304534912	movie	1		301.0	19.0	2.5	blank	1.0	201.0268270969391	2.508283853530884
21	62.816006898880005	fix_post	2		12.0	19.0	2.5	blank	1.0	203.53511095046997	0.10009098052978516
22	62.91609787940979	fix_pre	0		48.0	20.0	2.5	/experiments/knapen_aot/oldvideos/R_S_yt-ZTAaH5XbtfE_3.mp4	0.0	203.63520193099976	0.4011650085449219
22	63.307936906814575	response	0	4		20.0	2.5	/experiments/knapen_aot/oldvideos/R_S_yt-ZTAaH5XbtfE_3.mp4	0.0	204.02704095840454	
22	63.31726288795471	movie	1		301.0	20.0	2.5	/experiments/knapen_aot/oldvideos/R_S_yt-ZTAaH5XbtfE_3.mp4	0.0	204.03636693954468	2.5071520805358887
22	65.8244149684906	fix_post	2		12.0	20.0	2.5	/experiments/knapen_aot/oldvideos/R_S_yt-ZTAaH5XbtfE_3.mp4	0.0	206.54351902008057	0.10005307197570801
23	65.92446804046631	fix_pre	0		22.0	21.0	2.5	/experiments/knapen_aot/oldvideos/S_yt-V5iQ3MbihnI_103.mp4	0.0	206.64357209205627	0.18445801734924316
23	66.09950399398804	response	0	4		21.0	2.5	/experiments/knapen_aot/oldvideos/S_yt-V5iQ3MbihnI_103.mp4	0.0	206.818608045578	
23	66.10892605781555	movie	1		301.0	21.0	2.5	/experiments/knapen_aot/oldvideos/S_yt-V5iQ3MbihnI_103.mp4	0.0	206.82803010940552	2.5071589946746826
23	68.61608505249023	fix_post	2		12.0	21.0	2.5	/experiments/knapen_aot/oldvideos/S_yt-V5iQ3MbihnI_103.mp4	0.0	209.3351891040802	0.09998679161071777
24	68.71607184410095	fix_pre	0		271.0	22.0	2.5	/experiments/knapen_aot/oldvideos/R_S_production_ID_4101309.mp4	0.0	209.43517589569092	2.2582781314849854
24	70.95866107940674	response	0	4		22.0	2.5	/experiments/knapen_aot/oldvideos/R_S_production_ID_4101309.mp4	0.0	211.6777651309967	
24	70.97434997558594	movie	1		204.0	22.0	2.5	/experiments/knapen_aot/oldvideos/R_S_production_ID_4101309.mp4	0.0	211.6934540271759	2.508315086364746
24	73.48266506195068	fix_post	2		12.0	22.0	2.5	/experiments/knapen_aot/oldvideos/R_S_production_ID_4101309.mp4	0.0	214.20176911354065	0.1000669002532959
25	73.58273196220398	fix_pre	0		88.0	23.0	2.5	/experiments/knapen_aot/oldvideos/S_ILSVRC2015_train_00418001.mp4	0.0	214.30183601379395	0.7344160079956055
25	74.30776786804199	response	0	4		23.0	2.5	/experiments/knapen_aot/oldvideos/S_ILSVRC2015_train_00418001.mp4	0.0	215.02687191963196	
25	74.31714797019958	movie	1		301.0	23.0	2.5	/experiments/knapen_aot/oldvideos/S_ILSVRC2015_train_00418001.mp4	0.0	215.03625202178955	2.5072128772735596
25	76.82436084747314	fix_post	2		12.0	23.0	2.5	/experiments/knapen_aot/oldvideos/S_ILSVRC2015_train_00418001.mp4	0.0	217.5434648990631	0.10007619857788086
26	76.92443704605103	fix_pre	0		15.0	24.0	2.5	/experiments/knapen_aot/oldvideos/S_yt-qiPhBL4lBr0_44.mp4	0.0	217.643541097641	0.12491083145141602
26	77.04112005233765	response	0	4		24.0	2.5	/experiments/knapen_aot/oldvideos/S_yt-qiPhBL4lBr0_44.mp4	0.0	217.7602241039276	
26	77.04934787750244	movie	1		301.0	24.0	2.5	/experiments/knapen_aot/oldvideos/S_yt-qiPhBL4lBr0_44.mp4	0.0	217.7684519290924	2.5083680152893066
26	79.55771589279175	fix_post	2		12.0	24.0	2.5	/experiments/knapen_aot/oldvideos/S_yt-qiPhBL4lBr0_44.mp4	0.0	220.2768199443817	0.09990811347961426
27	79.65762400627136	fix_pre	0		25.0	25.0	2.5	/experiments/knapen_aot/oldvideos/R_S_pexels-anna-tarazevich-6189268.mp4	0.0	220.37672805786133	0.20839285850524902
27	79.85777306556702	response	0	4		25.0	2.5	/experiments/knapen_aot/oldvideos/R_S_pexels-anna-tarazevich-6189268.mp4	0.0	220.57687711715698	
27	79.86601686477661	movie	1		217.0	25.0	2.5	/experiments/knapen_aot/oldvideos/R_S_pexels-anna-tarazevich-6189268.mp4	0.0	220.58512091636658	2.508294105529785
27	82.3743109703064	fix_post	2		12.0	25.0	2.5	/experiments/knapen_aot/oldvideos/R_S_pexels-anna-tarazevich-6189268.mp4	0.0	223.09341502189636	0.10001802444458008
28	82.47432899475098	fix_pre	0		70.0	26.0	2.5	blank	1.0	223.19343304634094	0.5833308696746826
28	83.04947996139526	response	0	4		26.0	2.5	blank	1.0	223.76858401298523	
28	83.05765986442566	movie	1		301.0	26.0	2.5	blank	1.0	223.77676391601562	2.5083391666412354
28	85.5659990310669	fix_post	2		12.0	26.0	2.5	blank	1.0	226.28510308265686	0.09997200965881348
29	85.66597104072571	fix_pre	0		119.0	27.0	2.5	/experiments/knapen_aot/oldvideos/S_yt-1n1jTroiwJs_163.mp4	0.0	226.38507509231567	0.9916219711303711
29	86.64942693710327	response	0	4		27.0	2.5	/experiments/knapen_aot/oldvideos/S_yt-1n1jTroiwJs_163.mp4	0.0	227.36853098869324	
29	86.65759301185608	movie	1		301.0	27.0	2.5	/experiments/knapen_aot/oldvideos/S_yt-1n1jTroiwJs_163.mp4	0.0	227.37669706344604	2.5084259510040283
29	89.16601896286011	fix_post	2		12.0	27.0	2.5	/experiments/knapen_aot/oldvideos/S_yt-1n1jTroiwJs_163.mp4	0.0	229.88512301445007	0.09998011589050293
30	89.26599907875061	fix_pre	0		21.0	28.0	2.5	/experiments/knapen_aot/oldvideos/R_S_yt-6KJ_yZR-Jco_14.mp4	0.0	229.98510313034058	0.1760540008544922
30	89.432785987854	response	0	4		28.0	2.5	/experiments/knapen_aot/oldvideos/R_S_yt-6KJ_yZR-Jco_14.mp4	0.0	230.15189003944397	
30	89.4420530796051	movie	1		301.0	28.0	2.5	/experiments/knapen_aot/oldvideos/R_S_yt-6KJ_yZR-Jco_14.mp4	0.0	230.16115713119507	2.5073537826538086
30	91.94940686225891	fix_post	2		12.0	28.0	2.5	/experiments/knapen_aot/oldvideos/R_S_yt-6KJ_yZR-Jco_14.mp4	0.0	232.66851091384888	0.09987401962280273
31	92.04928088188171	fix_pre	0		43.0	29.0	2.5	/experiments/knapen_aot/oldvideos/S_flickr-53807584@N00-5566422012_16.mp4	0.0	232.76838493347168	0.3582921028137207
31	92.39943099021912	response	0	4		29.0	2.5	/experiments/knapen_aot/oldvideos/S_flickr-53807584@N00-5566422012_16.mp4	0.0	233.11853504180908	
31	92.40757298469543	movie	1		301.0	29.0	2.5	/experiments/knapen_aot/oldvideos/S_flickr-53807584@N00-5566422012_16.mp4	0.0	233.1266770362854	2.508368968963623
31	94.91594195365906	fix_post	2		12.0	29.0	2.5	/experiments/knapen_aot/oldvideos/S_flickr-53807584@N00-5566422012_16.mp4	0.0	235.63504600524902	0.10001111030578613
32	95.01595306396484	fix_pre	0		35.0	30.0	2.5	/experiments/knapen_aot/oldvideos/R_S_yt-x7TqP8l4lCA_39.mp4	0.0	235.7350571155548	0.2915518283843994
32	95.29943704605103	response	0	4		30.0	2.5	/experiments/knapen_aot/oldvideos/R_S_yt-x7TqP8l4lCA_39.mp4	0.0	236.018541097641	
32	95.30750489234924	movie	1		301.0	30.0	2.5	/experiments/knapen_aot/oldvideos/R_S_yt-x7TqP8l4lCA_39.mp4	0.0	236.0266089439392	2.508568048477173
32	97.81607294082642	fix_post	2		12.0	30.0	2.5	/experiments/knapen_aot/oldvideos/R_S_yt-x7TqP8l4lCA_39.mp4	0.0	238.53517699241638	0.0998830795288086
33	97.91595602035522	fix_pre	0		25.0	31.0	2.5	/experiments/knapen_aot/oldvideos/R_S_ILSVRC2015_train_00518001.mp4	0.0	238.6350600719452	0.20832490921020508
33	98.11606287956238	response	0	4		31.0	2.5	/experiments/knapen_aot/oldvideos/R_S_ILSVRC2015_train_00518001.mp4	0.0	238.83516693115234	
33	98.12428092956543	movie	1		301.0	31.0	2.5	/experiments/knapen_aot/oldvideos/R_S_ILSVRC2015_train_00518001.mp4	0.0	238.8433849811554	2.5083320140838623
33	100.63261294364929	fix_post	2		12.0	31.0	2.5	/experiments/knapen_aot/oldvideos/R_S_ILSVRC2015_train_00518001.mp4	0.0	241.35171699523926	0.09993410110473633
34	100.73254704475403	fix_pre	0		28.0	32.0	2.5	/experiments/knapen_aot/oldvideos/R_S_pexels-tima-miroshnichenko-5717005.mp4	0.0	241.451651096344	0.23336386680603027
34	100.95773005485535	response	0	4		32.0	2.5	/experiments/knapen_aot/oldvideos/R_S_pexels-tima-miroshnichenko-5717005.mp4	0.0	241.6768341064453	
34	100.96591091156006	movie	1		167.0	32.0	2.5	/experiments/knapen_aot/oldvideos/R_S_pexels-tima-miroshnichenko-5717005.mp4	0.0	241.68501496315002	2.508376121520996
34	103.47428703308105	fix_post	2		12.0	32.0	2.5	/experiments/knapen_aot/oldvideos/R_S_pexels-tima-miroshnichenko-5717005.mp4	0.0	244.19339108467102	0.0999758243560791
35	103.57426285743713	fix_pre	0		25.0	33.0	2.5	blank	1.0	244.2933669090271	0.20829415321350098
35	103.77439403533936	response	0	4		33.0	2.5	blank	1.0	244.49349808692932	
35	103.78255701065063	movie	1		301.0	33.0	2.5	blank	1.0	244.5016610622406	2.508389949798584
35	106.29094696044922	fix_post	2		12.0	33.0	2.5	blank	1.0	247.01005101203918	0.10006093978881836
36	106.39100790023804	fix_pre	0		116.0	34.0	2.5	/experiments/knapen_aot/oldvideos/S_yt-_xfncCRYpII_32.mp4	0.0	247.110111951828	0.9674351215362549
36	107.3492820262909	response	0	4		34.0	2.5	/experiments/knapen_aot/oldvideos/S_yt-_xfncCRYpII_32.mp4	0.0	248.06838607788086	
36	107.35844302177429	movie	1		301.0	34.0	2.5	/experiments/knapen_aot/oldvideos/S_yt-_xfncCRYpII_32.mp4	0.0	248.07754707336426	2.507506847381592
36	109.86594986915588	fix_post	2		12.0	34.0	2.5	/experiments/knapen_aot/oldvideos/S_yt-_xfncCRYpII_32.mp4	0.0	250.58505392074585	0.0999600887298584
37	109.96590995788574	fix_pre	0		91.0	35.0	2.5	/experiments/knapen_aot/oldvideos/S_yt-s2tZ2NIQrxg_175.mp4	0.0	250.6850140094757	0.7582991123199463
37	110.71617889404297	response	0	4		35.0	2.5	/experiments/knapen_aot/oldvideos/S_yt-s2tZ2NIQrxg_175.mp4	0.0	251.43528294563293	
37	110.72420907020569	movie	1		301.0	35.0	2.5	/experiments/knapen_aot/oldvideos/S_yt-s2tZ2NIQrxg_175.mp4	0.0	251.44331312179565	2.5083539485931396
37	113.23256301879883	fix_post	2		12.0	35.0	2.5	/experiments/knapen_aot/oldvideos/S_yt-s2tZ2NIQrxg_175.mp4	0.0	253.9516670703888	0.10023689270019531
38	113.33279991149902	fix_pre	0		25.0	36.0	2.5	/experiments/knapen_aot/oldvideos/R_S_yt-wnQFgNEnHUI_109.mp4	0.0	254.051903963089	0.20813298225402832
38	113.5326759815216	response	0	4		36.0	2.5	/experiments/knapen_aot/oldvideos/R_S_yt-wnQFgNEnHUI_109.mp4	0.0	254.25178003311157	
38	113.54093289375305	movie	1		301.0	36.0	2.5	/experiments/knapen_aot/oldvideos/R_S_yt-wnQFgNEnHUI_109.mp4	0.0	254.26003694534302	2.508558988571167
38	116.04949188232422	fix_post	2		12.0	36.0	2.5	/experiments/knapen_aot/oldvideos/R_S_yt-wnQFgNEnHUI_109.mp4	0.0	256.7685959339142	0.09970712661743164
39	116.14919900894165	fix_pre	0		8.0	37.0	2.5	/experiments/knapen_aot/oldvideos/R_S_yt-xrWo3lnbshw_80.mp4	0.0	256.8683030605316	0.06665802001953125
39	116.20757794380188	response	0	4		37.0	2.5	/experiments/knapen_aot/oldvideos/R_S_yt-xrWo3lnbshw_80.mp4	0.0	256.92668199539185	
39	116.21585702896118	movie	1		301.0	37.0	2.5	/experiments/knapen_aot/oldvideos/R_S_yt-xrWo3lnbshw_80.mp4	0.0	256.93496108055115	2.5083539485931396
39	118.72421097755432	fix_post	2		12.0	37.0	2.5	/experiments/knapen_aot/oldvideos/R_S_yt-xrWo3lnbshw_80.mp4	0.0	259.4433150291443	0.09997010231018066
40	118.8241810798645	fix_pre	0		214.0	38.0	2.5	/experiments/knapen_aot/oldvideos/R_S_yt-cM5PvgE7aJs_243.mp4	0.0	259.54328513145447	1.7842028141021729
40	120.59925985336304	response	0	4		38.0	2.5	/experiments/knapen_aot/oldvideos/R_S_yt-cM5PvgE7aJs_243.mp4	0.0	261.318363904953	
40	120.60838389396667	movie	1		301.0	38.0	2.5	/experiments/knapen_aot/oldvideos/R_S_yt-cM5PvgE7aJs_243.mp4	0.0	261.32748794555664	2.5074410438537598
40	123.11582493782043	fix_post	2		12.0	38.0	2.5	/experiments/knapen_aot/oldvideos/R_S_yt-cM5PvgE7aJs_243.mp4	0.0	263.8349289894104	0.10004401206970215
41	123.21586894989014	fix_pre	0		140.0	39.0	2.5	/experiments/knapen_aot/oldvideos/S_Ds4EKTLx_RI_51.mp4	0.0	263.9349730014801	1.1665849685668945
41	124.3742470741272	response	0	4		39.0	2.5	/experiments/knapen_aot/oldvideos/S_Ds4EKTLx_RI_51.mp4	0.0	265.09335112571716	
41	124.38245391845703	movie	1		301.0	39.0	2.5	/experiments/knapen_aot/oldvideos/S_Ds4EKTLx_RI_51.mp4	0.0	265.101557970047	2.508342981338501
41	126.89079689979553	fix_post	2		12.0	39.0	2.5	/experiments/knapen_aot/oldvideos/S_Ds4EKTLx_RI_51.mp4	0.0	267.6099009513855	0.10010910034179688
42	126.99090600013733	fix_pre	0		129.0	40.0	2.5	blank	1.0	267.7100100517273	1.0757548809051514
42	128.05754685401917	response	0	4		40.0	2.5	blank	1.0	268.77665090560913	
42	128.06666088104248	movie	1		301.0	40.0	2.5	blank	1.0	268.78576493263245	2.5074610710144043
42	130.57412195205688	fix_post	2		12.0	40.0	2.5	blank	1.0	271.29322600364685	0.10001611709594727
43	130.67413806915283	fix_pre	0		151.0	41.0	2.5	/experiments/knapen_aot/oldvideos/S_yt-e9AZJKNv9ow_359.mp4	0.0	271.3932421207428	1.2582738399505615
43	131.9242799282074	response	0	4		41.0	2.5	/experiments/knapen_aot/oldvideos/S_yt-e9AZJKNv9ow_359.mp4	0.0	272.64338397979736	
43	131.9324119091034	movie	1		301.0	41.0	2.5	/experiments/knapen_aot/oldvideos/S_yt-e9AZJKNv9ow_359.mp4	0.0	272.65151596069336	2.5084171295166016
43	134.44082903862	fix_post	2		12.0	41.0	2.5	/experiments/knapen_aot/oldvideos/S_yt-e9AZJKNv9ow_359.mp4	0.0	275.15993309020996	0.1003868579864502
44	134.54121589660645	fix_pre	0		50.0	42.0	2.5	/experiments/knapen_aot/oldvideos/S_yt-zQnaVApUPH0_14.mp4	0.0	275.2603199481964	0.4163639545440674
44	134.9492700099945	response	0	4		42.0	2.5	/experiments/knapen_aot/oldvideos/S_yt-zQnaVApUPH0_14.mp4	0.0	275.6683740615845	
44	134.9575798511505	movie	1		301.0	42.0	2.5	/experiments/knapen_aot/oldvideos/S_yt-zQnaVApUPH0_14.mp4	0.0	275.6766839027405	2.5081992149353027
44	137.46577906608582	fix_post	2		12.0	42.0	2.5	/experiments/knapen_aot/oldvideos/S_yt-zQnaVApUPH0_14.mp4	0.0	278.1848831176758	0.09999585151672363
45	137.56577491760254	fix_pre	0		54.0	43.0	2.5	/experiments/knapen_aot/oldvideos/R_S_yt-AjyR9--Mx3A_44.mp4	0.0	278.2848789691925	0.449984073638916
45	138.00751399993896	response	0	4		43.0	2.5	/experiments/knapen_aot/oldvideos/R_S_yt-AjyR9--Mx3A_44.mp4	0.0	278.72661805152893	
45	138.01575899124146	movie	1		301.0	43.0	2.5	/experiments/knapen_aot/oldvideos/R_S_yt-AjyR9--Mx3A_44.mp4	0.0	278.7348630428314	2.508331060409546
45	140.524090051651	fix_post	2		12.0	43.0	2.5	/experiments/knapen_aot/oldvideos/R_S_yt-AjyR9--Mx3A_44.mp4	0.0	281.24319410324097	0.10010194778442383
46	140.62419199943542	fix_pre	0		69.0	44.0	2.5	/experiments/knapen_aot/oldvideos/S_comp_GMT026_363A_103NC_E1027_KOREA_JAPAN_NIGHT_v18_SDR_PS_20180907_SDR_2K_AVC.mp4	0.0	281.3432960510254	0.5748569965362549
46	141.19085502624512	response	0	4		44.0	2.5	/experiments/knapen_aot/oldvideos/S_comp_GMT026_363A_103NC_E1027_KOREA_JAPAN_NIGHT_v18_SDR_PS_20180907_SDR_2K_AVC.mp4	0.0	281.9099590778351	
46	141.19904899597168	movie	1		169.0	44.0	2.5	/experiments/knapen_aot/oldvideos/S_comp_GMT026_363A_103NC_E1027_KOREA_JAPAN_NIGHT_v18_SDR_PS_20180907_SDR_2K_AVC.mp4	0.0	281.91815304756165	2.5083580017089844
46	143.70740699768066	fix_post	2		12.0	44.0	2.5	/experiments/knapen_aot/oldvideos/S_comp_GMT026_363A_103NC_E1027_KOREA_JAPAN_NIGHT_v18_SDR_PS_20180907_SDR_2K_AVC.mp4	0.0	284.42651104927063	0.1001439094543457
47	143.807550907135	fix_pre	0		42.0	45.0	2.5	/experiments/knapen_aot/oldvideos/R_S_yt--WPE_4bqQXc_26.mp4	0.0	284.526654958725	0.3498690128326416
47	144.149160861969	response	0	4		45.0	2.5	/experiments/knapen_aot/oldvideos/R_S_yt--WPE_4bqQXc_26.mp4	0.0	284.86826491355896	
47	144.15741991996765	movie	1		301.0	45.0	2.5	/experiments/knapen_aot/oldvideos/R_S_yt--WPE_4bqQXc_26.mp4	0.0	284.8765239715576	2.5083000659942627
47	146.6657199859619	fix_post	2		12.0	45.0	2.5	/experiments/knapen_aot/oldvideos/R_S_yt--WPE_4bqQXc_26.mp4	0.0	287.3848240375519	0.09995698928833008
48	146.76567697525024	fix_pre	0		74.0	46.0	2.5	/experiments/knapen_aot/oldvideos/R_S_yt-khmJAQuCRRE_119.mp4	0.0	287.4847810268402	0.6167149543762207
48	147.37419390678406	response	0	4		46.0	2.5	/experiments/knapen_aot/oldvideos/R_S_yt-khmJAQuCRRE_119.mp4	0.0	288.093297958374	
48	147.38239192962646	movie	1		301.0	46.0	2.5	/experiments/knapen_aot/oldvideos/R_S_yt-khmJAQuCRRE_119.mp4	0.0	288.10149598121643	2.508316993713379
48	149.89070892333984	fix_post	2		12.0	46.0	2.5	/experiments/knapen_aot/oldvideos/R_S_yt-khmJAQuCRRE_119.mp4	0.0	290.6098129749298	0.09993195533752441
49	149.99064087867737	fix_pre	0		44.0	47.0	2.5	/experiments/knapen_aot/oldvideos/S_pexels-anna-tarazevich-6189268.mp4	0.0	290.70974493026733	0.3673579692840576
49	150.34920597076416	response	0	4		47.0	2.5	/experiments/knapen_aot/oldvideos/S_pexels-anna-tarazevich-6189268.mp4	0.0	291.0683100223541	
49	150.35799884796143	movie	1		219.0	47.0	2.5	/experiments/knapen_aot/oldvideos/S_pexels-anna-tarazevich-6189268.mp4	0.0	291.0771028995514	2.5077152252197266
49	152.86571407318115	fix_post	2		12.0	47.0	2.5	/experiments/knapen_aot/oldvideos/S_pexels-anna-tarazevich-6189268.mp4	0.0	293.5848181247711	0.09998893737792969
50	152.96570301055908	fix_pre	0		261.0	48.0	2.5	/experiments/knapen_aot/oldvideos/R_S_ILSVRC2015_train_00396000.mp4	0.0	293.68480706214905	2.174949884414673
50	155.13248896598816	response	0	4		48.0	2.5	/experiments/knapen_aot/oldvideos/R_S_ILSVRC2015_train_00396000.mp4	0.0	295.8515930175781	
50	155.14065289497375	movie	1		301.0	48.0	2.5	/experiments/knapen_aot/oldvideos/R_S_ILSVRC2015_train_00396000.mp4	0.0	295.8597569465637	2.5084099769592285
50	157.64906287193298	fix_post	2		12.0	48.0	2.5	/experiments/knapen_aot/oldvideos/R_S_ILSVRC2015_train_00396000.mp4	0.0	298.36816692352295	0.09996509552001953
51	157.749027967453	fix_pre	0		12.0	49.0	2.5	blank	1.0	298.46813201904297	0.1000070571899414
51	157.84078788757324	response	0	4		49.0	2.5	blank	1.0	298.5598919391632	
51	157.84903502464294	movie	1		301.0	49.0	2.5	blank	1.0	298.5681390762329	2.5083298683166504
51	160.3573648929596	fix_post	2		12.0	49.0	2.5	blank	1.0	301.07646894454956	0.10003495216369629
52	160.4573998451233	fix_pre	0		39.0	50.0	2.5	/experiments/knapen_aot/oldvideos/S_comp_DB_D008_C010_PSNK_v21_SDR_PS_20180914_F0F16157_SDR_2K_AVC.mp4	0.0	301.17650389671326	0.32488203048706055
52	160.7666220664978	response	0	4		50.0	2.5	/experiments/knapen_aot/oldvideos/S_comp_DB_D008_C010_PSNK_v21_SDR_PS_20180914_F0F16157_SDR_2K_AVC.mp4	0.0	301.48572611808777	
52	160.78228187561035	movie	1		169.0	50.0	2.5	/experiments/knapen_aot/oldvideos/S_comp_DB_D008_C010_PSNK_v21_SDR_PS_20180914_F0F16157_SDR_2K_AVC.mp4	0.0	301.5013859272003	2.5084831714630127
52	163.29076504707336	fix_post	2		12.0	50.0	2.5	/experiments/knapen_aot/oldvideos/S_comp_DB_D008_C010_PSNK_v21_SDR_PS_20180914_F0F16157_SDR_2K_AVC.mp4	0.0	304.00986909866333	0.09992289543151855
53	163.39068794250488	fix_pre	0		4.0	51.0	2.5	/experiments/knapen_aot/oldvideos/R_S_flickr-claywakening-27928940166_2.mp4	0.0	304.10979199409485	0.03329610824584961
53	163.40831589698792	response	0	4		51.0	2.5	/experiments/knapen_aot/oldvideos/R_S_flickr-claywakening-27928940166_2.mp4	0.0	304.1274199485779	
53	163.42398405075073	movie	1		174.0	51.0	2.5	/experiments/knapen_aot/oldvideos/R_S_flickr-claywakening-27928940166_2.mp4	0.0	304.1430881023407	2.508333921432495
53	165.93231797218323	fix_post	2		12.0	51.0	2.5	/experiments/knapen_aot/oldvideos/R_S_flickr-claywakening-27928940166_2.mp4	0.0	306.6514220237732	0.10001993179321289
54	166.03233790397644	fix_pre	0		2.0	52.0	2.5	/experiments/knapen_aot/oldvideos/R_S_yt-R-SETZtYWaA_336.mp4	0.0	306.7514419555664	0.016656160354614258
54	166.04081106185913	response	0	4		52.0	2.5	/experiments/knapen_aot/oldvideos/R_S_yt-R-SETZtYWaA_336.mp4	0.0	306.7599151134491	
54	166.04899406433105	movie	1		301.0	52.0	2.5	/experiments/knapen_aot/oldvideos/R_S_yt-R-SETZtYWaA_336.mp4	0.0	306.768098115921	2.5082879066467285
54	168.55728197097778	fix_post	2		12.0	52.0	2.5	/experiments/knapen_aot/oldvideos/R_S_yt-R-SETZtYWaA_336.mp4	0.0	309.27638602256775	0.10010504722595215
55	168.65738701820374	fix_pre	0		24.0	53.0	2.5	/experiments/knapen_aot/oldvideos/R_S_yt-zhQ32_OayBQ_39.mp4	0.0	309.3764910697937	0.20052504539489746
55	168.84899592399597	response	0	4		53.0	2.5	/experiments/knapen_aot/oldvideos/R_S_yt-zhQ32_OayBQ_39.mp4	0.0	309.56809997558594	
55	168.85791206359863	movie	1		301.0	53.0	2.5	/experiments/knapen_aot/oldvideos/R_S_yt-zhQ32_OayBQ_39.mp4	0.0	309.5770161151886	2.5077528953552246
55	171.36566495895386	fix_post	2		12.0	53.0	2.5	/experiments/knapen_aot/oldvideos/R_S_yt-zhQ32_OayBQ_39.mp4	0.0	312.0847690105438	0.09999799728393555
56	171.4656629562378	fix_pre	0		59.0	54.0	2.5	/experiments/knapen_aot/oldvideos/S_yt-3ohvpS42xug_184.mp4	0.0	312.18476700782776	0.49164390563964844
56	171.9489860534668	response	0	4		54.0	2.5	/experiments/knapen_aot/oldvideos/S_yt-3ohvpS42xug_184.mp4	0.0	312.66809010505676	
56	171.95730686187744	movie	1		301.0	54.0	2.5	/experiments/knapen_aot/oldvideos/S_yt-3ohvpS42xug_184.mp4	0.0	312.6764109134674	2.5083181858062744
56	174.46562504768372	fix_post	2		12.0	54.0	2.5	/experiments/knapen_aot/oldvideos/S_yt-3ohvpS42xug_184.mp4	0.0	315.1847290992737	0.10006499290466309
57	174.56569004058838	fix_pre	0		15.0	55.0	2.5	blank	1.0	315.28479409217834	0.12557387351989746
57	174.68235898017883	response	0	4		55.0	2.5	blank	1.0	315.4014630317688	
57	174.69126391410828	movie	1		301.0	55.0	2.5	blank	1.0	315.41036796569824	2.5076680183410645
57	177.19893193244934	fix_post	2		12.0	55.0	2.5	blank	1.0	317.9180359840393	0.09990096092224121
58	177.29883289337158	fix_pre	0		90.0	56.0	2.5	/experiments/knapen_aot/oldvideos/R_S_yt-54kx8P3L1ns_6.mp4	0.0	318.01793694496155	0.7499961853027344
58	178.040757894516	response	0	4		56.0	2.5	/experiments/knapen_aot/oldvideos/R_S_yt-54kx8P3L1ns_6.mp4	0.0	318.75986194610596	
58	178.04882907867432	movie	1		301.0	56.0	2.5	/experiments/knapen_aot/oldvideos/R_S_yt-54kx8P3L1ns_6.mp4	0.0	318.7679331302643	2.508439779281616
58	180.55726885795593	fix_post	2		12.0	56.0	2.5	/experiments/knapen_aot/oldvideos/R_S_yt-54kx8P3L1ns_6.mp4	0.0	321.2763729095459	0.09999203681945801
59	180.6572608947754	fix_pre	0		25.0	57.0	2.5	/experiments/knapen_aot/oldvideos/S_yt-zhQ32_OayBQ_39.mp4	0.0	321.37636494636536	0.20838117599487305
59	180.85740089416504	response	0	4		57.0	2.5	/experiments/knapen_aot/oldvideos/S_yt-zhQ32_OayBQ_39.mp4	0.0	321.576504945755	
59	180.86564207077026	movie	1		301.0	57.0	2.5	/experiments/knapen_aot/oldvideos/S_yt-zhQ32_OayBQ_39.mp4	0.0	321.58474612236023	2.5083727836608887
59	183.37401485443115	fix_post	2		12.0	57.0	2.5	/experiments/knapen_aot/oldvideos/S_yt-zhQ32_OayBQ_39.mp4	0.0	324.0931189060211	0.09984207153320312
60	183.47385692596436	fix_pre	0		32.0	58.0	2.5	/experiments/knapen_aot/oldvideos/S_yt-6KJ_yZR-Jco_14.mp4	0.0	324.1929609775543	0.26679396629333496
60	183.72481989860535	response	0	4		58.0	2.5	/experiments/knapen_aot/oldvideos/S_yt-6KJ_yZR-Jco_14.mp4	0.0	324.4439239501953	
60	183.7406508922577	movie	1		301.0	58.0	2.5	/experiments/knapen_aot/oldvideos/S_yt-6KJ_yZR-Jco_14.mp4	0.0	324.45975494384766	2.5082969665527344
60	186.24894785881042	fix_post	2		12.0	58.0	2.5	/experiments/knapen_aot/oldvideos/S_yt-6KJ_yZR-Jco_14.mp4	0.0	326.9680519104004	0.10014605522155762
61	186.34909391403198	fix_pre	0		337.0	59.0	2.5	/experiments/knapen_aot/oldvideos/S_yt-FhnT_42bV7M_11.mp4	0.0	327.06819796562195	2.8080410957336426
61	189.14901399612427	response	0	4		59.0	2.5	/experiments/knapen_aot/oldvideos/S_yt-FhnT_42bV7M_11.mp4	0.0	329.86811804771423	
61	189.15713500976562	movie	1		301.0	59.0	2.5	/experiments/knapen_aot/oldvideos/S_yt-FhnT_42bV7M_11.mp4	0.0	329.8762390613556	2.508354902267456
61	191.66548991203308	fix_post	2		12.0	59.0	2.5	/experiments/knapen_aot/oldvideos/S_yt-FhnT_42bV7M_11.mp4	0.0	332.38459396362305	0.10018205642700195
62	191.76567196846008	fix_pre	0		99.0	60.0	2.5	/experiments/knapen_aot/oldvideos/R_S_yt-bOgChEHiroI_20.mp4	0.0	332.48477602005005	0.8248229026794434
62	192.58228302001953	response	0	4		60.0	2.5	/experiments/knapen_aot/oldvideos/R_S_yt-bOgChEHiroI_20.mp4	0.0	333.3013870716095	
62	192.59049487113953	movie	1		301.0	60.0	2.5	/experiments/knapen_aot/oldvideos/R_S_yt-bOgChEHiroI_20.mp4	0.0	333.3095989227295	2.508397102355957
62	195.09889197349548	fix_post	2		12.0	60.0	2.5	/experiments/knapen_aot/oldvideos/R_S_yt-bOgChEHiroI_20.mp4	0.0	335.81799602508545	0.09999394416809082
63	195.19888591766357	fix_pre	0		43.0	61.0	2.5	/experiments/knapen_aot/oldvideos/S_yt-e9AZJKNv9ow_359.mp4	0.0	335.91798996925354	0.3582580089569092
63	195.54891991615295	response	0	4		61.0	2.5	/experiments/knapen_aot/oldvideos/S_yt-e9AZJKNv9ow_359.mp4	0.0	336.2680239677429	
63	195.55714392662048	movie	1		301.0	61.0	2.5	/experiments/knapen_aot/oldvideos/S_yt-e9AZJKNv9ow_359.mp4	0.0	336.27624797821045	2.5083539485931396
63	198.06549787521362	fix_post	2		12.0	61.0	2.5	/experiments/knapen_aot/oldvideos/S_yt-e9AZJKNv9ow_359.mp4	0.0	338.7846019268036	0.10020208358764648
64	198.16569995880127	fix_pre	0		219.0	62.0	2.5	/experiments/knapen_aot/oldvideos/R_S_comp_DB_D008_C010_PSNK_v21_SDR_PS_20180914_F0F16157_SDR_2K_AVC.mp4	0.0	338.88480401039124	1.8247630596160889
64	199.98229598999023	response	0	4		62.0	2.5	/experiments/knapen_aot/oldvideos/R_S_comp_DB_D008_C010_PSNK_v21_SDR_PS_20180914_F0F16157_SDR_2K_AVC.mp4	0.0	340.7014000415802	
64	199.99046301841736	movie	1		173.0	62.0	2.5	/experiments/knapen_aot/oldvideos/R_S_comp_DB_D008_C010_PSNK_v21_SDR_PS_20180914_F0F16157_SDR_2K_AVC.mp4	0.0	340.7095670700073	2.5083909034729004
64	202.49885392189026	fix_post	2		12.0	62.0	2.5	/experiments/knapen_aot/oldvideos/R_S_comp_DB_D008_C010_PSNK_v21_SDR_PS_20180914_F0F16157_SDR_2K_AVC.mp4	0.0	343.2179579734802	0.10014104843139648
65	202.59899497032166	fix_pre	0		3.0	63.0	2.5	blank	1.0	343.3180990219116	0.024816036224365234
65	202.61579704284668	response	0	4		63.0	2.5	blank	1.0	343.33490109443665	
65	202.62381100654602	movie	1		301.0	63.0	2.5	blank	1.0	343.342915058136	2.508357048034668
65	205.1321680545807	fix_post	2		12.0	63.0	2.5	blank	1.0	345.85127210617065	0.10051393508911133
66	205.2326819896698	fix_pre	0		79.0	64.0	2.5	/experiments/knapen_aot/oldvideos/S_yt-7NjoFHBdP7c_102.mp4	0.0	345.95178604125977	0.6577820777893066
66	205.88227796554565	response	0	4		64.0	2.5	/experiments/knapen_aot/oldvideos/S_yt-7NjoFHBdP7c_102.mp4	0.0	346.6013820171356	
66	205.8904640674591	movie	1		301.0	64.0	2.5	/experiments/knapen_aot/oldvideos/S_yt-7NjoFHBdP7c_102.mp4	0.0	346.6095681190491	2.50836181640625
66	208.39882588386536	fix_post	2		12.0	64.0	2.5	/experiments/knapen_aot/oldvideos/S_yt-7NjoFHBdP7c_102.mp4	0.0	349.1179299354553	0.10009217262268066
67	208.49891805648804	fix_pre	0		30.0	65.0	2.5	/experiments/knapen_aot/oldvideos/S_yt-MyL1VlXiZa4_25.mp4	0.0	349.218022108078	0.24985098838806152
67	208.74053597450256	response	0	4		65.0	2.5	/experiments/knapen_aot/oldvideos/S_yt-MyL1VlXiZa4_25.mp4	0.0	349.45964002609253	
67	208.7487690448761	movie	1		301.0	65.0	2.5	/experiments/knapen_aot/oldvideos/S_yt-MyL1VlXiZa4_25.mp4	0.0	349.46787309646606	2.508366823196411
67	211.2571358680725	fix_post	2		12.0	65.0	2.5	/experiments/knapen_aot/oldvideos/S_yt-MyL1VlXiZa4_25.mp4	0.0	351.9762399196625	0.10048317909240723
68	211.35761904716492	fix_pre	0		8.0	66.0	2.5	/experiments/knapen_aot/oldvideos/S_yt-khmJAQuCRRE_119.mp4	0.0	352.0767230987549	0.06615400314331055
68	211.41543292999268	response	0	4		66.0	2.5	/experiments/knapen_aot/oldvideos/S_yt-khmJAQuCRRE_119.mp4	0.0	352.13453698158264	
68	211.42377305030823	movie	1		301.0	66.0	2.5	/experiments/knapen_aot/oldvideos/S_yt-khmJAQuCRRE_119.mp4	0.0	352.1428771018982	2.508354902267456
68	213.93212795257568	fix_post	2		12.0	66.0	2.5	/experiments/knapen_aot/oldvideos/S_yt-khmJAQuCRRE_119.mp4	0.0	354.65123200416565	0.0999760627746582
69	214.03210401535034	fix_pre	0		25.0	67.0	2.5	/experiments/knapen_aot/oldvideos/S_yt-3ohvpS42xug_184.mp4	0.0	354.7512080669403	0.20832395553588867
69	214.23222088813782	response	0	4		67.0	2.5	/experiments/knapen_aot/oldvideos/S_yt-3ohvpS42xug_184.mp4	0.0	354.9513249397278	
69	214.24042797088623	movie	1		301.0	67.0	2.5	/experiments/knapen_aot/oldvideos/S_yt-3ohvpS42xug_184.mp4	0.0	354.9595320224762	2.508331060409546
69	216.74875903129578	fix_post	2		12.0	67.0	2.5	/experiments/knapen_aot/oldvideos/S_yt-3ohvpS42xug_184.mp4	0.0	357.46786308288574	0.10004687309265137
70	216.84880590438843	fix_pre	0		48.0	68.0	2.5	/experiments/knapen_aot/oldvideos/R_S_yt-w_e3sxIzepA_115.mp4	0.0	357.5679099559784	0.39996814727783203
70	217.2405080795288	response	0	4		68.0	2.5	/experiments/knapen_aot/oldvideos/R_S_yt-w_e3sxIzepA_115.mp4	0.0	357.9596121311188	
70	217.24877405166626	movie	1		301.0	68.0	2.5	/experiments/knapen_aot/oldvideos/R_S_yt-w_e3sxIzepA_115.mp4	0.0	357.9678781032562	2.50836181640625
70	219.7571358680725	fix_post	2		12.0	68.0	2.5	/experiments/knapen_aot/oldvideos/R_S_yt-w_e3sxIzepA_115.mp4	0.0	360.4762399196625	0.10053300857543945
71	219.85766887664795	fix_pre	0		152.0	69.0	2.5	/experiments/knapen_aot/oldvideos/S_yt-jcuaf9iSEkI_169.mp4	0.0	360.5767729282379	1.2660331726074219
71	221.11554288864136	response	0	4		69.0	2.5	/experiments/knapen_aot/oldvideos/S_yt-jcuaf9iSEkI_169.mp4	0.0	361.8346469402313	
71	221.12370204925537	movie	1		301.0	69.0	2.5	/experiments/knapen_aot/oldvideos/S_yt-jcuaf9iSEkI_169.mp4	0.0	361.84280610084534	2.508598804473877
71	223.63230085372925	fix_post	2		12.0	69.0	2.5	/experiments/knapen_aot/oldvideos/S_yt-jcuaf9iSEkI_169.mp4	0.0	364.3514049053192	0.10011816024780273
72	223.73241901397705	fix_pre	0		68.0	70.0	2.5	blank	1.0	364.451523065567	0.566274881362915
72	224.29052591323853	response	0	4		70.0	2.5	blank	1.0	365.0096299648285	
72	224.29869389533997	movie	1		301.0	70.0	2.5	blank	1.0	365.01779794692993	2.508397102355957
72	226.80709099769592	fix_post	2		12.0	70.0	2.5	blank	1.0	367.5261950492859	0.10000991821289062
73	226.9071009159088	fix_pre	0		37.0	71.0	2.5	/experiments/knapen_aot/oldvideos/S_yt-ibDaDIEazxg_3.mp4	0.0	367.6262049674988	0.30824995040893555
73	227.2071568965912	response	0	4		71.0	2.5	/experiments/knapen_aot/oldvideos/S_yt-ibDaDIEazxg_3.mp4	0.0	367.92626094818115	
73	227.21535086631775	movie	1		301.0	71.0	2.5	/experiments/knapen_aot/oldvideos/S_yt-ibDaDIEazxg_3.mp4	0.0	367.9344549179077	2.508319139480591
73	229.72367000579834	fix_post	2		12.0	71.0	2.5	/experiments/knapen_aot/oldvideos/S_yt-ibDaDIEazxg_3.mp4	0.0	370.4427740573883	0.10023999214172363
74	229.82390999794006	fix_pre	0		34.0	72.0	2.5	/experiments/knapen_aot/oldvideos/R_S_yt-RlHmMGUjT9E_130.mp4	0.0	370.54301404953003	0.2833888530731201
74	230.09126901626587	response	0	4		72.0	2.5	/experiments/knapen_aot/oldvideos/R_S_yt-RlHmMGUjT9E_130.mp4	0.0	370.81037306785583	
74	230.10729885101318	movie	1		301.0	72.0	2.5	/experiments/knapen_aot/oldvideos/R_S_yt-RlHmMGUjT9E_130.mp4	0.0	370.82640290260315	2.508105993270874
74	232.61540484428406	fix_post	2		12.0	72.0	2.5	/experiments/knapen_aot/oldvideos/R_S_yt-RlHmMGUjT9E_130.mp4	0.0	373.334508895874	0.10000205039978027
75	232.71540689468384	fix_pre	0		53.0	73.0	2.5	/experiments/knapen_aot/oldvideos/R_S_yt-3ohvpS42xug_184.mp4	0.0	373.4345109462738	0.44157910346984863
75	233.1487329006195	response	0	4		73.0	2.5	/experiments/knapen_aot/oldvideos/R_S_yt-3ohvpS42xug_184.mp4	0.0	373.8678369522095	
75	233.1569859981537	movie	1		301.0	73.0	2.5	/experiments/knapen_aot/oldvideos/R_S_yt-3ohvpS42xug_184.mp4	0.0	373.87609004974365	2.508435010910034
75	235.66542100906372	fix_post	2		12.0	73.0	2.5	/experiments/knapen_aot/oldvideos/R_S_yt-3ohvpS42xug_184.mp4	0.0	376.3845250606537	0.09998202323913574
76	235.76540303230286	fix_pre	0		17.0	74.0	2.5	/experiments/knapen_aot/oldvideos/S_comp_GL_G010_C006_PSNK_NOSUN_v12_SDR_PS_FINAL_20180709_SDR_2K_AVC.mp4	0.0	376.4845070838928	0.14171195030212402
76	235.89872097969055	response	0	4		74.0	2.5	/experiments/knapen_aot/oldvideos/S_comp_GL_G010_C006_PSNK_NOSUN_v12_SDR_PS_FINAL_20180709_SDR_2K_AVC.mp4	0.0	376.6178250312805	
76	235.90711498260498	movie	1		175.0	74.0	2.5	/experiments/knapen_aot/oldvideos/S_comp_GL_G010_C006_PSNK_NOSUN_v12_SDR_PS_FINAL_20180709_SDR_2K_AVC.mp4	0.0	376.62621903419495	2.5082390308380127
76	238.415354013443	fix_post	2		12.0	74.0	2.5	/experiments/knapen_aot/oldvideos/S_comp_GL_G010_C006_PSNK_NOSUN_v12_SDR_PS_FINAL_20180709_SDR_2K_AVC.mp4	0.0	379.13445806503296	0.09999203681945801
77	238.51534605026245	fix_pre	0		13.0	75.0	2.5	blank	1.0	379.2344501018524	0.10832691192626953
77	238.61546397209167	response	0	4		75.0	2.5	blank	1.0	379.33456802368164	
77	238.62367296218872	movie	1		301.0	75.0	2.5	blank	1.0	379.3427770137787	2.5083179473876953
77	241.13199090957642	fix_post	2		12.0	75.0	2.5	blank	1.0	381.8510949611664	0.10031414031982422
78	241.23230504989624	fix_pre	0		233.0	76.0	2.5	/experiments/knapen_aot/oldvideos/S_yt-bQRBtP9zkms_111.mp4	0.0	381.9514091014862	1.9413340091705322
78	243.16544198989868	response	0	4		76.0	2.5	/experiments/knapen_aot/oldvideos/S_yt-bQRBtP9zkms_111.mp4	0.0	383.88454604148865	
78	243.17363905906677	movie	1		301.0	76.0	2.5	/experiments/knapen_aot/oldvideos/S_yt-bQRBtP9zkms_111.mp4	0.0	383.89274311065674	2.508373975753784
78	245.68201303482056	fix_post	2		12.0	76.0	2.5	/experiments/knapen_aot/oldvideos/S_yt-bQRBtP9zkms_111.mp4	0.0	386.4011170864105	0.10000181198120117
79	245.78201484680176	fix_pre	0		68.0	77.0	2.5	/experiments/knapen_aot/oldvideos/R_S_3WAnGcPubBY_179.mp4	0.0	386.5011188983917	0.5666022300720215
79	246.34046387672424	response	0	4		77.0	2.5	/experiments/knapen_aot/oldvideos/R_S_3WAnGcPubBY_179.mp4	0.0	387.0595679283142	
79	246.34861707687378	movie	1		301.0	77.0	2.5	/experiments/knapen_aot/oldvideos/R_S_3WAnGcPubBY_179.mp4	0.0	387.06772112846375	2.5086758136749268
79	248.8572928905487	fix_post	2		12.0	77.0	2.5	/experiments/knapen_aot/oldvideos/R_S_3WAnGcPubBY_179.mp4	0.0	389.5763969421387	0.09966611862182617
80	248.95695900917053	fix_pre	0		25.0	78.0	2.5	/experiments/knapen_aot/oldvideos/S_pexels-tima-miroshnichenko-5717005.mp4	0.0	389.6760630607605	0.20832395553588867
80	249.15704798698425	response	0	4		78.0	2.5	/experiments/knapen_aot/oldvideos/S_pexels-tima-miroshnichenko-5717005.mp4	0.0	389.8761520385742	
80	249.16528296470642	movie	1		168.0	78.0	2.5	/experiments/knapen_aot/oldvideos/S_pexels-tima-miroshnichenko-5717005.mp4	0.0	389.8843870162964	2.5083539485931396
80	251.67363691329956	fix_post	2		12.0	78.0	2.5	/experiments/knapen_aot/oldvideos/S_pexels-tima-miroshnichenko-5717005.mp4	0.0	392.3927409648895	0.10019993782043457
81	251.77383685112	fix_pre	0		6.0	79.0	2.5	/experiments/knapen_aot/oldvideos/R_S_yt-AHbFln6blfE_36.mp4	0.0	392.49294090270996	0.049773216247558594
81	251.8153350353241	response	0	4		79.0	2.5	/experiments/knapen_aot/oldvideos/R_S_yt-AHbFln6blfE_36.mp4	0.0	392.53443908691406	
81	251.82361006736755	movie	1		301.0	79.0	2.5	/experiments/knapen_aot/oldvideos/R_S_yt-AHbFln6blfE_36.mp4	0.0	392.5427141189575	2.5084478855133057
81	254.33205795288086	fix_post	2		12.0	79.0	2.5	/experiments/knapen_aot/oldvideos/R_S_yt-AHbFln6blfE_36.mp4	0.0	395.0511620044708	0.09989404678344727
82	254.4319519996643	fix_pre	0		61.0	80.0	2.5	/experiments/knapen_aot/oldvideos/S_pexels-cottonbro-5310858.mp4	0.0	395.1510560512543	0.5085618495941162
82	254.93211889266968	response	0	4		80.0	2.5	/experiments/knapen_aot/oldvideos/S_pexels-cottonbro-5310858.mp4	0.0	395.65122294425964	
82	254.94051384925842	movie	1		169.0	80.0	2.5	/experiments/knapen_aot/oldvideos/S_pexels-cottonbro-5310858.mp4	0.0	395.6596179008484	2.5080790519714355
82	257.44859290122986	fix_post	2		12.0	80.0	2.5	/experiments/knapen_aot/oldvideos/S_pexels-cottonbro-5310858.mp4	0.0	398.1676969528198	0.09993505477905273
83	257.5485279560089	fix_pre	0		15.0	81.0	2.5	/experiments/knapen_aot/oldvideos/S_ioSkDvwpEaU_35.mp4	0.0	398.2676320075989	0.1250779628753662
83	257.665403842926	response	0	4		81.0	2.5	/experiments/knapen_aot/oldvideos/S_ioSkDvwpEaU_35.mp4	0.0	398.384507894516	
83	257.6736059188843	movie	1		301.0	81.0	2.5	/experiments/knapen_aot/oldvideos/S_ioSkDvwpEaU_35.mp4	0.0	398.39270997047424	2.508307933807373
83	260.18191385269165	fix_post	2		12.0	81.0	2.5	/experiments/knapen_aot/oldvideos/S_ioSkDvwpEaU_35.mp4	0.0	400.9010179042816	0.1002352237701416
84	260.2821490764618	fix_pre	0		38.0	82.0	2.5	/experiments/knapen_aot/oldvideos/R_S_goAwcQiFu1Q_99.mp4	0.0	401.00125312805176	0.31636786460876465
84	260.5903408527374	response	0	4		82.0	2.5	/experiments/knapen_aot/oldvideos/R_S_goAwcQiFu1Q_99.mp4	0.0	401.3094449043274	
84	260.59851694107056	movie	1		301.0	82.0	2.5	/experiments/knapen_aot/oldvideos/R_S_goAwcQiFu1Q_99.mp4	0.0	401.3176209926605	2.5085060596466064
84	263.10702300071716	fix_post	2		12.0	82.0	2.5	/experiments/knapen_aot/oldvideos/R_S_goAwcQiFu1Q_99.mp4	0.0	403.82612705230713	0.0998680591583252
85	263.2068910598755	fix_pre	0		180.0	83.0	2.5	blank	1.0	403.92599511146545	1.4999330043792725
85	264.6987359523773	response	0	4		83.0	2.5	blank	1.0	405.4178400039673	
85	264.70682406425476	movie	1		301.0	83.0	2.5	blank	1.0	405.4259281158447	2.5086519718170166
85	267.2154760360718	fix_post	2		12.0	83.0	2.5	blank	1.0	407.93458008766174	0.09994983673095703
87	267.31542587280273	stim	0		299.0					408.0345299243927	2.491429090499878
87	269.79879689216614	response	0	space						410.5179009437561	
