trial_nr	onset	event_type	phase	response	nr_frames	movie_index	movie_duration	movie_file	blank	onset_abs	duration
0	0.13193988800048828	stim	0		27.0					55.44791102409363	0.22386503219604492
0	0.34039998054504395	response	0	space						55.656371116638184	
1	0.3558049201965332	stim	0		121.0					55.67177605628967	1.0079550743103027
1	1.363759994506836	stim	1		120.0					56.679731130599976	1.0000269412994385
1	1.4722018241882324	response	1	space						56.78817296028137	
1	2.2804908752441406	response	1	space						57.59646201133728	
2	2.3637869358062744	fix_pre	0		46.0	0.0	2.5	/experiments/knapen_aot/videos/S_pexels-roman-odintsov-8231493.mp4	0.0	57.679758071899414	0.3833189010620117
2	2.7388789653778076	response	0	space		0.0	2.5	/experiments/knapen_aot/videos/S_pexels-roman-odintsov-8231493.mp4	0.0	58.05485010147095	
2	2.747105836868286	movie	1		191.0	0.0	2.5	/experiments/knapen_aot/videos/S_pexels-roman-odintsov-8231493.mp4	0.0	58.063076972961426	2.508543014526367
2	5.255648851394653	fix_post	2		12.0	0.0	2.5	/experiments/knapen_aot/videos/S_pexels-roman-odintsov-8231493.mp4	0.0	60.57161998748779	0.09977197647094727
3	5.355420827865601	fix_pre	0		31.0	1.0	2.5	/experiments/knapen_aot/videos/S_yt-wVMhACNFF-M_154.mp4	0.0	60.67139196395874	0.25829100608825684
3	5.602711915969849	response	0	2		1.0	2.5	/experiments/knapen_aot/videos/S_yt-wVMhACNFF-M_154.mp4	0.0	60.91868305206299	
3	5.613711833953857	movie	1		301.0	1.0	2.5	/experiments/knapen_aot/videos/S_yt-wVMhACNFF-M_154.mp4	0.0	60.929682970047	2.50839900970459
3	8.122110843658447	fix_post	2		12.0	1.0	2.5	/experiments/knapen_aot/videos/S_yt-wVMhACNFF-M_154.mp4	0.0	63.43808197975159	0.10001206398010254
4	8.22212290763855	fix_pre	0		11.0	2.0	2.5	/experiments/knapen_aot/videos/R_S_yt-4wjGeLyvfjY_223.mp4	0.0	63.53809404373169	0.09164285659790039
4	8.305548906326294	response	0	2		2.0	2.5	/experiments/knapen_aot/videos/R_S_yt-4wjGeLyvfjY_223.mp4	0.0	63.621520042419434	
4	8.31376576423645	movie	1		301.0	2.0	2.5	/experiments/knapen_aot/videos/R_S_yt-4wjGeLyvfjY_223.mp4	0.0	63.62973690032959	2.5083470344543457
4	10.822112798690796	fix_post	2		12.0	2.0	2.5	/experiments/knapen_aot/videos/R_S_yt-4wjGeLyvfjY_223.mp4	0.0	66.13808393478394	0.09993314743041992
5	10.922045946121216	fix_pre	0		15.0	3.0	2.5	/experiments/knapen_aot/videos/R_S_ILSVRC2015_train_00697001.mp4	0.0	66.23801708221436	0.12607383728027344
5	11.03883695602417	response	0	2		3.0	2.5	/experiments/knapen_aot/videos/R_S_ILSVRC2015_train_00697001.mp4	0.0	66.35480809211731	
5	11.04811978340149	movie	1		301.0	3.0	2.5	/experiments/knapen_aot/videos/R_S_ILSVRC2015_train_00697001.mp4	0.0	66.36409091949463	2.507376194000244
5	13.555495977401733	fix_post	2		12.0	3.0	2.5	/experiments/knapen_aot/videos/R_S_ILSVRC2015_train_00697001.mp4	0.0	68.87146711349487	0.09992384910583496
6	13.655419826507568	fix_pre	0		8.0	4.0	2.5	/experiments/knapen_aot/videos/S_yt-JQOHHL30Y54_101.mp4	0.0	68.97139096260071	0.06658816337585449
6	13.713801860809326	response	0	2		4.0	2.5	/experiments/knapen_aot/videos/S_yt-JQOHHL30Y54_101.mp4	0.0	69.02977299690247	
6	13.722007989883423	movie	1		301.0	4.0	2.5	/experiments/knapen_aot/videos/S_yt-JQOHHL30Y54_101.mp4	0.0	69.03797912597656	2.5084497928619385
6	16.23045778274536	fix_post	2		12.0	4.0	2.5	/experiments/knapen_aot/videos/S_yt-JQOHHL30Y54_101.mp4	0.0	71.5464289188385	0.09994816780090332
7	16.330405950546265	fix_pre	0		16.0	5.0	2.5	/experiments/knapen_aot/videos/R_S_yt-s-J3C6e5A3Q_18.mp4	0.0	71.6463770866394	0.1343858242034912
7	16.455452919006348	response	0	2		5.0	2.5	/experiments/knapen_aot/videos/R_S_yt-s-J3C6e5A3Q_18.mp4	0.0	71.77142405509949	
7	16.464791774749756	movie	1		301.0	5.0	2.5	/experiments/knapen_aot/videos/R_S_yt-s-J3C6e5A3Q_18.mp4	0.0	71.7807629108429	2.5072460174560547
7	18.97203779220581	fix_post	2		12.0	5.0	2.5	/experiments/knapen_aot/videos/R_S_yt-s-J3C6e5A3Q_18.mp4	0.0	74.28800892829895	0.10003113746643066
8	19.07206892967224	fix_pre	0		14.0	6.0	2.5	blank	1.0	74.38804006576538	0.11660599708557129
8	19.180408000946045	response	0	2		6.0	2.5	blank	1.0	74.49637913703918	
8	19.188674926757812	movie	1		301.0	6.0	2.5	blank	1.0	74.50464606285095	2.5084409713745117
8	21.697115898132324	fix_post	2		12.0	6.0	2.5	blank	1.0	77.01308703422546	0.10008096694946289
9	21.797196865081787	fix_pre	0		30.0	7.0	2.5	/experiments/knapen_aot/videos/S_production_ID_3927047.mp4	0.0	77.11316800117493	0.25080299377441406
9	22.038824796676636	response	0	2		7.0	2.5	/experiments/knapen_aot/videos/S_production_ID_3927047.mp4	0.0	77.35479593276978	
9	22.0479998588562	movie	1		184.0	7.0	2.5	/experiments/knapen_aot/videos/S_production_ID_3927047.mp4	0.0	77.36397099494934	2.507277011871338
9	24.55527687072754	fix_post	2		12.0	7.0	2.5	/experiments/knapen_aot/videos/S_production_ID_3927047.mp4	0.0	79.87124800682068	0.10008096694946289
10	24.655357837677002	fix_pre	0		7.0	8.0	2.5	/experiments/knapen_aot/videos/S_yt-dWF89kq2JIA_13.mp4	0.0	79.97132897377014	0.05930209159851074
10	24.705392837524414	response	0	2		8.0	2.5	/experiments/knapen_aot/videos/S_yt-dWF89kq2JIA_13.mp4	0.0	80.02136397361755	
10	24.714659929275513	movie	1		301.0	8.0	2.5	/experiments/knapen_aot/videos/S_yt-dWF89kq2JIA_13.mp4	0.0	80.03063106536865	2.5073530673980713
10	27.222012996673584	fix_post	2		12.0	8.0	2.5	/experiments/knapen_aot/videos/S_yt-dWF89kq2JIA_13.mp4	0.0	82.53798413276672	0.09993195533752441
11	27.32194495201111	fix_pre	0		39.0	9.0	2.5	/experiments/knapen_aot/videos/S_video_inspire_alabama_montgomery_countryside_00007.1080-h264.mp4	0.0	82.63791608810425	0.3250288963317871
11	27.638802766799927	response	0	2		9.0	2.5	/experiments/knapen_aot/videos/S_video_inspire_alabama_montgomery_countryside_00007.1080-h264.mp4	0.0	82.95477390289307	
11	27.646973848342896	movie	1		167.0	9.0	2.5	/experiments/knapen_aot/videos/S_video_inspire_alabama_montgomery_countryside_00007.1080-h264.mp4	0.0	82.96294498443604	2.5084140300750732
11	30.15538787841797	fix_post	2		12.0	9.0	2.5	/experiments/knapen_aot/videos/S_video_inspire_alabama_montgomery_countryside_00007.1080-h264.mp4	0.0	85.47135901451111	0.0999300479888916
12	30.25531792640686	fix_pre	0		11.0	10.0	2.5	/experiments/knapen_aot/videos/R_S_yt-fjOsq03OC2c_188.mp4	0.0	85.5712890625	0.09165501594543457
12	30.338713884353638	response	0	2		10.0	2.5	/experiments/knapen_aot/videos/R_S_yt-fjOsq03OC2c_188.mp4	0.0	85.65468502044678	
12	30.346972942352295	movie	1		301.0	10.0	2.5	/experiments/knapen_aot/videos/R_S_yt-fjOsq03OC2c_188.mp4	0.0	85.66294407844543	2.5083768367767334
12	32.85534977912903	fix_post	2		12.0	10.0	2.5	/experiments/knapen_aot/videos/R_S_yt-fjOsq03OC2c_188.mp4	0.0	88.17132091522217	0.09996414184570312
13	32.95531392097473	fix_pre	0		64.0	11.0	2.5	/experiments/knapen_aot/videos/R_S_yt-ZzC953ahaxs_195.mp4	0.0	88.27128505706787	0.5333209037780762
13	33.48047089576721	response	0	2		11.0	2.5	/experiments/knapen_aot/videos/R_S_yt-ZzC953ahaxs_195.mp4	0.0	88.79644203186035	
13	33.48863482475281	movie	1		301.0	11.0	2.5	/experiments/knapen_aot/videos/R_S_yt-ZzC953ahaxs_195.mp4	0.0	88.80460596084595	2.508368968963623
13	35.99700379371643	fix_post	2		12.0	11.0	2.5	/experiments/knapen_aot/videos/R_S_yt-ZzC953ahaxs_195.mp4	0.0	91.31297492980957	0.10000419616699219
14	36.09700798988342	fix_pre	0		23.0	12.0	2.5	blank	1.0	91.41297912597656	0.19150400161743164
14	36.280409812927246	response	0	2		12.0	2.5	blank	1.0	91.59638094902039	
14	36.288511991500854	movie	1		301.0	12.0	2.5	blank	1.0	91.604483127594	2.5083818435668945
14	38.79689383506775	fix_post	2		12.0	12.0	2.5	blank	1.0	94.11286497116089	0.1002800464630127
15	38.89717388153076	fix_pre	0		18.0	13.0	2.5	/experiments/knapen_aot/videos/S_comp_HK_H004_C008_PSNK_v19_SDR_PS_20180914_SDR_2K_AVC.mp4	0.0	94.2131450176239	0.15076804161071777
15	39.03867983818054	response	0	2		13.0	2.5	/experiments/knapen_aot/videos/S_comp_HK_H004_C008_PSNK_v19_SDR_PS_20180914_SDR_2K_AVC.mp4	0.0	94.35465097427368	
15	39.04794192314148	movie	1		165.0	13.0	2.5	/experiments/knapen_aot/videos/S_comp_HK_H004_C008_PSNK_v19_SDR_PS_20180914_SDR_2K_AVC.mp4	0.0	94.36391305923462	2.5073490142822266
15	41.555290937423706	fix_post	2		12.0	13.0	2.5	/experiments/knapen_aot/videos/S_comp_HK_H004_C008_PSNK_v19_SDR_PS_20180914_SDR_2K_AVC.mp4	0.0	96.87126207351685	0.09996485710144043
16	41.65525579452515	fix_pre	0		23.0	14.0	2.5	/experiments/knapen_aot/videos/R_S_yt-kQpE9L-fsNE_55.mp4	0.0	96.97122693061829	0.19175004959106445
16	41.83877778053284	response	0	2		14.0	2.5	/experiments/knapen_aot/videos/R_S_yt-kQpE9L-fsNE_55.mp4	0.0	97.15474891662598	
16	41.84700584411621	movie	1		301.0	14.0	2.5	/experiments/knapen_aot/videos/R_S_yt-kQpE9L-fsNE_55.mp4	0.0	97.16297698020935	2.508233070373535
16	44.355238914489746	fix_post	2		12.0	14.0	2.5	/experiments/knapen_aot/videos/R_S_yt-kQpE9L-fsNE_55.mp4	0.0	99.67121005058289	0.10005998611450195
17	44.45529890060425	fix_pre	0		6.0	15.0	2.5	/experiments/knapen_aot/videos/R_S_pexels-c-technical-6753390.mp4	0.0	99.77127003669739	0.05084705352783203
17	44.49714684486389	response	0	2		15.0	2.5	/experiments/knapen_aot/videos/R_S_pexels-c-technical-6753390.mp4	0.0	99.81311798095703	
17	44.50614595413208	movie	1		203.0	15.0	2.5	/experiments/knapen_aot/videos/R_S_pexels-c-technical-6753390.mp4	0.0	99.82211709022522	2.5073888301849365
17	47.01353478431702	fix_post	2		12.0	15.0	2.5	/experiments/knapen_aot/videos/R_S_pexels-c-technical-6753390.mp4	0.0	102.32950592041016	0.1000511646270752
18	47.11358594894409	fix_pre	0		27.0	16.0	2.5	/experiments/knapen_aot/videos/R_S_yt-9pYW_TqVpU4_43.mp4	0.0	102.42955708503723	0.22585487365722656
18	47.330315828323364	response	0	2		16.0	2.5	/experiments/knapen_aot/videos/R_S_yt-9pYW_TqVpU4_43.mp4	0.0	102.6462869644165	
18	47.33944082260132	movie	1		301.0	16.0	2.5	/experiments/knapen_aot/videos/R_S_yt-9pYW_TqVpU4_43.mp4	0.0	102.65541195869446	2.5075881481170654
18	49.847028970718384	fix_post	2		12.0	16.0	2.5	/experiments/knapen_aot/videos/R_S_yt-9pYW_TqVpU4_43.mp4	0.0	105.16300010681152	0.09987688064575195
19	49.946905851364136	fix_pre	0		28.0	17.0	2.5	/experiments/knapen_aot/videos/R_S_yt-3E02UEHdoZ4_752.mp4	0.0	105.26287698745728	0.23330402374267578
19	50.171954870224	response	0	2		17.0	2.5	/experiments/knapen_aot/videos/R_S_yt-3E02UEHdoZ4_752.mp4	0.0	105.48792600631714	
19	50.18020987510681	movie	1		301.0	17.0	2.5	/experiments/knapen_aot/videos/R_S_yt-3E02UEHdoZ4_752.mp4	0.0	105.49618101119995	2.508380889892578
19	52.68859076499939	fix_post	2		12.0	17.0	2.5	/experiments/knapen_aot/videos/R_S_yt-3E02UEHdoZ4_752.mp4	0.0	108.00456190109253	0.0999910831451416
20	52.78858184814453	fix_pre	0		55.0	18.0	2.5	/experiments/knapen_aot/videos/R_S_yt-hvuC_2YXsTQ_73.mp4	0.0	108.10455298423767	0.45829200744628906
20	53.23867177963257	response	0	2		18.0	2.5	/experiments/knapen_aot/videos/R_S_yt-hvuC_2YXsTQ_73.mp4	0.0	108.55464291572571	
20	53.24687385559082	movie	1		301.0	18.0	2.5	/experiments/knapen_aot/videos/R_S_yt-hvuC_2YXsTQ_73.mp4	0.0	108.56284499168396	2.508350133895874
20	55.755223989486694	fix_post	2		12.0	18.0	2.5	/experiments/knapen_aot/videos/R_S_yt-hvuC_2YXsTQ_73.mp4	0.0	111.07119512557983	0.10000991821289062
21	55.855233907699585	fix_pre	0		26.0	19.0	2.5	/experiments/knapen_aot/videos/S_OdxWh1oU8e8_1.mp4	0.0	111.17120504379272	0.2166290283203125
21	56.06372380256653	response	0	2		19.0	2.5	/experiments/knapen_aot/videos/S_OdxWh1oU8e8_1.mp4	0.0	111.37969493865967	
21	56.0718629360199	movie	1		301.0	19.0	2.5	/experiments/knapen_aot/videos/S_OdxWh1oU8e8_1.mp4	0.0	111.38783407211304	2.5084729194641113
21	58.58033585548401	fix_post	2		12.0	19.0	2.5	/experiments/knapen_aot/videos/S_OdxWh1oU8e8_1.mp4	0.0	113.89630699157715	0.0999140739440918
22	58.6802499294281	fix_pre	0		11.0	20.0	2.5	/experiments/knapen_aot/videos/S_yt-Gokv9ZtV6zo_70.mp4	0.0	113.99622106552124	0.0915679931640625
22	58.75604796409607	response	0	2		20.0	2.5	/experiments/knapen_aot/videos/S_yt-Gokv9ZtV6zo_70.mp4	0.0	114.07201910018921	
22	58.77181792259216	movie	1		301.0	20.0	2.5	/experiments/knapen_aot/videos/S_yt-Gokv9ZtV6zo_70.mp4	0.0	114.0877890586853	2.508380889892578
22	61.28019881248474	fix_post	2		12.0	20.0	2.5	/experiments/knapen_aot/videos/S_yt-Gokv9ZtV6zo_70.mp4	0.0	116.59616994857788	0.10002303123474121
23	61.38022184371948	fix_pre	0		30.0	21.0	2.5	blank	1.0	116.69619297981262	0.2507340908050537
23	61.62195086479187	response	0	2		21.0	2.5	blank	1.0	116.93792200088501	
23	61.630955934524536	movie	1		301.0	21.0	2.5	blank	1.0	116.94692707061768	2.5075719356536865
23	64.13852787017822	fix_post	2		12.0	21.0	2.5	blank	1.0	119.45449900627136	0.09998703002929688
24	64.23851490020752	fix_pre	0		27.0	22.0	2.5	/experiments/knapen_aot/videos/R_S_Xq0a2BWE3zA_53.mp4	0.0	119.55448603630066	0.2257370948791504
24	64.45526194572449	response	0	2		22.0	2.5	/experiments/knapen_aot/videos/R_S_Xq0a2BWE3zA_53.mp4	0.0	119.77123308181763	
24	64.46425199508667	movie	1		301.0	22.0	2.5	/experiments/knapen_aot/videos/R_S_Xq0a2BWE3zA_53.mp4	0.0	119.78022313117981	2.507579803466797
24	66.97183179855347	fix_post	2		12.0	22.0	2.5	/experiments/knapen_aot/videos/R_S_Xq0a2BWE3zA_53.mp4	0.0	122.2878029346466	0.09995198249816895
25	67.07178378105164	fix_pre	0		55.0	23.0	2.5	/experiments/knapen_aot/videos/R_S_yt-Gokv9ZtV6zo_70.mp4	0.0	122.38775491714478	0.45827412605285645
25	67.52192997932434	response	0	2		23.0	2.5	/experiments/knapen_aot/videos/R_S_yt-Gokv9ZtV6zo_70.mp4	0.0	122.83790111541748	
25	67.53005790710449	movie	1		301.0	23.0	2.5	/experiments/knapen_aot/videos/R_S_yt-Gokv9ZtV6zo_70.mp4	0.0	122.84602904319763	2.508441925048828
25	70.03849983215332	fix_post	2		12.0	23.0	2.5	/experiments/knapen_aot/videos/R_S_yt-Gokv9ZtV6zo_70.mp4	0.0	125.35447096824646	0.09993600845336914
26	70.13843584060669	fix_pre	0		84.0	24.0	2.5	/experiments/knapen_aot/videos/R_S_ILSVRC2015_train_00368000.mp4	0.0	125.45440697669983	0.700814962387085
26	70.83022499084473	response	0	2		24.0	2.5	/experiments/knapen_aot/videos/R_S_ILSVRC2015_train_00368000.mp4	0.0	126.14619612693787	
26	70.83925080299377	movie	1		301.0	24.0	2.5	/experiments/knapen_aot/videos/R_S_ILSVRC2015_train_00368000.mp4	0.0	126.15522193908691	2.507599115371704
26	73.34684991836548	fix_post	2		12.0	24.0	2.5	/experiments/knapen_aot/videos/R_S_ILSVRC2015_train_00368000.mp4	0.0	128.66282105445862	0.09996390342712402
27	73.4468138217926	fix_pre	0		81.0	25.0	2.5	/experiments/knapen_aot/videos/R_S_yt-xrPrnzvWUkY_7.mp4	0.0	128.76278495788574	0.6750030517578125
27	74.11361789703369	response	0	2		25.0	2.5	/experiments/knapen_aot/videos/R_S_yt-xrPrnzvWUkY_7.mp4	0.0	129.42958903312683	
27	74.12181687355042	movie	1		301.0	25.0	2.5	/experiments/knapen_aot/videos/R_S_yt-xrPrnzvWUkY_7.mp4	0.0	129.43778800964355	2.5084879398345947
27	76.63030481338501	fix_post	2		12.0	25.0	2.5	/experiments/knapen_aot/videos/R_S_yt-xrPrnzvWUkY_7.mp4	0.0	131.94627594947815	0.09993696212768555
28	76.7302417755127	fix_pre	0		17.0	26.0	2.5	/experiments/knapen_aot/videos/R_S_yt-a5TGHnldsKg_102.mp4	0.0	132.04621291160583	0.14155912399291992
28	76.86356377601624	response	0	2		26.0	2.5	/experiments/knapen_aot/videos/R_S_yt-a5TGHnldsKg_102.mp4	0.0	132.17953491210938	
28	76.87180089950562	movie	1		301.0	26.0	2.5	/experiments/knapen_aot/videos/R_S_yt-a5TGHnldsKg_102.mp4	0.0	132.18777203559875	2.5083060264587402
28	79.38010692596436	fix_post	2		12.0	26.0	2.5	/experiments/knapen_aot/videos/R_S_yt-a5TGHnldsKg_102.mp4	0.0	134.6960780620575	0.10012197494506836
29	79.48022890090942	fix_pre	0		12.0	27.0	2.5	blank	1.0	134.79620003700256	0.09987401962280273
29	79.57191491127014	response	0	2		27.0	2.5	blank	1.0	134.88788604736328	
29	79.58010292053223	movie	1		301.0	27.0	2.5	blank	1.0	134.89607405662537	2.5084829330444336
29	82.08858585357666	fix_post	2		12.0	27.0	2.5	blank	1.0	137.4045569896698	0.09992814064025879
30	82.18851399421692	fix_pre	0		26.0	28.0	2.5	/experiments/knapen_aot/videos/R_S_ILSVRC2015_train_00556000.mp4	0.0	137.50448513031006	0.21649694442749023
30	82.38931488990784	response	0	2		28.0	2.5	/experiments/knapen_aot/videos/R_S_ILSVRC2015_train_00556000.mp4	0.0	137.70528602600098	
30	82.40501093864441	movie	1		301.0	28.0	2.5	/experiments/knapen_aot/videos/R_S_ILSVRC2015_train_00556000.mp4	0.0	137.72098207473755	2.508354902267456
30	84.91336584091187	fix_post	2		12.0	28.0	2.5	/experiments/knapen_aot/videos/R_S_ILSVRC2015_train_00556000.mp4	0.0	140.229336977005	0.10008502006530762
31	85.01345086097717	fix_pre	0		28.0	29.0	2.5	/experiments/knapen_aot/videos/S_pexels-koolshooters-7327401_1.mp4	0.0	140.3294219970703	0.23328495025634766
31	85.2385528087616	response	0	2		29.0	2.5	/experiments/knapen_aot/videos/S_pexels-koolshooters-7327401_1.mp4	0.0	140.55452394485474	
31	85.24673581123352	movie	1		163.0	29.0	2.5	/experiments/knapen_aot/videos/S_pexels-koolshooters-7327401_1.mp4	0.0	140.56270694732666	2.50838303565979
31	87.75511884689331	fix_post	2		12.0	29.0	2.5	/experiments/knapen_aot/videos/S_pexels-koolshooters-7327401_1.mp4	0.0	143.07108998298645	0.09998607635498047
32	87.85510492324829	fix_pre	0		31.0	30.0	2.5	/experiments/knapen_aot/videos/R_S_ILSVRC2015_train_00384000.mp4	0.0	143.17107605934143	0.2583029270172119
32	88.09759593009949	response	0	2		30.0	2.5	/experiments/knapen_aot/videos/R_S_ILSVRC2015_train_00384000.mp4	0.0	143.41356706619263	
32	88.1134078502655	movie	1		301.0	30.0	2.5	/experiments/knapen_aot/videos/R_S_ILSVRC2015_train_00384000.mp4	0.0	143.42937898635864	2.5083210468292236
32	90.62172889709473	fix_post	2		12.0	30.0	2.5	/experiments/knapen_aot/videos/R_S_ILSVRC2015_train_00384000.mp4	0.0	145.93770003318787	0.10006594657897949
33	90.7217948436737	fix_pre	0		22.0	31.0	2.5	/experiments/knapen_aot/videos/R_S_production_ID_4360158.mp4	0.0	146.03776597976685	0.18323206901550293
33	90.89689087867737	response	0	2		31.0	2.5	/experiments/knapen_aot/videos/R_S_production_ID_4360158.mp4	0.0	146.2128620147705	
33	90.90502691268921	movie	1		165.0	31.0	2.5	/experiments/knapen_aot/videos/R_S_production_ID_4360158.mp4	0.0	146.22099804878235	2.508384943008423
33	93.41341185569763	fix_post	2		12.0	31.0	2.5	/experiments/knapen_aot/videos/R_S_production_ID_4360158.mp4	0.0	148.72938299179077	0.09996294975280762
34	93.51337480545044	fix_pre	0		35.0	32.0	2.5	/experiments/knapen_aot/videos/R_S_yt-oPq1uvbw-lQ_62.mp4	0.0	148.82934594154358	0.29161596298217773
34	93.79688096046448	response	0	2		32.0	2.5	/experiments/knapen_aot/videos/R_S_yt-oPq1uvbw-lQ_62.mp4	0.0	149.11285209655762	
34	93.80499076843262	movie	1		301.0	32.0	2.5	/experiments/knapen_aot/videos/R_S_yt-oPq1uvbw-lQ_62.mp4	0.0	149.12096190452576	2.5086660385131836
34	93.95510292053223	response	1	2		32.0	2.5	/experiments/knapen_aot/videos/R_S_yt-oPq1uvbw-lQ_62.mp4	0.0	149.27107405662537	
34	96.3136568069458	fix_post	2		12.0	32.0	2.5	/experiments/knapen_aot/videos/R_S_yt-oPq1uvbw-lQ_62.mp4	0.0	151.62962794303894	0.09973812103271484
35	96.41339492797852	fix_pre	0		26.0	33.0	2.5	/experiments/knapen_aot/videos/R_S_yt-CLX1rmSf2Rs_194.mp4	0.0	151.72936606407166	0.21718788146972656
35	96.62189483642578	response	0	2		33.0	2.5	/experiments/knapen_aot/videos/R_S_yt-CLX1rmSf2Rs_194.mp4	0.0	151.93786597251892	
35	96.63058280944824	movie	1		301.0	33.0	2.5	/experiments/knapen_aot/videos/R_S_yt-CLX1rmSf2Rs_194.mp4	0.0	151.94655394554138	2.5078020095825195
35	99.13838481903076	fix_post	2		12.0	33.0	2.5	/experiments/knapen_aot/videos/R_S_yt-CLX1rmSf2Rs_194.mp4	0.0	154.4543559551239	0.10001611709594727
36	99.23840093612671	fix_pre	0		44.0	34.0	2.5	blank	1.0	154.55437207221985	0.3665659427642822
36	99.59683394432068	response	0	2		34.0	2.5	blank	1.0	154.91280508041382	
36	99.60496687889099	movie	1		301.0	34.0	2.5	blank	1.0	154.92093801498413	2.508352041244507
36	102.1133189201355	fix_post	2		12.0	34.0	2.5	blank	1.0	157.42929005622864	0.09996891021728516
37	102.21328783035278	fix_pre	0		23.0	35.0	2.5	/experiments/knapen_aot/videos/S_ILSVRC2015_train_00324001.mp4	0.0	157.52925896644592	0.1917099952697754
37	102.39667391777039	response	0	2		35.0	2.5	/experiments/knapen_aot/videos/S_ILSVRC2015_train_00324001.mp4	0.0	157.71264505386353	
37	102.40499782562256	movie	1		301.0	35.0	2.5	/experiments/knapen_aot/videos/S_ILSVRC2015_train_00324001.mp4	0.0	157.7209689617157	2.508622169494629
37	104.91361999511719	fix_post	2		12.0	35.0	2.5	/experiments/knapen_aot/videos/S_ILSVRC2015_train_00324001.mp4	0.0	160.22959113121033	0.09972381591796875
38	105.01334381103516	fix_pre	0		13.0	36.0	2.5	/experiments/knapen_aot/videos/R_S_comp_N013_C004_PS_v01_SDR_PS_20180925_F1970F7193_SDR_2K_AVC.mp4	0.0	160.3293149471283	0.1083211898803711
38	105.11368680000305	response	0	2		36.0	2.5	/experiments/knapen_aot/videos/R_S_comp_N013_C004_PS_v01_SDR_PS_20180925_F1970F7193_SDR_2K_AVC.mp4	0.0	160.4296579360962	
38	105.12166500091553	movie	1		165.0	36.0	2.5	/experiments/knapen_aot/videos/R_S_comp_N013_C004_PS_v01_SDR_PS_20180925_F1970F7193_SDR_2K_AVC.mp4	0.0	160.43763613700867	2.5083677768707275
38	107.63003277778625	fix_post	2		12.0	36.0	2.5	/experiments/knapen_aot/videos/R_S_comp_N013_C004_PS_v01_SDR_PS_20180925_F1970F7193_SDR_2K_AVC.mp4	0.0	162.9460039138794	0.09993314743041992
39	107.72996592521667	fix_pre	0		23.0	37.0	2.5	/experiments/knapen_aot/videos/S_yt-xQPKYWDRy2A_491.mp4	0.0	163.04593706130981	0.19225502014160156
39	107.9133529663086	response	0	2		37.0	2.5	/experiments/knapen_aot/videos/S_yt-xQPKYWDRy2A_491.mp4	0.0	163.22932410240173	
39	107.92222094535828	movie	1		301.0	37.0	2.5	/experiments/knapen_aot/videos/S_yt-xQPKYWDRy2A_491.mp4	0.0	163.23819208145142	2.507823944091797
39	110.43004488945007	fix_post	2		12.0	37.0	2.5	/experiments/knapen_aot/videos/S_yt-xQPKYWDRy2A_491.mp4	0.0	165.7460160255432	0.09995388984680176
40	110.52999877929688	fix_pre	0		71.0	38.0	2.5	/experiments/knapen_aot/videos/R_S_yt-kQpE9L-fsNE_55.mp4	0.0	165.84596991539001	0.5916571617126465
40	111.113520860672	response	0	2		38.0	2.5	/experiments/knapen_aot/videos/R_S_yt-kQpE9L-fsNE_55.mp4	0.0	166.42949199676514	
40	111.12165594100952	movie	1		301.0	38.0	2.5	/experiments/knapen_aot/videos/R_S_yt-kQpE9L-fsNE_55.mp4	0.0	166.43762707710266	2.508307933807373
40	113.6299638748169	fix_post	2		12.0	38.0	2.5	/experiments/knapen_aot/videos/R_S_yt-kQpE9L-fsNE_55.mp4	0.0	168.94593501091003	0.1000521183013916
41	113.73001599311829	fix_pre	0		32.0	39.0	2.5	/experiments/knapen_aot/videos/S_yt-7e6Z9QQieAk_183.mp4	0.0	169.04598712921143	0.2666139602661133
41	113.98093795776367	response	0	2		39.0	2.5	/experiments/knapen_aot/videos/S_yt-7e6Z9QQieAk_183.mp4	0.0	169.2969090938568	
41	113.9966299533844	movie	1		301.0	39.0	2.5	/experiments/knapen_aot/videos/S_yt-7e6Z9QQieAk_183.mp4	0.0	169.31260108947754	2.5082600116729736
41	116.50488996505737	fix_post	2		12.0	39.0	2.5	/experiments/knapen_aot/videos/S_yt-7e6Z9QQieAk_183.mp4	0.0	171.8208611011505	0.1000978946685791
42	116.60498785972595	fix_pre	0		31.0	40.0	2.5	/experiments/knapen_aot/videos/S_comp_CH_C007_C011_PSNK_v02_SDR_PS_FINAL_20180709_SDR_2K_AVC.mp4	0.0	171.9209589958191	0.2582519054412842
42	116.85504794120789	response	0	2		40.0	2.5	/experiments/knapen_aot/videos/S_comp_CH_C007_C011_PSNK_v02_SDR_PS_FINAL_20180709_SDR_2K_AVC.mp4	0.0	172.17101907730103	
42	116.86323976516724	movie	1		171.0	40.0	2.5	/experiments/knapen_aot/videos/S_comp_CH_C007_C011_PSNK_v02_SDR_PS_FINAL_20180709_SDR_2K_AVC.mp4	0.0	172.17921090126038	2.5084102153778076
42	119.35508799552917	response	1	2		40.0	2.5	/experiments/knapen_aot/videos/S_comp_CH_C007_C011_PSNK_v02_SDR_PS_FINAL_20180709_SDR_2K_AVC.mp4	0.0	174.67105913162231	
42	119.37164998054504	fix_post	2		12.0	40.0	2.5	/experiments/knapen_aot/videos/S_comp_CH_C007_C011_PSNK_v02_SDR_PS_FINAL_20180709_SDR_2K_AVC.mp4	0.0	174.68762111663818	0.10001182556152344
43	119.47166180610657	fix_pre	0		34.0	41.0	2.5	/experiments/knapen_aot/videos/S_yt-kQpE9L-fsNE_55.mp4	0.0	174.7876329421997	0.28369617462158203
43	119.74673080444336	response	0	2		41.0	2.5	/experiments/knapen_aot/videos/S_yt-kQpE9L-fsNE_55.mp4	0.0	175.0627019405365	
43	119.75535798072815	movie	1		301.0	41.0	2.5	/experiments/knapen_aot/videos/S_yt-kQpE9L-fsNE_55.mp4	0.0	175.0713291168213	2.5079398155212402
43	122.26329779624939	fix_post	2		12.0	41.0	2.5	/experiments/knapen_aot/videos/S_yt-kQpE9L-fsNE_55.mp4	0.0	177.57926893234253	0.09998607635498047
44	122.36328387260437	fix_pre	0		15.0	42.0	2.5	blank	1.0	177.6792550086975	0.12498712539672852
44	122.47996187210083	response	0	2		42.0	2.5	blank	1.0	177.79593300819397	
44	122.4882709980011	movie	1		301.0	42.0	2.5	blank	1.0	177.80424213409424	2.508316993713379
44	124.99658799171448	fix_post	2		12.0	42.0	2.5	blank	1.0	180.31255912780762	0.09993982315063477
45	125.09652781486511	fix_pre	0		56.0	43.0	2.5	/experiments/knapen_aot/videos/R_S_yt-ZTAaH5XbtfE_3.mp4	0.0	180.41249895095825	0.4667220115661621
45	125.54753398895264	response	0	2		43.0	2.5	/experiments/knapen_aot/videos/R_S_yt-ZTAaH5XbtfE_3.mp4	0.0	180.86350512504578	
45	125.56324982643127	movie	1		301.0	43.0	2.5	/experiments/knapen_aot/videos/R_S_yt-ZTAaH5XbtfE_3.mp4	0.0	180.8792209625244	2.5084519386291504
45	128.07170176506042	fix_post	2		12.0	43.0	2.5	/experiments/knapen_aot/videos/R_S_yt-ZTAaH5XbtfE_3.mp4	0.0	183.38767290115356	0.09986400604248047
46	128.1715657711029	fix_pre	0		34.0	44.0	2.5	/experiments/knapen_aot/videos/R_S_pexels-koolshooters-7327401_1.mp4	0.0	183.48753690719604	0.283311128616333
46	128.43914198875427	response	0	2		44.0	2.5	/experiments/knapen_aot/videos/R_S_pexels-koolshooters-7327401_1.mp4	0.0	183.7551131248474	
46	128.45487689971924	movie	1		178.0	44.0	2.5	/experiments/knapen_aot/videos/R_S_pexels-koolshooters-7327401_1.mp4	0.0	183.77084803581238	2.5083658695220947
46	130.96324276924133	fix_post	2		12.0	44.0	2.5	/experiments/knapen_aot/videos/R_S_pexels-koolshooters-7327401_1.mp4	0.0	186.27921390533447	0.10001301765441895
47	131.06325578689575	fix_pre	0		129.0	45.0	2.5	/experiments/knapen_aot/videos/R_S_yt-mdLT282PVbE_6.mp4	0.0	186.3792269229889	1.0749380588531494
47	132.13000893592834	response	0	2		45.0	2.5	/experiments/knapen_aot/videos/R_S_yt-mdLT282PVbE_6.mp4	0.0	187.44598007202148	
47	132.1381938457489	movie	1		301.0	45.0	2.5	/experiments/knapen_aot/videos/R_S_yt-mdLT282PVbE_6.mp4	0.0	187.45416498184204	2.5083601474761963
47	134.6465539932251	fix_post	2		12.0	45.0	2.5	/experiments/knapen_aot/videos/R_S_yt-mdLT282PVbE_6.mp4	0.0	189.96252512931824	0.10023093223571777
48	134.74678492546082	fix_pre	0		31.0	46.0	2.5	/experiments/knapen_aot/videos/S_yt-yPl8LcgSMjo_32.mp4	0.0	190.06275606155396	0.25844407081604004
48	134.99666690826416	response	0	2		46.0	2.5	/experiments/knapen_aot/videos/S_yt-yPl8LcgSMjo_32.mp4	0.0	190.3126380443573	
48	135.00522899627686	movie	1		301.0	46.0	2.5	/experiments/knapen_aot/videos/S_yt-yPl8LcgSMjo_32.mp4	0.0	190.32120013237	2.5079798698425293
48	137.51320886611938	fix_post	2		12.0	46.0	2.5	/experiments/knapen_aot/videos/S_yt-yPl8LcgSMjo_32.mp4	0.0	192.82918000221252	0.09999799728393555
49	137.61320686340332	fix_pre	0		28.0	47.0	2.5	/experiments/knapen_aot/videos/R_S_yt-BG-G7m5wLZ4_94.mp4	0.0	192.92917799949646	0.23332500457763672
49	137.83075189590454	response	0	2		47.0	2.5	/experiments/knapen_aot/videos/R_S_yt-BG-G7m5wLZ4_94.mp4	0.0	193.14672303199768	
49	137.84653186798096	movie	1		301.0	47.0	2.5	/experiments/knapen_aot/videos/R_S_yt-BG-G7m5wLZ4_94.mp4	0.0	193.1625030040741	2.5084121227264404
49	140.3549439907074	fix_post	2		12.0	47.0	2.5	/experiments/knapen_aot/videos/R_S_yt-BG-G7m5wLZ4_94.mp4	0.0	195.67091512680054	0.09996986389160156
50	140.454913854599	fix_pre	0		9.0	48.0	2.5	blank	1.0	195.77088499069214	0.07491707801818848
50	140.5216507911682	response	0	2		48.0	2.5	blank	1.0	195.83762192726135	
50	140.5298309326172	movie	1		301.0	48.0	2.5	blank	1.0	195.84580206871033	2.5084309577941895
50	143.03826189041138	fix_post	2		12.0	48.0	2.5	blank	1.0	198.35423302650452	0.0998849868774414
51	143.13814687728882	fix_pre	0		65.0	49.0	2.5	/experiments/knapen_aot/videos/R_S_yt-FzMLLmcD1mE_19.mp4	0.0	198.45411801338196	0.5416719913482666
51	143.6716389656067	response	0	2		49.0	2.5	/experiments/knapen_aot/videos/R_S_yt-FzMLLmcD1mE_19.mp4	0.0	198.98761010169983	
51	143.67981886863708	movie	1		301.0	49.0	2.5	/experiments/knapen_aot/videos/R_S_yt-FzMLLmcD1mE_19.mp4	0.0	198.99579000473022	2.5083749294281006
51	146.18819379806519	fix_post	2		12.0	49.0	2.5	/experiments/knapen_aot/videos/R_S_yt-FzMLLmcD1mE_19.mp4	0.0	201.50416493415833	0.09991598129272461
52	146.2881097793579	fix_pre	0		34.0	50.0	2.5	/experiments/knapen_aot/videos/S_yt-c6kLumgTX54_7.mp4	0.0	201.60408091545105	0.2833411693572998
52	146.56321477890015	response	0	2		50.0	2.5	/experiments/knapen_aot/videos/S_yt-c6kLumgTX54_7.mp4	0.0	201.8791859149933	
52	146.5714509487152	movie	1		301.0	50.0	2.5	/experiments/knapen_aot/videos/S_yt-c6kLumgTX54_7.mp4	0.0	201.88742208480835	2.508419990539551
52	149.07987093925476	fix_post	2		12.0	50.0	2.5	/experiments/knapen_aot/videos/S_yt-c6kLumgTX54_7.mp4	0.0	204.3958420753479	0.09997701644897461
53	149.17984795570374	fix_pre	0		60.0	51.0	2.5	/experiments/knapen_aot/videos/S_yt-yJmHtBFyhH4_15.mp4	0.0	204.49581909179688	0.49994897842407227
53	149.6715919971466	response	0	2		51.0	2.5	/experiments/knapen_aot/videos/S_yt-yJmHtBFyhH4_15.mp4	0.0	204.98756313323975	
53	149.6797969341278	movie	1		301.0	51.0	2.5	/experiments/knapen_aot/videos/S_yt-yJmHtBFyhH4_15.mp4	0.0	204.99576807022095	2.5083768367767334
53	152.18817377090454	fix_post	2		12.0	51.0	2.5	/experiments/knapen_aot/videos/S_yt-yJmHtBFyhH4_15.mp4	0.0	207.50414490699768	0.10003304481506348
54	152.2882068157196	fix_pre	0		34.0	52.0	2.5	/experiments/knapen_aot/videos/S_yt-MSdNCUWOp4o_4.mp4	0.0	207.60417795181274	0.28319716453552246
54	152.5557417869568	response	0	2		52.0	2.5	/experiments/knapen_aot/videos/S_yt-MSdNCUWOp4o_4.mp4	0.0	207.87171292304993	
54	152.57140398025513	movie	1		301.0	52.0	2.5	/experiments/knapen_aot/videos/S_yt-MSdNCUWOp4o_4.mp4	0.0	207.88737511634827	2.5088069438934326
54	155.08021092414856	fix_post	2		12.0	52.0	2.5	/experiments/knapen_aot/videos/S_yt-MSdNCUWOp4o_4.mp4	0.0	210.3961820602417	0.0995938777923584
55	155.17980480194092	fix_pre	0		18.0	53.0	2.5	/experiments/knapen_aot/videos/S_yt-7e6Z9QQieAk_183.mp4	0.0	210.49577593803406	0.1500260829925537
55	155.32157492637634	response	0	2		53.0	2.5	/experiments/knapen_aot/videos/S_yt-7e6Z9QQieAk_183.mp4	0.0	210.63754606246948	
55	155.32983088493347	movie	1		301.0	53.0	2.5	/experiments/knapen_aot/videos/S_yt-7e6Z9QQieAk_183.mp4	0.0	210.6458020210266	2.5082950592041016
55	157.83812594413757	fix_post	2		12.0	53.0	2.5	/experiments/knapen_aot/videos/S_yt-7e6Z9QQieAk_183.mp4	0.0	213.1540970802307	0.09999489784240723
56	157.93812084197998	fix_pre	0		39.0	54.0	2.5	/experiments/knapen_aot/videos/S_yt-bTcbsBET7gc_270.mp4	0.0	213.25409197807312	0.32498598098754883
56	158.25487899780273	response	0	2		54.0	2.5	/experiments/knapen_aot/videos/S_yt-bTcbsBET7gc_270.mp4	0.0	213.57085013389587	
56	158.26310682296753	movie	1		301.0	54.0	2.5	/experiments/knapen_aot/videos/S_yt-bTcbsBET7gc_270.mp4	0.0	213.57907795906067	2.5087220668792725
56	160.7718288898468	fix_post	2		12.0	54.0	2.5	/experiments/knapen_aot/videos/S_yt-bTcbsBET7gc_270.mp4	0.0	216.08780002593994	0.09958004951477051
57	160.87140893936157	fix_pre	0		39.0	55.0	2.5	/experiments/knapen_aot/videos/R_S_wc-AyT9mzwZsu0T_14.mp4	0.0	216.1873800754547	0.3250398635864258
57	161.18820691108704	response	0	2		55.0	2.5	/experiments/knapen_aot/videos/R_S_wc-AyT9mzwZsu0T_14.mp4	0.0	216.50417804718018	
57	161.196448802948	movie	1		165.0	55.0	2.5	/experiments/knapen_aot/videos/R_S_wc-AyT9mzwZsu0T_14.mp4	0.0	216.51241993904114	2.5083281993865967
57	163.7047770023346	fix_post	2		12.0	55.0	2.5	/experiments/knapen_aot/videos/R_S_wc-AyT9mzwZsu0T_14.mp4	0.0	219.02074813842773	0.09998893737792969
58	163.80476593971252	fix_pre	0		17.0	56.0	2.5	blank	1.0	219.12073707580566	0.1417379379272461
58	163.93076086044312	response	0	2		56.0	2.5	blank	1.0	219.24673199653625	
58	163.94650387763977	movie	1		301.0	56.0	2.5	blank	1.0	219.2624750137329	2.5082759857177734
58	166.45477986335754	fix_post	2		12.0	56.0	2.5	blank	1.0	221.77075099945068	0.10000991821289062
59	166.55478978157043	fix_pre	0		36.0	57.0	2.5	/experiments/knapen_aot/videos/S_yt-9pYW_TqVpU4_43.mp4	0.0	221.87076091766357	0.2999100685119629
59	166.8465359210968	response	0	2		57.0	2.5	/experiments/knapen_aot/videos/S_yt-9pYW_TqVpU4_43.mp4	0.0	222.16250705718994	
59	166.8546998500824	movie	1		301.0	57.0	2.5	/experiments/knapen_aot/videos/S_yt-9pYW_TqVpU4_43.mp4	0.0	222.17067098617554	2.5083720684051514
59	169.36307191848755	fix_post	2		12.0	57.0	2.5	/experiments/knapen_aot/videos/S_yt-9pYW_TqVpU4_43.mp4	0.0	224.6790430545807	0.10028505325317383
60	169.46335697174072	fix_pre	0		27.0	58.0	2.5	/experiments/knapen_aot/videos/R_S_yt-PK-Eip9wFr0_24.mp4	0.0	224.77932810783386	0.22467589378356934
60	169.67980790138245	response	0	2		58.0	2.5	/experiments/knapen_aot/videos/R_S_yt-PK-Eip9wFr0_24.mp4	0.0	224.9957790374756	
60	169.6880328655243	movie	1		301.0	58.0	2.5	/experiments/knapen_aot/videos/R_S_yt-PK-Eip9wFr0_24.mp4	0.0	225.00400400161743	2.5083749294281006
60	172.1964077949524	fix_post	2		12.0	58.0	2.5	/experiments/knapen_aot/videos/R_S_yt-PK-Eip9wFr0_24.mp4	0.0	227.51237893104553	0.10019302368164062
61	172.29660081863403	fix_pre	0		10.0	59.0	2.5	/experiments/knapen_aot/videos/R_S_yt-TSSPDwAQLXs_158.mp4	0.0	227.61257195472717	0.08345699310302734
61	172.37156081199646	response	0	2		59.0	2.5	/experiments/knapen_aot/videos/R_S_yt-TSSPDwAQLXs_158.mp4	0.0	227.6875319480896	
61	172.38005781173706	movie	1		301.0	59.0	2.5	/experiments/knapen_aot/videos/R_S_yt-TSSPDwAQLXs_158.mp4	0.0	227.6960289478302	2.508090019226074
61	174.88814783096313	fix_post	2		12.0	59.0	2.5	/experiments/knapen_aot/videos/R_S_yt-TSSPDwAQLXs_158.mp4	0.0	230.20411896705627	0.099945068359375
62	174.9880928993225	fix_pre	0		8.0	60.0	2.5	/experiments/knapen_aot/videos/R_S_yt-QqSceHxY3d0_356.mp4	0.0	230.30406403541565	0.06662297248840332
62	175.04647779464722	response	0	2		60.0	2.5	/experiments/knapen_aot/videos/R_S_yt-QqSceHxY3d0_356.mp4	0.0	230.36244893074036	
62	175.0547158718109	movie	1		301.0	60.0	2.5	/experiments/knapen_aot/videos/R_S_yt-QqSceHxY3d0_356.mp4	0.0	230.37068700790405	2.508347988128662
62	177.56306385993958	fix_post	2		12.0	60.0	2.5	/experiments/knapen_aot/videos/R_S_yt-QqSceHxY3d0_356.mp4	0.0	232.87903499603271	0.09997892379760742
63	177.66304278373718	fix_pre	0		15.0	61.0	2.5	/experiments/knapen_aot/videos/R_S_ILSVRC2015_train_00723001.mp4	0.0	232.97901391983032	0.12488603591918945
63	177.7798478603363	response	0	2		61.0	2.5	/experiments/knapen_aot/videos/R_S_ILSVRC2015_train_00723001.mp4	0.0	233.09581899642944	
63	177.78792881965637	movie	1		301.0	61.0	2.5	/experiments/knapen_aot/videos/R_S_ILSVRC2015_train_00723001.mp4	0.0	233.1038999557495	2.5089261531829834
63	180.29685497283936	fix_post	2		12.0	61.0	2.5	/experiments/knapen_aot/videos/R_S_ILSVRC2015_train_00723001.mp4	0.0	235.6128261089325	0.09952402114868164
64	180.39637899398804	fix_pre	0		39.0	62.0	2.5	blank	1.0	235.71235013008118	0.32492685317993164
64	180.71317076683044	response	0	2		62.0	2.5	blank	1.0	236.02914190292358	
64	180.72130584716797	movie	1		301.0	62.0	2.5	blank	1.0	236.0372769832611	2.5084340572357178
64	183.0629858970642	response	1	2		62.0	2.5	blank	1.0	238.37895703315735	
64	183.2297399044037	fix_post	2		12.0	62.0	2.5	blank	1.0	238.54571104049683	0.09995603561401367
65	183.3296959400177	fix_pre	0		11.0	63.0	2.5	/experiments/knapen_aot/videos/R_S_yt-qazCIJqjxUU_3.mp4	0.0	238.64566707611084	0.09174394607543945
65	183.40560483932495	response	0	2		63.0	2.5	/experiments/knapen_aot/videos/R_S_yt-qazCIJqjxUU_3.mp4	0.0	238.7215759754181	
65	183.42143988609314	movie	1		301.0	63.0	2.5	/experiments/knapen_aot/videos/R_S_yt-qazCIJqjxUU_3.mp4	0.0	238.73741102218628	2.5082449913024902
65	185.92968487739563	fix_post	2		11.0	63.0	2.5	/experiments/knapen_aot/videos/R_S_yt-qazCIJqjxUU_3.mp4	0.0	241.24565601348877	0.09160900115966797
65	186.01308393478394	response	2	2		63.0	2.5	/experiments/knapen_aot/videos/R_S_yt-qazCIJqjxUU_3.mp4	0.0	241.32905507087708	
66	186.0212938785553	fix_pre	0		50.0	64.0	2.5	/experiments/knapen_aot/videos/S_yt-ET5YTz1laWo_108.mp4	0.0	241.33726501464844	0.41668200492858887
66	186.4296498298645	response	0	2		64.0	2.5	/experiments/knapen_aot/videos/S_yt-ET5YTz1laWo_108.mp4	0.0	241.74562096595764	
66	186.4379758834839	movie	1		301.0	64.0	2.5	/experiments/knapen_aot/videos/S_yt-ET5YTz1laWo_108.mp4	0.0	241.75394701957703	2.508384943008423
66	188.9463608264923	fix_post	2		12.0	64.0	2.5	/experiments/knapen_aot/videos/S_yt-ET5YTz1laWo_108.mp4	0.0	244.26233196258545	0.10025405883789062
67	189.0466148853302	fix_pre	0		2.0	65.0	2.5	/experiments/knapen_aot/videos/R_S_yt-y6JsUW0eSW8_32.mp4	0.0	244.36258602142334	0.016405105590820312
67	189.05480194091797	response	0	2		65.0	2.5	/experiments/knapen_aot/videos/R_S_yt-y6JsUW0eSW8_32.mp4	0.0	244.3707730770111	
67	189.06301999092102	movie	1		301.0	65.0	2.5	/experiments/knapen_aot/videos/R_S_yt-y6JsUW0eSW8_32.mp4	0.0	244.37899112701416	2.5083439350128174
67	191.57136392593384	fix_post	2		12.0	65.0	2.5	/experiments/knapen_aot/videos/R_S_yt-y6JsUW0eSW8_32.mp4	0.0	246.88733506202698	0.10009884834289551
68	191.67146277427673	fix_pre	0		12.0	66.0	2.5	/experiments/knapen_aot/videos/R_S_yt-w_e3sxIzepA_115.mp4	0.0	246.98743391036987	0.09988212585449219
68	191.76310992240906	response	0	2		66.0	2.5	/experiments/knapen_aot/videos/R_S_yt-w_e3sxIzepA_115.mp4	0.0	247.0790810585022	
68	191.77134490013123	movie	1		301.0	66.0	2.5	/experiments/knapen_aot/videos/R_S_yt-w_e3sxIzepA_115.mp4	0.0	247.08731603622437	2.5082950592041016
68	194.27963995933533	fix_post	2		12.0	66.0	2.5	/experiments/knapen_aot/videos/R_S_yt-w_e3sxIzepA_115.mp4	0.0	249.59561109542847	0.10011887550354004
69	194.37975883483887	fix_pre	0		53.0	67.0	2.5	/experiments/knapen_aot/videos/S_RS_A008_C010_SDR_20191218_SDR_2K_AVC.mp4	0.0	249.695729970932	0.44150614738464355
69	194.81310987472534	response	0	2		67.0	2.5	/experiments/knapen_aot/videos/S_RS_A008_C010_SDR_20191218_SDR_2K_AVC.mp4	0.0	250.12908101081848	
69	194.8212649822235	movie	1		168.0	67.0	2.5	/experiments/knapen_aot/videos/S_RS_A008_C010_SDR_20191218_SDR_2K_AVC.mp4	0.0	250.13723611831665	2.5084969997406006
69	197.0048909187317	response	1	2		67.0	2.5	/experiments/knapen_aot/videos/S_RS_A008_C010_SDR_20191218_SDR_2K_AVC.mp4	0.0	252.32086205482483	
69	197.3297619819641	fix_post	2		12.0	67.0	2.5	/experiments/knapen_aot/videos/S_RS_A008_C010_SDR_20191218_SDR_2K_AVC.mp4	0.0	252.64573311805725	0.0998837947845459
69	197.37149786949158	response	2	2		67.0	2.5	/experiments/knapen_aot/videos/S_RS_A008_C010_SDR_20191218_SDR_2K_AVC.mp4	0.0	252.68746900558472	
70	197.42964577674866	fix_pre	0		38.0	68.0	2.5	/experiments/knapen_aot/videos/S_yt-OTNdgakSIJE_97.mp4	0.0	252.7456169128418	0.31667113304138184
70	197.73806381225586	response	0	2		68.0	2.5	/experiments/knapen_aot/videos/S_yt-OTNdgakSIJE_97.mp4	0.0	253.054034948349	
70	197.74631690979004	movie	1		301.0	68.0	2.5	/experiments/knapen_aot/videos/S_yt-OTNdgakSIJE_97.mp4	0.0	253.06228804588318	2.508746862411499
70	200.25506377220154	fix_post	2		12.0	68.0	2.5	/experiments/knapen_aot/videos/S_yt-OTNdgakSIJE_97.mp4	0.0	255.57103490829468	0.09968209266662598
71	200.35474586486816	fix_pre	0		7.0	69.0	2.5	/experiments/knapen_aot/videos/R_S_yt-BW6jWEVbxxk_4.mp4	0.0	255.6707170009613	0.05819511413574219
71	200.40473294258118	response	0	2		69.0	2.5	/experiments/knapen_aot/videos/R_S_yt-BW6jWEVbxxk_4.mp4	0.0	255.72070407867432	
71	200.4129409790039	movie	1		301.0	69.0	2.5	/experiments/knapen_aot/videos/R_S_yt-BW6jWEVbxxk_4.mp4	0.0	255.72891211509705	2.508509874343872
71	202.92145085334778	fix_post	2		12.0	69.0	2.5	/experiments/knapen_aot/videos/R_S_yt-BW6jWEVbxxk_4.mp4	0.0	258.2374219894409	0.09983491897583008
72	203.0212857723236	fix_pre	0		13.0	70.0	2.5	blank	1.0	258.33725690841675	0.1083521842956543
72	203.12151885032654	response	0	2		70.0	2.5	blank	1.0	258.4374899864197	
72	203.12963795661926	movie	1		301.0	70.0	2.5	blank	1.0	258.4456090927124	2.5082199573516846
72	205.63785791397095	fix_post	2		12.0	70.0	2.5	blank	1.0	260.9538290500641	0.10008001327514648
73	205.7379379272461	fix_pre	0		15.0	71.0	2.5	/experiments/knapen_aot/videos/S_yt-hdZEAsVBEEM_19.mp4	0.0	261.05390906333923	0.125
73	205.85469889640808	response	0	2		71.0	2.5	/experiments/knapen_aot/videos/S_yt-hdZEAsVBEEM_19.mp4	0.0	261.1706700325012	
73	205.8629379272461	movie	1		301.0	71.0	2.5	/experiments/knapen_aot/videos/S_yt-hdZEAsVBEEM_19.mp4	0.0	261.17890906333923	2.5087568759918213
73	208.37169480323792	fix_post	2		12.0	71.0	2.5	/experiments/knapen_aot/videos/S_yt-hdZEAsVBEEM_19.mp4	0.0	263.68766593933105	0.09974908828735352
74	208.47144389152527	fix_pre	0		31.0	72.0	2.5	/experiments/knapen_aot/videos/S_wc-Mf8SQpviaD6D_17.mp4	0.0	263.7874150276184	0.2581179141998291
74	208.72140192985535	response	0	2		72.0	2.5	/experiments/knapen_aot/videos/S_wc-Mf8SQpviaD6D_17.mp4	0.0	264.0373730659485	
74	208.7295618057251	movie	1		169.0	72.0	2.5	/experiments/knapen_aot/videos/S_wc-Mf8SQpviaD6D_17.mp4	0.0	264.04553294181824	2.5085079669952393
74	211.23806977272034	fix_post	2		12.0	72.0	2.5	/experiments/knapen_aot/videos/S_wc-Mf8SQpviaD6D_17.mp4	0.0	266.5540409088135	0.09989118576049805
75	211.33796095848083	fix_pre	0		13.0	73.0	2.5	/experiments/knapen_aot/videos/R_S_pexels-roman-odintsov-8231493.mp4	0.0	266.653932094574	0.1082010269165039
75	211.43803596496582	response	0	2		73.0	2.5	/experiments/knapen_aot/videos/R_S_pexels-roman-odintsov-8231493.mp4	0.0	266.75400710105896	
75	211.44616198539734	movie	1		202.0	73.0	2.5	/experiments/knapen_aot/videos/R_S_pexels-roman-odintsov-8231493.mp4	0.0	266.7621331214905	2.509866952896118
75	213.95602893829346	fix_post	2		12.0	73.0	2.5	/experiments/knapen_aot/videos/R_S_pexels-roman-odintsov-8231493.mp4	0.0	269.2720000743866	0.09852385520935059
76	214.0545527935028	fix_pre	0		11.0	74.0	2.5	/experiments/knapen_aot/videos/S_yt-_HuBzj8EPBc_62.mp4	0.0	269.37052392959595	0.09167814254760742
76	214.1380307674408	response	0	2		74.0	2.5	/experiments/knapen_aot/videos/S_yt-_HuBzj8EPBc_62.mp4	0.0	269.45400190353394	
76	214.14623093605042	movie	1		301.0	74.0	2.5	/experiments/knapen_aot/videos/S_yt-_HuBzj8EPBc_62.mp4	0.0	269.46220207214355	2.5084259510040283
76	216.65465688705444	fix_post	2		12.0	74.0	2.5	/experiments/knapen_aot/videos/S_yt-_HuBzj8EPBc_62.mp4	0.0	271.9706280231476	0.09992694854736328
77	216.7545838356018	fix_pre	0		18.0	75.0	2.5	/experiments/knapen_aot/videos/R_S_pexels-mart-production-7698911.mp4	0.0	272.07055497169495	0.14989304542541504
77	216.89636278152466	response	0	2		75.0	2.5	/experiments/knapen_aot/videos/R_S_pexels-mart-production-7698911.mp4	0.0	272.2123339176178	
77	216.90447688102722	movie	1		174.0	75.0	2.5	/experiments/knapen_aot/videos/R_S_pexels-mart-production-7698911.mp4	0.0	272.22044801712036	2.5085010528564453
77	219.25467896461487	response	1	2		75.0	2.5	/experiments/knapen_aot/videos/R_S_pexels-mart-production-7698911.mp4	0.0	274.570650100708	
77	219.41297793388367	fix_post	2		12.0	75.0	2.5	/experiments/knapen_aot/videos/R_S_pexels-mart-production-7698911.mp4	0.0	274.7289490699768	0.09990096092224121
78	219.5128788948059	fix_pre	0		20.0	76.0	2.5	blank	1.0	274.82885003089905	0.16665005683898926
78	219.67131090164185	response	0	2		76.0	2.5	blank	1.0	274.987282037735	
78	219.6795289516449	movie	1		301.0	76.0	2.5	blank	1.0	274.99550008773804	2.5083038806915283
78	222.18783283233643	fix_post	2		12.0	76.0	2.5	blank	1.0	277.50380396842957	0.10007405281066895
79	222.2879068851471	fix_pre	0		13.0	77.0	2.5	/experiments/knapen_aot/videos/R_S_comp_N003_C006_PS_v01_SDR_PS_20180925_SDR_2K_AVC.mp4	0.0	277.60387802124023	0.10824990272521973
79	222.38799476623535	response	0	2		77.0	2.5	/experiments/knapen_aot/videos/R_S_comp_N003_C006_PS_v01_SDR_PS_20180925_SDR_2K_AVC.mp4	0.0	277.7039659023285	
79	222.39615678787231	movie	1		169.0	77.0	2.5	/experiments/knapen_aot/videos/R_S_comp_N003_C006_PS_v01_SDR_PS_20180925_SDR_2K_AVC.mp4	0.0	277.71212792396545	2.508362054824829
79	224.90451884269714	fix_post	2		12.0	77.0	2.5	/experiments/knapen_aot/videos/R_S_comp_N003_C006_PS_v01_SDR_PS_20180925_SDR_2K_AVC.mp4	0.0	280.2204899787903	0.10006999969482422
80	225.00458884239197	fix_pre	0		1.0	78.0	2.5	/experiments/knapen_aot/videos/R_S_pexels-mart-production-7698911.mp4	0.0	280.3205599784851	0.008305072784423828
80	225.00713992118835	response	0	2		78.0	2.5	/experiments/knapen_aot/videos/R_S_pexels-mart-production-7698911.mp4	0.0	280.3231110572815	
80	225.0128939151764	movie	1		196.0	78.0	2.5	/experiments/knapen_aot/videos/R_S_pexels-mart-production-7698911.mp4	0.0	280.32886505126953	2.5082499980926514
80	227.52114391326904	fix_post	2		12.0	78.0	2.5	/experiments/knapen_aot/videos/R_S_pexels-mart-production-7698911.mp4	0.0	282.8371150493622	0.1000359058380127
81	227.62117981910706	fix_pre	0		6.0	79.0	2.5	/experiments/knapen_aot/videos/R_S_pexels-cottonbro-6844209.mp4	0.0	282.9371509552002	0.049993038177490234
81	227.6629137992859	response	0	2		79.0	2.5	/experiments/knapen_aot/videos/R_S_pexels-cottonbro-6844209.mp4	0.0	282.978884935379	
81	227.67117285728455	movie	1		209.0	79.0	2.5	/experiments/knapen_aot/videos/R_S_pexels-cottonbro-6844209.mp4	0.0	282.9871439933777	2.508281946182251
81	230.1794548034668	fix_post	2		12.0	79.0	2.5	/experiments/knapen_aot/videos/R_S_pexels-cottonbro-6844209.mp4	0.0	285.49542593955994	0.10005402565002441
82	230.27950882911682	fix_pre	0		17.0	80.0	2.5	/experiments/knapen_aot/videos/R_S_yt-aiWUhl8MCto_71.mp4	0.0	285.59547996520996	0.141618013381958
82	230.41290378570557	response	0	2		80.0	2.5	/experiments/knapen_aot/videos/R_S_yt-aiWUhl8MCto_71.mp4	0.0	285.7288749217987	
82	230.42112684249878	movie	1		301.0	80.0	2.5	/experiments/knapen_aot/videos/R_S_yt-aiWUhl8MCto_71.mp4	0.0	285.7370979785919	2.5083930492401123
82	232.9295198917389	fix_post	2		12.0	80.0	2.5	/experiments/knapen_aot/videos/R_S_yt-aiWUhl8MCto_71.mp4	0.0	288.24549102783203	0.09998798370361328
83	233.0295078754425	fix_pre	0		21.0	81.0	2.5	/experiments/knapen_aot/videos/R_S_yt-hekMMCluhnU_18.mp4	0.0	288.34547901153564	0.17494797706604004
83	233.19626879692078	response	0	2		81.0	2.5	/experiments/knapen_aot/videos/R_S_yt-hekMMCluhnU_18.mp4	0.0	288.5122399330139	
83	233.20445585250854	movie	1		301.0	81.0	2.5	/experiments/knapen_aot/videos/R_S_yt-hekMMCluhnU_18.mp4	0.0	288.5204269886017	2.508310079574585
83	235.71276593208313	fix_post	2		12.0	81.0	2.5	/experiments/knapen_aot/videos/R_S_yt-hekMMCluhnU_18.mp4	0.0	291.02873706817627	0.10006284713745117
84	235.81282877922058	fix_pre	0		36.0	82.0	2.5	blank	1.0	291.1287999153137	0.2999260425567627
84	236.1046268939972	response	0	2		82.0	2.5	blank	1.0	291.42059803009033	
84	236.11275482177734	movie	1		301.0	82.0	2.5	blank	1.0	291.4287259578705	2.5085091590881348
84	238.62126398086548	fix_post	2		12.0	82.0	2.5	blank	1.0	293.9372351169586	0.09992289543151855
85	238.721186876297	fix_pre	0		31.0	83.0	2.5	/experiments/knapen_aot/videos/R_S_yt-1iB2ofPY1U8_16.mp4	0.0	294.03715801239014	0.2582221031188965
85	238.97142481803894	response	0	2		83.0	2.5	/experiments/knapen_aot/videos/R_S_yt-1iB2ofPY1U8_16.mp4	0.0	294.2873959541321	
85	238.9794089794159	movie	1		301.0	83.0	2.5	/experiments/knapen_aot/videos/R_S_yt-1iB2ofPY1U8_16.mp4	0.0	294.29538011550903	2.508391857147217
85	241.4878008365631	fix_post	2		12.0	83.0	2.5	/experiments/knapen_aot/videos/R_S_yt-1iB2ofPY1U8_16.mp4	0.0	296.80377197265625	0.10023903846740723
87	241.58803987503052	stim	0		362.0					296.90401101112366	3.016339063644409
87	241.61287999153137	response	0	2						296.9288511276245	
87	244.59627294540405	response	0	space						299.9122440814972	
