trial_nr	onset	event_type	phase	response	nr_frames	movie_index	movie_duration	movie_file	blank	onset_abs	duration
0	0.15822291374206543	stim	0		18.0					55.28662705421448	0.14900517463684082
0	0.29898500442504883	response	0	space						55.42738914489746	
1	0.30722808837890625	stim	0		121.0					55.43563222885132	1.007983922958374
1	0.9489059448242188	response	0	space						56.07731008529663	
1	1.3152120113372803	stim	1		120.0					56.44361615180969	0.9999959468841553
1	1.3486559391021729	response	1	space						56.477060079574585	
1	1.8152151107788086	response	1	space						56.94361925125122	
2	2.3152079582214355	fix_pre	0		13.0	0.0	2.5	/experiments/knapen_aot/oldvideos/S_yt-fjOsq03OC2c_188.mp4	0.0	57.44361209869385	0.10829997062683105
2	2.415364980697632	response	0	space		0.0	2.5	/experiments/knapen_aot/oldvideos/S_yt-fjOsq03OC2c_188.mp4	0.0	57.543769121170044	
2	2.4235079288482666	movie	1		300.0	0.0	2.5	/experiments/knapen_aot/oldvideos/S_yt-fjOsq03OC2c_188.mp4	0.0	57.55191206932068	2.5083541870117188
2	4.931862115859985	fix_post	2		12.0	0.0	2.5	/experiments/knapen_aot/oldvideos/S_yt-fjOsq03OC2c_188.mp4	0.0	60.0602662563324	0.09999895095825195
3	5.031861066818237	fix_pre	0		16.0	1.0	2.5	/experiments/knapen_aot/oldvideos/R_S_ILSVRC2015_train_00165011.mp4	0.0	60.16026520729065	0.13451695442199707
3	5.160769939422607	response	0	2		1.0	2.5	/experiments/knapen_aot/oldvideos/R_S_ILSVRC2015_train_00165011.mp4	0.0	60.28917407989502	
3	5.166378021240234	movie	1		300.0	1.0	2.5	/experiments/knapen_aot/oldvideos/R_S_ILSVRC2015_train_00165011.mp4	0.0	60.29478216171265	2.5071640014648438
3	7.673542022705078	fix_post	2		12.0	1.0	2.5	/experiments/knapen_aot/oldvideos/R_S_ILSVRC2015_train_00165011.mp4	0.0	62.80194616317749	0.09999299049377441
4	7.7735350131988525	fix_pre	0		6.0	2.0	2.5	/experiments/knapen_aot/oldvideos/S_pexels-pavel-danilyuk-8057714.mp4	0.0	62.901939153671265	0.049963951110839844
4	7.815386056900024	response	0	2		2.0	2.5	/experiments/knapen_aot/oldvideos/S_pexels-pavel-danilyuk-8057714.mp4	0.0	62.94379019737244	
4	7.823498964309692	movie	1		164.0	2.0	2.5	/experiments/knapen_aot/oldvideos/S_pexels-pavel-danilyuk-8057714.mp4	0.0	62.951903104782104	2.508352041244507
4	10.3318510055542	fix_post	2		12.0	2.0	2.5	/experiments/knapen_aot/oldvideos/S_pexels-pavel-danilyuk-8057714.mp4	0.0	65.46025514602661	0.10002398490905762
5	10.431874990463257	fix_pre	0		2.0	3.0	2.5	/experiments/knapen_aot/oldvideos/R_S_pexels-roman-odintsov-8231493.mp4	0.0	65.56027913093567	0.016603946685791016
5	10.440282106399536	response	0	2		3.0	2.5	/experiments/knapen_aot/oldvideos/R_S_pexels-roman-odintsov-8231493.mp4	0.0	65.56868624687195	
5	10.448478937149048	movie	1		204.0	3.0	2.5	/experiments/knapen_aot/oldvideos/R_S_pexels-roman-odintsov-8231493.mp4	0.0	65.57688307762146	2.508350133895874
5	12.956829071044922	fix_post	2		12.0	3.0	2.5	/experiments/knapen_aot/oldvideos/R_S_pexels-roman-odintsov-8231493.mp4	0.0	68.08523321151733	0.09999895095825195
6	13.056828022003174	fix_pre	0		4.0	4.0	2.5	/experiments/knapen_aot/oldvideos/R_S_yt-2ZsK7zSCJ2w_67.mp4	0.0	68.18523216247559	0.033288002014160156
6	13.082005023956299	response	0	2		4.0	2.5	/experiments/knapen_aot/oldvideos/R_S_yt-2ZsK7zSCJ2w_67.mp4	0.0	68.21040916442871	
6	13.090116024017334	movie	1		301.0	4.0	2.5	/experiments/knapen_aot/oldvideos/R_S_yt-2ZsK7zSCJ2w_67.mp4	0.0	68.21852016448975	2.5083789825439453
6	15.59849500656128	fix_post	2		12.0	4.0	2.5	/experiments/knapen_aot/oldvideos/R_S_yt-2ZsK7zSCJ2w_67.mp4	0.0	70.72689914703369	0.09999608993530273
7	15.698491096496582	fix_pre	0		11.0	5.0	2.5	blank	1.0	70.826895236969	0.09164690971374512
7	15.781923055648804	response	0	2		5.0	2.5	blank	1.0	70.91032719612122	
7	15.790138006210327	movie	1		301.0	5.0	2.5	blank	1.0	70.91854214668274	2.508327007293701
7	18.29846501350403	fix_post	2		12.0	5.0	2.5	blank	1.0	73.42686915397644	0.09997105598449707
8	18.398436069488525	fix_pre	0		24.0	6.0	2.5	/experiments/knapen_aot/oldvideos/R_S_yt-Dj42sI_Z-kQ_38.mp4	0.0	73.52684020996094	0.20002388954162598
8	18.590277910232544	response	0	2		6.0	2.5	/experiments/knapen_aot/oldvideos/R_S_yt-Dj42sI_Z-kQ_38.mp4	0.0	73.71868205070496	
8	18.59845995903015	movie	1		301.0	6.0	2.5	/experiments/knapen_aot/oldvideos/R_S_yt-Dj42sI_Z-kQ_38.mp4	0.0	73.72686409950256	2.508445978164673
8	21.106905937194824	fix_post	2		12.0	6.0	2.5	/experiments/knapen_aot/oldvideos/R_S_yt-Dj42sI_Z-kQ_38.mp4	0.0	76.23531007766724	0.09987711906433105
9	21.206783056259155	fix_pre	0		17.0	7.0	2.5	/experiments/knapen_aot/oldvideos/R_S_video_inspire_california_vineyard_sierra-mar_sunrise_110.1080-h264.mp4	0.0	76.33518719673157	0.14162492752075195
9	21.340205907821655	response	0	2		7.0	2.5	/experiments/knapen_aot/oldvideos/R_S_video_inspire_california_vineyard_sierra-mar_sunrise_110.1080-h264.mp4	0.0	76.46861004829407	
9	21.348407983779907	movie	1		168.0	7.0	2.5	/experiments/knapen_aot/oldvideos/R_S_video_inspire_california_vineyard_sierra-mar_sunrise_110.1080-h264.mp4	0.0	76.47681212425232	2.5083539485931396
9	23.856761932373047	fix_post	2		12.0	7.0	2.5	/experiments/knapen_aot/oldvideos/R_S_video_inspire_california_vineyard_sierra-mar_sunrise_110.1080-h264.mp4	0.0	78.98516607284546	0.09999299049377441
9	23.890217065811157	response	2	2		7.0	2.5	/experiments/knapen_aot/oldvideos/R_S_video_inspire_california_vineyard_sierra-mar_sunrise_110.1080-h264.mp4	0.0	79.01862120628357	
10	23.95675492286682	fix_pre	0		47.0	8.0	2.5	/experiments/knapen_aot/oldvideos/R_S_video_inspire_california_vineyard_sierra-mar_sunrise_110.1080-h264.mp4	0.0	79.08515906333923	0.39162111282348633
10	24.340138912200928	response	0	2		8.0	2.5	/experiments/knapen_aot/oldvideos/R_S_video_inspire_california_vineyard_sierra-mar_sunrise_110.1080-h264.mp4	0.0	79.46854305267334	
10	24.348376035690308	movie	1		169.0	8.0	2.5	/experiments/knapen_aot/oldvideos/R_S_video_inspire_california_vineyard_sierra-mar_sunrise_110.1080-h264.mp4	0.0	79.47678017616272	2.5084900856018066
10	26.489006996154785	response	1	2		8.0	2.5	/experiments/knapen_aot/oldvideos/R_S_video_inspire_california_vineyard_sierra-mar_sunrise_110.1080-h264.mp4	0.0	81.6174111366272	
10	26.731817960739136	response	1	2		8.0	2.5	/experiments/knapen_aot/oldvideos/R_S_video_inspire_california_vineyard_sierra-mar_sunrise_110.1080-h264.mp4	0.0	81.86022210121155	
10	26.856866121292114	fix_post	2		12.0	8.0	2.5	/experiments/knapen_aot/oldvideos/R_S_video_inspire_california_vineyard_sierra-mar_sunrise_110.1080-h264.mp4	0.0	81.98527026176453	0.10004377365112305
11	26.956909894943237	fix_pre	0		6.0	9.0	2.5	/experiments/knapen_aot/oldvideos/S_yt-UojTppgtyCE_121.mp4	0.0	82.08531403541565	0.04979515075683594
11	26.998486042022705	response	0	2		9.0	2.5	/experiments/knapen_aot/oldvideos/S_yt-UojTppgtyCE_121.mp4	0.0	82.12689018249512	
11	27.006705045700073	movie	1		301.0	9.0	2.5	/experiments/knapen_aot/oldvideos/S_yt-UojTppgtyCE_121.mp4	0.0	82.13510918617249	2.5084290504455566
11	29.256773948669434	response	1	2		9.0	2.5	/experiments/knapen_aot/oldvideos/S_yt-UojTppgtyCE_121.mp4	0.0	84.38517808914185	
11	29.51513409614563	fix_post	2		12.0	9.0	2.5	/experiments/knapen_aot/oldvideos/S_yt-UojTppgtyCE_121.mp4	0.0	84.64353823661804	0.10004281997680664
11	29.51683807373047	response	2	2		9.0	2.5	/experiments/knapen_aot/oldvideos/S_yt-UojTppgtyCE_121.mp4	0.0	84.64524221420288	
12	29.615176916122437	fix_pre	0		20.0	10.0	2.5	/experiments/knapen_aot/oldvideos/R_S_yt-qxtmtMnUfD0_124.mp4	0.0	84.74358105659485	0.16647100448608398
12	29.773480892181396	response	0	2		10.0	2.5	/experiments/knapen_aot/oldvideos/R_S_yt-qxtmtMnUfD0_124.mp4	0.0	84.90188503265381	
12	29.78164792060852	movie	1		301.0	10.0	2.5	/experiments/knapen_aot/oldvideos/R_S_yt-qxtmtMnUfD0_124.mp4	0.0	84.91005206108093	2.5084381103515625
12	32.29008603096008	fix_post	2		12.0	10.0	2.5	/experiments/knapen_aot/oldvideos/R_S_yt-qxtmtMnUfD0_124.mp4	0.0	87.4184901714325	0.10013890266418457
13	32.39022493362427	fix_pre	0		1.0	11.0	2.5	/experiments/knapen_aot/oldvideos/R_S_video-5.mp4	0.0	87.51862907409668	0.008129119873046875
13	32.39203190803528	response	0	2		11.0	2.5	/experiments/knapen_aot/oldvideos/R_S_video-5.mp4	0.0	87.52043604850769	
13	32.398354053497314	movie	1		172.0	11.0	2.5	/experiments/knapen_aot/oldvideos/R_S_video-5.mp4	0.0	87.52675819396973	2.508549928665161
13	34.85692000389099	response	1	2		11.0	2.5	/experiments/knapen_aot/oldvideos/R_S_video-5.mp4	0.0	89.9853241443634	
13	34.906903982162476	fix_post	2		12.0	11.0	2.5	/experiments/knapen_aot/oldvideos/R_S_video-5.mp4	0.0	90.03530812263489	0.09979891777038574
14	35.00670289993286	fix_pre	0		20.0	12.0	2.5	/experiments/knapen_aot/oldvideos/R_S_yt-83nimFMNhrM_131.mp4	0.0	90.13510704040527	0.16664409637451172
14	35.16516995429993	response	0	2		12.0	2.5	/experiments/knapen_aot/oldvideos/R_S_yt-83nimFMNhrM_131.mp4	0.0	90.29357409477234	
14	35.17334699630737	movie	1		301.0	12.0	2.5	/experiments/knapen_aot/oldvideos/R_S_yt-83nimFMNhrM_131.mp4	0.0	90.30175113677979	2.5083580017089844
14	35.31534004211426	response	1	2		12.0	2.5	/experiments/knapen_aot/oldvideos/R_S_yt-83nimFMNhrM_131.mp4	0.0	90.44374418258667	
14	37.68170499801636	fix_post	2		12.0	12.0	2.5	/experiments/knapen_aot/oldvideos/R_S_yt-83nimFMNhrM_131.mp4	0.0	92.81010913848877	0.10003900527954102
15	37.7817440032959	fix_pre	0		9.0	13.0	2.5	blank	1.0	92.91014814376831	0.0749659538269043
15	37.84846091270447	response	0	2		13.0	2.5	blank	1.0	92.97686505317688	
15	37.8567099571228	movie	1		301.0	13.0	2.5	blank	1.0	92.98511409759521	2.5083560943603516
15	40.365066051483154	fix_post	2		12.0	13.0	2.5	blank	1.0	95.49347019195557	0.09993505477905273
16	40.46500110626221	fix_pre	0		16.0	14.0	2.5	/experiments/knapen_aot/oldvideos/S_video-5.mp4	0.0	95.59340524673462	0.13335084915161133
16	40.582603931427	response	0	2		14.0	2.5	/experiments/knapen_aot/oldvideos/S_video-5.mp4	0.0	95.71100807189941	
16	40.59835195541382	movie	1		173.0	14.0	2.5	/experiments/knapen_aot/oldvideos/S_video-5.mp4	0.0	95.72675609588623	2.5082690715789795
16	43.1066210269928	fix_post	2		12.0	14.0	2.5	/experiments/knapen_aot/oldvideos/S_video-5.mp4	0.0	98.23502516746521	0.10010004043579102
16	43.12349891662598	response	2	2		14.0	2.5	/experiments/knapen_aot/oldvideos/S_video-5.mp4	0.0	98.25190305709839	
17	43.20672106742859	fix_pre	0		28.0	15.0	2.5	/experiments/knapen_aot/oldvideos/S_yt-V35ubrbe8gA_86.mp4	0.0	98.335125207901	0.23323583602905273
17	43.43171811103821	response	0	2		15.0	2.5	/experiments/knapen_aot/oldvideos/S_yt-V35ubrbe8gA_86.mp4	0.0	98.56012225151062	
17	43.43995690345764	movie	1		301.0	15.0	2.5	/experiments/knapen_aot/oldvideos/S_yt-V35ubrbe8gA_86.mp4	0.0	98.56836104393005	2.5083041191101074
17	45.94826102256775	fix_post	2		12.0	15.0	2.5	/experiments/knapen_aot/oldvideos/S_yt-V35ubrbe8gA_86.mp4	0.0	101.07666516304016	0.10005688667297363
18	46.04831790924072	fix_pre	0		4.0	16.0	2.5	/experiments/knapen_aot/oldvideos/R_S_yt-qiPhBL4lBr0_44.mp4	0.0	101.17672204971313	0.0342710018157959
18	46.0735080242157	response	0	2		16.0	2.5	/experiments/knapen_aot/oldvideos/R_S_yt-qiPhBL4lBr0_44.mp4	0.0	101.20191216468811	
18	46.08258891105652	movie	1		301.0	16.0	2.5	/experiments/knapen_aot/oldvideos/R_S_yt-qiPhBL4lBr0_44.mp4	0.0	101.21099305152893	2.507366180419922
18	48.58995509147644	fix_post	2		12.0	16.0	2.5	/experiments/knapen_aot/oldvideos/R_S_yt-qiPhBL4lBr0_44.mp4	0.0	103.71835923194885	0.10002493858337402
19	48.689980030059814	fix_pre	0		14.0	17.0	2.5	/experiments/knapen_aot/oldvideos/S_wc-oyG6AjP_W2EL_15.mp4	0.0	103.81838417053223	0.11664104461669922
19	48.79842710494995	response	0	2		17.0	2.5	/experiments/knapen_aot/oldvideos/S_wc-oyG6AjP_W2EL_15.mp4	0.0	103.92683124542236	
19	48.806621074676514	movie	1		301.0	17.0	2.5	/experiments/knapen_aot/oldvideos/S_wc-oyG6AjP_W2EL_15.mp4	0.0	103.93502521514893	2.5083580017089844
19	51.3149790763855	fix_post	2		12.0	17.0	2.5	/experiments/knapen_aot/oldvideos/S_wc-oyG6AjP_W2EL_15.mp4	0.0	106.44338321685791	0.09993290901184082
20	51.41491198539734	fix_pre	0		8.0	18.0	2.5	/experiments/knapen_aot/oldvideos/R_S_ILSVRC2015_train_00415003.mp4	0.0	106.54331612586975	0.06667399406433105
20	51.47342801094055	response	0	2		18.0	2.5	/experiments/knapen_aot/oldvideos/R_S_ILSVRC2015_train_00415003.mp4	0.0	106.60183215141296	
20	51.48158597946167	movie	1		301.0	18.0	2.5	/experiments/knapen_aot/oldvideos/R_S_ILSVRC2015_train_00415003.mp4	0.0	106.60999011993408	2.5083580017089844
20	53.989943981170654	fix_post	2		12.0	18.0	2.5	/experiments/knapen_aot/oldvideos/R_S_ILSVRC2015_train_00415003.mp4	0.0	109.11834812164307	0.09999299049377441
21	54.08993697166443	fix_pre	0		3.0	19.0	2.5	blank	1.0	109.21834111213684	0.025016069412231445
21	54.10671401023865	response	0	2		19.0	2.5	blank	1.0	109.23511815071106	
21	54.11495304107666	movie	1		301.0	19.0	2.5	blank	1.0	109.24335718154907	2.5083348751068115
21	56.62328791618347	fix_post	2		12.0	19.0	2.5	blank	1.0	111.75169205665588	0.09998202323913574
22	56.72326993942261	fix_pre	0		12.0	20.0	2.5	/experiments/knapen_aot/oldvideos/S_yt-RlHmMGUjT9E_130.mp4	0.0	111.85167407989502	0.09994196891784668
22	56.80745506286621	response	0	2		20.0	2.5	/experiments/knapen_aot/oldvideos/S_yt-RlHmMGUjT9E_130.mp4	0.0	111.93585920333862	
22	56.823211908340454	movie	1		301.0	20.0	2.5	/experiments/knapen_aot/oldvideos/S_yt-RlHmMGUjT9E_130.mp4	0.0	111.95161604881287	2.508402109146118
22	59.33161401748657	fix_post	2		12.0	20.0	2.5	/experiments/knapen_aot/oldvideos/S_yt-RlHmMGUjT9E_130.mp4	0.0	114.46001815795898	0.09999895095825195
22	59.373445987701416	response	2	2		20.0	2.5	/experiments/knapen_aot/oldvideos/S_yt-RlHmMGUjT9E_130.mp4	0.0	114.50185012817383	
23	59.431612968444824	fix_pre	0		43.0	21.0	2.5	/experiments/knapen_aot/oldvideos/S_ILSVRC2015_train_00574000.mp4	0.0	114.56001710891724	0.35914111137390137
23	59.78162598609924	response	0	2		21.0	2.5	/experiments/knapen_aot/oldvideos/S_ILSVRC2015_train_00574000.mp4	0.0	114.91003012657166	
23	59.790754079818726	movie	1		300.0	21.0	2.5	/experiments/knapen_aot/oldvideos/S_ILSVRC2015_train_00574000.mp4	0.0	114.91915822029114	2.5075089931488037
23	62.29826307296753	fix_post	2		12.0	21.0	2.5	/experiments/knapen_aot/oldvideos/S_ILSVRC2015_train_00574000.mp4	0.0	117.42666721343994	0.1001429557800293
24	62.39840602874756	fix_pre	0		14.0	22.0	2.5	/experiments/knapen_aot/oldvideos/S_yt-1_xoCNmTn3Y_1.mp4	0.0	117.52681016921997	0.11658596992492676
24	62.506736040115356	response	0	2		22.0	2.5	/experiments/knapen_aot/oldvideos/S_yt-1_xoCNmTn3Y_1.mp4	0.0	117.63514018058777	
24	62.514991998672485	movie	1		301.0	22.0	2.5	/experiments/knapen_aot/oldvideos/S_yt-1_xoCNmTn3Y_1.mp4	0.0	117.6433961391449	2.508291006088257
24	65.02328300476074	fix_post	2		12.0	22.0	2.5	/experiments/knapen_aot/oldvideos/S_yt-1_xoCNmTn3Y_1.mp4	0.0	120.15168714523315	0.09998607635498047
25	65.12326908111572	fix_pre	0		6.0	23.0	2.5	/experiments/knapen_aot/oldvideos/R_S_yt-ak01CHYgEOs_1383.mp4	0.0	120.25167322158813	0.05000591278076172
25	65.16503810882568	response	0	2		23.0	2.5	/experiments/knapen_aot/oldvideos/R_S_yt-ak01CHYgEOs_1383.mp4	0.0	120.2934422492981	
25	65.17327499389648	movie	1		301.0	23.0	2.5	/experiments/knapen_aot/oldvideos/R_S_yt-ak01CHYgEOs_1383.mp4	0.0	120.3016791343689	2.508533000946045
25	67.68180799484253	fix_post	2		12.0	23.0	2.5	/experiments/knapen_aot/oldvideos/R_S_yt-ak01CHYgEOs_1383.mp4	0.0	122.81021213531494	0.0997779369354248
26	67.78158593177795	fix_pre	0		17.0	24.0	2.5	/experiments/knapen_aot/oldvideos/R_S_ILSVRC2015_train_00569007.mp4	0.0	122.90999007225037	0.14168500900268555
26	67.9150459766388	response	0	2		24.0	2.5	/experiments/knapen_aot/oldvideos/R_S_ILSVRC2015_train_00569007.mp4	0.0	123.0434501171112	
26	67.92327094078064	movie	1		301.0	24.0	2.5	/experiments/knapen_aot/oldvideos/R_S_ILSVRC2015_train_00569007.mp4	0.0	123.05167508125305	2.5082709789276123
26	70.43154191970825	fix_post	2		12.0	24.0	2.5	/experiments/knapen_aot/oldvideos/R_S_ILSVRC2015_train_00569007.mp4	0.0	125.55994606018066	0.10002303123474121
27	70.531564950943	fix_pre	0		4.0	25.0	2.5	/experiments/knapen_aot/oldvideos/R_S_ILSVRC2015_train_00415003.mp4	0.0	125.6599690914154	0.03337907791137695
27	70.5567729473114	response	0	2		25.0	2.5	/experiments/knapen_aot/oldvideos/R_S_ILSVRC2015_train_00415003.mp4	0.0	125.68517708778381	
27	70.56494402885437	movie	1		301.0	25.0	2.5	/experiments/knapen_aot/oldvideos/R_S_ILSVRC2015_train_00415003.mp4	0.0	125.69334816932678	2.508301019668579
27	73.07324504852295	fix_post	2		12.0	25.0	2.5	/experiments/knapen_aot/oldvideos/R_S_ILSVRC2015_train_00415003.mp4	0.0	128.20164918899536	0.09998703002929688
27	73.15666794776917	response	2	2		25.0	2.5	/experiments/knapen_aot/oldvideos/R_S_ILSVRC2015_train_00415003.mp4	0.0	128.28507208824158	
28	73.17323207855225	fix_pre	0		46.0	26.0	2.5	blank	1.0	128.30163621902466	0.38333582878112793
28	73.54829812049866	response	0	2		26.0	2.5	blank	1.0	128.67670226097107	
28	73.55656790733337	movie	1		301.0	26.0	2.5	blank	1.0	128.6849720478058	2.508289098739624
28	75.97328901290894	response	1	2		26.0	2.5	blank	1.0	131.10169315338135	
28	76.064857006073	fix_post	2		12.0	26.0	2.5	blank	1.0	131.1932611465454	0.09996604919433594
29	76.16482305526733	fix_pre	0		6.0	27.0	2.5	/experiments/knapen_aot/oldvideos/R_S_ILSVRC2015_train_00652001.mp4	0.0	131.29322719573975	0.05003094673156738
29	76.20665192604065	response	0	2		27.0	2.5	/experiments/knapen_aot/oldvideos/R_S_ILSVRC2015_train_00652001.mp4	0.0	131.33505606651306	
29	76.2148540019989	movie	1		301.0	27.0	2.5	/experiments/knapen_aot/oldvideos/R_S_ILSVRC2015_train_00652001.mp4	0.0	131.3432581424713	2.5083649158477783
29	78.72321891784668	fix_post	2		12.0	27.0	2.5	/experiments/knapen_aot/oldvideos/R_S_ILSVRC2015_train_00652001.mp4	0.0	133.8516230583191	0.10000419616699219
30	78.82322311401367	fix_pre	0		33.0	28.0	2.5	/experiments/knapen_aot/oldvideos/R_S_yt-V35ubrbe8gA_86.mp4	0.0	133.95162725448608	0.2748727798461914
30	79.08985495567322	response	0	2		28.0	2.5	/experiments/knapen_aot/oldvideos/R_S_yt-V35ubrbe8gA_86.mp4	0.0	134.21825909614563	
30	79.09809589385986	movie	1		301.0	28.0	2.5	/experiments/knapen_aot/oldvideos/R_S_yt-V35ubrbe8gA_86.mp4	0.0	134.22650003433228	2.5084991455078125
30	81.60659503936768	fix_post	2		12.0	28.0	2.5	/experiments/knapen_aot/oldvideos/R_S_yt-V35ubrbe8gA_86.mp4	0.0	136.7349991798401	0.09989500045776367
31	81.70649003982544	fix_pre	0		9.0	29.0	2.5	/experiments/knapen_aot/oldvideos/S_yt-GjFQxAklviE_25.mp4	0.0	136.83489418029785	0.07501506805419922
31	81.7732789516449	response	0	2		29.0	2.5	/experiments/knapen_aot/oldvideos/S_yt-GjFQxAklviE_25.mp4	0.0	136.9016830921173	
31	81.78150510787964	movie	1		301.0	29.0	2.5	/experiments/knapen_aot/oldvideos/S_yt-GjFQxAklviE_25.mp4	0.0	136.90990924835205	2.5083048343658447
31	84.28980994224548	fix_post	2		12.0	29.0	2.5	/experiments/knapen_aot/oldvideos/S_yt-GjFQxAklviE_25.mp4	0.0	139.4182140827179	0.10020613670349121
32	84.39001607894897	fix_pre	0		29.0	30.0	2.5	/experiments/knapen_aot/oldvideos/S_yt-UojTppgtyCE_121.mp4	0.0	139.5184202194214	0.24140191078186035
32	84.62326002120972	response	0	2		30.0	2.5	/experiments/knapen_aot/oldvideos/S_yt-UojTppgtyCE_121.mp4	0.0	139.75166416168213	
32	84.63141798973083	movie	1		301.0	30.0	2.5	/experiments/knapen_aot/oldvideos/S_yt-UojTppgtyCE_121.mp4	0.0	139.75982213020325	2.5083889961242676
32	87.1398069858551	fix_post	2		12.0	30.0	2.5	/experiments/knapen_aot/oldvideos/S_yt-UojTppgtyCE_121.mp4	0.0	142.26821112632751	0.10001993179321289
33	87.23982691764832	fix_pre	0		20.0	31.0	2.5	/experiments/knapen_aot/oldvideos/R_S_yt-PYHK810V_n8_1375.mp4	0.0	142.36823105812073	0.16660404205322266
33	87.39816093444824	response	0	2		31.0	2.5	/experiments/knapen_aot/oldvideos/R_S_yt-PYHK810V_n8_1375.mp4	0.0	142.52656507492065	
33	87.40643095970154	movie	1		301.0	31.0	2.5	/experiments/knapen_aot/oldvideos/R_S_yt-PYHK810V_n8_1375.mp4	0.0	142.53483510017395	2.5083730220794678
33	89.914803981781	fix_post	2		12.0	31.0	2.5	/experiments/knapen_aot/oldvideos/R_S_yt-PYHK810V_n8_1375.mp4	0.0	145.04320812225342	0.09997010231018066
34	90.01477408409119	fix_pre	0		6.0	32.0	2.5	/experiments/knapen_aot/oldvideos/R_S_yt-EuyfT0PuOoQ_91.mp4	0.0	145.1431782245636	0.05000185966491699
34	90.05654001235962	response	0	2		32.0	2.5	/experiments/knapen_aot/oldvideos/R_S_yt-EuyfT0PuOoQ_91.mp4	0.0	145.18494415283203	
34	90.0647759437561	movie	1		301.0	32.0	2.5	/experiments/knapen_aot/oldvideos/R_S_yt-EuyfT0PuOoQ_91.mp4	0.0	145.19318008422852	2.50833797454834
34	92.57311391830444	fix_post	2		12.0	32.0	2.5	/experiments/knapen_aot/oldvideos/R_S_yt-EuyfT0PuOoQ_91.mp4	0.0	147.70151805877686	0.10003113746643066
35	92.67314505577087	fix_pre	0		20.0	33.0	2.5	blank	1.0	147.8015491962433	0.16652202606201172
35	92.83154702186584	response	0	2		33.0	2.5	blank	1.0	147.95995116233826	
35	92.83966708183289	movie	1		301.0	33.0	2.5	blank	1.0	147.9680712223053	2.508420944213867
35	95.34808802604675	fix_post	2		12.0	33.0	2.5	blank	1.0	150.47649216651917	0.1000220775604248
36	95.44811010360718	fix_pre	0		18.0	34.0	2.5	/experiments/knapen_aot/oldvideos/S_yt-8vm83GUgYxI_1.mp4	0.0	150.5765142440796	0.14996099472045898
36	95.5823540687561	response	0	2		34.0	2.5	/experiments/knapen_aot/oldvideos/S_yt-8vm83GUgYxI_1.mp4	0.0	150.71075820922852	
36	95.59807109832764	movie	1		301.0	34.0	2.5	/experiments/knapen_aot/oldvideos/S_yt-8vm83GUgYxI_1.mp4	0.0	150.72647523880005	2.5084388256073
36	98.10650992393494	fix_post	2		12.0	34.0	2.5	/experiments/knapen_aot/oldvideos/S_yt-8vm83GUgYxI_1.mp4	0.0	153.23491406440735	0.09990596771240234
37	98.20641589164734	fix_pre	0		15.0	35.0	2.5	/experiments/knapen_aot/oldvideos/R_S_yt-TSSPDwAQLXs_158.mp4	0.0	153.33482003211975	0.12575316429138184
37	98.3231840133667	response	0	2		35.0	2.5	/experiments/knapen_aot/oldvideos/R_S_yt-TSSPDwAQLXs_158.mp4	0.0	153.4515881538391	
37	98.33216905593872	movie	1		301.0	35.0	2.5	/experiments/knapen_aot/oldvideos/R_S_yt-TSSPDwAQLXs_158.mp4	0.0	153.46057319641113	2.507606029510498
37	100.83977508544922	fix_post	2		12.0	35.0	2.5	/experiments/knapen_aot/oldvideos/R_S_yt-TSSPDwAQLXs_158.mp4	0.0	155.96817922592163	0.09993696212768555
38	100.9397120475769	fix_pre	0		20.0	36.0	2.5	/experiments/knapen_aot/oldvideos/S_yt-fqbi4rGc9dk_65.mp4	0.0	156.06811618804932	0.16662001609802246
38	101.09819388389587	response	0	2		36.0	2.5	/experiments/knapen_aot/oldvideos/S_yt-fqbi4rGc9dk_65.mp4	0.0	156.2265980243683	
38	101.10633206367493	movie	1		301.0	36.0	2.5	/experiments/knapen_aot/oldvideos/S_yt-fqbi4rGc9dk_65.mp4	0.0	156.23473620414734	2.5084409713745117
38	103.61477303504944	fix_post	2		12.0	36.0	2.5	/experiments/knapen_aot/oldvideos/S_yt-fqbi4rGc9dk_65.mp4	0.0	158.74317717552185	0.09998798370361328
39	103.71476101875305	fix_pre	0		34.0	37.0	2.5	/experiments/knapen_aot/oldvideos/S_pexels-mart-production-7698911_1.mp4	0.0	158.84316515922546	0.2839810848236084
39	103.98985195159912	response	0	2		37.0	2.5	/experiments/knapen_aot/oldvideos/S_pexels-mart-production-7698911_1.mp4	0.0	159.11825609207153	
39	103.99874210357666	movie	1		193.0	37.0	2.5	/experiments/knapen_aot/oldvideos/S_pexels-mart-production-7698911_1.mp4	0.0	159.12714624404907	2.5076417922973633
39	106.50638389587402	fix_post	2		12.0	37.0	2.5	/experiments/knapen_aot/oldvideos/S_pexels-mart-production-7698911_1.mp4	0.0	161.63478803634644	0.09991216659545898
40	106.60629606246948	fix_pre	0		15.0	38.0	2.5	/experiments/knapen_aot/oldvideos/R_S_yt-foGMTdxewBI_43.mp4	0.0	161.7347002029419	0.12508392333984375
40	106.72313499450684	response	0	2		38.0	2.5	/experiments/knapen_aot/oldvideos/R_S_yt-foGMTdxewBI_43.mp4	0.0	161.85153913497925	
40	106.73137998580933	movie	1		301.0	38.0	2.5	/experiments/knapen_aot/oldvideos/R_S_yt-foGMTdxewBI_43.mp4	0.0	161.85978412628174	2.5083510875701904
40	109.23973107337952	fix_post	2		12.0	38.0	2.5	/experiments/knapen_aot/oldvideos/R_S_yt-foGMTdxewBI_43.mp4	0.0	164.36813521385193	0.09998488426208496
41	109.3397159576416	fix_pre	0		5.0	39.0	2.5	/experiments/knapen_aot/oldvideos/R_S_yt-CeOZeB1LXwE_79.mp4	0.0	164.468120098114	0.041661977767944336
41	109.3731460571289	response	0	2		39.0	2.5	/experiments/knapen_aot/oldvideos/R_S_yt-CeOZeB1LXwE_79.mp4	0.0	164.50155019760132	
41	109.38137793540955	movie	1		301.0	39.0	2.5	/experiments/knapen_aot/oldvideos/R_S_yt-CeOZeB1LXwE_79.mp4	0.0	164.50978207588196	2.5083370208740234
41	111.88971495628357	fix_post	2		12.0	39.0	2.5	/experiments/knapen_aot/oldvideos/R_S_yt-CeOZeB1LXwE_79.mp4	0.0	167.01811909675598	0.10022497177124023
42	111.98993992805481	fix_pre	0		6.0	40.0	2.5	blank	1.0	167.11834406852722	0.05042004585266113
42	112.03151392936707	response	0	2		40.0	2.5	blank	1.0	167.15991806983948	
42	112.04035997390747	movie	1		301.0	40.0	2.5	blank	1.0	167.16876411437988	2.5076699256896973
42	114.54802989959717	fix_post	2		12.0	40.0	2.5	blank	1.0	169.67643404006958	0.10000419616699219
43	114.64803409576416	fix_pre	0		23.0	41.0	2.5	/experiments/knapen_aot/oldvideos/S_comp_CH_C007_C011_PSNK_v02_SDR_PS_FINAL_20180709_SDR_2K_AVC.mp4	0.0	169.77643823623657	0.1916368007659912
43	114.82393598556519	response	0	2		41.0	2.5	/experiments/knapen_aot/oldvideos/S_comp_CH_C007_C011_PSNK_v02_SDR_PS_FINAL_20180709_SDR_2K_AVC.mp4	0.0	169.9523401260376	
43	114.83967089653015	movie	1		169.0	41.0	2.5	/experiments/knapen_aot/oldvideos/S_comp_CH_C007_C011_PSNK_v02_SDR_PS_FINAL_20180709_SDR_2K_AVC.mp4	0.0	169.96807503700256	2.508380174636841
43	117.34805107116699	fix_post	2		12.0	41.0	2.5	/experiments/knapen_aot/oldvideos/S_comp_CH_C007_C011_PSNK_v02_SDR_PS_FINAL_20180709_SDR_2K_AVC.mp4	0.0	172.4764552116394	0.10003900527954102
43	117.38984990119934	response	2	2		41.0	2.5	/experiments/knapen_aot/oldvideos/S_comp_CH_C007_C011_PSNK_v02_SDR_PS_FINAL_20180709_SDR_2K_AVC.mp4	0.0	172.51825404167175	
44	117.44809007644653	fix_pre	0		30.0	42.0	2.5	/experiments/knapen_aot/oldvideos/R_S_yt-EApB0DJ3ECg_66.mp4	0.0	172.57649421691895	0.2498779296875
44	117.6897840499878	response	0	2		42.0	2.5	/experiments/knapen_aot/oldvideos/R_S_yt-EApB0DJ3ECg_66.mp4	0.0	172.8181881904602	
44	117.69796800613403	movie	1		301.0	42.0	2.5	/experiments/knapen_aot/oldvideos/R_S_yt-EApB0DJ3ECg_66.mp4	0.0	172.82637214660645	2.5083730220794678
44	120.2063410282135	fix_post	2		12.0	42.0	2.5	/experiments/knapen_aot/oldvideos/R_S_yt-EApB0DJ3ECg_66.mp4	0.0	175.3347451686859	0.10003304481506348
45	120.30637407302856	fix_pre	0		16.0	43.0	2.5	/experiments/knapen_aot/oldvideos/R_S_production_ID_5119260.mp4	0.0	175.43477821350098	0.1333019733428955
45	120.43151998519897	response	0	2		43.0	2.5	/experiments/knapen_aot/oldvideos/R_S_production_ID_5119260.mp4	0.0	175.5599241256714	
45	120.43967604637146	movie	1		164.0	43.0	2.5	/experiments/knapen_aot/oldvideos/R_S_production_ID_5119260.mp4	0.0	175.56808018684387	2.5083019733428955
45	122.94797801971436	fix_post	2		12.0	43.0	2.5	/experiments/knapen_aot/oldvideos/R_S_production_ID_5119260.mp4	0.0	178.07638216018677	0.0999600887298584
46	123.04793810844421	fix_pre	0		11.0	44.0	2.5	/experiments/knapen_aot/oldvideos/R_S_yt-NOnR6C2sjpI_97.mp4	0.0	178.17634224891663	0.09162592887878418
46	123.13140392303467	response	0	2		44.0	2.5	/experiments/knapen_aot/oldvideos/R_S_yt-NOnR6C2sjpI_97.mp4	0.0	178.25980806350708	
46	123.139564037323	movie	1		301.0	44.0	2.5	/experiments/knapen_aot/oldvideos/R_S_yt-NOnR6C2sjpI_97.mp4	0.0	178.2679681777954	2.508358955383301
46	125.6479229927063	fix_post	2		12.0	44.0	2.5	/experiments/knapen_aot/oldvideos/R_S_yt-NOnR6C2sjpI_97.mp4	0.0	180.7763271331787	0.10002303123474121
46	125.68145704269409	response	2	2		44.0	2.5	/experiments/knapen_aot/oldvideos/R_S_yt-NOnR6C2sjpI_97.mp4	0.0	180.8098611831665	
47	125.74794602394104	fix_pre	0		33.0	45.0	2.5	/experiments/knapen_aot/oldvideos/R_S_yt-MWX0EtpWIs8_286.mp4	0.0	180.87635016441345	0.27504897117614746
47	126.01469707489014	response	0	2		45.0	2.5	/experiments/knapen_aot/oldvideos/R_S_yt-MWX0EtpWIs8_286.mp4	0.0	181.14310121536255	
47	126.02299499511719	movie	1		301.0	45.0	2.5	/experiments/knapen_aot/oldvideos/R_S_yt-MWX0EtpWIs8_286.mp4	0.0	181.1513991355896	2.5082859992980957
47	128.53128099441528	fix_post	2		12.0	45.0	2.5	/experiments/knapen_aot/oldvideos/R_S_yt-MWX0EtpWIs8_286.mp4	0.0	183.6596851348877	0.10002493858337402
48	128.63130593299866	fix_pre	0		20.0	46.0	2.5	/experiments/knapen_aot/oldvideos/S_yt-GWOOQZ19-oU_331.mp4	0.0	183.75971007347107	0.16666007041931152
48	128.7897400856018	response	0	2		46.0	2.5	/experiments/knapen_aot/oldvideos/S_yt-GWOOQZ19-oU_331.mp4	0.0	183.91814422607422	
48	128.79796600341797	movie	1		301.0	46.0	2.5	/experiments/knapen_aot/oldvideos/S_yt-GWOOQZ19-oU_331.mp4	0.0	183.92637014389038	2.508347988128662
48	131.30631399154663	fix_post	2		12.0	46.0	2.5	/experiments/knapen_aot/oldvideos/S_yt-GWOOQZ19-oU_331.mp4	0.0	186.43471813201904	0.0999760627746582
49	131.4062900543213	fix_pre	0		11.0	47.0	2.5	/experiments/knapen_aot/oldvideos/R_S_yt-7Ya-rGPO8cM_159.mp4	0.0	186.5346941947937	0.09207606315612793
49	131.48970699310303	response	0	2		47.0	2.5	/experiments/knapen_aot/oldvideos/R_S_yt-7Ya-rGPO8cM_159.mp4	0.0	186.61811113357544	
49	131.49836611747742	movie	1		301.0	47.0	2.5	/experiments/knapen_aot/oldvideos/R_S_yt-7Ya-rGPO8cM_159.mp4	0.0	186.62677025794983	2.5079829692840576
49	134.00634908676147	fix_post	2		12.0	47.0	2.5	/experiments/knapen_aot/oldvideos/R_S_yt-7Ya-rGPO8cM_159.mp4	0.0	189.1347532272339	0.09988784790039062
50	134.10623693466187	fix_pre	0		18.0	48.0	2.5	/experiments/knapen_aot/oldvideos/S_yt-0lfSyC79n14_7.mp4	0.0	189.23464107513428	0.15002012252807617
50	134.24798393249512	response	0	2		48.0	2.5	/experiments/knapen_aot/oldvideos/S_yt-0lfSyC79n14_7.mp4	0.0	189.37638807296753	
50	134.25625705718994	movie	1		301.0	48.0	2.5	/experiments/knapen_aot/oldvideos/S_yt-0lfSyC79n14_7.mp4	0.0	189.38466119766235	2.508491039276123
50	136.76474809646606	fix_post	2		12.0	48.0	2.5	/experiments/knapen_aot/oldvideos/S_yt-0lfSyC79n14_7.mp4	0.0	191.89315223693848	0.0999000072479248
51	136.864648103714	fix_pre	0		24.0	49.0	2.5	blank	1.0	191.9930522441864	0.20000100135803223
51	137.05642795562744	response	0	2		49.0	2.5	blank	1.0	192.18483209609985	
51	137.06464910507202	movie	1		301.0	49.0	2.5	blank	1.0	192.19305324554443	2.508265972137451
51	139.49799609184265	response	1	2		49.0	2.5	blank	1.0	194.62640023231506	
51	139.57291507720947	fix_post	2		12.0	49.0	2.5	blank	1.0	194.70131921768188	0.10007381439208984
52	139.67298889160156	fix_pre	0		16.0	50.0	2.5	/experiments/knapen_aot/oldvideos/S_ILSVRC2015_train_00565000.mp4	0.0	194.80139303207397	0.13325715065002441
52	139.79797101020813	response	0	2		50.0	2.5	/experiments/knapen_aot/oldvideos/S_ILSVRC2015_train_00565000.mp4	0.0	194.92637515068054	
52	139.8062460422516	movie	1		301.0	50.0	2.5	/experiments/knapen_aot/oldvideos/S_ILSVRC2015_train_00565000.mp4	0.0	194.934650182724	2.508389949798584
52	142.31463599205017	fix_post	2		12.0	50.0	2.5	/experiments/knapen_aot/oldvideos/S_ILSVRC2015_train_00565000.mp4	0.0	197.44304013252258	0.10043597221374512
53	142.41507196426392	fix_pre	0		4.0	51.0	2.5	/experiments/knapen_aot/oldvideos/S_pexels-roman-odintsov-8231493.mp4	0.0	197.54347610473633	0.03470110893249512
53	142.43975591659546	response	0	2		51.0	2.5	/experiments/knapen_aot/oldvideos/S_pexels-roman-odintsov-8231493.mp4	0.0	197.56816005706787	
53	142.4497730731964	movie	1		187.0	51.0	2.5	/experiments/knapen_aot/oldvideos/S_pexels-roman-odintsov-8231493.mp4	0.0	197.57817721366882	2.5064399242401123
53	144.95621299743652	fix_post	2		12.0	51.0	2.5	/experiments/knapen_aot/oldvideos/S_pexels-roman-odintsov-8231493.mp4	0.0	200.08461713790894	0.10003209114074707
54	145.05624508857727	fix_pre	0		4.0	52.0	2.5	/experiments/knapen_aot/oldvideos/S_production_ID_4101242.mp4	0.0	200.18464922904968	0.03330087661743164
54	145.07383608818054	response	0	2		52.0	2.5	/experiments/knapen_aot/oldvideos/S_production_ID_4101242.mp4	0.0	200.20224022865295	
54	145.0895459651947	movie	1		203.0	52.0	2.5	/experiments/knapen_aot/oldvideos/S_production_ID_4101242.mp4	0.0	200.21795010566711	2.50833797454834
54	147.59788393974304	fix_post	2		12.0	52.0	2.5	/experiments/knapen_aot/oldvideos/S_production_ID_4101242.mp4	0.0	202.72628808021545	0.1000220775604248
54	147.62378001213074	response	2	2		52.0	2.5	/experiments/knapen_aot/oldvideos/S_production_ID_4101242.mp4	0.0	202.75218415260315	
55	147.69790601730347	fix_pre	0		25.0	53.0	2.5	/experiments/knapen_aot/oldvideos/R_S_yt-7lULOC_rSE0_747.mp4	0.0	202.82631015777588	0.2082509994506836
55	147.89041709899902	response	0	2		53.0	2.5	/experiments/knapen_aot/oldvideos/R_S_yt-7lULOC_rSE0_747.mp4	0.0	203.01882123947144	
55	147.90615701675415	movie	1		301.0	53.0	2.5	/experiments/knapen_aot/oldvideos/R_S_yt-7lULOC_rSE0_747.mp4	0.0	203.03456115722656	2.50838303565979
55	150.41454005241394	fix_post	2		12.0	53.0	2.5	/experiments/knapen_aot/oldvideos/R_S_yt-7lULOC_rSE0_747.mp4	0.0	205.54294419288635	0.0999598503112793
56	150.51449990272522	fix_pre	0		7.0	54.0	2.5	/experiments/knapen_aot/oldvideos/R_S_ILSVRC2015_train_00682003.mp4	0.0	205.64290404319763	0.05831003189086914
56	150.5646140575409	response	0	2		54.0	2.5	/experiments/knapen_aot/oldvideos/R_S_ILSVRC2015_train_00682003.mp4	0.0	205.6930181980133	
56	150.5728099346161	movie	1		301.0	54.0	2.5	/experiments/knapen_aot/oldvideos/R_S_ILSVRC2015_train_00682003.mp4	0.0	205.7012140750885	2.5084409713745117
56	153.0812509059906	fix_post	2		12.0	54.0	2.5	/experiments/knapen_aot/oldvideos/R_S_ILSVRC2015_train_00682003.mp4	0.0	208.209655046463	0.09988117218017578
57	153.18113207817078	fix_pre	0		15.0	55.0	2.5	/experiments/knapen_aot/oldvideos/R_S_Pexels_Videos_2795171.mp4	0.0	208.3095362186432	0.12507081031799316
57	153.29039812088013	response	0	2		55.0	2.5	/experiments/knapen_aot/oldvideos/R_S_Pexels_Videos_2795171.mp4	0.0	208.41880226135254	
57	153.30620288848877	movie	1		168.0	55.0	2.5	/experiments/knapen_aot/oldvideos/R_S_Pexels_Videos_2795171.mp4	0.0	208.43460702896118	2.50844407081604
57	155.58968591690063	response	1	2		55.0	2.5	/experiments/knapen_aot/oldvideos/R_S_Pexels_Videos_2795171.mp4	0.0	210.71809005737305	
57	155.8146469593048	fix_post	2		12.0	55.0	2.5	/experiments/knapen_aot/oldvideos/R_S_Pexels_Videos_2795171.mp4	0.0	210.94305109977722	0.09979104995727539
57	155.856271982193	response	2	2		55.0	2.5	/experiments/knapen_aot/oldvideos/R_S_Pexels_Videos_2795171.mp4	0.0	210.9846761226654	
58	155.91443800926208	fix_pre	0		47.0	56.0	2.5	blank	1.0	211.0428421497345	0.391679048538208
58	156.29785704612732	response	0	2		56.0	2.5	blank	1.0	211.42626118659973	
58	156.3061170578003	movie	1		301.0	56.0	2.5	blank	1.0	211.4345211982727	2.5083489418029785
58	158.81446599960327	fix_post	2		12.0	56.0	2.5	blank	1.0	213.94287014007568	0.1002039909362793
59	158.91466999053955	fix_pre	0		18.0	57.0	2.5	/experiments/knapen_aot/oldvideos/S_yt-hMyqUMAbFAk_303.mp4	0.0	214.04307413101196	0.14983391761779785
59	159.05626797676086	response	0	2		57.0	2.5	/experiments/knapen_aot/oldvideos/S_yt-hMyqUMAbFAk_303.mp4	0.0	214.18467211723328	
59	159.06450390815735	movie	1		301.0	57.0	2.5	/experiments/knapen_aot/oldvideos/S_yt-hMyqUMAbFAk_303.mp4	0.0	214.19290804862976	2.508450984954834
59	161.57295489311218	fix_post	2		12.0	57.0	2.5	/experiments/knapen_aot/oldvideos/S_yt-hMyqUMAbFAk_303.mp4	0.0	216.7013590335846	0.09992814064025879
60	161.67288303375244	fix_pre	0		3.0	58.0	2.5	/experiments/knapen_aot/oldvideos/S_pexels-cottonbro-10639398.mp4	0.0	216.80128717422485	0.025057077407836914
60	161.68957209587097	response	0	2		58.0	2.5	/experiments/knapen_aot/oldvideos/S_pexels-cottonbro-10639398.mp4	0.0	216.81797623634338	
60	161.69794011116028	movie	1		182.0	58.0	2.5	/experiments/knapen_aot/oldvideos/S_pexels-cottonbro-10639398.mp4	0.0	216.8263442516327	2.508302927017212
60	164.2062430381775	fix_post	2		12.0	58.0	2.5	/experiments/knapen_aot/oldvideos/S_pexels-cottonbro-10639398.mp4	0.0	219.3346471786499	0.09991598129272461
61	164.30615901947021	fix_pre	0		6.0	59.0	2.5	/experiments/knapen_aot/oldvideos/S_yt-i1h9ZiYZ86U_28.mp4	0.0	219.43456315994263	0.049928903579711914
61	164.34787702560425	response	0	2		59.0	2.5	/experiments/knapen_aot/oldvideos/S_yt-i1h9ZiYZ86U_28.mp4	0.0	219.47628116607666	
61	164.35608792304993	movie	1		301.0	59.0	2.5	/experiments/knapen_aot/oldvideos/S_yt-i1h9ZiYZ86U_28.mp4	0.0	219.48449206352234	2.5087430477142334
61	166.86483097076416	fix_post	2		12.0	59.0	2.5	/experiments/knapen_aot/oldvideos/S_yt-i1h9ZiYZ86U_28.mp4	0.0	221.99323511123657	0.09965896606445312
62	166.9644899368286	fix_pre	0		1.0	60.0	2.5	/experiments/knapen_aot/oldvideos/R_S_yt-Ul81y6R9YbE_12.mp4	0.0	222.09289407730103	0.008310079574584961
62	166.96607303619385	response	0	2		60.0	2.5	/experiments/knapen_aot/oldvideos/R_S_yt-Ul81y6R9YbE_12.mp4	0.0	222.09447717666626	
62	166.9728000164032	movie	1		301.0	60.0	2.5	/experiments/knapen_aot/oldvideos/R_S_yt-Ul81y6R9YbE_12.mp4	0.0	222.1012041568756	2.5083298683166504
62	169.48112988471985	fix_post	2		12.0	60.0	2.5	/experiments/knapen_aot/oldvideos/R_S_yt-Ul81y6R9YbE_12.mp4	0.0	224.60953402519226	0.10074019432067871
63	169.58187007904053	fix_pre	0		15.0	61.0	2.5	/experiments/knapen_aot/oldvideos/S_yt-QFGyhhr1KSQ_9.mp4	0.0	224.71027421951294	0.12457489967346191
63	169.69793391227722	response	0	2		61.0	2.5	/experiments/knapen_aot/oldvideos/S_yt-QFGyhhr1KSQ_9.mp4	0.0	224.82633805274963	
63	169.706444978714	movie	1		301.0	61.0	2.5	/experiments/knapen_aot/oldvideos/S_yt-QFGyhhr1KSQ_9.mp4	0.0	224.8348491191864	2.508023977279663
63	172.21446895599365	fix_post	2		12.0	61.0	2.5	/experiments/knapen_aot/oldvideos/S_yt-QFGyhhr1KSQ_9.mp4	0.0	227.34287309646606	0.09987711906433105
64	172.31434607505798	fix_pre	0		12.0	62.0	2.5	/experiments/knapen_aot/oldvideos/R_S_yt-e9AZJKNv9ow_359.mp4	0.0	227.4427502155304	0.10028600692749023
64	172.4061620235443	response	0	2		62.0	2.5	/experiments/knapen_aot/oldvideos/R_S_yt-e9AZJKNv9ow_359.mp4	0.0	227.53456616401672	
64	172.41463208198547	movie	1		301.0	62.0	2.5	/experiments/knapen_aot/oldvideos/R_S_yt-e9AZJKNv9ow_359.mp4	0.0	227.54303622245789	2.5081448554992676
64	174.92277693748474	fix_post	2		12.0	62.0	2.5	/experiments/knapen_aot/oldvideos/R_S_yt-e9AZJKNv9ow_359.mp4	0.0	230.05118107795715	0.10010504722595215
64	174.9894769191742	response	2	2		62.0	2.5	/experiments/knapen_aot/oldvideos/R_S_yt-e9AZJKNv9ow_359.mp4	0.0	230.1178810596466	
65	175.0228819847107	fix_pre	0		57.0	63.0	2.5	blank	1.0	230.1512861251831	0.47509193420410156
65	175.4821379184723	response	0	2		63.0	2.5	blank	1.0	230.6105420589447	
65	175.4979739189148	movie	1		301.0	63.0	2.5	blank	1.0	230.6263780593872	2.5081121921539307
65	178.00608611106873	fix_post	2		12.0	63.0	2.5	blank	1.0	233.13449025154114	0.09992480278015137
66	178.10601091384888	fix_pre	0		18.0	64.0	2.5	/experiments/knapen_aot/oldvideos/R_S_yt-2y6A9DJPsDU_65.mp4	0.0	233.2344150543213	0.150068998336792
66	178.24781894683838	response	0	2		64.0	2.5	/experiments/knapen_aot/oldvideos/R_S_yt-2y6A9DJPsDU_65.mp4	0.0	233.3762230873108	
66	178.25607991218567	movie	1		301.0	64.0	2.5	/experiments/knapen_aot/oldvideos/R_S_yt-2y6A9DJPsDU_65.mp4	0.0	233.38448405265808	2.508324146270752
66	180.76440405845642	fix_post	2		12.0	64.0	2.5	/experiments/knapen_aot/oldvideos/R_S_yt-2y6A9DJPsDU_65.mp4	0.0	235.89280819892883	0.09997391700744629
67	180.86437797546387	fix_pre	0		11.0	65.0	2.5	/experiments/knapen_aot/oldvideos/S_video_inspire_texas_pecos_foggy-landscape_00018.1080-h264.mp4	0.0	235.99278211593628	0.09187912940979004
67	180.94788098335266	response	0	2		65.0	2.5	/experiments/knapen_aot/oldvideos/S_video_inspire_texas_pecos_foggy-landscape_00018.1080-h264.mp4	0.0	236.07628512382507	
67	180.95625710487366	movie	1		165.0	65.0	2.5	/experiments/knapen_aot/oldvideos/S_video_inspire_texas_pecos_foggy-landscape_00018.1080-h264.mp4	0.0	236.08466124534607	2.508183002471924
67	183.46444010734558	fix_post	2		12.0	65.0	2.5	/experiments/knapen_aot/oldvideos/S_video_inspire_texas_pecos_foggy-landscape_00018.1080-h264.mp4	0.0	238.592844247818	0.10002279281616211
68	183.56446290016174	fix_pre	0		2.0	66.0	2.5	/experiments/knapen_aot/oldvideos/R_S_comp_A114_C001_0305OT_v10_SDR_FINAL_22062018_SDR_2K_AVC.mp4	0.0	238.69286704063416	0.017379045486450195
68	183.57444500923157	response	0	2		66.0	2.5	/experiments/knapen_aot/oldvideos/R_S_comp_A114_C001_0305OT_v10_SDR_FINAL_22062018_SDR_2K_AVC.mp4	0.0	238.70284914970398	
68	183.5818419456482	movie	1		171.0	66.0	2.5	/experiments/knapen_aot/oldvideos/R_S_comp_A114_C001_0305OT_v10_SDR_FINAL_22062018_SDR_2K_AVC.mp4	0.0	238.7102460861206	2.5075361728668213
68	186.08937811851501	fix_post	2		12.0	66.0	2.5	/experiments/knapen_aot/oldvideos/R_S_comp_A114_C001_0305OT_v10_SDR_FINAL_22062018_SDR_2K_AVC.mp4	0.0	241.21778225898743	0.10001087188720703
69	186.18938899040222	fix_pre	0		13.0	67.0	2.5	/experiments/knapen_aot/oldvideos/R_S_yt-hMyqUMAbFAk_303.mp4	0.0	241.31779313087463	0.1082921028137207
69	186.28948998451233	response	0	2		67.0	2.5	/experiments/knapen_aot/oldvideos/R_S_yt-hMyqUMAbFAk_303.mp4	0.0	241.41789412498474	
69	186.29768109321594	movie	1		301.0	67.0	2.5	/experiments/knapen_aot/oldvideos/R_S_yt-hMyqUMAbFAk_303.mp4	0.0	241.42608523368835	2.5083630084991455
69	188.8060441017151	fix_post	2		12.0	67.0	2.5	/experiments/knapen_aot/oldvideos/R_S_yt-hMyqUMAbFAk_303.mp4	0.0	243.9344482421875	0.09999680519104004
70	188.90604090690613	fix_pre	0		7.0	68.0	2.5	/experiments/knapen_aot/oldvideos/S_yt-kKRGgUhVRzc_74.mp4	0.0	244.03444504737854	0.05829811096191406
70	188.95619201660156	response	0	2		68.0	2.5	/experiments/knapen_aot/oldvideos/S_yt-kKRGgUhVRzc_74.mp4	0.0	244.08459615707397	
70	188.96433901786804	movie	1		301.0	68.0	2.5	/experiments/knapen_aot/oldvideos/S_yt-kKRGgUhVRzc_74.mp4	0.0	244.09274315834045	2.508389949798584
70	191.47272896766663	fix_post	2		12.0	68.0	2.5	/experiments/knapen_aot/oldvideos/S_yt-kKRGgUhVRzc_74.mp4	0.0	246.60113310813904	0.09998202323913574
71	191.57271099090576	fix_pre	0		13.0	69.0	2.5	blank	1.0	246.70111513137817	0.1083219051361084
71	191.67282509803772	response	0	2		69.0	2.5	blank	1.0	246.80122923851013	
71	191.68103289604187	movie	1		301.0	69.0	2.5	blank	1.0	246.80943703651428	2.5082991123199463
71	194.18933200836182	fix_post	2		12.0	69.0	2.5	blank	1.0	249.31773614883423	0.1001749038696289
72	194.28950691223145	fix_pre	0		24.0	70.0	2.5	/experiments/knapen_aot/oldvideos/R_S_production_ID_4154238.mp4	0.0	249.41791105270386	0.1997981071472168
72	194.48108291625977	response	0	2		70.0	2.5	/experiments/knapen_aot/oldvideos/R_S_production_ID_4154238.mp4	0.0	249.60948705673218	
72	194.48930501937866	movie	1		207.0	70.0	2.5	/experiments/knapen_aot/oldvideos/R_S_production_ID_4154238.mp4	0.0	249.61770915985107	2.5086309909820557
72	196.99793601036072	fix_post	2		12.0	70.0	2.5	/experiments/knapen_aot/oldvideos/R_S_production_ID_4154238.mp4	0.0	252.12634015083313	0.09979701042175293
73	197.09773302078247	fix_pre	0		31.0	71.0	2.5	/experiments/knapen_aot/oldvideos/R_S_pexels-mart-production-7698911_1.mp4	0.0	252.22613716125488	0.25829386711120605
73	197.3478090763092	response	0	2		71.0	2.5	/experiments/knapen_aot/oldvideos/R_S_pexels-mart-production-7698911_1.mp4	0.0	252.47621321678162	
73	197.35602688789368	movie	1		183.0	71.0	2.5	/experiments/knapen_aot/oldvideos/R_S_pexels-mart-production-7698911_1.mp4	0.0	252.4844310283661	2.5084450244903564
73	199.86447191238403	fix_post	2		12.0	71.0	2.5	/experiments/knapen_aot/oldvideos/R_S_pexels-mart-production-7698911_1.mp4	0.0	254.99287605285645	0.0999300479888916
74	199.96440196037292	fix_pre	0		14.0	72.0	2.5	/experiments/knapen_aot/oldvideos/R_S_yt-IX6uxR5DSKk_2.mp4	0.0	255.09280610084534	0.11666107177734375
74	200.0727779865265	response	0	2		72.0	2.5	/experiments/knapen_aot/oldvideos/R_S_yt-IX6uxR5DSKk_2.mp4	0.0	255.2011821269989	
74	200.08106303215027	movie	1		301.0	72.0	2.5	/experiments/knapen_aot/oldvideos/R_S_yt-IX6uxR5DSKk_2.mp4	0.0	255.20946717262268	2.508265972137451
74	202.58932900428772	fix_post	2		12.0	72.0	2.5	/experiments/knapen_aot/oldvideos/R_S_yt-IX6uxR5DSKk_2.mp4	0.0	257.71773314476013	0.10003304481506348
75	202.68936204910278	fix_pre	0		2.0	73.0	2.5	/experiments/knapen_aot/oldvideos/S_yt-2y6A9DJPsDU_65.mp4	0.0	257.8177661895752	0.017178058624267578
75	202.69949007034302	response	0	2		73.0	2.5	/experiments/knapen_aot/oldvideos/S_yt-2y6A9DJPsDU_65.mp4	0.0	257.82789421081543	
75	202.70654010772705	movie	1		301.0	73.0	2.5	/experiments/knapen_aot/oldvideos/S_yt-2y6A9DJPsDU_65.mp4	0.0	257.83494424819946	2.5078659057617188
75	205.21440601348877	fix_post	2		12.0	73.0	2.5	/experiments/knapen_aot/oldvideos/S_yt-2y6A9DJPsDU_65.mp4	0.0	260.3428101539612	0.09993910789489746
76	205.31434512138367	fix_pre	0		9.0	74.0	2.5	/experiments/knapen_aot/oldvideos/R_S_WO9z7lBUvOs_151.mp4	0.0	260.4427492618561	0.07507491111755371
76	205.37355709075928	response	0	2		74.0	2.5	/experiments/knapen_aot/oldvideos/R_S_WO9z7lBUvOs_151.mp4	0.0	260.5019612312317	
76	205.38942003250122	movie	1		301.0	74.0	2.5	/experiments/knapen_aot/oldvideos/R_S_WO9z7lBUvOs_151.mp4	0.0	260.51782417297363	2.5082390308380127
76	207.89765906333923	fix_post	2		12.0	74.0	2.5	/experiments/knapen_aot/oldvideos/R_S_WO9z7lBUvOs_151.mp4	0.0	263.02606320381165	0.1000828742980957
76	207.94030904769897	response	2	2		74.0	2.5	/experiments/knapen_aot/oldvideos/R_S_WO9z7lBUvOs_151.mp4	0.0	263.0687131881714	
77	207.99774193763733	fix_pre	0		49.0	75.0	2.5	/experiments/knapen_aot/oldvideos/S_yt-t-wpKypNysg_27.mp4	0.0	263.12614607810974	0.40822696685791016
77	208.39020895957947	response	0	2		75.0	2.5	/experiments/knapen_aot/oldvideos/S_yt-t-wpKypNysg_27.mp4	0.0	263.5186131000519	
77	208.40596890449524	movie	1		301.0	75.0	2.5	/experiments/knapen_aot/oldvideos/S_yt-t-wpKypNysg_27.mp4	0.0	263.53437304496765	2.5084431171417236
77	210.91441202163696	fix_post	2		12.0	75.0	2.5	/experiments/knapen_aot/oldvideos/S_yt-t-wpKypNysg_27.mp4	0.0	266.0428161621094	0.09990787506103516
78	211.014319896698	fix_pre	0		6.0	76.0	2.5	/experiments/knapen_aot/oldvideos/S_ILSVRC2015_train_00521000.mp4	0.0	266.1427240371704	0.04997611045837402
78	211.05613589286804	response	0	2		76.0	2.5	/experiments/knapen_aot/oldvideos/S_ILSVRC2015_train_00521000.mp4	0.0	266.18454003334045	
78	211.06429600715637	movie	1		301.0	76.0	2.5	/experiments/knapen_aot/oldvideos/S_ILSVRC2015_train_00521000.mp4	0.0	266.1927001476288	2.508344888687134
78	213.5726408958435	fix_post	2		12.0	76.0	2.5	/experiments/knapen_aot/oldvideos/S_ILSVRC2015_train_00521000.mp4	0.0	268.7010450363159	0.10001802444458008
79	213.6726589202881	fix_pre	0		9.0	77.0	2.5	blank	1.0	268.8010630607605	0.07500100135803223
79	213.73942708969116	response	0	2		77.0	2.5	blank	1.0	268.8678312301636	
79	213.74765992164612	movie	1		301.0	77.0	2.5	blank	1.0	268.87606406211853	2.5083940029144287
79	216.25605392456055	fix_post	2		12.0	77.0	2.5	blank	1.0	271.38445806503296	0.10001206398010254
80	216.35606598854065	fix_pre	0		24.0	78.0	2.5	/experiments/knapen_aot/oldvideos/S_yt-qBPDvSQD0XY_5.mp4	0.0	271.48447012901306	0.19988203048706055
80	216.5477180480957	response	0	2		78.0	2.5	/experiments/knapen_aot/oldvideos/S_yt-qBPDvSQD0XY_5.mp4	0.0	271.6761221885681	
80	216.5559480190277	movie	1		301.0	78.0	2.5	/experiments/knapen_aot/oldvideos/S_yt-qBPDvSQD0XY_5.mp4	0.0	271.6843521595001	2.5083539485931396
80	219.06430196762085	fix_post	2		12.0	78.0	2.5	/experiments/knapen_aot/oldvideos/S_yt-qBPDvSQD0XY_5.mp4	0.0	274.19270610809326	0.10002613067626953
81	219.16432809829712	fix_pre	0		13.0	79.0	2.5	/experiments/knapen_aot/oldvideos/S_yt-XpM1Jtwlvvk_42.mp4	0.0	274.29273223876953	0.10834980010986328
81	219.26433396339417	response	0	2		79.0	2.5	/experiments/knapen_aot/oldvideos/S_yt-XpM1Jtwlvvk_42.mp4	0.0	274.3927381038666	
81	219.27267789840698	movie	1		301.0	79.0	2.5	/experiments/knapen_aot/oldvideos/S_yt-XpM1Jtwlvvk_42.mp4	0.0	274.4010820388794	2.5082859992980957
81	221.78096389770508	fix_post	2		12.0	79.0	2.5	/experiments/knapen_aot/oldvideos/S_yt-XpM1Jtwlvvk_42.mp4	0.0	276.9093680381775	0.09996914863586426
82	221.88093304634094	fix_pre	0		11.0	80.0	2.5	/experiments/knapen_aot/oldvideos/S_yt-Ryb0K9lGPrg_5.mp4	0.0	277.00933718681335	0.0916290283203125
82	221.96443891525269	response	0	2		80.0	2.5	/experiments/knapen_aot/oldvideos/S_yt-Ryb0K9lGPrg_5.mp4	0.0	277.0928430557251	
82	221.97256207466125	movie	1		301.0	80.0	2.5	/experiments/knapen_aot/oldvideos/S_yt-Ryb0K9lGPrg_5.mp4	0.0	277.10096621513367	2.5085489749908447
82	224.41431498527527	response	1	2		80.0	2.5	/experiments/knapen_aot/oldvideos/S_yt-Ryb0K9lGPrg_5.mp4	0.0	279.5427191257477	
82	224.4811110496521	fix_post	2		12.0	80.0	2.5	/experiments/knapen_aot/oldvideos/S_yt-Ryb0K9lGPrg_5.mp4	0.0	279.6095151901245	0.09983086585998535
83	224.58094191551208	fix_pre	0		14.0	81.0	2.5	/experiments/knapen_aot/oldvideos/S_yt-iKe-0YNR5Eo_164.mp4	0.0	279.7093460559845	0.11662602424621582
83	224.68940210342407	response	0	2		81.0	2.5	/experiments/knapen_aot/oldvideos/S_yt-iKe-0YNR5Eo_164.mp4	0.0	279.8178062438965	
83	224.6975679397583	movie	1		301.0	81.0	2.5	/experiments/knapen_aot/oldvideos/S_yt-iKe-0YNR5Eo_164.mp4	0.0	279.8259720802307	2.508366107940674
83	227.20593404769897	fix_post	2		12.0	81.0	2.5	/experiments/knapen_aot/oldvideos/S_yt-iKe-0YNR5Eo_164.mp4	0.0	282.3343381881714	0.09997296333312988
84	227.3059070110321	fix_pre	0		27.0	82.0	2.5	blank	1.0	282.4343111515045	0.2250208854675293
84	227.5226800441742	response	0	2		82.0	2.5	blank	1.0	282.6510841846466	
84	227.53092789649963	movie	1		301.0	82.0	2.5	blank	1.0	282.65933203697205	2.508371114730835
84	230.03929901123047	fix_post	2		12.0	82.0	2.5	blank	1.0	285.1677031517029	0.0999290943145752
85	230.13922810554504	fix_pre	0		28.0	83.0	2.5	/experiments/knapen_aot/oldvideos/S_yt-pbFpqAQJCJo_149.mp4	0.0	285.26763224601746	0.233259916305542
85	230.36435389518738	response	0	2		83.0	2.5	/experiments/knapen_aot/oldvideos/S_yt-pbFpqAQJCJo_149.mp4	0.0	285.4927580356598	
85	230.3724880218506	movie	1		301.0	83.0	2.5	/experiments/knapen_aot/oldvideos/S_yt-pbFpqAQJCJo_149.mp4	0.0	285.500892162323	2.508331060409546
85	232.88081908226013	fix_post	2		12.0	83.0	2.5	/experiments/knapen_aot/oldvideos/S_yt-pbFpqAQJCJo_149.mp4	0.0	288.00922322273254	0.10001802444458008
87	232.9808371067047	stim	0		1716.0					288.1092412471771	14.300019979476929
87	233.2393000125885	response	0	2						288.3677041530609	
