trial_nr	onset	event_type	phase	response	nr_frames	movie_index	movie_duration	movie_file	blank	onset_abs	duration
0	0.13335609436035156	stim	0		23.0					63.24778509140015	0.1915907859802246
0	0.3167140483856201	response	0	space						63.431143045425415	
1	0.32494688034057617	stim	0		121.0					63.43937587738037	1.0081400871276855
1	0.9167358875274658	response	0	space						64.03116488456726	
1	1.3330869674682617	stim	1		120.0					64.44751596450806	0.9998340606689453
1	1.9497261047363281	response	1	space						65.06415510177612	
2	2.332921028137207	fix_pre	0		15.0	0.0	2.5	/experiments/knapen_aot/videos/R_S_pexels-mikhail-nilov-8410063.mp4	0.0	65.447350025177	0.12504792213439941
2	2.449712038040161	response	0	space		0.0	2.5	/experiments/knapen_aot/videos/R_S_pexels-mikhail-nilov-8410063.mp4	0.0	65.56414103507996	
2	2.4579689502716064	movie	1		163.0	0.0	2.5	/experiments/knapen_aot/videos/R_S_pexels-mikhail-nilov-8410063.mp4	0.0	65.5723979473114	2.508301019668579
2	4.9662699699401855	fix_post	2		12.0	0.0	2.5	/experiments/knapen_aot/videos/R_S_pexels-mikhail-nilov-8410063.mp4	0.0	68.08069896697998	0.09994792938232422
3	5.06621789932251	fix_pre	0		83.0	1.0	2.5	/experiments/knapen_aot/videos/R_S_video_inspire_sanfrancisco_castro_005.1080-h264.mp4	0.0	68.1806468963623	0.695716142654419
3	5.747757911682129	response	0	2		1.0	2.5	/experiments/knapen_aot/videos/R_S_video_inspire_sanfrancisco_castro_005.1080-h264.mp4	0.0	68.86218690872192	
3	5.761934041976929	movie	1		169.0	1.0	2.5	/experiments/knapen_aot/videos/R_S_video_inspire_sanfrancisco_castro_005.1080-h264.mp4	0.0	68.87636303901672	2.5043280124664307
3	8.26626205444336	fix_post	2		12.0	1.0	2.5	/experiments/knapen_aot/videos/R_S_video_inspire_sanfrancisco_castro_005.1080-h264.mp4	0.0	71.38069105148315	0.0998849868774414
4	8.3661470413208	fix_pre	0		80.0	2.0	2.5	/experiments/knapen_aot/videos/R_S_yt-kXarkCFJLeg_46.mp4	0.0	71.4805760383606	0.666693925857544
4	9.024669885635376	response	0	2		2.0	2.5	/experiments/knapen_aot/videos/R_S_yt-kXarkCFJLeg_46.mp4	0.0	72.13909888267517	
4	9.032840967178345	movie	1		301.0	2.0	2.5	/experiments/knapen_aot/videos/R_S_yt-kXarkCFJLeg_46.mp4	0.0	72.14726996421814	2.5083889961242676
4	11.541229963302612	fix_post	2		12.0	2.0	2.5	/experiments/knapen_aot/videos/R_S_yt-kXarkCFJLeg_46.mp4	0.0	74.65565896034241	0.09999704360961914
5	11.641227006912231	fix_pre	0		74.0	3.0	2.5	/experiments/knapen_aot/videos/S_yt-QiJyOUkuo38_6.mp4	0.0	74.75565600395203	0.6166400909423828
5	12.249587059020996	response	0	2		3.0	2.5	/experiments/knapen_aot/videos/S_yt-QiJyOUkuo38_6.mp4	0.0	75.36401605606079	
5	12.257867097854614	movie	1		301.0	3.0	2.5	/experiments/knapen_aot/videos/S_yt-QiJyOUkuo38_6.mp4	0.0	75.37229609489441	2.5083858966827393
5	14.766252994537354	fix_post	2		12.0	3.0	2.5	/experiments/knapen_aot/videos/S_yt-QiJyOUkuo38_6.mp4	0.0	77.88068199157715	0.09992194175720215
6	14.866174936294556	fix_pre	0		65.0	4.0	2.5	/experiments/knapen_aot/videos/R_S_yt-RHPOCG1mII0_138.mp4	0.0	77.98060393333435	0.5416350364685059
6	15.399619102478027	response	0	2		4.0	2.5	/experiments/knapen_aot/videos/R_S_yt-RHPOCG1mII0_138.mp4	0.0	78.51404809951782	
6	15.407809972763062	movie	1		301.0	4.0	2.5	/experiments/knapen_aot/videos/R_S_yt-RHPOCG1mII0_138.mp4	0.0	78.52223896980286	2.5083820819854736
6	17.916192054748535	fix_post	2		12.0	4.0	2.5	/experiments/knapen_aot/videos/R_S_yt-RHPOCG1mII0_138.mp4	0.0	81.03062105178833	0.09993791580200195
7	18.016129970550537	fix_pre	0		74.0	5.0	2.5	/experiments/knapen_aot/videos/R_S_yt-M5qZo3CUXYE_27.mp4	0.0	81.13055896759033	0.6166870594024658
7	18.62463092803955	response	0	2		5.0	2.5	/experiments/knapen_aot/videos/R_S_yt-M5qZo3CUXYE_27.mp4	0.0	81.73905992507935	
7	18.632817029953003	movie	1		301.0	5.0	2.5	/experiments/knapen_aot/videos/R_S_yt-M5qZo3CUXYE_27.mp4	0.0	81.7472460269928	2.5084989070892334
7	21.141315937042236	fix_post	2		12.0	5.0	2.5	/experiments/knapen_aot/videos/R_S_yt-M5qZo3CUXYE_27.mp4	0.0	84.25574493408203	0.09982705116271973
8	21.241142988204956	fix_pre	0		48.0	6.0	2.5	blank	1.0	84.35557198524475	0.39998602867126465
8	21.63298797607422	response	0	2		6.0	2.5	blank	1.0	84.74741697311401	
8	21.64112901687622	movie	1		301.0	6.0	2.5	blank	1.0	84.75555801391602	2.5084478855133057
8	24.149576902389526	fix_post	2		12.0	6.0	2.5	blank	1.0	87.26400589942932	0.09991216659545898
9	24.249489068984985	fix_pre	0		52.0	7.0	2.5	/experiments/knapen_aot/videos/R_S_pexels-mart-production-7698911_1.mp4	0.0	87.36391806602478	0.4333338737487793
9	24.67455506324768	response	0	2		7.0	2.5	/experiments/knapen_aot/videos/R_S_pexels-mart-production-7698911_1.mp4	0.0	87.78898406028748	
9	24.682822942733765	movie	1		195.0	7.0	2.5	/experiments/knapen_aot/videos/R_S_pexels-mart-production-7698911_1.mp4	0.0	87.79725193977356	2.5083999633789062
9	27.19122290611267	fix_post	2		12.0	7.0	2.5	/experiments/knapen_aot/videos/R_S_pexels-mart-production-7698911_1.mp4	0.0	90.30565190315247	0.09986615180969238
10	27.291089057922363	fix_pre	0		53.0	8.0	2.5	/experiments/knapen_aot/videos/S_yt-mdxs8FCKLFc_232.mp4	0.0	90.40551805496216	0.4428739547729492
10	27.724628925323486	response	0	2		8.0	2.5	/experiments/knapen_aot/videos/S_yt-mdxs8FCKLFc_232.mp4	0.0	90.83905792236328	
10	27.733963012695312	movie	1		301.0	8.0	2.5	/experiments/knapen_aot/videos/S_yt-mdxs8FCKLFc_232.mp4	0.0	90.84839200973511	2.5071239471435547
10	30.241086959838867	fix_post	2		12.0	8.0	2.5	/experiments/knapen_aot/videos/S_yt-mdxs8FCKLFc_232.mp4	0.0	93.35551595687866	0.10004305839538574
11	30.341130018234253	fix_pre	0		68.0	9.0	2.5	/experiments/knapen_aot/videos/R_S_yt-Ozx_f0a0ZDI_32.mp4	0.0	93.45555901527405	0.5666830539703369
11	30.89961290359497	response	0	2		9.0	2.5	/experiments/knapen_aot/videos/R_S_yt-Ozx_f0a0ZDI_32.mp4	0.0	94.01404190063477	
11	30.90781307220459	movie	1		301.0	9.0	2.5	/experiments/knapen_aot/videos/R_S_yt-Ozx_f0a0ZDI_32.mp4	0.0	94.02224206924438	2.5084400177001953
11	33.416253089904785	fix_post	2		12.0	9.0	2.5	/experiments/knapen_aot/videos/R_S_yt-Ozx_f0a0ZDI_32.mp4	0.0	96.53068208694458	0.09990882873535156
12	33.51616191864014	fix_pre	0		54.0	10.0	2.5	/experiments/knapen_aot/videos/S_yt-3eQHOLBzOqA_100.mp4	0.0	96.63059091567993	0.4499490261077881
12	33.95797801017761	response	0	2		10.0	2.5	/experiments/knapen_aot/videos/S_yt-3eQHOLBzOqA_100.mp4	0.0	97.07240700721741	
12	33.966110944747925	movie	1		301.0	10.0	2.5	/experiments/knapen_aot/videos/S_yt-3eQHOLBzOqA_100.mp4	0.0	97.08053994178772	2.508470058441162
12	36.47458100318909	fix_post	2		12.0	10.0	2.5	/experiments/knapen_aot/videos/S_yt-3eQHOLBzOqA_100.mp4	0.0	99.58901000022888	0.09995102882385254
13	36.57453203201294	fix_pre	0		63.0	11.0	2.5	/experiments/knapen_aot/videos/R_S_yt-4i1b6NQ9NKs_5.mp4	0.0	99.68896102905273	0.5249068737030029
13	37.09127187728882	response	0	2		11.0	2.5	/experiments/knapen_aot/videos/R_S_yt-4i1b6NQ9NKs_5.mp4	0.0	100.20570087432861	
13	37.09943890571594	movie	1		301.0	11.0	2.5	/experiments/knapen_aot/videos/R_S_yt-4i1b6NQ9NKs_5.mp4	0.0	100.21386790275574	2.50833797454834
13	39.60777688026428	fix_post	2		12.0	11.0	2.5	/experiments/knapen_aot/videos/R_S_yt-4i1b6NQ9NKs_5.mp4	0.0	102.72220587730408	0.10002422332763672
14	39.70780110359192	fix_pre	0		62.0	12.0	2.5	/experiments/knapen_aot/videos/S_ILSVRC2015_train_00418004.mp4	0.0	102.82223010063171	0.5167038440704346
14	40.216262102127075	response	0	2		12.0	2.5	/experiments/knapen_aot/videos/S_ILSVRC2015_train_00418004.mp4	0.0	103.33069109916687	
14	40.22450494766235	movie	1		301.0	12.0	2.5	/experiments/knapen_aot/videos/S_ILSVRC2015_train_00418004.mp4	0.0	103.33893394470215	2.5082809925079346
14	42.73278594017029	fix_post	2		12.0	12.0	2.5	/experiments/knapen_aot/videos/S_ILSVRC2015_train_00418004.mp4	0.0	105.84721493721008	0.09993815422058105
15	42.83272409439087	fix_pre	0		47.0	13.0	2.5	blank	1.0	105.94715309143066	0.3917257785797119
15	43.216196060180664	response	0	2		13.0	2.5	blank	1.0	106.33062505722046	
15	43.22444987297058	movie	1		301.0	13.0	2.5	blank	1.0	106.33887887001038	2.508333206176758
15	45.73278307914734	fix_post	2		12.0	13.0	2.5	blank	1.0	108.84721207618713	0.10002493858337402
16	45.83280801773071	fix_pre	0		71.0	14.0	2.5	/experiments/knapen_aot/videos/S_yt-fnE8kgUHUMI_64.mp4	0.0	108.94723701477051	0.591602087020874
16	46.41624903678894	response	0	2		14.0	2.5	/experiments/knapen_aot/videos/S_yt-fnE8kgUHUMI_64.mp4	0.0	109.53067803382874	
16	46.42441010475159	movie	1		301.0	14.0	2.5	/experiments/knapen_aot/videos/S_yt-fnE8kgUHUMI_64.mp4	0.0	109.53883910179138	2.5083799362182617
16	48.93279004096985	fix_post	2		12.0	14.0	2.5	/experiments/knapen_aot/videos/S_yt-fnE8kgUHUMI_64.mp4	0.0	112.04721903800964	0.09996604919433594
17	49.032756090164185	fix_pre	0		83.0	15.0	2.5	/experiments/knapen_aot/videos/R_S_ILSVRC2015_train_00569006.mp4	0.0	112.14718508720398	0.6916618347167969
17	49.716257095336914	response	0	2		15.0	2.5	/experiments/knapen_aot/videos/R_S_ILSVRC2015_train_00569006.mp4	0.0	112.83068609237671	
17	49.72441792488098	movie	1		301.0	15.0	2.5	/experiments/knapen_aot/videos/R_S_ILSVRC2015_train_00569006.mp4	0.0	112.83884692192078	2.508358955383301
17	52.23277688026428	fix_post	2		12.0	15.0	2.5	/experiments/knapen_aot/videos/R_S_ILSVRC2015_train_00569006.mp4	0.0	115.34720587730408	0.10013508796691895
18	52.3329119682312	fix_pre	0		60.0	16.0	2.5	/experiments/knapen_aot/videos/S_flickr-clarkstonscamp-4863427159_1.mp4	0.0	115.447340965271	0.4997689723968506
18	52.82457995414734	response	0	2		16.0	2.5	/experiments/knapen_aot/videos/S_flickr-clarkstonscamp-4863427159_1.mp4	0.0	115.93900895118713	
18	52.83268094062805	movie	1		301.0	16.0	2.5	/experiments/knapen_aot/videos/S_flickr-clarkstonscamp-4863427159_1.mp4	0.0	115.94710993766785	2.5083439350128174
18	55.34102487564087	fix_post	2		12.0	16.0	2.5	/experiments/knapen_aot/videos/S_flickr-clarkstonscamp-4863427159_1.mp4	0.0	118.45545387268066	0.10002422332763672
19	55.441049098968506	fix_pre	0		85.0	17.0	2.5	/experiments/knapen_aot/videos/S_yt-wz2opOBqClo_14.mp4	0.0	118.5554780960083	0.7093298435211182
19	56.141231060028076	response	0	2		17.0	2.5	/experiments/knapen_aot/videos/S_yt-wz2opOBqClo_14.mp4	0.0	119.25566005706787	
19	56.150378942489624	movie	1		301.0	17.0	2.5	/experiments/knapen_aot/videos/S_yt-wz2opOBqClo_14.mp4	0.0	119.26480793952942	2.507315158843994
19	58.65769410133362	fix_post	2		12.0	17.0	2.5	/experiments/knapen_aot/videos/S_yt-wz2opOBqClo_14.mp4	0.0	121.77212309837341	0.10002398490905762
20	58.757718086242676	fix_pre	0		129.0	18.0	2.5	/experiments/knapen_aot/videos/R_S_yt-npaE4fe6A6Y_26.mp4	0.0	121.87214708328247	1.074962854385376
20	59.82449007034302	response	0	2		18.0	2.5	/experiments/knapen_aot/videos/R_S_yt-npaE4fe6A6Y_26.mp4	0.0	122.93891906738281	
20	59.83268094062805	movie	1		301.0	18.0	2.5	/experiments/knapen_aot/videos/R_S_yt-npaE4fe6A6Y_26.mp4	0.0	122.94710993766785	2.5083229541778564
20	62.34100389480591	fix_post	2		12.0	18.0	2.5	/experiments/knapen_aot/videos/R_S_yt-npaE4fe6A6Y_26.mp4	0.0	125.4554328918457	0.10001707077026367
21	62.44102096557617	fix_pre	0		68.0	19.0	2.5	/experiments/knapen_aot/videos/S_comp_C001_C005_PS_v01_SDR_PS_20180925_SDR_2K_AVC.mp4	0.0	125.55544996261597	0.5666611194610596
21	62.99948191642761	response	0	2		19.0	2.5	/experiments/knapen_aot/videos/S_comp_C001_C005_PS_v01_SDR_PS_20180925_SDR_2K_AVC.mp4	0.0	126.11391091346741	
21	63.00768208503723	movie	1		174.0	19.0	2.5	/experiments/knapen_aot/videos/S_comp_C001_C005_PS_v01_SDR_PS_20180925_SDR_2K_AVC.mp4	0.0	126.12211108207703	2.508368968963623
21	65.51605105400085	fix_post	2		12.0	19.0	2.5	/experiments/knapen_aot/videos/S_comp_C001_C005_PS_v01_SDR_PS_20180925_SDR_2K_AVC.mp4	0.0	128.63048005104065	0.09995603561401367
22	65.61600708961487	fix_pre	0		57.0	20.0	2.5	/experiments/knapen_aot/videos/R_S_yt-H5LQq4MPIao_660.mp4	0.0	128.73043608665466	0.4749908447265625
22	66.08281993865967	response	0	2		20.0	2.5	/experiments/knapen_aot/videos/R_S_yt-H5LQq4MPIao_660.mp4	0.0	129.19724893569946	
22	66.09099793434143	movie	1		301.0	20.0	2.5	/experiments/knapen_aot/videos/R_S_yt-H5LQq4MPIao_660.mp4	0.0	129.20542693138123	2.508319139480591
22	68.59931707382202	fix_post	2		12.0	20.0	2.5	/experiments/knapen_aot/videos/R_S_yt-H5LQq4MPIao_660.mp4	0.0	131.71374607086182	0.10008001327514648
23	68.69939708709717	fix_pre	0		100.0	21.0	2.5	blank	1.0	131.81382608413696	0.8332359790802002
23	69.5244140625	response	0	2		21.0	2.5	blank	1.0	132.6388430595398	
23	69.53263306617737	movie	1		301.0	21.0	2.5	blank	1.0	132.64706206321716	2.508354902267456
23	72.04098796844482	fix_post	2		12.0	21.0	2.5	blank	1.0	135.15541696548462	0.09999513626098633
24	72.14098310470581	fix_pre	0		62.0	22.0	2.5	/experiments/knapen_aot/videos/S_production_ID_4325509.mp4	0.0	135.2554121017456	0.5249919891357422
24	72.64943504333496	response	0	2		22.0	2.5	/experiments/knapen_aot/videos/S_production_ID_4325509.mp4	0.0	135.76386404037476	
24	72.66597509384155	movie	1		171.0	22.0	2.5	/experiments/knapen_aot/videos/S_production_ID_4325509.mp4	0.0	135.78040409088135	2.500046968460083
24	75.16602206230164	fix_post	2		12.0	22.0	2.5	/experiments/knapen_aot/videos/S_production_ID_4325509.mp4	0.0	138.28045105934143	0.1000208854675293
25	75.26604294776917	fix_pre	0		85.0	23.0	2.5	/experiments/knapen_aot/videos/R_S_yt-nn-8LZcafGs_25.mp4	0.0	138.38047194480896	0.7082531452178955
25	75.96613001823425	response	0	2		23.0	2.5	/experiments/knapen_aot/videos/R_S_yt-nn-8LZcafGs_25.mp4	0.0	139.08055901527405	
25	75.97429609298706	movie	1		301.0	23.0	2.5	/experiments/knapen_aot/videos/R_S_yt-nn-8LZcafGs_25.mp4	0.0	139.08872509002686	2.5083048343658447
25	78.4826009273529	fix_post	2		12.0	23.0	2.5	/experiments/knapen_aot/videos/R_S_yt-nn-8LZcafGs_25.mp4	0.0	141.5970299243927	0.09998512268066406
26	78.58258605003357	fix_pre	0		64.0	24.0	2.5	/experiments/knapen_aot/videos/R_S_ILSVRC2015_train_00001009.mp4	0.0	141.69701504707336	0.5333290100097656
26	79.10785388946533	response	0	2		24.0	2.5	/experiments/knapen_aot/videos/R_S_ILSVRC2015_train_00001009.mp4	0.0	142.22228288650513	
26	79.11591506004333	movie	1		301.0	24.0	2.5	/experiments/knapen_aot/videos/R_S_ILSVRC2015_train_00001009.mp4	0.0	142.23034405708313	2.5083348751068115
26	81.62424993515015	fix_post	2		12.0	24.0	2.5	/experiments/knapen_aot/videos/R_S_ILSVRC2015_train_00001009.mp4	0.0	144.73867893218994	0.09998011589050293
27	81.72423005104065	fix_pre	0		54.0	25.0	2.5	/experiments/knapen_aot/videos/R_S_yt-l6WPyKg_3is_154.mp4	0.0	144.83865904808044	0.4499669075012207
27	82.16613101959229	response	0	2		25.0	2.5	/experiments/knapen_aot/videos/R_S_yt-l6WPyKg_3is_154.mp4	0.0	145.28056001663208	
27	82.17419695854187	movie	1		301.0	25.0	2.5	/experiments/knapen_aot/videos/R_S_yt-l6WPyKg_3is_154.mp4	0.0	145.28862595558167	2.5082740783691406
27	84.68247103691101	fix_post	2		12.0	25.0	2.5	/experiments/knapen_aot/videos/R_S_yt-l6WPyKg_3is_154.mp4	0.0	147.7969000339508	0.10014986991882324
28	84.78262090682983	fix_pre	0		89.0	26.0	2.5	blank	1.0	147.89704990386963	0.7424540519714355
28	85.51602005958557	response	0	2		26.0	2.5	blank	1.0	148.63044905662537	
28	85.52507495880127	movie	1		301.0	26.0	2.5	blank	1.0	148.63950395584106	2.5074729919433594
28	88.03254795074463	fix_post	2		12.0	26.0	2.5	blank	1.0	151.14697694778442	0.10002613067626953
29	88.1325740814209	fix_pre	0		58.0	27.0	2.5	/experiments/knapen_aot/videos/R_S_yt-hvuC_2YXsTQ_159.mp4	0.0	151.2470030784607	0.48328495025634766
29	88.60759210586548	response	0	2		27.0	2.5	/experiments/knapen_aot/videos/R_S_yt-hvuC_2YXsTQ_159.mp4	0.0	151.72202110290527	
29	88.61585903167725	movie	1		301.0	27.0	2.5	/experiments/knapen_aot/videos/R_S_yt-hvuC_2YXsTQ_159.mp4	0.0	151.73028802871704	2.5083329677581787
29	91.12419199943542	fix_post	2		12.0	27.0	2.5	/experiments/knapen_aot/videos/R_S_yt-hvuC_2YXsTQ_159.mp4	0.0	154.23862099647522	0.10010910034179688
30	91.22430109977722	fix_pre	0		68.0	28.0	2.5	/experiments/knapen_aot/videos/R_S_yt-LsCCAQ8BRO8_7.mp4	0.0	154.33873009681702	0.5665018558502197
30	91.7826280593872	response	0	2		28.0	2.5	/experiments/knapen_aot/videos/R_S_yt-LsCCAQ8BRO8_7.mp4	0.0	154.897057056427	
30	91.79080295562744	movie	1		301.0	28.0	2.5	/experiments/knapen_aot/videos/R_S_yt-LsCCAQ8BRO8_7.mp4	0.0	154.90523195266724	2.508373975753784
30	94.29917693138123	fix_post	2		12.0	28.0	2.5	/experiments/knapen_aot/videos/R_S_yt-LsCCAQ8BRO8_7.mp4	0.0	157.41360592842102	0.09994697570800781
31	94.39912390708923	fix_pre	0		103.0	29.0	2.5	/experiments/knapen_aot/videos/S_yt-v8e_DlCsP4w_10.mp4	0.0	157.51355290412903	0.8583211898803711
31	95.24928188323975	response	0	2		29.0	2.5	/experiments/knapen_aot/videos/S_yt-v8e_DlCsP4w_10.mp4	0.0	158.36371088027954	
31	95.2574450969696	movie	1		301.0	29.0	2.5	/experiments/knapen_aot/videos/S_yt-v8e_DlCsP4w_10.mp4	0.0	158.3718740940094	2.5084478855133057
31	97.76589298248291	fix_post	2		12.0	29.0	2.5	/experiments/knapen_aot/videos/S_yt-v8e_DlCsP4w_10.mp4	0.0	160.8803219795227	0.10006594657897949
32	97.86595892906189	fix_pre	0		99.0	30.0	2.5	/experiments/knapen_aot/videos/R_S_yt-LsCCAQ8BRO8_7.mp4	0.0	160.98038792610168	0.8256709575653076
32	98.68259501457214	response	0	2		30.0	2.5	/experiments/knapen_aot/videos/R_S_yt-LsCCAQ8BRO8_7.mp4	0.0	161.79702401161194	
32	98.6916298866272	movie	1		301.0	30.0	2.5	/experiments/knapen_aot/videos/R_S_yt-LsCCAQ8BRO8_7.mp4	0.0	161.806058883667	2.5075910091400146
32	101.19922089576721	fix_post	2		12.0	30.0	2.5	/experiments/knapen_aot/videos/R_S_yt-LsCCAQ8BRO8_7.mp4	0.0	164.313649892807	0.10001420974731445
33	101.29923510551453	fix_pre	0		82.0	31.0	2.5	/experiments/knapen_aot/videos/R_S_ILSVRC2015_train_00369004.mp4	0.0	164.41366410255432	0.6840369701385498
33	101.97429895401001	response	0	2		31.0	2.5	/experiments/knapen_aot/videos/R_S_ILSVRC2015_train_00369004.mp4	0.0	165.0887279510498	
33	101.98327207565308	movie	1		301.0	31.0	2.5	/experiments/knapen_aot/videos/R_S_ILSVRC2015_train_00369004.mp4	0.0	165.09770107269287	2.5078258514404297
33	104.4910979270935	fix_post	2		12.0	31.0	2.5	/experiments/knapen_aot/videos/R_S_ILSVRC2015_train_00369004.mp4	0.0	167.6055269241333	0.09973716735839844
34	104.5908350944519	fix_pre	0		65.0	32.0	2.5	/experiments/knapen_aot/videos/R_S_yt-k-MRlbCOzZU_163.mp4	0.0	167.7052640914917	0.5416359901428223
34	105.12436890602112	response	0	2		32.0	2.5	/experiments/knapen_aot/videos/R_S_yt-k-MRlbCOzZU_163.mp4	0.0	168.2387979030609	
34	105.13247108459473	movie	1		301.0	32.0	2.5	/experiments/knapen_aot/videos/R_S_yt-k-MRlbCOzZU_163.mp4	0.0	168.24690008163452	2.508251905441284
34	107.64072299003601	fix_post	2		12.0	32.0	2.5	/experiments/knapen_aot/videos/R_S_yt-k-MRlbCOzZU_163.mp4	0.0	170.7551519870758	0.1000509262084961
35	107.7407739162445	fix_pre	0		90.0	33.0	2.5	/experiments/knapen_aot/videos/S_yt-ThT8utBaywI_68.mp4	0.0	170.8552029132843	0.7500059604644775
35	108.4824481010437	response	0	2		33.0	2.5	/experiments/knapen_aot/videos/S_yt-ThT8utBaywI_68.mp4	0.0	171.5968770980835	
35	108.49077987670898	movie	1		301.0	33.0	2.5	/experiments/knapen_aot/videos/S_yt-ThT8utBaywI_68.mp4	0.0	171.60520887374878	2.508742094039917
35	110.9995219707489	fix_post	2		12.0	33.0	2.5	/experiments/knapen_aot/videos/S_yt-ThT8utBaywI_68.mp4	0.0	174.1139509677887	0.09961295127868652
36	111.09913492202759	fix_pre	0		80.0	34.0	2.5	blank	1.0	174.21356391906738	0.6665871143341064
36	111.75753903388977	response	0	2		34.0	2.5	blank	1.0	174.87196803092957	
36	111.7657220363617	movie	1		301.0	34.0	2.5	blank	1.0	174.8801510334015	2.5083889961242676
36	114.27411103248596	fix_post	2		12.0	34.0	2.5	blank	1.0	177.38854002952576	0.10001397132873535
37	114.3741250038147	fix_pre	0		79.0	35.0	2.5	/experiments/knapen_aot/videos/R_S_yt-4GDusA21cEA_170.mp4	0.0	177.4885540008545	0.6582489013671875
37	115.02421808242798	response	0	2		35.0	2.5	/experiments/knapen_aot/videos/R_S_yt-4GDusA21cEA_170.mp4	0.0	178.13864707946777	
37	115.03237390518188	movie	1		301.0	35.0	2.5	/experiments/knapen_aot/videos/R_S_yt-4GDusA21cEA_170.mp4	0.0	178.14680290222168	2.5083529949188232
37	117.54072690010071	fix_post	2		12.0	35.0	2.5	/experiments/knapen_aot/videos/R_S_yt-4GDusA21cEA_170.mp4	0.0	180.6551558971405	0.0999760627746582
38	117.64070296287537	fix_pre	0		56.0	36.0	2.5	/experiments/knapen_aot/videos/R_S_production_ID_4802710.mp4	0.0	180.75513195991516	0.4673929214477539
38	118.09917497634888	response	0	2		36.0	2.5	/experiments/knapen_aot/videos/R_S_production_ID_4802710.mp4	0.0	181.21360397338867	
38	118.10809588432312	movie	1		164.0	36.0	2.5	/experiments/knapen_aot/videos/R_S_production_ID_4802710.mp4	0.0	181.22252488136292	2.5076711177825928
38	120.61576700210571	fix_post	2		12.0	36.0	2.5	/experiments/knapen_aot/videos/R_S_production_ID_4802710.mp4	0.0	183.7301959991455	0.09997105598449707
39	120.71573805809021	fix_pre	0		63.0	37.0	2.5	/experiments/knapen_aot/videos/S_comp_CH_C007_C011_PSNK_v02_SDR_PS_FINAL_20180709_SDR_2K_AVC.mp4	0.0	183.83016705513	0.5249679088592529
39	121.2324800491333	response	0	2		37.0	2.5	/experiments/knapen_aot/videos/S_comp_CH_C007_C011_PSNK_v02_SDR_PS_FINAL_20180709_SDR_2K_AVC.mp4	0.0	184.3469090461731	
39	121.24070596694946	movie	1		168.0	37.0	2.5	/experiments/knapen_aot/videos/S_comp_CH_C007_C011_PSNK_v02_SDR_PS_FINAL_20180709_SDR_2K_AVC.mp4	0.0	184.35513496398926	2.508358955383301
39	123.74906492233276	fix_post	2		12.0	37.0	2.5	/experiments/knapen_aot/videos/S_comp_CH_C007_C011_PSNK_v02_SDR_PS_FINAL_20180709_SDR_2K_AVC.mp4	0.0	186.86349391937256	0.10003304481506348
40	123.84909796714783	fix_pre	0		86.0	38.0	2.5	/experiments/knapen_aot/videos/S_flickr-clarkstonscamp-4863427159_1.mp4	0.0	186.96352696418762	0.7174029350280762
40	124.55006289482117	response	0	2		38.0	2.5	/experiments/knapen_aot/videos/S_flickr-clarkstonscamp-4863427159_1.mp4	0.0	187.66449189186096	
40	124.5665009021759	movie	1		301.0	38.0	2.5	/experiments/knapen_aot/videos/S_flickr-clarkstonscamp-4863427159_1.mp4	0.0	187.6809298992157	2.507678985595703
40	127.0741798877716	fix_post	2		12.0	38.0	2.5	/experiments/knapen_aot/videos/S_flickr-clarkstonscamp-4863427159_1.mp4	0.0	190.1886088848114	0.09988903999328613
41	127.17406892776489	fix_pre	0		79.0	39.0	2.5	/experiments/knapen_aot/videos/R_S_ILSVRC2015_train_00364000.mp4	0.0	190.2884979248047	0.6582601070404053
41	127.82418894767761	response	0	2		39.0	2.5	/experiments/knapen_aot/videos/R_S_ILSVRC2015_train_00364000.mp4	0.0	190.9386179447174	
41	127.8323290348053	movie	1		301.0	39.0	2.5	/experiments/knapen_aot/videos/R_S_ILSVRC2015_train_00364000.mp4	0.0	190.9467580318451	2.5084428787231445
41	130.34077191352844	fix_post	2		12.0	39.0	2.5	/experiments/knapen_aot/videos/R_S_ILSVRC2015_train_00364000.mp4	0.0	193.45520091056824	0.09995317459106445
42	130.4407250881195	fix_pre	0		86.0	40.0	2.5	/experiments/knapen_aot/videos/S_yt-deiWoIfK6vg_44.mp4	0.0	193.5551540851593	0.7166428565979004
42	131.1491620540619	response	0	2		40.0	2.5	/experiments/knapen_aot/videos/S_yt-deiWoIfK6vg_44.mp4	0.0	194.26359105110168	
42	131.1573679447174	movie	1		301.0	40.0	2.5	/experiments/knapen_aot/videos/S_yt-deiWoIfK6vg_44.mp4	0.0	194.2717969417572	2.508413076400757
42	133.66578102111816	fix_post	2		12.0	40.0	2.5	/experiments/knapen_aot/videos/S_yt-deiWoIfK6vg_44.mp4	0.0	196.78021001815796	0.09995293617248535
43	133.76573395729065	fix_pre	0		94.0	41.0	2.5	/experiments/knapen_aot/videos/R_S_flickr-clarkstonscamp-4863427159_1.mp4	0.0	196.88016295433044	0.783311128616333
43	134.54083490371704	response	0	2		41.0	2.5	/experiments/knapen_aot/videos/R_S_flickr-clarkstonscamp-4863427159_1.mp4	0.0	197.65526390075684	
43	134.54904508590698	movie	1		301.0	41.0	2.5	/experiments/knapen_aot/videos/R_S_flickr-clarkstonscamp-4863427159_1.mp4	0.0	197.66347408294678	2.5084447860717773
43	137.05748987197876	fix_post	2		12.0	41.0	2.5	/experiments/knapen_aot/videos/R_S_flickr-clarkstonscamp-4863427159_1.mp4	0.0	200.17191886901855	0.09983205795288086
44	137.15732192993164	fix_pre	0		72.0	42.0	2.5	blank	1.0	200.27175092697144	0.6001420021057129
44	137.74919199943542	response	0	2		42.0	2.5	blank	1.0	200.86362099647522	
44	137.75746393203735	movie	1		301.0	42.0	2.5	blank	1.0	200.87189292907715	2.508211135864258
44	140.2656750679016	fix_post	2		12.0	42.0	2.5	blank	1.0	203.3801040649414	0.10002493858337402
45	140.36570000648499	fix_pre	0		75.0	43.0	2.5	/experiments/knapen_aot/videos/R_S_yt-d5jBQ-LOW2I_17.mp4	0.0	203.48012900352478	0.6249759197235107
45	140.98244500160217	response	0	2		43.0	2.5	/experiments/knapen_aot/videos/R_S_yt-d5jBQ-LOW2I_17.mp4	0.0	204.09687399864197	
45	140.9906759262085	movie	1		301.0	43.0	2.5	/experiments/knapen_aot/videos/R_S_yt-d5jBQ-LOW2I_17.mp4	0.0	204.1051049232483	2.5083861351013184
45	143.49906206130981	fix_post	2		12.0	43.0	2.5	/experiments/knapen_aot/videos/R_S_yt-d5jBQ-LOW2I_17.mp4	0.0	206.6134910583496	0.09992504119873047
46	143.59898710250854	fix_pre	0		66.0	44.0	2.5	/experiments/knapen_aot/videos/S_yt--C2DDZ7LOQA_95.mp4	0.0	206.71341609954834	0.5505290031433105
46	144.14084005355835	response	0	2		44.0	2.5	/experiments/knapen_aot/videos/S_yt--C2DDZ7LOQA_95.mp4	0.0	207.25526905059814	
46	144.14951610565186	movie	1		301.0	44.0	2.5	/experiments/knapen_aot/videos/S_yt--C2DDZ7LOQA_95.mp4	0.0	207.26394510269165	2.507786989212036
46	146.6573030948639	fix_post	2		12.0	44.0	2.5	/experiments/knapen_aot/videos/S_yt--C2DDZ7LOQA_95.mp4	0.0	209.7717320919037	0.10003185272216797
47	146.75733494758606	fix_pre	0		84.0	45.0	2.5	/experiments/knapen_aot/videos/S_yt-3eQHOLBzOqA_100.mp4	0.0	209.87176394462585	0.6999349594116211
47	147.44907307624817	response	0	2		45.0	2.5	/experiments/knapen_aot/videos/S_yt-3eQHOLBzOqA_100.mp4	0.0	210.56350207328796	
47	147.45726990699768	movie	1		301.0	45.0	2.5	/experiments/knapen_aot/videos/S_yt-3eQHOLBzOqA_100.mp4	0.0	210.57169890403748	2.508392095565796
47	149.96566200256348	fix_post	2		12.0	45.0	2.5	/experiments/knapen_aot/videos/S_yt-3eQHOLBzOqA_100.mp4	0.0	213.08009099960327	0.10004806518554688
48	150.06571006774902	fix_pre	0		72.0	46.0	2.5	/experiments/knapen_aot/videos/R_S_yt--5ls65Ue1RA_52.mp4	0.0	213.18013906478882	0.5998938083648682
48	150.65742301940918	response	0	2		46.0	2.5	/experiments/knapen_aot/videos/R_S_yt--5ls65Ue1RA_52.mp4	0.0	213.77185201644897	
48	150.6656038761139	movie	1		301.0	46.0	2.5	/experiments/knapen_aot/videos/R_S_yt--5ls65Ue1RA_52.mp4	0.0	213.7800328731537	2.5083842277526855
48	153.17398810386658	fix_post	2		12.0	46.0	2.5	/experiments/knapen_aot/videos/R_S_yt--5ls65Ue1RA_52.mp4	0.0	216.28841710090637	0.09991884231567383
49	153.27390694618225	fix_pre	0		70.0	47.0	2.5	/experiments/knapen_aot/videos/S_yt-ILARvS15SDQ_741.mp4	0.0	216.38833594322205	0.5839149951934814
49	153.84912610054016	response	0	2		47.0	2.5	/experiments/knapen_aot/videos/S_yt-ILARvS15SDQ_741.mp4	0.0	216.96355509757996	
49	153.85782194137573	movie	1		301.0	47.0	2.5	/experiments/knapen_aot/videos/S_yt-ILARvS15SDQ_741.mp4	0.0	216.97225093841553	2.507812976837158
49	156.3656349182129	fix_post	2		12.0	47.0	2.5	/experiments/knapen_aot/videos/S_yt-ILARvS15SDQ_741.mp4	0.0	219.48006391525269	0.09995603561401367
50	156.4655909538269	fix_pre	0		86.0	48.0	2.5	/experiments/knapen_aot/videos/S_yt-RO4mhuXBVrY_67.mp4	0.0	219.5800199508667	0.716649055480957
50	157.17407703399658	response	0	2		48.0	2.5	/experiments/knapen_aot/videos/S_yt-RO4mhuXBVrY_67.mp4	0.0	220.28850603103638	
50	157.18224000930786	movie	1		301.0	48.0	2.5	/experiments/knapen_aot/videos/S_yt-RO4mhuXBVrY_67.mp4	0.0	220.29666900634766	2.5083670616149902
50	159.69060707092285	fix_post	2		12.0	48.0	2.5	/experiments/knapen_aot/videos/S_yt-RO4mhuXBVrY_67.mp4	0.0	222.80503606796265	0.1000669002532959
51	159.79067397117615	fix_pre	0		100.0	49.0	2.5	blank	1.0	222.90510296821594	0.8332431316375732
51	160.60814094543457	response	0	2		49.0	2.5	blank	1.0	223.72256994247437	
51	160.62391710281372	movie	1		301.0	49.0	2.5	blank	1.0	223.73834609985352	2.508331775665283
51	163.132248878479	fix_post	2		12.0	49.0	2.5	blank	1.0	226.2466778755188	0.10002517700195312
52	163.23227405548096	fix_pre	0		65.0	50.0	2.5	/experiments/knapen_aot/videos/S_yt-qxtmtMnUfD0_124.mp4	0.0	226.34670305252075	0.5420358180999756
52	163.76575803756714	response	0	2		50.0	2.5	/experiments/knapen_aot/videos/S_yt-qxtmtMnUfD0_124.mp4	0.0	226.88018703460693	
52	163.77430987358093	movie	1		300.0	50.0	2.5	/experiments/knapen_aot/videos/S_yt-qxtmtMnUfD0_124.mp4	0.0	226.88873887062073	2.508108139038086
52	166.28241801261902	fix_post	2		12.0	50.0	2.5	/experiments/knapen_aot/videos/S_yt-qxtmtMnUfD0_124.mp4	0.0	229.3968470096588	0.09978699684143066
53	166.38220500946045	fix_pre	0		86.0	51.0	2.5	/experiments/knapen_aot/videos/S_X-D3lUv-atE_376.mp4	0.0	229.49663400650024	0.7166118621826172
53	167.09069395065308	response	0	2		51.0	2.5	/experiments/knapen_aot/videos/S_X-D3lUv-atE_376.mp4	0.0	230.20512294769287	
53	167.09881687164307	movie	1		301.0	51.0	2.5	/experiments/knapen_aot/videos/S_X-D3lUv-atE_376.mp4	0.0	230.21324586868286	2.5083680152893066
53	169.60718488693237	fix_post	2		12.0	51.0	2.5	/experiments/knapen_aot/videos/S_X-D3lUv-atE_376.mp4	0.0	232.72161388397217	0.09997320175170898
54	169.70715808868408	fix_pre	0		72.0	52.0	2.5	/experiments/knapen_aot/videos/S_ILSVRC2015_train_00569006.mp4	0.0	232.82158708572388	0.6000189781188965
54	170.29896593093872	response	0	2		52.0	2.5	/experiments/knapen_aot/videos/S_ILSVRC2015_train_00569006.mp4	0.0	233.41339492797852	
54	170.30717706680298	movie	1		301.0	52.0	2.5	/experiments/knapen_aot/videos/S_ILSVRC2015_train_00569006.mp4	0.0	233.42160606384277	2.508333921432495
54	172.81551098823547	fix_post	2		12.0	52.0	2.5	/experiments/knapen_aot/videos/S_ILSVRC2015_train_00569006.mp4	0.0	235.92993998527527	0.09996294975280762
55	172.91547393798828	fix_pre	0		88.0	53.0	2.5	/experiments/knapen_aot/videos/R_S_yt-4oT-2eGhmUo_102.mp4	0.0	236.02990293502808	0.7336840629577637
55	173.6331958770752	response	0	2		53.0	2.5	/experiments/knapen_aot/videos/R_S_yt-4oT-2eGhmUo_102.mp4	0.0	236.747624874115	
55	173.64915800094604	movie	1		301.0	53.0	2.5	/experiments/knapen_aot/videos/R_S_yt-4oT-2eGhmUo_102.mp4	0.0	236.76358699798584	2.508043050765991
55	176.15720105171204	fix_post	2		12.0	53.0	2.5	/experiments/knapen_aot/videos/R_S_yt-4oT-2eGhmUo_102.mp4	0.0	239.27163004875183	0.10001492500305176
56	176.2572159767151	fix_pre	0		66.0	54.0	2.5	/experiments/knapen_aot/videos/S_production_ID_4802710.mp4	0.0	239.37164497375488	0.5499310493469238
56	176.79883193969727	response	0	2		54.0	2.5	/experiments/knapen_aot/videos/S_production_ID_4802710.mp4	0.0	239.91326093673706	
56	176.807147026062	movie	1		165.0	54.0	2.5	/experiments/knapen_aot/videos/S_production_ID_4802710.mp4	0.0	239.9215760231018	2.5088000297546387
56	179.31594705581665	fix_post	2		12.0	54.0	2.5	/experiments/knapen_aot/videos/S_production_ID_4802710.mp4	0.0	242.43037605285645	0.09977388381958008
57	179.41572093963623	fix_pre	0		100.0	55.0	2.5	/experiments/knapen_aot/videos/R_S_yt-QqSceHxY3d0_356.mp4	0.0	242.53014993667603	0.8330700397491455
57	180.24062204360962	response	0	2		55.0	2.5	/experiments/knapen_aot/videos/R_S_yt-QqSceHxY3d0_356.mp4	0.0	243.3550510406494	
57	180.24879097938538	movie	1		301.0	55.0	2.5	/experiments/knapen_aot/videos/R_S_yt-QqSceHxY3d0_356.mp4	0.0	243.36321997642517	2.5083460807800293
57	182.7571370601654	fix_post	2		12.0	55.0	2.5	/experiments/knapen_aot/videos/R_S_yt-QqSceHxY3d0_356.mp4	0.0	245.8715660572052	0.09996581077575684
58	182.85710287094116	fix_pre	0		55.0	56.0	2.5	blank	1.0	245.97153186798096	0.4588050842285156
58	183.30719590187073	response	0	2		56.0	2.5	blank	1.0	246.42162489891052	
58	183.31590795516968	movie	1		301.0	56.0	2.5	blank	1.0	246.43033695220947	2.507858991622925
58	185.8237669467926	fix_post	2		12.0	56.0	2.5	blank	1.0	248.9381959438324	0.10001993179321289
59	185.92378687858582	fix_pre	0		68.0	57.0	2.5	/experiments/knapen_aot/videos/R_S_yt-GFcuvjHJmS4_86.mp4	0.0	249.0382158756256	0.5666561126708984
59	186.48224306106567	response	0	2		57.0	2.5	/experiments/knapen_aot/videos/R_S_yt-GFcuvjHJmS4_86.mp4	0.0	249.59667205810547	
59	186.4904429912567	movie	1		301.0	57.0	2.5	/experiments/knapen_aot/videos/R_S_yt-GFcuvjHJmS4_86.mp4	0.0	249.6048719882965	2.50871205329895
59	188.99915504455566	fix_post	2		12.0	57.0	2.5	/experiments/knapen_aot/videos/R_S_yt-GFcuvjHJmS4_86.mp4	0.0	252.11358404159546	0.09958696365356445
60	189.09874200820923	fix_pre	0		69.0	58.0	2.5	/experiments/knapen_aot/videos/S_yt-8vm83GUgYxI_1.mp4	0.0	252.21317100524902	0.5750060081481934
60	189.66552090644836	response	0	2		58.0	2.5	/experiments/knapen_aot/videos/S_yt-8vm83GUgYxI_1.mp4	0.0	252.77994990348816	
60	189.67374801635742	movie	1		301.0	58.0	2.5	/experiments/knapen_aot/videos/S_yt-8vm83GUgYxI_1.mp4	0.0	252.78817701339722	2.5083940029144287
60	192.18214201927185	fix_post	2		12.0	58.0	2.5	/experiments/knapen_aot/videos/S_yt-8vm83GUgYxI_1.mp4	0.0	255.29657101631165	0.09992790222167969
61	192.28206992149353	fix_pre	0		58.0	59.0	2.5	/experiments/knapen_aot/videos/R_S_X-D3lUv-atE_376.mp4	0.0	255.39649891853333	0.4833199977874756
61	192.75721788406372	response	0	2		59.0	2.5	/experiments/knapen_aot/videos/R_S_X-D3lUv-atE_376.mp4	0.0	255.87164688110352	
61	192.765389919281	movie	1		301.0	59.0	2.5	/experiments/knapen_aot/videos/R_S_X-D3lUv-atE_376.mp4	0.0	255.8798189163208	2.508268117904663
61	195.27365803718567	fix_post	2		12.0	59.0	2.5	/experiments/knapen_aot/videos/R_S_X-D3lUv-atE_376.mp4	0.0	258.38808703422546	0.10025906562805176
62	195.37391710281372	fix_pre	0		77.0	60.0	2.5	/experiments/knapen_aot/videos/R_S_yt-BKkZUSowoxg_59.mp4	0.0	258.4883460998535	0.6414527893066406
62	196.00714302062988	response	0	2		60.0	2.5	/experiments/knapen_aot/videos/R_S_yt-BKkZUSowoxg_59.mp4	0.0	259.1215720176697	
62	196.01536989212036	movie	1		301.0	60.0	2.5	/experiments/knapen_aot/videos/R_S_yt-BKkZUSowoxg_59.mp4	0.0	259.12979888916016	2.508329153060913
62	198.52369904518127	fix_post	2		12.0	60.0	2.5	/experiments/knapen_aot/videos/R_S_yt-BKkZUSowoxg_59.mp4	0.0	261.63812804222107	0.10001301765441895
63	198.6237120628357	fix_pre	0		56.0	61.0	2.5	/experiments/knapen_aot/videos/R_S_yt-rIQoRErqnlI_17.mp4	0.0	261.7381410598755	0.46661901473999023
63	199.08222103118896	response	0	2		61.0	2.5	/experiments/knapen_aot/videos/R_S_yt-rIQoRErqnlI_17.mp4	0.0	262.19665002822876	
63	199.09033107757568	movie	1		301.0	61.0	2.5	/experiments/knapen_aot/videos/R_S_yt-rIQoRErqnlI_17.mp4	0.0	262.2047600746155	2.5084259510040283
63	201.5987570285797	fix_post	2		12.0	61.0	2.5	/experiments/knapen_aot/videos/R_S_yt-rIQoRErqnlI_17.mp4	0.0	264.7131860256195	0.09997987747192383
64	201.69873690605164	fix_pre	0		67.0	62.0	2.5	/experiments/knapen_aot/videos/S_bing-www_dailymotion_com_video_x64c56w_164.mp4	0.0	264.81316590309143	0.5583031177520752
64	202.2488570213318	response	0	2		62.0	2.5	/experiments/knapen_aot/videos/S_bing-www_dailymotion_com_video_x64c56w_164.mp4	0.0	265.3632860183716	
64	202.2570400238037	movie	1		164.0	62.0	2.5	/experiments/knapen_aot/videos/S_bing-www_dailymotion_com_video_x64c56w_164.mp4	0.0	265.3714690208435	2.5084309577941895
64	204.7654709815979	fix_post	2		12.0	62.0	2.5	/experiments/knapen_aot/videos/S_bing-www_dailymotion_com_video_x64c56w_164.mp4	0.0	267.8798999786377	0.10000896453857422
65	204.86547994613647	fix_pre	0		82.0	63.0	2.5	blank	1.0	267.97990894317627	0.6832640171051025
65	205.5330090522766	response	0	2		63.0	2.5	blank	1.0	268.6474380493164	
65	205.54874396324158	movie	1		301.0	63.0	2.5	blank	1.0	268.6631729602814	2.5082900524139404
65	208.05703401565552	fix_post	2		12.0	63.0	2.5	blank	1.0	271.1714630126953	0.09998297691345215
66	208.15701699256897	fix_pre	0		95.0	64.0	2.5	/experiments/knapen_aot/videos/R_S_yt-9CY7rDYBYUI_40.mp4	0.0	271.27144598960876	0.7916529178619385
66	208.94051098823547	response	0	2		64.0	2.5	/experiments/knapen_aot/videos/R_S_yt-9CY7rDYBYUI_40.mp4	0.0	272.05493998527527	
66	208.9486699104309	movie	1		301.0	64.0	2.5	/experiments/knapen_aot/videos/R_S_yt-9CY7rDYBYUI_40.mp4	0.0	272.0630989074707	2.5084290504455566
66	211.45709896087646	fix_post	2		12.0	64.0	2.5	/experiments/knapen_aot/videos/R_S_yt-9CY7rDYBYUI_40.mp4	0.0	274.57152795791626	0.09996604919433594
67	211.5570650100708	fix_pre	0		93.0	65.0	2.5	/experiments/knapen_aot/videos/R_S_yt-wLylWnZs3z0_27.mp4	0.0	274.6714940071106	0.7748968601226807
67	212.3238229751587	response	0	2		65.0	2.5	/experiments/knapen_aot/videos/R_S_yt-wLylWnZs3z0_27.mp4	0.0	275.4382519721985	
67	212.33196187019348	movie	1		301.0	65.0	2.5	/experiments/knapen_aot/videos/R_S_yt-wLylWnZs3z0_27.mp4	0.0	275.4463908672333	2.50839900970459
67	214.84036087989807	fix_post	2		12.0	65.0	2.5	/experiments/knapen_aot/videos/R_S_yt-wLylWnZs3z0_27.mp4	0.0	277.95478987693787	0.1003270149230957
68	214.94068789482117	fix_pre	0		62.0	66.0	2.5	/experiments/knapen_aot/videos/R_S_ILSVRC2015_train_00404000.mp4	0.0	278.05511689186096	0.5162901878356934
68	215.44874501228333	response	0	2		66.0	2.5	/experiments/knapen_aot/videos/R_S_ILSVRC2015_train_00404000.mp4	0.0	278.5631740093231	
68	215.45697808265686	movie	1		301.0	66.0	2.5	/experiments/knapen_aot/videos/R_S_ILSVRC2015_train_00404000.mp4	0.0	278.57140707969666	2.5084738731384277
68	217.9654519557953	fix_post	2		12.0	66.0	2.5	/experiments/knapen_aot/videos/R_S_ILSVRC2015_train_00404000.mp4	0.0	281.0798809528351	0.10010099411010742
69	218.0655529499054	fix_pre	0		83.0	67.0	2.5	/experiments/knapen_aot/videos/S_yt-v8e_DlCsP4w_10.mp4	0.0	281.1799819469452	0.6914031505584717
69	218.74877309799194	response	0	2		67.0	2.5	/experiments/knapen_aot/videos/S_yt-v8e_DlCsP4w_10.mp4	0.0	281.86320209503174	
69	218.75695610046387	movie	1		301.0	67.0	2.5	/experiments/knapen_aot/videos/S_yt-v8e_DlCsP4w_10.mp4	0.0	281.87138509750366	2.5084569454193115
69	221.26541304588318	fix_post	2		12.0	67.0	2.5	/experiments/knapen_aot/videos/S_yt-v8e_DlCsP4w_10.mp4	0.0	284.379842042923	0.09994792938232422
70	221.3653609752655	fix_pre	0		109.0	68.0	2.5	/experiments/knapen_aot/videos/S_yt-rafmq6Ydoc8_15.mp4	0.0	284.4797899723053	0.9085299968719482
70	222.2654049396515	response	0	2		68.0	2.5	/experiments/knapen_aot/videos/S_yt-rafmq6Ydoc8_15.mp4	0.0	285.3798339366913	
70	222.27389097213745	movie	1		301.0	68.0	2.5	/experiments/knapen_aot/videos/S_yt-rafmq6Ydoc8_15.mp4	0.0	285.38831996917725	2.5081560611724854
70	224.78204703330994	fix_post	2		12.0	68.0	2.5	/experiments/knapen_aot/videos/S_yt-rafmq6Ydoc8_15.mp4	0.0	287.89647603034973	0.099884033203125
71	224.88193106651306	fix_pre	0		76.0	69.0	2.5	/experiments/knapen_aot/videos/R_S_yt-zKnjBBYWe90_369.mp4	0.0	287.99636006355286	0.633342981338501
71	225.50712394714355	response	0	2		69.0	2.5	/experiments/knapen_aot/videos/R_S_yt-zKnjBBYWe90_369.mp4	0.0	288.62155294418335	
71	225.51527404785156	movie	1		301.0	69.0	2.5	/experiments/knapen_aot/videos/R_S_yt-zKnjBBYWe90_369.mp4	0.0	288.62970304489136	2.5089399814605713
71	228.02421402931213	fix_post	2		12.0	69.0	2.5	/experiments/knapen_aot/videos/R_S_yt-zKnjBBYWe90_369.mp4	0.0	291.13864302635193	0.09937500953674316
72	228.12358903884888	fix_pre	0		76.0	70.0	2.5	blank	1.0	291.2380180358887	0.6333699226379395
72	228.74876809120178	response	0	2		70.0	2.5	blank	1.0	291.8631970882416	
72	228.75695896148682	movie	1		301.0	70.0	2.5	blank	1.0	291.8713879585266	2.5082709789276123
72	231.26522994041443	fix_post	2		12.0	70.0	2.5	blank	1.0	294.3796589374542	0.09999895095825195
73	231.36522889137268	fix_pre	0		71.0	71.0	2.5	/experiments/knapen_aot/videos/S_yt--koo4FOfZE0_86.mp4	0.0	294.4796578884125	0.5916240215301514
73	231.94868803024292	response	0	2		71.0	2.5	/experiments/knapen_aot/videos/S_yt--koo4FOfZE0_86.mp4	0.0	295.0631170272827	
73	231.95685291290283	movie	1		301.0	71.0	2.5	/experiments/knapen_aot/videos/S_yt--koo4FOfZE0_86.mp4	0.0	295.0712819099426	2.5083720684051514
73	234.46522498130798	fix_post	2		12.0	71.0	2.5	/experiments/knapen_aot/videos/S_yt--koo4FOfZE0_86.mp4	0.0	297.5796539783478	0.10014796257019043
74	234.56537294387817	fix_pre	0		93.0	72.0	2.5	/experiments/knapen_aot/videos/S_Y011_C008_SDR_2K_AVC.mp4	0.0	297.67980194091797	0.7748501300811768
74	235.3319799900055	response	0	2		72.0	2.5	/experiments/knapen_aot/videos/S_Y011_C008_SDR_2K_AVC.mp4	0.0	298.4464089870453	
74	235.34022307395935	movie	1		172.0	72.0	2.5	/experiments/knapen_aot/videos/S_Y011_C008_SDR_2K_AVC.mp4	0.0	298.45465207099915	2.508396863937378
74	237.84861993789673	fix_post	2		12.0	72.0	2.5	/experiments/knapen_aot/videos/S_Y011_C008_SDR_2K_AVC.mp4	0.0	300.9630489349365	0.09991598129272461
75	237.94853591918945	fix_pre	0		100.0	73.0	2.5	/experiments/knapen_aot/videos/R_S_yt-XbNHfZjXuVM_43.mp4	0.0	301.06296491622925	0.8332691192626953
75	238.77361702919006	response	0	2		73.0	2.5	/experiments/knapen_aot/videos/R_S_yt-XbNHfZjXuVM_43.mp4	0.0	301.88804602622986	
75	238.78180503845215	movie	1		301.0	73.0	2.5	/experiments/knapen_aot/videos/R_S_yt-XbNHfZjXuVM_43.mp4	0.0	301.89623403549194	2.5083818435668945
75	241.29018688201904	fix_post	2		12.0	73.0	2.5	/experiments/knapen_aot/videos/R_S_yt-XbNHfZjXuVM_43.mp4	0.0	304.40461587905884	0.10010099411010742
76	241.39028787612915	fix_pre	0		117.0	74.0	2.5	/experiments/knapen_aot/videos/R_S_yt-H2ce6U0SbVA_542.mp4	0.0	304.50471687316895	0.9749000072479248
76	242.3570098876953	response	0	2		74.0	2.5	/experiments/knapen_aot/videos/R_S_yt-H2ce6U0SbVA_542.mp4	0.0	305.4714388847351	
76	242.36518788337708	movie	1		301.0	74.0	2.5	/experiments/knapen_aot/videos/R_S_yt-H2ce6U0SbVA_542.mp4	0.0	305.47961688041687	2.508392095565796
76	244.87357997894287	fix_post	2		12.0	74.0	2.5	/experiments/knapen_aot/videos/R_S_yt-H2ce6U0SbVA_542.mp4	0.0	307.98800897598267	0.09996604919433594
77	244.9735460281372	fix_pre	0		97.0	75.0	2.5	/experiments/knapen_aot/videos/S_yt-Ryb0K9lGPrg_5.mp4	0.0	308.087975025177	0.8083040714263916
77	245.77366304397583	response	0	2		75.0	2.5	/experiments/knapen_aot/videos/S_yt-Ryb0K9lGPrg_5.mp4	0.0	308.8880920410156	
77	245.7818500995636	movie	1		301.0	75.0	2.5	/experiments/knapen_aot/videos/S_yt-Ryb0K9lGPrg_5.mp4	0.0	308.8962790966034	2.5083119869232178
77	248.29016208648682	fix_post	2		12.0	75.0	2.5	/experiments/knapen_aot/videos/S_yt-Ryb0K9lGPrg_5.mp4	0.0	311.4045910835266	0.10022783279418945
78	248.390389919281	fix_pre	0		78.0	76.0	2.5	blank	1.0	311.5048189163208	0.6497039794921875
78	249.0319139957428	response	0	2		76.0	2.5	blank	1.0	312.1463429927826	
78	249.0400938987732	movie	1		301.0	76.0	2.5	blank	1.0	312.154522895813	2.5084140300750732
78	251.54850792884827	fix_post	2		12.0	76.0	2.5	blank	1.0	314.66293692588806	0.10008406639099121
79	251.64859199523926	fix_pre	0		89.0	77.0	2.5	/experiments/knapen_aot/videos/R_S_yt-GyMWMiWvuiA_237.mp4	0.0	314.76302099227905	0.7429559230804443
79	252.38195300102234	response	0	2		77.0	2.5	/experiments/knapen_aot/videos/R_S_yt-GyMWMiWvuiA_237.mp4	0.0	315.49638199806213	
79	252.3915479183197	movie	1		301.0	77.0	2.5	/experiments/knapen_aot/videos/R_S_yt-GyMWMiWvuiA_237.mp4	0.0	315.5059769153595	2.5069420337677
79	254.8984899520874	fix_post	2		12.0	77.0	2.5	/experiments/knapen_aot/videos/R_S_yt-GyMWMiWvuiA_237.mp4	0.0	318.0129189491272	0.09996199607849121
80	254.9984519481659	fix_pre	0		124.0	78.0	2.5	/experiments/knapen_aot/videos/R_S_yt-qsyDLtXcyHc_8.mp4	0.0	318.1128809452057	1.0332541465759277
80	256.02360796928406	response	0	2		78.0	2.5	/experiments/knapen_aot/videos/R_S_yt-qsyDLtXcyHc_8.mp4	0.0	319.13803696632385	
80	256.0317060947418	movie	1		301.0	78.0	2.5	/experiments/knapen_aot/videos/R_S_yt-qsyDLtXcyHc_8.mp4	0.0	319.1461350917816	2.5084519386291504
80	258.540158033371	fix_post	2		12.0	78.0	2.5	/experiments/knapen_aot/videos/R_S_yt-qsyDLtXcyHc_8.mp4	0.0	321.65458703041077	0.10018396377563477
81	258.6403419971466	fix_pre	0		83.0	79.0	2.5	/experiments/knapen_aot/videos/S_yt-tEzCpMrjOHs_24.mp4	0.0	321.7547709941864	0.6914069652557373
81	259.3235890865326	response	0	2		79.0	2.5	/experiments/knapen_aot/videos/S_yt-tEzCpMrjOHs_24.mp4	0.0	322.4380180835724	
81	259.33174896240234	movie	1		301.0	79.0	2.5	/experiments/knapen_aot/videos/S_yt-tEzCpMrjOHs_24.mp4	0.0	322.44617795944214	2.5083351135253906
81	261.84008407592773	fix_post	2		12.0	79.0	2.5	/experiments/knapen_aot/videos/S_yt-tEzCpMrjOHs_24.mp4	0.0	324.95451307296753	0.10001301765441895
82	261.94009709358215	fix_pre	0		178.0	80.0	2.5	/experiments/knapen_aot/videos/S_yt-DWsFRl5bXs8_23.mp4	0.0	325.05452609062195	1.4833028316497803
82	263.4077250957489	response	0	2		80.0	2.5	/experiments/knapen_aot/videos/S_yt-DWsFRl5bXs8_23.mp4	0.0	326.5221540927887	
82	263.42339992523193	movie	1		301.0	80.0	2.5	/experiments/knapen_aot/videos/S_yt-DWsFRl5bXs8_23.mp4	0.0	326.53782892227173	2.508350133895874
82	265.9317500591278	fix_post	2		12.0	80.0	2.5	/experiments/knapen_aot/videos/S_yt-DWsFRl5bXs8_23.mp4	0.0	329.0461790561676	0.10005998611450195
83	266.0318100452423	fix_pre	0		69.0	81.0	2.5	/experiments/knapen_aot/videos/S_comp_C001_C005_PS_v01_SDR_PS_20180925_SDR_2K_AVC.mp4	0.0	329.1462390422821	0.5749258995056152
83	266.5985460281372	response	0	2		81.0	2.5	/experiments/knapen_aot/videos/S_comp_C001_C005_PS_v01_SDR_PS_20180925_SDR_2K_AVC.mp4	0.0	329.712975025177	
83	266.6067359447479	movie	1		168.0	81.0	2.5	/experiments/knapen_aot/videos/S_comp_C001_C005_PS_v01_SDR_PS_20180925_SDR_2K_AVC.mp4	0.0	329.7211649417877	2.508362054824829
83	269.11509799957275	fix_post	2		12.0	81.0	2.5	/experiments/knapen_aot/videos/S_comp_C001_C005_PS_v01_SDR_PS_20180925_SDR_2K_AVC.mp4	0.0	332.22952699661255	0.10003209114074707
84	269.2151300907135	fix_pre	0		58.0	82.0	2.5	/experiments/knapen_aot/videos/S_yt-0xzYSBvVfYM_197.mp4	0.0	332.3295590877533	0.48326778411865234
84	269.6902449131012	response	0	2		82.0	2.5	/experiments/knapen_aot/videos/S_yt-0xzYSBvVfYM_197.mp4	0.0	332.804673910141	
84	269.69839787483215	movie	1		301.0	82.0	2.5	/experiments/knapen_aot/videos/S_yt-0xzYSBvVfYM_197.mp4	0.0	332.81282687187195	2.5083680152893066
84	272.20676589012146	fix_post	2		12.0	82.0	2.5	/experiments/knapen_aot/videos/S_yt-0xzYSBvVfYM_197.mp4	0.0	335.32119488716125	0.09993314743041992
85	272.3066990375519	fix_pre	0		98.0	83.0	2.5	blank	1.0	335.4211280345917	0.8167219161987305
85	273.11525106430054	response	0	2		83.0	2.5	blank	1.0	336.22968006134033	
85	273.1234209537506	movie	1		301.0	83.0	2.5	blank	1.0	336.2378499507904	2.5085160732269287
85	275.63193702697754	fix_post	2		12.0	83.0	2.5	blank	1.0	338.74636602401733	0.09977102279663086
87	275.73170804977417	stim	0		403.0					338.84613704681396	3.360992908477783
87	279.08528304100037	response	0	space						342.19971203804016	
