trial_nr	onset	event_type	phase	response	nr_frames	movie_index	movie_duration	movie_file	blank	onset_abs	duration
0	0.13193297386169434	stim	0		601.0					204.74173879623413	5.006592035293579
0	0.8962781429290771	response	0	c						205.5060839653015	
0	1.7875661849975586	response	0	c						206.39737200737	
0	2.695919990539551	response	0	c						207.305725812912	
0	4.095808029174805	response	0	return						208.70561385154724	
0	5.12192702293396	response	0	space						209.7317328453064	
1	5.138525009155273	stim	0		121.0					209.7483308315277	1.0072510242462158
1	6.145776033401489	stim	1		120.0					210.75558185577393	0.9999849796295166
2	7.145761013031006	fix_pre	0		223.0	0.0	2.5	/experiments/knapen_aot/videos/R_S_yt-316ecr1BT84_44.mp4	0.0	211.75556683540344	1.8583359718322754
2	8.995930194854736	response	0	space		0.0	2.5	/experiments/knapen_aot/videos/R_S_yt-316ecr1BT84_44.mp4	0.0	213.60573601722717	
2	9.004096984863281	movie	1		301.0	0.0	2.5	/experiments/knapen_aot/videos/R_S_yt-316ecr1BT84_44.mp4	0.0	213.61390280723572	2.5083281993865967
2	11.512425184249878	fix_post	2		12.0	0.0	2.5	/experiments/knapen_aot/videos/R_S_yt-316ecr1BT84_44.mp4	0.0	216.12223100662231	0.09997081756591797
2	11.55919098854065	response	2	2		0.0	2.5	/experiments/knapen_aot/videos/R_S_yt-316ecr1BT84_44.mp4	0.0	216.1689968109131	
3	11.612396001815796	fix_pre	0		40.0	1.0	2.5	/experiments/knapen_aot/videos/S_yt-4-u4Fw_J_q8_45.mp4	0.0	216.22220182418823	0.33327412605285645
3	11.930031061172485	response	0	2		1.0	2.5	/experiments/knapen_aot/videos/S_yt-4-u4Fw_J_q8_45.mp4	0.0	216.53983688354492	
3	11.945670127868652	movie	1		301.0	1.0	2.5	/experiments/knapen_aot/videos/S_yt-4-u4Fw_J_q8_45.mp4	0.0	216.5554759502411	2.5083730220794678
3	14.45404314994812	fix_post	2		12.0	1.0	2.5	/experiments/knapen_aot/videos/S_yt-4-u4Fw_J_q8_45.mp4	0.0	219.06384897232056	0.10000205039978027
4	14.5540452003479	fix_pre	0		1.0	2.0	2.5	/experiments/knapen_aot/videos/R_S_yt-8N5UuN5WQcY_72.mp4	0.0	219.16385102272034	0.008342981338500977
4	14.555657148361206	response	0	2		2.0	2.5	/experiments/knapen_aot/videos/R_S_yt-8N5UuN5WQcY_72.mp4	0.0	219.16546297073364	
4	14.562388181686401	movie	1		301.0	2.0	2.5	/experiments/knapen_aot/videos/R_S_yt-8N5UuN5WQcY_72.mp4	0.0	219.17219400405884	2.508328914642334
4	17.070717096328735	fix_post	2		12.0	2.0	2.5	/experiments/knapen_aot/videos/R_S_yt-8N5UuN5WQcY_72.mp4	0.0	221.68052291870117	0.1000220775604248
5	17.17073917388916	fix_pre	0		4.0	3.0	2.5	/experiments/knapen_aot/videos/S_yt-XBAU3cq0rZs_150.mp4	0.0	221.7805449962616	0.033262014389038086
5	17.195873975753784	response	0	2		3.0	2.5	/experiments/knapen_aot/videos/S_yt-XBAU3cq0rZs_150.mp4	0.0	221.80567979812622	
5	17.2040011882782	movie	1		298.0	3.0	2.5	/experiments/knapen_aot/videos/S_yt-XBAU3cq0rZs_150.mp4	0.0	221.81380701065063	2.5082249641418457
5	19.712226152420044	fix_post	2		12.0	3.0	2.5	/experiments/knapen_aot/videos/S_yt-XBAU3cq0rZs_150.mp4	0.0	224.32203197479248	0.10004782676696777
6	19.81227397918701	fix_pre	0		4.0	4.0	2.5	/experiments/knapen_aot/videos/R_S_yt--koo4FOfZE0_86.mp4	0.0	224.42207980155945	0.034464120864868164
6	19.837450981140137	response	0	2		4.0	2.5	/experiments/knapen_aot/videos/R_S_yt--koo4FOfZE0_86.mp4	0.0	224.44725680351257	
6	19.84673810005188	movie	1		301.0	4.0	2.5	/experiments/knapen_aot/videos/R_S_yt--koo4FOfZE0_86.mp4	0.0	224.45654392242432	2.5073020458221436
6	22.354040145874023	fix_post	2		12.0	4.0	2.5	/experiments/knapen_aot/videos/R_S_yt--koo4FOfZE0_86.mp4	0.0	226.96384596824646	0.09996891021728516
7	22.45400905609131	fix_pre	0		5.0	5.0	2.5	blank	1.0	227.06381487846375	0.04166603088378906
7	22.4875271320343	response	0	2		5.0	2.5	blank	1.0	227.09733295440674	
7	22.495675086975098	movie	1		301.0	5.0	2.5	blank	1.0	227.10548090934753	2.50832200050354
7	24.02912402153015	response	1	2		5.0	2.5	blank	1.0	228.6389298439026	
7	25.003997087478638	fix_post	2		12.0	5.0	2.5	blank	1.0	229.61380290985107	0.10000300407409668
8	25.104000091552734	fix_pre	0		18.0	6.0	2.5	/experiments/knapen_aot/videos/R_S_pexels-mikhail-nilov-8410088.mp4	0.0	229.71380591392517	0.1499791145324707
8	25.24574899673462	response	0	2		6.0	2.5	/experiments/knapen_aot/videos/R_S_pexels-mikhail-nilov-8410088.mp4	0.0	229.85555481910706	
8	25.253979206085205	movie	1		165.0	6.0	2.5	/experiments/knapen_aot/videos/R_S_pexels-mikhail-nilov-8410088.mp4	0.0	229.86378502845764	2.508333921432495
8	27.7623131275177	fix_post	2		12.0	6.0	2.5	/experiments/knapen_aot/videos/R_S_pexels-mikhail-nilov-8410088.mp4	0.0	232.37211894989014	0.09994792938232422
9	27.862261056900024	fix_pre	0		10.0	7.0	2.5	/experiments/knapen_aot/videos/S_yt-K_gHa2x2OQA_319.mp4	0.0	232.47206687927246	0.0833120346069336
9	27.929912090301514	response	0	2		7.0	2.5	/experiments/knapen_aot/videos/S_yt-K_gHa2x2OQA_319.mp4	0.0	232.53971791267395	
9	27.945573091506958	movie	1		301.0	7.0	2.5	/experiments/knapen_aot/videos/S_yt-K_gHa2x2OQA_319.mp4	0.0	232.5553789138794	2.508452892303467
9	29.923171043395996	response	1	2		7.0	2.5	/experiments/knapen_aot/videos/S_yt-K_gHa2x2OQA_319.mp4	0.0	234.53297686576843	
9	30.454025983810425	fix_post	2		12.0	7.0	2.5	/experiments/knapen_aot/videos/S_yt-K_gHa2x2OQA_319.mp4	0.0	235.06383180618286	0.0999760627746582
10	30.554002046585083	fix_pre	0		6.0	8.0	2.5	/experiments/knapen_aot/videos/S_ILSVRC2015_train_00572000.mp4	0.0	235.16380786895752	0.050115108489990234
10	30.58904218673706	response	0	2		8.0	2.5	/experiments/knapen_aot/videos/S_ILSVRC2015_train_00572000.mp4	0.0	235.1988480091095	
10	30.604117155075073	movie	1		301.0	8.0	2.5	/experiments/knapen_aot/videos/S_ILSVRC2015_train_00572000.mp4	0.0	235.2139229774475	2.5081968307495117
10	33.112313985824585	fix_post	2		12.0	8.0	2.5	/experiments/knapen_aot/videos/S_ILSVRC2015_train_00572000.mp4	0.0	237.72211980819702	0.09998011589050293
11	33.21229410171509	fix_pre	0		11.0	9.0	2.5	/experiments/knapen_aot/videos/S_yt-xgqx7tH92-c_6.mp4	0.0	237.82209992408752	0.0925590991973877
11	33.29578399658203	response	0	2		9.0	2.5	/experiments/knapen_aot/videos/S_yt-xgqx7tH92-c_6.mp4	0.0	237.90558981895447	
11	33.304853200912476	movie	1		301.0	9.0	2.5	/experiments/knapen_aot/videos/S_yt-xgqx7tH92-c_6.mp4	0.0	237.9146590232849	2.5074658393859863
11	35.81231904029846	fix_post	2		12.0	9.0	2.5	/experiments/knapen_aot/videos/S_yt-xgqx7tH92-c_6.mp4	0.0	240.4221248626709	0.09997105598449707
12	35.91229009628296	fix_pre	0		104.0	10.0	2.5	/experiments/knapen_aot/videos/R_S_yt-Xegmd8whqBs_230.mp4	0.0	240.5220959186554	0.8666760921478271
12	36.77077913284302	response	0	2		10.0	2.5	/experiments/knapen_aot/videos/R_S_yt-Xegmd8whqBs_230.mp4	0.0	241.38058495521545	
12	36.778966188430786	movie	1		299.0	10.0	2.5	/experiments/knapen_aot/videos/R_S_yt-Xegmd8whqBs_230.mp4	0.0	241.38877201080322	2.5083179473876953
12	39.28728413581848	fix_post	2		12.0	10.0	2.5	/experiments/knapen_aot/videos/R_S_yt-Xegmd8whqBs_230.mp4	0.0	243.89708995819092	0.0999748706817627
13	39.387259006500244	fix_pre	0		8.0	11.0	2.5	/experiments/knapen_aot/videos/S_ILSVRC2015_train_00594001.mp4	0.0	243.99706482887268	0.06667804718017578
13	39.4457311630249	response	0	2		11.0	2.5	/experiments/knapen_aot/videos/S_ILSVRC2015_train_00594001.mp4	0.0	244.05553698539734	
13	39.45393705368042	movie	1		301.0	11.0	2.5	/experiments/knapen_aot/videos/S_ILSVRC2015_train_00594001.mp4	0.0	244.06374287605286	2.508312940597534
13	41.962249994277954	fix_post	2		12.0	11.0	2.5	/experiments/knapen_aot/videos/S_ILSVRC2015_train_00594001.mp4	0.0	246.5720558166504	0.10001516342163086
14	42.062265157699585	fix_pre	0		36.0	12.0	2.5	/experiments/knapen_aot/videos/S_yt-hHdxZ26SImA_17.mp4	0.0	246.67207098007202	0.2999718189239502
14	42.35406517982483	response	0	2		12.0	2.5	/experiments/knapen_aot/videos/S_yt-hHdxZ26SImA_17.mp4	0.0	246.96387100219727	
14	42.362236976623535	movie	1		301.0	12.0	2.5	/experiments/knapen_aot/videos/S_yt-hHdxZ26SImA_17.mp4	0.0	246.97204279899597	2.5083401203155518
14	44.87057709693909	fix_post	2		12.0	12.0	2.5	/experiments/knapen_aot/videos/S_yt-hHdxZ26SImA_17.mp4	0.0	249.48038291931152	0.10004901885986328
15	44.97062611579895	fix_pre	0		23.0	13.0	2.5	/experiments/knapen_aot/videos/R_S_yt-ZwnliF0525U_95.mp4	0.0	249.5804319381714	0.19150900840759277
15	45.15399408340454	response	0	2		13.0	2.5	/experiments/knapen_aot/videos/R_S_yt-ZwnliF0525U_95.mp4	0.0	249.76379990577698	
15	45.16213512420654	movie	1		301.0	13.0	2.5	/experiments/knapen_aot/videos/R_S_yt-ZwnliF0525U_95.mp4	0.0	249.77194094657898	2.50833797454834
15	47.67047309875488	fix_post	2		12.0	13.0	2.5	/experiments/knapen_aot/videos/R_S_yt-ZwnliF0525U_95.mp4	0.0	252.28027892112732	0.10005593299865723
16	47.77052903175354	fix_pre	0		12.0	14.0	2.5	blank	1.0	252.38033485412598	0.12496709823608398
16	47.887269020080566	response	0	2		14.0	2.5	blank	1.0	252.497074842453	
16	47.895496129989624	movie	1		301.0	14.0	2.5	blank	1.0	252.50530195236206	2.508370876312256
16	50.40386700630188	fix_post	2		12.0	14.0	2.5	blank	1.0	255.01367282867432	0.10001897811889648
17	50.503885984420776	fix_pre	0		18.0	15.0	2.5	/experiments/knapen_aot/videos/R_S_yt-fnE8kgUHUMI_64.mp4	0.0	255.1136918067932	0.14995217323303223
17	50.63799214363098	response	0	2		15.0	2.5	/experiments/knapen_aot/videos/R_S_yt-fnE8kgUHUMI_64.mp4	0.0	255.24779796600342	
17	50.65383815765381	movie	1		301.0	15.0	2.5	/experiments/knapen_aot/videos/R_S_yt-fnE8kgUHUMI_64.mp4	0.0	255.26364398002625	2.5084128379821777
17	53.162250995635986	fix_post	2		12.0	15.0	2.5	/experiments/knapen_aot/videos/R_S_yt-fnE8kgUHUMI_64.mp4	0.0	257.7720568180084	0.09987211227416992
18	53.262123107910156	fix_pre	0		70.0	16.0	2.5	/experiments/knapen_aot/videos/S_video-9.mp4	0.0	257.8719289302826	0.5841829776763916
18	53.83733010292053	response	0	2		16.0	2.5	/experiments/knapen_aot/videos/S_video-9.mp4	0.0	258.44713592529297	
18	53.84630608558655	movie	1		196.0	16.0	2.5	/experiments/knapen_aot/videos/S_video-9.mp4	0.0	258.456111907959	2.507528066635132
18	56.35383415222168	fix_post	2		12.0	16.0	2.5	/experiments/knapen_aot/videos/S_video-9.mp4	0.0	260.9636399745941	0.0999908447265625
19	56.45382499694824	fix_pre	0		19.0	17.0	2.5	/experiments/knapen_aot/videos/R_S_pexels-koolshooters-7327401.mp4	0.0	261.0636308193207	0.15830612182617188
19	56.60413312911987	response	0	2		17.0	2.5	/experiments/knapen_aot/videos/R_S_pexels-koolshooters-7327401.mp4	0.0	261.2139389514923	
19	56.612131118774414	movie	1		164.0	17.0	2.5	/experiments/knapen_aot/videos/R_S_pexels-koolshooters-7327401.mp4	0.0	261.22193694114685	2.508344888687134
19	59.12047600746155	fix_post	2		12.0	17.0	2.5	/experiments/knapen_aot/videos/R_S_pexels-koolshooters-7327401.mp4	0.0	263.730281829834	0.10002303123474121
20	59.22049903869629	fix_pre	0		18.0	18.0	2.5	/experiments/knapen_aot/videos/S_yt-4rwBpRuHg-c_1308.mp4	0.0	263.8303048610687	0.15000295639038086
20	59.36229109764099	response	0	2		18.0	2.5	/experiments/knapen_aot/videos/S_yt-4rwBpRuHg-c_1308.mp4	0.0	263.9720969200134	
20	59.37050199508667	movie	1		301.0	18.0	2.5	/experiments/knapen_aot/videos/S_yt-4rwBpRuHg-c_1308.mp4	0.0	263.9803078174591	2.5082831382751465
20	61.878785133361816	fix_post	2		12.0	18.0	2.5	/experiments/knapen_aot/videos/S_yt-4rwBpRuHg-c_1308.mp4	0.0	266.48859095573425	0.10004091262817383
21	61.97882604598999	fix_pre	0		24.0	19.0	2.5	/experiments/knapen_aot/videos/S_yt-HQQws1Lp_rQ_10.mp4	0.0	266.5886318683624	0.20078015327453613
21	62.17061400413513	response	0	2		19.0	2.5	/experiments/knapen_aot/videos/S_yt-HQQws1Lp_rQ_10.mp4	0.0	266.78041982650757	
21	62.179606199264526	movie	1		301.0	19.0	2.5	/experiments/knapen_aot/videos/S_yt-HQQws1Lp_rQ_10.mp4	0.0	266.78941202163696	2.507542848587036
21	64.68714904785156	fix_post	2		12.0	19.0	2.5	/experiments/knapen_aot/videos/S_yt-HQQws1Lp_rQ_10.mp4	0.0	269.296954870224	0.09992504119873047
22	64.7870740890503	fix_pre	0		36.0	20.0	2.5	blank	1.0	269.39687991142273	0.3000040054321289
22	65.07885503768921	response	0	2		20.0	2.5	blank	1.0	269.68866086006165	
22	65.08707809448242	movie	1		301.0	20.0	2.5	blank	1.0	269.69688391685486	2.50838303565979
22	67.59546113014221	fix_post	2		12.0	20.0	2.5	blank	1.0	272.20526695251465	0.10000491142272949
23	67.69546604156494	fix_pre	0		31.0	21.0	2.5	/experiments/knapen_aot/videos/S_yt-5doJmCcFL7s_3.mp4	0.0	272.3052718639374	0.25824713706970215
23	67.94556498527527	response	0	2		21.0	2.5	/experiments/knapen_aot/videos/S_yt-5doJmCcFL7s_3.mp4	0.0	272.5553708076477	
23	67.95371317863464	movie	1		301.0	21.0	2.5	/experiments/knapen_aot/videos/S_yt-5doJmCcFL7s_3.mp4	0.0	272.5635190010071	2.5082929134368896
23	70.46200609207153	fix_post	2		12.0	21.0	2.5	/experiments/knapen_aot/videos/S_yt-5doJmCcFL7s_3.mp4	0.0	275.07181191444397	0.10006999969482422
24	70.56207609176636	fix_pre	0		22.0	22.0	2.5	/experiments/knapen_aot/videos/S_yt-oVS_k_9upmo_205.mp4	0.0	275.1718819141388	0.183319091796875
24	70.73717713356018	response	0	2		22.0	2.5	/experiments/knapen_aot/videos/S_yt-oVS_k_9upmo_205.mp4	0.0	275.3469829559326	
24	70.74539518356323	movie	1		301.0	22.0	2.5	/experiments/knapen_aot/videos/S_yt-oVS_k_9upmo_205.mp4	0.0	275.35520100593567	2.5083799362182617
24	73.2537751197815	fix_post	2		12.0	22.0	2.5	/experiments/knapen_aot/videos/S_yt-oVS_k_9upmo_205.mp4	0.0	277.86358094215393	0.09996294975280762
25	73.3537380695343	fix_pre	0		16.0	23.0	2.5	/experiments/knapen_aot/videos/R_S_yt-bWXohhodbjg_98.mp4	0.0	277.96354389190674	0.13329505920410156
25	73.47887206077576	response	0	2		23.0	2.5	/experiments/knapen_aot/videos/R_S_yt-bWXohhodbjg_98.mp4	0.0	278.0886778831482	
25	73.4870331287384	movie	1		299.0	23.0	2.5	/experiments/knapen_aot/videos/R_S_yt-bWXohhodbjg_98.mp4	0.0	278.09683895111084	2.508427858352661
25	75.99546098709106	fix_post	2		12.0	23.0	2.5	/experiments/knapen_aot/videos/R_S_yt-bWXohhodbjg_98.mp4	0.0	280.6052668094635	0.10010814666748047
26	76.09556913375854	fix_pre	0		3.0	24.0	2.5	/experiments/knapen_aot/videos/R_S_comp_L010_C006_PS_v01_SDR_PS_20180925_SDR_2K_AVC.mp4	0.0	280.705374956131	0.024884939193725586
26	76.11231899261475	response	0	2		24.0	2.5	/experiments/knapen_aot/videos/R_S_comp_L010_C006_PS_v01_SDR_PS_20180925_SDR_2K_AVC.mp4	0.0	280.7221248149872	
26	76.12045407295227	movie	1		166.0	24.0	2.5	/experiments/knapen_aot/videos/R_S_comp_L010_C006_PS_v01_SDR_PS_20180925_SDR_2K_AVC.mp4	0.0	280.7302598953247	2.508350133895874
26	78.62880420684814	fix_post	2		12.0	24.0	2.5	/experiments/knapen_aot/videos/R_S_comp_L010_C006_PS_v01_SDR_PS_20180925_SDR_2K_AVC.mp4	0.0	283.2386100292206	0.10000395774841309
27	78.72880816459656	fix_pre	0		12.0	25.0	2.5	/experiments/knapen_aot/videos/S_comp_C003_C003_PS_v01_SDR_PS_20180925_SDR_2K_AVC.mp4	0.0	283.338613986969	0.1000509262084961
27	78.82056307792664	response	0	2		25.0	2.5	/experiments/knapen_aot/videos/S_comp_C003_C003_PS_v01_SDR_PS_20180925_SDR_2K_AVC.mp4	0.0	283.4303689002991	
27	78.82885909080505	movie	1		161.0	25.0	2.5	/experiments/knapen_aot/videos/S_comp_C003_C003_PS_v01_SDR_PS_20180925_SDR_2K_AVC.mp4	0.0	283.4386649131775	2.5082459449768066
27	81.33710503578186	fix_post	2		12.0	25.0	2.5	/experiments/knapen_aot/videos/S_comp_C003_C003_PS_v01_SDR_PS_20180925_SDR_2K_AVC.mp4	0.0	285.9469108581543	0.10002708435058594
28	81.43713212013245	fix_pre	0		6.0	26.0	2.5	/experiments/knapen_aot/videos/R_S_ILSVRC2015_train_00743005.mp4	0.0	286.0469379425049	0.04999899864196777
28	81.47888112068176	response	0	2		26.0	2.5	/experiments/knapen_aot/videos/R_S_ILSVRC2015_train_00743005.mp4	0.0	286.0886869430542	
28	81.48713111877441	movie	1		301.0	26.0	2.5	/experiments/knapen_aot/videos/R_S_ILSVRC2015_train_00743005.mp4	0.0	286.09693694114685	2.50832200050354
28	83.99545311927795	fix_post	2		12.0	26.0	2.5	/experiments/knapen_aot/videos/R_S_ILSVRC2015_train_00743005.mp4	0.0	288.6052589416504	0.09998893737792969
29	84.09544205665588	fix_pre	0		57.0	27.0	2.5	blank	1.0	288.7052478790283	0.4749910831451416
29	84.5622181892395	response	0	2		27.0	2.5	blank	1.0	289.17202401161194	
29	84.57043313980103	movie	1		301.0	27.0	2.5	blank	1.0	289.18023896217346	2.5083439350128174
29	87.07877707481384	fix_post	2		12.0	27.0	2.5	blank	1.0	291.6885828971863	0.0999760627746582
30	87.1787531375885	fix_pre	0		30.0	28.0	2.5	/experiments/knapen_aot/videos/S_production_ID_3923518.mp4	0.0	291.78855895996094	0.2506840229034424
30	87.42051815986633	response	0	2		28.0	2.5	/experiments/knapen_aot/videos/S_production_ID_3923518.mp4	0.0	292.03032398223877	
30	87.42943716049194	movie	1		164.0	28.0	2.5	/experiments/knapen_aot/videos/S_production_ID_3923518.mp4	0.0	292.0392429828644	2.507727861404419
30	89.93716502189636	fix_post	2		12.0	28.0	2.5	/experiments/knapen_aot/videos/S_production_ID_3923518.mp4	0.0	294.5469708442688	0.09989213943481445
30	89.9708662033081	response	2	2		28.0	2.5	/experiments/knapen_aot/videos/S_production_ID_3923518.mp4	0.0	294.58067202568054	
31	90.03705716133118	fix_pre	0		32.0	29.0	2.5	/experiments/knapen_aot/videos/S_yt-rY_ra5Tb9XU_51.mp4	0.0	294.6468629837036	0.2673189640045166
31	90.29554009437561	response	0	2		29.0	2.5	/experiments/knapen_aot/videos/S_yt-rY_ra5Tb9XU_51.mp4	0.0	294.90534591674805	
31	90.3043761253357	movie	1		301.0	29.0	2.5	/experiments/knapen_aot/videos/S_yt-rY_ra5Tb9XU_51.mp4	0.0	294.91418194770813	2.507699966430664
31	92.81207609176636	fix_post	2		12.0	29.0	2.5	/experiments/knapen_aot/videos/S_yt-rY_ra5Tb9XU_51.mp4	0.0	297.4218819141388	0.09997010231018066
32	92.91204619407654	fix_pre	0		8.0	30.0	2.5	/experiments/knapen_aot/videos/S_yt-HwEfWfFJhRo_73.mp4	0.0	297.521852016449	0.06668496131896973
32	92.97056818008423	response	0	2		30.0	2.5	/experiments/knapen_aot/videos/S_yt-HwEfWfFJhRo_73.mp4	0.0	297.58037400245667	
32	92.97873115539551	movie	1		298.0	30.0	2.5	/experiments/knapen_aot/videos/S_yt-HwEfWfFJhRo_73.mp4	0.0	297.58853697776794	2.5083439350128174
32	95.48707509040833	fix_post	2		12.0	30.0	2.5	/experiments/knapen_aot/videos/S_yt-HwEfWfFJhRo_73.mp4	0.0	300.09688091278076	0.09993600845336914
33	95.5870110988617	fix_pre	0		6.0	31.0	2.5	/experiments/knapen_aot/videos/R_S_yt_R-JarqKC4X8nM_4.mp4	0.0	300.19681692123413	0.050666093826293945
33	95.62888598442078	response	0	2		31.0	2.5	/experiments/knapen_aot/videos/R_S_yt_R-JarqKC4X8nM_4.mp4	0.0	300.2386918067932	
33	95.63767719268799	movie	1		301.0	31.0	2.5	/experiments/knapen_aot/videos/R_S_yt_R-JarqKC4X8nM_4.mp4	0.0	300.2474830150604	2.5076358318328857
33	98.14531302452087	fix_post	2		12.0	31.0	2.5	/experiments/knapen_aot/videos/R_S_yt_R-JarqKC4X8nM_4.mp4	0.0	302.7551188468933	0.09997296333312988
33	98.23707699775696	response	2	2		31.0	2.5	/experiments/knapen_aot/videos/R_S_yt_R-JarqKC4X8nM_4.mp4	0.0	302.8468828201294	
34	98.245285987854	fix_pre	0		67.0	32.0	2.5	/experiments/knapen_aot/videos/S_yt-Rsfo57AlpLA_332.mp4	0.0	302.85509181022644	0.5589590072631836
34	98.79541611671448	response	0	2		32.0	2.5	/experiments/knapen_aot/videos/S_yt-Rsfo57AlpLA_332.mp4	0.0	303.4052219390869	
34	98.80424499511719	movie	1		301.0	32.0	2.5	/experiments/knapen_aot/videos/S_yt-Rsfo57AlpLA_332.mp4	0.0	303.4140508174896	2.5076839923858643
34	101.31192898750305	fix_post	2		12.0	32.0	2.5	/experiments/knapen_aot/videos/S_yt-Rsfo57AlpLA_332.mp4	0.0	305.9217348098755	0.09994006156921387
35	101.41186904907227	fix_pre	0		2.0	33.0	2.5	/experiments/knapen_aot/videos/S_video_inspire_oregon_lone-ranch-beach_00021.1080-h264.mp4	0.0	306.0216748714447	0.017980098724365234
35	101.42043805122375	response	0	2		33.0	2.5	/experiments/knapen_aot/videos/S_video_inspire_oregon_lone-ranch-beach_00021.1080-h264.mp4	0.0	306.0302438735962	
35	101.42984914779663	movie	1		163.0	33.0	2.5	/experiments/knapen_aot/videos/S_video_inspire_oregon_lone-ranch-beach_00021.1080-h264.mp4	0.0	306.03965497016907	2.5071730613708496
35	103.93702220916748	fix_post	2		12.0	33.0	2.5	/experiments/knapen_aot/videos/S_video_inspire_oregon_lone-ranch-beach_00021.1080-h264.mp4	0.0	308.5468280315399	0.09983181953430176
35	103.96227312088013	response	2	2		33.0	2.5	/experiments/knapen_aot/videos/S_video_inspire_oregon_lone-ranch-beach_00021.1080-h264.mp4	0.0	308.57207894325256	
36	104.03685402870178	fix_pre	0		51.0	34.0	2.5	/experiments/knapen_aot/videos/R_S_yt-1n1jTroiwJs_163.mp4	0.0	308.6466598510742	0.42508697509765625
36	104.45373511314392	response	0	2		34.0	2.5	/experiments/knapen_aot/videos/R_S_yt-1n1jTroiwJs_163.mp4	0.0	309.06354093551636	
36	104.46194100379944	movie	1		301.0	34.0	2.5	/experiments/knapen_aot/videos/R_S_yt-1n1jTroiwJs_163.mp4	0.0	309.0717468261719	2.508334159851074
36	106.97027516365051	fix_post	2		12.0	34.0	2.5	/experiments/knapen_aot/videos/R_S_yt-1n1jTroiwJs_163.mp4	0.0	311.58008098602295	0.09999489784240723
36	107.02043008804321	response	2	2		34.0	2.5	/experiments/knapen_aot/videos/R_S_yt-1n1jTroiwJs_163.mp4	0.0	311.63023591041565	
37	107.07027006149292	fix_pre	0		33.0	35.0	2.5	blank	1.0	311.68007588386536	0.2756030559539795
37	107.32963919639587	response	0	2		35.0	2.5	blank	1.0	311.9394450187683	
37	107.3458731174469	movie	1		301.0	35.0	2.5	blank	1.0	311.95567893981934	2.5077579021453857
37	109.85363101959229	fix_post	2		12.0	35.0	2.5	blank	1.0	314.4634368419647	0.09993600845336914
38	109.95356702804565	fix_pre	0		28.0	36.0	2.5	/experiments/knapen_aot/videos/S_yt-pB9w3AA-woE_37.mp4	0.0	314.5633728504181	0.23334908485412598
38	110.17120599746704	response	0	2		36.0	2.5	/experiments/knapen_aot/videos/S_yt-pB9w3AA-woE_37.mp4	0.0	314.7810118198395	
38	110.18691611289978	movie	1		301.0	36.0	2.5	/experiments/knapen_aot/videos/S_yt-pB9w3AA-woE_37.mp4	0.0	314.7967219352722	2.508375883102417
38	112.6952919960022	fix_post	2		12.0	36.0	2.5	/experiments/knapen_aot/videos/S_yt-pB9w3AA-woE_37.mp4	0.0	317.30509781837463	0.09998202323913574
38	112.73710513114929	response	2	2		36.0	2.5	/experiments/knapen_aot/videos/S_yt-pB9w3AA-woE_37.mp4	0.0	317.34691095352173	
39	112.79527401924133	fix_pre	0		42.0	37.0	2.5	/experiments/knapen_aot/videos/S_yt-pO5SVq-9EhU_114.mp4	0.0	317.40507984161377	0.3500020503997803
39	113.1371099948883	response	0	2		37.0	2.5	/experiments/knapen_aot/videos/S_yt-pO5SVq-9EhU_114.mp4	0.0	317.74691581726074	
39	113.14527606964111	movie	1		301.0	37.0	2.5	/experiments/knapen_aot/videos/S_yt-pO5SVq-9EhU_114.mp4	0.0	317.75508189201355	2.5083250999450684
39	115.65360116958618	fix_post	2		12.0	37.0	2.5	/experiments/knapen_aot/videos/S_yt-pO5SVq-9EhU_114.mp4	0.0	320.2634069919586	0.10004901885986328
40	115.75365018844604	fix_pre	0		9.0	38.0	2.5	/experiments/knapen_aot/videos/R_S_yt-aiWUhl8MCto_71.mp4	0.0	320.3634560108185	0.07515978813171387
40	115.81386518478394	response	0	2		38.0	2.5	/experiments/knapen_aot/videos/R_S_yt-aiWUhl8MCto_71.mp4	0.0	320.4236710071564	
40	115.82880997657776	movie	1		301.0	38.0	2.5	/experiments/knapen_aot/videos/R_S_yt-aiWUhl8MCto_71.mp4	0.0	320.4386157989502	2.508134126663208
40	118.33694410324097	fix_post	2		12.0	38.0	2.5	/experiments/knapen_aot/videos/R_S_yt-aiWUhl8MCto_71.mp4	0.0	322.9467499256134	0.09995889663696289
41	118.43690299987793	fix_pre	0		25.0	39.0	2.5	/experiments/knapen_aot/videos/R_S_yt-CJeyOFsd3lg_80.mp4	0.0	323.04670882225037	0.20828509330749512
41	118.63697409629822	response	0	2		39.0	2.5	/experiments/knapen_aot/videos/R_S_yt-CJeyOFsd3lg_80.mp4	0.0	323.24677991867065	
41	118.64518809318542	movie	1		298.0	39.0	2.5	/experiments/knapen_aot/videos/R_S_yt-CJeyOFsd3lg_80.mp4	0.0	323.25499391555786	2.508394956588745
41	120.97866916656494	response	1	2		39.0	2.5	/experiments/knapen_aot/videos/R_S_yt-CJeyOFsd3lg_80.mp4	0.0	325.5884749889374	
41	121.15358304977417	fix_post	2		12.0	39.0	2.5	/experiments/knapen_aot/videos/R_S_yt-CJeyOFsd3lg_80.mp4	0.0	325.7633888721466	0.09990406036376953
42	121.25348711013794	fix_pre	0		38.0	40.0	2.5	/experiments/knapen_aot/videos/S_yt-be7r-ha8BpA_1045.mp4	0.0	325.8632929325104	0.31676292419433594
42	121.56198501586914	response	0	2		40.0	2.5	/experiments/knapen_aot/videos/S_yt-be7r-ha8BpA_1045.mp4	0.0	326.1717908382416	
42	121.57025003433228	movie	1		301.0	40.0	2.5	/experiments/knapen_aot/videos/S_yt-be7r-ha8BpA_1045.mp4	0.0	326.1800558567047	2.5082919597625732
42	124.07854199409485	fix_post	2		12.0	40.0	2.5	/experiments/knapen_aot/videos/S_yt-be7r-ha8BpA_1045.mp4	0.0	328.6883478164673	0.09999608993530273
43	124.17853808403015	fix_pre	0		28.0	41.0	2.5	blank	1.0	328.7883439064026	0.233320951461792
43	124.40367102622986	response	0	2		41.0	2.5	blank	1.0	329.0134768486023	
43	124.41185903549194	movie	1		301.0	41.0	2.5	blank	1.0	329.0216648578644	2.508301019668579
43	126.92016005516052	fix_post	2		12.0	41.0	2.5	blank	1.0	331.52996587753296	0.1000680923461914
44	127.02022814750671	fix_pre	0		26.0	42.0	2.5	/experiments/knapen_aot/videos/S_yt-XPRNMelf5Fs_235.mp4	0.0	331.63003396987915	0.21661806106567383
44	127.22862219810486	response	0	2		42.0	2.5	/experiments/knapen_aot/videos/S_yt-XPRNMelf5Fs_235.mp4	0.0	331.8384280204773	
44	127.23684620857239	movie	1		301.0	42.0	2.5	/experiments/knapen_aot/videos/S_yt-XPRNMelf5Fs_235.mp4	0.0	331.8466520309448	2.50837779045105
44	129.74522399902344	fix_post	2		12.0	42.0	2.5	/experiments/knapen_aot/videos/S_yt-XPRNMelf5Fs_235.mp4	0.0	334.3550298213959	0.09992003440856934
45	129.845144033432	fix_pre	0		29.0	43.0	2.5	/experiments/knapen_aot/videos/S_video_inspire_oregon_lone-ranch-beach_00021.1080-h264.mp4	0.0	334.45494985580444	0.2416679859161377
45	130.07863211631775	response	0	2		43.0	2.5	/experiments/knapen_aot/videos/S_video_inspire_oregon_lone-ranch-beach_00021.1080-h264.mp4	0.0	334.6884379386902	
45	130.08681201934814	movie	1		163.0	43.0	2.5	/experiments/knapen_aot/videos/S_video_inspire_oregon_lone-ranch-beach_00021.1080-h264.mp4	0.0	334.6966178417206	2.508308172225952
45	132.5951201915741	fix_post	2		12.0	43.0	2.5	/experiments/knapen_aot/videos/S_video_inspire_oregon_lone-ranch-beach_00021.1080-h264.mp4	0.0	337.20492601394653	0.10004281997680664
46	132.6951630115509	fix_pre	0		34.0	44.0	2.5	/experiments/knapen_aot/videos/R_S_yt-Xegmd8whqBs_230.mp4	0.0	337.30496883392334	0.28342103958129883
46	132.97025299072266	response	0	2		44.0	2.5	/experiments/knapen_aot/videos/R_S_yt-Xegmd8whqBs_230.mp4	0.0	337.5800588130951	
46	132.9785840511322	movie	1		301.0	44.0	2.5	/experiments/knapen_aot/videos/R_S_yt-Xegmd8whqBs_230.mp4	0.0	337.58838987350464	2.508219003677368
46	135.48680305480957	fix_post	2		12.0	44.0	2.5	/experiments/knapen_aot/videos/R_S_yt-Xegmd8whqBs_230.mp4	0.0	340.096608877182	0.1000361442565918
47	135.58683919906616	fix_pre	0		22.0	45.0	2.5	/experiments/knapen_aot/videos/S_yt--koo4FOfZE0_86.mp4	0.0	340.1966450214386	0.18330979347229004
47	135.76198506355286	response	0	2		45.0	2.5	/experiments/knapen_aot/videos/S_yt--koo4FOfZE0_86.mp4	0.0	340.3717908859253	
47	135.77014899253845	movie	1		301.0	45.0	2.5	/experiments/knapen_aot/videos/S_yt--koo4FOfZE0_86.mp4	0.0	340.3799548149109	2.508319139480591
47	138.27846813201904	fix_post	2		12.0	45.0	2.5	/experiments/knapen_aot/videos/S_yt--koo4FOfZE0_86.mp4	0.0	342.8882739543915	0.09999704360961914
48	138.37846517562866	fix_pre	0		13.0	46.0	2.5	/experiments/knapen_aot/videos/S_ILSVRC2015_train_00185002.mp4	0.0	342.9882709980011	0.10837984085083008
48	138.47859120368958	response	0	2		46.0	2.5	/experiments/knapen_aot/videos/S_ILSVRC2015_train_00185002.mp4	0.0	343.088397026062	
48	138.4868450164795	movie	1		297.0	46.0	2.5	/experiments/knapen_aot/videos/S_ILSVRC2015_train_00185002.mp4	0.0	343.09665083885193	2.5082521438598633
48	140.99509716033936	fix_post	2		12.0	46.0	2.5	/experiments/knapen_aot/videos/S_ILSVRC2015_train_00185002.mp4	0.0	345.6049029827118	0.10006093978881836
49	141.09515810012817	fix_pre	0		41.0	47.0	2.5	/experiments/knapen_aot/videos/R_S_yt-14tjqjjjAEI_15.mp4	0.0	345.7049639225006	0.34166598320007324
49	141.42865204811096	response	0	2		47.0	2.5	/experiments/knapen_aot/videos/R_S_yt-14tjqjjjAEI_15.mp4	0.0	346.0384578704834	
49	141.43682408332825	movie	1		301.0	47.0	2.5	/experiments/knapen_aot/videos/R_S_yt-14tjqjjjAEI_15.mp4	0.0	346.0466299057007	2.5082430839538574
49	143.9450671672821	fix_post	2		12.0	47.0	2.5	/experiments/knapen_aot/videos/R_S_yt-14tjqjjjAEI_15.mp4	0.0	348.55487298965454	0.10006999969482422
50	144.04513716697693	fix_pre	0		11.0	48.0	2.5	/experiments/knapen_aot/videos/R_S_yt-Q4edV5qiqu0_578.mp4	0.0	348.65494298934937	0.09201383590698242
50	144.1286380290985	response	0	2		48.0	2.5	/experiments/knapen_aot/videos/R_S_yt-Q4edV5qiqu0_578.mp4	0.0	348.73844385147095	
50	144.1371510028839	movie	1		301.0	48.0	2.5	/experiments/knapen_aot/videos/R_S_yt-Q4edV5qiqu0_578.mp4	0.0	348.74695682525635	2.507911205291748
50	146.64506220817566	fix_post	2		12.0	48.0	2.5	/experiments/knapen_aot/videos/R_S_yt-Q4edV5qiqu0_578.mp4	0.0	351.2548680305481	0.09993982315063477
51	146.7450020313263	fix_pre	0		162.0	49.0	2.5	blank	1.0	351.35480785369873	1.350527048110962
51	148.08690404891968	response	0	2		49.0	2.5	blank	1.0	352.6967098712921	
51	148.09552907943726	movie	1		301.0	49.0	2.5	blank	1.0	352.7053349018097	2.5079119205474854
51	150.60344099998474	fix_post	2		12.0	49.0	2.5	blank	1.0	355.2132468223572	0.09996604919433594
52	150.70340704917908	fix_pre	0		19.0	50.0	2.5	/experiments/knapen_aot/videos/S_yt-1iB2ofPY1U8_16.mp4	0.0	355.3132128715515	0.1583249568939209
52	150.85354208946228	response	0	2		50.0	2.5	/experiments/knapen_aot/videos/S_yt-1iB2ofPY1U8_16.mp4	0.0	355.4633479118347	
52	150.861732006073	movie	1		301.0	50.0	2.5	/experiments/knapen_aot/videos/S_yt-1iB2ofPY1U8_16.mp4	0.0	355.47153782844543	2.5083911418914795
52	153.37012314796448	fix_post	2		12.0	50.0	2.5	/experiments/knapen_aot/videos/S_yt-1iB2ofPY1U8_16.mp4	0.0	357.9799289703369	0.10030484199523926
53	153.47042798995972	fix_pre	0		18.0	51.0	2.5	/experiments/knapen_aot/videos/S_ILSVRC2015_train_00042003.mp4	0.0	358.08023381233215	0.14960598945617676
53	153.61186718940735	response	0	2		51.0	2.5	/experiments/knapen_aot/videos/S_ILSVRC2015_train_00042003.mp4	0.0	358.2216730117798	
53	153.6200339794159	movie	1		300.0	51.0	2.5	/experiments/knapen_aot/videos/S_ILSVRC2015_train_00042003.mp4	0.0	358.22983980178833	2.508430004119873
53	156.12846398353577	fix_post	2		12.0	51.0	2.5	/experiments/knapen_aot/videos/S_ILSVRC2015_train_00042003.mp4	0.0	360.7382698059082	0.09996700286865234
54	156.22843098640442	fix_pre	0		34.0	52.0	2.5	/experiments/knapen_aot/videos/S_ILSVRC2015_train_00689000.mp4	0.0	360.83823680877686	0.28358006477355957
54	156.50352907180786	response	0	2		52.0	2.5	/experiments/knapen_aot/videos/S_ILSVRC2015_train_00689000.mp4	0.0	361.1133348941803	
54	156.51201105117798	movie	1		301.0	52.0	2.5	/experiments/knapen_aot/videos/S_ILSVRC2015_train_00689000.mp4	0.0	361.1218168735504	2.5080161094665527
54	159.02002716064453	fix_post	2		12.0	52.0	2.5	/experiments/knapen_aot/videos/S_ILSVRC2015_train_00689000.mp4	0.0	363.62983298301697	0.10001492500305176
55	159.12004208564758	fix_pre	0		28.0	53.0	2.5	/experiments/knapen_aot/videos/S_yt-o_Hakzj8PRg_2864.mp4	0.0	363.72984790802	0.23334908485412598
55	159.34518003463745	response	0	2		53.0	2.5	/experiments/knapen_aot/videos/S_yt-o_Hakzj8PRg_2864.mp4	0.0	363.9549858570099	
55	159.3533911705017	movie	1		301.0	53.0	2.5	/experiments/knapen_aot/videos/S_yt-o_Hakzj8PRg_2864.mp4	0.0	363.96319699287415	2.508344888687134
55	161.86173605918884	fix_post	2		12.0	53.0	2.5	/experiments/knapen_aot/videos/S_yt-o_Hakzj8PRg_2864.mp4	0.0	366.4715418815613	0.10000395774841309
56	161.96174001693726	fix_pre	0		49.0	54.0	2.5	/experiments/knapen_aot/videos/R_S_yt-82O1uT8dmv8_12.mp4	0.0	366.5715458393097	0.40828418731689453
56	162.36191201210022	response	0	2		54.0	2.5	/experiments/knapen_aot/videos/R_S_yt-82O1uT8dmv8_12.mp4	0.0	366.97171783447266	
56	162.37002420425415	movie	1		301.0	54.0	2.5	/experiments/knapen_aot/videos/R_S_yt-82O1uT8dmv8_12.mp4	0.0	366.9798300266266	2.5083799362182617
56	164.8784041404724	fix_post	2		12.0	54.0	2.5	/experiments/knapen_aot/videos/R_S_yt-82O1uT8dmv8_12.mp4	0.0	369.48820996284485	0.09999585151672363
57	164.97839999198914	fix_pre	0		104.0	55.0	2.5	blank	1.0	369.5882058143616	0.8669300079345703
57	165.8368740081787	response	0	2		55.0	2.5	blank	1.0	370.44667983055115	
57	165.8453299999237	movie	1		301.0	55.0	2.5	blank	1.0	370.45513582229614	2.508100986480713
57	168.35343098640442	fix_post	2		12.0	55.0	2.5	blank	1.0	372.96323680877686	0.09992814064025879
58	168.45335912704468	fix_pre	0		22.0	56.0	2.5	/experiments/knapen_aot/videos/S_yt-1RVw8p6Dw2Q_20.mp4	0.0	373.0631649494171	0.1835339069366455
58	168.62851905822754	response	0	2		56.0	2.5	/experiments/knapen_aot/videos/S_yt-1RVw8p6Dw2Q_20.mp4	0.0	373.2383248806	
58	168.63689303398132	movie	1		301.0	56.0	2.5	/experiments/knapen_aot/videos/S_yt-1RVw8p6Dw2Q_20.mp4	0.0	373.24669885635376	2.5081231594085693
58	171.1450161933899	fix_post	2		12.0	56.0	2.5	/experiments/knapen_aot/videos/S_yt-1RVw8p6Dw2Q_20.mp4	0.0	375.75482201576233	0.10004782676696777
58	171.2368381023407	response	2	4		56.0	2.5	/experiments/knapen_aot/videos/S_yt-1RVw8p6Dw2Q_20.mp4	0.0	375.84664392471313	
59	171.24506402015686	fix_pre	0		70.0	57.0	2.5	/experiments/knapen_aot/videos/S_b2-4.mp4	0.0	375.8548698425293	0.583320140838623
59	171.8126151561737	response	0	4		57.0	2.5	/experiments/knapen_aot/videos/S_b2-4.mp4	0.0	376.42242097854614	
59	171.82838416099548	movie	1		162.0	57.0	2.5	/experiments/knapen_aot/videos/S_b2-4.mp4	0.0	376.4381899833679	2.5083248615264893
59	174.33670902252197	fix_post	2		12.0	57.0	2.5	/experiments/knapen_aot/videos/S_b2-4.mp4	0.0	378.9465148448944	0.10003995895385742
60	174.43674898147583	fix_pre	0		11.0	58.0	2.5	/experiments/knapen_aot/videos/S_DL_B002_C011_SDR_20191122_SDR_2K_AVC.mp4	0.0	379.04655480384827	0.09162402153015137
60	174.5201930999756	response	0	2		58.0	2.5	/experiments/knapen_aot/videos/S_DL_B002_C011_SDR_20191122_SDR_2K_AVC.mp4	0.0	379.129998922348	
60	174.52837300300598	movie	1		164.0	58.0	2.5	/experiments/knapen_aot/videos/S_DL_B002_C011_SDR_20191122_SDR_2K_AVC.mp4	0.0	379.1381788253784	2.5083160400390625
60	177.03668904304504	fix_post	2		12.0	58.0	2.5	/experiments/knapen_aot/videos/S_DL_B002_C011_SDR_20191122_SDR_2K_AVC.mp4	0.0	381.6464948654175	0.10021209716796875
60	177.0951430797577	response	2	2		58.0	2.5	/experiments/knapen_aot/videos/S_DL_B002_C011_SDR_20191122_SDR_2K_AVC.mp4	0.0	381.7049489021301	
61	177.136901140213	fix_pre	0		51.0	59.0	2.5	/experiments/knapen_aot/videos/R_S_yt-IigHVUksnw8_7.mp4	0.0	381.74670696258545	0.42478203773498535
61	177.55356001853943	response	0	2		59.0	2.5	/experiments/knapen_aot/videos/R_S_yt-IigHVUksnw8_7.mp4	0.0	382.16336584091187	
61	177.561683177948	movie	1		301.0	59.0	2.5	/experiments/knapen_aot/videos/R_S_yt-IigHVUksnw8_7.mp4	0.0	382.17148900032043	2.508288860321045
61	180.06997203826904	fix_post	2		12.0	59.0	2.5	/experiments/knapen_aot/videos/R_S_yt-IigHVUksnw8_7.mp4	0.0	384.6797778606415	0.10004997253417969
62	180.17002201080322	fix_pre	0		11.0	60.0	2.5	/experiments/knapen_aot/videos/S_yt-SgiTZNjCPCo_19.mp4	0.0	384.77982783317566	0.09186911582946777
62	180.25340008735657	response	0	2		60.0	2.5	/experiments/knapen_aot/videos/S_yt-SgiTZNjCPCo_19.mp4	0.0	384.863205909729	
62	180.2618911266327	movie	1		301.0	60.0	2.5	/experiments/knapen_aot/videos/S_yt-SgiTZNjCPCo_19.mp4	0.0	384.8716969490051	2.508143901824951
62	182.77003502845764	fix_post	2		12.0	60.0	2.5	/experiments/knapen_aot/videos/S_yt-SgiTZNjCPCo_19.mp4	0.0	387.3798408508301	0.09999299049377441
63	182.87002801895142	fix_pre	0		23.0	61.0	2.5	/experiments/knapen_aot/videos/R_S_AK_A004_C012_SDR_20191217_SDR_2K_AVC.mp4	0.0	387.47983384132385	0.19162511825561523
63	183.0534770488739	response	0	2		61.0	2.5	/experiments/knapen_aot/videos/R_S_AK_A004_C012_SDR_20191217_SDR_2K_AVC.mp4	0.0	387.66328287124634	
63	183.06165313720703	movie	1		166.0	61.0	2.5	/experiments/knapen_aot/videos/R_S_AK_A004_C012_SDR_20191217_SDR_2K_AVC.mp4	0.0	387.67145895957947	2.508185863494873
63	185.5698390007019	fix_post	2		12.0	61.0	2.5	/experiments/knapen_aot/videos/R_S_AK_A004_C012_SDR_20191217_SDR_2K_AVC.mp4	0.0	390.17964482307434	0.10005402565002441
64	185.66989302635193	fix_pre	0		12.0	62.0	2.5	blank	1.0	390.27969884872437	0.09998416900634766
64	185.76174402236938	response	0	2		62.0	2.5	blank	1.0	390.3715498447418	
64	185.76987719535828	movie	1		301.0	62.0	2.5	blank	1.0	390.3796830177307	2.5083718299865723
64	188.27824902534485	fix_post	2		12.0	62.0	2.5	blank	1.0	392.8880548477173	0.10001397132873535
65	188.37826299667358	fix_pre	0		23.0	63.0	2.5	/experiments/knapen_aot/videos/R_S_ILSVRC2015_train_00411000.mp4	0.0	392.988068819046	0.19173216819763184
65	188.56179308891296	response	0	2		63.0	2.5	/experiments/knapen_aot/videos/R_S_ILSVRC2015_train_00411000.mp4	0.0	393.1715989112854	
65	188.56999516487122	movie	1		301.0	63.0	2.5	/experiments/knapen_aot/videos/R_S_ILSVRC2015_train_00411000.mp4	0.0	393.17980098724365	2.508244037628174
65	191.0782392024994	fix_post	2		12.0	63.0	2.5	/experiments/knapen_aot/videos/R_S_ILSVRC2015_train_00411000.mp4	0.0	395.6880450248718	0.10020089149475098
66	191.17844009399414	fix_pre	0		25.0	64.0	2.5	/experiments/knapen_aot/videos/S_yt-sGckFFOLO30_164.mp4	0.0	395.7882459163666	0.20828509330749512
66	191.3783061504364	response	0	2		64.0	2.5	/experiments/knapen_aot/videos/S_yt-sGckFFOLO30_164.mp4	0.0	395.98811197280884	
66	191.38672518730164	movie	1		301.0	64.0	2.5	/experiments/knapen_aot/videos/S_yt-sGckFFOLO30_164.mp4	0.0	395.9965310096741	2.5082077980041504
66	193.8949329853058	fix_post	2		12.0	64.0	2.5	/experiments/knapen_aot/videos/S_yt-sGckFFOLO30_164.mp4	0.0	398.5047388076782	0.09996700286865234
67	193.99489998817444	fix_pre	0		45.0	65.0	2.5	/experiments/knapen_aot/videos/S_yt-T_qmGKyeKNU_32.mp4	0.0	398.6047058105469	0.37498021125793457
67	194.36171412467957	response	0	2		65.0	2.5	/experiments/knapen_aot/videos/S_yt-T_qmGKyeKNU_32.mp4	0.0	398.971519947052	
67	194.36988019943237	movie	1		301.0	65.0	2.5	/experiments/knapen_aot/videos/S_yt-T_qmGKyeKNU_32.mp4	0.0	398.9796860218048	2.508410930633545
67	196.87829113006592	fix_post	2		12.0	65.0	2.5	/experiments/knapen_aot/videos/S_yt-T_qmGKyeKNU_32.mp4	0.0	401.48809695243835	0.10000395774841309
68	196.97829508781433	fix_pre	0		116.0	66.0	2.5	/experiments/knapen_aot/videos/S_yt-hDYtYKUsVE4_120.mp4	0.0	401.58810091018677	0.9665510654449463
68	197.9366180896759	response	0	2		66.0	2.5	/experiments/knapen_aot/videos/S_yt-hDYtYKUsVE4_120.mp4	0.0	402.54642391204834	
68	197.94484615325928	movie	1		300.0	66.0	2.5	/experiments/knapen_aot/videos/S_yt-hDYtYKUsVE4_120.mp4	0.0	402.5546519756317	2.508431911468506
68	200.45327806472778	fix_post	2		12.0	66.0	2.5	/experiments/knapen_aot/videos/S_yt-hDYtYKUsVE4_120.mp4	0.0	405.0630838871002	0.10006904602050781
69	200.5533471107483	fix_pre	0		97.0	67.0	2.5	/experiments/knapen_aot/videos/R_S_yt-r4st6Mt4EE8_85.mp4	0.0	405.1631529331207	0.8081860542297363
69	201.35339999198914	response	0	2		67.0	2.5	/experiments/knapen_aot/videos/R_S_yt-r4st6Mt4EE8_85.mp4	0.0	405.9632058143616	
69	201.36153316497803	movie	1		301.0	67.0	2.5	/experiments/knapen_aot/videos/R_S_yt-r4st6Mt4EE8_85.mp4	0.0	405.97133898735046	2.5083839893341064
69	203.86991715431213	fix_post	2		12.0	67.0	2.5	/experiments/knapen_aot/videos/R_S_yt-r4st6Mt4EE8_85.mp4	0.0	408.47972297668457	0.10004091262817383
70	203.9699580669403	fix_pre	0		55.0	68.0	2.5	/experiments/knapen_aot/videos/S_yt-AHbFln6blfE_36.mp4	0.0	408.57976388931274	0.45832300186157227
70	204.4200530052185	response	0	2		68.0	2.5	/experiments/knapen_aot/videos/S_yt-AHbFln6blfE_36.mp4	0.0	409.02985882759094	
70	204.42828106880188	movie	1		300.0	68.0	2.5	/experiments/knapen_aot/videos/S_yt-AHbFln6blfE_36.mp4	0.0	409.0380868911743	2.508286952972412
70	206.9365680217743	fix_post	2		12.0	68.0	2.5	/experiments/knapen_aot/videos/S_yt-AHbFln6blfE_36.mp4	0.0	411.54637384414673	0.09990215301513672
71	207.03647017478943	fix_pre	0		180.0	69.0	2.5	/experiments/knapen_aot/videos/R_S_yt-aD-EAuBdpUo_163.mp4	0.0	411.64627599716187	1.500079870223999
71	208.52836513519287	response	0	2		69.0	2.5	/experiments/knapen_aot/videos/R_S_yt-aD-EAuBdpUo_163.mp4	0.0	413.1381709575653	
71	208.53655004501343	movie	1		301.0	69.0	2.5	/experiments/knapen_aot/videos/R_S_yt-aD-EAuBdpUo_163.mp4	0.0	413.14635586738586	2.5083370208740234
71	211.04488706588745	fix_post	2		12.0	69.0	2.5	/experiments/knapen_aot/videos/R_S_yt-aD-EAuBdpUo_163.mp4	0.0	415.6546928882599	0.10013794898986816
72	211.14502501487732	fix_pre	0		23.0	70.0	2.5	blank	1.0	415.75483083724976	0.19153904914855957
72	211.32840704917908	response	0	2		70.0	2.5	blank	1.0	415.9382128715515	
72	211.33656406402588	movie	1		301.0	70.0	2.5	blank	1.0	415.9463698863983	2.5082790851593018
72	213.84484314918518	fix_post	2		12.0	70.0	2.5	blank	1.0	418.4546489715576	0.10007500648498535
73	213.94491815567017	fix_pre	0		59.0	71.0	2.5	/experiments/knapen_aot/videos/R_S_flickr-53807584@N00-5566422012_16.mp4	0.0	418.5547239780426	0.49155282974243164
73	214.4282829761505	response	0	2		71.0	2.5	/experiments/knapen_aot/videos/R_S_flickr-53807584@N00-5566422012_16.mp4	0.0	419.03808879852295	
73	214.4364709854126	movie	1		301.0	71.0	2.5	/experiments/knapen_aot/videos/R_S_flickr-53807584@N00-5566422012_16.mp4	0.0	419.04627680778503	2.5083320140838623
73	216.94480299949646	fix_post	2		12.0	71.0	2.5	/experiments/knapen_aot/videos/R_S_flickr-53807584@N00-5566422012_16.mp4	0.0	421.5546088218689	0.10021400451660156
74	217.04501700401306	fix_pre	0		20.0	72.0	2.5	/experiments/knapen_aot/videos/S_ILSVRC2015_train_00087003.mp4	0.0	421.6548228263855	0.16648602485656738
74	217.1957561969757	response	0	2		72.0	2.5	/experiments/knapen_aot/videos/S_ILSVRC2015_train_00087003.mp4	0.0	421.80556201934814	
74	217.21150302886963	movie	1		301.0	72.0	2.5	/experiments/knapen_aot/videos/S_ILSVRC2015_train_00087003.mp4	0.0	421.82130885124207	2.508342981338501
74	219.71984601020813	fix_post	2		12.0	72.0	2.5	/experiments/knapen_aot/videos/S_ILSVRC2015_train_00087003.mp4	0.0	424.32965183258057	0.09995412826538086
75	219.8198001384735	fix_pre	0		9.0	73.0	2.5	/experiments/knapen_aot/videos/R_S_yt-Rsfo57AlpLA_332.mp4	0.0	424.42960596084595	0.07502102851867676
75	219.8866090774536	response	0	2		73.0	2.5	/experiments/knapen_aot/videos/R_S_yt-Rsfo57AlpLA_332.mp4	0.0	424.49641489982605	
75	219.8948211669922	movie	1		301.0	73.0	2.5	/experiments/knapen_aot/videos/R_S_yt-Rsfo57AlpLA_332.mp4	0.0	424.5046269893646	2.5083279609680176
75	222.4031491279602	fix_post	2		12.0	73.0	2.5	/experiments/knapen_aot/videos/R_S_yt-Rsfo57AlpLA_332.mp4	0.0	427.01295495033264	0.10002303123474121
76	222.50317215919495	fix_pre	0		49.0	74.0	2.5	/experiments/knapen_aot/videos/R_S_comp_CH_C007_C011_PSNK_v02_SDR_PS_FINAL_20180709_SDR_2K_AVC.mp4	0.0	427.1129779815674	0.40833282470703125
76	222.90329909324646	response	0	2		74.0	2.5	/experiments/knapen_aot/videos/R_S_comp_CH_C007_C011_PSNK_v02_SDR_PS_FINAL_20180709_SDR_2K_AVC.mp4	0.0	427.5131049156189	
76	222.91150498390198	movie	1		172.0	74.0	2.5	/experiments/knapen_aot/videos/R_S_comp_CH_C007_C011_PSNK_v02_SDR_PS_FINAL_20180709_SDR_2K_AVC.mp4	0.0	427.5213108062744	2.508331060409546
76	225.41983604431152	fix_post	2		12.0	74.0	2.5	/experiments/knapen_aot/videos/R_S_comp_CH_C007_C011_PSNK_v02_SDR_PS_FINAL_20180709_SDR_2K_AVC.mp4	0.0	430.02964186668396	0.10000801086425781
76	225.5116469860077	response	2	2		74.0	2.5	/experiments/knapen_aot/videos/R_S_comp_CH_C007_C011_PSNK_v02_SDR_PS_FINAL_20180709_SDR_2K_AVC.mp4	0.0	430.1214528083801	
77	225.51984405517578	fix_pre	0		84.0	75.0	2.5	/experiments/knapen_aot/videos/R_S_yt-XPRNMelf5Fs_235.mp4	0.0	430.1296498775482	0.6998500823974609
77	226.21151900291443	response	0	2		75.0	2.5	/experiments/knapen_aot/videos/R_S_yt-XPRNMelf5Fs_235.mp4	0.0	430.82132482528687	
77	226.21969413757324	movie	1		301.0	75.0	2.5	/experiments/knapen_aot/videos/R_S_yt-XPRNMelf5Fs_235.mp4	0.0	430.8294999599457	2.508394956588745
77	228.728089094162	fix_post	2		12.0	75.0	2.5	/experiments/knapen_aot/videos/R_S_yt-XPRNMelf5Fs_235.mp4	0.0	433.3378949165344	0.09998202323913574
78	228.82807111740112	fix_pre	0		35.0	76.0	2.5	/experiments/knapen_aot/videos/R_S_yt-DmlSN7mzczI_62.mp4	0.0	433.43787693977356	0.29169297218322754
78	229.11156797409058	response	0	2		76.0	2.5	/experiments/knapen_aot/videos/R_S_yt-DmlSN7mzczI_62.mp4	0.0	433.721373796463	
78	229.11976408958435	movie	1		301.0	76.0	2.5	/experiments/knapen_aot/videos/R_S_yt-DmlSN7mzczI_62.mp4	0.0	433.7295699119568	2.508301019668579
78	231.62806510925293	fix_post	2		12.0	76.0	2.5	/experiments/knapen_aot/videos/R_S_yt-DmlSN7mzczI_62.mp4	0.0	436.23787093162537	0.10004401206970215
79	231.72810912132263	fix_pre	0		23.0	77.0	2.5	blank	1.0	436.33791494369507	0.19159197807312012
79	231.91163897514343	response	0	2		77.0	2.5	blank	1.0	436.52144479751587	
79	231.91970109939575	movie	1		301.0	77.0	2.5	blank	1.0	436.5295069217682	2.508297920227051
79	234.4279990196228	fix_post	2		12.0	77.0	2.5	blank	1.0	439.03780484199524	0.10002803802490234
80	234.5280270576477	fix_pre	0		22.0	78.0	2.5	/experiments/knapen_aot/videos/S_wc-NzEeGIXLxvwp_19.mp4	0.0	439.13783288002014	0.18339896202087402
80	234.70309400558472	response	0	2		78.0	2.5	/experiments/knapen_aot/videos/S_wc-NzEeGIXLxvwp_19.mp4	0.0	439.31289982795715	
80	234.71142601966858	movie	1		168.0	78.0	2.5	/experiments/knapen_aot/videos/S_wc-NzEeGIXLxvwp_19.mp4	0.0	439.321231842041	2.50828218460083
80	237.2197082042694	fix_post	2		12.0	78.0	2.5	/experiments/knapen_aot/videos/S_wc-NzEeGIXLxvwp_19.mp4	0.0	441.82951402664185	0.0999898910522461
81	237.31969809532166	fix_pre	0		8.0	79.0	2.5	/experiments/knapen_aot/videos/S_yt-IigHVUksnw8_7.mp4	0.0	441.9295039176941	0.06663990020751953
81	237.37809109687805	response	0	2		79.0	2.5	/experiments/knapen_aot/videos/S_yt-IigHVUksnw8_7.mp4	0.0	441.9878969192505	
81	237.38633799552917	movie	1		301.0	79.0	2.5	/experiments/knapen_aot/videos/S_yt-IigHVUksnw8_7.mp4	0.0	441.9961438179016	2.5083861351013184
81	239.8947241306305	fix_post	2		12.0	79.0	2.5	/experiments/knapen_aot/videos/S_yt-IigHVUksnw8_7.mp4	0.0	444.50452995300293	0.10000395774841309
82	239.9947280883789	fix_pre	0		60.0	80.0	2.5	/experiments/knapen_aot/videos/R_S_yt-o_Hakzj8PRg_2864.mp4	0.0	444.60453391075134	0.49990391731262207
82	240.47891306877136	response	0	2		80.0	2.5	/experiments/knapen_aot/videos/R_S_yt-o_Hakzj8PRg_2864.mp4	0.0	445.0887188911438	
82	240.49463200569153	movie	1		301.0	80.0	2.5	/experiments/knapen_aot/videos/R_S_yt-o_Hakzj8PRg_2864.mp4	0.0	445.10443782806396	2.5084550380706787
82	243.0030870437622	fix_post	2		12.0	80.0	2.5	/experiments/knapen_aot/videos/R_S_yt-o_Hakzj8PRg_2864.mp4	0.0	447.61289286613464	0.09999704360961914
83	243.10308408737183	fix_pre	0		7.0	81.0	2.5	/experiments/knapen_aot/videos/S_yt-AOP7QYQntPI_28.mp4	0.0	447.71288990974426	0.05829811096191406
83	243.15315508842468	response	0	2		81.0	2.5	/experiments/knapen_aot/videos/S_yt-AOP7QYQntPI_28.mp4	0.0	447.7629609107971	
83	243.16138219833374	movie	1		301.0	81.0	2.5	/experiments/knapen_aot/videos/S_yt-AOP7QYQntPI_28.mp4	0.0	447.7711880207062	2.50836181640625
83	245.66974401474	fix_post	2		12.0	81.0	2.5	/experiments/knapen_aot/videos/S_yt-AOP7QYQntPI_28.mp4	0.0	450.2795498371124	0.09997200965881348
84	245.7697160243988	fix_pre	0		5.0	82.0	2.5	blank	1.0	450.37952184677124	0.041674137115478516
84	245.80326104164124	response	0	2		82.0	2.5	blank	1.0	450.4130668640137	
84	245.81139016151428	movie	1		301.0	82.0	2.5	blank	1.0	450.4211959838867	2.508185863494873
84	248.31957602500916	fix_post	2		12.0	82.0	2.5	blank	1.0	452.9293818473816	0.10015106201171875
85	248.41972708702087	fix_pre	0		27.0	83.0	2.5	/experiments/knapen_aot/videos/R_S_yt-wVMhACNFF-M_154.mp4	0.0	453.0295329093933	0.22499799728393555
85	248.63653302192688	response	0	2		83.0	2.5	/experiments/knapen_aot/videos/R_S_yt-wVMhACNFF-M_154.mp4	0.0	453.2463388442993	
85	248.6447250843048	movie	1		297.0	83.0	2.5	/experiments/knapen_aot/videos/R_S_yt-wVMhACNFF-M_154.mp4	0.0	453.25453090667725	2.5082809925079346
85	251.15300607681274	fix_post	2		12.0	83.0	2.5	/experiments/knapen_aot/videos/R_S_yt-wVMhACNFF-M_154.mp4	0.0	455.7628118991852	0.09996795654296875
87	251.2529740333557	stim	0		365.0					455.86277985572815	3.0429000854492188
87	251.36149621009827	response	0	2						455.9713020324707	
87	254.2898449897766	response	0	space						458.89965081214905	
