trial_nr	onset	event_type	phase	response	nr_frames	movie_index	movie_duration	movie_file	blank	onset_abs	duration
0	0.12514901161193848	stim	0		107.0					84.86546897888184	0.8914201259613037
0	1.0084831714630127	response	0	space						85.74880313873291	
1	1.0165691375732422	stim	0		121.0					85.75688910484314	1.0080509185791016
1	1.5580341815948486	response	0	space						86.29835414886475	
1	1.8831090927124023	response	0	space						86.6234290599823	
1	2.0246200561523438	stim	1		120.0					86.76494002342224	1.0014030933380127
1	2.0830891132354736	response	1	space						86.82340908050537	
1	2.307996988296509	response	1	space						87.0483169555664	
1	2.675504207611084	response	1	space						87.41582417488098	
2	3.0260231494903564	fix_pre	0		3.0	0.0	2.5	/experiments/knapen_aot/videos/S_yt-sxZ_ONShI7U_75.mp4	0.0	87.76634311676025	0.023607969284057617
2	3.041396141052246	response	0	space		0.0	2.5	/experiments/knapen_aot/videos/S_yt-sxZ_ONShI7U_75.mp4	0.0	87.78171610832214	
2	3.049631118774414	movie	1		301.0	0.0	2.5	/experiments/knapen_aot/videos/S_yt-sxZ_ONShI7U_75.mp4	0.0	87.78995108604431	2.5083260536193848
2	5.557957172393799	fix_post	2		12.0	0.0	2.5	/experiments/knapen_aot/videos/S_yt-sxZ_ONShI7U_75.mp4	0.0	90.2982771396637	0.09995198249816895
3	5.657909154891968	fix_pre	0		709.0	1.0	2.5	/experiments/knapen_aot/videos/R_S_comp_A001_C001_120530_v04_SDR_FINAL_20180706_SDR_2K_AVC.mp4	0.0	90.39822912216187	5.909636974334717
3	11.558049201965332	response	0	4		1.0	2.5	/experiments/knapen_aot/videos/R_S_comp_A001_C001_120530_v04_SDR_FINAL_20180706_SDR_2K_AVC.mp4	0.0	96.29836916923523	
3	11.567546129226685	movie	1		165.0	1.0	2.5	/experiments/knapen_aot/videos/R_S_comp_A001_C001_120530_v04_SDR_FINAL_20180706_SDR_2K_AVC.mp4	0.0	96.30786609649658	2.5069689750671387
3	14.074515104293823	fix_post	2		12.0	1.0	2.5	/experiments/knapen_aot/videos/R_S_comp_A001_C001_120530_v04_SDR_FINAL_20180706_SDR_2K_AVC.mp4	0.0	98.81483507156372	0.09995293617248535
4	14.174468040466309	fix_pre	0		45.0	2.0	2.5	/experiments/knapen_aot/videos/S_yt-xBwq6sHHF5M_21.mp4	0.0	98.9147880077362	0.37505102157592773
4	14.541293144226074	response	0	4		2.0	2.5	/experiments/knapen_aot/videos/S_yt-xBwq6sHHF5M_21.mp4	0.0	99.28161311149597	
4	14.549519062042236	movie	1		301.0	2.0	2.5	/experiments/knapen_aot/videos/S_yt-xBwq6sHHF5M_21.mp4	0.0	99.28983902931213	2.5083179473876953
4	16.266193151474	response	1	4		2.0	2.5	/experiments/knapen_aot/videos/S_yt-xBwq6sHHF5M_21.mp4	0.0	101.0065131187439	
4	17.05783700942993	fix_post	2		12.0	2.0	2.5	/experiments/knapen_aot/videos/S_yt-xBwq6sHHF5M_21.mp4	0.0	101.79815697669983	0.09996604919433594
5	17.157803058624268	fix_pre	0		74.0	3.0	2.5	/experiments/knapen_aot/videos/R_S_yt-5fnd__rpWeE_396.mp4	0.0	101.89812302589417	0.6166329383850098
5	17.766337156295776	response	0	4		3.0	2.5	/experiments/knapen_aot/videos/R_S_yt-5fnd__rpWeE_396.mp4	0.0	102.50665712356567	
5	17.774435997009277	movie	1		301.0	3.0	2.5	/experiments/knapen_aot/videos/R_S_yt-5fnd__rpWeE_396.mp4	0.0	102.51475596427917	2.5083861351013184
5	20.282822132110596	fix_post	2		12.0	3.0	2.5	/experiments/knapen_aot/videos/R_S_yt-5fnd__rpWeE_396.mp4	0.0	105.0231420993805	0.10020995140075684
6	20.383032083511353	fix_pre	0		43.0	4.0	2.5	/experiments/knapen_aot/videos/R_S_yt-VJ65ukWmdxQ_193.mp4	0.0	105.12335205078125	0.35805511474609375
6	20.732938051223755	response	0	4		4.0	2.5	/experiments/knapen_aot/videos/R_S_yt-VJ65ukWmdxQ_193.mp4	0.0	105.47325801849365	
6	20.741087198257446	movie	1		301.0	4.0	2.5	/experiments/knapen_aot/videos/R_S_yt-VJ65ukWmdxQ_193.mp4	0.0	105.48140716552734	2.5083959102630615
6	23.249483108520508	fix_post	2		12.0	4.0	2.5	/experiments/knapen_aot/videos/R_S_yt-VJ65ukWmdxQ_193.mp4	0.0	107.9898030757904	0.10000109672546387
7	23.34948420524597	fix_pre	0		18.0	5.0	2.5	/experiments/knapen_aot/videos/R_S_Pexels_Videos_2795731.mp4	0.0	108.08980417251587	0.15000391006469727
7	23.49132513999939	response	0	4		5.0	2.5	/experiments/knapen_aot/videos/R_S_Pexels_Videos_2795731.mp4	0.0	108.23164510726929	
7	23.49948811531067	movie	1		164.0	5.0	2.5	/experiments/knapen_aot/videos/R_S_Pexels_Videos_2795731.mp4	0.0	108.23980808258057	2.508307933807373
7	24.023845195770264	response	1	4		5.0	2.5	/experiments/knapen_aot/videos/R_S_Pexels_Videos_2795731.mp4	0.0	108.76416516304016	
7	24.87347412109375	response	1	4		5.0	2.5	/experiments/knapen_aot/videos/R_S_Pexels_Videos_2795731.mp4	0.0	109.61379408836365	
7	26.007796049118042	fix_post	2		12.0	5.0	2.5	/experiments/knapen_aot/videos/R_S_Pexels_Videos_2795731.mp4	0.0	110.74811601638794	0.09994912147521973
8	26.10774517059326	fix_pre	0		47.0	6.0	2.5	blank	1.0	110.84806513786316	0.3917248249053955
8	26.49121618270874	response	0	4		6.0	2.5	blank	1.0	111.23153614997864	
8	26.499469995498657	movie	1		301.0	6.0	2.5	blank	1.0	111.23978996276855	2.508338212966919
8	28.70784616470337	response	1	4		6.0	2.5	blank	1.0	113.44816613197327	
8	29.007808208465576	fix_post	2		12.0	6.0	2.5	blank	1.0	113.74812817573547	0.0999457836151123
9	29.10775399208069	fix_pre	0		36.0	7.0	2.5	/experiments/knapen_aot/videos/R_S_b6-4.mp4	0.0	113.84807395935059	0.30002713203430176
9	29.39956021308899	response	0	4		7.0	2.5	/experiments/knapen_aot/videos/R_S_b6-4.mp4	0.0	114.13988018035889	
9	29.40778112411499	movie	1		166.0	7.0	2.5	/experiments/knapen_aot/videos/R_S_b6-4.mp4	0.0	114.14810109138489	2.5083138942718506
9	31.007909059524536	response	1	4		7.0	2.5	/experiments/knapen_aot/videos/R_S_b6-4.mp4	0.0	115.74822902679443	
9	31.882853984832764	response	1	4		7.0	2.5	/experiments/knapen_aot/videos/R_S_b6-4.mp4	0.0	116.62317395210266	
9	31.91609501838684	fix_post	2		12.0	7.0	2.5	/experiments/knapen_aot/videos/R_S_b6-4.mp4	0.0	116.65641498565674	0.10005903244018555
10	32.016154050827026	fix_pre	0		35.0	8.0	2.5	/experiments/knapen_aot/videos/S_comp_LW_L001_C003__PSNK_DENOISE_v04_SDR_PS_FINAL_20180803_SDR_2K_AVC.mp4	0.0	116.75647401809692	0.29163408279418945
10	32.29946708679199	response	0	4		8.0	2.5	/experiments/knapen_aot/videos/S_comp_LW_L001_C003__PSNK_DENOISE_v04_SDR_PS_FINAL_20180803_SDR_2K_AVC.mp4	0.0	117.03978705406189	
10	32.307788133621216	movie	1		167.0	8.0	2.5	/experiments/knapen_aot/videos/S_comp_LW_L001_C003__PSNK_DENOISE_v04_SDR_PS_FINAL_20180803_SDR_2K_AVC.mp4	0.0	117.04810810089111	2.508234977722168
10	34.816023111343384	fix_post	2		12.0	8.0	2.5	/experiments/knapen_aot/videos/S_comp_LW_L001_C003__PSNK_DENOISE_v04_SDR_PS_FINAL_20180803_SDR_2K_AVC.mp4	0.0	119.55634307861328	0.10009193420410156
11	34.916115045547485	fix_pre	0		243.0	9.0	2.5	/experiments/knapen_aot/videos/R_S_ILSVRC2015_train_00251005.mp4	0.0	119.65643501281738	2.026167154312134
11	36.93291616439819	response	0	4		9.0	2.5	/experiments/knapen_aot/videos/R_S_ILSVRC2015_train_00251005.mp4	0.0	121.67323613166809	
11	36.94228219985962	movie	1		301.0	9.0	2.5	/experiments/knapen_aot/videos/R_S_ILSVRC2015_train_00251005.mp4	0.0	121.68260216712952	2.5071299076080322
11	37.94954705238342	response	1	4		9.0	2.5	/experiments/knapen_aot/videos/R_S_ILSVRC2015_train_00251005.mp4	0.0	122.68986701965332	
11	39.44941210746765	fix_post	2		12.0	9.0	2.5	/experiments/knapen_aot/videos/R_S_ILSVRC2015_train_00251005.mp4	0.0	124.18973207473755	0.10002803802490234
12	39.549440145492554	fix_pre	0		326.0	10.0	2.5	/experiments/knapen_aot/videos/S_yt-WRBmpC-RxIc_678.mp4	0.0	124.28976011276245	2.7166080474853516
12	42.25778317451477	response	0	4		10.0	2.5	/experiments/knapen_aot/videos/S_yt-WRBmpC-RxIc_678.mp4	0.0	126.99810314178467	
12	42.266048192977905	movie	1		301.0	10.0	2.5	/experiments/knapen_aot/videos/S_yt-WRBmpC-RxIc_678.mp4	0.0	127.0063681602478	2.508309841156006
12	44.53280305862427	response	1	4		10.0	2.5	/experiments/knapen_aot/videos/S_yt-WRBmpC-RxIc_678.mp4	0.0	129.27312302589417	
12	44.77435803413391	fix_post	2		12.0	10.0	2.5	/experiments/knapen_aot/videos/S_yt-WRBmpC-RxIc_678.mp4	0.0	129.5146780014038	0.10003995895385742
13	44.87439799308777	fix_pre	0		163.0	11.0	2.5	/experiments/knapen_aot/videos/S_yt-738MRS0yI6g_177.mp4	0.0	129.61471796035767	1.3594801425933838
13	46.22449517250061	response	0	4		11.0	2.5	/experiments/knapen_aot/videos/S_yt-738MRS0yI6g_177.mp4	0.0	130.9648151397705	
13	46.23387813568115	movie	1		301.0	11.0	2.5	/experiments/knapen_aot/videos/S_yt-738MRS0yI6g_177.mp4	0.0	130.97419810295105	2.507138967514038
13	47.53278613090515	response	1	4		11.0	2.5	/experiments/knapen_aot/videos/S_yt-738MRS0yI6g_177.mp4	0.0	132.27310609817505	
13	48.532902002334595	response	1	4		11.0	2.5	/experiments/knapen_aot/videos/S_yt-738MRS0yI6g_177.mp4	0.0	133.2732219696045	
13	48.74101710319519	fix_post	2		12.0	11.0	2.5	/experiments/knapen_aot/videos/S_yt-738MRS0yI6g_177.mp4	0.0	133.4813370704651	0.10000991821289062
14	48.84102702140808	fix_pre	0		246.0	12.0	2.5	/experiments/knapen_aot/videos/S_production_ID_4787635.mp4	0.0	133.58134698867798	2.0499370098114014
14	50.88275599479675	response	0	4		12.0	2.5	/experiments/knapen_aot/videos/S_production_ID_4787635.mp4	0.0	135.62307596206665	
14	50.89096403121948	movie	1		163.0	12.0	2.5	/experiments/knapen_aot/videos/S_production_ID_4787635.mp4	0.0	135.63128399848938	2.5083789825439453
14	52.56566619873047	response	1	4		12.0	2.5	/experiments/knapen_aot/videos/S_production_ID_4787635.mp4	0.0	137.30598616600037	
14	53.39934301376343	fix_post	2		12.0	12.0	2.5	/experiments/knapen_aot/videos/S_production_ID_4787635.mp4	0.0	138.13966298103333	0.10000920295715332
15	53.49935221672058	fix_pre	0		13.0	13.0	2.5	/experiments/knapen_aot/videos/S_yt-_zDYi2P-QxY_128.mp4	0.0	138.23967218399048	0.10942983627319336
15	53.59945011138916	response	0	4		13.0	2.5	/experiments/knapen_aot/videos/S_yt-_zDYi2P-QxY_128.mp4	0.0	138.33977007865906	
15	53.608782052993774	movie	1		301.0	13.0	2.5	/experiments/knapen_aot/videos/S_yt-_zDYi2P-QxY_128.mp4	0.0	138.34910202026367	2.5072031021118164
15	54.12441802024841	response	1	4		13.0	2.5	/experiments/knapen_aot/videos/S_yt-_zDYi2P-QxY_128.mp4	0.0	138.8647379875183	
15	55.05785799026489	response	1	4		13.0	2.5	/experiments/knapen_aot/videos/S_yt-_zDYi2P-QxY_128.mp4	0.0	139.7981779575348	
15	56.11598515510559	fix_post	2		12.0	13.0	2.5	/experiments/knapen_aot/videos/S_yt-_zDYi2P-QxY_128.mp4	0.0	140.8563051223755	0.09997200965881348
16	56.215957164764404	fix_pre	0		115.0	14.0	2.5	blank	1.0	140.9562771320343	0.9583609104156494
16	57.166115045547485	response	0	4		14.0	2.5	blank	1.0	141.90643501281738	
16	57.174318075180054	movie	1		301.0	14.0	2.5	blank	1.0	141.91463804244995	2.5082929134368896
16	58.80775213241577	response	1	4		14.0	2.5	blank	1.0	143.54807209968567	
16	59.68261098861694	fix_post	2		12.0	14.0	2.5	blank	1.0	144.42293095588684	0.10001707077026367
17	59.78262805938721	fix_pre	0		86.0	15.0	2.5	/experiments/knapen_aot/videos/S_yt-CR86bVrRwfo_13.mp4	0.0	144.5229480266571	0.7165970802307129
17	60.49112606048584	response	0	4		15.0	2.5	/experiments/knapen_aot/videos/S_yt-CR86bVrRwfo_13.mp4	0.0	145.23144602775574	
17	60.49922513961792	movie	1		301.0	15.0	2.5	/experiments/knapen_aot/videos/S_yt-CR86bVrRwfo_13.mp4	0.0	145.23954510688782	2.5084340572357178
17	63.00765919685364	fix_post	2		12.0	15.0	2.5	/experiments/knapen_aot/videos/S_yt-CR86bVrRwfo_13.mp4	0.0	147.74797916412354	0.09999394416809082
18	63.10765314102173	fix_pre	0		27.0	16.0	2.5	/experiments/knapen_aot/videos/S_yt-dqcUJzNOzbM_156.mp4	0.0	147.84797310829163	0.22498202323913574
18	63.32451319694519	response	0	4		16.0	2.5	/experiments/knapen_aot/videos/S_yt-dqcUJzNOzbM_156.mp4	0.0	148.0648331642151	
18	63.332635164260864	movie	1		301.0	16.0	2.5	/experiments/knapen_aot/videos/S_yt-dqcUJzNOzbM_156.mp4	0.0	148.07295513153076	2.5082778930664062
18	65.80779719352722	response	1	4		16.0	2.5	/experiments/knapen_aot/videos/S_yt-dqcUJzNOzbM_156.mp4	0.0	150.54811716079712	
18	65.84091305732727	fix_post	2		12.0	16.0	2.5	/experiments/knapen_aot/videos/S_yt-dqcUJzNOzbM_156.mp4	0.0	150.58123302459717	0.09995412826538086
19	65.94086718559265	fix_pre	0		252.0	17.0	2.5	/experiments/knapen_aot/videos/S_yt-Ozx_f0a0ZDI_32.mp4	0.0	150.68118715286255	2.1000277996063232
19	68.03275918960571	response	0	4		17.0	2.5	/experiments/knapen_aot/videos/S_yt-Ozx_f0a0ZDI_32.mp4	0.0	152.7730791568756	
19	68.04089498519897	movie	1		301.0	17.0	2.5	/experiments/knapen_aot/videos/S_yt-Ozx_f0a0ZDI_32.mp4	0.0	152.78121495246887	2.5083811283111572
19	69.41613411903381	response	1	4		17.0	2.5	/experiments/knapen_aot/videos/S_yt-Ozx_f0a0ZDI_32.mp4	0.0	154.1564540863037	
19	70.54927611351013	fix_post	2		12.0	17.0	2.5	/experiments/knapen_aot/videos/S_yt-Ozx_f0a0ZDI_32.mp4	0.0	155.28959608078003	0.09996509552001953
20	70.64924120903015	fix_pre	0		15.0	18.0	2.5	/experiments/knapen_aot/videos/R_S_yt-7e6Z9QQieAk_183.mp4	0.0	155.38956117630005	0.1260819435119629
20	70.7660071849823	response	0	4		18.0	2.5	/experiments/knapen_aot/videos/R_S_yt-7e6Z9QQieAk_183.mp4	0.0	155.5063271522522	
20	70.77532315254211	movie	1		301.0	18.0	2.5	/experiments/knapen_aot/videos/R_S_yt-7e6Z9QQieAk_183.mp4	0.0	155.515643119812	2.5073609352111816
20	73.2826840877533	fix_post	2		12.0	18.0	2.5	/experiments/knapen_aot/videos/R_S_yt-7e6Z9QQieAk_183.mp4	0.0	158.0230040550232	0.09991598129272461
21	73.38260006904602	fix_pre	0		163.0	19.0	2.5	blank	1.0	158.12292003631592	1.358307123184204
21	74.73276209831238	response	0	4		19.0	2.5	blank	1.0	159.47308206558228	
21	74.74090719223022	movie	1		301.0	19.0	2.5	blank	1.0	159.48122715950012	2.5083649158477783
21	76.44100618362427	response	1	4		19.0	2.5	blank	1.0	161.18132615089417	
21	77.249272108078	fix_post	2		12.0	19.0	2.5	blank	1.0	161.9895920753479	0.0999898910522461
22	77.34926199913025	fix_pre	0		31.0	20.0	2.5	/experiments/knapen_aot/videos/S_pexels-tima-miroshnichenko-5717005.mp4	0.0	162.08958196640015	0.25935816764831543
22	77.59931707382202	response	0	4		20.0	2.5	/experiments/knapen_aot/videos/S_pexels-tima-miroshnichenko-5717005.mp4	0.0	162.33963704109192	
22	77.60862016677856	movie	1		161.0	20.0	2.5	/experiments/knapen_aot/videos/S_pexels-tima-miroshnichenko-5717005.mp4	0.0	162.34894013404846	2.5072219371795654
22	80.11584210395813	fix_post	2		12.0	20.0	2.5	/experiments/knapen_aot/videos/S_pexels-tima-miroshnichenko-5717005.mp4	0.0	164.85616207122803	0.0999910831451416
23	80.21583318710327	fix_pre	0		30.0	21.0	2.5	/experiments/knapen_aot/videos/S_wc-PqINyFk_ku4u_18.mp4	0.0	164.95615315437317	0.25000786781311035
23	80.45771813392639	response	0	4		21.0	2.5	/experiments/knapen_aot/videos/S_wc-PqINyFk_ku4u_18.mp4	0.0	165.1980381011963	
23	80.46584105491638	movie	1		159.0	21.0	2.5	/experiments/knapen_aot/videos/S_wc-PqINyFk_ku4u_18.mp4	0.0	165.20616102218628	2.5083730220794678
23	82.97421407699585	fix_post	2		12.0	21.0	2.5	/experiments/knapen_aot/videos/S_wc-PqINyFk_ku4u_18.mp4	0.0	167.71453404426575	0.0999600887298584
24	83.07417416572571	fix_pre	0		147.0	22.0	2.5	/experiments/knapen_aot/videos/S_dwi2oPzQ1Wo_48.mp4	0.0	167.8144941329956	1.2250418663024902
24	84.29100513458252	response	0	4		22.0	2.5	/experiments/knapen_aot/videos/S_dwi2oPzQ1Wo_48.mp4	0.0	169.03132510185242	
24	84.2992160320282	movie	1		301.0	22.0	2.5	/experiments/knapen_aot/videos/S_dwi2oPzQ1Wo_48.mp4	0.0	169.0395359992981	2.5083260536193848
24	85.69205498695374	response	1	4		22.0	2.5	/experiments/knapen_aot/videos/S_dwi2oPzQ1Wo_48.mp4	0.0	170.43237495422363	
24	86.80754208564758	fix_post	2		12.0	22.0	2.5	/experiments/knapen_aot/videos/S_dwi2oPzQ1Wo_48.mp4	0.0	171.54786205291748	0.09997105598449707
25	86.90751314163208	fix_pre	0		146.0	23.0	2.5	/experiments/knapen_aot/videos/R_S_yt-yyIimWrvRyI_246.mp4	0.0	171.64783310890198	1.2167398929595947
25	88.11597609519958	response	0	4		23.0	2.5	/experiments/knapen_aot/videos/R_S_yt-yyIimWrvRyI_246.mp4	0.0	172.85629606246948	
25	88.12425303459167	movie	1		300.0	23.0	2.5	/experiments/knapen_aot/videos/R_S_yt-yyIimWrvRyI_246.mp4	0.0	172.86457300186157	2.508268117904663
25	90.63252115249634	fix_post	2		12.0	23.0	2.5	/experiments/knapen_aot/videos/R_S_yt-yyIimWrvRyI_246.mp4	0.0	175.37284111976624	0.10000395774841309
26	90.73252511024475	fix_pre	0		17.0	24.0	2.5	/experiments/knapen_aot/videos/S_yt-KV8X9IBWuJk_48.mp4	0.0	175.47284507751465	0.14178109169006348
26	90.86592817306519	response	0	4		24.0	2.5	/experiments/knapen_aot/videos/S_yt-KV8X9IBWuJk_48.mp4	0.0	175.60624814033508	
26	90.87430620193481	movie	1		301.0	24.0	2.5	/experiments/knapen_aot/videos/S_yt-KV8X9IBWuJk_48.mp4	0.0	175.6146261692047	2.508222818374634
26	91.26835918426514	response	1	4		24.0	2.5	/experiments/knapen_aot/videos/S_yt-KV8X9IBWuJk_48.mp4	0.0	176.00867915153503	
26	92.20759201049805	response	1	4		24.0	2.5	/experiments/knapen_aot/videos/S_yt-KV8X9IBWuJk_48.mp4	0.0	176.94791197776794	
26	92.52519416809082	response	1	4		24.0	2.5	/experiments/knapen_aot/videos/S_yt-KV8X9IBWuJk_48.mp4	0.0	177.26551413536072	
26	93.38252902030945	fix_post	2		12.0	24.0	2.5	/experiments/knapen_aot/videos/S_yt-KV8X9IBWuJk_48.mp4	0.0	178.12284898757935	0.09998297691345215
27	93.4825119972229	fix_pre	0		23.0	25.0	2.5	/experiments/knapen_aot/videos/S_yt-0Zze3Ff12Ys_58.mp4	0.0	178.2228319644928	0.1916501522064209
27	93.66591119766235	response	0	4		25.0	2.5	/experiments/knapen_aot/videos/S_yt-0Zze3Ff12Ys_58.mp4	0.0	178.40623116493225	
27	93.67416214942932	movie	1		301.0	25.0	2.5	/experiments/knapen_aot/videos/S_yt-0Zze3Ff12Ys_58.mp4	0.0	178.41448211669922	2.5083608627319336
27	96.18252301216125	fix_post	2		12.0	25.0	2.5	/experiments/knapen_aot/videos/S_yt-0Zze3Ff12Ys_58.mp4	0.0	180.92284297943115	0.09999203681945801
28	96.28251504898071	fix_pre	0		27.0	26.0	2.5	/experiments/knapen_aot/videos/R_S_pexels-c-technical-6763571.mp4	0.0	181.0228350162506	0.22493195533752441
28	96.49930810928345	response	0	4		26.0	2.5	/experiments/knapen_aot/videos/R_S_pexels-c-technical-6763571.mp4	0.0	181.23962807655334	
28	96.50744700431824	movie	1		201.0	26.0	2.5	/experiments/knapen_aot/videos/R_S_pexels-c-technical-6763571.mp4	0.0	181.24776697158813	2.5082931518554688
28	98.13089203834534	response	1	4		26.0	2.5	/experiments/knapen_aot/videos/R_S_pexels-c-technical-6763571.mp4	0.0	182.87121200561523	
28	99.0157401561737	fix_post	2		12.0	26.0	2.5	/experiments/knapen_aot/videos/R_S_pexels-c-technical-6763571.mp4	0.0	183.7560601234436	0.10008502006530762
28	99.10009121894836	response	2	4		26.0	2.5	/experiments/knapen_aot/videos/R_S_pexels-c-technical-6763571.mp4	0.0	183.84041118621826	
29	99.11582517623901	fix_pre	0		46.0	27.0	2.5	blank	1.0	183.8561451435089	0.3832988739013672
29	99.4908561706543	response	0	4		27.0	2.5	blank	1.0	184.2311761379242	
29	99.49912405014038	movie	1		301.0	27.0	2.5	blank	1.0	184.23944401741028	2.508324146270752
29	102.00744819641113	fix_post	2		12.0	27.0	2.5	blank	1.0	186.74776816368103	0.10002398490905762
30	102.10747218132019	fix_pre	0		60.0	28.0	2.5	/experiments/knapen_aot/videos/R_S_comp_HK_H004_C001_PSNK_DENOISE_v14_SDR_PS_FINAL_20180731_SDR_2K_AVC.mp4	0.0	186.8477921485901	0.5008668899536133
30	102.5992910861969	response	0	4		28.0	2.5	/experiments/knapen_aot/videos/R_S_comp_HK_H004_C001_PSNK_DENOISE_v14_SDR_PS_FINAL_20180731_SDR_2K_AVC.mp4	0.0	187.3396110534668	
30	102.6083390712738	movie	1		167.0	28.0	2.5	/experiments/knapen_aot/videos/R_S_comp_HK_H004_C001_PSNK_DENOISE_v14_SDR_PS_FINAL_20180731_SDR_2K_AVC.mp4	0.0	187.3486590385437	2.507343053817749
30	103.21593809127808	response	1	4		28.0	2.5	/experiments/knapen_aot/videos/R_S_comp_HK_H004_C001_PSNK_DENOISE_v14_SDR_PS_FINAL_20180731_SDR_2K_AVC.mp4	0.0	187.95625805854797	
30	104.70614910125732	response	1	4		28.0	2.5	/experiments/knapen_aot/videos/R_S_comp_HK_H004_C001_PSNK_DENOISE_v14_SDR_PS_FINAL_20180731_SDR_2K_AVC.mp4	0.0	189.44646906852722	
30	105.11568212509155	fix_post	2		12.0	28.0	2.5	/experiments/knapen_aot/videos/R_S_comp_HK_H004_C001_PSNK_DENOISE_v14_SDR_PS_FINAL_20180731_SDR_2K_AVC.mp4	0.0	189.85600209236145	0.10010004043579102
31	105.21578216552734	fix_pre	0		29.0	29.0	2.5	/experiments/knapen_aot/videos/S_yt-XtzmBXKYEWk_60.mp4	0.0	189.95610213279724	0.24162793159484863
31	105.44920802116394	response	0	4		29.0	2.5	/experiments/knapen_aot/videos/S_yt-XtzmBXKYEWk_60.mp4	0.0	190.18952798843384	
31	105.45741009712219	movie	1		301.0	29.0	2.5	/experiments/knapen_aot/videos/S_yt-XtzmBXKYEWk_60.mp4	0.0	190.1977300643921	2.508344888687134
31	107.96575498580933	fix_post	2		12.0	29.0	2.5	/experiments/knapen_aot/videos/S_yt-XtzmBXKYEWk_60.mp4	0.0	192.70607495307922	0.09995317459106445
32	108.06570816040039	fix_pre	0		33.0	30.0	2.5	/experiments/knapen_aot/videos/R_S_yt-etF_WUW5D68_3.mp4	0.0	192.8060281276703	0.27498483657836914
32	108.33255910873413	response	0	4		30.0	2.5	/experiments/knapen_aot/videos/R_S_yt-etF_WUW5D68_3.mp4	0.0	193.07287907600403	
32	108.34069299697876	movie	1		301.0	30.0	2.5	/experiments/knapen_aot/videos/R_S_yt-etF_WUW5D68_3.mp4	0.0	193.08101296424866	2.5083200931549072
32	110.0408411026001	response	1	4		30.0	2.5	/experiments/knapen_aot/videos/R_S_yt-etF_WUW5D68_3.mp4	0.0	194.78116106987	
32	110.84901309013367	fix_post	2		12.0	30.0	2.5	/experiments/knapen_aot/videos/R_S_yt-etF_WUW5D68_3.mp4	0.0	195.58933305740356	0.10011005401611328
33	110.94912314414978	fix_pre	0		19.0	31.0	2.5	/experiments/knapen_aot/videos/S_yt-w_e3sxIzepA_115.mp4	0.0	195.68944311141968	0.15914201736450195
33	111.0993549823761	response	0	4		31.0	2.5	/experiments/knapen_aot/videos/S_yt-w_e3sxIzepA_115.mp4	0.0	195.839674949646	
33	111.10826516151428	movie	1		301.0	31.0	2.5	/experiments/knapen_aot/videos/S_yt-w_e3sxIzepA_115.mp4	0.0	195.84858512878418	2.5074498653411865
33	113.61571502685547	fix_post	2		12.0	31.0	2.5	/experiments/knapen_aot/videos/S_yt-w_e3sxIzepA_115.mp4	0.0	198.35603499412537	0.10004401206970215
34	113.71575903892517	fix_pre	0		65.0	32.0	2.5	/experiments/knapen_aot/videos/S_yt-7VVzNnp36DM_62.mp4	0.0	198.45607900619507	0.5416150093078613
34	114.24920606613159	response	0	4		32.0	2.5	/experiments/knapen_aot/videos/S_yt-7VVzNnp36DM_62.mp4	0.0	198.9895260334015	
34	114.25737404823303	movie	1		300.0	32.0	2.5	/experiments/knapen_aot/videos/S_yt-7VVzNnp36DM_62.mp4	0.0	198.99769401550293	2.508310079574585
34	115.51085710525513	response	1	4		32.0	2.5	/experiments/knapen_aot/videos/S_yt-7VVzNnp36DM_62.mp4	0.0	200.25117707252502	
34	116.76568412780762	fix_post	2		12.0	32.0	2.5	/experiments/knapen_aot/videos/S_yt-7VVzNnp36DM_62.mp4	0.0	201.50600409507751	0.10004997253417969
34	116.79926013946533	response	2	4		32.0	2.5	/experiments/knapen_aot/videos/S_yt-7VVzNnp36DM_62.mp4	0.0	201.53958010673523	
35	116.8657341003418	fix_pre	0		393.0	33.0	2.5	/experiments/knapen_aot/videos/S_yt-kXarkCFJLeg_46.mp4	0.0	201.6060540676117	3.274972915649414
35	120.13250613212585	response	0	4		33.0	2.5	/experiments/knapen_aot/videos/S_yt-kXarkCFJLeg_46.mp4	0.0	204.87282609939575	
35	120.14070701599121	movie	1		301.0	33.0	2.5	/experiments/knapen_aot/videos/S_yt-kXarkCFJLeg_46.mp4	0.0	204.8810269832611	2.5083131790161133
35	122.64902019500732	fix_post	2		12.0	33.0	2.5	/experiments/knapen_aot/videos/S_yt-kXarkCFJLeg_46.mp4	0.0	207.38934016227722	0.10003280639648438
36	122.74905300140381	fix_pre	0		227.0	34.0	2.5	blank	1.0	207.4893729686737	1.891638994216919
36	124.6324520111084	response	0	4		34.0	2.5	blank	1.0	209.3727719783783	
36	124.64069199562073	movie	1		301.0	34.0	2.5	blank	1.0	209.38101196289062	2.5083370208740234
36	126.14078712463379	response	1	4		34.0	2.5	blank	1.0	210.8811070919037	
36	127.14902901649475	fix_post	2		12.0	34.0	2.5	blank	1.0	211.88934898376465	0.10003209114074707
37	127.2490611076355	fix_pre	0		46.0	35.0	2.5	/experiments/knapen_aot/videos/S_yt-0d5TkclKWVA_146.mp4	0.0	211.9893810749054	0.39158105850219727
37	127.63242411613464	response	0	4		35.0	2.5	/experiments/knapen_aot/videos/S_yt-0d5TkclKWVA_146.mp4	0.0	212.37274408340454	
37	127.6406421661377	movie	1		301.0	35.0	2.5	/experiments/knapen_aot/videos/S_yt-0d5TkclKWVA_146.mp4	0.0	212.3809621334076	2.5083329677581787
37	130.14897513389587	fix_post	2		12.0	35.0	2.5	/experiments/knapen_aot/videos/S_yt-0d5TkclKWVA_146.mp4	0.0	214.88929510116577	0.10000491142272949
38	130.2489800453186	fix_pre	0		44.0	36.0	2.5	/experiments/knapen_aot/videos/S_yt-xqjVM0Vj4mI_161.mp4	0.0	214.9893000125885	0.3667171001434326
38	130.60749912261963	response	0	4		36.0	2.5	/experiments/knapen_aot/videos/S_yt-xqjVM0Vj4mI_161.mp4	0.0	215.34781908988953	
38	130.61569714546204	movie	1		300.0	36.0	2.5	/experiments/knapen_aot/videos/S_yt-xqjVM0Vj4mI_161.mp4	0.0	215.35601711273193	2.5082249641418457
38	133.12392210960388	fix_post	2		12.0	36.0	2.5	/experiments/knapen_aot/videos/S_yt-xqjVM0Vj4mI_161.mp4	0.0	217.86424207687378	0.10002994537353516
39	133.22395205497742	fix_pre	0		58.0	37.0	2.5	/experiments/knapen_aot/videos/R_S_video_inspire_california_big-sur_landscape_054.1080-h264.mp4	0.0	217.96427202224731	0.48334693908691406
39	133.69907116889954	response	0	4		37.0	2.5	/experiments/knapen_aot/videos/R_S_video_inspire_california_big-sur_landscape_054.1080-h264.mp4	0.0	218.43939113616943	
39	133.70729899406433	movie	1		171.0	37.0	2.5	/experiments/knapen_aot/videos/R_S_video_inspire_california_big-sur_landscape_054.1080-h264.mp4	0.0	218.44761896133423	2.5083861351013184
39	136.21568512916565	fix_post	2		12.0	37.0	2.5	/experiments/knapen_aot/videos/R_S_video_inspire_california_big-sur_landscape_054.1080-h264.mp4	0.0	220.95600509643555	0.09991908073425293
40	136.3156042098999	fix_pre	0		9.0	38.0	2.5	/experiments/knapen_aot/videos/S_yt-T1mMDOVjvrE_83.mp4	0.0	221.0559241771698	0.07501983642578125
40	136.38244318962097	response	0	4		38.0	2.5	/experiments/knapen_aot/videos/S_yt-T1mMDOVjvrE_83.mp4	0.0	221.12276315689087	
40	136.39062404632568	movie	1		301.0	38.0	2.5	/experiments/knapen_aot/videos/S_yt-T1mMDOVjvrE_83.mp4	0.0	221.13094401359558	2.5083329677581787
40	138.89895701408386	fix_post	2		12.0	38.0	2.5	/experiments/knapen_aot/videos/S_yt-T1mMDOVjvrE_83.mp4	0.0	223.63927698135376	0.10004806518554688
41	138.9990050792694	fix_pre	0		100.0	39.0	2.5	/experiments/knapen_aot/videos/R_S_pexels-ekaterina-bolovtsova-7669220.mp4	0.0	223.7393250465393	0.8332920074462891
41	139.8241732120514	response	0	4		39.0	2.5	/experiments/knapen_aot/videos/R_S_pexels-ekaterina-bolovtsova-7669220.mp4	0.0	224.5644931793213	
41	139.8322970867157	movie	1		163.0	39.0	2.5	/experiments/knapen_aot/videos/R_S_pexels-ekaterina-bolovtsova-7669220.mp4	0.0	224.5726170539856	2.5083401203155518
41	142.34063720703125	fix_post	2		12.0	39.0	2.5	/experiments/knapen_aot/videos/R_S_pexels-ekaterina-bolovtsova-7669220.mp4	0.0	227.08095717430115	0.09998083114624023
42	142.4406180381775	fix_pre	0		35.0	40.0	2.5	/experiments/knapen_aot/videos/R_S_wc-b4Oquu3WQPRz_45.mp4	0.0	227.1809380054474	0.29235315322875977
42	142.7165641784668	response	0	4		40.0	2.5	/experiments/knapen_aot/videos/R_S_wc-b4Oquu3WQPRz_45.mp4	0.0	227.4568841457367	
42	142.73297119140625	movie	1		168.0	40.0	2.5	/experiments/knapen_aot/videos/R_S_wc-b4Oquu3WQPRz_45.mp4	0.0	227.47329115867615	2.5075888633728027
42	145.24056005477905	fix_post	2		12.0	40.0	2.5	/experiments/knapen_aot/videos/R_S_wc-b4Oquu3WQPRz_45.mp4	0.0	229.98088002204895	0.1000969409942627
43	145.34065699577332	fix_pre	0		55.0	41.0	2.5	/experiments/knapen_aot/videos/R_S_pexels-cottonbro-10639398.mp4	0.0	230.0809769630432	0.4583151340484619
43	145.79080820083618	response	0	4		41.0	2.5	/experiments/knapen_aot/videos/R_S_pexels-cottonbro-10639398.mp4	0.0	230.53112816810608	
43	145.79897212982178	movie	1		198.0	41.0	2.5	/experiments/knapen_aot/videos/R_S_pexels-cottonbro-10639398.mp4	0.0	230.53929209709167	2.5083529949188232
43	148.3073251247406	fix_post	2		12.0	41.0	2.5	/experiments/knapen_aot/videos/R_S_pexels-cottonbro-10639398.mp4	0.0	233.0476450920105	0.09999799728393555
44	148.40732312202454	fix_pre	0		83.0	42.0	2.5	blank	1.0	233.14764308929443	0.6916699409484863
44	149.09080600738525	response	0	4		42.0	2.5	blank	1.0	233.83112597465515	
44	149.09899306297302	movie	1		301.0	42.0	2.5	blank	1.0	233.83931303024292	2.508258104324341
44	150.85734605789185	response	1	4		42.0	2.5	blank	1.0	235.59766602516174	
44	151.60725116729736	fix_post	2		12.0	42.0	2.5	blank	1.0	236.34757113456726	0.09996294975280762
45	151.70721411705017	fix_pre	0		29.0	43.0	2.5	/experiments/knapen_aot/videos/S_pexels-ekaterina-bolovtsova-7669220.mp4	0.0	236.44753408432007	0.24170494079589844
45	151.94067001342773	response	0	4		43.0	2.5	/experiments/knapen_aot/videos/S_pexels-ekaterina-bolovtsova-7669220.mp4	0.0	236.68098998069763	
45	151.94891905784607	movie	1		164.0	43.0	2.5	/experiments/knapen_aot/videos/S_pexels-ekaterina-bolovtsova-7669220.mp4	0.0	236.68923902511597	2.5083439350128174
45	154.4572629928589	fix_post	2		12.0	43.0	2.5	/experiments/knapen_aot/videos/S_pexels-ekaterina-bolovtsova-7669220.mp4	0.0	239.19758296012878	0.09996604919433594
46	154.55722904205322	fix_pre	0		26.0	44.0	2.5	/experiments/knapen_aot/videos/S_video_inspire_california_big-sur_bixby_005.1080-h264.mp4	0.0	239.29754900932312	0.21727800369262695
46	154.76564407348633	response	0	4		44.0	2.5	/experiments/knapen_aot/videos/S_video_inspire_california_big-sur_bixby_005.1080-h264.mp4	0.0	239.50596404075623	
46	154.77450704574585	movie	1		168.0	44.0	2.5	/experiments/knapen_aot/videos/S_video_inspire_california_big-sur_bixby_005.1080-h264.mp4	0.0	239.51482701301575	2.507689952850342
46	157.2821969985962	fix_post	2		12.0	44.0	2.5	/experiments/knapen_aot/videos/S_video_inspire_california_big-sur_bixby_005.1080-h264.mp4	0.0	242.0225169658661	0.10002517700195312
46	157.32577919960022	response	2	4		44.0	2.5	/experiments/knapen_aot/videos/S_video_inspire_california_big-sur_bixby_005.1080-h264.mp4	0.0	242.06609916687012	
47	157.38222217559814	fix_pre	0		42.0	45.0	2.5	/experiments/knapen_aot/videos/S_pexels-c-technical-6763571.mp4	0.0	242.12254214286804	0.35056591033935547
47	157.72395706176758	response	0	4		45.0	2.5	/experiments/knapen_aot/videos/S_pexels-c-technical-6763571.mp4	0.0	242.46427702903748	
47	157.7327880859375	movie	1		186.0	45.0	2.5	/experiments/knapen_aot/videos/S_pexels-c-technical-6763571.mp4	0.0	242.4731080532074	2.507786989212036
47	160.24057507514954	fix_post	2		12.0	45.0	2.5	/experiments/knapen_aot/videos/S_pexels-c-technical-6763571.mp4	0.0	244.98089504241943	0.10007095336914062
48	160.34064602851868	fix_pre	0		75.0	46.0	2.5	/experiments/knapen_aot/videos/R_S_ILSVRC2015_train_00471000.mp4	0.0	245.08096599578857	0.6248681545257568
48	160.9573450088501	response	0	4		46.0	2.5	/experiments/knapen_aot/videos/R_S_ILSVRC2015_train_00471000.mp4	0.0	245.69766497612	
48	160.96551418304443	movie	1		301.0	46.0	2.5	/experiments/knapen_aot/videos/R_S_ILSVRC2015_train_00471000.mp4	0.0	245.70583415031433	2.5082828998565674
48	161.29073810577393	response	1	4		46.0	2.5	/experiments/knapen_aot/videos/R_S_ILSVRC2015_train_00471000.mp4	0.0	246.03105807304382	
48	163.473797082901	fix_post	2		12.0	46.0	2.5	/experiments/knapen_aot/videos/R_S_ILSVRC2015_train_00471000.mp4	0.0	248.2141170501709	0.10004806518554688
49	163.57384514808655	fix_pre	0		18.0	47.0	2.5	blank	1.0	248.31416511535645	0.1499929428100586
49	163.71571016311646	response	0	4		47.0	2.5	blank	1.0	248.45603013038635	
49	163.7238380908966	movie	1		301.0	47.0	2.5	blank	1.0	248.4641580581665	2.508347988128662
49	166.23218607902527	fix_post	2		12.0	47.0	2.5	blank	1.0	250.97250604629517	0.09991908073425293
50	166.33210515975952	fix_pre	0		36.0	48.0	2.5	/experiments/knapen_aot/videos/R_S_pexels-rodnae-productions-5993654.mp4	0.0	251.07242512702942	0.30007100105285645
50	166.62390112876892	response	0	4		48.0	2.5	/experiments/knapen_aot/videos/R_S_pexels-rodnae-productions-5993654.mp4	0.0	251.36422109603882	
50	166.63217616081238	movie	1		164.0	48.0	2.5	/experiments/knapen_aot/videos/R_S_pexels-rodnae-productions-5993654.mp4	0.0	251.37249612808228	2.508283853530884
50	168.98661518096924	response	1	4		48.0	2.5	/experiments/knapen_aot/videos/R_S_pexels-rodnae-productions-5993654.mp4	0.0	253.72693514823914	
50	169.14046001434326	fix_post	2		12.0	48.0	2.5	/experiments/knapen_aot/videos/R_S_pexels-rodnae-productions-5993654.mp4	0.0	253.88077998161316	0.1001579761505127
51	169.24061799049377	fix_pre	0		37.0	49.0	2.5	/experiments/knapen_aot/videos/R_S_video_inspire_california_big-sur_bixby_005.1080-h264.mp4	0.0	253.98093795776367	0.3081951141357422
51	169.5405671596527	response	0	4		49.0	2.5	/experiments/knapen_aot/videos/R_S_video_inspire_california_big-sur_bixby_005.1080-h264.mp4	0.0	254.2808871269226	
51	169.54881310462952	movie	1		177.0	49.0	2.5	/experiments/knapen_aot/videos/R_S_video_inspire_california_big-sur_bixby_005.1080-h264.mp4	0.0	254.2891330718994	2.508359909057617
51	172.05717301368713	fix_post	2		12.0	49.0	2.5	/experiments/knapen_aot/videos/R_S_video_inspire_california_big-sur_bixby_005.1080-h264.mp4	0.0	256.79749298095703	0.09998416900634766
52	172.15715718269348	fix_pre	0		143.0	50.0	2.5	/experiments/knapen_aot/videos/S_comp_C001_C005_PS_v01_SDR_PS_20180925_SDR_2K_AVC.mp4	0.0	256.8974771499634	1.1916539669036865
52	173.34066915512085	response	0	4		50.0	2.5	/experiments/knapen_aot/videos/S_comp_C001_C005_PS_v01_SDR_PS_20180925_SDR_2K_AVC.mp4	0.0	258.08098912239075	
52	173.34881114959717	movie	1		172.0	50.0	2.5	/experiments/knapen_aot/videos/S_comp_C001_C005_PS_v01_SDR_PS_20180925_SDR_2K_AVC.mp4	0.0	258.08913111686707	2.5083658695220947
52	175.85717701911926	fix_post	2		12.0	50.0	2.5	/experiments/knapen_aot/videos/S_comp_C001_C005_PS_v01_SDR_PS_20180925_SDR_2K_AVC.mp4	0.0	260.59749698638916	0.09999418258666992
53	175.95717120170593	fix_pre	0		279.0	51.0	2.5	/experiments/knapen_aot/videos/R_S_yt-8LO59eN9om4_16.mp4	0.0	260.69749116897583	2.3249928951263428
53	178.27396607398987	response	0	4		51.0	2.5	/experiments/knapen_aot/videos/R_S_yt-8LO59eN9om4_16.mp4	0.0	263.01428604125977	
53	178.28216409683228	movie	1		301.0	51.0	2.5	/experiments/knapen_aot/videos/R_S_yt-8LO59eN9om4_16.mp4	0.0	263.0224840641022	2.5083510875701904
53	179.4521520137787	response	1	4		51.0	2.5	/experiments/knapen_aot/videos/R_S_yt-8LO59eN9om4_16.mp4	0.0	264.1924719810486	
53	180.79051518440247	fix_post	2		12.0	51.0	2.5	/experiments/knapen_aot/videos/R_S_yt-8LO59eN9om4_16.mp4	0.0	265.53083515167236	0.09997296333312988
54	180.8904881477356	fix_pre	0		219.0	52.0	2.5	/experiments/knapen_aot/videos/R_S_yt-w_e3sxIzepA_115.mp4	0.0	265.6308081150055	1.824997901916504
54	182.69984221458435	response	0	4		52.0	2.5	/experiments/knapen_aot/videos/R_S_yt-w_e3sxIzepA_115.mp4	0.0	267.44016218185425	
54	182.7154860496521	movie	1		301.0	52.0	2.5	/experiments/knapen_aot/videos/R_S_yt-w_e3sxIzepA_115.mp4	0.0	267.455806016922	2.508402109146118
54	185.22388815879822	fix_post	2		12.0	52.0	2.5	/experiments/knapen_aot/videos/R_S_yt-w_e3sxIzepA_115.mp4	0.0	269.9642081260681	0.09995102882385254
55	185.32383918762207	fix_pre	0		36.0	53.0	2.5	/experiments/knapen_aot/videos/S_Oo8otu7cQ20_112.mp4	0.0	270.06415915489197	0.29993295669555664
55	185.61555099487305	response	0	4		53.0	2.5	/experiments/knapen_aot/videos/S_Oo8otu7cQ20_112.mp4	0.0	270.35587096214294	
55	185.62377214431763	movie	1		301.0	53.0	2.5	/experiments/knapen_aot/videos/S_Oo8otu7cQ20_112.mp4	0.0	270.3640921115875	2.508533000946045
55	188.13230514526367	fix_post	2		12.0	53.0	2.5	/experiments/knapen_aot/videos/S_Oo8otu7cQ20_112.mp4	0.0	272.87262511253357	0.09985494613647461
56	188.23216009140015	fix_pre	0		35.0	54.0	2.5	/experiments/knapen_aot/videos/R_S_yt-CXn1PGH67_s_20.mp4	0.0	272.97248005867004	0.2920100688934326
56	188.51564621925354	response	0	4		54.0	2.5	/experiments/knapen_aot/videos/R_S_yt-CXn1PGH67_s_20.mp4	0.0	273.25596618652344	
56	188.52417016029358	movie	1		301.0	54.0	2.5	/experiments/knapen_aot/videos/R_S_yt-CXn1PGH67_s_20.mp4	0.0	273.2644901275635	2.507849931716919
56	191.0320200920105	fix_post	2		12.0	54.0	2.5	/experiments/knapen_aot/videos/R_S_yt-CXn1PGH67_s_20.mp4	0.0	275.7723400592804	0.10010194778442383
57	191.13212203979492	fix_pre	0		22.0	55.0	2.5	blank	1.0	275.8724420070648	0.18372702598571777
57	191.29968905448914	response	0	4		55.0	2.5	blank	1.0	276.04000902175903	
57	191.31584906578064	movie	1		301.0	55.0	2.5	blank	1.0	276.05616903305054	2.507880926132202
57	193.52386498451233	response	1	4		55.0	2.5	blank	1.0	278.2641849517822	
57	193.82372999191284	fix_post	2		12.0	55.0	2.5	blank	1.0	278.56404995918274	0.10000205039978027
58	193.92373204231262	fix_pre	0		44.0	56.0	2.5	/experiments/knapen_aot/videos/R_S_comp_N013_C004_PS_v01_SDR_PS_20180925_F1970F7193_SDR_2K_AVC.mp4	0.0	278.6640520095825	0.36664700508117676
58	194.28216814994812	response	0	4		56.0	2.5	/experiments/knapen_aot/videos/R_S_comp_N013_C004_PS_v01_SDR_PS_20180925_F1970F7193_SDR_2K_AVC.mp4	0.0	279.022488117218	
58	194.2903790473938	movie	1		168.0	56.0	2.5	/experiments/knapen_aot/videos/R_S_comp_N013_C004_PS_v01_SDR_PS_20180925_F1970F7193_SDR_2K_AVC.mp4	0.0	279.0306990146637	2.508376121520996
58	195.9905800819397	response	1	4		56.0	2.5	/experiments/knapen_aot/videos/R_S_comp_N013_C004_PS_v01_SDR_PS_20180925_F1970F7193_SDR_2K_AVC.mp4	0.0	280.7309000492096	
58	196.50346302986145	response	1	4		56.0	2.5	/experiments/knapen_aot/videos/R_S_comp_N013_C004_PS_v01_SDR_PS_20180925_F1970F7193_SDR_2K_AVC.mp4	0.0	281.24378299713135	
58	196.7987551689148	fix_post	2		12.0	56.0	2.5	/experiments/knapen_aot/videos/R_S_comp_N013_C004_PS_v01_SDR_PS_20180925_F1970F7193_SDR_2K_AVC.mp4	0.0	281.5390751361847	0.10040283203125
59	196.89915800094604	fix_pre	0		37.0	57.0	2.5	/experiments/knapen_aot/videos/R_S_yt-9CY7rDYBYUI_40.mp4	0.0	281.63947796821594	0.30779600143432617
59	197.1988492012024	response	0	4		57.0	2.5	/experiments/knapen_aot/videos/R_S_yt-9CY7rDYBYUI_40.mp4	0.0	281.9391691684723	
59	197.20695400238037	movie	1		301.0	57.0	2.5	/experiments/knapen_aot/videos/R_S_yt-9CY7rDYBYUI_40.mp4	0.0	281.94727396965027	2.5083701610565186
59	199.7153241634369	fix_post	2		12.0	57.0	2.5	/experiments/knapen_aot/videos/R_S_yt-9CY7rDYBYUI_40.mp4	0.0	284.4556441307068	0.10004901885986328
60	199.81537318229675	fix_pre	0		104.0	58.0	2.5	/experiments/knapen_aot/videos/R_S_yt-Pinnv3-3GFU_452.mp4	0.0	284.55569314956665	0.866657018661499
60	200.67383098602295	response	0	4		58.0	2.5	/experiments/knapen_aot/videos/R_S_yt-Pinnv3-3GFU_452.mp4	0.0	285.41415095329285	
60	200.68203020095825	movie	1		301.0	58.0	2.5	/experiments/knapen_aot/videos/R_S_yt-Pinnv3-3GFU_452.mp4	0.0	285.42235016822815	2.508307933807373
60	203.19033813476562	fix_post	2		12.0	58.0	2.5	/experiments/knapen_aot/videos/R_S_yt-Pinnv3-3GFU_452.mp4	0.0	287.9306581020355	0.09999394416809082
61	203.29033207893372	fix_pre	0		15.0	59.0	2.5	/experiments/knapen_aot/videos/R_S_yt-tqxZlasEvZA_43.mp4	0.0	288.0306520462036	0.12500500679016113
61	203.40716004371643	response	0	4		59.0	2.5	/experiments/knapen_aot/videos/R_S_yt-tqxZlasEvZA_43.mp4	0.0	288.1474800109863	
61	203.41533708572388	movie	1		301.0	59.0	2.5	/experiments/knapen_aot/videos/R_S_yt-tqxZlasEvZA_43.mp4	0.0	288.1556570529938	2.5083200931549072
61	205.92365717887878	fix_post	2		12.0	59.0	2.5	/experiments/knapen_aot/videos/R_S_yt-tqxZlasEvZA_43.mp4	0.0	290.6639771461487	0.10000991821289062
62	206.02366709709167	fix_pre	0		28.0	60.0	2.5	/experiments/knapen_aot/videos/S_yt-Pinnv3-3GFU_452.mp4	0.0	290.7639870643616	0.2333049774169922
62	206.2487850189209	response	0	4		60.0	2.5	/experiments/knapen_aot/videos/S_yt-Pinnv3-3GFU_452.mp4	0.0	290.9891049861908	
62	206.25697207450867	movie	1		301.0	60.0	2.5	/experiments/knapen_aot/videos/S_yt-Pinnv3-3GFU_452.mp4	0.0	290.99729204177856	2.508366107940674
62	207.6454210281372	response	1	4		60.0	2.5	/experiments/knapen_aot/videos/S_yt-Pinnv3-3GFU_452.mp4	0.0	292.3857409954071	
62	208.76533818244934	fix_post	2		12.0	60.0	2.5	/experiments/knapen_aot/videos/S_yt-Pinnv3-3GFU_452.mp4	0.0	293.50565814971924	0.10001397132873535
63	208.86535215377808	fix_pre	0		416.0	61.0	2.5	/experiments/knapen_aot/videos/R_S_wc-PqINyFk_ku4u_18.mp4	0.0	293.605672121048	3.466578960418701
63	212.32392716407776	response	0	4		61.0	2.5	/experiments/knapen_aot/videos/R_S_wc-PqINyFk_ku4u_18.mp4	0.0	297.06424713134766	
63	212.33193111419678	movie	1		164.0	61.0	2.5	/experiments/knapen_aot/videos/R_S_wc-PqINyFk_ku4u_18.mp4	0.0	297.0722510814667	2.5083730220794678
63	214.456561088562	response	1	4		61.0	2.5	/experiments/knapen_aot/videos/R_S_wc-PqINyFk_ku4u_18.mp4	0.0	299.1968810558319	
63	214.84030413627625	fix_post	2		12.0	61.0	2.5	/experiments/knapen_aot/videos/R_S_wc-PqINyFk_ku4u_18.mp4	0.0	299.58062410354614	0.1000208854675293
64	214.94032502174377	fix_pre	0		24.0	62.0	2.5	/experiments/knapen_aot/videos/S_yt-3R23XwTXpKs_238.mp4	0.0	299.6806449890137	0.19997596740722656
64	215.13218307495117	response	0	4		62.0	2.5	/experiments/knapen_aot/videos/S_yt-3R23XwTXpKs_238.mp4	0.0	299.87250304222107	
64	215.140300989151	movie	1		301.0	62.0	2.5	/experiments/knapen_aot/videos/S_yt-3R23XwTXpKs_238.mp4	0.0	299.8806209564209	2.5083491802215576
64	217.64865016937256	fix_post	2		12.0	62.0	2.5	/experiments/knapen_aot/videos/S_yt-3R23XwTXpKs_238.mp4	0.0	302.38897013664246	0.10000300407409668
65	217.74865317344666	fix_pre	0		51.0	63.0	2.5	blank	1.0	302.48897314071655	0.42499685287475586
65	218.1654291152954	response	0	4		63.0	2.5	blank	1.0	302.9057490825653	
65	218.1736500263214	movie	1		301.0	63.0	2.5	blank	1.0	302.9139699935913	2.508329153060913
65	218.9570450782776	response	1	4		63.0	2.5	blank	1.0	303.6973650455475	
65	219.4236822128296	response	1	4		63.0	2.5	blank	1.0	304.1640021800995	
65	219.85701608657837	response	1	4		63.0	2.5	blank	1.0	304.59733605384827	
65	220.68197917938232	fix_post	2		12.0	63.0	2.5	blank	1.0	305.4222991466522	0.09992003440856934
66	220.7818992137909	fix_pre	0		4.0	64.0	2.5	/experiments/knapen_aot/videos/R_S_yt-0Zze3Ff12Ys_58.mp4	0.0	305.5222191810608	0.03430795669555664
66	220.80703806877136	response	0	4		64.0	2.5	/experiments/knapen_aot/videos/R_S_yt-0Zze3Ff12Ys_58.mp4	0.0	305.54735803604126	
66	220.81620717048645	movie	1		301.0	64.0	2.5	/experiments/knapen_aot/videos/R_S_yt-0Zze3Ff12Ys_58.mp4	0.0	305.55652713775635	2.507352828979492
66	221.9986960887909	response	1	4		64.0	2.5	/experiments/knapen_aot/videos/R_S_yt-0Zze3Ff12Ys_58.mp4	0.0	306.7390160560608	
66	223.32355999946594	fix_post	2		12.0	64.0	2.5	/experiments/knapen_aot/videos/R_S_yt-0Zze3Ff12Ys_58.mp4	0.0	308.06387996673584	0.10006999969482422
67	223.42362999916077	fix_pre	0		27.0	65.0	2.5	/experiments/knapen_aot/videos/R_S_yt-EFrazkRaYbs_21.mp4	0.0	308.16394996643066	0.22521209716796875
67	223.64041304588318	response	0	4		65.0	2.5	/experiments/knapen_aot/videos/R_S_yt-EFrazkRaYbs_21.mp4	0.0	308.3807330131531	
67	223.64884209632874	movie	1		301.0	65.0	2.5	/experiments/knapen_aot/videos/R_S_yt-EFrazkRaYbs_21.mp4	0.0	308.38916206359863	2.5081429481506348
67	226.0572521686554	response	1	4		65.0	2.5	/experiments/knapen_aot/videos/R_S_yt-EFrazkRaYbs_21.mp4	0.0	310.7975721359253	
67	226.15698504447937	fix_post	2		12.0	65.0	2.5	/experiments/knapen_aot/videos/R_S_yt-EFrazkRaYbs_21.mp4	0.0	310.89730501174927	0.09998607635498047
68	226.25697112083435	fix_pre	0		40.0	66.0	2.5	/experiments/knapen_aot/videos/S_yt-ZE8Af60eNsI_15.mp4	0.0	310.99729108810425	0.3333160877227783
68	226.58210515975952	response	0	4		66.0	2.5	/experiments/knapen_aot/videos/S_yt-ZE8Af60eNsI_15.mp4	0.0	311.3224251270294	
68	226.59028720855713	movie	1		301.0	66.0	2.5	/experiments/knapen_aot/videos/S_yt-ZE8Af60eNsI_15.mp4	0.0	311.330607175827	2.5083467960357666
68	229.0986340045929	fix_post	2		12.0	66.0	2.5	/experiments/knapen_aot/videos/S_yt-ZE8Af60eNsI_15.mp4	0.0	313.8389539718628	0.0999910831451416
69	229.19862508773804	fix_pre	0		11.0	67.0	2.5	/experiments/knapen_aot/videos/R_S_yt-VTNBCfQxnsk_59.mp4	0.0	313.93894505500793	0.09160208702087402
69	229.28206205368042	response	0	4		67.0	2.5	/experiments/knapen_aot/videos/R_S_yt-VTNBCfQxnsk_59.mp4	0.0	314.0223820209503	
69	229.2902271747589	movie	1		300.0	67.0	2.5	/experiments/knapen_aot/videos/R_S_yt-VTNBCfQxnsk_59.mp4	0.0	314.0305471420288	2.5082898139953613
69	231.79851698875427	fix_post	2		12.0	67.0	2.5	/experiments/knapen_aot/videos/R_S_yt-VTNBCfQxnsk_59.mp4	0.0	316.53883695602417	0.10027313232421875
70	231.8987901210785	fix_pre	0		41.0	68.0	2.5	/experiments/knapen_aot/videos/S_yt-EFrazkRaYbs_21.mp4	0.0	316.6391100883484	0.3413989543914795
70	232.23203015327454	response	0	4		68.0	2.5	/experiments/knapen_aot/videos/S_yt-EFrazkRaYbs_21.mp4	0.0	316.97235012054443	
70	232.24018907546997	movie	1		301.0	68.0	2.5	/experiments/knapen_aot/videos/S_yt-EFrazkRaYbs_21.mp4	0.0	316.98050904273987	2.5083401203155518
70	233.02383303642273	response	1	4		68.0	2.5	/experiments/knapen_aot/videos/S_yt-EFrazkRaYbs_21.mp4	0.0	317.7641530036926	
70	234.74852919578552	fix_post	2		12.0	68.0	2.5	/experiments/knapen_aot/videos/S_yt-EFrazkRaYbs_21.mp4	0.0	319.4888491630554	0.09997987747192383
71	234.84850907325745	fix_pre	0		60.0	69.0	2.5	blank	1.0	319.58882904052734	0.5000851154327393
71	235.3403480052948	response	0	4		69.0	2.5	blank	1.0	320.0806679725647	
71	235.34859418869019	movie	1		301.0	69.0	2.5	blank	1.0	320.0889141559601	2.50832200050354
71	237.38196802139282	response	1	4		69.0	2.5	blank	1.0	322.1222879886627	
71	237.85691618919373	fix_post	2		12.0	69.0	2.5	blank	1.0	322.5972361564636	0.09996581077575684
72	237.95688199996948	fix_pre	0		42.0	70.0	2.5	/experiments/knapen_aot/videos/S_yt-YykKZWKmLnQ_386.mp4	0.0	322.6972019672394	0.3499910831451416
72	238.29865503311157	response	0	4		70.0	2.5	/experiments/knapen_aot/videos/S_yt-YykKZWKmLnQ_386.mp4	0.0	323.03897500038147	
72	238.30687308311462	movie	1		301.0	70.0	2.5	/experiments/knapen_aot/videos/S_yt-YykKZWKmLnQ_386.mp4	0.0	323.0471930503845	2.5082991123199463
72	240.81517219543457	fix_post	2		12.0	70.0	2.5	/experiments/knapen_aot/videos/S_yt-YykKZWKmLnQ_386.mp4	0.0	325.55549216270447	0.10001087188720703
73	240.91518306732178	fix_pre	0		49.0	71.0	2.5	/experiments/knapen_aot/videos/S_yt-5fnd__rpWeE_396.mp4	0.0	325.6555030345917	0.40825605392456055
73	241.31529307365417	response	0	4		71.0	2.5	/experiments/knapen_aot/videos/S_yt-5fnd__rpWeE_396.mp4	0.0	326.0556130409241	
73	241.32343912124634	movie	1		301.0	71.0	2.5	/experiments/knapen_aot/videos/S_yt-5fnd__rpWeE_396.mp4	0.0	326.06375908851624	2.5083260536193848
73	243.83176517486572	fix_post	2		12.0	71.0	2.5	/experiments/knapen_aot/videos/S_yt-5fnd__rpWeE_396.mp4	0.0	328.5720851421356	0.10008597373962402
74	243.93185114860535	fix_pre	0		37.0	72.0	2.5	/experiments/knapen_aot/videos/R_S_yt-WFiEvQuOqqg_18.mp4	0.0	328.67217111587524	0.3083069324493408
74	244.23199605941772	response	0	4		72.0	2.5	/experiments/knapen_aot/videos/R_S_yt-WFiEvQuOqqg_18.mp4	0.0	328.9723160266876	
74	244.2401580810547	movie	1		301.0	72.0	2.5	/experiments/knapen_aot/videos/R_S_yt-WFiEvQuOqqg_18.mp4	0.0	328.9804780483246	2.5083889961242676
74	246.74854707717896	fix_post	2		12.0	72.0	2.5	/experiments/knapen_aot/videos/R_S_yt-WFiEvQuOqqg_18.mp4	0.0	331.48886704444885	0.10000109672546387
75	246.84854817390442	fix_pre	0		77.0	73.0	2.5	/experiments/knapen_aot/videos/R_S_yt-9EnchawJ3pA_90.mp4	0.0	331.5888681411743	0.6415989398956299
75	247.48199105262756	response	0	4		73.0	2.5	/experiments/knapen_aot/videos/R_S_yt-9EnchawJ3pA_90.mp4	0.0	332.22231101989746	
75	247.49014711380005	movie	1		301.0	73.0	2.5	/experiments/knapen_aot/videos/R_S_yt-9EnchawJ3pA_90.mp4	0.0	332.23046708106995	2.5083229541778564
75	249.9984700679779	fix_post	2		12.0	73.0	2.5	/experiments/knapen_aot/videos/R_S_yt-9EnchawJ3pA_90.mp4	0.0	334.7387900352478	0.10002899169921875
76	250.09849905967712	fix_pre	0		24.0	74.0	2.5	/experiments/knapen_aot/videos/R_S_yt-IlW1U39Dga4_5.mp4	0.0	334.838819026947	0.1999211311340332
76	250.29033398628235	response	0	4		74.0	2.5	/experiments/knapen_aot/videos/R_S_yt-IlW1U39Dga4_5.mp4	0.0	335.03065395355225	
76	250.29842019081116	movie	1		301.0	74.0	2.5	/experiments/knapen_aot/videos/R_S_yt-IlW1U39Dga4_5.mp4	0.0	335.03874015808105	2.5083420276641846
76	252.80676221847534	fix_post	2		12.0	74.0	2.5	/experiments/knapen_aot/videos/R_S_yt-IlW1U39Dga4_5.mp4	0.0	337.54708218574524	0.10001277923583984
77	252.90677499771118	fix_pre	0		48.0	75.0	2.5	/experiments/knapen_aot/videos/S_yt-KQq7vTlXUiQ_173.mp4	0.0	337.6470949649811	0.40003013610839844
77	253.2985601425171	response	0	4		75.0	2.5	/experiments/knapen_aot/videos/S_yt-KQq7vTlXUiQ_173.mp4	0.0	338.038880109787	
77	253.30680513381958	movie	1		301.0	75.0	2.5	/experiments/knapen_aot/videos/S_yt-KQq7vTlXUiQ_173.mp4	0.0	338.0471251010895	2.508419990539551
77	255.81522512435913	fix_post	2		12.0	75.0	2.5	/experiments/knapen_aot/videos/S_yt-KQq7vTlXUiQ_173.mp4	0.0	340.555545091629	0.09995603561401367
78	255.91518115997314	fix_pre	0		65.0	76.0	2.5	/experiments/knapen_aot/videos/S_yt-Ub5Xx5BqIOk_74.mp4	0.0	340.65550112724304	0.5415768623352051
78	256.44861006736755	response	0	4		76.0	2.5	/experiments/knapen_aot/videos/S_yt-Ub5Xx5BqIOk_74.mp4	0.0	341.18893003463745	
78	256.45675802230835	movie	1		301.0	76.0	2.5	/experiments/knapen_aot/videos/S_yt-Ub5Xx5BqIOk_74.mp4	0.0	341.19707798957825	2.5083141326904297
78	258.9650721549988	fix_post	2		12.0	76.0	2.5	/experiments/knapen_aot/videos/S_yt-Ub5Xx5BqIOk_74.mp4	0.0	343.7053921222687	0.1001129150390625
79	259.06518507003784	fix_pre	0		331.0	77.0	2.5	blank	1.0	343.80550503730774	2.7582271099090576
79	261.8152232170105	response	0	4		77.0	2.5	blank	1.0	346.5555431842804	
79	261.8234121799469	movie	1		301.0	77.0	2.5	blank	1.0	346.5637321472168	2.5083420276641846
79	263.54866003990173	response	1	4		77.0	2.5	blank	1.0	348.28898000717163	
79	264.3317542076111	fix_post	2		12.0	77.0	2.5	blank	1.0	349.072074174881	0.10000491142272949
80	264.4317591190338	fix_pre	0		37.0	78.0	2.5	/experiments/knapen_aot/videos/R_S_pexels-c-technical-6344801.mp4	0.0	349.1720790863037	0.3084580898284912
80	264.724328994751	response	0	4		78.0	2.5	/experiments/knapen_aot/videos/R_S_pexels-c-technical-6344801.mp4	0.0	349.4646489620209	
80	264.7402172088623	movie	1		202.0	78.0	2.5	/experiments/knapen_aot/videos/R_S_pexels-c-technical-6344801.mp4	0.0	349.4805371761322	2.5081889629364014
80	265.9263460636139	response	1	4		78.0	2.5	/experiments/knapen_aot/videos/R_S_pexels-c-technical-6344801.mp4	0.0	350.6666660308838	
80	267.2484061717987	fix_post	2		12.0	78.0	2.5	/experiments/knapen_aot/videos/R_S_pexels-c-technical-6344801.mp4	0.0	351.9887261390686	0.09992194175720215
80	267.25006318092346	response	2	4		78.0	2.5	/experiments/knapen_aot/videos/R_S_pexels-c-technical-6344801.mp4	0.0	351.99038314819336	
81	267.3483281135559	fix_pre	0		94.0	79.0	2.5	/experiments/knapen_aot/videos/S_yt-hekMMCluhnU_18.mp4	0.0	352.0886480808258	0.7834348678588867
81	268.1236090660095	response	0	4		79.0	2.5	/experiments/knapen_aot/videos/S_yt-hekMMCluhnU_18.mp4	0.0	352.8639290332794	
81	268.1317629814148	movie	1		301.0	79.0	2.5	/experiments/knapen_aot/videos/S_yt-hekMMCluhnU_18.mp4	0.0	352.8720829486847	2.508364200592041
81	268.47508215904236	response	1	4		79.0	2.5	/experiments/knapen_aot/videos/S_yt-hekMMCluhnU_18.mp4	0.0	353.21540212631226	
81	270.64012718200684	fix_post	2		12.0	79.0	2.5	/experiments/knapen_aot/videos/S_yt-hekMMCluhnU_18.mp4	0.0	355.38044714927673	0.09996485710144043
82	270.7400920391083	fix_pre	0		4.0	80.0	2.5	/experiments/knapen_aot/videos/R_S_yt-3R23XwTXpKs_238.mp4	0.0	355.4804120063782	0.03341817855834961
82	270.7652850151062	response	0	4		80.0	2.5	/experiments/knapen_aot/videos/R_S_yt-3R23XwTXpKs_238.mp4	0.0	355.5056049823761	
82	270.7735102176666	movie	1		301.0	80.0	2.5	/experiments/knapen_aot/videos/R_S_yt-3R23XwTXpKs_238.mp4	0.0	355.5138301849365	2.5082578659057617
82	272.4402542114258	response	1	4		80.0	2.5	/experiments/knapen_aot/videos/R_S_yt-3R23XwTXpKs_238.mp4	0.0	357.1805741786957	
82	273.2817680835724	fix_post	2		12.0	80.0	2.5	/experiments/knapen_aot/videos/R_S_yt-3R23XwTXpKs_238.mp4	0.0	358.0220880508423	0.10003304481506348
83	273.38180112838745	fix_pre	0		80.0	81.0	2.5	/experiments/knapen_aot/videos/S_S003_C020_SDR_2K_AVC.mp4	0.0	358.12212109565735	0.6665399074554443
83	274.04020404815674	response	0	4		81.0	2.5	/experiments/knapen_aot/videos/S_S003_C020_SDR_2K_AVC.mp4	0.0	358.78052401542664	
83	274.0483410358429	movie	1		168.0	81.0	2.5	/experiments/knapen_aot/videos/S_S003_C020_SDR_2K_AVC.mp4	0.0	358.7886610031128	2.5084011554718018
83	276.0985641479492	response	1	4		81.0	2.5	/experiments/knapen_aot/videos/S_S003_C020_SDR_2K_AVC.mp4	0.0	360.8388841152191	
83	276.5567421913147	fix_post	2		12.0	81.0	2.5	/experiments/knapen_aot/videos/S_S003_C020_SDR_2K_AVC.mp4	0.0	361.2970621585846	0.09999799728393555
84	276.65674018859863	fix_pre	0		110.0	82.0	2.5	blank	1.0	361.39706015586853	0.9165890216827393
84	277.5651750564575	response	0	4		82.0	2.5	blank	1.0	362.3054950237274	
84	277.5733292102814	movie	1		301.0	82.0	2.5	blank	1.0	362.31364917755127	2.5083839893341064
84	280.0817131996155	fix_post	2		12.0	82.0	2.5	blank	1.0	364.8220331668854	0.09999585151672363
85	280.1817090511322	fix_pre	0		27.0	83.0	2.5	/experiments/knapen_aot/videos/R_S_yt-xqjVM0Vj4mI_161.mp4	0.0	364.9220290184021	0.22499394416809082
85	280.3984320163727	response	0	4		83.0	2.5	/experiments/knapen_aot/videos/R_S_yt-xqjVM0Vj4mI_161.mp4	0.0	365.1387519836426	
85	280.4067029953003	movie	1		301.0	83.0	2.5	/experiments/knapen_aot/videos/R_S_yt-xqjVM0Vj4mI_161.mp4	0.0	365.1470229625702	2.5083680152893066
85	281.4102830886841	response	1	4		83.0	2.5	/experiments/knapen_aot/videos/R_S_yt-xqjVM0Vj4mI_161.mp4	0.0	366.150603055954	
85	282.9150710105896	fix_post	2		12.0	83.0	2.5	/experiments/knapen_aot/videos/R_S_yt-xqjVM0Vj4mI_161.mp4	0.0	367.6553909778595	0.09993219375610352
87	283.0150032043457	stim	0		109.0					367.7553231716156	0.9083449840545654
87	283.0162160396576	response	0	4						367.7565360069275	
87	283.91585206985474	response	0	space						368.65617203712463	
