trial_nr	onset	event_type	phase	response	nr_frames	movie_index	movie_duration	movie_file	blank	onset_abs	duration
0	0.15823912620544434	stim	0		72.0					91.67735624313354	0.6011528968811035
0	0.7499730587005615	response	0	space						92.26909017562866	
1	0.7593920230865479	stim	0		121.0					92.27850914001465	1.0068180561065674
1	1.7662100791931152	stim	1		120.0					93.28532719612122	0.9999749660491943
1	2.4746360778808594	response	1	space						93.99375319480896	
2	2.7661850452423096	fix_pre	0		66.0	0.0	2.5	/experiments/knapen_aot/videos/R_S_yt-5AI_SyK5sg8_112.mp4	0.0	94.28530216217041	0.5499370098114014
2	3.3004610538482666	response	0	space		0.0	2.5	/experiments/knapen_aot/videos/R_S_yt-5AI_SyK5sg8_112.mp4	0.0	94.81957817077637	
2	3.316122055053711	movie	1		300.0	0.0	2.5	/experiments/knapen_aot/videos/R_S_yt-5AI_SyK5sg8_112.mp4	0.0	94.83523917198181	2.5083651542663574
2	5.824487209320068	fix_post	2		11.0	0.0	2.5	/experiments/knapen_aot/videos/R_S_yt-5AI_SyK5sg8_112.mp4	0.0	97.34360432624817	0.09416985511779785
2	5.90364408493042	response	2	2		0.0	2.5	/experiments/knapen_aot/videos/R_S_yt-5AI_SyK5sg8_112.mp4	0.0	97.42276120185852	
3	5.918657064437866	fix_pre	0		30.0	1.0	2.5	/experiments/knapen_aot/videos/S_flickr-southeasternstar-3464778323_10.mp4	0.0	97.43777418136597	0.24740004539489746
3	6.15802001953125	response	0	2		1.0	2.5	/experiments/knapen_aot/videos/S_flickr-southeasternstar-3464778323_10.mp4	0.0	97.67713713645935	
3	6.166057109832764	movie	1		301.0	1.0	2.5	/experiments/knapen_aot/videos/S_flickr-southeasternstar-3464778323_10.mp4	0.0	97.68517422676086	2.5084240436553955
3	8.67448115348816	fix_post	2		12.0	1.0	2.5	/experiments/knapen_aot/videos/S_flickr-southeasternstar-3464778323_10.mp4	0.0	100.19359827041626	0.09994792938232422
4	8.774429082870483	fix_pre	0		6.0	2.0	2.5	/experiments/knapen_aot/videos/S_yt-ycfVJyrFgB4_15.mp4	0.0	100.29354619979858	0.05001091957092285
4	8.816264152526855	response	0	2		2.0	2.5	/experiments/knapen_aot/videos/S_yt-ycfVJyrFgB4_15.mp4	0.0	100.33538126945496	
4	8.824440002441406	movie	1		301.0	2.0	2.5	/experiments/knapen_aot/videos/S_yt-ycfVJyrFgB4_15.mp4	0.0	100.3435571193695	2.508316993713379
4	11.332756996154785	fix_post	2		12.0	2.0	2.5	/experiments/knapen_aot/videos/S_yt-ycfVJyrFgB4_15.mp4	0.0	102.85187411308289	0.10003018379211426
5	11.4327871799469	fix_pre	0		16.0	3.0	2.5	/experiments/knapen_aot/videos/S_yt-9pYW_TqVpU4_43.mp4	0.0	102.951904296875	0.13335680961608887
5	11.557892084121704	response	0	2		3.0	2.5	/experiments/knapen_aot/videos/S_yt-9pYW_TqVpU4_43.mp4	0.0	103.0770092010498	
5	11.566143989562988	movie	1		301.0	3.0	2.5	/experiments/knapen_aot/videos/S_yt-9pYW_TqVpU4_43.mp4	0.0	103.08526110649109	2.5083651542663574
5	14.074509143829346	fix_post	2		12.0	3.0	2.5	/experiments/knapen_aot/videos/S_yt-9pYW_TqVpU4_43.mp4	0.0	105.59362626075745	0.1010890007019043
6	14.17559814453125	fix_pre	0		20.0	4.0	2.5	/experiments/knapen_aot/videos/S_pexels-cottonbro-9063801_1.mp4	0.0	105.69471526145935	0.16658997535705566
6	14.332853078842163	response	0	2		4.0	2.5	/experiments/knapen_aot/videos/S_pexels-cottonbro-9063801_1.mp4	0.0	105.85197019577026	
6	14.342188119888306	movie	1		199.0	4.0	2.5	/experiments/knapen_aot/videos/S_pexels-cottonbro-9063801_1.mp4	0.0	105.8613052368164	2.5074799060821533
6	16.84966802597046	fix_post	2		12.0	4.0	2.5	/experiments/knapen_aot/videos/S_pexels-cottonbro-9063801_1.mp4	0.0	108.36878514289856	0.09975004196166992
7	16.94941806793213	fix_pre	0		8.0	5.0	2.5	/experiments/knapen_aot/videos/R_S_yt-1UFhynm5g6Y_266.mp4	0.0	108.46853518486023	0.06678915023803711
7	17.008008003234863	response	0	2		5.0	2.5	/experiments/knapen_aot/videos/R_S_yt-1UFhynm5g6Y_266.mp4	0.0	108.52712512016296	
7	17.016207218170166	movie	1		301.0	5.0	2.5	/experiments/knapen_aot/videos/R_S_yt-1UFhynm5g6Y_266.mp4	0.0	108.53532433509827	2.508237838745117
7	19.524445056915283	fix_post	2		12.0	5.0	2.5	/experiments/knapen_aot/videos/R_S_yt-1UFhynm5g6Y_266.mp4	0.0	111.04356217384338	0.09993195533752441
8	19.624377012252808	fix_pre	0		17.0	6.0	2.5	blank	1.0	111.14349412918091	0.14172601699829102
8	19.75791907310486	response	0	2		6.0	2.5	blank	1.0	111.27703619003296	
8	19.7661030292511	movie	1		301.0	6.0	2.5	blank	1.0	111.2852201461792	2.50829815864563
8	22.27440118789673	fix_post	2		12.0	6.0	2.5	blank	1.0	113.79351830482483	0.09996986389160156
9	22.37437105178833	fix_pre	0		49.0	7.0	2.5	/experiments/knapen_aot/videos/S_yt-TNtO8RPd3iE_25.mp4	0.0	113.89348816871643	0.40834903717041016
9	22.77454900741577	response	0	2		7.0	2.5	/experiments/knapen_aot/videos/S_yt-TNtO8RPd3iE_25.mp4	0.0	114.29366612434387	
9	22.78272008895874	movie	1		300.0	7.0	2.5	/experiments/knapen_aot/videos/S_yt-TNtO8RPd3iE_25.mp4	0.0	114.30183720588684	2.5083820819854736
9	25.291102170944214	fix_post	2		12.0	7.0	2.5	/experiments/knapen_aot/videos/S_yt-TNtO8RPd3iE_25.mp4	0.0	116.81021928787231	0.09987998008728027
10	25.390982151031494	fix_pre	0		9.0	8.0	2.5	/experiments/knapen_aot/videos/R_S_yt-ebajhZwlVJM_32.mp4	0.0	116.9100992679596	0.07625794410705566
10	25.458100080490112	response	0	2		8.0	2.5	/experiments/knapen_aot/videos/R_S_yt-ebajhZwlVJM_32.mp4	0.0	116.97721719741821	
10	25.46724009513855	movie	1		301.0	8.0	2.5	/experiments/knapen_aot/videos/R_S_yt-ebajhZwlVJM_32.mp4	0.0	116.98635721206665	2.5070600509643555
10	27.974300146102905	fix_post	2		12.0	8.0	2.5	/experiments/knapen_aot/videos/R_S_yt-ebajhZwlVJM_32.mp4	0.0	119.493417263031	0.10009193420410156
11	28.074392080307007	fix_pre	0		25.0	9.0	2.5	/experiments/knapen_aot/videos/R_S_pexels-koolshooters-7327412_1.mp4	0.0	119.59350919723511	0.20842409133911133
11	28.274498224258423	response	0	2		9.0	2.5	/experiments/knapen_aot/videos/R_S_pexels-koolshooters-7327412_1.mp4	0.0	119.79361534118652	
11	28.282816171646118	movie	1		163.0	9.0	2.5	/experiments/knapen_aot/videos/R_S_pexels-koolshooters-7327412_1.mp4	0.0	119.80193328857422	2.508219003677368
11	30.791035175323486	fix_post	2		12.0	9.0	2.5	/experiments/knapen_aot/videos/R_S_pexels-koolshooters-7327412_1.mp4	0.0	122.31015229225159	0.09996199607849121
12	30.890997171401978	fix_pre	0		24.0	10.0	2.5	/experiments/knapen_aot/videos/R_S_yt-lazG9z4VQAw_99.mp4	0.0	122.41011428833008	0.2010509967803955
12	31.082858085632324	response	0	2		10.0	2.5	/experiments/knapen_aot/videos/R_S_yt-lazG9z4VQAw_99.mp4	0.0	122.60197520256042	
12	31.092048168182373	movie	1		301.0	10.0	2.5	/experiments/knapen_aot/videos/R_S_yt-lazG9z4VQAw_99.mp4	0.0	122.61116528511047	2.507347822189331
12	33.599395990371704	fix_post	2		12.0	10.0	2.5	/experiments/knapen_aot/videos/R_S_yt-lazG9z4VQAw_99.mp4	0.0	125.1185131072998	0.09998822212219238
13	33.6993842124939	fix_pre	0		27.0	11.0	2.5	/experiments/knapen_aot/videos/R_S_production_ID_4510883.mp4	0.0	125.218501329422	0.2259688377380371
13	33.91607999801636	response	0	2		11.0	2.5	/experiments/knapen_aot/videos/R_S_production_ID_4510883.mp4	0.0	125.43519711494446	
13	33.925353050231934	movie	1		167.0	11.0	2.5	/experiments/knapen_aot/videos/R_S_production_ID_4510883.mp4	0.0	125.44447016716003	2.507338047027588
13	36.43269109725952	fix_post	2		12.0	11.0	2.5	/experiments/knapen_aot/videos/R_S_production_ID_4510883.mp4	0.0	127.95180821418762	0.0999910831451416
14	36.53268218040466	fix_pre	0		10.0	12.0	2.5	/experiments/knapen_aot/videos/S_production_ID_5049072.mp4	0.0	128.05179929733276	0.10095500946044922
14	36.624507188797	response	0	2		12.0	2.5	/experiments/knapen_aot/videos/S_production_ID_5049072.mp4	0.0	128.1436243057251	
14	36.63363718986511	movie	1		167.0	12.0	2.5	/experiments/knapen_aot/videos/S_production_ID_5049072.mp4	0.0	128.1527543067932	2.507391929626465
14	39.14102911949158	fix_post	2		12.0	12.0	2.5	/experiments/knapen_aot/videos/S_production_ID_5049072.mp4	0.0	130.66014623641968	0.0999898910522461
15	39.24101901054382	fix_pre	0		4.0	13.0	2.5	/experiments/knapen_aot/videos/S_yt-gDZnJCR2uXI_18.mp4	0.0	130.76013612747192	0.033312082290649414
15	39.26632499694824	response	0	2		13.0	2.5	/experiments/knapen_aot/videos/S_yt-gDZnJCR2uXI_18.mp4	0.0	130.78544211387634	
15	39.27433109283447	movie	1		301.0	13.0	2.5	/experiments/knapen_aot/videos/S_yt-gDZnJCR2uXI_18.mp4	0.0	130.79344820976257	2.508331060409546
15	41.78266215324402	fix_post	2		12.0	13.0	2.5	/experiments/knapen_aot/videos/S_yt-gDZnJCR2uXI_18.mp4	0.0	133.30177927017212	0.10003995895385742
16	41.882702112197876	fix_pre	0		263.0	14.0	2.5	blank	1.0	133.40181922912598	2.1915431022644043
16	44.0661461353302	response	0	2		14.0	2.5	blank	1.0	135.5852632522583	
16	44.07424521446228	movie	1		301.0	14.0	2.5	blank	1.0	135.59336233139038	2.5083258152008057
16	46.34108018875122	response	1	2		14.0	2.5	blank	1.0	137.86019730567932	
16	46.582571029663086	fix_post	2		12.0	14.0	2.5	blank	1.0	138.1016881465912	0.10027599334716797
17	46.682847023010254	fix_pre	0		16.0	15.0	2.5	/experiments/knapen_aot/videos/S_yt-ujdFTAUE8rc_34.mp4	0.0	138.20196413993835	0.1331031322479248
17	46.80775713920593	response	0	2		15.0	2.5	/experiments/knapen_aot/videos/S_yt-ujdFTAUE8rc_34.mp4	0.0	138.32687425613403	
17	46.81595015525818	movie	1		301.0	15.0	2.5	/experiments/knapen_aot/videos/S_yt-ujdFTAUE8rc_34.mp4	0.0	138.33506727218628	2.508327007293701
17	49.32427716255188	fix_post	2		12.0	15.0	2.5	/experiments/knapen_aot/videos/S_yt-ujdFTAUE8rc_34.mp4	0.0	140.84339427947998	0.1000070571899414
18	49.42428421974182	fix_pre	0		14.0	16.0	2.5	/experiments/knapen_aot/videos/S_pexels-cottonbro-10639398.mp4	0.0	140.94340133666992	0.11665081977844238
18	49.53276205062866	response	0	2		16.0	2.5	/experiments/knapen_aot/videos/S_pexels-cottonbro-10639398.mp4	0.0	141.05187916755676	
18	49.540935039520264	movie	1		196.0	16.0	2.5	/experiments/knapen_aot/videos/S_pexels-cottonbro-10639398.mp4	0.0	141.06005215644836	2.5083770751953125
18	52.049312114715576	fix_post	2		12.0	16.0	2.5	/experiments/knapen_aot/videos/S_pexels-cottonbro-10639398.mp4	0.0	143.56842923164368	0.09996199607849121
19	52.14927411079407	fix_pre	0		10.0	17.0	2.5	/experiments/knapen_aot/videos/R_S_yt-yAtHuDsadu8_102.mp4	0.0	143.66839122772217	0.08328890800476074
19	52.22446608543396	response	0	2		17.0	2.5	/experiments/knapen_aot/videos/R_S_yt-yAtHuDsadu8_102.mp4	0.0	143.74358320236206	
19	52.23256301879883	movie	1		301.0	17.0	2.5	/experiments/knapen_aot/videos/R_S_yt-yAtHuDsadu8_102.mp4	0.0	143.75168013572693	2.508390188217163
19	54.74095320701599	fix_post	2		12.0	17.0	2.5	/experiments/knapen_aot/videos/R_S_yt-yAtHuDsadu8_102.mp4	0.0	146.2600703239441	0.09996485710144043
19	54.8168671131134	response	2	2		17.0	2.5	/experiments/knapen_aot/videos/R_S_yt-yAtHuDsadu8_102.mp4	0.0	146.3359842300415	
20	54.84091806411743	fix_pre	0		42.0	18.0	2.5	/experiments/knapen_aot/videos/R_S_yt-BW6jWEVbxxk_4.mp4	0.0	146.36003518104553	0.34997105598449707
20	55.18267321586609	response	0	2		18.0	2.5	/experiments/knapen_aot/videos/R_S_yt-BW6jWEVbxxk_4.mp4	0.0	146.7017903327942	
20	55.19088912010193	movie	1		301.0	18.0	2.5	/experiments/knapen_aot/videos/R_S_yt-BW6jWEVbxxk_4.mp4	0.0	146.71000623703003	2.5083980560302734
20	57.6992871761322	fix_post	2		12.0	18.0	2.5	/experiments/knapen_aot/videos/R_S_yt-BW6jWEVbxxk_4.mp4	0.0	149.2184042930603	0.0999898910522461
21	57.79927706718445	fix_pre	0		9.0	19.0	2.5	blank	1.0	149.31839418411255	0.07502508163452148
21	57.86603808403015	response	0	2		19.0	2.5	blank	1.0	149.38515520095825	
21	57.87430214881897	movie	1		301.0	19.0	2.5	blank	1.0	149.39341926574707	2.508223056793213
21	60.38252520561218	fix_post	2		11.0	19.0	2.5	blank	1.0	151.90164232254028	0.09169983863830566
21	60.46605706214905	response	2	2		19.0	2.5	blank	1.0	151.98517417907715	
22	60.47422504425049	fix_pre	0		41.0	20.0	2.5	/experiments/knapen_aot/videos/R_S_flickr-southeasternstar-3464778323_10.mp4	0.0	151.9933421611786	0.34166717529296875
22	60.80760717391968	response	0	2		20.0	2.5	/experiments/knapen_aot/videos/R_S_flickr-southeasternstar-3464778323_10.mp4	0.0	152.32672429084778	
22	60.81589221954346	movie	1		301.0	20.0	2.5	/experiments/knapen_aot/videos/R_S_flickr-southeasternstar-3464778323_10.mp4	0.0	152.33500933647156	2.508368968963623
22	63.32426118850708	fix_post	2		12.0	20.0	2.5	/experiments/knapen_aot/videos/R_S_flickr-southeasternstar-3464778323_10.mp4	0.0	154.84337830543518	0.09996795654296875
23	63.42422914505005	fix_pre	0		16.0	21.0	2.5	/experiments/knapen_aot/videos/R_S_ILSVRC2015_train_00578000.mp4	0.0	154.94334626197815	0.13329792022705078
23	63.549339056015015	response	0	2		21.0	2.5	/experiments/knapen_aot/videos/R_S_ILSVRC2015_train_00578000.mp4	0.0	155.06845617294312	
23	63.5575270652771	movie	1		301.0	21.0	2.5	/experiments/knapen_aot/videos/R_S_ILSVRC2015_train_00578000.mp4	0.0	155.0766441822052	2.5083799362182617
23	66.06590700149536	fix_post	2		12.0	21.0	2.5	/experiments/knapen_aot/videos/R_S_ILSVRC2015_train_00578000.mp4	0.0	157.58502411842346	0.09987711906433105
24	66.16578412055969	fix_pre	0		22.0	22.0	2.5	/experiments/knapen_aot/videos/S_yt-nYi_FfCjepk_74.mp4	0.0	157.6849012374878	0.18335509300231934
24	66.33353114128113	response	0	2		22.0	2.5	/experiments/knapen_aot/videos/S_yt-nYi_FfCjepk_74.mp4	0.0	157.85264825820923	
24	66.34913921356201	movie	1		301.0	22.0	2.5	/experiments/knapen_aot/videos/S_yt-nYi_FfCjepk_74.mp4	0.0	157.8682563304901	2.5083518028259277
24	68.85749101638794	fix_post	2		12.0	22.0	2.5	/experiments/knapen_aot/videos/S_yt-nYi_FfCjepk_74.mp4	0.0	160.37660813331604	0.1000521183013916
25	68.95754313468933	fix_pre	0		24.0	23.0	2.5	/experiments/knapen_aot/videos/R_S_bing-www_cnet_com_videos_amazon-wants-to-put-alexa-on-your-pc__50.mp4	0.0	160.47666025161743	0.20833587646484375
25	69.14174509048462	response	0	2		23.0	2.5	/experiments/knapen_aot/videos/R_S_bing-www_cnet_com_videos_amazon-wants-to-put-alexa-on-your-pc__50.mp4	0.0	160.66086220741272	
25	69.16587901115417	movie	1		164.0	23.0	2.5	/experiments/knapen_aot/videos/R_S_bing-www_cnet_com_videos_amazon-wants-to-put-alexa-on-your-pc__50.mp4	0.0	160.68499612808228	2.4999890327453613
25	71.66586804389954	fix_post	2		12.0	23.0	2.5	/experiments/knapen_aot/videos/R_S_bing-www_cnet_com_videos_amazon-wants-to-put-alexa-on-your-pc__50.mp4	0.0	163.18498516082764	0.10001015663146973
26	71.765878200531	fix_pre	0		34.0	24.0	2.5	/experiments/knapen_aot/videos/R_S_yt-c5IgOXX8YZ0_24.mp4	0.0	163.2849953174591	0.28414487838745117
26	72.04101920127869	response	0	2		24.0	2.5	/experiments/knapen_aot/videos/R_S_yt-c5IgOXX8YZ0_24.mp4	0.0	163.5601363182068	
26	72.05002307891846	movie	1		301.0	24.0	2.5	/experiments/knapen_aot/videos/R_S_yt-c5IgOXX8YZ0_24.mp4	0.0	163.56914019584656	2.5076229572296143
26	74.55764603614807	fix_post	2		12.0	24.0	2.5	/experiments/knapen_aot/videos/R_S_yt-c5IgOXX8YZ0_24.mp4	0.0	166.07676315307617	0.099822998046875
27	74.65746903419495	fix_pre	0		21.0	25.0	2.5	/experiments/knapen_aot/videos/S_yt-RMjo2PPEPEA_112.mp4	0.0	166.17658615112305	0.17505598068237305
27	74.82433104515076	response	0	2		25.0	2.5	/experiments/knapen_aot/videos/S_yt-RMjo2PPEPEA_112.mp4	0.0	166.34344816207886	
27	74.83252501487732	movie	1		301.0	25.0	2.5	/experiments/knapen_aot/videos/S_yt-RMjo2PPEPEA_112.mp4	0.0	166.35164213180542	2.5083119869232178
27	77.34083700180054	fix_post	2		12.0	25.0	2.5	/experiments/knapen_aot/videos/S_yt-RMjo2PPEPEA_112.mp4	0.0	168.85995411872864	0.10001707077026367
28	77.4408540725708	fix_pre	0		7.0	26.0	2.5	/experiments/knapen_aot/videos/S_G008_C015_UHD_SDR_2K_AVC.mp4	0.0	168.9599711894989	0.0582730770111084
28	77.49088215827942	response	0	2		26.0	2.5	/experiments/knapen_aot/videos/S_G008_C015_UHD_SDR_2K_AVC.mp4	0.0	169.00999927520752	
28	77.49912714958191	movie	1		172.0	26.0	2.5	/experiments/knapen_aot/videos/S_G008_C015_UHD_SDR_2K_AVC.mp4	0.0	169.01824426651	2.5083420276641846
28	80.0074691772461	fix_post	2		12.0	26.0	2.5	/experiments/knapen_aot/videos/S_G008_C015_UHD_SDR_2K_AVC.mp4	0.0	171.5265862941742	0.09997987747192383
28	80.09184122085571	response	2	2		26.0	2.5	/experiments/knapen_aot/videos/S_G008_C015_UHD_SDR_2K_AVC.mp4	0.0	171.6109583377838	
29	80.10744905471802	fix_pre	0		41.0	27.0	2.5	/experiments/knapen_aot/videos/R_S_yt-JGKdBO2Ldzo_93.mp4	0.0	171.62656617164612	0.3417179584503174
29	80.4408950805664	response	0	2		27.0	2.5	/experiments/knapen_aot/videos/R_S_yt-JGKdBO2Ldzo_93.mp4	0.0	171.9600121974945	
29	80.44916701316833	movie	1		300.0	27.0	2.5	/experiments/knapen_aot/videos/R_S_yt-JGKdBO2Ldzo_93.mp4	0.0	171.96828413009644	2.508301019668579
29	82.84934520721436	response	1	2		27.0	2.5	/experiments/knapen_aot/videos/R_S_yt-JGKdBO2Ldzo_93.mp4	0.0	174.36846232414246	
29	82.95746803283691	fix_post	2		12.0	27.0	2.5	/experiments/knapen_aot/videos/R_S_yt-JGKdBO2Ldzo_93.mp4	0.0	174.47658514976501	0.1000511646270752
30	83.05751919746399	fix_pre	0		15.0	28.0	2.5	blank	1.0	174.5766363143921	0.12491798400878906
30	83.17424011230469	response	0	2		28.0	2.5	blank	1.0	174.6933572292328	
30	83.18243718147278	movie	1		301.0	28.0	2.5	blank	1.0	174.70155429840088	2.508340835571289
30	85.69077801704407	fix_post	2		12.0	28.0	2.5	blank	1.0	177.20989513397217	0.10004615783691406
31	85.79082417488098	fix_pre	0		27.0	29.0	2.5	/experiments/knapen_aot/videos/S_yt-GFcuvjHJmS4_86.mp4	0.0	177.30994129180908	0.22492504119873047
31	86.0075991153717	response	0	2		29.0	2.5	/experiments/knapen_aot/videos/S_yt-GFcuvjHJmS4_86.mp4	0.0	177.5267162322998	
31	86.01574921607971	movie	1		301.0	29.0	2.5	/experiments/knapen_aot/videos/S_yt-GFcuvjHJmS4_86.mp4	0.0	177.5348663330078	2.5083248615264893
31	88.5240740776062	fix_post	2		12.0	29.0	2.5	/experiments/knapen_aot/videos/S_yt-GFcuvjHJmS4_86.mp4	0.0	180.0431911945343	0.1000370979309082
32	88.62411117553711	fix_pre	0		27.0	30.0	2.5	/experiments/knapen_aot/videos/S_yt--vHa85DHvLU_31.mp4	0.0	180.1432282924652	0.224992036819458
32	88.84093308448792	response	0	2		30.0	2.5	/experiments/knapen_aot/videos/S_yt--vHa85DHvLU_31.mp4	0.0	180.36005020141602	
32	88.84910321235657	movie	1		300.0	30.0	2.5	/experiments/knapen_aot/videos/S_yt--vHa85DHvLU_31.mp4	0.0	180.36822032928467	2.5083677768707275
32	91.3574709892273	fix_post	2		12.0	30.0	2.5	/experiments/knapen_aot/videos/S_yt--vHa85DHvLU_31.mp4	0.0	182.8765881061554	0.09993410110473633
33	91.45740509033203	fix_pre	0		30.0	31.0	2.5	/experiments/knapen_aot/videos/S_pexels-mart-production-7698911.mp4	0.0	182.97652220726013	0.250028133392334
33	91.6992781162262	response	0	2		31.0	2.5	/experiments/knapen_aot/videos/S_pexels-mart-production-7698911.mp4	0.0	183.2183952331543	
33	91.70743322372437	movie	1		190.0	31.0	2.5	/experiments/knapen_aot/videos/S_pexels-mart-production-7698911.mp4	0.0	183.22655034065247	2.50830078125
33	94.21573400497437	fix_post	2		12.0	31.0	2.5	/experiments/knapen_aot/videos/S_pexels-mart-production-7698911.mp4	0.0	185.73485112190247	0.10001301765441895
34	94.31574702262878	fix_pre	0		33.0	32.0	2.5	/experiments/knapen_aot/videos/S_yt-vacON8rxZaI_168.mp4	0.0	185.83486413955688	0.27568602561950684
34	94.58254218101501	response	0	2		32.0	2.5	/experiments/knapen_aot/videos/S_yt-vacON8rxZaI_168.mp4	0.0	186.10165929794312	
34	94.59143304824829	movie	1		301.0	32.0	2.5	/experiments/knapen_aot/videos/S_yt-vacON8rxZaI_168.mp4	0.0	186.1105501651764	2.507599115371704
34	97.09903216362	fix_post	2		12.0	32.0	2.5	/experiments/knapen_aot/videos/S_yt-vacON8rxZaI_168.mp4	0.0	188.6181492805481	0.10004496574401855
35	97.19907712936401	fix_pre	0		37.0	33.0	2.5	/experiments/knapen_aot/videos/S_yt-lazG9z4VQAw_99.mp4	0.0	188.71819424629211	0.3090369701385498
35	97.49927115440369	response	0	2		33.0	2.5	/experiments/knapen_aot/videos/S_yt-lazG9z4VQAw_99.mp4	0.0	189.0183882713318	
35	97.50811409950256	movie	1		301.0	33.0	2.5	/experiments/knapen_aot/videos/S_yt-lazG9z4VQAw_99.mp4	0.0	189.02723121643066	2.507657051086426
35	100.01577115058899	fix_post	2		12.0	33.0	2.5	/experiments/knapen_aot/videos/S_yt-lazG9z4VQAw_99.mp4	0.0	191.5348882675171	0.09999394416809082
36	100.11576509475708	fix_pre	0		13.0	34.0	2.5	blank	1.0	191.63488221168518	0.10833907127380371
36	100.2158350944519	response	0	2		34.0	2.5	blank	1.0	191.73495221138	
36	100.22410416603088	movie	1		301.0	34.0	2.5	blank	1.0	191.74322128295898	2.5082390308380127
36	102.7323431968689	fix_post	2		12.0	34.0	2.5	blank	1.0	194.251460313797	0.1000509262084961
37	102.83239412307739	fix_pre	0		30.0	35.0	2.5	/experiments/knapen_aot/videos/S_ILSVRC2015_train_00595000.mp4	0.0	194.3515112400055	0.24997496604919434
37	103.07411313056946	response	0	2		35.0	2.5	/experiments/knapen_aot/videos/S_ILSVRC2015_train_00595000.mp4	0.0	194.59323024749756	
37	103.08236908912659	movie	1		301.0	35.0	2.5	/experiments/knapen_aot/videos/S_ILSVRC2015_train_00595000.mp4	0.0	194.6014862060547	2.5083940029144287
37	105.59076309204102	fix_post	2		12.0	35.0	2.5	/experiments/knapen_aot/videos/S_ILSVRC2015_train_00595000.mp4	0.0	197.10988020896912	0.10000395774841309
38	105.69076704978943	fix_pre	0		11.0	36.0	2.5	/experiments/knapen_aot/videos/S_ILSVRC2015_train_00303008.mp4	0.0	197.20988416671753	0.09162306785583496
38	105.77424502372742	response	0	2		36.0	2.5	/experiments/knapen_aot/videos/S_ILSVRC2015_train_00303008.mp4	0.0	197.29336214065552	
38	105.78239011764526	movie	1		301.0	36.0	2.5	/experiments/knapen_aot/videos/S_ILSVRC2015_train_00303008.mp4	0.0	197.30150723457336	2.508352041244507
38	108.29074215888977	fix_post	2		12.0	36.0	2.5	/experiments/knapen_aot/videos/S_ILSVRC2015_train_00303008.mp4	0.0	199.80985927581787	0.09998798370361328
39	108.39073014259338	fix_pre	0		32.0	37.0	2.5	/experiments/knapen_aot/videos/S_yt-GFcuvjHJmS4_86.mp4	0.0	199.90984725952148	0.26666688919067383
39	108.64914011955261	response	0	2		37.0	2.5	/experiments/knapen_aot/videos/S_yt-GFcuvjHJmS4_86.mp4	0.0	200.1682572364807	
39	108.65739703178406	movie	1		298.0	37.0	2.5	/experiments/knapen_aot/videos/S_yt-GFcuvjHJmS4_86.mp4	0.0	200.17651414871216	2.5083470344543457
39	111.1657440662384	fix_post	2		12.0	37.0	2.5	/experiments/knapen_aot/videos/S_yt-GFcuvjHJmS4_86.mp4	0.0	202.6848611831665	0.09989309310913086
40	111.26563715934753	fix_pre	0		45.0	38.0	2.5	/experiments/knapen_aot/videos/S_production_ID_3923518.mp4	0.0	202.78475427627563	0.37503886222839355
40	111.63243818283081	response	0	2		38.0	2.5	/experiments/knapen_aot/videos/S_production_ID_3923518.mp4	0.0	203.1515552997589	
40	111.64067602157593	movie	1		172.0	38.0	2.5	/experiments/knapen_aot/videos/S_production_ID_3923518.mp4	0.0	203.15979313850403	2.508357048034668
40	114.1490330696106	fix_post	2		12.0	38.0	2.5	/experiments/knapen_aot/videos/S_production_ID_3923518.mp4	0.0	205.6681501865387	0.09998297691345215
41	114.24901604652405	fix_pre	0		40.0	39.0	2.5	/experiments/knapen_aot/videos/S_video_inspire_nevada_lasvegas_northstrip_021.1080-h264.mp4	0.0	205.76813316345215	0.33335208892822266
41	114.57415819168091	response	0	2		39.0	2.5	/experiments/knapen_aot/videos/S_video_inspire_nevada_lasvegas_northstrip_021.1080-h264.mp4	0.0	206.093275308609	
41	114.58236813545227	movie	1		167.0	39.0	2.5	/experiments/knapen_aot/videos/S_video_inspire_nevada_lasvegas_northstrip_021.1080-h264.mp4	0.0	206.10148525238037	2.5082478523254395
41	117.09061598777771	fix_post	2		12.0	39.0	2.5	/experiments/knapen_aot/videos/S_video_inspire_nevada_lasvegas_northstrip_021.1080-h264.mp4	0.0	208.6097331047058	0.09997916221618652
42	117.1905951499939	fix_pre	0		21.0	40.0	2.5	blank	1.0	208.709712266922	0.17511796951293945
42	117.35745406150818	response	0	2		40.0	2.5	blank	1.0	208.87657117843628	
42	117.36571311950684	movie	1		301.0	40.0	2.5	blank	1.0	208.88483023643494	2.5082340240478516
42	119.87394714355469	fix_post	2		12.0	40.0	2.5	blank	1.0	211.3930642604828	0.09997391700744629
43	119.97392106056213	fix_pre	0		68.0	41.0	2.5	/experiments/knapen_aot/videos/R_S_yt-n6aLw10f2Yw_317.mp4	0.0	211.49303817749023	0.5666680335998535
43	120.53245520591736	response	0	2		41.0	2.5	/experiments/knapen_aot/videos/R_S_yt-n6aLw10f2Yw_317.mp4	0.0	212.05157232284546	
43	120.54058909416199	movie	1		301.0	41.0	2.5	/experiments/knapen_aot/videos/R_S_yt-n6aLw10f2Yw_317.mp4	0.0	212.0597062110901	2.5084140300750732
43	123.04900312423706	fix_post	2		12.0	41.0	2.5	/experiments/knapen_aot/videos/R_S_yt-n6aLw10f2Yw_317.mp4	0.0	214.56812024116516	0.09999704360961914
44	123.14900016784668	fix_pre	0		32.0	42.0	2.5	/experiments/knapen_aot/videos/S_ILSVRC2015_train_00715000.mp4	0.0	214.66811728477478	0.2666158676147461
44	123.39997220039368	response	0	2		42.0	2.5	/experiments/knapen_aot/videos/S_ILSVRC2015_train_00715000.mp4	0.0	214.91908931732178	
44	123.41561603546143	movie	1		301.0	42.0	2.5	/experiments/knapen_aot/videos/S_ILSVRC2015_train_00715000.mp4	0.0	214.93473315238953	2.508350133895874
44	125.9239661693573	fix_post	2		12.0	42.0	2.5	/experiments/knapen_aot/videos/S_ILSVRC2015_train_00715000.mp4	0.0	217.4430832862854	0.1000218391418457
45	126.02398800849915	fix_pre	0		31.0	43.0	2.5	/experiments/knapen_aot/videos/S_3WAnGcPubBY_143.mp4	0.0	217.54310512542725	0.2583119869232178
45	126.27406811714172	response	0	2		43.0	2.5	/experiments/knapen_aot/videos/S_3WAnGcPubBY_143.mp4	0.0	217.79318523406982	
45	126.28229999542236	movie	1		301.0	43.0	2.5	/experiments/knapen_aot/videos/S_3WAnGcPubBY_143.mp4	0.0	217.80141711235046	2.5083160400390625
45	128.79061603546143	fix_post	2		12.0	43.0	2.5	/experiments/knapen_aot/videos/S_3WAnGcPubBY_143.mp4	0.0	220.30973315238953	0.1000070571899414
46	128.89062309265137	fix_pre	0		10.0	44.0	2.5	/experiments/knapen_aot/videos/S_yt-CJeyOFsd3lg_80.mp4	0.0	220.40974020957947	0.0832970142364502
46	128.96565699577332	response	0	2		44.0	2.5	/experiments/knapen_aot/videos/S_yt-CJeyOFsd3lg_80.mp4	0.0	220.48477411270142	
46	128.97392010688782	movie	1		301.0	44.0	2.5	/experiments/knapen_aot/videos/S_yt-CJeyOFsd3lg_80.mp4	0.0	220.49303722381592	2.5083189010620117
46	131.48223900794983	fix_post	2		12.0	44.0	2.5	/experiments/knapen_aot/videos/S_yt-CJeyOFsd3lg_80.mp4	0.0	223.00135612487793	0.10004901885986328
47	131.5822880268097	fix_pre	0		7.0	45.0	2.5	/experiments/knapen_aot/videos/S_yt-giRwl4yChlw_9.mp4	0.0	223.1014051437378	0.05833005905151367
47	131.63248014450073	response	0	2		45.0	2.5	/experiments/knapen_aot/videos/S_yt-giRwl4yChlw_9.mp4	0.0	223.15159726142883	
47	131.6406180858612	movie	1		301.0	45.0	2.5	/experiments/knapen_aot/videos/S_yt-giRwl4yChlw_9.mp4	0.0	223.1597352027893	2.508239984512329
47	134.14885807037354	fix_post	2		12.0	45.0	2.5	/experiments/knapen_aot/videos/S_yt-giRwl4yChlw_9.mp4	0.0	225.66797518730164	0.1000680923461914
48	134.24892616271973	fix_pre	0		20.0	46.0	2.5	/experiments/knapen_aot/videos/S_X-D3lUv-atE_376.mp4	0.0	225.76804327964783	0.16661787033081055
48	134.40734815597534	response	0	2		46.0	2.5	/experiments/knapen_aot/videos/S_X-D3lUv-atE_376.mp4	0.0	225.92646527290344	
48	134.41554403305054	movie	1		301.0	46.0	2.5	/experiments/knapen_aot/videos/S_X-D3lUv-atE_376.mp4	0.0	225.93466114997864	2.508358955383301
48	136.92390298843384	fix_post	2		12.0	46.0	2.5	/experiments/knapen_aot/videos/S_X-D3lUv-atE_376.mp4	0.0	228.44302010536194	0.1000220775604248
49	137.02392506599426	fix_pre	0		27.0	47.0	2.5	blank	1.0	228.54304218292236	0.2248830795288086
49	137.24070119857788	response	0	2		47.0	2.5	blank	1.0	228.75981831550598	
49	137.24880814552307	movie	1		301.0	47.0	2.5	blank	1.0	228.76792526245117	2.5083699226379395
49	139.757178068161	fix_post	2		12.0	47.0	2.5	blank	1.0	231.2762951850891	0.1000509262084961
50	139.8572289943695	fix_pre	0		24.0	48.0	2.5	/experiments/knapen_aot/videos/R_S_pexels-artem-podrez-5457692.mp4	0.0	231.3763461112976	0.20000410079956055
50	140.0490460395813	response	0	2		48.0	2.5	/experiments/knapen_aot/videos/R_S_pexels-artem-podrez-5457692.mp4	0.0	231.5681631565094	
50	140.05723309516907	movie	1		167.0	48.0	2.5	/experiments/knapen_aot/videos/R_S_pexels-artem-podrez-5457692.mp4	0.0	231.57635021209717	2.5082271099090576
50	142.56546020507812	fix_post	2		12.0	48.0	2.5	/experiments/knapen_aot/videos/R_S_pexels-artem-podrez-5457692.mp4	0.0	234.08457732200623	0.10191583633422852
50	142.6573359966278	response	2	2		48.0	2.5	/experiments/knapen_aot/videos/R_S_pexels-artem-podrez-5457692.mp4	0.0	234.1764531135559	
51	142.66737604141235	fix_pre	0		61.0	49.0	2.5	/experiments/knapen_aot/videos/R_S_yt-hvuC_2YXsTQ_159.mp4	0.0	234.18649315834045	0.5069441795349121
51	143.1656370162964	response	0	2		49.0	2.5	/experiments/knapen_aot/videos/R_S_yt-hvuC_2YXsTQ_159.mp4	0.0	234.6847541332245	
51	143.17432022094727	movie	1		301.0	49.0	2.5	/experiments/knapen_aot/videos/R_S_yt-hvuC_2YXsTQ_159.mp4	0.0	234.69343733787537	2.507887840270996
51	145.68220806121826	fix_post	2		12.0	49.0	2.5	/experiments/knapen_aot/videos/R_S_yt-hvuC_2YXsTQ_159.mp4	0.0	237.20132517814636	0.1000220775604248
52	145.7822301387787	fix_pre	0		15.0	50.0	2.5	/experiments/knapen_aot/videos/R_S_ILSVRC2015_train_00485001.mp4	0.0	237.3013472557068	0.12496590614318848
52	145.89894104003906	response	0	2		50.0	2.5	/experiments/knapen_aot/videos/R_S_ILSVRC2015_train_00485001.mp4	0.0	237.41805815696716	
52	145.90719604492188	movie	1		301.0	50.0	2.5	/experiments/knapen_aot/videos/R_S_ILSVRC2015_train_00485001.mp4	0.0	237.42631316184998	2.508334159851074
52	148.41553020477295	fix_post	2		12.0	50.0	2.5	/experiments/knapen_aot/videos/R_S_ILSVRC2015_train_00485001.mp4	0.0	239.93464732170105	0.09994697570800781
53	148.51547718048096	fix_pre	0		44.0	51.0	2.5	/experiments/knapen_aot/videos/R_S_SPNvf6JCjGw_123.mp4	0.0	240.03459429740906	0.367095947265625
53	148.87402415275574	response	0	2		51.0	2.5	/experiments/knapen_aot/videos/R_S_SPNvf6JCjGw_123.mp4	0.0	240.39314126968384	
53	148.88257312774658	movie	1		301.0	51.0	2.5	/experiments/knapen_aot/videos/R_S_SPNvf6JCjGw_123.mp4	0.0	240.40169024467468	2.507935047149658
53	151.39050817489624	fix_post	2		12.0	51.0	2.5	/experiments/knapen_aot/videos/R_S_SPNvf6JCjGw_123.mp4	0.0	242.90962529182434	0.09999799728393555
54	151.49050617218018	fix_pre	0		5.0	52.0	2.5	/experiments/knapen_aot/videos/S_wc-ZZxbTv7oc5DQ_10.mp4	0.0	243.00962328910828	0.0417020320892334
54	151.52393317222595	response	0	2		52.0	2.5	/experiments/knapen_aot/videos/S_wc-ZZxbTv7oc5DQ_10.mp4	0.0	243.04305028915405	
54	151.5322082042694	movie	1		166.0	52.0	2.5	/experiments/knapen_aot/videos/S_wc-ZZxbTv7oc5DQ_10.mp4	0.0	243.0513253211975	2.508293867111206
54	154.04050207138062	fix_post	2		12.0	52.0	2.5	/experiments/knapen_aot/videos/S_wc-ZZxbTv7oc5DQ_10.mp4	0.0	245.55961918830872	0.09999394416809082
55	154.1404960155487	fix_pre	0		11.0	53.0	2.5	/experiments/knapen_aot/videos/S_yt-GjFQxAklviE_25.mp4	0.0	245.6596131324768	0.09173297882080078
55	154.216450214386	response	0	2		53.0	2.5	/experiments/knapen_aot/videos/S_yt-GjFQxAklviE_25.mp4	0.0	245.7355673313141	
55	154.2322289943695	movie	1		298.0	53.0	2.5	/experiments/knapen_aot/videos/S_yt-GjFQxAklviE_25.mp4	0.0	245.7513461112976	2.5082590579986572
55	156.74048805236816	fix_post	2		12.0	53.0	2.5	/experiments/knapen_aot/videos/S_yt-GjFQxAklviE_25.mp4	0.0	248.25960516929626	0.09999895095825195
56	156.84048700332642	fix_pre	0		10.0	54.0	2.5	/experiments/knapen_aot/videos/R_S_ILSVRC2015_train_00572000.mp4	0.0	248.35960412025452	0.08370399475097656
56	156.91565418243408	response	0	2		54.0	2.5	/experiments/knapen_aot/videos/R_S_ILSVRC2015_train_00572000.mp4	0.0	248.43477129936218	
56	156.9241909980774	movie	1		301.0	54.0	2.5	/experiments/knapen_aot/videos/R_S_ILSVRC2015_train_00572000.mp4	0.0	248.4433081150055	2.5079121589660645
56	159.43210315704346	fix_post	2		12.0	54.0	2.5	/experiments/knapen_aot/videos/R_S_ILSVRC2015_train_00572000.mp4	0.0	250.95122027397156	0.1000368595123291
57	159.5321400165558	fix_pre	0		12.0	55.0	2.5	/experiments/knapen_aot/videos/R_S_yt-Bx2kLEUuN0E_456.mp4	0.0	251.0512571334839	0.10034513473510742
57	159.6239230632782	response	0	2		55.0	2.5	/experiments/knapen_aot/videos/R_S_yt-Bx2kLEUuN0E_456.mp4	0.0	251.1430401802063	
57	159.6324851512909	movie	1		301.0	55.0	2.5	/experiments/knapen_aot/videos/R_S_yt-Bx2kLEUuN0E_456.mp4	0.0	251.151602268219	2.508039951324463
57	162.14052510261536	fix_post	2		12.0	55.0	2.5	/experiments/knapen_aot/videos/R_S_yt-Bx2kLEUuN0E_456.mp4	0.0	253.65964221954346	0.09996604919433594
58	162.2404911518097	fix_pre	0		16.0	56.0	2.5	blank	1.0	253.7596082687378	0.13338804244995117
58	162.35815501213074	response	0	2		56.0	2.5	blank	1.0	253.87727212905884	
58	162.37387919425964	movie	1		301.0	56.0	2.5	blank	1.0	253.89299631118774	2.5082099437713623
58	164.882089138031	fix_post	2		12.0	56.0	2.5	blank	1.0	256.4012062549591	0.10006499290466309
59	164.98215413093567	fix_pre	0		21.0	57.0	2.5	/experiments/knapen_aot/videos/S_yt-JDHApyT5ngs_128.mp4	0.0	256.50127124786377	0.17490696907043457
59	165.14890503883362	response	0	2		57.0	2.5	/experiments/knapen_aot/videos/S_yt-JDHApyT5ngs_128.mp4	0.0	256.6680221557617	
59	165.1570611000061	movie	1		301.0	57.0	2.5	/experiments/knapen_aot/videos/S_yt-JDHApyT5ngs_128.mp4	0.0	256.6761782169342	2.508281946182251
59	167.66534304618835	fix_post	2		12.0	57.0	2.5	/experiments/knapen_aot/videos/S_yt-JDHApyT5ngs_128.mp4	0.0	259.18446016311646	0.10005712509155273
60	167.7654001712799	fix_pre	0		23.0	58.0	2.5	/experiments/knapen_aot/videos/S_pexels-rodnae-productions-5993237.mp4	0.0	259.284517288208	0.19170784950256348
60	167.94891810417175	response	0	2		58.0	2.5	/experiments/knapen_aot/videos/S_pexels-rodnae-productions-5993237.mp4	0.0	259.46803522109985	
60	167.95710802078247	movie	1		165.0	58.0	2.5	/experiments/knapen_aot/videos/S_pexels-rodnae-productions-5993237.mp4	0.0	259.47622513771057	2.5083281993865967
60	170.46543622016907	fix_post	2		12.0	58.0	2.5	/experiments/knapen_aot/videos/S_pexels-rodnae-productions-5993237.mp4	0.0	261.98455333709717	0.09996891021728516
61	170.56540513038635	fix_pre	0		5.0	59.0	2.5	/experiments/knapen_aot/videos/S_ILSVRC2015_train_00682000.mp4	0.0	262.08452224731445	0.04170393943786621
61	170.59893012046814	response	0	2		59.0	2.5	/experiments/knapen_aot/videos/S_ILSVRC2015_train_00682000.mp4	0.0	262.11804723739624	
61	170.60710906982422	movie	1		301.0	59.0	2.5	/experiments/knapen_aot/videos/S_ILSVRC2015_train_00682000.mp4	0.0	262.1262261867523	2.508263111114502
61	173.11537218093872	fix_post	2		12.0	59.0	2.5	/experiments/knapen_aot/videos/S_ILSVRC2015_train_00682000.mp4	0.0	264.6344892978668	0.10044002532958984
62	173.2158122062683	fix_pre	0		18.0	60.0	2.5	/experiments/knapen_aot/videos/R_S_yt-bWXohhodbjg_98.mp4	0.0	264.7349293231964	0.14956378936767578
62	173.35726118087769	response	0	2		60.0	2.5	/experiments/knapen_aot/videos/R_S_yt-bWXohhodbjg_98.mp4	0.0	264.8763782978058	
62	173.365375995636	movie	1		301.0	60.0	2.5	/experiments/knapen_aot/videos/R_S_yt-bWXohhodbjg_98.mp4	0.0	264.8844931125641	2.508406162261963
62	175.87378215789795	fix_post	2		12.0	60.0	2.5	/experiments/knapen_aot/videos/R_S_yt-bWXohhodbjg_98.mp4	0.0	267.39289927482605	0.09998393058776855
63	175.97376608848572	fix_pre	0		20.0	61.0	2.5	/experiments/knapen_aot/videos/S_yt-NuZy8Rjk4d0_156.mp4	0.0	267.4928832054138	0.16661405563354492
63	176.13218808174133	response	0	2		61.0	2.5	/experiments/knapen_aot/videos/S_yt-NuZy8Rjk4d0_156.mp4	0.0	267.65130519866943	
63	176.14038014411926	movie	1		301.0	61.0	2.5	/experiments/knapen_aot/videos/S_yt-NuZy8Rjk4d0_156.mp4	0.0	267.65949726104736	2.5083818435668945
63	178.64876198768616	fix_post	2		12.0	61.0	2.5	/experiments/knapen_aot/videos/S_yt-NuZy8Rjk4d0_156.mp4	0.0	270.16787910461426	0.100189208984375
64	178.74895119667053	fix_pre	0		40.0	62.0	2.5	/experiments/knapen_aot/videos/R_S_yt-5hgLXyLw82w_23.mp4	0.0	270.26806831359863	0.3331289291381836
64	179.07381415367126	response	0	2		62.0	2.5	/experiments/knapen_aot/videos/R_S_yt-5hgLXyLw82w_23.mp4	0.0	270.59293127059937	
64	179.08208012580872	movie	1		301.0	62.0	2.5	/experiments/knapen_aot/videos/R_S_yt-5hgLXyLw82w_23.mp4	0.0	270.6011972427368	2.508302927017212
64	181.59038305282593	fix_post	2		12.0	62.0	2.5	/experiments/knapen_aot/videos/R_S_yt-5hgLXyLw82w_23.mp4	0.0	273.109500169754	0.10001206398010254
65	181.69039511680603	fix_pre	0		52.0	63.0	2.5	blank	1.0	273.20951223373413	0.43336009979248047
65	182.10793805122375	response	0	2		63.0	2.5	blank	1.0	273.62705516815186	
65	182.1237552165985	movie	1		301.0	63.0	2.5	blank	1.0	273.6428723335266	2.5083088874816895
65	184.6320641040802	fix_post	2		12.0	63.0	2.5	blank	1.0	276.1511812210083	0.09997391700744629
66	184.73203802108765	fix_pre	0		40.0	64.0	2.5	/experiments/knapen_aot/videos/R_S_yt-9NV8zv2Sdq4_30.mp4	0.0	276.25115513801575	0.3333292007446289
66	185.05711817741394	response	0	2		64.0	2.5	/experiments/knapen_aot/videos/R_S_yt-9NV8zv2Sdq4_30.mp4	0.0	276.57623529434204	
66	185.06536722183228	movie	1		301.0	64.0	2.5	/experiments/knapen_aot/videos/R_S_yt-9NV8zv2Sdq4_30.mp4	0.0	276.5844843387604	2.5083088874816895
66	187.57367610931396	fix_post	2		12.0	64.0	2.5	/experiments/knapen_aot/videos/R_S_yt-9NV8zv2Sdq4_30.mp4	0.0	279.09279322624207	0.10021495819091797
67	187.67389106750488	fix_pre	0		8.0	65.0	2.5	/experiments/knapen_aot/videos/R_S_yt-YMI27rk5qUQ_117.mp4	0.0	279.193008184433	0.06644797325134277
67	187.7320911884308	response	0	2		65.0	2.5	/experiments/knapen_aot/videos/R_S_yt-YMI27rk5qUQ_117.mp4	0.0	279.2512083053589	
67	187.74033904075623	movie	1		301.0	65.0	2.5	/experiments/knapen_aot/videos/R_S_yt-YMI27rk5qUQ_117.mp4	0.0	279.2594561576843	2.508294105529785
67	190.248633146286	fix_post	2		12.0	65.0	2.5	/experiments/knapen_aot/videos/R_S_yt-YMI27rk5qUQ_117.mp4	0.0	281.7677502632141	0.10000491142272949
68	190.34863805770874	fix_pre	0		59.0	66.0	2.5	/experiments/knapen_aot/videos/S_yt-bWXohhodbjg_98.mp4	0.0	281.86775517463684	0.4919400215148926
68	190.83215403556824	response	0	2		66.0	2.5	/experiments/knapen_aot/videos/S_yt-bWXohhodbjg_98.mp4	0.0	282.35127115249634	
68	190.84057807922363	movie	1		301.0	66.0	2.5	/experiments/knapen_aot/videos/S_yt-bWXohhodbjg_98.mp4	0.0	282.35969519615173	2.5080959796905518
68	193.34867405891418	fix_post	2		12.0	66.0	2.5	/experiments/knapen_aot/videos/S_yt-bWXohhodbjg_98.mp4	0.0	284.8677911758423	0.09997010231018066
69	193.44864416122437	fix_pre	0		30.0	67.0	2.5	/experiments/knapen_aot/videos/R_S_yt-mMnlzv6cfH4_134.mp4	0.0	284.96776127815247	0.2500159740447998
69	193.6904730796814	response	0	2		67.0	2.5	/experiments/knapen_aot/videos/R_S_yt-mMnlzv6cfH4_134.mp4	0.0	285.2095901966095	
69	193.69866013526917	movie	1		301.0	67.0	2.5	/experiments/knapen_aot/videos/R_S_yt-mMnlzv6cfH4_134.mp4	0.0	285.21777725219727	2.508396863937378
69	196.20705699920654	fix_post	2		12.0	67.0	2.5	/experiments/knapen_aot/videos/R_S_yt-mMnlzv6cfH4_134.mp4	0.0	287.72617411613464	0.09996700286865234
70	196.3070240020752	fix_pre	0		24.0	68.0	2.5	/experiments/knapen_aot/videos/S_pexels-koolshooters-7327412_1.mp4	0.0	287.8261411190033	0.20011520385742188
70	196.498850107193	response	0	2		68.0	2.5	/experiments/knapen_aot/videos/S_pexels-koolshooters-7327412_1.mp4	0.0	288.0179672241211	
70	196.50713920593262	movie	1		164.0	68.0	2.5	/experiments/knapen_aot/videos/S_pexels-koolshooters-7327412_1.mp4	0.0	288.0262563228607	2.5082240104675293
70	199.01536321640015	fix_post	2		12.0	68.0	2.5	/experiments/knapen_aot/videos/S_pexels-koolshooters-7327412_1.mp4	0.0	290.53448033332825	0.10000085830688477
71	199.11536407470703	fix_pre	0		17.0	69.0	2.5	blank	1.0	290.63448119163513	0.1417679786682129
71	199.24881601333618	response	0	2		69.0	2.5	blank	1.0	290.7679331302643	
71	199.25713205337524	movie	1		301.0	69.0	2.5	blank	1.0	290.77624917030334	2.508305072784424
71	201.76543712615967	fix_post	2		12.0	69.0	2.5	blank	1.0	293.28455424308777	0.09992790222167969
72	201.86536502838135	fix_pre	0		38.0	70.0	2.5	/experiments/knapen_aot/videos/R_S_yt-UmLeGNcqouI_718.mp4	0.0	293.38448214530945	0.31664609909057617
72	202.1738440990448	response	0	2		70.0	2.5	/experiments/knapen_aot/videos/R_S_yt-UmLeGNcqouI_718.mp4	0.0	293.6929612159729	
72	202.18201112747192	movie	1		301.0	70.0	2.5	/experiments/knapen_aot/videos/R_S_yt-UmLeGNcqouI_718.mp4	0.0	293.7011282444	2.508288860321045
72	204.69029998779297	fix_post	2		12.0	70.0	2.5	/experiments/knapen_aot/videos/R_S_yt-UmLeGNcqouI_718.mp4	0.0	296.20941710472107	0.09993815422058105
73	204.79023814201355	fix_pre	0		52.0	71.0	2.5	/experiments/knapen_aot/videos/R_S_yt-_7HJhRPVmHw_255.mp4	0.0	296.30935525894165	0.4333469867706299
73	205.2153902053833	response	0	2		71.0	2.5	/experiments/knapen_aot/videos/R_S_yt-_7HJhRPVmHw_255.mp4	0.0	296.7345073223114	
73	205.22358512878418	movie	1		301.0	71.0	2.5	/experiments/knapen_aot/videos/R_S_yt-_7HJhRPVmHw_255.mp4	0.0	296.7427022457123	2.508331060409546
73	207.73191618919373	fix_post	2		12.0	71.0	2.5	/experiments/knapen_aot/videos/R_S_yt-_7HJhRPVmHw_255.mp4	0.0	299.2510333061218	0.09997987747192383
74	207.83189606666565	fix_pre	0		42.0	72.0	2.5	/experiments/knapen_aot/videos/S_yt-BW6jWEVbxxk_4.mp4	0.0	299.35101318359375	0.3500509262084961
74	208.1738030910492	response	0	2		72.0	2.5	/experiments/knapen_aot/videos/S_yt-BW6jWEVbxxk_4.mp4	0.0	299.6929202079773	
74	208.18194699287415	movie	1		300.0	72.0	2.5	/experiments/knapen_aot/videos/S_yt-BW6jWEVbxxk_4.mp4	0.0	299.70106410980225	2.508273124694824
74	210.69022011756897	fix_post	2		12.0	72.0	2.5	/experiments/knapen_aot/videos/S_yt-BW6jWEVbxxk_4.mp4	0.0	302.20933723449707	0.10006499290466309
75	210.79028511047363	fix_pre	0		20.0	73.0	2.5	/experiments/knapen_aot/videos/R_S_yt-9pYW_TqVpU4_43.mp4	0.0	302.30940222740173	0.16659307479858398
75	210.948744058609	response	0	2		73.0	2.5	/experiments/knapen_aot/videos/R_S_yt-9pYW_TqVpU4_43.mp4	0.0	302.4678611755371	
75	210.95687818527222	movie	1		301.0	73.0	2.5	/experiments/knapen_aot/videos/R_S_yt-9pYW_TqVpU4_43.mp4	0.0	302.4759953022003	2.50846791267395
75	213.46534609794617	fix_post	2		12.0	73.0	2.5	/experiments/knapen_aot/videos/R_S_yt-9pYW_TqVpU4_43.mp4	0.0	304.98446321487427	0.0998380184173584
76	213.56518411636353	fix_pre	0		21.0	74.0	2.5	/experiments/knapen_aot/videos/S_production_ID_4540332.mp4	0.0	305.0843012332916	0.17508602142333984
76	213.73203301429749	response	0	2		74.0	2.5	/experiments/knapen_aot/videos/S_production_ID_4540332.mp4	0.0	305.2511501312256	
76	213.74027013778687	movie	1		169.0	74.0	2.5	/experiments/knapen_aot/videos/S_production_ID_4540332.mp4	0.0	305.25938725471497	2.5083529949188232
76	216.2486231327057	fix_post	2		12.0	74.0	2.5	/experiments/knapen_aot/videos/S_production_ID_4540332.mp4	0.0	307.7677402496338	0.10002899169921875
77	216.3486521244049	fix_pre	0		35.0	75.0	2.5	blank	1.0	307.867769241333	0.29163694381713867
77	216.63206911087036	response	0	2		75.0	2.5	blank	1.0	308.15118622779846	
77	216.64028906822205	movie	1		301.0	75.0	2.5	blank	1.0	308.15940618515015	2.508254051208496
77	219.14854311943054	fix_post	2		12.0	75.0	2.5	blank	1.0	310.66766023635864	0.10002589225769043
78	219.24856901168823	fix_pre	0		145.0	76.0	2.5	/experiments/knapen_aot/videos/S_CR_A009_C007_SDR_20191113_SDR_2K_AVC.mp4	0.0	310.76768612861633	1.2083470821380615
78	220.44874811172485	response	0	2		76.0	2.5	/experiments/knapen_aot/videos/S_CR_A009_C007_SDR_20191113_SDR_2K_AVC.mp4	0.0	311.96786522865295	
78	220.4569160938263	movie	1		163.0	76.0	2.5	/experiments/knapen_aot/videos/S_CR_A009_C007_SDR_20191113_SDR_2K_AVC.mp4	0.0	311.9760332107544	2.5084099769592285
78	222.96532607078552	fix_post	2		12.0	76.0	2.5	/experiments/knapen_aot/videos/S_CR_A009_C007_SDR_20191113_SDR_2K_AVC.mp4	0.0	314.4844431877136	0.09996795654296875
79	223.0652940273285	fix_pre	0		18.0	77.0	2.5	/experiments/knapen_aot/videos/R_S_wc-Mf8SQpviaD6D_17.mp4	0.0	314.5844111442566	0.14995598793029785
79	223.20701122283936	response	0	2		77.0	2.5	/experiments/knapen_aot/videos/R_S_wc-Mf8SQpviaD6D_17.mp4	0.0	314.72612833976746	
79	223.2152500152588	movie	1		171.0	77.0	2.5	/experiments/knapen_aot/videos/R_S_wc-Mf8SQpviaD6D_17.mp4	0.0	314.7343671321869	2.508263111114502
79	225.7235131263733	fix_post	2		12.0	77.0	2.5	/experiments/knapen_aot/videos/R_S_wc-Mf8SQpviaD6D_17.mp4	0.0	317.2426302433014	0.10003209114074707
80	225.82354521751404	fix_pre	0		15.0	78.0	2.5	/experiments/knapen_aot/videos/S_yt-xKteiAi5h7Q_36.mp4	0.0	317.34266233444214	0.12497687339782715
80	225.94033002853394	response	0	2		78.0	2.5	/experiments/knapen_aot/videos/S_yt-xKteiAi5h7Q_36.mp4	0.0	317.45944714546204	
80	225.94852209091187	movie	1		301.0	78.0	2.5	/experiments/knapen_aot/videos/S_yt-xKteiAi5h7Q_36.mp4	0.0	317.46763920783997	2.508362054824829
80	228.4568841457367	fix_post	2		12.0	78.0	2.5	/experiments/knapen_aot/videos/S_yt-xKteiAi5h7Q_36.mp4	0.0	319.9760012626648	0.09999990463256836
81	228.55688405036926	fix_pre	0		56.0	79.0	2.5	/experiments/knapen_aot/videos/S_yt-hvuC_2YXsTQ_159.mp4	0.0	320.07600116729736	0.46659207344055176
81	229.01525902748108	response	0	2		79.0	2.5	/experiments/knapen_aot/videos/S_yt-hvuC_2YXsTQ_159.mp4	0.0	320.5343761444092	
81	229.02347612380981	movie	1		301.0	79.0	2.5	/experiments/knapen_aot/videos/S_yt-hvuC_2YXsTQ_159.mp4	0.0	320.5425932407379	2.5084030628204346
81	231.53187918663025	fix_post	2		12.0	79.0	2.5	/experiments/knapen_aot/videos/S_yt-hvuC_2YXsTQ_159.mp4	0.0	323.05099630355835	0.09998488426208496
82	231.63186407089233	fix_pre	0		44.0	80.0	2.5	/experiments/knapen_aot/videos/S_yt-mdLT282PVbE_6.mp4	0.0	323.15098118782043	0.3666219711303711
82	231.9903461933136	response	0	2		80.0	2.5	/experiments/knapen_aot/videos/S_yt-mdLT282PVbE_6.mp4	0.0	323.5094633102417	
82	231.9984860420227	movie	1		301.0	80.0	2.5	/experiments/knapen_aot/videos/S_yt-mdLT282PVbE_6.mp4	0.0	323.5176031589508	2.508380174636841
82	234.50686621665955	fix_post	2		12.0	80.0	2.5	/experiments/knapen_aot/videos/S_yt-mdLT282PVbE_6.mp4	0.0	326.02598333358765	0.0999908447265625
83	234.6068570613861	fix_pre	0		42.0	81.0	2.5	/experiments/knapen_aot/videos/S_yt-bZfmqTZ-d2k_112.mp4	0.0	326.1259741783142	0.34996795654296875
83	234.9485650062561	response	0	2		81.0	2.5	/experiments/knapen_aot/videos/S_yt-bZfmqTZ-d2k_112.mp4	0.0	326.4676821231842	
83	234.95682501792908	movie	1		301.0	81.0	2.5	/experiments/knapen_aot/videos/S_yt-bZfmqTZ-d2k_112.mp4	0.0	326.4759421348572	2.5082881450653076
83	237.46511316299438	fix_post	2		12.0	81.0	2.5	/experiments/knapen_aot/videos/S_yt-bZfmqTZ-d2k_112.mp4	0.0	328.9842302799225	0.10005903244018555
84	237.56517219543457	fix_pre	0		16.0	82.0	2.5	blank	1.0	329.08428931236267	0.13337087631225586
84	237.6902940273285	response	0	2		82.0	2.5	blank	1.0	329.2094111442566	
84	237.69854307174683	movie	1		301.0	82.0	2.5	blank	1.0	329.2176601886749	2.5082480907440186
84	240.20679116249084	fix_post	2		12.0	82.0	2.5	blank	1.0	331.72590827941895	0.10001397132873535
85	240.30680513381958	fix_pre	0		29.0	83.0	2.5	/experiments/knapen_aot/videos/R_S_g201_AK_A003_C014_SDR_20191113_SDR_2K_AVC.mp4	0.0	331.8259222507477	0.24164390563964844
85	240.5401840209961	response	0	2		83.0	2.5	/experiments/knapen_aot/videos/R_S_g201_AK_A003_C014_SDR_20191113_SDR_2K_AVC.mp4	0.0	332.0593011379242	
85	240.54844903945923	movie	1		167.0	83.0	2.5	/experiments/knapen_aot/videos/R_S_g201_AK_A003_C014_SDR_20191113_SDR_2K_AVC.mp4	0.0	332.06756615638733	2.5083279609680176
85	243.05677700042725	fix_post	2		12.0	83.0	2.5	/experiments/knapen_aot/videos/R_S_g201_AK_A003_C014_SDR_20191113_SDR_2K_AVC.mp4	0.0	334.57589411735535	0.10004901885986328
87	243.1568260192871	stim	0		374.0					334.6759431362152	3.1165831089019775
87	243.290354013443	response	0	2						334.8094711303711	
87	246.26849007606506	response	0	space						337.78760719299316	
