trial_nr	onset	event_type	phase	response	nr_frames	movie_index	movie_duration	movie_file	blank	onset_abs	duration
0	0.13485312461853027	stim	0		69.0					61.216880321502686	0.5756080150604248
0	0.7001810073852539	response	0	space						61.78220820426941	
1	0.7104611396789551	stim	0		121.0					61.79248833656311	1.0059168338775635
1	1.4664900302886963	response	0	space						62.54851722717285	
1	1.7163779735565186	stim	1		120.0					62.798405170440674	0.9999551773071289
1	1.841460943222046	response	1	space						62.9234881401062	
1	2.116413116455078	response	1	space						63.19844031333923	
2	2.7163331508636475	fix_pre	0		10.0	0.0	2.5	/experiments/knapen_aot/videos/S_yt-hyZEDFkh49w_196.mp4	0.0	63.7983603477478	0.08435678482055664
2	2.783971071243286	response	0	space		0.0	2.5	/experiments/knapen_aot/videos/S_yt-hyZEDFkh49w_196.mp4	0.0	63.86599826812744	
2	2.800689935684204	movie	1		301.0	0.0	2.5	/experiments/knapen_aot/videos/S_yt-hyZEDFkh49w_196.mp4	0.0	63.88271713256836	2.507301092147827
2	5.307991027832031	fix_post	2		12.0	0.0	2.5	/experiments/knapen_aot/videos/S_yt-hyZEDFkh49w_196.mp4	0.0	66.39001822471619	0.09992098808288574
3	5.407912015914917	fix_pre	0		76.0	1.0	2.5	/experiments/knapen_aot/videos/S_yt-xrPrnzvWUkY_7.mp4	0.0	66.48993921279907	0.6357569694519043
3	6.036656141281128	response	0	2		1.0	2.5	/experiments/knapen_aot/videos/S_yt-xrPrnzvWUkY_7.mp4	0.0	67.11868333816528	
3	6.043668985366821	movie	1		297.0	1.0	2.5	/experiments/knapen_aot/videos/S_yt-xrPrnzvWUkY_7.mp4	0.0	67.12569618225098	2.5060479640960693
3	8.54971694946289	fix_post	2		12.0	1.0	2.5	/experiments/knapen_aot/videos/S_yt-xrPrnzvWUkY_7.mp4	0.0	69.63174414634705	0.09988903999328613
4	8.649605989456177	fix_pre	0		40.0	2.0	2.5	/experiments/knapen_aot/videos/R_S_pexels-rodnae-productions-7467585.mp4	0.0	69.73163318634033	0.3332860469818115
4	8.974792003631592	response	0	2		2.0	2.5	/experiments/knapen_aot/videos/R_S_pexels-rodnae-productions-7467585.mp4	0.0	70.05681920051575	
4	8.982892036437988	movie	1		163.0	2.0	2.5	/experiments/knapen_aot/videos/R_S_pexels-rodnae-productions-7467585.mp4	0.0	70.06491923332214	2.508409023284912
4	11.4913010597229	fix_post	2		12.0	2.0	2.5	/experiments/knapen_aot/videos/R_S_pexels-rodnae-productions-7467585.mp4	0.0	72.57332825660706	0.10010290145874023
5	11.59140396118164	fix_pre	0		15.0	3.0	2.5	/experiments/knapen_aot/videos/R_S_yt-CNq5mTA8oXY_176.mp4	0.0	72.6734311580658	0.12578701972961426
5	11.708039045333862	response	0	2		3.0	2.5	/experiments/knapen_aot/videos/R_S_yt-CNq5mTA8oXY_176.mp4	0.0	72.79006624221802	
5	11.717190980911255	movie	1		301.0	3.0	2.5	/experiments/knapen_aot/videos/R_S_yt-CNq5mTA8oXY_176.mp4	0.0	72.79921817779541	2.507354974746704
5	14.224545955657959	fix_post	2		12.0	3.0	2.5	/experiments/knapen_aot/videos/R_S_yt-CNq5mTA8oXY_176.mp4	0.0	75.30657315254211	0.1001591682434082
6	14.324705123901367	fix_pre	0		12.0	4.0	2.5	/experiments/knapen_aot/videos/R_S_video-4.mp4	0.0	75.40673232078552	0.10079288482666016
6	14.416443109512329	response	0	2		4.0	2.5	/experiments/knapen_aot/videos/R_S_video-4.mp4	0.0	75.49847030639648	
6	14.425498008728027	movie	1		162.0	4.0	2.5	/experiments/knapen_aot/videos/R_S_video-4.mp4	0.0	75.50752520561218	2.5075459480285645
6	16.933043956756592	fix_post	2		12.0	4.0	2.5	/experiments/knapen_aot/videos/R_S_video-4.mp4	0.0	78.01507115364075	0.09987998008728027
7	17.032923936843872	fix_pre	0		10.0	5.0	2.5	/experiments/knapen_aot/videos/R_S_yt-oPq1uvbw-lQ_62.mp4	0.0	78.11495113372803	0.08331608772277832
7	17.10806107521057	response	0	4		5.0	2.5	/experiments/knapen_aot/videos/R_S_yt-oPq1uvbw-lQ_62.mp4	0.0	78.19008827209473	
7	17.11624002456665	movie	1		301.0	5.0	2.5	/experiments/knapen_aot/videos/R_S_yt-oPq1uvbw-lQ_62.mp4	0.0	78.1982672214508	2.508342981338501
7	19.62458300590515	fix_post	2		12.0	5.0	2.5	/experiments/knapen_aot/videos/R_S_yt-oPq1uvbw-lQ_62.mp4	0.0	80.7066102027893	0.09996700286865234
8	19.724550008773804	fix_pre	0		9.0	6.0	2.5	blank	1.0	80.80657720565796	0.07501602172851562
8	19.791326999664307	response	0	2		6.0	2.5	blank	1.0	80.87335419654846	
8	19.79956603050232	movie	1		301.0	6.0	2.5	blank	1.0	80.88159322738647	2.508286952972412
8	22.30785298347473	fix_post	2		12.0	6.0	2.5	blank	1.0	83.38988018035889	0.10002708435058594
9	22.407880067825317	fix_pre	0		18.0	7.0	2.5	/experiments/knapen_aot/videos/R_S_BO_A014_C008_SDR_20190719_SDR_2K_AVC.mp4	0.0	83.48990726470947	0.14997196197509766
9	22.549641132354736	response	0	2		7.0	2.5	/experiments/knapen_aot/videos/R_S_BO_A014_C008_SDR_20190719_SDR_2K_AVC.mp4	0.0	83.63166832923889	
9	22.557852029800415	movie	1		165.0	7.0	2.5	/experiments/knapen_aot/videos/R_S_BO_A014_C008_SDR_20190719_SDR_2K_AVC.mp4	0.0	83.63987922668457	2.5085110664367676
9	25.066363096237183	fix_post	2		12.0	7.0	2.5	/experiments/knapen_aot/videos/R_S_BO_A014_C008_SDR_20190719_SDR_2K_AVC.mp4	0.0	86.14839029312134	0.09995388984680176
10	25.166316986083984	fix_pre	0		5.0	8.0	2.5	/experiments/knapen_aot/videos/R_S_yt-szXWk_X_67Q_10.mp4	0.0	86.24834418296814	0.041528940200805664
10	25.19984793663025	response	0	2		8.0	2.5	/experiments/knapen_aot/videos/R_S_yt-szXWk_X_67Q_10.mp4	0.0	86.2818751335144	
10	25.20784592628479	movie	1		301.0	8.0	2.5	/experiments/knapen_aot/videos/R_S_yt-szXWk_X_67Q_10.mp4	0.0	86.28987312316895	2.508301019668579
10	27.71614694595337	fix_post	2		12.0	8.0	2.5	/experiments/knapen_aot/videos/R_S_yt-szXWk_X_67Q_10.mp4	0.0	88.79817414283752	0.10006213188171387
11	27.816209077835083	fix_pre	0		5.0	9.0	2.5	/experiments/knapen_aot/videos/S_production_ID_4360158.mp4	0.0	88.89823627471924	0.0416569709777832
11	27.849637031555176	response	0	2		9.0	2.5	/experiments/knapen_aot/videos/S_production_ID_4360158.mp4	0.0	88.93166422843933	
11	27.857866048812866	movie	1		164.0	9.0	2.5	/experiments/knapen_aot/videos/S_production_ID_4360158.mp4	0.0	88.93989324569702	2.5084409713745117
11	30.366307020187378	fix_post	2		12.0	9.0	2.5	/experiments/knapen_aot/videos/S_production_ID_4360158.mp4	0.0	91.44833421707153	0.0998830795288086
12	30.466190099716187	fix_pre	0		1.0	10.0	2.5	/experiments/knapen_aot/videos/S_b6-4.mp4	0.0	91.54821729660034	0.008337020874023438
12	30.467967987060547	response	0	2		10.0	2.5	/experiments/knapen_aot/videos/S_b6-4.mp4	0.0	91.5499951839447	
12	30.47452712059021	movie	1		165.0	10.0	2.5	/experiments/knapen_aot/videos/S_b6-4.mp4	0.0	91.55655431747437	2.5083730220794678
12	32.98290014266968	fix_post	2		12.0	10.0	2.5	/experiments/knapen_aot/videos/S_b6-4.mp4	0.0	94.06492733955383	0.09998583793640137
13	33.08288598060608	fix_pre	0		6.0	11.0	2.5	/experiments/knapen_aot/videos/S_ILSVRC2015_train_00599000.mp4	0.0	94.16491317749023	0.05080914497375488
13	33.12463092803955	response	0	2		11.0	2.5	/experiments/knapen_aot/videos/S_ILSVRC2015_train_00599000.mp4	0.0	94.2066581249237	
13	33.133695125579834	movie	1		301.0	11.0	2.5	/experiments/knapen_aot/videos/S_ILSVRC2015_train_00599000.mp4	0.0	94.21572232246399	2.507460832595825
13	35.64115595817566	fix_post	2		12.0	11.0	2.5	/experiments/knapen_aot/videos/S_ILSVRC2015_train_00599000.mp4	0.0	96.72318315505981	0.10004305839538574
14	35.741199016571045	fix_pre	0		7.0	12.0	2.5	/experiments/knapen_aot/videos/R_S_yt-0n0uppNuUus_15.mp4	0.0	96.8232262134552	0.05947995185852051
14	35.79153394699097	response	0	2		12.0	2.5	/experiments/knapen_aot/videos/R_S_yt-0n0uppNuUus_15.mp4	0.0	96.87356114387512	
14	35.800678968429565	movie	1		301.0	12.0	2.5	/experiments/knapen_aot/videos/R_S_yt-0n0uppNuUus_15.mp4	0.0	96.88270616531372	2.507235050201416
14	38.30791401863098	fix_post	2		12.0	12.0	2.5	/experiments/knapen_aot/videos/R_S_yt-0n0uppNuUus_15.mp4	0.0	99.38994121551514	0.0999000072479248
15	38.407814025878906	fix_pre	0		3.0	13.0	2.5	blank	1.0	99.48984122276306	0.025044918060302734
15	38.41720795631409	response	0	2		13.0	2.5	blank	1.0	99.49923515319824	
15	38.43285894393921	movie	1		301.0	13.0	2.5	blank	1.0	99.51488614082336	2.5083839893341064
15	40.941242933273315	fix_post	2		12.0	13.0	2.5	blank	1.0	102.02327013015747	0.0999140739440918
16	41.04115700721741	fix_pre	0		23.0	14.0	2.5	/experiments/knapen_aot/videos/R_S_yt-LQrnLKP5tiQ_48.mp4	0.0	102.12318420410156	0.19164204597473145
16	41.22454595565796	response	0	2		14.0	2.5	/experiments/knapen_aot/videos/R_S_yt-LQrnLKP5tiQ_48.mp4	0.0	102.30657315254211	
16	41.23279905319214	movie	1		301.0	14.0	2.5	/experiments/knapen_aot/videos/R_S_yt-LQrnLKP5tiQ_48.mp4	0.0	102.3148262500763	2.508312940597534
16	43.4828679561615	response	1	2		14.0	2.5	/experiments/knapen_aot/videos/R_S_yt-LQrnLKP5tiQ_48.mp4	0.0	104.56489515304565	
16	43.74111199378967	fix_post	2		12.0	14.0	2.5	/experiments/knapen_aot/videos/R_S_yt-LQrnLKP5tiQ_48.mp4	0.0	104.82313919067383	0.10001516342163086
17	43.841127157211304	fix_pre	0		14.0	15.0	2.5	/experiments/knapen_aot/videos/R_S_yt-ZTAaH5XbtfE_3.mp4	0.0	104.92315435409546	0.1165928840637207
17	43.949491024017334	response	0	2		15.0	2.5	/experiments/knapen_aot/videos/R_S_yt-ZTAaH5XbtfE_3.mp4	0.0	105.03151822090149	
17	43.957720041275024	movie	1		301.0	15.0	2.5	/experiments/knapen_aot/videos/R_S_yt-ZTAaH5XbtfE_3.mp4	0.0	105.03974723815918	2.5085039138793945
17	46.46622395515442	fix_post	2		12.0	15.0	2.5	/experiments/knapen_aot/videos/R_S_yt-ZTAaH5XbtfE_3.mp4	0.0	107.54825115203857	0.10004520416259766
18	46.56626915931702	fix_pre	0		16.0	16.0	2.5	/experiments/knapen_aot/videos/S_yt-l6WPyKg_3is_154.mp4	0.0	107.64829635620117	0.13309383392333984
18	46.691246032714844	response	0	2		16.0	2.5	/experiments/knapen_aot/videos/S_yt-l6WPyKg_3is_154.mp4	0.0	107.773273229599	
18	46.699362993240356	movie	1		301.0	16.0	2.5	/experiments/knapen_aot/videos/S_yt-l6WPyKg_3is_154.mp4	0.0	107.78139019012451	2.5083351135253906
18	49.20769810676575	fix_post	2		12.0	16.0	2.5	/experiments/knapen_aot/videos/S_yt-l6WPyKg_3is_154.mp4	0.0	110.2897253036499	0.10015487670898438
19	49.30785298347473	fix_pre	0		20.0	17.0	2.5	/experiments/knapen_aot/videos/R_S_b6-4.mp4	0.0	110.38988018035889	0.16652798652648926
19	49.4661910533905	response	0	2		17.0	2.5	/experiments/knapen_aot/videos/R_S_b6-4.mp4	0.0	110.54821825027466	
19	49.47438097000122	movie	1		166.0	17.0	2.5	/experiments/knapen_aot/videos/R_S_b6-4.mp4	0.0	110.55640816688538	2.5083751678466797
19	51.9827561378479	fix_post	2		12.0	17.0	2.5	/experiments/knapen_aot/videos/R_S_b6-4.mp4	0.0	113.06478333473206	0.10010886192321777
19	52.041155099868774	response	2	2		17.0	2.5	/experiments/knapen_aot/videos/R_S_b6-4.mp4	0.0	113.12318229675293	
20	52.08286499977112	fix_pre	0		75.0	18.0	2.5	/experiments/knapen_aot/videos/R_S_yt-BrepyEWKrPQ_20.mp4	0.0	113.16489219665527	0.6248559951782227
20	52.699475049972534	response	0	2		18.0	2.5	/experiments/knapen_aot/videos/R_S_yt-BrepyEWKrPQ_20.mp4	0.0	113.78150224685669	
20	52.70772099494934	movie	1		301.0	18.0	2.5	/experiments/knapen_aot/videos/R_S_yt-BrepyEWKrPQ_20.mp4	0.0	113.7897481918335	2.5084240436553955
20	55.216145038604736	fix_post	2		12.0	18.0	2.5	/experiments/knapen_aot/videos/R_S_yt-BrepyEWKrPQ_20.mp4	0.0	116.29817223548889	0.09992504119873047
21	55.31607007980347	fix_pre	0		1.0	19.0	2.5	blank	1.0	116.39809727668762	0.008323907852172852
21	55.31773805618286	response	0	2		19.0	2.5	blank	1.0	116.39976525306702	
21	55.32439398765564	movie	1		301.0	19.0	2.5	blank	1.0	116.4064211845398	2.508345127105713
21	57.83273911476135	fix_post	2		12.0	19.0	2.5	blank	1.0	118.91476631164551	0.10003185272216797
22	57.93277096748352	fix_pre	0		16.0	20.0	2.5	/experiments/knapen_aot/videos/S_yt-4Qz0m5IYh10_167.mp4	0.0	119.01479816436768	0.1332709789276123
22	58.05784511566162	response	0	2		20.0	2.5	/experiments/knapen_aot/videos/S_yt-4Qz0m5IYh10_167.mp4	0.0	119.13987231254578	
22	58.06604194641113	movie	1		301.0	20.0	2.5	/experiments/knapen_aot/videos/S_yt-4Qz0m5IYh10_167.mp4	0.0	119.14806914329529	2.508336067199707
22	60.57437801361084	fix_post	2		12.0	20.0	2.5	/experiments/knapen_aot/videos/S_yt-4Qz0m5IYh10_167.mp4	0.0	121.656405210495	0.10073494911193848
23	60.67511296272278	fix_pre	0		7.0	21.0	2.5	/experiments/knapen_aot/videos/R_S_yt--Ou506YF3mY_106.mp4	0.0	121.75714015960693	0.05754804611206055
23	60.724467039108276	response	0	4		21.0	2.5	/experiments/knapen_aot/videos/R_S_yt--Ou506YF3mY_106.mp4	0.0	121.80649423599243	
23	60.73266100883484	movie	1		301.0	21.0	2.5	/experiments/knapen_aot/videos/R_S_yt--Ou506YF3mY_106.mp4	0.0	121.814688205719	2.508363962173462
23	63.2410249710083	fix_post	2		12.0	21.0	2.5	/experiments/knapen_aot/videos/R_S_yt--Ou506YF3mY_106.mp4	0.0	124.32305216789246	0.0999910831451416
24	63.34101605415344	fix_pre	0		14.0	22.0	2.5	/experiments/knapen_aot/videos/R_S_ILSVRC2015_train_00601000.mp4	0.0	124.4230432510376	0.11665201187133789
24	63.44943594932556	response	0	4		22.0	2.5	/experiments/knapen_aot/videos/R_S_ILSVRC2015_train_00601000.mp4	0.0	124.53146314620972	
24	63.45766806602478	movie	1		301.0	22.0	2.5	/experiments/knapen_aot/videos/R_S_ILSVRC2015_train_00601000.mp4	0.0	124.53969526290894	2.5083539485931396
24	65.96602201461792	fix_post	2		12.0	22.0	2.5	/experiments/knapen_aot/videos/R_S_ILSVRC2015_train_00601000.mp4	0.0	127.04804921150208	0.1000361442565918
25	66.06605815887451	fix_pre	0		10.0	23.0	2.5	/experiments/knapen_aot/videos/S_yt-8fQ9LaF8U10_382.mp4	0.0	127.14808535575867	0.08333778381347656
25	66.14107513427734	response	0	4		23.0	2.5	/experiments/knapen_aot/videos/S_yt-8fQ9LaF8U10_382.mp4	0.0	127.2231023311615	
25	66.14939594268799	movie	1		301.0	23.0	2.5	/experiments/knapen_aot/videos/S_yt-8fQ9LaF8U10_382.mp4	0.0	127.23142313957214	2.508263111114502
25	68.65765905380249	fix_post	2		12.0	23.0	2.5	/experiments/knapen_aot/videos/S_yt-8fQ9LaF8U10_382.mp4	0.0	129.73968625068665	0.1000070571899414
26	68.75766611099243	fix_pre	0		10.0	24.0	2.5	/experiments/knapen_aot/videos/R_S_yt-CNq5mTA8oXY_176.mp4	0.0	129.8396933078766	0.08400487899780273
26	68.83279013633728	response	0	4		24.0	2.5	/experiments/knapen_aot/videos/R_S_yt-CNq5mTA8oXY_176.mp4	0.0	129.91481733322144	
26	68.84167098999023	movie	1		300.0	24.0	2.5	/experiments/knapen_aot/videos/R_S_yt-CNq5mTA8oXY_176.mp4	0.0	129.9236981868744	2.5076839923858643
26	71.3493549823761	fix_post	2		12.0	24.0	2.5	/experiments/knapen_aot/videos/R_S_yt-CNq5mTA8oXY_176.mp4	0.0	132.43138217926025	0.10009908676147461
27	71.44945406913757	fix_pre	0		12.0	25.0	2.5	/experiments/knapen_aot/videos/S_fHdEaNT0gA0_35.mp4	0.0	132.53148126602173	0.1004800796508789
27	71.54109406471252	response	0	4		25.0	2.5	/experiments/knapen_aot/videos/S_fHdEaNT0gA0_35.mp4	0.0	132.62312126159668	
27	71.54993414878845	movie	1		301.0	25.0	2.5	/experiments/knapen_aot/videos/S_fHdEaNT0gA0_35.mp4	0.0	132.6319613456726	2.5077037811279297
27	74.05763792991638	fix_post	2		12.0	25.0	2.5	/experiments/knapen_aot/videos/S_fHdEaNT0gA0_35.mp4	0.0	135.13966512680054	0.10017204284667969
28	74.15780997276306	fix_pre	0		25.0	26.0	2.5	/experiments/knapen_aot/videos/R_S_yt-FsylDeYfcxU_24.mp4	0.0	135.23983716964722	0.20806217193603516
28	74.35777115821838	response	0	4		26.0	2.5	/experiments/knapen_aot/videos/R_S_yt-FsylDeYfcxU_24.mp4	0.0	135.43979835510254	
28	74.3658721446991	movie	1		301.0	26.0	2.5	/experiments/knapen_aot/videos/R_S_yt-FsylDeYfcxU_24.mp4	0.0	135.44789934158325	2.5084547996520996
28	76.8743269443512	fix_post	2		12.0	26.0	2.5	/experiments/knapen_aot/videos/R_S_yt-FsylDeYfcxU_24.mp4	0.0	137.95635414123535	0.09996700286865234
29	76.97429394721985	fix_pre	0		10.0	27.0	2.5	/experiments/knapen_aot/videos/S_yt-CXn1PGH67_s_20.mp4	0.0	138.056321144104	0.0832211971282959
29	77.04944896697998	response	0	4		27.0	2.5	/experiments/knapen_aot/videos/S_yt-CXn1PGH67_s_20.mp4	0.0	138.13147616386414	
29	77.05751514434814	movie	1		301.0	27.0	2.5	/experiments/knapen_aot/videos/S_yt-CXn1PGH67_s_20.mp4	0.0	138.1395423412323	2.508430004119873
29	79.56594514846802	fix_post	2		12.0	27.0	2.5	/experiments/knapen_aot/videos/S_yt-CXn1PGH67_s_20.mp4	0.0	140.64797234535217	0.09999680519104004
30	79.66594195365906	fix_pre	0		14.0	28.0	2.5	blank	1.0	140.7479691505432	0.11664104461669922
30	79.77437496185303	response	0	4		28.0	2.5	blank	1.0	140.85640215873718	
30	79.78258299827576	movie	1		301.0	28.0	2.5	blank	1.0	140.8646101951599	2.5083401203155518
30	82.29092311859131	fix_post	2		12.0	28.0	2.5	blank	1.0	143.37295031547546	0.10004186630249023
31	82.3909649848938	fix_pre	0		14.0	29.0	2.5	/experiments/knapen_aot/videos/S_yt-eLQydFSMGCU_75.mp4	0.0	143.47299218177795	0.11732101440429688
31	82.49928998947144	response	0	4		29.0	2.5	/experiments/knapen_aot/videos/S_yt-eLQydFSMGCU_75.mp4	0.0	143.5813171863556	
31	82.5082859992981	movie	1		301.0	29.0	2.5	/experiments/knapen_aot/videos/S_yt-eLQydFSMGCU_75.mp4	0.0	143.59031319618225	2.507719039916992
31	85.01600503921509	fix_post	2		12.0	29.0	2.5	/experiments/knapen_aot/videos/S_yt-eLQydFSMGCU_75.mp4	0.0	146.09803223609924	0.09985804557800293
32	85.11586308479309	fix_pre	0		8.0	30.0	2.5	/experiments/knapen_aot/videos/S_yt-VfASxEzDrvc_145.mp4	0.0	146.19789028167725	0.06673693656921387
32	85.17435312271118	response	0	4		30.0	2.5	/experiments/knapen_aot/videos/S_yt-VfASxEzDrvc_145.mp4	0.0	146.25638031959534	
32	85.1826000213623	movie	1		301.0	30.0	2.5	/experiments/knapen_aot/videos/S_yt-VfASxEzDrvc_145.mp4	0.0	146.26462721824646	2.5083091259002686
32	87.69090914726257	fix_post	2		12.0	30.0	2.5	/experiments/knapen_aot/videos/S_yt-VfASxEzDrvc_145.mp4	0.0	148.77293634414673	0.1000978946685791
33	87.79100704193115	fix_pre	0		9.0	31.0	2.5	/experiments/knapen_aot/videos/R_S_yt-CJeyOFsd3lg_80.mp4	0.0	148.8730342388153	0.07483696937561035
33	87.85763216018677	response	0	4		31.0	2.5	/experiments/knapen_aot/videos/R_S_yt-CJeyOFsd3lg_80.mp4	0.0	148.93965935707092	
33	87.86584401130676	movie	1		301.0	31.0	2.5	/experiments/knapen_aot/videos/R_S_yt-CJeyOFsd3lg_80.mp4	0.0	148.94787120819092	2.5084121227264404
33	90.3742561340332	fix_post	2		12.0	31.0	2.5	/experiments/knapen_aot/videos/R_S_yt-CJeyOFsd3lg_80.mp4	0.0	151.45628333091736	0.09998488426208496
34	90.47424101829529	fix_pre	0		4.0	32.0	2.5	/experiments/knapen_aot/videos/S_yt-eLQydFSMGCU_75.mp4	0.0	151.55626821517944	0.03396010398864746
34	90.49174809455872	response	0	4		32.0	2.5	/experiments/knapen_aot/videos/S_yt-eLQydFSMGCU_75.mp4	0.0	151.57377529144287	
34	90.50820112228394	movie	1		301.0	32.0	2.5	/experiments/knapen_aot/videos/S_yt-eLQydFSMGCU_75.mp4	0.0	151.5902283191681	2.507624864578247
34	93.01582598686218	fix_post	2		12.0	32.0	2.5	/experiments/knapen_aot/videos/S_yt-eLQydFSMGCU_75.mp4	0.0	154.09785318374634	0.1000821590423584
35	93.11590814590454	fix_pre	0		22.0	33.0	2.5	/experiments/knapen_aot/videos/R_S_ILSVRC2015_train_00396000.mp4	0.0	154.1979353427887	0.1838839054107666
35	93.29093503952026	response	0	4		33.0	2.5	/experiments/knapen_aot/videos/R_S_ILSVRC2015_train_00396000.mp4	0.0	154.37296223640442	
35	93.29979205131531	movie	1		301.0	33.0	2.5	/experiments/knapen_aot/videos/R_S_ILSVRC2015_train_00396000.mp4	0.0	154.38181924819946	2.507791042327881
35	95.80758309364319	fix_post	2		12.0	33.0	2.5	/experiments/knapen_aot/videos/R_S_ILSVRC2015_train_00396000.mp4	0.0	156.88961029052734	0.09996700286865234
36	95.90755009651184	fix_pre	0		6.0	34.0	2.5	/experiments/knapen_aot/videos/S_pexels-roman-odintsov-8233166.mp4	0.0	156.989577293396	0.04996085166931152
36	95.94930696487427	response	0	4		34.0	2.5	/experiments/knapen_aot/videos/S_pexels-roman-odintsov-8233166.mp4	0.0	157.03133416175842	
36	95.95751094818115	movie	1		198.0	34.0	2.5	/experiments/knapen_aot/videos/S_pexels-roman-odintsov-8233166.mp4	0.0	157.0395381450653	2.508369207382202
36	98.46588015556335	fix_post	2		12.0	34.0	2.5	/experiments/knapen_aot/videos/S_pexels-roman-odintsov-8233166.mp4	0.0	159.5479073524475	0.09999489784240723
36	98.49104499816895	response	2	4		34.0	2.5	/experiments/knapen_aot/videos/S_pexels-roman-odintsov-8233166.mp4	0.0	159.5730721950531	
37	98.56587505340576	fix_pre	0		36.0	35.0	2.5	blank	1.0	159.64790225028992	0.29991602897644043
37	98.85757398605347	response	0	4		35.0	2.5	blank	1.0	159.93960118293762	
37	98.8657910823822	movie	1		301.0	35.0	2.5	blank	1.0	159.94781827926636	2.5084848403930664
37	101.37427592277527	fix_post	2		12.0	35.0	2.5	blank	1.0	162.45630311965942	0.09991121292114258
38	101.47418713569641	fix_pre	0		19.0	36.0	2.5	/experiments/knapen_aot/videos/R_S_yt-CXn1PGH67_s_20.mp4	0.0	162.55621433258057	0.1587839126586914
38	101.62428593635559	response	0	4		36.0	2.5	/experiments/knapen_aot/videos/R_S_yt-CXn1PGH67_s_20.mp4	0.0	162.70631313323975	
38	101.6329710483551	movie	1		301.0	36.0	2.5	/experiments/knapen_aot/videos/R_S_yt-CXn1PGH67_s_20.mp4	0.0	162.71499824523926	2.507812976837158
38	104.14078402519226	fix_post	2		12.0	36.0	2.5	/experiments/knapen_aot/videos/R_S_yt-CXn1PGH67_s_20.mp4	0.0	165.22281122207642	0.1000969409942627
39	104.24088096618652	fix_pre	0		22.0	37.0	2.5	/experiments/knapen_aot/videos/S_yt-GytLOB9Qjro_76.mp4	0.0	165.32290816307068	0.18370914459228516
39	104.41596412658691	response	0	4		37.0	2.5	/experiments/knapen_aot/videos/S_yt-GytLOB9Qjro_76.mp4	0.0	165.49799132347107	
39	104.42459011077881	movie	1		301.0	37.0	2.5	/experiments/knapen_aot/videos/S_yt-GytLOB9Qjro_76.mp4	0.0	165.50661730766296	2.5078859329223633
39	106.93247604370117	fix_post	2		12.0	37.0	2.5	/experiments/knapen_aot/videos/S_yt-GytLOB9Qjro_76.mp4	0.0	168.01450324058533	0.10002589225769043
40	107.03250193595886	fix_pre	0		6.0	38.0	2.5	/experiments/knapen_aot/videos/R_S_yt-xrPrnzvWUkY_7.mp4	0.0	168.11452913284302	0.04996514320373535
40	107.07424807548523	response	0	4		38.0	2.5	/experiments/knapen_aot/videos/R_S_yt-xrPrnzvWUkY_7.mp4	0.0	168.15627527236938	
40	107.0824670791626	movie	1		301.0	38.0	2.5	/experiments/knapen_aot/videos/R_S_yt-xrPrnzvWUkY_7.mp4	0.0	168.16449427604675	2.5083658695220947
40	109.59083294868469	fix_post	2		12.0	38.0	2.5	/experiments/knapen_aot/videos/R_S_yt-xrPrnzvWUkY_7.mp4	0.0	170.67286014556885	0.09996700286865234
41	109.69079995155334	fix_pre	0		15.0	39.0	2.5	/experiments/knapen_aot/videos/R_S_yt-RVoC19C420Y_27.mp4	0.0	170.7728271484375	0.12497997283935547
41	109.8075749874115	response	0	4		39.0	2.5	/experiments/knapen_aot/videos/R_S_yt-RVoC19C420Y_27.mp4	0.0	170.88960218429565	
41	109.8157799243927	movie	1		301.0	39.0	2.5	/experiments/knapen_aot/videos/R_S_yt-RVoC19C420Y_27.mp4	0.0	170.89780712127686	2.508481025695801
41	112.3242609500885	fix_post	2		12.0	39.0	2.5	/experiments/knapen_aot/videos/R_S_yt-RVoC19C420Y_27.mp4	0.0	173.40628814697266	0.09984803199768066
42	112.42410898208618	fix_pre	0		2.0	40.0	2.5	/experiments/knapen_aot/videos/S_ILSVRC2015_train_00545000.mp4	0.0	173.50613617897034	0.0166471004486084
42	112.43261003494263	response	0	4		40.0	2.5	/experiments/knapen_aot/videos/S_ILSVRC2015_train_00545000.mp4	0.0	173.51463723182678	
42	112.44075608253479	movie	1		301.0	40.0	2.5	/experiments/knapen_aot/videos/S_ILSVRC2015_train_00545000.mp4	0.0	173.52278327941895	2.508363962173462
42	114.94912004470825	fix_post	2		12.0	40.0	2.5	/experiments/knapen_aot/videos/S_ILSVRC2015_train_00545000.mp4	0.0	176.0311472415924	0.10001993179321289
43	115.04913997650146	fix_pre	0		5.0	41.0	2.5	blank	1.0	176.13116717338562	0.042083024978637695
43	115.08255314826965	response	0	4		41.0	2.5	blank	1.0	176.1645803451538	
43	115.0912230014801	movie	1		301.0	41.0	2.5	blank	1.0	176.17325019836426	2.5079050064086914
43	117.5991280078888	fix_post	2		12.0	41.0	2.5	blank	1.0	178.68115520477295	0.09999203681945801
44	117.69912004470825	fix_pre	0		15.0	42.0	2.5	/experiments/knapen_aot/videos/R_S_dwi2oPzQ1Wo_48.mp4	0.0	178.7811472415924	0.12495899200439453
44	117.8159110546112	response	0	4		42.0	2.5	/experiments/knapen_aot/videos/R_S_dwi2oPzQ1Wo_48.mp4	0.0	178.89793825149536	
44	117.82407903671265	movie	1		301.0	42.0	2.5	/experiments/knapen_aot/videos/R_S_dwi2oPzQ1Wo_48.mp4	0.0	178.9061062335968	2.5083789825439453
44	120.33245801925659	fix_post	2		12.0	42.0	2.5	/experiments/knapen_aot/videos/R_S_dwi2oPzQ1Wo_48.mp4	0.0	181.41448521614075	0.09998512268066406
45	120.43244314193726	fix_pre	0		10.0	43.0	2.5	/experiments/knapen_aot/videos/S_Pexels_Videos_2795171.mp4	0.0	181.5144703388214	0.08336591720581055
45	120.50751495361328	response	0	4		43.0	2.5	/experiments/knapen_aot/videos/S_Pexels_Videos_2795171.mp4	0.0	181.58954215049744	
45	120.51580905914307	movie	1		164.0	43.0	2.5	/experiments/knapen_aot/videos/S_Pexels_Videos_2795171.mp4	0.0	181.59783625602722	2.508272886276245
45	123.02408194541931	fix_post	2		12.0	43.0	2.5	/experiments/knapen_aot/videos/S_Pexels_Videos_2795171.mp4	0.0	184.10610914230347	0.09997916221618652
46	123.1240611076355	fix_pre	0		6.0	44.0	2.5	/experiments/knapen_aot/videos/R_S_yt-Rqwi-Fk9IJQ_114.mp4	0.0	184.20608830451965	0.050425052642822266
46	123.16587114334106	response	0	4		44.0	2.5	/experiments/knapen_aot/videos/R_S_yt-Rqwi-Fk9IJQ_114.mp4	0.0	184.24789834022522	
46	123.17448616027832	movie	1		301.0	44.0	2.5	/experiments/knapen_aot/videos/R_S_yt-Rqwi-Fk9IJQ_114.mp4	0.0	184.25651335716248	2.5079288482666016
46	125.68241500854492	fix_post	2		12.0	44.0	2.5	/experiments/knapen_aot/videos/R_S_yt-Rqwi-Fk9IJQ_114.mp4	0.0	186.76444220542908	0.0999751091003418
47	125.78239011764526	fix_pre	0		11.0	45.0	2.5	/experiments/knapen_aot/videos/S_yt-GI8BEHw2Lq8_3.mp4	0.0	186.86441731452942	0.09163594245910645
47	125.86576795578003	response	0	4		45.0	2.5	/experiments/knapen_aot/videos/S_yt-GI8BEHw2Lq8_3.mp4	0.0	186.94779515266418	
47	125.87402606010437	movie	1		301.0	45.0	2.5	/experiments/knapen_aot/videos/S_yt-GI8BEHw2Lq8_3.mp4	0.0	186.95605325698853	2.508413076400757
47	128.38243913650513	fix_post	2		12.0	45.0	2.5	/experiments/knapen_aot/videos/S_yt-GI8BEHw2Lq8_3.mp4	0.0	189.46446633338928	0.10014081001281738
48	128.48257994651794	fix_pre	0		8.0	46.0	2.5	/experiments/knapen_aot/videos/S_ILSVRC2015_train_00451000.mp4	0.0	189.5646071434021	0.06681299209594727
48	128.5332169532776	response	0	4		46.0	2.5	/experiments/knapen_aot/videos/S_ILSVRC2015_train_00451000.mp4	0.0	189.61524415016174	
48	128.5493929386139	movie	1		301.0	46.0	2.5	/experiments/knapen_aot/videos/S_ILSVRC2015_train_00451000.mp4	0.0	189.63142013549805	2.5079832077026367
48	131.05737614631653	fix_post	2		12.0	46.0	2.5	/experiments/knapen_aot/videos/S_ILSVRC2015_train_00451000.mp4	0.0	192.13940334320068	0.09996700286865234
49	131.15734314918518	fix_pre	0		1.0	47.0	2.5	/experiments/knapen_aot/videos/S_yt-EAMpitsjbbA_153.mp4	0.0	192.23937034606934	0.010110855102539062
49	131.1502969264984	response	0	4		47.0	2.5	/experiments/knapen_aot/videos/S_yt-EAMpitsjbbA_153.mp4	0.0	192.23232412338257	
49	131.16745400428772	movie	1		301.0	47.0	2.5	/experiments/knapen_aot/videos/S_yt-EAMpitsjbbA_153.mp4	0.0	192.24948120117188	2.5065741539001465
49	133.67402815818787	fix_post	2		12.0	47.0	2.5	/experiments/knapen_aot/videos/S_yt-EAMpitsjbbA_153.mp4	0.0	194.75605535507202	0.09994792938232422
50	133.7739760875702	fix_pre	0		12.0	48.0	2.5	blank	1.0	194.85600328445435	0.10010290145874023
50	133.86578106880188	response	0	4		48.0	2.5	blank	1.0	194.94780826568604	
50	133.87407898902893	movie	1		301.0	48.0	2.5	blank	1.0	194.9561061859131	2.508289098739624
50	136.38236808776855	fix_post	2		12.0	48.0	2.5	blank	1.0	197.4643952846527	0.09994196891784668
51	136.4823100566864	fix_pre	0		9.0	49.0	2.5	/experiments/knapen_aot/videos/R_S_ILSVRC2015_train_00599000.mp4	0.0	197.56433725357056	0.07502102851867676
51	136.54910397529602	response	0	4		49.0	2.5	/experiments/knapen_aot/videos/R_S_ILSVRC2015_train_00599000.mp4	0.0	197.63113117218018	
51	136.55733108520508	movie	1		301.0	49.0	2.5	/experiments/knapen_aot/videos/R_S_ILSVRC2015_train_00599000.mp4	0.0	197.63935828208923	2.5082690715789795
51	139.06560015678406	fix_post	2		11.0	49.0	2.5	/experiments/knapen_aot/videos/R_S_ILSVRC2015_train_00599000.mp4	0.0	200.1476273536682	0.09162092208862305
51	139.14908814430237	response	2	4		49.0	2.5	/experiments/knapen_aot/videos/R_S_ILSVRC2015_train_00599000.mp4	0.0	200.23111534118652	
52	139.15722107887268	fix_pre	0		47.0	50.0	2.5	/experiments/knapen_aot/videos/S_yt-Rybd-sKJFz0_78.mp4	0.0	200.23924827575684	0.39201807975769043
52	139.54074215888977	response	0	4		50.0	2.5	/experiments/knapen_aot/videos/S_yt-Rybd-sKJFz0_78.mp4	0.0	200.62276935577393	
52	139.54923915863037	movie	1		301.0	50.0	2.5	/experiments/knapen_aot/videos/S_yt-Rybd-sKJFz0_78.mp4	0.0	200.63126635551453	2.5080699920654297
52	142.0573091506958	fix_post	2		12.0	50.0	2.5	/experiments/knapen_aot/videos/S_yt-Rybd-sKJFz0_78.mp4	0.0	203.13933634757996	0.10007596015930176
53	142.1573851108551	fix_pre	0		9.0	51.0	2.5	/experiments/knapen_aot/videos/R_S_yt-H45g6700wbc_159.mp4	0.0	203.23941230773926	0.0748908519744873
53	142.22408509254456	response	0	4		51.0	2.5	/experiments/knapen_aot/videos/R_S_yt-H45g6700wbc_159.mp4	0.0	203.3061122894287	
53	142.2322759628296	movie	1		301.0	51.0	2.5	/experiments/knapen_aot/videos/R_S_yt-H45g6700wbc_159.mp4	0.0	203.31430315971375	2.508380174636841
53	144.74065613746643	fix_post	2		12.0	51.0	2.5	/experiments/knapen_aot/videos/R_S_yt-H45g6700wbc_159.mp4	0.0	205.8226833343506	0.0999898910522461
54	144.84064602851868	fix_pre	0		24.0	52.0	2.5	/experiments/knapen_aot/videos/R_S_yt-2kPrGwVmRfE_169.mp4	0.0	205.92267322540283	0.19996094703674316
54	145.03243899345398	response	0	4		52.0	2.5	/experiments/knapen_aot/videos/R_S_yt-2kPrGwVmRfE_169.mp4	0.0	206.11446619033813	
54	145.04060697555542	movie	1		301.0	52.0	2.5	/experiments/knapen_aot/videos/R_S_yt-2kPrGwVmRfE_169.mp4	0.0	206.12263417243958	2.5085740089416504
54	147.54918098449707	fix_post	2		12.0	52.0	2.5	/experiments/knapen_aot/videos/R_S_yt-2kPrGwVmRfE_169.mp4	0.0	208.63120818138123	0.09978604316711426
55	147.64896702766418	fix_pre	0		16.0	53.0	2.5	/experiments/knapen_aot/videos/R_S_video_inspire_texas_austin_oct2019_evening_00085.1080-h264.mp4	0.0	208.73099422454834	0.13329792022705078
55	147.774080991745	response	0	4		53.0	2.5	/experiments/knapen_aot/videos/R_S_video_inspire_texas_austin_oct2019_evening_00085.1080-h264.mp4	0.0	208.85610818862915	
55	147.78226494789124	movie	1		170.0	53.0	2.5	/experiments/knapen_aot/videos/R_S_video_inspire_texas_austin_oct2019_evening_00085.1080-h264.mp4	0.0	208.8642921447754	2.508692979812622
55	150.29095792770386	fix_post	2		12.0	53.0	2.5	/experiments/knapen_aot/videos/R_S_video_inspire_texas_austin_oct2019_evening_00085.1080-h264.mp4	0.0	211.372985124588	0.09975910186767578
55	150.32399106025696	response	2	4		53.0	2.5	/experiments/knapen_aot/videos/R_S_video_inspire_texas_austin_oct2019_evening_00085.1080-h264.mp4	0.0	211.4060182571411	
56	150.39071702957153	fix_pre	0		32.0	54.0	2.5	/experiments/knapen_aot/videos/S_yt-w_e3sxIzepA_115.mp4	0.0	211.4727442264557	0.266542911529541
56	150.64896893501282	response	0	4		54.0	2.5	/experiments/knapen_aot/videos/S_yt-w_e3sxIzepA_115.mp4	0.0	211.73099613189697	
56	150.65725994110107	movie	1		301.0	54.0	2.5	/experiments/knapen_aot/videos/S_yt-w_e3sxIzepA_115.mp4	0.0	211.73928713798523	2.5083601474761963
56	153.16562008857727	fix_post	2		12.0	54.0	2.5	/experiments/knapen_aot/videos/S_yt-w_e3sxIzepA_115.mp4	0.0	214.24764728546143	0.09998393058776855
56	153.16734409332275	response	2	2		54.0	2.5	/experiments/knapen_aot/videos/S_yt-w_e3sxIzepA_115.mp4	0.0	214.2493712902069	
57	153.26560401916504	fix_pre	0		16.0	55.0	2.5	blank	1.0	214.3476312160492	0.13324213027954102
57	153.390615940094	response	0	2		55.0	2.5	blank	1.0	214.47264313697815	
57	153.39884614944458	movie	1		301.0	55.0	2.5	blank	1.0	214.48087334632874	2.508439779281616
57	155.9072859287262	fix_post	2		12.0	55.0	2.5	blank	1.0	216.98931312561035	0.10023808479309082
58	156.0075240135193	fix_pre	0		8.0	56.0	2.5	/experiments/knapen_aot/videos/S_yt-w_e3sxIzepA_115.mp4	0.0	217.08955121040344	0.06642794609069824
58	156.06567311286926	response	0	2		56.0	2.5	/experiments/knapen_aot/videos/S_yt-w_e3sxIzepA_115.mp4	0.0	217.14770030975342	
58	156.07395195960999	movie	1		301.0	56.0	2.5	/experiments/knapen_aot/videos/S_yt-w_e3sxIzepA_115.mp4	0.0	217.15597915649414	2.508385181427002
58	158.582337141037	fix_post	2		11.0	56.0	2.5	/experiments/knapen_aot/videos/S_yt-w_e3sxIzepA_115.mp4	0.0	219.66436433792114	0.09179496765136719
58	158.66568207740784	response	2	4		56.0	2.5	/experiments/knapen_aot/videos/S_yt-w_e3sxIzepA_115.mp4	0.0	219.747709274292	
59	158.67413210868835	fix_pre	0		31.0	57.0	2.5	/experiments/knapen_aot/videos/S_video-2.mp4	0.0	219.7561593055725	0.2581348419189453
59	158.9239490032196	response	0	4		57.0	2.5	/experiments/knapen_aot/videos/S_video-2.mp4	0.0	220.00597620010376	
59	158.9322669506073	movie	1		164.0	57.0	2.5	/experiments/knapen_aot/videos/S_video-2.mp4	0.0	220.01429414749146	2.5082921981811523
59	161.44055914878845	fix_post	2		12.0	57.0	2.5	/experiments/knapen_aot/videos/S_video-2.mp4	0.0	222.5225863456726	0.10001277923583984
60	161.5405719280243	fix_pre	0		1.0	58.0	2.5	/experiments/knapen_aot/videos/S_ILSVRC2015_train_00599000.mp4	0.0	222.62259912490845	0.008951187133789062
60	161.54239511489868	response	0	4		58.0	2.5	/experiments/knapen_aot/videos/S_ILSVRC2015_train_00599000.mp4	0.0	222.62442231178284	
60	161.54952311515808	movie	1		301.0	58.0	2.5	/experiments/knapen_aot/videos/S_ILSVRC2015_train_00599000.mp4	0.0	222.63155031204224	2.5077199935913086
60	164.0572431087494	fix_post	2		12.0	58.0	2.5	/experiments/knapen_aot/videos/S_ILSVRC2015_train_00599000.mp4	0.0	225.13927030563354	0.09997200965881348
61	164.1572151184082	fix_pre	0		2.0	59.0	2.5	/experiments/knapen_aot/videos/R_S_yt-7W50lcw5FCo_37.mp4	0.0	225.23924231529236	0.017383813858032227
61	164.1656939983368	response	0	4		59.0	2.5	/experiments/knapen_aot/videos/R_S_yt-7W50lcw5FCo_37.mp4	0.0	225.24772119522095	
61	164.17459893226624	movie	1		301.0	59.0	2.5	/experiments/knapen_aot/videos/R_S_yt-7W50lcw5FCo_37.mp4	0.0	225.2566261291504	2.507611036300659
61	166.6822099685669	fix_post	2		12.0	59.0	2.5	/experiments/knapen_aot/videos/R_S_yt-7W50lcw5FCo_37.mp4	0.0	227.76423716545105	0.10023903846740723
62	166.7824490070343	fix_pre	0		11.0	60.0	2.5	/experiments/knapen_aot/videos/R_S_ILSVRC2015_train_00079001.mp4	0.0	227.86447620391846	0.0913550853729248
62	166.8656759262085	response	0	4		60.0	2.5	/experiments/knapen_aot/videos/R_S_ILSVRC2015_train_00079001.mp4	0.0	227.94770312309265	
62	166.87380409240723	movie	1		301.0	60.0	2.5	/experiments/knapen_aot/videos/R_S_ILSVRC2015_train_00079001.mp4	0.0	227.95583128929138	2.5085580348968506
62	169.38236212730408	fix_post	2		12.0	60.0	2.5	/experiments/knapen_aot/videos/R_S_ILSVRC2015_train_00079001.mp4	0.0	230.46438932418823	0.09983587265014648
63	169.48219799995422	fix_pre	0		1.0	61.0	2.5	/experiments/knapen_aot/videos/R_S_yt-JH6qCYAnX-I_70.mp4	0.0	230.56422519683838	0.008347034454345703
63	169.47505903244019	response	0	4		61.0	2.5	/experiments/knapen_aot/videos/R_S_yt-JH6qCYAnX-I_70.mp4	0.0	230.55708622932434	
63	169.49054503440857	movie	1		301.0	61.0	2.5	/experiments/knapen_aot/videos/R_S_yt-JH6qCYAnX-I_70.mp4	0.0	230.57257223129272	2.508301019668579
63	171.99884605407715	fix_post	2		12.0	61.0	2.5	/experiments/knapen_aot/videos/R_S_yt-JH6qCYAnX-I_70.mp4	0.0	233.0808732509613	0.10001301765441895
64	172.09885907173157	fix_pre	0		8.0	62.0	2.5	/experiments/knapen_aot/videos/S_BO_A014_C008_SDR_20190719_SDR_2K_AVC.mp4	0.0	233.18088626861572	0.06661605834960938
64	172.15729212760925	response	0	4		62.0	2.5	/experiments/knapen_aot/videos/S_BO_A014_C008_SDR_20190719_SDR_2K_AVC.mp4	0.0	233.2393193244934	
64	172.16547513008118	movie	1		165.0	62.0	2.5	/experiments/knapen_aot/videos/S_BO_A014_C008_SDR_20190719_SDR_2K_AVC.mp4	0.0	233.24750232696533	2.5083730220794678
64	174.67384815216064	fix_post	2		12.0	62.0	2.5	/experiments/knapen_aot/videos/S_BO_A014_C008_SDR_20190719_SDR_2K_AVC.mp4	0.0	235.7558753490448	0.09993791580200195
65	174.77378606796265	fix_pre	0		1.0	63.0	2.5	blank	1.0	235.8558132648468	0.011288881301879883
65	174.76675009727478	response	0	4		63.0	2.5	blank	1.0	235.84877729415894	
65	174.78507494926453	movie	1		301.0	63.0	2.5	blank	1.0	235.86710214614868	2.505463123321533
65	177.29053807258606	fix_post	2		12.0	63.0	2.5	blank	1.0	238.37256526947021	0.10018491744995117
66	177.390722990036	fix_pre	0		18.0	64.0	2.5	/experiments/knapen_aot/videos/R_S_bing-www_nbcnews_com_storyline_isis-terror_fall-isis-stronghold-raqqa-will-change-war-extremists-not-end-n808621_86.mp4	0.0	238.47275018692017	0.14966702461242676
66	177.53224802017212	response	0	4		64.0	2.5	/experiments/knapen_aot/videos/R_S_bing-www_nbcnews_com_storyline_isis-terror_fall-isis-stronghold-raqqa-will-change-war-extremists-not-end-n808621_86.mp4	0.0	238.61427521705627	
66	177.54039001464844	movie	1		163.0	64.0	2.5	/experiments/knapen_aot/videos/R_S_bing-www_nbcnews_com_storyline_isis-terror_fall-isis-stronghold-raqqa-will-change-war-extremists-not-end-n808621_86.mp4	0.0	238.6224172115326	2.508575916290283
66	180.04896593093872	fix_post	2		11.0	64.0	2.5	/experiments/knapen_aot/videos/R_S_bing-www_nbcnews_com_storyline_isis-terror_fall-isis-stronghold-raqqa-will-change-war-extremists-not-end-n808621_86.mp4	0.0	241.13099312782288	0.09142518043518066
66	180.13238215446472	response	2	4		64.0	2.5	/experiments/knapen_aot/videos/R_S_bing-www_nbcnews_com_storyline_isis-terror_fall-isis-stronghold-raqqa-will-change-war-extremists-not-end-n808621_86.mp4	0.0	241.21440935134888	
67	180.1403911113739	fix_pre	0		35.0	65.0	2.5	/experiments/knapen_aot/videos/R_S_ILSVRC2015_train_00469000.mp4	0.0	241.22241830825806	0.29171085357666016
67	180.4239239692688	response	0	4		65.0	2.5	/experiments/knapen_aot/videos/R_S_ILSVRC2015_train_00469000.mp4	0.0	241.50595116615295	
67	180.43210196495056	movie	1		301.0	65.0	2.5	/experiments/knapen_aot/videos/R_S_ILSVRC2015_train_00469000.mp4	0.0	241.51412916183472	2.508315086364746
67	182.9404170513153	fix_post	2		12.0	65.0	2.5	/experiments/knapen_aot/videos/R_S_ILSVRC2015_train_00469000.mp4	0.0	244.02244424819946	0.10011005401611328
67	183.02394199371338	response	2	4		65.0	2.5	/experiments/knapen_aot/videos/R_S_ILSVRC2015_train_00469000.mp4	0.0	244.10596919059753	
68	183.04052710533142	fix_pre	0		34.0	66.0	2.5	/experiments/knapen_aot/videos/R_S_yt-RNPFV7lgAvE_362.mp4	0.0	244.12255430221558	0.28325605392456055
68	183.31554794311523	response	0	4		66.0	2.5	/experiments/knapen_aot/videos/R_S_yt-RNPFV7lgAvE_362.mp4	0.0	244.3975751399994	
68	183.32378315925598	movie	1		301.0	66.0	2.5	/experiments/knapen_aot/videos/R_S_yt-RNPFV7lgAvE_362.mp4	0.0	244.40581035614014	2.5083439350128174
68	185.8321270942688	fix_post	2		12.0	66.0	2.5	/experiments/knapen_aot/videos/R_S_yt-RNPFV7lgAvE_362.mp4	0.0	246.91415429115295	0.10002493858337402
69	185.93215203285217	fix_pre	0		14.0	67.0	2.5	/experiments/knapen_aot/videos/R_S_comp_GMT329_113NC_396B_1105_CHINA_v04_SDR_FINAL_20180706_F900F2700_SDR_2K_AVC.mp4	0.0	247.01417922973633	0.11664295196533203
69	186.04052805900574	response	0	4		67.0	2.5	/experiments/knapen_aot/videos/R_S_comp_GMT329_113NC_396B_1105_CHINA_v04_SDR_FINAL_20180706_F900F2700_SDR_2K_AVC.mp4	0.0	247.1225552558899	
69	186.0487949848175	movie	1		168.0	67.0	2.5	/experiments/knapen_aot/videos/R_S_comp_GMT329_113NC_396B_1105_CHINA_v04_SDR_FINAL_20180706_F900F2700_SDR_2K_AVC.mp4	0.0	247.13082218170166	2.5083560943603516
69	188.55715107917786	fix_post	2		12.0	67.0	2.5	/experiments/knapen_aot/videos/R_S_comp_GMT329_113NC_396B_1105_CHINA_v04_SDR_FINAL_20180706_F900F2700_SDR_2K_AVC.mp4	0.0	249.639178276062	0.09993505477905273
70	188.6570861339569	fix_pre	0		19.0	68.0	2.5	/experiments/knapen_aot/videos/R_S_yt-mL3MuCfKtdY_79.mp4	0.0	249.73911333084106	0.1583108901977539
70	188.80718207359314	response	0	4		68.0	2.5	/experiments/knapen_aot/videos/R_S_yt-mL3MuCfKtdY_79.mp4	0.0	249.8892092704773	
70	188.81539702415466	movie	1		301.0	68.0	2.5	/experiments/knapen_aot/videos/R_S_yt-mL3MuCfKtdY_79.mp4	0.0	249.89742422103882	2.5084049701690674
70	191.32380199432373	fix_post	2		12.0	68.0	2.5	/experiments/knapen_aot/videos/R_S_yt-mL3MuCfKtdY_79.mp4	0.0	252.40582919120789	0.10011506080627441
71	191.42391705513	fix_pre	0		5.0	69.0	2.5	blank	1.0	252.50594425201416	0.04157400131225586
71	191.45730113983154	response	0	4		69.0	2.5	blank	1.0	252.5393283367157	
71	191.46549105644226	movie	1		301.0	69.0	2.5	blank	1.0	252.54751825332642	2.508272886276245
71	193.9737639427185	fix_post	2		12.0	69.0	2.5	blank	1.0	255.05579113960266	0.09997105598449707
72	194.073734998703	fix_pre	0		18.0	70.0	2.5	/experiments/knapen_aot/videos/R_S_yt-VQtbKGzI9SE_431.mp4	0.0	255.15576219558716	0.14998912811279297
72	194.21548199653625	response	0	2		70.0	2.5	/experiments/knapen_aot/videos/R_S_yt-VQtbKGzI9SE_431.mp4	0.0	255.2975091934204	
72	194.2237241268158	movie	1		301.0	70.0	2.5	/experiments/knapen_aot/videos/R_S_yt-VQtbKGzI9SE_431.mp4	0.0	255.30575132369995	2.5083258152008057
72	196.7320499420166	fix_post	2		12.0	70.0	2.5	/experiments/knapen_aot/videos/R_S_yt-VQtbKGzI9SE_431.mp4	0.0	257.81407713890076	0.1000661849975586
73	196.83211612701416	fix_pre	0		2.0	71.0	2.5	/experiments/knapen_aot/videos/R_S_yt-82O1uT8dmv8_12.mp4	0.0	257.9141433238983	0.016676902770996094
73	196.8405361175537	response	0	2		71.0	2.5	/experiments/knapen_aot/videos/R_S_yt-82O1uT8dmv8_12.mp4	0.0	257.92256331443787	
73	196.84879302978516	movie	1		301.0	71.0	2.5	/experiments/knapen_aot/videos/R_S_yt-82O1uT8dmv8_12.mp4	0.0	257.9308202266693	2.508371114730835
73	199.357164144516	fix_post	2		12.0	71.0	2.5	/experiments/knapen_aot/videos/R_S_yt-82O1uT8dmv8_12.mp4	0.0	260.43919134140015	0.09986996650695801
74	199.45703411102295	fix_pre	0		4.0	72.0	2.5	/experiments/knapen_aot/videos/R_S_Y004_C015_SDR_2K_AVC.mp4	0.0	260.5390613079071	0.0333709716796875
74	199.48229503631592	response	0	4		72.0	2.5	/experiments/knapen_aot/videos/R_S_Y004_C015_SDR_2K_AVC.mp4	0.0	260.5643222332001	
74	199.49040508270264	movie	1		174.0	72.0	2.5	/experiments/knapen_aot/videos/R_S_Y004_C015_SDR_2K_AVC.mp4	0.0	260.5724322795868	2.5083279609680176
74	201.94881415367126	response	1	4		72.0	2.5	/experiments/knapen_aot/videos/R_S_Y004_C015_SDR_2K_AVC.mp4	0.0	263.0308413505554	
74	201.99873304367065	fix_post	2		12.0	72.0	2.5	/experiments/knapen_aot/videos/R_S_Y004_C015_SDR_2K_AVC.mp4	0.0	263.0807602405548	0.09994196891784668
75	202.0986750125885	fix_pre	0		20.0	73.0	2.5	/experiments/knapen_aot/videos/R_S_ILSVRC2015_train_00697001.mp4	0.0	263.18070220947266	0.1667630672454834
75	202.25714015960693	response	0	4		73.0	2.5	/experiments/knapen_aot/videos/R_S_ILSVRC2015_train_00697001.mp4	0.0	263.3391673564911	
75	202.26543807983398	movie	1		301.0	73.0	2.5	/experiments/knapen_aot/videos/R_S_ILSVRC2015_train_00697001.mp4	0.0	263.34746527671814	2.5083720684051514
75	204.7654571533203	response	1	4		73.0	2.5	/experiments/knapen_aot/videos/R_S_ILSVRC2015_train_00697001.mp4	0.0	265.84748435020447	
75	204.77381014823914	fix_post	2		12.0	73.0	2.5	/experiments/knapen_aot/videos/R_S_ILSVRC2015_train_00697001.mp4	0.0	265.8558373451233	0.10005879402160645
76	204.87386894226074	fix_pre	0		31.0	74.0	2.5	/experiments/knapen_aot/videos/R_S_yt-9CUR6mjzaiY_85.mp4	0.0	265.9558961391449	0.25812816619873047
76	205.12378001213074	response	0	4		74.0	2.5	/experiments/knapen_aot/videos/R_S_yt-9CUR6mjzaiY_85.mp4	0.0	266.2058072090149	
76	205.13199710845947	movie	1		301.0	74.0	2.5	/experiments/knapen_aot/videos/R_S_yt-9CUR6mjzaiY_85.mp4	0.0	266.2140243053436	2.5083420276641846
76	207.43549394607544	response	1	4		74.0	2.5	/experiments/knapen_aot/videos/R_S_yt-9CUR6mjzaiY_85.mp4	0.0	268.5175211429596	
76	207.64033913612366	fix_post	2		12.0	74.0	2.5	/experiments/knapen_aot/videos/R_S_yt-9CUR6mjzaiY_85.mp4	0.0	268.7223663330078	0.09995388984680176
76	207.7237229347229	response	2	4		74.0	2.5	/experiments/knapen_aot/videos/R_S_yt-9CUR6mjzaiY_85.mp4	0.0	268.80575013160706	
77	207.74029302597046	fix_pre	0		22.0	75.0	2.5	/experiments/knapen_aot/videos/S_yt-0n0uppNuUus_15.mp4	0.0	268.8223202228546	0.18348312377929688
77	207.91538310050964	response	0	4		75.0	2.5	/experiments/knapen_aot/videos/S_yt-0n0uppNuUus_15.mp4	0.0	268.9974102973938	
77	207.92377614974976	movie	1		301.0	75.0	2.5	/experiments/knapen_aot/videos/S_yt-0n0uppNuUus_15.mp4	0.0	269.0058033466339	2.5082788467407227
77	210.43205499649048	fix_post	2		12.0	75.0	2.5	/experiments/knapen_aot/videos/S_yt-0n0uppNuUus_15.mp4	0.0	271.51408219337463	0.10019993782043457
78	210.5322549343109	fix_pre	0		20.0	76.0	2.5	/experiments/knapen_aot/videos/R_S_yt-6B69qmkEdTI_1.mp4	0.0	271.61428213119507	0.16639399528503418
78	210.69045400619507	response	0	4		76.0	2.5	/experiments/knapen_aot/videos/R_S_yt-6B69qmkEdTI_1.mp4	0.0	271.7724812030792	
78	210.69864892959595	movie	1		301.0	76.0	2.5	/experiments/knapen_aot/videos/R_S_yt-6B69qmkEdTI_1.mp4	0.0	271.7806761264801	2.50834321975708
78	213.20699214935303	fix_post	2		12.0	76.0	2.5	/experiments/knapen_aot/videos/R_S_yt-6B69qmkEdTI_1.mp4	0.0	274.2890193462372	0.10000181198120117
78	213.29037404060364	response	2	4		76.0	2.5	/experiments/knapen_aot/videos/R_S_yt-6B69qmkEdTI_1.mp4	0.0	274.3724012374878	
79	213.30699396133423	fix_pre	0		37.0	77.0	2.5	blank	1.0	274.3890211582184	0.3083620071411133
79	213.60698294639587	response	0	4		77.0	2.5	blank	1.0	274.68901014328003	
79	213.61535596847534	movie	1		301.0	77.0	2.5	blank	1.0	274.6973831653595	2.508291006088257
79	216.1236469745636	fix_post	2		12.0	77.0	2.5	blank	1.0	277.20567417144775	0.1000361442565918
80	216.2236831188202	fix_pre	0		17.0	78.0	2.5	/experiments/knapen_aot/videos/S_comp_L012_c002_PS_v01_SDR_PS_20180925_SDR_2K_AVC.mp4	0.0	277.30571031570435	0.14164185523986816
80	216.35705709457397	response	0	4		78.0	2.5	/experiments/knapen_aot/videos/S_comp_L012_c002_PS_v01_SDR_PS_20180925_SDR_2K_AVC.mp4	0.0	277.43908429145813	
80	216.36532497406006	movie	1		169.0	78.0	2.5	/experiments/knapen_aot/videos/S_comp_L012_c002_PS_v01_SDR_PS_20180925_SDR_2K_AVC.mp4	0.0	277.4473521709442	2.508315086364746
80	218.8736400604248	fix_post	2		12.0	78.0	2.5	/experiments/knapen_aot/videos/S_comp_L012_c002_PS_v01_SDR_PS_20180925_SDR_2K_AVC.mp4	0.0	279.95566725730896	0.1000208854675293
81	218.97366094589233	fix_pre	0		25.0	79.0	2.5	/experiments/knapen_aot/videos/R_S_yt-8fQ9LaF8U10_382.mp4	0.0	280.0556881427765	0.20823311805725098
81	219.17375993728638	response	0	4		79.0	2.5	/experiments/knapen_aot/videos/R_S_yt-8fQ9LaF8U10_382.mp4	0.0	280.25578713417053	
81	219.18189406394958	movie	1		301.0	79.0	2.5	/experiments/knapen_aot/videos/R_S_yt-8fQ9LaF8U10_382.mp4	0.0	280.26392126083374	2.5084118843078613
81	221.69030594825745	fix_post	2		12.0	79.0	2.5	/experiments/knapen_aot/videos/R_S_yt-8fQ9LaF8U10_382.mp4	0.0	282.7723331451416	0.09997320175170898
82	221.79027915000916	fix_pre	0		6.0	80.0	2.5	/experiments/knapen_aot/videos/S_flickr-reginahart-31964450591_23.mp4	0.0	282.8723063468933	0.049971818923950195
82	221.832102060318	response	0	4		80.0	2.5	/experiments/knapen_aot/videos/S_flickr-reginahart-31964450591_23.mp4	0.0	282.91412925720215	
82	221.8402509689331	movie	1		167.0	80.0	2.5	/experiments/knapen_aot/videos/S_flickr-reginahart-31964450591_23.mp4	0.0	282.92227816581726	2.5086441040039062
82	224.348895072937	fix_post	2		12.0	80.0	2.5	/experiments/knapen_aot/videos/S_flickr-reginahart-31964450591_23.mp4	0.0	285.43092226982117	0.09969902038574219
83	224.44859409332275	fix_pre	0		12.0	81.0	2.5	/experiments/knapen_aot/videos/R_S_production_ID_5020960.mp4	0.0	285.5306212902069	0.09995388984680176
83	224.54033613204956	response	0	4		81.0	2.5	/experiments/knapen_aot/videos/R_S_production_ID_5020960.mp4	0.0	285.6223633289337	
83	224.54854798316956	movie	1		209.0	81.0	2.5	/experiments/knapen_aot/videos/R_S_production_ID_5020960.mp4	0.0	285.6305751800537	2.5083601474761963
83	227.05690813064575	fix_post	2		12.0	81.0	2.5	/experiments/knapen_aot/videos/R_S_production_ID_5020960.mp4	0.0	288.1389353275299	0.10005998611450195
84	227.15696811676025	fix_pre	0		2.0	82.0	2.5	/experiments/knapen_aot/videos/R_S_wc-NVeGRb_y_y_5_36.mp4	0.0	288.2389953136444	0.016615867614746094
84	227.16665315628052	response	0	4		82.0	2.5	/experiments/knapen_aot/videos/R_S_wc-NVeGRb_y_y_5_36.mp4	0.0	288.2486803531647	
84	227.173583984375	movie	1		169.0	82.0	2.5	/experiments/knapen_aot/videos/R_S_wc-NVeGRb_y_y_5_36.mp4	0.0	288.25561118125916	2.5083580017089844
84	229.68194198608398	fix_post	2		12.0	82.0	2.5	/experiments/knapen_aot/videos/R_S_wc-NVeGRb_y_y_5_36.mp4	0.0	290.76396918296814	0.10016298294067383
85	229.78210496902466	fix_pre	0		5.0	83.0	2.5	blank	1.0	290.8641321659088	0.041494131088256836
85	229.8153431415558	response	0	4		83.0	2.5	blank	1.0	290.89737033843994	
85	229.82359910011292	movie	1		301.0	83.0	2.5	blank	1.0	290.90562629699707	2.5084409713745117
85	232.33204007148743	fix_post	2		12.0	83.0	2.5	blank	1.0	293.4140672683716	0.09997797012329102
87	232.43201804161072	stim	0		101.0					293.5140452384949	0.8455500602722168
87	232.55706310272217	response	0	4						293.6390902996063	
87	233.26886105537415	response	0	space						294.3508882522583	
