trial_nr	onset	event_type	phase	response	nr_frames	movie_index	movie_duration	movie_file	blank	onset_abs	duration
0	0.1597609519958496	stim	0		20.0					74.31881809234619	0.16362905502319336
0	0.3080599308013916	response	0	space						74.46711707115173	
1	0.32339000701904297	stim	0		121.0					74.48244714736938	1.0085349082946777
1	1.115177869796753	response	0	space						75.2742350101471	
1	1.3319249153137207	stim	1		120.0					75.49098205566406	0.9996089935302734
2	2.331533908843994	fix_pre	0		2.0	0.0	2.5	/experiments/knapen_aot/videos/R_S_yt-iKe-0YNR5Eo_164.mp4	0.0	76.49059104919434	0.016828060150146484
2	2.340183973312378	response	0	space		0.0	2.5	/experiments/knapen_aot/videos/R_S_yt-iKe-0YNR5Eo_164.mp4	0.0	76.49924111366272	
2	2.3483619689941406	movie	1		301.0	0.0	2.5	/experiments/knapen_aot/videos/R_S_yt-iKe-0YNR5Eo_164.mp4	0.0	76.50741910934448	2.508151054382324
2	4.856513023376465	fix_post	2		12.0	0.0	2.5	/experiments/knapen_aot/videos/R_S_yt-iKe-0YNR5Eo_164.mp4	0.0	79.0155701637268	0.09994292259216309
3	4.956455945968628	fix_pre	0		10.0	1.0	2.5	/experiments/knapen_aot/videos/R_S_yt-B8Sy53C6Pxw_8.mp4	0.0	79.11551308631897	0.08481001853942871
3	5.032093048095703	response	0	2		1.0	2.5	/experiments/knapen_aot/videos/R_S_yt-B8Sy53C6Pxw_8.mp4	0.0	79.19115018844604	
3	5.041265964508057	movie	1		301.0	1.0	2.5	/experiments/knapen_aot/videos/R_S_yt-B8Sy53C6Pxw_8.mp4	0.0	79.2003231048584	2.5069580078125
3	7.548223972320557	fix_post	2		12.0	1.0	2.5	/experiments/knapen_aot/videos/R_S_yt-B8Sy53C6Pxw_8.mp4	0.0	81.7072811126709	0.09994101524353027
4	7.648164987564087	fix_pre	0		7.0	2.0	2.5	/experiments/knapen_aot/videos/R_S_yt-vDjj0EWFdIU_49.mp4	0.0	81.80722212791443	0.05994009971618652
4	7.698312997817993	response	0	2		2.0	2.5	/experiments/knapen_aot/videos/R_S_yt-vDjj0EWFdIU_49.mp4	0.0	81.85737013816833	
4	7.708105087280273	movie	1		301.0	2.0	2.5	/experiments/knapen_aot/videos/R_S_yt-vDjj0EWFdIU_49.mp4	0.0	81.86716222763062	2.5067529678344727
4	10.214858055114746	fix_post	2		12.0	2.0	2.5	/experiments/knapen_aot/videos/R_S_yt-vDjj0EWFdIU_49.mp4	0.0	84.37391519546509	0.09997987747192383
5	10.31483793258667	fix_pre	0		20.0	3.0	2.5	/experiments/knapen_aot/videos/R_S_yt-HwGg4-zeWi8_364.mp4	0.0	84.47389507293701	0.1665799617767334
5	10.473330020904541	response	0	2		3.0	2.5	/experiments/knapen_aot/videos/R_S_yt-HwGg4-zeWi8_364.mp4	0.0	84.63238716125488	
5	10.481417894363403	movie	1		301.0	3.0	2.5	/experiments/knapen_aot/videos/R_S_yt-HwGg4-zeWi8_364.mp4	0.0	84.64047503471375	2.5083601474761963
5	12.9897780418396	fix_post	2		12.0	3.0	2.5	/experiments/knapen_aot/videos/R_S_yt-HwGg4-zeWi8_364.mp4	0.0	87.14883518218994	0.10008382797241211
6	13.089861869812012	fix_pre	0		18.0	4.0	2.5	/experiments/knapen_aot/videos/S_BO_A012_C031_SDR_20190726_SDR_2K_AVC.mp4	0.0	87.24891901016235	0.14989709854125977
6	13.231674909591675	response	0	2		4.0	2.5	/experiments/knapen_aot/videos/S_BO_A012_C031_SDR_20190726_SDR_2K_AVC.mp4	0.0	87.39073204994202	
6	13.239758968353271	movie	1		190.0	4.0	2.5	/experiments/knapen_aot/videos/S_BO_A012_C031_SDR_20190726_SDR_2K_AVC.mp4	0.0	87.39881610870361	2.508342981338501
6	15.748101949691772	fix_post	2		12.0	4.0	2.5	/experiments/knapen_aot/videos/S_BO_A012_C031_SDR_20190726_SDR_2K_AVC.mp4	0.0	89.90715909004211	0.09998202323913574
7	15.848083972930908	fix_pre	0		9.0	5.0	2.5	/experiments/knapen_aot/videos/S_yt-Faxdis4m3Fw_9.mp4	0.0	90.00714111328125	0.07506299018859863
7	15.915081977844238	response	0	2		5.0	2.5	/experiments/knapen_aot/videos/S_yt-Faxdis4m3Fw_9.mp4	0.0	90.07413911819458	
7	15.923146963119507	movie	1		301.0	5.0	2.5	/experiments/knapen_aot/videos/S_yt-Faxdis4m3Fw_9.mp4	0.0	90.08220410346985	2.5082929134368896
7	18.431439876556396	fix_post	2		12.0	5.0	2.5	/experiments/knapen_aot/videos/S_yt-Faxdis4m3Fw_9.mp4	0.0	92.59049701690674	0.09996509552001953
8	18.531404972076416	fix_pre	0		21.0	6.0	2.5	blank	1.0	92.69046211242676	0.1749720573425293
8	18.698243856430054	response	0	2		6.0	2.5	blank	1.0	92.8573009967804	
8	18.706377029418945	movie	1		301.0	6.0	2.5	blank	1.0	92.86543416976929	2.5083768367767334
8	21.21475386619568	fix_post	2		12.0	6.0	2.5	blank	1.0	95.37381100654602	0.10000419616699219
9	21.31475806236267	fix_pre	0		22.0	7.0	2.5	/experiments/knapen_aot/videos/R_S_yt-LsCCAQ8BRO8_7.mp4	0.0	95.47381520271301	0.18323087692260742
9	21.489861011505127	response	0	2		7.0	2.5	/experiments/knapen_aot/videos/R_S_yt-LsCCAQ8BRO8_7.mp4	0.0	95.64891815185547	
9	21.49798893928528	movie	1		298.0	7.0	2.5	/experiments/knapen_aot/videos/R_S_yt-LsCCAQ8BRO8_7.mp4	0.0	95.65704607963562	2.508404016494751
9	24.00639295578003	fix_post	2		12.0	7.0	2.5	/experiments/knapen_aot/videos/R_S_yt-LsCCAQ8BRO8_7.mp4	0.0	98.16545009613037	0.10003209114074707
10	24.106425046920776	fix_pre	0		16.0	8.0	2.5	/experiments/knapen_aot/videos/R_S_FZ0hLmjCR0s_26.mp4	0.0	98.26548218727112	0.13328194618225098
10	24.23154091835022	response	0	2		8.0	2.5	/experiments/knapen_aot/videos/R_S_FZ0hLmjCR0s_26.mp4	0.0	98.39059805870056	
10	24.239706993103027	movie	1		301.0	8.0	2.5	/experiments/knapen_aot/videos/R_S_FZ0hLmjCR0s_26.mp4	0.0	98.39876413345337	2.5083889961242676
10	26.748095989227295	fix_post	2		12.0	8.0	2.5	/experiments/knapen_aot/videos/R_S_FZ0hLmjCR0s_26.mp4	0.0	100.90715312957764	0.10001802444458008
11	26.848114013671875	fix_pre	0		15.0	9.0	2.5	/experiments/knapen_aot/videos/R_S_Y004_C015_SDR_2K_AVC.mp4	0.0	101.00717115402222	0.12491297721862793
11	26.964806079864502	response	0	2		9.0	2.5	/experiments/knapen_aot/videos/R_S_Y004_C015_SDR_2K_AVC.mp4	0.0	101.12386322021484	
11	26.973026990890503	movie	1		174.0	9.0	2.5	/experiments/knapen_aot/videos/R_S_Y004_C015_SDR_2K_AVC.mp4	0.0	101.13208413124084	2.5083720684051514
11	29.481399059295654	fix_post	2		12.0	9.0	2.5	/experiments/knapen_aot/videos/R_S_Y004_C015_SDR_2K_AVC.mp4	0.0	103.640456199646	0.09997987747192383
12	29.581378936767578	fix_pre	0		3.0	10.0	2.5	/experiments/knapen_aot/videos/R_S_yt-wrxk7fFkxHg_177.mp4	0.0	103.74043607711792	0.02509903907775879
12	29.59820008277893	response	0	2		10.0	2.5	/experiments/knapen_aot/videos/R_S_yt-wrxk7fFkxHg_177.mp4	0.0	103.75725722312927	
12	29.606477975845337	movie	1		301.0	10.0	2.5	/experiments/knapen_aot/videos/R_S_yt-wrxk7fFkxHg_177.mp4	0.0	103.76553511619568	2.5081610679626465
12	32.11463904380798	fix_post	2		12.0	10.0	2.5	/experiments/knapen_aot/videos/R_S_yt-wrxk7fFkxHg_177.mp4	0.0	106.27369618415833	0.10005402565002441
13	32.21469306945801	fix_pre	0		17.0	11.0	2.5	/experiments/knapen_aot/videos/R_S_ILSVRC2015_train_00404003.mp4	0.0	106.37375020980835	0.14162397384643555
13	32.34817385673523	response	0	2		11.0	2.5	/experiments/knapen_aot/videos/R_S_ILSVRC2015_train_00404003.mp4	0.0	106.50723099708557	
13	32.35631704330444	movie	1		301.0	11.0	2.5	/experiments/knapen_aot/videos/R_S_ILSVRC2015_train_00404003.mp4	0.0	106.51537418365479	2.508327007293701
13	34.864644050598145	fix_post	2		12.0	11.0	2.5	/experiments/knapen_aot/videos/R_S_ILSVRC2015_train_00404003.mp4	0.0	109.02370119094849	0.10007691383361816
14	34.96472096443176	fix_pre	0		6.0	12.0	2.5	/experiments/knapen_aot/videos/R_S_pexels-ekaterina-bolovtsova-7669220.mp4	0.0	109.1237781047821	0.04997611045837402
14	35.00646185874939	response	0	2		12.0	2.5	/experiments/knapen_aot/videos/R_S_pexels-ekaterina-bolovtsova-7669220.mp4	0.0	109.16551899909973	
14	35.01469707489014	movie	1		162.0	12.0	2.5	/experiments/knapen_aot/videos/R_S_pexels-ekaterina-bolovtsova-7669220.mp4	0.0	109.17375421524048	2.5083189010620117
14	37.52301597595215	fix_post	2		12.0	12.0	2.5	/experiments/knapen_aot/videos/R_S_pexels-ekaterina-bolovtsova-7669220.mp4	0.0	111.68207311630249	0.09998607635498047
15	37.62300205230713	fix_pre	0		12.0	13.0	2.5	blank	1.0	111.78205919265747	0.10000801086425781
15	37.71485996246338	response	0	2		13.0	2.5	blank	1.0	111.87391710281372	
15	37.72301006317139	movie	1		301.0	13.0	2.5	blank	1.0	111.88206720352173	2.5082619190216064
15	40.23127198219299	fix_post	2		12.0	13.0	2.5	blank	1.0	114.39032912254333	0.09998106956481934
16	40.33125305175781	fix_pre	0		17.0	14.0	2.5	/experiments/knapen_aot/videos/S_ILSVRC2015_train_00425000.mp4	0.0	114.49031019210815	0.14176201820373535
16	40.46478796005249	response	0	2		14.0	2.5	/experiments/knapen_aot/videos/S_ILSVRC2015_train_00425000.mp4	0.0	114.62384510040283	
16	40.47301506996155	movie	1		301.0	14.0	2.5	/experiments/knapen_aot/videos/S_ILSVRC2015_train_00425000.mp4	0.0	114.63207221031189	2.5084409713745117
16	42.98145604133606	fix_post	2		12.0	14.0	2.5	/experiments/knapen_aot/videos/S_ILSVRC2015_train_00425000.mp4	0.0	117.1405131816864	0.09983181953430176
17	43.08128786087036	fix_pre	0		13.0	15.0	2.5	/experiments/knapen_aot/videos/S_yt-HwZFMTZ7Xko_35.mp4	0.0	117.2403450012207	0.10826420783996582
17	43.18145203590393	response	0	2		15.0	2.5	/experiments/knapen_aot/videos/S_yt-HwZFMTZ7Xko_35.mp4	0.0	117.34050917625427	
17	43.18955206871033	movie	1		298.0	15.0	2.5	/experiments/knapen_aot/videos/S_yt-HwZFMTZ7Xko_35.mp4	0.0	117.34860920906067	2.508448839187622
17	45.69800090789795	fix_post	2		12.0	15.0	2.5	/experiments/knapen_aot/videos/S_yt-HwZFMTZ7Xko_35.mp4	0.0	119.85705804824829	0.09998607635498047
18	45.79798698425293	fix_pre	0		14.0	16.0	2.5	/experiments/knapen_aot/videos/S_yt-738MRS0yI6g_177.mp4	0.0	119.95704412460327	0.11675786972045898
18	45.906415939331055	response	0	2		16.0	2.5	/experiments/knapen_aot/videos/S_yt-738MRS0yI6g_177.mp4	0.0	120.0654730796814	
18	45.91474485397339	movie	1		301.0	16.0	2.5	/experiments/knapen_aot/videos/S_yt-738MRS0yI6g_177.mp4	0.0	120.07380199432373	2.5082101821899414
18	48.42295503616333	fix_post	2		12.0	16.0	2.5	/experiments/knapen_aot/videos/S_yt-738MRS0yI6g_177.mp4	0.0	122.58201217651367	0.10002398490905762
19	48.52297902107239	fix_pre	0		18.0	17.0	2.5	/experiments/knapen_aot/videos/R_S_pexels-anna-tarazevich-6189268.mp4	0.0	122.68203616142273	0.14992094039916992
19	48.66476488113403	response	0	2		17.0	2.5	/experiments/knapen_aot/videos/R_S_pexels-anna-tarazevich-6189268.mp4	0.0	122.82382202148438	
19	48.67289996147156	movie	1		216.0	17.0	2.5	/experiments/knapen_aot/videos/R_S_pexels-anna-tarazevich-6189268.mp4	0.0	122.8319571018219	2.508431911468506
19	51.18133187294006	fix_post	2		12.0	17.0	2.5	/experiments/knapen_aot/videos/R_S_pexels-anna-tarazevich-6189268.mp4	0.0	125.3403890132904	0.09996700286865234
20	51.281298875808716	fix_pre	0		11.0	18.0	2.5	/experiments/knapen_aot/videos/S_yt-PYHK810V_n8_1375.mp4	0.0	125.44035601615906	0.09290909767150879
20	51.36475086212158	response	0	2		18.0	2.5	/experiments/knapen_aot/videos/S_yt-PYHK810V_n8_1375.mp4	0.0	125.52380800247192	
20	51.374207973480225	movie	1		301.0	18.0	2.5	/experiments/knapen_aot/videos/S_yt-PYHK810V_n8_1375.mp4	0.0	125.53326511383057	2.506995916366577
20	53.8812038898468	fix_post	2		12.0	18.0	2.5	/experiments/knapen_aot/videos/S_yt-PYHK810V_n8_1375.mp4	0.0	128.04026103019714	0.10007715225219727
21	53.981281042099	fix_pre	0		20.0	19.0	2.5	/experiments/knapen_aot/videos/R_S_ILSVRC2015_train_00322000.mp4	0.0	128.14033818244934	0.16664791107177734
21	54.13977098464966	response	0	2		19.0	2.5	/experiments/knapen_aot/videos/R_S_ILSVRC2015_train_00322000.mp4	0.0	128.298828125	
21	54.147928953170776	movie	1		301.0	19.0	2.5	/experiments/knapen_aot/videos/R_S_ILSVRC2015_train_00322000.mp4	0.0	128.30698609352112	2.508347988128662
21	56.65627694129944	fix_post	2		12.0	19.0	2.5	/experiments/knapen_aot/videos/R_S_ILSVRC2015_train_00322000.mp4	0.0	130.81533408164978	0.09997391700744629
22	56.756250858306885	fix_pre	0		16.0	20.0	2.5	blank	1.0	130.91530799865723	0.133256196975708
22	56.88145685195923	response	0	2		20.0	2.5	blank	1.0	131.04051399230957	
22	56.88950705528259	movie	1		301.0	20.0	2.5	blank	1.0	131.04856419563293	2.50839900970459
22	59.39790606498718	fix_post	2		12.0	20.0	2.5	blank	1.0	133.55696320533752	0.09999799728393555
23	59.49790406227112	fix_pre	0		23.0	21.0	2.5	/experiments/knapen_aot/videos/R_S_ILSVRC2015_train_00251004.mp4	0.0	133.65696120262146	0.19162392616271973
23	59.68138098716736	response	0	2		21.0	2.5	/experiments/knapen_aot/videos/R_S_ILSVRC2015_train_00251004.mp4	0.0	133.8404381275177	
23	59.68952798843384	movie	1		301.0	21.0	2.5	/experiments/knapen_aot/videos/R_S_ILSVRC2015_train_00251004.mp4	0.0	133.84858512878418	2.5083799362182617
23	62.1979079246521	fix_post	2		12.0	21.0	2.5	/experiments/knapen_aot/videos/R_S_ILSVRC2015_train_00251004.mp4	0.0	136.35696506500244	0.10003805160522461
24	62.297945976257324	fix_pre	0		19.0	22.0	2.5	/experiments/knapen_aot/videos/R_S_ILSVRC2015_train_00251004.mp4	0.0	136.45700311660767	0.1594550609588623
24	62.44802808761597	response	0	2		22.0	2.5	/experiments/knapen_aot/videos/R_S_ILSVRC2015_train_00251004.mp4	0.0	136.6070852279663	
24	62.45740103721619	movie	1		300.0	22.0	2.5	/experiments/knapen_aot/videos/R_S_ILSVRC2015_train_00251004.mp4	0.0	136.61645817756653	2.507244825363159
24	64.96464586257935	fix_post	2		12.0	22.0	2.5	/experiments/knapen_aot/videos/R_S_ILSVRC2015_train_00251004.mp4	0.0	139.1237030029297	0.09989309310913086
25	65.06453895568848	fix_pre	0		15.0	23.0	2.5	/experiments/knapen_aot/videos/R_S_pexels-c-technical-6753390.mp4	0.0	139.22359609603882	0.12498092651367188
25	65.18132400512695	response	0	2		23.0	2.5	/experiments/knapen_aot/videos/R_S_pexels-c-technical-6753390.mp4	0.0	139.3403811454773	
25	65.18951988220215	movie	1		187.0	23.0	2.5	/experiments/knapen_aot/videos/R_S_pexels-c-technical-6753390.mp4	0.0	139.3485770225525	2.508423089981079
25	67.69794297218323	fix_post	2		12.0	23.0	2.5	/experiments/knapen_aot/videos/R_S_pexels-c-technical-6753390.mp4	0.0	141.85700011253357	0.09993791580200195
26	67.79788088798523	fix_pre	0		8.0	24.0	2.5	/experiments/knapen_aot/videos/S_pexels-ekaterina-bolovtsova-7669220.mp4	0.0	141.95693802833557	0.0667881965637207
26	67.84995198249817	response	0	2		24.0	2.5	/experiments/knapen_aot/videos/S_pexels-ekaterina-bolovtsova-7669220.mp4	0.0	142.0090091228485	
26	67.86466908454895	movie	1		162.0	24.0	2.5	/experiments/knapen_aot/videos/S_pexels-ekaterina-bolovtsova-7669220.mp4	0.0	142.0237262248993	2.5082809925079346
26	70.37295007705688	fix_post	2		12.0	24.0	2.5	/experiments/knapen_aot/videos/S_pexels-ekaterina-bolovtsova-7669220.mp4	0.0	144.53200721740723	0.10004782676696777
27	70.47299790382385	fix_pre	0		15.0	25.0	2.5	/experiments/knapen_aot/videos/S_pexels-vlada-karpovich-8044792.mp4	0.0	144.6320550441742	0.12488412857055664
27	70.58964800834656	response	0	2		25.0	2.5	/experiments/knapen_aot/videos/S_pexels-vlada-karpovich-8044792.mp4	0.0	144.7487051486969	
27	70.59788203239441	movie	1		162.0	25.0	2.5	/experiments/knapen_aot/videos/S_pexels-vlada-karpovich-8044792.mp4	0.0	144.75693917274475	2.5082788467407227
27	73.10616087913513	fix_post	2		12.0	25.0	2.5	/experiments/knapen_aot/videos/S_pexels-vlada-karpovich-8044792.mp4	0.0	147.26521801948547	0.10008907318115234
28	73.20624995231628	fix_pre	0		14.0	26.0	2.5	blank	1.0	147.36530709266663	0.11650800704956055
28	73.31464195251465	response	0	2		26.0	2.5	blank	1.0	147.473699092865	
28	73.32275795936584	movie	1		301.0	26.0	2.5	blank	1.0	147.4818150997162	2.5083889961242676
28	75.83114695549011	fix_post	2		12.0	26.0	2.5	blank	1.0	149.99020409584045	0.10004997253417969
29	75.93119692802429	fix_pre	0		37.0	27.0	2.5	/experiments/knapen_aot/videos/R_S_yt-VMUSo8E_Fj8_171.mp4	0.0	150.09025406837463	0.30829405784606934
29	76.23126292228699	response	0	2		27.0	2.5	/experiments/knapen_aot/videos/R_S_yt-VMUSo8E_Fj8_171.mp4	0.0	150.39032006263733	
29	76.23949098587036	movie	1		298.0	27.0	2.5	/experiments/knapen_aot/videos/R_S_yt-VMUSo8E_Fj8_171.mp4	0.0	150.3985481262207	2.5082569122314453
29	78.7477478981018	fix_post	2		12.0	27.0	2.5	/experiments/knapen_aot/videos/R_S_yt-VMUSo8E_Fj8_171.mp4	0.0	152.90680503845215	0.10008096694946289
30	78.84782886505127	fix_pre	0		25.0	28.0	2.5	/experiments/knapen_aot/videos/S_BO_A014_C008_SDR_20190719_SDR_2K_AVC.mp4	0.0	153.0068860054016	0.2082381248474121
30	79.04798889160156	response	0	2		28.0	2.5	/experiments/knapen_aot/videos/S_BO_A014_C008_SDR_20190719_SDR_2K_AVC.mp4	0.0	153.2070460319519	
30	79.05606698989868	movie	1		188.0	28.0	2.5	/experiments/knapen_aot/videos/S_BO_A014_C008_SDR_20190719_SDR_2K_AVC.mp4	0.0	153.21512413024902	2.508419990539551
30	81.56448698043823	fix_post	2		12.0	28.0	2.5	/experiments/knapen_aot/videos/S_BO_A014_C008_SDR_20190719_SDR_2K_AVC.mp4	0.0	155.72354412078857	0.09992694854736328
31	81.6644139289856	fix_pre	0		11.0	29.0	2.5	/experiments/knapen_aot/videos/R_S_yt-n_eO-7KedAE_21.mp4	0.0	155.82347106933594	0.09164595603942871
31	81.74797987937927	response	0	2		29.0	2.5	/experiments/knapen_aot/videos/R_S_yt-n_eO-7KedAE_21.mp4	0.0	155.90703701972961	
31	81.75605988502502	movie	1		301.0	29.0	2.5	/experiments/knapen_aot/videos/R_S_yt-n_eO-7KedAE_21.mp4	0.0	155.91511702537537	2.508418083190918
31	84.26447796821594	fix_post	2		12.0	29.0	2.5	/experiments/knapen_aot/videos/R_S_yt-n_eO-7KedAE_21.mp4	0.0	158.42353510856628	0.10003089904785156
32	84.3645088672638	fix_pre	0		15.0	30.0	2.5	/experiments/knapen_aot/videos/S_yt-4NjyKFnwHBo_13.mp4	0.0	158.52356600761414	0.12495112419128418
32	84.47373604774475	response	0	2		30.0	2.5	/experiments/knapen_aot/videos/S_yt-4NjyKFnwHBo_13.mp4	0.0	158.6327931880951	
32	84.48945999145508	movie	1		301.0	30.0	2.5	/experiments/knapen_aot/videos/S_yt-4NjyKFnwHBo_13.mp4	0.0	158.64851713180542	2.508378028869629
32	86.9978380203247	fix_post	2		12.0	30.0	2.5	/experiments/knapen_aot/videos/S_yt-4NjyKFnwHBo_13.mp4	0.0	161.15689516067505	0.09993505477905273
33	87.09777307510376	fix_pre	0		39.0	31.0	2.5	/experiments/knapen_aot/videos/S_yt-VMUSo8E_Fj8_171.mp4	0.0	161.2568302154541	0.3250558376312256
33	87.41459703445435	response	0	2		31.0	2.5	/experiments/knapen_aot/videos/S_yt-VMUSo8E_Fj8_171.mp4	0.0	161.5736541748047	
33	87.42282891273499	movie	1		301.0	31.0	2.5	/experiments/knapen_aot/videos/S_yt-VMUSo8E_Fj8_171.mp4	0.0	161.58188605308533	2.508258104324341
33	89.93108701705933	fix_post	2		12.0	31.0	2.5	/experiments/knapen_aot/videos/S_yt-VMUSo8E_Fj8_171.mp4	0.0	164.09014415740967	0.0999748706817627
34	90.03106188774109	fix_pre	0		13.0	32.0	2.5	/experiments/knapen_aot/videos/S_yt-PreGL81PEP4_61.mp4	0.0	164.19011902809143	0.10835719108581543
34	90.13121485710144	response	0	2		32.0	2.5	/experiments/knapen_aot/videos/S_yt-PreGL81PEP4_61.mp4	0.0	164.29027199745178	
34	90.1394190788269	movie	1		301.0	32.0	2.5	/experiments/knapen_aot/videos/S_yt-PreGL81PEP4_61.mp4	0.0	164.29847621917725	2.5083677768707275
34	92.64778685569763	fix_post	2		12.0	32.0	2.5	/experiments/knapen_aot/videos/S_yt-PreGL81PEP4_61.mp4	0.0	166.80684399604797	0.1000051498413086
35	92.74779200553894	fix_pre	0		30.0	33.0	2.5	/experiments/knapen_aot/videos/R_S_pexels-c-technical-6753390.mp4	0.0	166.90684914588928	0.2509908676147461
35	92.98951292037964	response	0	2		33.0	2.5	/experiments/knapen_aot/videos/R_S_pexels-c-technical-6753390.mp4	0.0	167.14857006072998	
35	92.99878287315369	movie	1		194.0	33.0	2.5	/experiments/knapen_aot/videos/R_S_pexels-c-technical-6753390.mp4	0.0	167.15784001350403	2.5072271823883057
35	95.50601005554199	fix_post	2		12.0	33.0	2.5	/experiments/knapen_aot/videos/R_S_pexels-c-technical-6753390.mp4	0.0	169.66506719589233	0.10005903244018555
36	95.60606908798218	fix_pre	0		12.0	34.0	2.5	blank	1.0	169.76512622833252	0.09997177124023438
36	95.6978919506073	response	0	2		34.0	2.5	blank	1.0	169.85694909095764	
36	95.70604085922241	movie	1		301.0	34.0	2.5	blank	1.0	169.86509799957275	2.508369207382202
36	98.21441006660461	fix_post	2		12.0	34.0	2.5	blank	1.0	172.37346720695496	0.10000896453857422
37	98.31441903114319	fix_pre	0		25.0	35.0	2.5	/experiments/knapen_aot/videos/R_S_production_ID_5020960.mp4	0.0	172.47347617149353	0.20829200744628906
37	98.51449990272522	response	0	2		35.0	2.5	/experiments/knapen_aot/videos/R_S_production_ID_5020960.mp4	0.0	172.67355704307556	
37	98.52271103858948	movie	1		204.0	35.0	2.5	/experiments/knapen_aot/videos/R_S_production_ID_5020960.mp4	0.0	172.68176817893982	2.5083229541778564
37	101.03103399276733	fix_post	2		12.0	35.0	2.5	/experiments/knapen_aot/videos/R_S_production_ID_5020960.mp4	0.0	175.19009113311768	0.09999608993530273
38	101.13103008270264	fix_pre	0		16.0	36.0	2.5	/experiments/knapen_aot/videos/R_S_yt-e1RAhIW6WAs_535.mp4	0.0	175.29008722305298	0.13332080841064453
38	101.25629305839539	response	0	2		36.0	2.5	/experiments/knapen_aot/videos/R_S_yt-e1RAhIW6WAs_535.mp4	0.0	175.41535019874573	
38	101.26435089111328	movie	1		299.0	36.0	2.5	/experiments/knapen_aot/videos/R_S_yt-e1RAhIW6WAs_535.mp4	0.0	175.42340803146362	2.5083820819854736
38	103.77273297309875	fix_post	2		12.0	36.0	2.5	/experiments/knapen_aot/videos/R_S_yt-e1RAhIW6WAs_535.mp4	0.0	177.9317901134491	0.0999751091003418
39	103.8727080821991	fix_pre	0		14.0	37.0	2.5	/experiments/knapen_aot/videos/S_yt-hQ5pge893b4_6.mp4	0.0	178.03176522254944	0.11665081977844238
39	103.98117399215698	response	0	2		37.0	2.5	/experiments/knapen_aot/videos/S_yt-hQ5pge893b4_6.mp4	0.0	178.14023113250732	
39	103.98935890197754	movie	1		301.0	37.0	2.5	/experiments/knapen_aot/videos/S_yt-hQ5pge893b4_6.mp4	0.0	178.14841604232788	2.508331060409546
39	106.49768996238708	fix_post	2		12.0	37.0	2.5	/experiments/knapen_aot/videos/S_yt-hQ5pge893b4_6.mp4	0.0	180.65674710273743	0.10004401206970215
40	106.59773397445679	fix_pre	0		33.0	38.0	2.5	/experiments/knapen_aot/videos/R_S_yt-Ozx_f0a0ZDI_32.mp4	0.0	180.75679111480713	0.27599000930786133
40	106.86452102661133	response	0	2		38.0	2.5	/experiments/knapen_aot/videos/R_S_yt-Ozx_f0a0ZDI_32.mp4	0.0	181.02357816696167	
40	106.87372398376465	movie	1		300.0	38.0	2.5	/experiments/knapen_aot/videos/R_S_yt-Ozx_f0a0ZDI_32.mp4	0.0	181.032781124115	2.5074479579925537
40	109.3811719417572	fix_post	2		12.0	38.0	2.5	/experiments/knapen_aot/videos/R_S_yt-Ozx_f0a0ZDI_32.mp4	0.0	183.54022908210754	0.09984397888183594
41	109.48101592063904	fix_pre	0		13.0	39.0	2.5	/experiments/knapen_aot/videos/S_yt-Ozx_f0a0ZDI_32.mp4	0.0	183.64007306098938	0.1082451343536377
41	109.58125305175781	response	0	2		39.0	2.5	/experiments/knapen_aot/videos/S_yt-Ozx_f0a0ZDI_32.mp4	0.0	183.74031019210815	
41	109.58926105499268	movie	1		301.0	39.0	2.5	/experiments/knapen_aot/videos/S_yt-Ozx_f0a0ZDI_32.mp4	0.0	183.74831819534302	2.5084078311920166
41	112.09766888618469	fix_post	2		12.0	39.0	2.5	/experiments/knapen_aot/videos/S_yt-Ozx_f0a0ZDI_32.mp4	0.0	186.25672602653503	0.1000211238861084
42	112.1976900100708	fix_pre	0		11.0	40.0	2.5	/experiments/knapen_aot/videos/R_S_ILSVRC2015_train_00378000.mp4	0.0	186.35674715042114	0.09253692626953125
42	112.28117299079895	response	0	2		40.0	2.5	/experiments/knapen_aot/videos/R_S_ILSVRC2015_train_00378000.mp4	0.0	186.4402301311493	
42	112.29022693634033	movie	1		301.0	40.0	2.5	/experiments/knapen_aot/videos/R_S_ILSVRC2015_train_00378000.mp4	0.0	186.44928407669067	2.5074379444122314
42	114.79766488075256	fix_post	2		12.0	40.0	2.5	/experiments/knapen_aot/videos/R_S_ILSVRC2015_train_00378000.mp4	0.0	188.9567220211029	0.1001431941986084
43	114.89780807495117	fix_pre	0		5.0	41.0	2.5	blank	1.0	189.0568652153015	0.04146981239318848
43	114.93137693405151	response	0	2		41.0	2.5	blank	1.0	189.09043407440186	
43	114.93927788734436	movie	1		301.0	41.0	2.5	blank	1.0	189.0983350276947	2.5084760189056396
43	117.44775390625	fix_post	2		12.0	41.0	2.5	blank	1.0	191.60681104660034	0.0999300479888916
44	117.54768395423889	fix_pre	0		34.0	42.0	2.5	/experiments/knapen_aot/videos/R_S_yt-foGMTdxewBI_43.mp4	0.0	191.70674109458923	0.28423404693603516
44	117.81523489952087	response	0	2		42.0	2.5	/experiments/knapen_aot/videos/R_S_yt-foGMTdxewBI_43.mp4	0.0	191.97429203987122	
44	117.83191800117493	movie	1		301.0	42.0	2.5	/experiments/knapen_aot/videos/R_S_yt-foGMTdxewBI_43.mp4	0.0	191.99097514152527	2.50738787651062
44	120.33930587768555	fix_post	2		12.0	42.0	2.5	/experiments/knapen_aot/videos/R_S_yt-foGMTdxewBI_43.mp4	0.0	194.4983630180359	0.0999150276184082
45	120.43922090530396	fix_pre	0		13.0	43.0	2.5	/experiments/knapen_aot/videos/S_ILSVRC2015_train_00322000.mp4	0.0	194.5982780456543	0.10831809043884277
45	120.53940987586975	response	0	2		43.0	2.5	/experiments/knapen_aot/videos/S_ILSVRC2015_train_00322000.mp4	0.0	194.6984670162201	
45	120.5475389957428	movie	1		301.0	43.0	2.5	/experiments/knapen_aot/videos/S_ILSVRC2015_train_00322000.mp4	0.0	194.70659613609314	2.508394956588745
45	123.05593395233154	fix_post	2		12.0	43.0	2.5	/experiments/knapen_aot/videos/S_ILSVRC2015_train_00322000.mp4	0.0	197.21499109268188	0.10002708435058594
46	123.15596103668213	fix_pre	0		9.0	44.0	2.5	/experiments/knapen_aot/videos/R_S_yt-4GDusA21cEA_170.mp4	0.0	197.31501817703247	0.07504391670227051
46	123.22265696525574	response	0	2		44.0	2.5	/experiments/knapen_aot/videos/R_S_yt-4GDusA21cEA_170.mp4	0.0	197.38171410560608	
46	123.2310049533844	movie	1		301.0	44.0	2.5	/experiments/knapen_aot/videos/R_S_yt-4GDusA21cEA_170.mp4	0.0	197.39006209373474	2.508229970932007
46	125.7392349243164	fix_post	2		12.0	44.0	2.5	/experiments/knapen_aot/videos/R_S_yt-4GDusA21cEA_170.mp4	0.0	199.89829206466675	0.10010004043579102
47	125.8393349647522	fix_pre	0		13.0	45.0	2.5	/experiments/knapen_aot/videos/R_S_yt-k-MRlbCOzZU_163.mp4	0.0	199.99839210510254	0.10824799537658691
47	125.93945693969727	response	0	2		45.0	2.5	/experiments/knapen_aot/videos/R_S_yt-k-MRlbCOzZU_163.mp4	0.0	200.0985140800476	
47	125.94758296012878	movie	1		301.0	45.0	2.5	/experiments/knapen_aot/videos/R_S_yt-k-MRlbCOzZU_163.mp4	0.0	200.10664010047913	2.5084381103515625
47	128.45602107048035	fix_post	2		12.0	45.0	2.5	/experiments/knapen_aot/videos/R_S_yt-k-MRlbCOzZU_163.mp4	0.0	202.6150782108307	0.09996485710144043
48	128.5559859275818	fix_pre	0		21.0	46.0	2.5	/experiments/knapen_aot/videos/S_pexels-koolshooters-7327401_1.mp4	0.0	202.71504306793213	0.1749439239501953
48	128.72272300720215	response	0	2		46.0	2.5	/experiments/knapen_aot/videos/S_pexels-koolshooters-7327401_1.mp4	0.0	202.8817801475525	
48	128.73092985153198	movie	1		164.0	46.0	2.5	/experiments/knapen_aot/videos/S_pexels-koolshooters-7327401_1.mp4	0.0	202.88998699188232	2.508235216140747
48	131.23916506767273	fix_post	2		12.0	46.0	2.5	/experiments/knapen_aot/videos/S_pexels-koolshooters-7327401_1.mp4	0.0	205.39822220802307	0.10009980201721191
49	131.33926486968994	fix_pre	0		12.0	47.0	2.5	/experiments/knapen_aot/videos/S_wc-0SAXOWjdNVGC_8.mp4	0.0	205.49832201004028	0.09992098808288574
49	131.43101906776428	response	0	2		47.0	2.5	/experiments/knapen_aot/videos/S_wc-0SAXOWjdNVGC_8.mp4	0.0	205.59007620811462	
49	131.43918585777283	movie	1		161.0	47.0	2.5	/experiments/knapen_aot/videos/S_wc-0SAXOWjdNVGC_8.mp4	0.0	205.59824299812317	2.5084080696105957
49	133.94759392738342	fix_post	2		12.0	47.0	2.5	/experiments/knapen_aot/videos/S_wc-0SAXOWjdNVGC_8.mp4	0.0	208.10665106773376	0.09994792938232422
50	134.04754185676575	fix_pre	0		17.0	48.0	2.5	/experiments/knapen_aot/videos/S_G008_C015_UHD_SDR_2K_AVC.mp4	0.0	208.2065989971161	0.141693115234375
50	134.18107295036316	response	0	2		48.0	2.5	/experiments/knapen_aot/videos/S_G008_C015_UHD_SDR_2K_AVC.mp4	0.0	208.3401300907135	
50	134.18923497200012	movie	1		170.0	48.0	2.5	/experiments/knapen_aot/videos/S_G008_C015_UHD_SDR_2K_AVC.mp4	0.0	208.34829211235046	2.508394956588745
50	136.69762992858887	fix_post	2		12.0	48.0	2.5	/experiments/knapen_aot/videos/S_G008_C015_UHD_SDR_2K_AVC.mp4	0.0	210.8566870689392	0.09993600845336914
51	136.79756593704224	fix_pre	0		3.0	49.0	2.5	blank	1.0	210.95662307739258	0.025032997131347656
51	136.8143870830536	response	0	2		49.0	2.5	blank	1.0	210.97344422340393	
51	136.82259893417358	movie	1		301.0	49.0	2.5	blank	1.0	210.98165607452393	2.5083279609680176
51	139.3309268951416	fix_post	2		12.0	49.0	2.5	blank	1.0	213.48998403549194	0.09991812705993652
52	139.43084502220154	fix_pre	0		26.0	50.0	2.5	/experiments/knapen_aot/videos/R_S_yt-0n0uppNuUus_15.mp4	0.0	213.58990216255188	0.21674084663391113
52	139.6393859386444	response	0	2		50.0	2.5	/experiments/knapen_aot/videos/R_S_yt-0n0uppNuUus_15.mp4	0.0	213.79844307899475	
52	139.64758586883545	movie	1		300.0	50.0	2.5	/experiments/knapen_aot/videos/R_S_yt-0n0uppNuUus_15.mp4	0.0	213.8066430091858	2.5083560943603516
52	142.1559419631958	fix_post	2		12.0	50.0	2.5	/experiments/knapen_aot/videos/R_S_yt-0n0uppNuUus_15.mp4	0.0	216.31499910354614	0.09998893737792969
53	142.25593090057373	fix_pre	0		7.0	51.0	2.5	/experiments/knapen_aot/videos/R_S_WCwb-DeQOSg_85.mp4	0.0	216.41498804092407	0.058290958404541016
53	142.30600500106812	response	0	2		51.0	2.5	/experiments/knapen_aot/videos/R_S_WCwb-DeQOSg_85.mp4	0.0	216.46506214141846	
53	142.31422185897827	movie	1		301.0	51.0	2.5	/experiments/knapen_aot/videos/R_S_WCwb-DeQOSg_85.mp4	0.0	216.4732789993286	2.5083441734313965
53	144.82256603240967	fix_post	2		12.0	51.0	2.5	/experiments/knapen_aot/videos/R_S_WCwb-DeQOSg_85.mp4	0.0	218.98162317276	0.10001587867736816
54	144.92258191108704	fix_pre	0		24.0	52.0	2.5	/experiments/knapen_aot/videos/S_yt-hQ5pge893b4_6.mp4	0.0	219.08163905143738	0.2007150650024414
54	145.1144139766693	response	0	2		52.0	2.5	/experiments/knapen_aot/videos/S_yt-hQ5pge893b4_6.mp4	0.0	219.27347111701965	
54	145.12329697608948	movie	1		301.0	52.0	2.5	/experiments/knapen_aot/videos/S_yt-hQ5pge893b4_6.mp4	0.0	219.28235411643982	2.507498025894165
54	147.63079500198364	fix_post	2		12.0	52.0	2.5	/experiments/knapen_aot/videos/S_yt-hQ5pge893b4_6.mp4	0.0	221.78985214233398	0.10001397132873535
55	147.73080897331238	fix_pre	0		33.0	53.0	2.5	/experiments/knapen_aot/videos/R_S_yt-szXWk_X_67Q_10.mp4	0.0	221.88986611366272	0.2749910354614258
55	147.99763202667236	response	0	2		53.0	2.5	/experiments/knapen_aot/videos/R_S_yt-szXWk_X_67Q_10.mp4	0.0	222.1566891670227	
55	148.0058000087738	movie	1		301.0	53.0	2.5	/experiments/knapen_aot/videos/R_S_yt-szXWk_X_67Q_10.mp4	0.0	222.16485714912415	2.508404016494751
55	150.51420402526855	fix_post	2		12.0	53.0	2.5	/experiments/knapen_aot/videos/R_S_yt-szXWk_X_67Q_10.mp4	0.0	224.6732611656189	0.09999203681945801
56	150.614196062088	fix_pre	0		17.0	54.0	2.5	blank	1.0	224.77325320243835	0.14166879653930664
56	150.74752688407898	response	0	2		54.0	2.5	blank	1.0	224.90658402442932	
56	150.75586485862732	movie	1		301.0	54.0	2.5	blank	1.0	224.91492199897766	2.5083301067352295
56	153.26419496536255	fix_post	2		12.0	54.0	2.5	blank	1.0	227.4232521057129	0.0999600887298584
57	153.3641550540924	fix_pre	0		52.0	55.0	2.5	/experiments/knapen_aot/videos/R_S_comp_GL_G002_C002_PSNK_v03_SDR_PS_20180925_SDR_2K_AVC.mp4	0.0	227.52321219444275	0.43335700035095215
57	153.78933191299438	response	0	2		55.0	2.5	/experiments/knapen_aot/videos/R_S_comp_GL_G002_C002_PSNK_v03_SDR_PS_20180925_SDR_2K_AVC.mp4	0.0	227.94838905334473	
57	153.79751205444336	movie	1		168.0	55.0	2.5	/experiments/knapen_aot/videos/R_S_comp_GL_G002_C002_PSNK_v03_SDR_PS_20180925_SDR_2K_AVC.mp4	0.0	227.9565691947937	2.508342981338501
57	156.30585503578186	fix_post	2		12.0	55.0	2.5	/experiments/knapen_aot/videos/R_S_comp_GL_G002_C002_PSNK_v03_SDR_PS_20180925_SDR_2K_AVC.mp4	0.0	230.4649121761322	0.09996199607849121
58	156.40581703186035	fix_pre	0		5.0	56.0	2.5	/experiments/knapen_aot/videos/R_S_yt-AiXq1oDrEXI_123.mp4	0.0	230.5648741722107	0.04163193702697754
58	156.4394998550415	response	0	2		56.0	2.5	/experiments/knapen_aot/videos/R_S_yt-AiXq1oDrEXI_123.mp4	0.0	230.59855699539185	
58	156.44744896888733	movie	1		301.0	56.0	2.5	/experiments/knapen_aot/videos/R_S_yt-AiXq1oDrEXI_123.mp4	0.0	230.60650610923767	2.508328914642334
58	158.95577788352966	fix_post	2		12.0	56.0	2.5	/experiments/knapen_aot/videos/R_S_yt-AiXq1oDrEXI_123.mp4	0.0	233.11483502388	0.09996700286865234
59	159.05574488639832	fix_pre	0		9.0	57.0	2.5	/experiments/knapen_aot/videos/R_S_ILSVRC2015_train_00549000.mp4	0.0	233.21480202674866	0.07502412796020508
59	159.12259101867676	response	0	2		57.0	2.5	/experiments/knapen_aot/videos/R_S_ILSVRC2015_train_00549000.mp4	0.0	233.2816481590271	
59	159.13076901435852	movie	1		301.0	57.0	2.5	/experiments/knapen_aot/videos/R_S_ILSVRC2015_train_00549000.mp4	0.0	233.28982615470886	2.5083818435668945
59	161.63915085792542	fix_post	2		12.0	57.0	2.5	/experiments/knapen_aot/videos/R_S_ILSVRC2015_train_00549000.mp4	0.0	235.79820799827576	0.09997701644897461
60	161.7391278743744	fix_pre	0		5.0	58.0	2.5	/experiments/knapen_aot/videos/R_S_pexels-koolshooters-7327401_1.mp4	0.0	235.89818501472473	0.04162716865539551
60	161.77258586883545	response	0	2		58.0	2.5	/experiments/knapen_aot/videos/R_S_pexels-koolshooters-7327401_1.mp4	0.0	235.9316430091858	
60	161.78075504302979	movie	1		167.0	58.0	2.5	/experiments/knapen_aot/videos/R_S_pexels-koolshooters-7327401_1.mp4	0.0	235.93981218338013	2.508359909057617
60	164.2891149520874	fix_post	2		12.0	58.0	2.5	/experiments/knapen_aot/videos/R_S_pexels-koolshooters-7327401_1.mp4	0.0	238.44817209243774	0.09993410110473633
60	164.34758806228638	response	2	2		58.0	2.5	/experiments/knapen_aot/videos/R_S_pexels-koolshooters-7327401_1.mp4	0.0	238.50664520263672	
61	164.38904905319214	fix_pre	0		41.0	59.0	2.5	/experiments/knapen_aot/videos/S_yt-VMUSo8E_Fj8_171.mp4	0.0	238.54810619354248	0.34169602394104004
61	164.7225160598755	response	0	2		59.0	2.5	/experiments/knapen_aot/videos/S_yt-VMUSo8E_Fj8_171.mp4	0.0	238.88157320022583	
61	164.73074507713318	movie	1		301.0	59.0	2.5	/experiments/knapen_aot/videos/S_yt-VMUSo8E_Fj8_171.mp4	0.0	238.88980221748352	2.508323907852173
61	167.23906898498535	fix_post	2		12.0	59.0	2.5	/experiments/knapen_aot/videos/S_yt-VMUSo8E_Fj8_171.mp4	0.0	241.3981261253357	0.1000359058380127
62	167.33910489082336	fix_pre	0		4.0	60.0	2.5	/experiments/knapen_aot/videos/S_ILSVRC2015_train_00682005.mp4	0.0	241.4981620311737	0.03453207015991211
62	167.36444687843323	response	0	2		60.0	2.5	/experiments/knapen_aot/videos/S_ILSVRC2015_train_00682005.mp4	0.0	241.52350401878357	
62	167.37363696098328	movie	1		301.0	60.0	2.5	/experiments/knapen_aot/videos/S_ILSVRC2015_train_00682005.mp4	0.0	241.53269410133362	2.507162094116211
62	169.8807990550995	fix_post	2		12.0	60.0	2.5	/experiments/knapen_aot/videos/S_ILSVRC2015_train_00682005.mp4	0.0	244.03985619544983	0.09994888305664062
63	169.98074793815613	fix_pre	0		5.0	61.0	2.5	blank	1.0	244.13980507850647	0.04171895980834961
63	170.01420903205872	response	0	2		61.0	2.5	blank	1.0	244.17326617240906	
63	170.02246689796448	movie	1		301.0	61.0	2.5	blank	1.0	244.18152403831482	2.5083119869232178
63	172.5307788848877	fix_post	2		12.0	61.0	2.5	blank	1.0	246.68983602523804	0.09996604919433594
64	172.63074493408203	fix_pre	0		18.0	62.0	2.5	/experiments/knapen_aot/videos/S_yt-sWJc_Do8EaI_32.mp4	0.0	246.78980207443237	0.14989900588989258
64	172.7724928855896	response	0	2		62.0	2.5	/experiments/knapen_aot/videos/S_yt-sWJc_Do8EaI_32.mp4	0.0	246.93155002593994	
64	172.78064393997192	movie	1		301.0	62.0	2.5	/experiments/knapen_aot/videos/S_yt-sWJc_Do8EaI_32.mp4	0.0	246.93970108032227	2.508413076400757
64	175.28905701637268	fix_post	2		12.0	62.0	2.5	/experiments/knapen_aot/videos/S_yt-sWJc_Do8EaI_32.mp4	0.0	249.44811415672302	0.09998893737792969
65	175.3890459537506	fix_pre	0		11.0	63.0	2.5	/experiments/knapen_aot/videos/R_S_ILSVRC2015_train_00371012.mp4	0.0	249.54810309410095	0.09169912338256836
65	175.47252488136292	response	0	2		63.0	2.5	/experiments/knapen_aot/videos/R_S_ILSVRC2015_train_00371012.mp4	0.0	249.63158202171326	
65	175.48074507713318	movie	1		301.0	63.0	2.5	/experiments/knapen_aot/videos/R_S_ILSVRC2015_train_00371012.mp4	0.0	249.63980221748352	2.508335828781128
65	177.9890809059143	fix_post	2		12.0	63.0	2.5	/experiments/knapen_aot/videos/R_S_ILSVRC2015_train_00371012.mp4	0.0	252.14813804626465	0.1000220775604248
66	178.08910298347473	fix_pre	0		13.0	64.0	2.5	/experiments/knapen_aot/videos/S_yt-26009GpQuUg_3.mp4	0.0	252.24816012382507	0.10828399658203125
66	178.18920993804932	response	0	2		64.0	2.5	/experiments/knapen_aot/videos/S_yt-26009GpQuUg_3.mp4	0.0	252.34826707839966	
66	178.19738698005676	movie	1		300.0	64.0	2.5	/experiments/knapen_aot/videos/S_yt-26009GpQuUg_3.mp4	0.0	252.3564441204071	2.508323907852173
66	180.70571088790894	fix_post	2		12.0	64.0	2.5	/experiments/knapen_aot/videos/S_yt-26009GpQuUg_3.mp4	0.0	254.86476802825928	0.10002303123474121
67	180.80573391914368	fix_pre	0		405.0	65.0	2.5	/experiments/knapen_aot/videos/R_S_yt-7bSTxOajpjc_58.mp4	0.0	254.96479105949402	3.3749001026153564
67	184.16495895385742	response	0	2		65.0	2.5	/experiments/knapen_aot/videos/R_S_yt-7bSTxOajpjc_58.mp4	0.0	258.32401609420776	
67	184.18063402175903	movie	1		301.0	65.0	2.5	/experiments/knapen_aot/videos/R_S_yt-7bSTxOajpjc_58.mp4	0.0	258.3396911621094	2.508409023284912
67	186.68904304504395	fix_post	2		12.0	65.0	2.5	/experiments/knapen_aot/videos/R_S_yt-7bSTxOajpjc_58.mp4	0.0	260.8481001853943	0.09995484352111816
68	186.78899788856506	fix_pre	0		22.0	66.0	2.5	/experiments/knapen_aot/videos/S_ILSVRC2015_train_00404003.mp4	0.0	260.9480550289154	0.18332219123840332
68	186.9642140865326	response	0	2		66.0	2.5	/experiments/knapen_aot/videos/S_ILSVRC2015_train_00404003.mp4	0.0	261.12327122688293	
68	186.97232007980347	movie	1		301.0	66.0	2.5	/experiments/knapen_aot/videos/S_ILSVRC2015_train_00404003.mp4	0.0	261.1313772201538	2.508384943008423
68	189.4807050228119	fix_post	2		12.0	66.0	2.5	/experiments/knapen_aot/videos/S_ILSVRC2015_train_00404003.mp4	0.0	263.63976216316223	0.10000205039978027
69	189.58070707321167	fix_pre	0		28.0	67.0	2.5	/experiments/knapen_aot/videos/R_S_yt-Faxdis4m3Fw_9.mp4	0.0	263.739764213562	0.23328185081481934
69	189.80582690238953	response	0	2		67.0	2.5	/experiments/knapen_aot/videos/R_S_yt-Faxdis4m3Fw_9.mp4	0.0	263.96488404273987	
69	189.8139889240265	movie	1		299.0	67.0	2.5	/experiments/knapen_aot/videos/R_S_yt-Faxdis4m3Fw_9.mp4	0.0	263.97304606437683	2.5083389282226562
69	192.32232785224915	fix_post	2		12.0	67.0	2.5	/experiments/knapen_aot/videos/R_S_yt-Faxdis4m3Fw_9.mp4	0.0	266.4813849925995	0.09997701644897461
70	192.42230486869812	fix_pre	0		11.0	68.0	2.5	blank	1.0	266.58136200904846	0.09162712097167969
70	192.5057020187378	response	0	2		68.0	2.5	blank	1.0	266.66475915908813	
70	192.5139319896698	movie	1		301.0	68.0	2.5	blank	1.0	266.67298913002014	2.5083608627319336
70	195.02229285240173	fix_post	2		12.0	68.0	2.5	blank	1.0	269.1813499927521	0.10001206398010254
71	195.12230491638184	fix_pre	0		20.0	69.0	2.5	/experiments/knapen_aot/videos/R_S_yt-H-qQ0oE1kwM_6.mp4	0.0	269.2813620567322	0.16714715957641602
71	195.28079891204834	response	0	2		69.0	2.5	/experiments/knapen_aot/videos/R_S_yt-H-qQ0oE1kwM_6.mp4	0.0	269.4398560523987	
71	195.28945207595825	movie	1		301.0	69.0	2.5	/experiments/knapen_aot/videos/R_S_yt-H-qQ0oE1kwM_6.mp4	0.0	269.4485092163086	2.5078539848327637
71	197.79730606079102	fix_post	2		12.0	69.0	2.5	/experiments/knapen_aot/videos/R_S_yt-H-qQ0oE1kwM_6.mp4	0.0	271.95636320114136	0.09996485710144043
72	197.89727091789246	fix_pre	0		22.0	70.0	2.5	/experiments/knapen_aot/videos/R_S_yt-J_FnFAl1uL0_143.mp4	0.0	272.0563280582428	0.18387103080749512
72	198.07255101203918	response	0	2		70.0	2.5	/experiments/knapen_aot/videos/R_S_yt-J_FnFAl1uL0_143.mp4	0.0	272.2316081523895	
72	198.08114194869995	movie	1		300.0	70.0	2.5	/experiments/knapen_aot/videos/R_S_yt-J_FnFAl1uL0_143.mp4	0.0	272.2401990890503	2.5078320503234863
72	200.58897399902344	fix_post	2		12.0	70.0	2.5	/experiments/knapen_aot/videos/R_S_yt-J_FnFAl1uL0_143.mp4	0.0	274.7480311393738	0.10001587867736816
73	200.6889898777008	fix_pre	0		6.0	71.0	2.5	/experiments/knapen_aot/videos/S_yt-bH4nJibL4Jo_164.mp4	0.0	274.84804701805115	0.04993915557861328
73	200.73086404800415	response	0	2		71.0	2.5	/experiments/knapen_aot/videos/S_yt-bH4nJibL4Jo_164.mp4	0.0	274.8899211883545	
73	200.73892903327942	movie	1		301.0	71.0	2.5	/experiments/knapen_aot/videos/S_yt-bH4nJibL4Jo_164.mp4	0.0	274.89798617362976	2.5083730220794678
73	203.2473020553589	fix_post	2		12.0	71.0	2.5	/experiments/knapen_aot/videos/S_yt-bH4nJibL4Jo_164.mp4	0.0	277.40635919570923	0.09994983673095703
74	203.34725189208984	fix_pre	0		9.0	72.0	2.5	/experiments/knapen_aot/videos/S_wc-_W9iefBXz8bi_23.mp4	0.0	277.5063090324402	0.07501697540283203
74	203.414057970047	response	0	2		72.0	2.5	/experiments/knapen_aot/videos/S_wc-_W9iefBXz8bi_23.mp4	0.0	277.57311511039734	
74	203.42226886749268	movie	1		168.0	72.0	2.5	/experiments/knapen_aot/videos/S_wc-_W9iefBXz8bi_23.mp4	0.0	277.581326007843	2.508371114730835
74	205.9306399822235	fix_post	2		12.0	72.0	2.5	/experiments/knapen_aot/videos/S_wc-_W9iefBXz8bi_23.mp4	0.0	280.08969712257385	0.0998990535736084
75	206.03053903579712	fix_pre	0		15.0	73.0	2.5	/experiments/knapen_aot/videos/R_S_wc-ujHd_fPVcSlX_10.mp4	0.0	280.18959617614746	0.12504982948303223
75	206.1399700641632	response	0	2		73.0	2.5	/experiments/knapen_aot/videos/R_S_wc-ujHd_fPVcSlX_10.mp4	0.0	280.29902720451355	
75	206.15558886528015	movie	1		167.0	73.0	2.5	/experiments/knapen_aot/videos/R_S_wc-ujHd_fPVcSlX_10.mp4	0.0	280.3146460056305	2.508357048034668
75	208.66394591331482	fix_post	2		12.0	73.0	2.5	/experiments/knapen_aot/videos/R_S_wc-ujHd_fPVcSlX_10.mp4	0.0	282.82300305366516	0.0999760627746582
76	208.76392197608948	fix_pre	0		1.0	74.0	2.5	/experiments/knapen_aot/videos/R_S_yt-nQu-PAXBv2g_5.mp4	0.0	282.9229791164398	0.008469104766845703
76	208.76557898521423	response	0	2		74.0	2.5	/experiments/knapen_aot/videos/R_S_yt-nQu-PAXBv2g_5.mp4	0.0	282.9246361255646	
76	208.77239108085632	movie	1		301.0	74.0	2.5	/experiments/knapen_aot/videos/R_S_yt-nQu-PAXBv2g_5.mp4	0.0	282.93144822120667	2.508173942565918
76	211.28056502342224	fix_post	2		12.0	74.0	2.5	/experiments/knapen_aot/videos/R_S_yt-nQu-PAXBv2g_5.mp4	0.0	285.4396221637726	0.09990191459655762
77	211.3804669380188	fix_pre	0		7.0	75.0	2.5	/experiments/knapen_aot/videos/S_yt-PYHK810V_n8_1375.mp4	0.0	285.53952407836914	0.061686038970947266
77	211.4309320449829	response	0	2		75.0	2.5	/experiments/knapen_aot/videos/S_yt-PYHK810V_n8_1375.mp4	0.0	285.58998918533325	
77	211.44215297698975	movie	1		301.0	75.0	2.5	/experiments/knapen_aot/videos/S_yt-PYHK810V_n8_1375.mp4	0.0	285.6012101173401	2.5050740242004395
77	213.94722700119019	fix_post	2		12.0	75.0	2.5	/experiments/knapen_aot/videos/S_yt-PYHK810V_n8_1375.mp4	0.0	288.1062841415405	0.09998893737792969
78	214.04721593856812	fix_pre	0		13.0	76.0	2.5	blank	1.0	288.20627307891846	0.1083381175994873
78	214.14727401733398	response	0	2		76.0	2.5	blank	1.0	288.3063311576843	
78	214.1555540561676	movie	1		301.0	76.0	2.5	blank	1.0	288.31461119651794	2.5083060264587402
78	216.66386008262634	fix_post	2		12.0	76.0	2.5	blank	1.0	290.8229172229767	0.09999585151672363
79	216.76385593414307	fix_pre	0		14.0	77.0	2.5	/experiments/knapen_aot/videos/S_yt-AiXq1oDrEXI_123.mp4	0.0	290.9229130744934	0.11663198471069336
79	216.87231397628784	response	0	2		77.0	2.5	/experiments/knapen_aot/videos/S_yt-AiXq1oDrEXI_123.mp4	0.0	291.0313711166382	
79	216.88048791885376	movie	1		301.0	77.0	2.5	/experiments/knapen_aot/videos/S_yt-AiXq1oDrEXI_123.mp4	0.0	291.0395450592041	2.508392095565796
79	219.38888001441956	fix_post	2		12.0	77.0	2.5	/experiments/knapen_aot/videos/S_yt-AiXq1oDrEXI_123.mp4	0.0	293.5479371547699	0.10000491142272949
80	219.48888492584229	fix_pre	0		11.0	78.0	2.5	/experiments/knapen_aot/videos/R_S_Nh81j72Utbs_5.mp4	0.0	293.6479420661926	0.09199309349060059
80	219.572331905365	response	0	2		78.0	2.5	/experiments/knapen_aot/videos/R_S_Nh81j72Utbs_5.mp4	0.0	293.73138904571533	
80	219.58087801933289	movie	1		301.0	78.0	2.5	/experiments/knapen_aot/videos/R_S_Nh81j72Utbs_5.mp4	0.0	293.7399351596832	2.507990837097168
80	222.08886885643005	fix_post	2		12.0	78.0	2.5	/experiments/knapen_aot/videos/R_S_Nh81j72Utbs_5.mp4	0.0	296.2479259967804	0.09990215301513672
81	222.1887710094452	fix_pre	0		11.0	79.0	2.5	/experiments/knapen_aot/videos/R_S_pexels-polina-tankilevitch-8203088.mp4	0.0	296.34782814979553	0.09168601036071777
81	222.27231287956238	response	0	2		79.0	2.5	/experiments/knapen_aot/videos/R_S_pexels-polina-tankilevitch-8203088.mp4	0.0	296.4313700199127	
81	222.2804570198059	movie	1		163.0	79.0	2.5	/experiments/knapen_aot/videos/R_S_pexels-polina-tankilevitch-8203088.mp4	0.0	296.43951416015625	2.5083529949188232
81	224.78881001472473	fix_post	2		12.0	79.0	2.5	/experiments/knapen_aot/videos/R_S_pexels-polina-tankilevitch-8203088.mp4	0.0	298.9478671550751	0.10001492500305176
82	224.88882493972778	fix_pre	0		11.0	80.0	2.5	/experiments/knapen_aot/videos/S_ILSVRC2015_train_00371006.mp4	0.0	299.0478820800781	0.09165000915527344
82	224.96492505073547	response	0	2		80.0	2.5	/experiments/knapen_aot/videos/S_ILSVRC2015_train_00371006.mp4	0.0	299.1239821910858	
82	224.98047494888306	movie	1		301.0	80.0	2.5	/experiments/knapen_aot/videos/S_ILSVRC2015_train_00371006.mp4	0.0	299.1395320892334	2.5082530975341797
82	227.48872804641724	fix_post	2		12.0	80.0	2.5	/experiments/knapen_aot/videos/S_ILSVRC2015_train_00371006.mp4	0.0	301.6477851867676	0.10008788108825684
83	227.5888159275055	fix_pre	0		16.0	81.0	2.5	/experiments/knapen_aot/videos/R_S_yt-GytLOB9Qjro_76.mp4	0.0	301.74787306785583	0.13329005241394043
83	227.713928937912	response	0	2		81.0	2.5	/experiments/knapen_aot/videos/R_S_yt-GytLOB9Qjro_76.mp4	0.0	301.87298607826233	
83	227.72210597991943	movie	1		301.0	81.0	2.5	/experiments/knapen_aot/videos/R_S_yt-GytLOB9Qjro_76.mp4	0.0	301.8811631202698	2.5083959102630615
83	230.2305018901825	fix_post	2		12.0	81.0	2.5	/experiments/knapen_aot/videos/R_S_yt-GytLOB9Qjro_76.mp4	0.0	304.38955903053284	0.09988212585449219
84	230.330384016037	fix_pre	0		3.0	82.0	2.5	blank	1.0	304.48944115638733	0.02537989616394043
84	230.3475320339203	response	0	2		82.0	2.5	blank	1.0	304.50658917427063	
84	230.35576391220093	movie	1		301.0	82.0	2.5	blank	1.0	304.51482105255127	2.508012056350708
84	232.86377596855164	fix_post	2		12.0	82.0	2.5	blank	1.0	307.022833108902	0.09999799728393555
85	232.96377396583557	fix_pre	0		25.0	83.0	2.5	/experiments/knapen_aot/videos/S_yt-H2ce6U0SbVA_542.mp4	0.0	307.1228311061859	0.20828008651733398
85	233.16388392448425	response	0	2		83.0	2.5	/experiments/knapen_aot/videos/S_yt-H2ce6U0SbVA_542.mp4	0.0	307.3229410648346	
85	233.1720540523529	movie	1		301.0	83.0	2.5	/experiments/knapen_aot/videos/S_yt-H2ce6U0SbVA_542.mp4	0.0	307.33111119270325	2.5083868503570557
85	235.68044090270996	fix_post	2		12.0	83.0	2.5	/experiments/knapen_aot/videos/S_yt-H2ce6U0SbVA_542.mp4	0.0	309.8394980430603	0.10001802444458008
87	235.78045892715454	stim	0		336.0					309.9395160675049	2.800240993499756
87	236.038969039917	response	0	2						310.19802618026733	
87	238.57262706756592	response	0	space						312.73168420791626	
