trial_nr	onset	event_type	phase	response	nr_frames	movie_index	movie_duration	movie_file	blank	onset_abs	duration
0	0.12990999221801758	stim	0		80.0					118.22451901435852	0.6701130867004395
0	0.7918810844421387	response	0	space						118.88649010658264	
1	0.800023078918457	stim	0		121.0					118.89463210105896	1.0082218647003174
1	1.4915411472320557	response	0	space						119.58615016937256	
1	1.8082449436187744	stim	1		120.0					119.90285396575928	0.9998311996459961
2	2.8080761432647705	fix_pre	0		9.0	0.0	2.5	/experiments/knapen_aot/videos/S_yt-F1vQ5nZWhDg_21.mp4	0.0	120.90268516540527	0.0749809741973877
2	2.874796152114868	response	0	space		0.0	2.5	/experiments/knapen_aot/videos/S_yt-F1vQ5nZWhDg_21.mp4	0.0	120.96940517425537	
2	2.883057117462158	movie	1		301.0	0.0	2.5	/experiments/knapen_aot/videos/S_yt-F1vQ5nZWhDg_21.mp4	0.0	120.97766613960266	2.5083630084991455
2	5.391420125961304	fix_post	2		12.0	0.0	2.5	/experiments/knapen_aot/videos/S_yt-F1vQ5nZWhDg_21.mp4	0.0	123.4860291481018	0.09998393058776855
3	5.491404056549072	fix_pre	0		15.0	1.0	2.5	/experiments/knapen_aot/videos/R_S_b3TCugtX0h0_108.mp4	0.0	123.58601307868958	0.12493705749511719
3	5.609519958496094	response	0	2		1.0	2.5	/experiments/knapen_aot/videos/R_S_b3TCugtX0h0_108.mp4	0.0	123.7041289806366	
3	5.6163411140441895	movie	1		301.0	1.0	2.5	/experiments/knapen_aot/videos/R_S_b3TCugtX0h0_108.mp4	0.0	123.71095013618469	2.5083470344543457
3	8.124688148498535	fix_post	2		12.0	1.0	2.5	/experiments/knapen_aot/videos/R_S_b3TCugtX0h0_108.mp4	0.0	126.21929717063904	0.10009098052978516
4	8.22477912902832	fix_pre	0		2.0	2.0	2.5	/experiments/knapen_aot/videos/S_yt-UPgF4YAHBQY_33.mp4	0.0	126.31938815116882	0.016698837280273438
4	8.234109163284302	response	0	2		2.0	2.5	/experiments/knapen_aot/videos/S_yt-UPgF4YAHBQY_33.mp4	0.0	126.3287181854248	
4	8.241477966308594	movie	1		301.0	2.0	2.5	/experiments/knapen_aot/videos/S_yt-UPgF4YAHBQY_33.mp4	0.0	126.3360869884491	2.5082390308380127
4	10.749716997146606	fix_post	2		12.0	2.0	2.5	/experiments/knapen_aot/videos/S_yt-UPgF4YAHBQY_33.mp4	0.0	128.8443260192871	0.09994196891784668
5	10.849658966064453	fix_pre	0		21.0	3.0	2.5	/experiments/knapen_aot/videos/R_S_yt-9pUeQix6EW8_7.mp4	0.0	128.94426798820496	0.1758871078491211
5	11.016427040100098	response	0	2		3.0	2.5	/experiments/knapen_aot/videos/R_S_yt-9pUeQix6EW8_7.mp4	0.0	129.1110360622406	
5	11.025546073913574	movie	1		301.0	3.0	2.5	/experiments/knapen_aot/videos/R_S_yt-9pUeQix6EW8_7.mp4	0.0	129.12015509605408	2.5074920654296875
5	13.533038139343262	fix_post	2		12.0	3.0	2.5	/experiments/knapen_aot/videos/R_S_yt-9pUeQix6EW8_7.mp4	0.0	131.62764716148376	0.09998583793640137
6	13.633023977279663	fix_pre	0		22.0	4.0	2.5	/experiments/knapen_aot/videos/S_yt-6DJulOrg2-8_122.mp4	0.0	131.72763299942017	0.1842820644378662
6	13.80814814567566	response	0	2		4.0	2.5	/experiments/knapen_aot/videos/S_yt-6DJulOrg2-8_122.mp4	0.0	131.90275716781616	
6	13.81730604171753	movie	1		301.0	4.0	2.5	/experiments/knapen_aot/videos/S_yt-6DJulOrg2-8_122.mp4	0.0	131.91191506385803	2.507349967956543
6	16.324656009674072	fix_post	2		12.0	4.0	2.5	/experiments/knapen_aot/videos/S_yt-6DJulOrg2-8_122.mp4	0.0	134.41926503181458	0.10007810592651367
7	16.424734115600586	fix_pre	0		33.0	5.0	2.5	/experiments/knapen_aot/videos/S_pexels-roman-odintsov-8232443.mp4	0.0	134.5193431377411	0.2749488353729248
7	16.691486120224	response	0	2		5.0	2.5	/experiments/knapen_aot/videos/S_pexels-roman-odintsov-8232443.mp4	0.0	134.7860951423645	
7	16.69968295097351	movie	1		208.0	5.0	2.5	/experiments/knapen_aot/videos/S_pexels-roman-odintsov-8232443.mp4	0.0	134.794291973114	2.5083560943603516
7	19.208039045333862	fix_post	2		12.0	5.0	2.5	/experiments/knapen_aot/videos/S_pexels-roman-odintsov-8232443.mp4	0.0	137.30264806747437	0.0999910831451416
8	19.308030128479004	fix_pre	0		32.0	6.0	2.5	blank	1.0	137.4026391506195	0.26661086082458496
8	19.558879137039185	response	0	2		6.0	2.5	blank	1.0	137.6534881591797	
8	19.57464098930359	movie	1		301.0	6.0	2.5	blank	1.0	137.6692500114441	2.5083651542663574
8	22.083006143569946	fix_post	2		12.0	6.0	2.5	blank	1.0	140.17761516571045	0.10001683235168457
9	22.18302297592163	fix_pre	0		59.0	7.0	2.5	/experiments/knapen_aot/videos/R_S_yt-fk-z6WCvjjA_3.mp4	0.0	140.27763199806213	0.4916989803314209
9	22.666449069976807	response	0	2		7.0	2.5	/experiments/knapen_aot/videos/R_S_yt-fk-z6WCvjjA_3.mp4	0.0	140.7610580921173	
9	22.67472195625305	movie	1		301.0	7.0	2.5	/experiments/knapen_aot/videos/R_S_yt-fk-z6WCvjjA_3.mp4	0.0	140.76933097839355	2.5081961154937744
9	25.182918071746826	fix_post	2		12.0	7.0	2.5	/experiments/knapen_aot/videos/R_S_yt-fk-z6WCvjjA_3.mp4	0.0	143.27752709388733	0.0999910831451416
10	25.282909154891968	fix_pre	0		53.0	8.0	2.5	/experiments/knapen_aot/videos/R_S_wc-b4Oquu3WQPRz_45.mp4	0.0	143.37751817703247	0.44174981117248535
10	25.716486930847168	response	0	2		8.0	2.5	/experiments/knapen_aot/videos/R_S_wc-b4Oquu3WQPRz_45.mp4	0.0	143.81109595298767	
10	25.724658966064453	movie	1		167.0	8.0	2.5	/experiments/knapen_aot/videos/R_S_wc-b4Oquu3WQPRz_45.mp4	0.0	143.81926798820496	2.5082671642303467
10	28.2329261302948	fix_post	2		12.0	8.0	2.5	/experiments/knapen_aot/videos/R_S_wc-b4Oquu3WQPRz_45.mp4	0.0	146.3275351524353	0.10005593299865723
11	28.332982063293457	fix_pre	0		26.0	9.0	2.5	/experiments/knapen_aot/videos/R_S_pexels-koolshooters-7327401_1.mp4	0.0	146.42759108543396	0.2167050838470459
11	28.53390097618103	response	0	2		9.0	2.5	/experiments/knapen_aot/videos/R_S_pexels-koolshooters-7327401_1.mp4	0.0	146.62850999832153	
11	28.549687147140503	movie	1		164.0	9.0	2.5	/experiments/knapen_aot/videos/R_S_pexels-koolshooters-7327401_1.mp4	0.0	146.644296169281	2.508208990097046
11	31.05789613723755	fix_post	2		12.0	9.0	2.5	/experiments/knapen_aot/videos/R_S_pexels-koolshooters-7327401_1.mp4	0.0	149.15250515937805	0.1000528335571289
12	31.157948970794678	fix_pre	0		1.0	10.0	2.5	/experiments/knapen_aot/videos/R_S_ILSVRC2015_train_00689000.mp4	0.0	149.25255799293518	0.00824117660522461
12	31.159770965576172	response	0	2		10.0	2.5	/experiments/knapen_aot/videos/R_S_ILSVRC2015_train_00689000.mp4	0.0	149.25437998771667	
12	31.166190147399902	movie	1		301.0	10.0	2.5	/experiments/knapen_aot/videos/R_S_ILSVRC2015_train_00689000.mp4	0.0	149.2607991695404	2.508490800857544
12	33.674680948257446	fix_post	2		12.0	10.0	2.5	/experiments/knapen_aot/videos/R_S_ILSVRC2015_train_00689000.mp4	0.0	151.76928997039795	0.09993600845336914
13	33.774616956710815	fix_pre	0		37.0	11.0	2.5	/experiments/knapen_aot/videos/R_S_pexels-cottonbro-6789228.mp4	0.0	151.86922597885132	0.30825114250183105
13	34.074777126312256	response	0	2		11.0	2.5	/experiments/knapen_aot/videos/R_S_pexels-cottonbro-6789228.mp4	0.0	152.16938614845276	
13	34.08286809921265	movie	1		207.0	11.0	2.5	/experiments/knapen_aot/videos/R_S_pexels-cottonbro-6789228.mp4	0.0	152.17747712135315	2.5083749294281006
13	36.59124302864075	fix_post	2		12.0	11.0	2.5	/experiments/knapen_aot/videos/R_S_pexels-cottonbro-6789228.mp4	0.0	154.68585205078125	0.10002708435058594
14	36.69127011299133	fix_pre	0		44.0	12.0	2.5	/experiments/knapen_aot/videos/S_yt-xvIZtEVkebk_462.mp4	0.0	154.78587913513184	0.3666508197784424
14	37.04969000816345	response	0	2		12.0	2.5	/experiments/knapen_aot/videos/S_yt-xvIZtEVkebk_462.mp4	0.0	155.14429903030396	
14	37.057920932769775	movie	1		301.0	12.0	2.5	/experiments/knapen_aot/videos/S_yt-xvIZtEVkebk_462.mp4	0.0	155.15252995491028	2.5083301067352295
14	39.566251039505005	fix_post	2		12.0	12.0	2.5	/experiments/knapen_aot/videos/S_yt-xvIZtEVkebk_462.mp4	0.0	157.6608600616455	0.09998393058776855
15	39.66623497009277	fix_pre	0		25.0	13.0	2.5	/experiments/knapen_aot/videos/S_ILSVRC2015_train_00515001.mp4	0.0	157.76084399223328	0.20827102661132812
15	39.86634302139282	response	0	2		13.0	2.5	/experiments/knapen_aot/videos/S_ILSVRC2015_train_00515001.mp4	0.0	157.96095204353333	
15	39.8745059967041	movie	1		301.0	13.0	2.5	/experiments/knapen_aot/videos/S_ILSVRC2015_train_00515001.mp4	0.0	157.9691150188446	2.508331060409546
15	42.38283705711365	fix_post	2		12.0	13.0	2.5	/experiments/knapen_aot/videos/S_ILSVRC2015_train_00515001.mp4	0.0	160.47744607925415	0.10037708282470703
16	42.483214139938354	fix_pre	0		233.0	14.0	2.5	blank	1.0	160.57782316207886	1.9412930011749268
16	44.41629910469055	response	0	2		14.0	2.5	blank	1.0	162.51090812683105	
16	44.42450714111328	movie	1		301.0	14.0	2.5	blank	1.0	162.51911616325378	2.508382797241211
16	46.93288993835449	fix_post	2		12.0	14.0	2.5	blank	1.0	165.027498960495	0.10000109672546387
17	47.032891035079956	fix_pre	0		55.0	15.0	2.5	/experiments/knapen_aot/videos/R_S_yt--DXkjCUzThU_413.mp4	0.0	165.12750005722046	0.45825791358947754
17	47.48291897773743	response	0	2		15.0	2.5	/experiments/knapen_aot/videos/R_S_yt--DXkjCUzThU_413.mp4	0.0	165.57752799987793	
17	47.491148948669434	movie	1		301.0	15.0	2.5	/experiments/knapen_aot/videos/R_S_yt--DXkjCUzThU_413.mp4	0.0	165.58575797080994	2.5083811283111572
17	49.99953007698059	fix_post	2		12.0	15.0	2.5	/experiments/knapen_aot/videos/R_S_yt--DXkjCUzThU_413.mp4	0.0	168.0941390991211	0.10001802444458008
18	50.09954810142517	fix_pre	0		194.0	16.0	2.5	/experiments/knapen_aot/videos/S_yt-z16pdVTZK1o_3.mp4	0.0	168.19415712356567	1.6166119575500488
18	51.700364112854004	response	0	2		16.0	2.5	/experiments/knapen_aot/videos/S_yt-z16pdVTZK1o_3.mp4	0.0	169.7949731349945	
18	51.71616005897522	movie	1		301.0	16.0	2.5	/experiments/knapen_aot/videos/S_yt-z16pdVTZK1o_3.mp4	0.0	169.81076908111572	2.508384943008423
18	54.22454500198364	fix_post	2		12.0	16.0	2.5	/experiments/knapen_aot/videos/S_yt-z16pdVTZK1o_3.mp4	0.0	172.31915402412415	0.09993314743041992
19	54.32447814941406	fix_pre	0		59.0	17.0	2.5	/experiments/knapen_aot/videos/S_yt-zlbtESb7Fcw_28.mp4	0.0	172.41908717155457	0.4924459457397461
19	54.8080370426178	response	0	2		17.0	2.5	/experiments/knapen_aot/videos/S_yt-zlbtESb7Fcw_28.mp4	0.0	172.9026460647583	
19	54.81692409515381	movie	1		301.0	17.0	2.5	/experiments/knapen_aot/videos/S_yt-zlbtESb7Fcw_28.mp4	0.0	172.9115331172943	2.507582902908325
19	57.324506998062134	fix_post	2		12.0	17.0	2.5	/experiments/knapen_aot/videos/S_yt-zlbtESb7Fcw_28.mp4	0.0	175.41911602020264	0.10000801086425781
20	57.42451500892639	fix_pre	0		37.0	18.0	2.5	/experiments/knapen_aot/videos/S_yt-uY5xsUKn8zU_17.mp4	0.0	175.5191240310669	0.3089570999145508
20	57.72464108467102	response	0	2		18.0	2.5	/experiments/knapen_aot/videos/S_yt-uY5xsUKn8zU_17.mp4	0.0	175.81925010681152	
20	57.73347210884094	movie	1		301.0	18.0	2.5	/experiments/knapen_aot/videos/S_yt-uY5xsUKn8zU_17.mp4	0.0	175.82808113098145	2.507690906524658
20	60.2411630153656	fix_post	2		12.0	18.0	2.5	/experiments/knapen_aot/videos/S_yt-uY5xsUKn8zU_17.mp4	0.0	178.3357720375061	0.10023808479309082
21	60.34140110015869	fix_pre	0		37.0	19.0	2.5	/experiments/knapen_aot/videos/R_S_yt-6xXEMHBQ08A_28.mp4	0.0	178.4360101222992	0.3087880611419678
21	60.64126515388489	response	0	2		19.0	2.5	/experiments/knapen_aot/videos/R_S_yt-6xXEMHBQ08A_28.mp4	0.0	178.7358741760254	
21	60.65018916130066	movie	1		301.0	19.0	2.5	/experiments/knapen_aot/videos/R_S_yt-6xXEMHBQ08A_28.mp4	0.0	178.74479818344116	2.5078158378601074
21	63.15800499916077	fix_post	2		12.0	19.0	2.5	/experiments/knapen_aot/videos/R_S_yt-6xXEMHBQ08A_28.mp4	0.0	181.25261402130127	0.09992194175720215
22	63.25792694091797	fix_pre	0		235.0	20.0	2.5	blank	1.0	181.35253596305847	1.9582021236419678
22	65.20785903930664	response	0	2		20.0	2.5	blank	1.0	183.30246806144714	
22	65.21612906455994	movie	1		301.0	20.0	2.5	blank	1.0	183.31073808670044	2.5083420276641846
22	67.22451615333557	response	1	2		20.0	2.5	blank	1.0	185.31912517547607	
22	67.72447109222412	fix_post	2		12.0	20.0	2.5	blank	1.0	185.81908011436462	0.09998202323913574
23	67.82445311546326	fix_pre	0		33.0	21.0	2.5	/experiments/knapen_aot/videos/R_S_comp_LW_L001_C006_PSNK_DENOISE_v02_SDR_PS_FINAL_20180709_SDR_2K_AVC.mp4	0.0	185.91906213760376	0.27495384216308594
23	68.09125304222107	response	0	2		21.0	2.5	/experiments/knapen_aot/videos/R_S_comp_LW_L001_C006_PSNK_DENOISE_v02_SDR_PS_FINAL_20180709_SDR_2K_AVC.mp4	0.0	186.18586206436157	
23	68.09940695762634	movie	1		172.0	21.0	2.5	/experiments/knapen_aot/videos/R_S_comp_LW_L001_C006_PSNK_DENOISE_v02_SDR_PS_FINAL_20180709_SDR_2K_AVC.mp4	0.0	186.19401597976685	2.5084850788116455
23	70.60789203643799	fix_post	2		12.0	21.0	2.5	/experiments/knapen_aot/videos/R_S_comp_LW_L001_C006_PSNK_DENOISE_v02_SDR_PS_FINAL_20180709_SDR_2K_AVC.mp4	0.0	188.7025010585785	0.1000969409942627
24	70.70798897743225	fix_pre	0		72.0	22.0	2.5	/experiments/knapen_aot/videos/S_ILSVRC2015_train_00708000.mp4	0.0	188.80259799957275	0.5997581481933594
24	71.29953813552856	response	0	2		22.0	2.5	/experiments/knapen_aot/videos/S_ILSVRC2015_train_00708000.mp4	0.0	189.39414715766907	
24	71.30774712562561	movie	1		301.0	22.0	2.5	/experiments/knapen_aot/videos/S_ILSVRC2015_train_00708000.mp4	0.0	189.4023561477661	2.508380889892578
24	73.81612801551819	fix_post	2		12.0	22.0	2.5	/experiments/knapen_aot/videos/S_ILSVRC2015_train_00708000.mp4	0.0	191.9107370376587	0.1000211238861084
25	73.9161491394043	fix_pre	0		52.0	23.0	2.5	/experiments/knapen_aot/videos/S_yt-y3tyx6cZjmA_412.mp4	0.0	192.0107581615448	0.4332737922668457
25	74.34123110771179	response	0	2		23.0	2.5	/experiments/knapen_aot/videos/S_yt-y3tyx6cZjmA_412.mp4	0.0	192.4358401298523	
25	74.34942293167114	movie	1		301.0	23.0	2.5	/experiments/knapen_aot/videos/S_yt-y3tyx6cZjmA_412.mp4	0.0	192.44403195381165	2.5084750652313232
25	76.85789799690247	fix_post	2		12.0	23.0	2.5	/experiments/knapen_aot/videos/S_yt-y3tyx6cZjmA_412.mp4	0.0	194.95250701904297	0.09986305236816406
26	76.95776104927063	fix_pre	0		47.0	24.0	2.5	/experiments/knapen_aot/videos/R_S_WO9z7lBUvOs_151.mp4	0.0	195.05237007141113	0.3916139602661133
26	77.34113907814026	response	0	2		24.0	2.5	/experiments/knapen_aot/videos/R_S_WO9z7lBUvOs_151.mp4	0.0	195.43574810028076	
26	77.34937500953674	movie	1		301.0	24.0	2.5	/experiments/knapen_aot/videos/R_S_WO9z7lBUvOs_151.mp4	0.0	195.44398403167725	2.508453130722046
26	79.85782814025879	fix_post	2		12.0	24.0	2.5	/experiments/knapen_aot/videos/R_S_WO9z7lBUvOs_151.mp4	0.0	197.9524371623993	0.09991288185119629
27	79.95774102210999	fix_pre	0		1.0	25.0	2.5	/experiments/knapen_aot/videos/S_yt-PreGL81PEP4_61.mp4	0.0	198.0523500442505	0.008347034454345703
27	79.95965695381165	response	0	2		25.0	2.5	/experiments/knapen_aot/videos/S_yt-PreGL81PEP4_61.mp4	0.0	198.05426597595215	
27	79.96608805656433	movie	1		301.0	25.0	2.5	/experiments/knapen_aot/videos/S_yt-PreGL81PEP4_61.mp4	0.0	198.06069707870483	2.5083179473876953
27	82.47440600395203	fix_post	2		12.0	25.0	2.5	/experiments/knapen_aot/videos/S_yt-PreGL81PEP4_61.mp4	0.0	200.56901502609253	0.10020709037780762
28	82.57461309432983	fix_pre	0		238.0	26.0	2.5	/experiments/knapen_aot/videos/S_yt-44ip3uFe4YM_30.mp4	0.0	200.66922211647034	1.9831738471984863
28	84.54952716827393	response	0	2		26.0	2.5	/experiments/knapen_aot/videos/S_yt-44ip3uFe4YM_30.mp4	0.0	202.64413619041443	
28	84.55778694152832	movie	1		301.0	26.0	2.5	/experiments/knapen_aot/videos/S_yt-44ip3uFe4YM_30.mp4	0.0	202.65239596366882	2.5082831382751465
28	87.06607007980347	fix_post	2		12.0	26.0	2.5	/experiments/knapen_aot/videos/S_yt-44ip3uFe4YM_30.mp4	0.0	205.16067910194397	0.09993886947631836
29	87.16600894927979	fix_pre	0		25.0	27.0	2.5	blank	1.0	205.2606179714203	0.2084200382232666
29	87.3660991191864	response	0	2		27.0	2.5	blank	1.0	205.4607081413269	
29	87.37442898750305	movie	1		301.0	27.0	2.5	blank	1.0	205.46903800964355	2.5084171295166016
29	89.88284611701965	fix_post	2		12.0	27.0	2.5	blank	1.0	207.97745513916016	0.09980487823486328
30	89.98265099525452	fix_pre	0		63.0	28.0	2.5	/experiments/knapen_aot/videos/S_comp_A103_C002_0205DG_v12_SDR_FINAL_20180706_SDR_2K_AVC.mp4	0.0	208.07726001739502	0.5250000953674316
30	90.49951410293579	response	0	2		28.0	2.5	/experiments/knapen_aot/videos/S_comp_A103_C002_0205DG_v12_SDR_FINAL_20180706_SDR_2K_AVC.mp4	0.0	208.5941231250763	
30	90.50765109062195	movie	1		163.0	28.0	2.5	/experiments/knapen_aot/videos/S_comp_A103_C002_0205DG_v12_SDR_FINAL_20180706_SDR_2K_AVC.mp4	0.0	208.60226011276245	2.5083038806915283
30	92.54119515419006	response	1	2		28.0	2.5	/experiments/knapen_aot/videos/S_comp_A103_C002_0205DG_v12_SDR_FINAL_20180706_SDR_2K_AVC.mp4	0.0	210.63580417633057	
30	93.01595497131348	fix_post	2		12.0	28.0	2.5	/experiments/knapen_aot/videos/S_comp_A103_C002_0205DG_v12_SDR_FINAL_20180706_SDR_2K_AVC.mp4	0.0	211.11056399345398	0.1000831127166748
31	93.11603808403015	fix_pre	0		51.0	29.0	2.5	/experiments/knapen_aot/videos/R_S_flickr-slruok-8006772217_6.mp4	0.0	211.21064710617065	0.4249608516693115
31	93.53278708457947	response	0	2		29.0	2.5	/experiments/knapen_aot/videos/R_S_flickr-slruok-8006772217_6.mp4	0.0	211.62739610671997	
31	93.54099893569946	movie	1		301.0	29.0	2.5	/experiments/knapen_aot/videos/R_S_flickr-slruok-8006772217_6.mp4	0.0	211.63560795783997	2.5085411071777344
31	96.0495400428772	fix_post	2		12.0	29.0	2.5	/experiments/knapen_aot/videos/R_S_flickr-slruok-8006772217_6.mp4	0.0	214.1441490650177	0.0997309684753418
32	96.14927101135254	fix_pre	0		26.0	30.0	2.5	/experiments/knapen_aot/videos/R_S_yt-jQrMcUCmAaM_44.mp4	0.0	214.24388003349304	0.21668195724487305
32	96.35783195495605	response	0	2		30.0	2.5	/experiments/knapen_aot/videos/R_S_yt-jQrMcUCmAaM_44.mp4	0.0	214.45244097709656	
32	96.36595296859741	movie	1		301.0	30.0	2.5	/experiments/knapen_aot/videos/R_S_yt-jQrMcUCmAaM_44.mp4	0.0	214.46056199073792	2.5083141326904297
32	98.87426710128784	fix_post	2		12.0	30.0	2.5	/experiments/knapen_aot/videos/R_S_yt-jQrMcUCmAaM_44.mp4	0.0	216.96887612342834	0.10009288787841797
33	98.97435998916626	fix_pre	0		25.0	31.0	2.5	/experiments/knapen_aot/videos/R_S_ILSVRC2015_train_00682000.mp4	0.0	217.06896901130676	0.20832395553588867
33	99.17444610595703	response	0	2		31.0	2.5	/experiments/knapen_aot/videos/R_S_ILSVRC2015_train_00682000.mp4	0.0	217.26905512809753	
33	99.18268394470215	movie	1		301.0	31.0	2.5	/experiments/knapen_aot/videos/R_S_ILSVRC2015_train_00682000.mp4	0.0	217.27729296684265	2.508453130722046
33	101.09441709518433	response	1	2		31.0	2.5	/experiments/knapen_aot/videos/R_S_ILSVRC2015_train_00682000.mp4	0.0	219.18902611732483	
33	101.6911370754242	fix_post	2		12.0	31.0	2.5	/experiments/knapen_aot/videos/R_S_ILSVRC2015_train_00682000.mp4	0.0	219.7857460975647	0.09982991218566895
33	101.77440810203552	response	2	2		31.0	2.5	/experiments/knapen_aot/videos/R_S_ILSVRC2015_train_00682000.mp4	0.0	219.86901712417603	
34	101.79096698760986	fix_pre	0		171.0	32.0	2.5	/experiments/knapen_aot/videos/S_yt-fLNDhX22diw_98.mp4	0.0	219.88557600975037	1.4249870777130127
34	103.20774698257446	response	0	2		32.0	2.5	/experiments/knapen_aot/videos/S_yt-fLNDhX22diw_98.mp4	0.0	221.30235600471497	
34	103.21595406532288	movie	1		301.0	32.0	2.5	/experiments/knapen_aot/videos/S_yt-fLNDhX22diw_98.mp4	0.0	221.31056308746338	2.5084118843078613
34	105.72436594963074	fix_post	2		12.0	32.0	2.5	/experiments/knapen_aot/videos/S_yt-fLNDhX22diw_98.mp4	0.0	223.81897497177124	0.09995698928833008
35	105.82432293891907	fix_pre	0		31.0	33.0	2.5	blank	1.0	223.91893196105957	0.2582550048828125
35	106.07430815696716	response	0	2		33.0	2.5	blank	1.0	224.16891717910767	
35	106.08257794380188	movie	1		301.0	33.0	2.5	blank	1.0	224.17718696594238	2.5084621906280518
35	108.59104013442993	fix_post	2		12.0	33.0	2.5	blank	1.0	226.68564915657043	0.09992289543151855
36	108.69096302986145	fix_pre	0		26.0	34.0	2.5	/experiments/knapen_aot/videos/R_S_yt-fymgyhmYnMI_76.mp4	0.0	226.78557205200195	0.2166440486907959
36	108.89941215515137	response	0	2		34.0	2.5	/experiments/knapen_aot/videos/R_S_yt-fymgyhmYnMI_76.mp4	0.0	226.99402117729187	
36	108.90760707855225	movie	1		301.0	34.0	2.5	/experiments/knapen_aot/videos/R_S_yt-fymgyhmYnMI_76.mp4	0.0	227.00221610069275	2.508357048034668
36	110.19142508506775	response	1	2		34.0	2.5	/experiments/knapen_aot/videos/R_S_yt-fymgyhmYnMI_76.mp4	0.0	228.28603410720825	
36	111.41596412658691	fix_post	2		12.0	34.0	2.5	/experiments/knapen_aot/videos/R_S_yt-fymgyhmYnMI_76.mp4	0.0	229.51057314872742	0.09990787506103516
37	111.51587200164795	fix_pre	0		31.0	35.0	2.5	/experiments/knapen_aot/videos/R_S_bing-www_nytimes_com_video_dining_1247468118505_grilled-chicken-breasts-with-herb-butter_html_132.mp4	0.0	229.61048102378845	0.25870203971862793
37	111.76604199409485	response	0	2		35.0	2.5	/experiments/knapen_aot/videos/R_S_bing-www_nytimes_com_video_dining_1247468118505_grilled-chicken-breasts-with-herb-butter_html_132.mp4	0.0	229.86065101623535	
37	111.77457404136658	movie	1		167.0	35.0	2.5	/experiments/knapen_aot/videos/R_S_bing-www_nytimes_com_video_dining_1247468118505_grilled-chicken-breasts-with-herb-butter_html_132.mp4	0.0	229.86918306350708	2.5081980228424072
37	114.28277206420898	fix_post	2		12.0	35.0	2.5	/experiments/knapen_aot/videos/R_S_bing-www_nytimes_com_video_dining_1247468118505_grilled-chicken-breasts-with-herb-butter_html_132.mp4	0.0	232.3773810863495	0.09981894493103027
38	114.38259100914001	fix_pre	0		25.0	36.0	2.5	/experiments/knapen_aot/videos/R_S_ILSVRC2015_train_00768000.mp4	0.0	232.47720003128052	0.20841407775878906
38	114.58266401290894	response	0	2		36.0	2.5	/experiments/knapen_aot/videos/R_S_ILSVRC2015_train_00768000.mp4	0.0	232.67727303504944	
38	114.5910050868988	movie	1		301.0	36.0	2.5	/experiments/knapen_aot/videos/R_S_ILSVRC2015_train_00768000.mp4	0.0	232.6856141090393	2.5082590579986572
38	117.09926414489746	fix_post	2		12.0	36.0	2.5	/experiments/knapen_aot/videos/R_S_ILSVRC2015_train_00768000.mp4	0.0	235.19387316703796	0.10001897811889648
39	117.19928312301636	fix_pre	0		35.0	37.0	2.5	/experiments/knapen_aot/videos/S_pexels-ron-lach-8071987.mp4	0.0	235.29389214515686	0.29162096977233887
39	117.48268508911133	response	0	2		37.0	2.5	/experiments/knapen_aot/videos/S_pexels-ron-lach-8071987.mp4	0.0	235.57729411125183	
39	117.4909040927887	movie	1		191.0	37.0	2.5	/experiments/knapen_aot/videos/S_pexels-ron-lach-8071987.mp4	0.0	235.5855131149292	2.508344888687134
39	119.99924898147583	fix_post	2		12.0	37.0	2.5	/experiments/knapen_aot/videos/S_pexels-ron-lach-8071987.mp4	0.0	238.09385800361633	0.10000300407409668
40	120.09925198554993	fix_pre	0		10.0	38.0	2.5	/experiments/knapen_aot/videos/R_S_yt-z16pdVTZK1o_3.mp4	0.0	238.19386100769043	0.08330607414245605
40	120.17428016662598	response	0	2		38.0	2.5	/experiments/knapen_aot/videos/R_S_yt-z16pdVTZK1o_3.mp4	0.0	238.26888918876648	
40	120.18255805969238	movie	1		301.0	38.0	2.5	/experiments/knapen_aot/videos/R_S_yt-z16pdVTZK1o_3.mp4	0.0	238.27716708183289	2.5084030628204346
40	122.49931502342224	response	1	2		38.0	2.5	/experiments/knapen_aot/videos/R_S_yt-z16pdVTZK1o_3.mp4	0.0	240.59392404556274	
40	122.69096112251282	fix_post	2		12.0	38.0	2.5	/experiments/knapen_aot/videos/R_S_yt-z16pdVTZK1o_3.mp4	0.0	240.78557014465332	0.09996795654296875
41	122.79092907905579	fix_pre	0		215.0	39.0	2.5	/experiments/knapen_aot/videos/S_TYs22gin-EU_57.mp4	0.0	240.8855381011963	1.7917850017547607
41	124.57432007789612	response	0	2		39.0	2.5	/experiments/knapen_aot/videos/S_TYs22gin-EU_57.mp4	0.0	242.66892910003662	
41	124.58271408081055	movie	1		301.0	39.0	2.5	/experiments/knapen_aot/videos/S_TYs22gin-EU_57.mp4	0.0	242.67732310295105	2.508172035217285
41	127.09088611602783	fix_post	2		12.0	39.0	2.5	/experiments/knapen_aot/videos/S_TYs22gin-EU_57.mp4	0.0	245.18549513816833	0.09993982315063477
42	127.19082593917847	fix_pre	0		208.0	40.0	2.5	blank	1.0	245.28543496131897	1.7333920001983643
42	128.91598296165466	response	0	2		40.0	2.5	blank	1.0	247.01059198379517	
42	128.92421793937683	movie	1		301.0	40.0	2.5	blank	1.0	247.01882696151733	2.508336067199707
42	131.43255400657654	fix_post	2		12.0	40.0	2.5	blank	1.0	249.52716302871704	0.100006103515625
43	131.53256011009216	fix_pre	0		74.0	41.0	2.5	/experiments/knapen_aot/videos/S_yt-fGN7sGPy8BA_13.mp4	0.0	249.62716913223267	0.6168839931488037
43	132.14108109474182	response	0	2		41.0	2.5	/experiments/knapen_aot/videos/S_yt-fGN7sGPy8BA_13.mp4	0.0	250.23569011688232	
43	132.14944410324097	movie	1		301.0	41.0	2.5	/experiments/knapen_aot/videos/S_yt-fGN7sGPy8BA_13.mp4	0.0	250.24405312538147	2.508080005645752
43	134.65752410888672	fix_post	2		12.0	41.0	2.5	/experiments/knapen_aot/videos/S_yt-fGN7sGPy8BA_13.mp4	0.0	252.75213313102722	0.1000368595123291
44	134.75756096839905	fix_pre	0		41.0	42.0	2.5	/experiments/knapen_aot/videos/R_S_yt-V_2XgfjJfeQ_67.mp4	0.0	252.85216999053955	0.34161806106567383
44	135.09087705612183	response	0	2		42.0	2.5	/experiments/knapen_aot/videos/R_S_yt-V_2XgfjJfeQ_67.mp4	0.0	253.18548607826233	
44	135.09917902946472	movie	1		301.0	42.0	2.5	/experiments/knapen_aot/videos/R_S_yt-V_2XgfjJfeQ_67.mp4	0.0	253.19378805160522	2.508538007736206
44	137.60771703720093	fix_post	2		12.0	42.0	2.5	/experiments/knapen_aot/videos/R_S_yt-V_2XgfjJfeQ_67.mp4	0.0	255.70232605934143	0.0997629165649414
45	137.70747995376587	fix_pre	0		65.0	43.0	2.5	/experiments/knapen_aot/videos/S_yt-3TF_RGo9cLs_541.mp4	0.0	255.80208897590637	0.5416700839996338
45	138.24089813232422	response	0	2		43.0	2.5	/experiments/knapen_aot/videos/S_yt-3TF_RGo9cLs_541.mp4	0.0	256.3355071544647	
45	138.2491500377655	movie	1		301.0	43.0	2.5	/experiments/knapen_aot/videos/S_yt-3TF_RGo9cLs_541.mp4	0.0	256.343759059906	2.5084190368652344
45	140.75756907463074	fix_post	2		12.0	43.0	2.5	/experiments/knapen_aot/videos/S_yt-3TF_RGo9cLs_541.mp4	0.0	258.85217809677124	0.10023999214172363
46	140.85780906677246	fix_pre	0		7.0	44.0	2.5	/experiments/knapen_aot/videos/R_S_yt-UojTppgtyCE_121.mp4	0.0	258.95241808891296	0.057990074157714844
46	140.9076521396637	response	0	2		44.0	2.5	/experiments/knapen_aot/videos/R_S_yt-UojTppgtyCE_121.mp4	0.0	259.0022611618042	
46	140.91579914093018	movie	1		301.0	44.0	2.5	/experiments/knapen_aot/videos/R_S_yt-UojTppgtyCE_121.mp4	0.0	259.0104081630707	2.5083370208740234
46	143.4241361618042	fix_post	2		12.0	44.0	2.5	/experiments/knapen_aot/videos/R_S_yt-UojTppgtyCE_121.mp4	0.0	261.5187451839447	0.10034394264221191
47	143.5244801044464	fix_pre	0		36.0	45.0	2.5	/experiments/knapen_aot/videos/S_yt-w_e3sxIzepA_115.mp4	0.0	261.6190891265869	0.29970788955688477
47	143.81600213050842	response	0	2		45.0	2.5	/experiments/knapen_aot/videos/S_yt-w_e3sxIzepA_115.mp4	0.0	261.9106111526489	
47	143.8241879940033	movie	1		301.0	45.0	2.5	/experiments/knapen_aot/videos/S_yt-w_e3sxIzepA_115.mp4	0.0	261.9187970161438	2.5083329677581787
47	146.33252096176147	fix_post	2		12.0	45.0	2.5	/experiments/knapen_aot/videos/S_yt-w_e3sxIzepA_115.mp4	0.0	264.427129983902	0.10004806518554688
48	146.43256902694702	fix_pre	0		30.0	46.0	2.5	/experiments/knapen_aot/videos/R_S_ILSVRC2015_train_00485001.mp4	0.0	264.5271780490875	0.24991798400878906
48	146.66673111915588	response	0	2		46.0	2.5	/experiments/knapen_aot/videos/R_S_ILSVRC2015_train_00485001.mp4	0.0	264.7613401412964	
48	146.6824870109558	movie	1		301.0	46.0	2.5	/experiments/knapen_aot/videos/R_S_ILSVRC2015_train_00485001.mp4	0.0	264.7770960330963	2.508683919906616
48	149.19117093086243	fix_post	2		12.0	46.0	2.5	/experiments/knapen_aot/videos/R_S_ILSVRC2015_train_00485001.mp4	0.0	267.28577995300293	0.09966206550598145
49	149.2908329963684	fix_pre	0		14.0	47.0	2.5	/experiments/knapen_aot/videos/S_yt-UBqUhu-GEVg_6.mp4	0.0	267.3854420185089	0.11672210693359375
49	149.39924097061157	response	0	2		47.0	2.5	/experiments/knapen_aot/videos/S_yt-UBqUhu-GEVg_6.mp4	0.0	267.4938499927521	
49	149.407555103302	movie	1		301.0	47.0	2.5	/experiments/knapen_aot/videos/S_yt-UBqUhu-GEVg_6.mp4	0.0	267.5021641254425	2.5082879066467285
49	151.91584300994873	fix_post	2		12.0	47.0	2.5	/experiments/knapen_aot/videos/S_yt-UBqUhu-GEVg_6.mp4	0.0	270.01045203208923	0.09995007514953613
50	152.01579308509827	fix_pre	0		468.0	48.0	2.5	/experiments/knapen_aot/videos/S_yt-4NjyKFnwHBo_13.mp4	0.0	270.11040210723877	3.899946928024292
50	155.90746808052063	response	0	2		48.0	2.5	/experiments/knapen_aot/videos/S_yt-4NjyKFnwHBo_13.mp4	0.0	274.00207710266113	
50	155.91574001312256	movie	1		301.0	48.0	2.5	/experiments/knapen_aot/videos/S_yt-4NjyKFnwHBo_13.mp4	0.0	274.01034903526306	2.5083999633789062
50	158.42413997650146	fix_post	2		12.0	48.0	2.5	/experiments/knapen_aot/videos/S_yt-4NjyKFnwHBo_13.mp4	0.0	276.51874899864197	0.10015511512756348
51	158.52429509162903	fix_pre	0		46.0	49.0	2.5	blank	1.0	276.61890411376953	0.38302087783813477
51	158.89922714233398	response	0	2		49.0	2.5	blank	1.0	276.9938361644745	
51	158.90731596946716	movie	1		301.0	49.0	2.5	blank	1.0	277.00192499160767	2.5083420276641846
51	160.93249607086182	response	1	2		49.0	2.5	blank	1.0	279.0271050930023	
51	161.41565799713135	fix_post	2		12.0	49.0	2.5	blank	1.0	279.51026701927185	0.10010099411010742
52	161.51575899124146	fix_pre	0		142.0	50.0	2.5	/experiments/knapen_aot/videos/R_S_yt-BlWfK4MkjWA_469.mp4	0.0	279.61036801338196	1.1832151412963867
52	162.68330097198486	response	0	2		50.0	2.5	/experiments/knapen_aot/videos/R_S_yt-BlWfK4MkjWA_469.mp4	0.0	280.77790999412537	
52	162.69897413253784	movie	1		301.0	50.0	2.5	/experiments/knapen_aot/videos/R_S_yt-BlWfK4MkjWA_469.mp4	0.0	280.79358315467834	2.508443832397461
52	164.0938379764557	response	1	2		50.0	2.5	/experiments/knapen_aot/videos/R_S_yt-BlWfK4MkjWA_469.mp4	0.0	282.1884469985962	
52	165.2074179649353	fix_post	2		12.0	50.0	2.5	/experiments/knapen_aot/videos/R_S_yt-BlWfK4MkjWA_469.mp4	0.0	283.3020269870758	0.09998798370361328
53	165.30740594863892	fix_pre	0		46.0	51.0	2.5	/experiments/knapen_aot/videos/R_S_-IkGMlLHrOI_108.mp4	0.0	283.4020149707794	0.38348817825317383
53	165.68247413635254	response	0	2		51.0	2.5	/experiments/knapen_aot/videos/R_S_-IkGMlLHrOI_108.mp4	0.0	283.77708315849304	
53	165.6908941268921	movie	1		301.0	51.0	2.5	/experiments/knapen_aot/videos/R_S_-IkGMlLHrOI_108.mp4	0.0	283.7855031490326	2.5081679821014404
53	168.19906210899353	fix_post	2		12.0	51.0	2.5	/experiments/knapen_aot/videos/R_S_-IkGMlLHrOI_108.mp4	0.0	286.29367113113403	0.10000991821289062
54	168.29907202720642	fix_pre	0		178.0	52.0	2.5	/experiments/knapen_aot/videos/S_yt-deiWoIfK6vg_44.mp4	0.0	286.3936810493469	1.4833080768585205
54	169.77421808242798	response	0	2		52.0	2.5	/experiments/knapen_aot/videos/S_yt-deiWoIfK6vg_44.mp4	0.0	287.8688271045685	
54	169.78238010406494	movie	1		301.0	52.0	2.5	/experiments/knapen_aot/videos/S_yt-deiWoIfK6vg_44.mp4	0.0	287.87698912620544	2.5085790157318115
54	172.29095911979675	fix_post	2		12.0	52.0	2.5	/experiments/knapen_aot/videos/S_yt-deiWoIfK6vg_44.mp4	0.0	290.38556814193726	0.09981393814086914
55	172.39077305793762	fix_pre	0		39.0	53.0	2.5	/experiments/knapen_aot/videos/S_yt-Ojy5TMPX8_Q_165.mp4	0.0	290.4853820800781	0.32494688034057617
55	172.7075560092926	response	0	2		53.0	2.5	/experiments/knapen_aot/videos/S_yt-Ojy5TMPX8_Q_165.mp4	0.0	290.8021650314331	
55	172.7157199382782	movie	1		301.0	53.0	2.5	/experiments/knapen_aot/videos/S_yt-Ojy5TMPX8_Q_165.mp4	0.0	290.8103289604187	2.508362054824829
55	175.22408199310303	fix_post	2		12.0	53.0	2.5	/experiments/knapen_aot/videos/S_yt-Ojy5TMPX8_Q_165.mp4	0.0	293.31869101524353	0.09999799728393555
56	175.32407999038696	fix_pre	0		71.0	54.0	2.5	/experiments/knapen_aot/videos/S_yt-fLNDhX22diw_98.mp4	0.0	293.41868901252747	0.5916321277618408
56	175.90753602981567	response	0	2		54.0	2.5	/experiments/knapen_aot/videos/S_yt-fLNDhX22diw_98.mp4	0.0	294.0021450519562	
56	175.9157121181488	movie	1		301.0	54.0	2.5	/experiments/knapen_aot/videos/S_yt-fLNDhX22diw_98.mp4	0.0	294.0103211402893	2.508349895477295
56	178.4240620136261	fix_post	2		12.0	54.0	2.5	/experiments/knapen_aot/videos/S_yt-fLNDhX22diw_98.mp4	0.0	296.5186710357666	0.10013914108276367
57	178.52420115470886	fix_pre	0		75.0	55.0	2.5	blank	1.0	296.61881017684937	0.624971866607666
57	179.14088416099548	response	0	2		55.0	2.5	blank	1.0	297.235493183136	
57	179.14917302131653	movie	1		301.0	55.0	2.5	blank	1.0	297.24378204345703	2.5083889961242676
57	181.6575620174408	fix_post	2		12.0	55.0	2.5	blank	1.0	299.7521710395813	0.10002493858337402
58	181.75758695602417	fix_pre	0		60.0	56.0	2.5	/experiments/knapen_aot/videos/S_yt-GBt59U0KUR0_6.mp4	0.0	299.8521959781647	0.49979400634765625
58	182.24915194511414	response	0	2		56.0	2.5	/experiments/knapen_aot/videos/S_yt-GBt59U0KUR0_6.mp4	0.0	300.34376096725464	
58	182.25738096237183	movie	1		301.0	56.0	2.5	/experiments/knapen_aot/videos/S_yt-GBt59U0KUR0_6.mp4	0.0	300.35198998451233	2.5083491802215576
58	184.76573014259338	fix_post	2		12.0	56.0	2.5	/experiments/knapen_aot/videos/S_yt-GBt59U0KUR0_6.mp4	0.0	302.8603391647339	0.09993481636047363
59	184.86566495895386	fix_pre	0		99.0	57.0	2.5	/experiments/knapen_aot/videos/S_video_inspire_uk_edinburgh_arthursseat_010.1080-h264.mp4	0.0	302.96027398109436	0.8249561786651611
59	185.6824860572815	response	0	2		57.0	2.5	/experiments/knapen_aot/videos/S_video_inspire_uk_edinburgh_arthursseat_010.1080-h264.mp4	0.0	303.777095079422	
59	185.69062113761902	movie	1		167.0	57.0	2.5	/experiments/knapen_aot/videos/S_video_inspire_uk_edinburgh_arthursseat_010.1080-h264.mp4	0.0	303.7852301597595	2.5084428787231445
59	188.19906401634216	fix_post	2		12.0	57.0	2.5	/experiments/knapen_aot/videos/S_video_inspire_uk_edinburgh_arthursseat_010.1080-h264.mp4	0.0	306.29367303848267	0.09996294975280762
60	188.29902696609497	fix_pre	0		39.0	58.0	2.5	/experiments/knapen_aot/videos/S_flickr-slruok-8006772217_6.mp4	0.0	306.3936359882355	0.3249680995941162
60	188.615816116333	response	0	2		58.0	2.5	/experiments/knapen_aot/videos/S_flickr-slruok-8006772217_6.mp4	0.0	306.7104251384735	
60	188.6239950656891	movie	1		301.0	58.0	2.5	/experiments/knapen_aot/videos/S_flickr-slruok-8006772217_6.mp4	0.0	306.7186040878296	2.508323907852173
60	190.82722806930542	response	1	2		58.0	2.5	/experiments/knapen_aot/videos/S_flickr-slruok-8006772217_6.mp4	0.0	308.9218370914459	
60	191.13231897354126	fix_post	2		12.0	58.0	2.5	/experiments/knapen_aot/videos/S_flickr-slruok-8006772217_6.mp4	0.0	309.22692799568176	0.10003209114074707
61	191.232351064682	fix_pre	0		56.0	59.0	2.5	/experiments/knapen_aot/videos/S_ILSVRC2015_train_00219003.mp4	0.0	309.3269600868225	0.46656107902526855
61	191.6907000541687	response	0	2		59.0	2.5	/experiments/knapen_aot/videos/S_ILSVRC2015_train_00219003.mp4	0.0	309.7853090763092	
61	191.69891214370728	movie	1		301.0	59.0	2.5	/experiments/knapen_aot/videos/S_ILSVRC2015_train_00219003.mp4	0.0	309.7935211658478	2.5083839893341064
61	194.20729613304138	fix_post	2		12.0	59.0	2.5	/experiments/knapen_aot/videos/S_ILSVRC2015_train_00219003.mp4	0.0	312.3019051551819	0.09994697570800781
62	194.3072431087494	fix_pre	0		65.0	60.0	2.5	/experiments/knapen_aot/videos/S_yt-UojTppgtyCE_121.mp4	0.0	312.4018521308899	0.5430920124053955
62	194.84072709083557	response	0	2		60.0	2.5	/experiments/knapen_aot/videos/S_yt-UojTppgtyCE_121.mp4	0.0	312.9353361129761	
62	194.85033512115479	movie	1		301.0	60.0	2.5	/experiments/knapen_aot/videos/S_yt-UojTppgtyCE_121.mp4	0.0	312.9449441432953	2.5069398880004883
62	197.35727500915527	fix_post	2		12.0	60.0	2.5	/experiments/knapen_aot/videos/S_yt-UojTppgtyCE_121.mp4	0.0	315.4518840312958	0.10001993179321289
63	197.4572949409485	fix_pre	0		30.0	61.0	2.5	/experiments/knapen_aot/videos/R_S_yt-UPgF4YAHBQY_33.mp4	0.0	315.551903963089	0.24997520446777344
63	197.69147300720215	response	0	2		61.0	2.5	/experiments/knapen_aot/videos/R_S_yt-UPgF4YAHBQY_33.mp4	0.0	315.78608202934265	
63	197.70727014541626	movie	1		301.0	61.0	2.5	/experiments/knapen_aot/videos/R_S_yt-UPgF4YAHBQY_33.mp4	0.0	315.80187916755676	2.5083038806915283
63	200.2155740261078	fix_post	2		12.0	61.0	2.5	/experiments/knapen_aot/videos/R_S_yt-UPgF4YAHBQY_33.mp4	0.0	318.3101830482483	0.10015702247619629
64	200.31573104858398	fix_pre	0		47.0	62.0	2.5	blank	1.0	318.4103400707245	0.39148402214050293
64	200.69904899597168	response	0	2		62.0	2.5	blank	1.0	318.7936580181122	
64	200.7072150707245	movie	1		301.0	62.0	2.5	blank	1.0	318.801824092865	2.5084359645843506
64	202.9155731201172	response	1	2		62.0	2.5	blank	1.0	321.0101821422577	
64	203.21565103530884	fix_post	2		12.0	62.0	2.5	blank	1.0	321.31026005744934	0.09994292259216309
65	203.315593957901	fix_pre	0		25.0	63.0	2.5	/experiments/knapen_aot/videos/S_pexels-cottonbro-9063801.mp4	0.0	321.4102029800415	0.208420991897583
65	203.5081729888916	response	0	2		63.0	2.5	/experiments/knapen_aot/videos/S_pexels-cottonbro-9063801.mp4	0.0	321.6027820110321	
65	203.52401494979858	movie	1		208.0	63.0	2.5	/experiments/knapen_aot/videos/S_pexels-cottonbro-9063801.mp4	0.0	321.6186239719391	2.5084900856018066
65	206.0325050354004	fix_post	2		12.0	63.0	2.5	/experiments/knapen_aot/videos/S_pexels-cottonbro-9063801.mp4	0.0	324.1271140575409	0.09973907470703125
66	206.13224411010742	fix_pre	0		22.0	64.0	2.5	/experiments/knapen_aot/videos/R_S_yt-Dj42sI_Z-kQ_38.mp4	0.0	324.2268531322479	0.1833019256591797
66	206.30724906921387	response	0	2		64.0	2.5	/experiments/knapen_aot/videos/R_S_yt-Dj42sI_Z-kQ_38.mp4	0.0	324.40185809135437	
66	206.3155460357666	movie	1		301.0	64.0	2.5	/experiments/knapen_aot/videos/R_S_yt-Dj42sI_Z-kQ_38.mp4	0.0	324.4101550579071	2.5083460807800293
66	208.82389211654663	fix_post	2		12.0	64.0	2.5	/experiments/knapen_aot/videos/R_S_yt-Dj42sI_Z-kQ_38.mp4	0.0	326.91850113868713	0.10001802444458008
67	208.9239101409912	fix_pre	0		577.0	65.0	2.5	/experiments/knapen_aot/videos/R_S_bing-www_dailymotion_com_video_x4kcklg_53.mp4	0.0	327.0185191631317	4.808210849761963
67	213.72402215003967	response	0	2		65.0	2.5	/experiments/knapen_aot/videos/R_S_bing-www_dailymotion_com_video_x4kcklg_53.mp4	0.0	331.8186311721802	
67	213.73212099075317	movie	1		169.0	65.0	2.5	/experiments/knapen_aot/videos/R_S_bing-www_dailymotion_com_video_x4kcklg_53.mp4	0.0	331.8267300128937	2.5084099769592285
67	216.2405309677124	fix_post	2		12.0	65.0	2.5	/experiments/knapen_aot/videos/R_S_bing-www_dailymotion_com_video_x4kcklg_53.mp4	0.0	334.3351399898529	0.1000051498413086
68	216.3405361175537	fix_pre	0		6.0	66.0	2.5	/experiments/knapen_aot/videos/S_8amznWxLS04_212.mp4	0.0	334.4351451396942	0.05122089385986328
68	216.38235306739807	response	0	2		66.0	2.5	/experiments/knapen_aot/videos/S_8amznWxLS04_212.mp4	0.0	334.4769620895386	
68	216.39175701141357	movie	1		301.0	66.0	2.5	/experiments/knapen_aot/videos/S_8amznWxLS04_212.mp4	0.0	334.4863660335541	2.5070691108703613
68	218.89882612228394	fix_post	2		12.0	66.0	2.5	/experiments/knapen_aot/videos/S_8amznWxLS04_212.mp4	0.0	336.99343514442444	0.10001802444458008
69	218.99884414672852	fix_pre	0		28.0	67.0	2.5	/experiments/knapen_aot/videos/S_yt-Y7-umyL036c_507.mp4	0.0	337.093453168869	0.2333228588104248
69	219.21640515327454	response	0	2		67.0	2.5	/experiments/knapen_aot/videos/S_yt-Y7-umyL036c_507.mp4	0.0	337.31101417541504	
69	219.23216700553894	movie	1		301.0	67.0	2.5	/experiments/knapen_aot/videos/S_yt-Y7-umyL036c_507.mp4	0.0	337.32677602767944	2.5082859992980957
69	221.74045300483704	fix_post	2		12.0	67.0	2.5	/experiments/knapen_aot/videos/S_yt-Y7-umyL036c_507.mp4	0.0	339.83506202697754	0.10007405281066895
70	221.8405270576477	fix_pre	0		202.0	68.0	2.5	/experiments/knapen_aot/videos/S_yt-feTWuKPZA_k_34.mp4	0.0	339.9351360797882	1.6833100318908691
70	223.51553893089294	response	0	2		68.0	2.5	/experiments/knapen_aot/videos/S_yt-feTWuKPZA_k_34.mp4	0.0	341.61014795303345	
70	223.52383708953857	movie	1		301.0	68.0	2.5	/experiments/knapen_aot/videos/S_yt-feTWuKPZA_k_34.mp4	0.0	341.6184461116791	2.5083489418029785
70	225.86569905281067	response	1	2		68.0	2.5	/experiments/knapen_aot/videos/S_yt-feTWuKPZA_k_34.mp4	0.0	343.9603080749512	
70	226.03218603134155	fix_post	2		12.0	68.0	2.5	/experiments/knapen_aot/videos/S_yt-feTWuKPZA_k_34.mp4	0.0	344.12679505348206	0.10007405281066895
71	226.13226008415222	fix_pre	0		187.0	69.0	2.5	blank	1.0	344.2268691062927	1.5582220554351807
71	227.68228316307068	response	0	2		69.0	2.5	blank	1.0	345.7768921852112	
71	227.6904821395874	movie	1		301.0	69.0	2.5	blank	1.0	345.7850911617279	2.5083179473876953
71	230.1988000869751	fix_post	2		12.0	69.0	2.5	blank	1.0	348.2934091091156	0.10007286071777344
72	230.29887294769287	fix_pre	0		16.0	70.0	2.5	/experiments/knapen_aot/videos/S_yt-MhW2fU45JK8_544.mp4	0.0	348.3934819698334	0.1344461441040039
72	230.41642713546753	response	0	2		70.0	2.5	/experiments/knapen_aot/videos/S_yt-MhW2fU45JK8_544.mp4	0.0	348.51103615760803	
72	230.43331909179688	movie	1		301.0	70.0	2.5	/experiments/knapen_aot/videos/S_yt-MhW2fU45JK8_544.mp4	0.0	348.5279281139374	2.507133960723877
72	232.94045305252075	fix_post	2		12.0	70.0	2.5	/experiments/knapen_aot/videos/S_yt-MhW2fU45JK8_544.mp4	0.0	351.03506207466125	0.09999990463256836
73	233.04045295715332	fix_pre	0		42.0	71.0	2.5	/experiments/knapen_aot/videos/R_S_yt-tOOaOzYvtKE_79.mp4	0.0	351.1350619792938	0.35117101669311523
73	233.38219594955444	response	0	2		71.0	2.5	/experiments/knapen_aot/videos/R_S_yt-tOOaOzYvtKE_79.mp4	0.0	351.47680497169495	
73	233.39162397384644	movie	1		301.0	71.0	2.5	/experiments/knapen_aot/videos/R_S_yt-tOOaOzYvtKE_79.mp4	0.0	351.48623299598694	2.507359027862549
73	235.89898300170898	fix_post	2		12.0	71.0	2.5	/experiments/knapen_aot/videos/R_S_yt-tOOaOzYvtKE_79.mp4	0.0	353.9935920238495	0.0998990535736084
74	235.9988820552826	fix_pre	0		26.0	72.0	2.5	/experiments/knapen_aot/videos/S_yt-hdZEAsVBEEM_19.mp4	0.0	354.0934910774231	0.2165389060974121
74	236.2071750164032	response	0	2		72.0	2.5	/experiments/knapen_aot/videos/S_yt-hdZEAsVBEEM_19.mp4	0.0	354.3017840385437	
74	236.21542096138	movie	1		301.0	72.0	2.5	/experiments/knapen_aot/videos/S_yt-hdZEAsVBEEM_19.mp4	0.0	354.3100299835205	2.508357048034668
74	238.72377800941467	fix_post	2		12.0	72.0	2.5	/experiments/knapen_aot/videos/S_yt-hdZEAsVBEEM_19.mp4	0.0	356.8183870315552	0.10007715225219727
75	238.82385516166687	fix_pre	0		68.0	73.0	2.5	/experiments/knapen_aot/videos/R_S_yt-mdLT282PVbE_6.mp4	0.0	356.9184641838074	0.5677189826965332
75	239.38222193717957	response	0	2		73.0	2.5	/experiments/knapen_aot/videos/R_S_yt-mdLT282PVbE_6.mp4	0.0	357.47683095932007	
75	239.3915741443634	movie	1		301.0	73.0	2.5	/experiments/knapen_aot/videos/R_S_yt-mdLT282PVbE_6.mp4	0.0	357.4861831665039	2.5072028636932373
75	241.89877700805664	fix_post	2		12.0	73.0	2.5	/experiments/knapen_aot/videos/R_S_yt-mdLT282PVbE_6.mp4	0.0	359.99338603019714	0.10005903244018555
76	241.99883604049683	fix_pre	0		62.0	74.0	2.5	/experiments/knapen_aot/videos/R_S_b1-3.mp4	0.0	360.09344506263733	0.5176999568939209
76	242.50718808174133	response	0	2		74.0	2.5	/experiments/knapen_aot/videos/R_S_b1-3.mp4	0.0	360.60179710388184	
76	242.51653599739075	movie	1		167.0	74.0	2.5	/experiments/knapen_aot/videos/R_S_b1-3.mp4	0.0	360.61114501953125	2.507172107696533
76	245.02370810508728	fix_post	2		12.0	74.0	2.5	/experiments/knapen_aot/videos/R_S_b1-3.mp4	0.0	363.1183171272278	0.10008096694946289
77	245.12378907203674	fix_pre	0		375.0	75.0	2.5	/experiments/knapen_aot/videos/S_ILSVRC2015_train_00485001.mp4	0.0	363.21839809417725	3.1248879432678223
77	248.24052095413208	response	0	2		75.0	2.5	/experiments/knapen_aot/videos/S_ILSVRC2015_train_00485001.mp4	0.0	366.3351299762726	
77	248.24867701530457	movie	1		301.0	75.0	2.5	/experiments/knapen_aot/videos/S_ILSVRC2015_train_00485001.mp4	0.0	366.34328603744507	2.5083789825439453
77	250.7570559978485	fix_post	2		12.0	75.0	2.5	/experiments/knapen_aot/videos/S_ILSVRC2015_train_00485001.mp4	0.0	368.851665019989	0.1001729965209961
78	250.8572289943695	fix_pre	0		60.0	76.0	2.5	/experiments/knapen_aot/videos/R_S_yt-w_e3sxIzepA_27.mp4	0.0	368.95183801651	0.49971699714660645
78	251.34881615638733	response	0	2		76.0	2.5	/experiments/knapen_aot/videos/R_S_yt-w_e3sxIzepA_27.mp4	0.0	369.44342517852783	
78	251.3569459915161	movie	1		301.0	76.0	2.5	/experiments/knapen_aot/videos/R_S_yt-w_e3sxIzepA_27.mp4	0.0	369.4515550136566	2.508615016937256
78	253.86556100845337	fix_post	2		12.0	76.0	2.5	/experiments/knapen_aot/videos/R_S_yt-w_e3sxIzepA_27.mp4	0.0	371.9601700305939	0.09980106353759766
79	253.96536207199097	fix_pre	0		25.0	77.0	2.5	blank	1.0	372.05997109413147	0.20826292037963867
79	254.1654851436615	response	0	2		77.0	2.5	blank	1.0	372.260094165802	
79	254.1736249923706	movie	1		301.0	77.0	2.5	blank	1.0	372.2682340145111	2.5084140300750732
79	256.6820390224457	fix_post	2		12.0	77.0	2.5	blank	1.0	374.7766480445862	0.09993195533752441
80	256.7819709777832	fix_pre	0		78.0	78.0	2.5	/experiments/knapen_aot/videos/R_S_yt-V_2XgfjJfeQ_67.mp4	0.0	374.8765799999237	0.6510841846466064
80	257.4237720966339	response	0	2		78.0	2.5	/experiments/knapen_aot/videos/R_S_yt-V_2XgfjJfeQ_67.mp4	0.0	375.5183811187744	
80	257.4330551624298	movie	1		301.0	78.0	2.5	/experiments/knapen_aot/videos/R_S_yt-V_2XgfjJfeQ_67.mp4	0.0	375.5276641845703	2.5073068141937256
80	259.94036197662354	fix_post	2		12.0	78.0	2.5	/experiments/knapen_aot/videos/R_S_yt-V_2XgfjJfeQ_67.mp4	0.0	378.03497099876404	0.09997797012329102
81	260.0403399467468	fix_pre	0		184.0	79.0	2.5	/experiments/knapen_aot/videos/R_S_yt-R0gFQo85cAE_5.mp4	0.0	378.13494896888733	1.5332880020141602
81	261.098974943161	response	0	1		79.0	2.5	/experiments/knapen_aot/videos/R_S_yt-R0gFQo85cAE_5.mp4	0.0	379.1935839653015	
81	261.56536507606506	response	0	2		79.0	2.5	/experiments/knapen_aot/videos/R_S_yt-R0gFQo85cAE_5.mp4	0.0	379.65997409820557	
81	261.573627948761	movie	1		301.0	79.0	2.5	/experiments/knapen_aot/videos/R_S_yt-R0gFQo85cAE_5.mp4	0.0	379.6682369709015	2.508345127105713
81	264.0819730758667	fix_post	2		12.0	79.0	2.5	/experiments/knapen_aot/videos/R_S_yt-R0gFQo85cAE_5.mp4	0.0	382.1765820980072	0.10009193420410156
82	264.1820650100708	fix_pre	0		85.0	80.0	2.5	/experiments/knapen_aot/videos/R_S_bing-www_nytimes_com_video_dining_1247468118505_grilled-chicken-breasts-with-herb-butter_html_132.mp4	0.0	382.2766740322113	0.7092199325561523
82	264.8745620250702	response	0	2		80.0	2.5	/experiments/knapen_aot/videos/R_S_bing-www_nytimes_com_video_dining_1247468118505_grilled-chicken-breasts-with-herb-butter_html_132.mp4	0.0	382.9691710472107	
82	264.89128494262695	movie	1		164.0	80.0	2.5	/experiments/knapen_aot/videos/R_S_bing-www_nytimes_com_video_dining_1247468118505_grilled-chicken-breasts-with-herb-butter_html_132.mp4	0.0	382.98589396476746	2.5074610710144043
82	267.39874601364136	fix_post	2		12.0	80.0	2.5	/experiments/knapen_aot/videos/R_S_bing-www_nytimes_com_video_dining_1247468118505_grilled-chicken-breasts-with-herb-butter_html_132.mp4	0.0	385.49335503578186	0.09987092018127441
83	267.49861693382263	fix_pre	0		17.0	81.0	2.5	/experiments/knapen_aot/videos/S_yt-y3tyx6cZjmA_412.mp4	0.0	385.59322595596313	0.14275813102722168
83	267.63218998908997	response	0	2		81.0	2.5	/experiments/knapen_aot/videos/S_yt-y3tyx6cZjmA_412.mp4	0.0	385.72679901123047	
83	267.64137506484985	movie	1		301.0	81.0	2.5	/experiments/knapen_aot/videos/S_yt-y3tyx6cZjmA_412.mp4	0.0	385.73598408699036	2.507265090942383
83	270.14864015579224	fix_post	2		12.0	81.0	2.5	/experiments/knapen_aot/videos/S_yt-y3tyx6cZjmA_412.mp4	0.0	388.24324917793274	0.09999489784240723
84	270.24863505363464	fix_pre	0		135.0	82.0	2.5	/experiments/knapen_aot/videos/R_S_ILSVRC2015_train_00549001.mp4	0.0	388.34324407577515	1.1249239444732666
84	271.36544013023376	response	0	2		82.0	2.5	/experiments/knapen_aot/videos/R_S_ILSVRC2015_train_00549001.mp4	0.0	389.46004915237427	
84	271.3735589981079	movie	1		301.0	82.0	2.5	/experiments/knapen_aot/videos/R_S_ILSVRC2015_train_00549001.mp4	0.0	389.4681680202484	2.5083580017089844
84	273.8819169998169	fix_post	2		12.0	82.0	2.5	/experiments/knapen_aot/videos/R_S_ILSVRC2015_train_00549001.mp4	0.0	391.9765260219574	0.10005998611450195
85	273.9819769859314	fix_pre	0		86.0	83.0	2.5	blank	1.0	392.0765860080719	0.7165689468383789
85	274.69039011001587	response	0	2		83.0	2.5	blank	1.0	392.7849991321564	
85	274.6985459327698	movie	1		301.0	83.0	2.5	blank	1.0	392.7931549549103	2.5083770751953125
85	277.2069230079651	fix_post	2		12.0	83.0	2.5	blank	1.0	395.3015320301056	0.0999901294708252
87	277.3069131374359	stim	0		98.0					395.4015221595764	0.8203999996185303
87	278.1203429698944	response	0	space						396.2149519920349	
