trial_nr	onset	event_type	phase	response	nr_frames	movie_index	movie_duration	movie_file	blank	onset_abs	duration
0	0.15274882316589355	stim	0		108.0					122.05790591239929	0.9097590446472168
0	1.0487909317016602	response	0	space						122.95394802093506	
1	1.0625078678131104	stim	0		120.0					122.96766495704651	1.002479076385498
1	1.698503017425537	response	0	space						123.60366010665894	
1	2.0649869441986084	stim	1		120.0					123.970144033432	1.000067949295044
1	2.3068249225616455	response	1	space						124.21198201179504	
1	3.040134906768799	response	1	space						124.9452919960022	
2	3.0650548934936523	fix_pre	0		41.0	0.0	2.5	/experiments/knapen_aot/videos/S_Y009_C015_SDR_2K_AVC.mp4	0.0	124.97021198272705	0.3416121006011963
2	3.398509979248047	response	0	space		0.0	2.5	/experiments/knapen_aot/videos/S_Y009_C015_SDR_2K_AVC.mp4	0.0	125.30366706848145	
2	3.4066669940948486	movie	1		175.0	0.0	2.5	/experiments/knapen_aot/videos/S_Y009_C015_SDR_2K_AVC.mp4	0.0	125.31182408332825	2.5083370208740234
2	5.915004014968872	fix_post	2		12.0	0.0	2.5	/experiments/knapen_aot/videos/S_Y009_C015_SDR_2K_AVC.mp4	0.0	127.82016110420227	0.10003495216369629
3	6.015038967132568	fix_pre	0		17.0	1.0	2.5	/experiments/knapen_aot/videos/R_S_yt-XUnZ7FbBtvk_162.mp4	0.0	127.92019605636597	0.15008997917175293
3	6.153718948364258	response	0	2		1.0	2.5	/experiments/knapen_aot/videos/R_S_yt-XUnZ7FbBtvk_162.mp4	0.0	128.05887603759766	
3	6.165128946304321	movie	1		300.0	1.0	2.5	/experiments/knapen_aot/videos/R_S_yt-XUnZ7FbBtvk_162.mp4	0.0	128.07028603553772	2.4999170303344727
3	8.665045976638794	fix_post	2		12.0	1.0	2.5	/experiments/knapen_aot/videos/R_S_yt-XUnZ7FbBtvk_162.mp4	0.0	130.5702030658722	0.10004281997680664
4	8.7650887966156	fix_pre	0		30.0	2.0	2.5	/experiments/knapen_aot/videos/S_yt-IX6uxR5DSKk_2.mp4	0.0	130.670245885849	0.24996423721313477
4	9.006834030151367	response	0	2		2.0	2.5	/experiments/knapen_aot/videos/S_yt-IX6uxR5DSKk_2.mp4	0.0	130.91199111938477	
4	9.015053033828735	movie	1		301.0	2.0	2.5	/experiments/knapen_aot/videos/S_yt-IX6uxR5DSKk_2.mp4	0.0	130.92021012306213	2.5083799362182617
4	11.523432970046997	fix_post	2		11.0	2.0	2.5	/experiments/knapen_aot/videos/S_yt-IX6uxR5DSKk_2.mp4	0.0	133.4285900592804	0.10127091407775879
5	11.624703884124756	fix_pre	0		13.0	3.0	2.5	/experiments/knapen_aot/videos/R_S_yt--DXkjCUzThU_413.mp4	0.0	133.52986097335815	0.10708212852478027
5	11.723587989807129	response	0	2		3.0	2.5	/experiments/knapen_aot/videos/R_S_yt--DXkjCUzThU_413.mp4	0.0	133.62874507904053	
5	11.731786012649536	movie	1		300.0	3.0	2.5	/experiments/knapen_aot/videos/R_S_yt--DXkjCUzThU_413.mp4	0.0	133.63694310188293	2.5083389282226562
5	14.240124940872192	fix_post	2		12.0	3.0	2.5	/experiments/knapen_aot/videos/R_S_yt--DXkjCUzThU_413.mp4	0.0	136.1452820301056	0.1000058650970459
6	14.340130805969238	fix_pre	0		25.0	4.0	2.5	/experiments/knapen_aot/videos/R_S_yt-NuJbedGLcQY_112.mp4	0.0	136.24528789520264	0.20829319953918457
6	14.540335893630981	response	0	2		4.0	2.5	/experiments/knapen_aot/videos/R_S_yt-NuJbedGLcQY_112.mp4	0.0	136.44549298286438	
6	14.548424005508423	movie	1		301.0	4.0	2.5	/experiments/knapen_aot/videos/R_S_yt-NuJbedGLcQY_112.mp4	0.0	136.45358109474182	2.5083539485931396
6	17.056777954101562	fix_post	2		12.0	4.0	2.5	/experiments/knapen_aot/videos/R_S_yt-NuJbedGLcQY_112.mp4	0.0	138.96193504333496	0.10007286071777344
7	17.156850814819336	fix_pre	0		10.0	5.0	2.5	/experiments/knapen_aot/videos/R_S_yt-HoRtvVuuvOs_5.mp4	0.0	139.06200790405273	0.08329319953918457
7	17.231892824172974	response	0	2		5.0	2.5	/experiments/knapen_aot/videos/R_S_yt-HoRtvVuuvOs_5.mp4	0.0	139.13704991340637	
7	17.24014401435852	movie	1		297.0	5.0	2.5	/experiments/knapen_aot/videos/R_S_yt-HoRtvVuuvOs_5.mp4	0.0	139.14530110359192	2.508354902267456
7	19.748498916625977	fix_post	2		12.0	5.0	2.5	/experiments/knapen_aot/videos/R_S_yt-HoRtvVuuvOs_5.mp4	0.0	141.65365600585938	0.0999898910522461
8	19.848488807678223	fix_pre	0		7.0	6.0	2.5	/experiments/knapen_aot/videos/S_yt-T9Vwt7wFvPk_100.mp4	0.0	141.75364589691162	0.05833721160888672
8	19.89118480682373	response	0	2		6.0	2.5	/experiments/knapen_aot/videos/S_yt-T9Vwt7wFvPk_100.mp4	0.0	141.79634189605713	
8	19.90682601928711	movie	1		301.0	6.0	2.5	/experiments/knapen_aot/videos/S_yt-T9Vwt7wFvPk_100.mp4	0.0	141.8119831085205	2.5083320140838623
8	22.41515803337097	fix_post	2		12.0	6.0	2.5	/experiments/knapen_aot/videos/S_yt-T9Vwt7wFvPk_100.mp4	0.0	144.32031512260437	0.09997296333312988
9	22.5151309967041	fix_pre	0		26.0	7.0	2.5	blank	1.0	144.4202880859375	0.21665287017822266
9	22.723593950271606	response	0	2		7.0	2.5	blank	1.0	144.628751039505	
9	22.731783866882324	movie	1		301.0	7.0	2.5	blank	1.0	144.63694095611572	2.5083811283111572
9	25.24016499519348	fix_post	2		12.0	7.0	2.5	blank	1.0	147.14532208442688	0.09999489784240723
10	25.34015989303589	fix_pre	0		30.0	8.0	2.5	/experiments/knapen_aot/videos/S_yt-2SVpSaBAxsw_78.mp4	0.0	147.2453169822693	0.249891996383667
10	25.581984996795654	response	0	2		8.0	2.5	/experiments/knapen_aot/videos/S_yt-2SVpSaBAxsw_78.mp4	0.0	147.48714208602905	
10	25.590051889419556	movie	1		301.0	8.0	2.5	/experiments/knapen_aot/videos/S_yt-2SVpSaBAxsw_78.mp4	0.0	147.49520897865295	2.5085089206695557
10	28.09856081008911	fix_post	2		12.0	8.0	2.5	/experiments/knapen_aot/videos/S_yt-2SVpSaBAxsw_78.mp4	0.0	150.0037178993225	0.09989213943481445
11	28.198452949523926	fix_pre	0		31.0	9.0	2.5	/experiments/knapen_aot/videos/R_S_yt-6mRpmfIvdew_1435.mp4	0.0	150.10361003875732	0.2595350742340088
11	28.441037893295288	response	0	2		9.0	2.5	/experiments/knapen_aot/videos/R_S_yt-6mRpmfIvdew_1435.mp4	0.0	150.3461949825287	
11	28.457988023757935	movie	1		301.0	9.0	2.5	/experiments/knapen_aot/videos/R_S_yt-6mRpmfIvdew_1435.mp4	0.0	150.36314511299133	2.507205009460449
11	30.965193033218384	fix_post	2		12.0	9.0	2.5	/experiments/knapen_aot/videos/R_S_yt-6mRpmfIvdew_1435.mp4	0.0	152.87035012245178	0.10002684593200684
12	31.06521987915039	fix_pre	0		23.0	10.0	2.5	/experiments/knapen_aot/videos/R_S_yt-mmvWYAttrIw_2.mp4	0.0	152.9703769683838	0.19160914421081543
12	31.248620986938477	response	0	2		10.0	2.5	/experiments/knapen_aot/videos/R_S_yt-mmvWYAttrIw_2.mp4	0.0	153.15377807617188	
12	31.256829023361206	movie	1		301.0	10.0	2.5	/experiments/knapen_aot/videos/R_S_yt-mmvWYAttrIw_2.mp4	0.0	153.1619861125946	2.5083558559417725
12	33.76518487930298	fix_post	2		12.0	10.0	2.5	/experiments/knapen_aot/videos/R_S_yt-mmvWYAttrIw_2.mp4	0.0	155.67034196853638	0.10002994537353516
13	33.865214824676514	fix_pre	0		51.0	11.0	2.5	/experiments/knapen_aot/videos/R_S_yt-BDCyXL5e9S4_223.mp4	0.0	155.7703719139099	0.42610907554626465
13	34.28199481964111	response	0	2		11.0	2.5	/experiments/knapen_aot/videos/R_S_yt-BDCyXL5e9S4_223.mp4	0.0	156.1871519088745	
13	34.29132390022278	movie	1		300.0	11.0	2.5	/experiments/knapen_aot/videos/R_S_yt-BDCyXL5e9S4_223.mp4	0.0	156.19648098945618	2.5072429180145264
13	36.798566818237305	fix_post	2		12.0	11.0	2.5	/experiments/knapen_aot/videos/R_S_yt-BDCyXL5e9S4_223.mp4	0.0	158.7037239074707	0.09998202323913574
14	36.89854884147644	fix_pre	0		24.0	12.0	2.5	blank	1.0	158.80370593070984	0.19992399215698242
14	37.09034585952759	response	0	2		12.0	2.5	blank	1.0	158.995502948761	
14	37.09847283363342	movie	1		301.0	12.0	2.5	blank	1.0	159.00362992286682	2.5084190368652344
14	39.60689187049866	fix_post	2		12.0	12.0	2.5	blank	1.0	161.51204895973206	0.10123610496520996
15	39.70812797546387	fix_pre	0		19.0	13.0	2.5	/experiments/knapen_aot/videos/R_S_yt-Dlk44AGz-xM_37.mp4	0.0	161.61328506469727	0.1569080352783203
15	39.85699486732483	response	0	2		13.0	2.5	/experiments/knapen_aot/videos/R_S_yt-Dlk44AGz-xM_37.mp4	0.0	161.76215195655823	
15	39.86503601074219	movie	1		301.0	13.0	2.5	/experiments/knapen_aot/videos/R_S_yt-Dlk44AGz-xM_37.mp4	0.0	161.7701930999756	2.5085339546203613
15	42.37356996536255	fix_post	2		12.0	13.0	2.5	/experiments/knapen_aot/videos/R_S_yt-Dlk44AGz-xM_37.mp4	0.0	164.27872705459595	0.09995293617248535
16	42.473522901535034	fix_pre	0		28.0	14.0	2.5	/experiments/knapen_aot/videos/S_comp_GL_G004_C010_PSNK_v04_SDR_PS_FINAL_20180709_SDR_2K_AVC.mp4	0.0	164.37867999076843	0.23448801040649414
16	42.69112992286682	response	0	2		14.0	2.5	/experiments/knapen_aot/videos/S_comp_GL_G004_C010_PSNK_v04_SDR_PS_FINAL_20180709_SDR_2K_AVC.mp4	0.0	164.59628701210022	
16	42.70801091194153	movie	1		178.0	14.0	2.5	/experiments/knapen_aot/videos/S_comp_GL_G004_C010_PSNK_v04_SDR_PS_FINAL_20180709_SDR_2K_AVC.mp4	0.0	164.61316800117493	2.507261037826538
16	45.215271949768066	fix_post	2		12.0	14.0	2.5	/experiments/knapen_aot/videos/S_comp_GL_G004_C010_PSNK_v04_SDR_PS_FINAL_20180709_SDR_2K_AVC.mp4	0.0	167.12042903900146	0.09996891021728516
17	45.31524085998535	fix_pre	0		29.0	15.0	2.5	/experiments/knapen_aot/videos/R_S_comp_GL_G004_C010_PSNK_v04_SDR_PS_FINAL_20180709_SDR_2K_AVC.mp4	0.0	167.22039794921875	0.2416069507598877
17	45.54866981506348	response	0	4		15.0	2.5	/experiments/knapen_aot/videos/R_S_comp_GL_G004_C010_PSNK_v04_SDR_PS_FINAL_20180709_SDR_2K_AVC.mp4	0.0	167.45382690429688	
17	45.55684781074524	movie	1		170.0	15.0	2.5	/experiments/knapen_aot/videos/R_S_comp_GL_G004_C010_PSNK_v04_SDR_PS_FINAL_20180709_SDR_2K_AVC.mp4	0.0	167.46200489997864	2.508341073989868
17	48.06518888473511	fix_post	2		12.0	15.0	2.5	/experiments/knapen_aot/videos/R_S_comp_GL_G004_C010_PSNK_v04_SDR_PS_FINAL_20180709_SDR_2K_AVC.mp4	0.0	169.9703459739685	0.10008597373962402
17	48.1237359046936	response	2	2		15.0	2.5	/experiments/knapen_aot/videos/R_S_comp_GL_G004_C010_PSNK_v04_SDR_PS_FINAL_20180709_SDR_2K_AVC.mp4	0.0	170.028892993927	
18	48.16527485847473	fix_pre	0		80.0	16.0	2.5	/experiments/knapen_aot/videos/R_S_yt-Gam0NeyyG8w_22.mp4	0.0	170.07043194770813	0.6677219867706299
18	48.82376194000244	response	0	2		16.0	2.5	/experiments/knapen_aot/videos/R_S_yt-Gam0NeyyG8w_22.mp4	0.0	170.72891902923584	
18	48.83299684524536	movie	1		301.0	16.0	2.5	/experiments/knapen_aot/videos/R_S_yt-Gam0NeyyG8w_22.mp4	0.0	170.73815393447876	2.50734806060791
18	51.34034490585327	fix_post	2		12.0	16.0	2.5	/experiments/knapen_aot/videos/R_S_yt-Gam0NeyyG8w_22.mp4	0.0	173.24550199508667	0.09993410110473633
19	51.44027900695801	fix_pre	0		22.0	17.0	2.5	/experiments/knapen_aot/videos/R_S_yt-Ub5Xx5BqIOk_74.mp4	0.0	173.3454360961914	0.18437600135803223
19	51.615365982055664	response	0	2		17.0	2.5	/experiments/knapen_aot/videos/R_S_yt-Ub5Xx5BqIOk_74.mp4	0.0	173.52052307128906	
19	51.62465500831604	movie	1		301.0	17.0	2.5	/experiments/knapen_aot/videos/R_S_yt-Ub5Xx5BqIOk_74.mp4	0.0	173.52981209754944	2.507305860519409
19	54.13196086883545	fix_post	2		12.0	17.0	2.5	/experiments/knapen_aot/videos/R_S_yt-Ub5Xx5BqIOk_74.mp4	0.0	176.03711795806885	0.09992599487304688
20	54.231886863708496	fix_pre	0		26.0	18.0	2.5	/experiments/knapen_aot/videos/S_yt-IlW1U39Dga4_5.mp4	0.0	176.1370439529419	0.21671295166015625
20	54.44045686721802	response	0	2		18.0	2.5	/experiments/knapen_aot/videos/S_yt-IlW1U39Dga4_5.mp4	0.0	176.34561395645142	
20	54.44859981536865	movie	1		301.0	18.0	2.5	/experiments/knapen_aot/videos/S_yt-IlW1U39Dga4_5.mp4	0.0	176.35375690460205	2.508350133895874
20	56.956949949264526	fix_post	2		12.0	18.0	2.5	/experiments/knapen_aot/videos/S_yt-IlW1U39Dga4_5.mp4	0.0	178.86210703849792	0.09998106956481934
21	57.056931018829346	fix_pre	0		20.0	19.0	2.5	blank	1.0	178.96208810806274	0.1666579246520996
21	57.21542501449585	response	0	2		19.0	2.5	blank	1.0	179.12058210372925	
21	57.223588943481445	movie	1		301.0	19.0	2.5	blank	1.0	179.12874603271484	2.5082459449768066
21	59.73183488845825	fix_post	2		12.0	19.0	2.5	blank	1.0	181.63699197769165	0.10000109672546387
22	59.831835985183716	fix_pre	0		20.0	20.0	2.5	/experiments/knapen_aot/videos/S_yt-8RmEimCI80g_35.mp4	0.0	181.73699307441711	0.16771888732910156
22	59.99032998085022	response	0	2		20.0	2.5	/experiments/knapen_aot/videos/S_yt-8RmEimCI80g_35.mp4	0.0	181.89548707008362	
22	59.99955487251282	movie	1		301.0	20.0	2.5	/experiments/knapen_aot/videos/S_yt-8RmEimCI80g_35.mp4	0.0	181.90471196174622	2.507308006286621
22	62.50686287879944	fix_post	2		12.0	20.0	2.5	/experiments/knapen_aot/videos/S_yt-8RmEimCI80g_35.mp4	0.0	184.41201996803284	0.10002303123474121
23	62.60688591003418	fix_pre	0		20.0	21.0	2.5	/experiments/knapen_aot/videos/R_S_yt-8RmEimCI80g_35.mp4	0.0	184.51204299926758	0.17496299743652344
23	62.77365589141846	response	0	2		21.0	2.5	/experiments/knapen_aot/videos/R_S_yt-8RmEimCI80g_35.mp4	0.0	184.67881298065186	
23	62.7818489074707	movie	1		301.0	21.0	2.5	/experiments/knapen_aot/videos/R_S_yt-8RmEimCI80g_35.mp4	0.0	184.6870059967041	2.509371042251587
23	65.29121994972229	fix_post	2		12.0	21.0	2.5	/experiments/knapen_aot/videos/R_S_yt-8RmEimCI80g_35.mp4	0.0	187.1963770389557	0.09897089004516602
24	65.39019083976746	fix_pre	0		2.0	22.0	2.5	/experiments/knapen_aot/videos/S_yt-6vkiJedss6g_5.mp4	0.0	187.29534792900085	0.016649961471557617
24	65.39861583709717	response	0	2		22.0	2.5	/experiments/knapen_aot/videos/S_yt-6vkiJedss6g_5.mp4	0.0	187.30377292633057	
24	65.40684080123901	movie	1		300.0	22.0	2.5	/experiments/knapen_aot/videos/S_yt-6vkiJedss6g_5.mp4	0.0	187.3119978904724	2.5082671642303467
24	67.91510796546936	fix_post	2		12.0	22.0	2.5	/experiments/knapen_aot/videos/S_yt-6vkiJedss6g_5.mp4	0.0	189.82026505470276	0.1000518798828125
25	68.01515984535217	fix_pre	0		16.0	23.0	2.5	/experiments/knapen_aot/videos/R_S_yt-9NV8zv2Sdq4_30.mp4	0.0	189.92031693458557	0.13326311111450195
25	68.1403260231018	response	0	2		23.0	2.5	/experiments/knapen_aot/videos/R_S_yt-9NV8zv2Sdq4_30.mp4	0.0	190.0454831123352	
25	68.14842295646667	movie	1		301.0	23.0	2.5	/experiments/knapen_aot/videos/R_S_yt-9NV8zv2Sdq4_30.mp4	0.0	190.05358004570007	2.5085580348968506
25	70.65698099136353	fix_post	2		12.0	23.0	2.5	/experiments/knapen_aot/videos/R_S_yt-9NV8zv2Sdq4_30.mp4	0.0	192.56213808059692	0.09982681274414062
26	70.75680780410767	fix_pre	0		20.0	24.0	2.5	/experiments/knapen_aot/videos/S_yt-Xq6uX1jfFRk_21.mp4	0.0	192.66196489334106	0.16660213470458984
26	70.9151999950409	response	0	2		24.0	2.5	/experiments/knapen_aot/videos/S_yt-Xq6uX1jfFRk_21.mp4	0.0	192.8203570842743	
26	70.92340993881226	movie	1		301.0	24.0	2.5	/experiments/knapen_aot/videos/S_yt-Xq6uX1jfFRk_21.mp4	0.0	192.82856702804565	2.5083370208740234
26	73.43174695968628	fix_post	2		12.0	24.0	2.5	/experiments/knapen_aot/videos/S_yt-Xq6uX1jfFRk_21.mp4	0.0	195.33690404891968	0.0999898910522461
27	73.53173685073853	fix_pre	0		18.0	25.0	2.5	/experiments/knapen_aot/videos/R_S_yt-Xq6uX1jfFRk_21.mp4	0.0	195.43689393997192	0.14994502067565918
27	73.67350482940674	response	0	2		25.0	2.5	/experiments/knapen_aot/videos/R_S_yt-Xq6uX1jfFRk_21.mp4	0.0	195.57866191864014	
27	73.68168187141418	movie	1		301.0	25.0	2.5	/experiments/knapen_aot/videos/R_S_yt-Xq6uX1jfFRk_21.mp4	0.0	195.58683896064758	2.508357048034668
27	76.19003891944885	fix_post	2		12.0	25.0	2.5	/experiments/knapen_aot/videos/R_S_yt-Xq6uX1jfFRk_21.mp4	0.0	198.09519600868225	0.10002803802490234
28	76.29006695747375	fix_pre	0		6.0	26.0	2.5	/experiments/knapen_aot/videos/S_yt-y3tyx6cZjmA_412.mp4	0.0	198.19522404670715	0.049980878829956055
28	76.32441401481628	response	0	2		26.0	2.5	/experiments/knapen_aot/videos/S_yt-y3tyx6cZjmA_412.mp4	0.0	198.22957110404968	
28	76.34004783630371	movie	1		298.0	26.0	2.5	/experiments/knapen_aot/videos/S_yt-y3tyx6cZjmA_412.mp4	0.0	198.2452049255371	2.5082390308380127
28	78.84828686714172	fix_post	2		12.0	26.0	2.5	/experiments/knapen_aot/videos/S_yt-y3tyx6cZjmA_412.mp4	0.0	200.75344395637512	0.10010004043579102
29	78.94838690757751	fix_pre	0		10.0	27.0	2.5	/experiments/knapen_aot/videos/R_S_ILSVRC2015_train_00632002.mp4	0.0	200.8535439968109	0.08324909210205078
29	79.0235538482666	response	0	2		27.0	2.5	/experiments/knapen_aot/videos/R_S_ILSVRC2015_train_00632002.mp4	0.0	200.9287109375	
29	79.03163599967957	movie	1		301.0	27.0	2.5	/experiments/knapen_aot/videos/R_S_ILSVRC2015_train_00632002.mp4	0.0	200.93679308891296	2.5083789825439453
29	81.54001498222351	fix_post	2		12.0	27.0	2.5	/experiments/knapen_aot/videos/R_S_ILSVRC2015_train_00632002.mp4	0.0	203.4451720714569	0.09989500045776367
30	81.63990998268127	fix_pre	0		13.0	28.0	2.5	blank	1.0	203.54506707191467	0.10932683944702148
30	81.74014902114868	response	0	2		28.0	2.5	blank	1.0	203.64530611038208	
30	81.7492368221283	movie	1		301.0	28.0	2.5	blank	1.0	203.6543939113617	2.507453203201294
30	84.25669002532959	fix_post	2		12.0	28.0	2.5	blank	1.0	206.161847114563	0.10009598731994629
31	84.35678601264954	fix_pre	0		42.0	29.0	2.5	/experiments/knapen_aot/videos/S_ILSVRC2015_train_00441000.mp4	0.0	206.26194310188293	0.3507349491119385
31	84.69841003417969	response	0	2		29.0	2.5	/experiments/knapen_aot/videos/S_ILSVRC2015_train_00441000.mp4	0.0	206.6035671234131	
31	84.70752096176147	movie	1		301.0	29.0	2.5	/experiments/knapen_aot/videos/S_ILSVRC2015_train_00441000.mp4	0.0	206.61267805099487	2.507429838180542
31	87.21495079994202	fix_post	2		12.0	29.0	2.5	/experiments/knapen_aot/videos/S_ILSVRC2015_train_00441000.mp4	0.0	209.12010788917542	0.10001921653747559
32	87.31497001647949	fix_pre	0		22.0	30.0	2.5	/experiments/knapen_aot/videos/R_S_nvbAwZOKBS8_23.mp4	0.0	209.2201271057129	0.18415188789367676
32	87.49009680747986	response	0	2		30.0	2.5	/experiments/knapen_aot/videos/R_S_nvbAwZOKBS8_23.mp4	0.0	209.39525389671326	
32	87.49912190437317	movie	1		299.0	30.0	2.5	/experiments/knapen_aot/videos/R_S_nvbAwZOKBS8_23.mp4	0.0	209.40427899360657	2.50744891166687
32	90.00657081604004	fix_post	2		12.0	30.0	2.5	/experiments/knapen_aot/videos/R_S_nvbAwZOKBS8_23.mp4	0.0	211.91172790527344	0.09995698928833008
33	90.10652780532837	fix_pre	0		30.0	31.0	2.5	/experiments/knapen_aot/videos/S_yt-6vkiJedss6g_5.mp4	0.0	212.01168489456177	0.25000619888305664
33	90.34828090667725	response	0	2		31.0	2.5	/experiments/knapen_aot/videos/S_yt-6vkiJedss6g_5.mp4	0.0	212.25343799591064	
33	90.35653400421143	movie	1		301.0	31.0	2.5	/experiments/knapen_aot/videos/S_yt-6vkiJedss6g_5.mp4	0.0	212.26169109344482	2.5083608627319336
33	92.86489486694336	fix_post	2		12.0	31.0	2.5	/experiments/knapen_aot/videos/S_yt-6vkiJedss6g_5.mp4	0.0	214.77005195617676	0.10004806518554688
34	92.9649429321289	fix_pre	0		19.0	32.0	2.5	/experiments/knapen_aot/videos/S_yt-K_gHa2x2OQA_319.mp4	0.0	214.8701000213623	0.15915703773498535
34	93.11505198478699	response	0	2		32.0	2.5	/experiments/knapen_aot/videos/S_yt-K_gHa2x2OQA_319.mp4	0.0	215.02020907402039	
34	93.12409996986389	movie	1		301.0	32.0	2.5	/experiments/knapen_aot/videos/S_yt-K_gHa2x2OQA_319.mp4	0.0	215.0292570590973	2.5074210166931152
34	95.631520986557	fix_post	2		12.0	32.0	2.5	/experiments/knapen_aot/videos/S_yt-K_gHa2x2OQA_319.mp4	0.0	217.5366780757904	0.10003995895385742
35	95.73156094551086	fix_pre	0		39.0	33.0	2.5	/experiments/knapen_aot/videos/R_S_Y009_C015_SDR_2K_AVC.mp4	0.0	217.63671803474426	0.32494688034057617
35	96.04841780662537	response	0	2		33.0	2.5	/experiments/knapen_aot/videos/R_S_Y009_C015_SDR_2K_AVC.mp4	0.0	217.95357489585876	
35	96.05650782585144	movie	1		168.0	33.0	2.5	/experiments/knapen_aot/videos/R_S_Y009_C015_SDR_2K_AVC.mp4	0.0	217.96166491508484	2.5083181858062744
35	98.56482601165771	fix_post	2		12.0	33.0	2.5	/experiments/knapen_aot/videos/R_S_Y009_C015_SDR_2K_AVC.mp4	0.0	220.4699831008911	0.10001301765441895
35	98.58207893371582	response	2	2		33.0	2.5	/experiments/knapen_aot/videos/R_S_Y009_C015_SDR_2K_AVC.mp4	0.0	220.48723602294922	
36	98.66483902931213	fix_pre	0		114.0	34.0	2.5	/experiments/knapen_aot/videos/S_comp_HK_H004_C001_PSNK_DENOISE_v14_SDR_PS_FINAL_20180731_SDR_2K_AVC.mp4	0.0	220.56999611854553	0.9499669075012207
36	99.60656595230103	response	0	2		34.0	2.5	/experiments/knapen_aot/videos/S_comp_HK_H004_C001_PSNK_DENOISE_v14_SDR_PS_FINAL_20180731_SDR_2K_AVC.mp4	0.0	221.51172304153442	
36	99.61480593681335	movie	1		165.0	34.0	2.5	/experiments/knapen_aot/videos/S_comp_HK_H004_C001_PSNK_DENOISE_v14_SDR_PS_FINAL_20180731_SDR_2K_AVC.mp4	0.0	221.51996302604675	2.5083329677581787
36	102.12313890457153	fix_post	2		12.0	34.0	2.5	/experiments/knapen_aot/videos/S_comp_HK_H004_C001_PSNK_DENOISE_v14_SDR_PS_FINAL_20180731_SDR_2K_AVC.mp4	0.0	224.02829599380493	0.10000896453857422
37	102.22314786911011	fix_pre	0		41.0	35.0	2.5	blank	1.0	224.1283049583435	0.3415820598602295
37	102.55653381347656	response	0	4		35.0	2.5	blank	1.0	224.46169090270996	
37	102.56472992897034	movie	1		301.0	35.0	2.5	blank	1.0	224.46988701820374	2.5083179473876953
37	105.07304787635803	fix_post	2		12.0	35.0	2.5	blank	1.0	226.97820496559143	0.10022115707397461
38	105.173269033432	fix_pre	0		27.0	36.0	2.5	/experiments/knapen_aot/videos/S_production_ID_4325513.mp4	0.0	227.0784261226654	0.22478580474853516
38	105.38988399505615	response	0	4		36.0	2.5	/experiments/knapen_aot/videos/S_production_ID_4325513.mp4	0.0	227.29504108428955	
38	105.39805483818054	movie	1		182.0	36.0	2.5	/experiments/knapen_aot/videos/S_production_ID_4325513.mp4	0.0	227.30321192741394	2.5082969665527344
38	107.90635180473328	fix_post	2		12.0	36.0	2.5	/experiments/knapen_aot/videos/S_production_ID_4325513.mp4	0.0	229.81150889396667	0.10003900527954102
39	108.00639081001282	fix_pre	0		28.0	37.0	2.5	/experiments/knapen_aot/videos/R_S_flickr-lamujuri-10653517683_4.mp4	0.0	229.91154789924622	0.23325204849243164
39	108.23151397705078	response	0	4		37.0	2.5	/experiments/knapen_aot/videos/R_S_flickr-lamujuri-10653517683_4.mp4	0.0	230.13667106628418	
39	108.23964285850525	movie	1		170.0	37.0	2.5	/experiments/knapen_aot/videos/R_S_flickr-lamujuri-10653517683_4.mp4	0.0	230.14479994773865	2.5084519386291504
39	110.7480947971344	fix_post	2		12.0	37.0	2.5	/experiments/knapen_aot/videos/R_S_flickr-lamujuri-10653517683_4.mp4	0.0	232.6532518863678	0.10498714447021484
40	110.85308194160461	fix_pre	0		1.0	38.0	2.5	/experiments/knapen_aot/videos/R_S_yt-6vkiJedss6g_5.mp4	0.0	232.758239030838	0.011713027954101562
40	110.85559487342834	response	0	4		38.0	2.5	/experiments/knapen_aot/videos/R_S_yt-6vkiJedss6g_5.mp4	0.0	232.76075196266174	
40	110.86479496955872	movie	1		301.0	38.0	2.5	/experiments/knapen_aot/videos/R_S_yt-6vkiJedss6g_5.mp4	0.0	232.76995205879211	2.508136034011841
40	113.37293100357056	fix_post	2		12.0	38.0	2.5	/experiments/knapen_aot/videos/R_S_yt-6vkiJedss6g_5.mp4	0.0	235.27808809280396	0.10005402565002441
41	113.47298502922058	fix_pre	0		13.0	39.0	2.5	/experiments/knapen_aot/videos/R_S_Y002_C013_SDR_2K_AVC.mp4	0.0	235.37814211845398	0.10914397239685059
41	113.57302188873291	response	0	4		39.0	2.5	/experiments/knapen_aot/videos/R_S_Y002_C013_SDR_2K_AVC.mp4	0.0	235.4781789779663	
41	113.58212900161743	movie	1		171.0	39.0	2.5	/experiments/knapen_aot/videos/R_S_Y002_C013_SDR_2K_AVC.mp4	0.0	235.48728609085083	2.5074758529663086
41	116.08960485458374	fix_post	2		12.0	39.0	2.5	/experiments/knapen_aot/videos/R_S_Y002_C013_SDR_2K_AVC.mp4	0.0	237.99476194381714	0.10009407997131348
42	116.18969893455505	fix_pre	0		12.0	40.0	2.5	/experiments/knapen_aot/videos/R_S_yt-Xs-YKSogfak_24.mp4	0.0	238.09485602378845	0.10065889358520508
42	116.28149199485779	response	0	4		40.0	2.5	/experiments/knapen_aot/videos/R_S_yt-Xs-YKSogfak_24.mp4	0.0	238.1866490840912	
42	116.29035782814026	movie	1		301.0	40.0	2.5	/experiments/knapen_aot/videos/R_S_yt-Xs-YKSogfak_24.mp4	0.0	238.19551491737366	2.5076069831848145
42	118.79796481132507	fix_post	2		12.0	40.0	2.5	/experiments/knapen_aot/videos/R_S_yt-Xs-YKSogfak_24.mp4	0.0	240.70312190055847	0.09995818138122559
43	118.8979229927063	fix_pre	0		2.0	41.0	2.5	/experiments/knapen_aot/videos/R_S_OdxWh1oU8e8_1.mp4	0.0	240.8030800819397	0.018129825592041016
43	118.90637397766113	response	0	4		41.0	2.5	/experiments/knapen_aot/videos/R_S_OdxWh1oU8e8_1.mp4	0.0	240.81153106689453	
43	118.91605281829834	movie	1		301.0	41.0	2.5	/experiments/knapen_aot/videos/R_S_OdxWh1oU8e8_1.mp4	0.0	240.82120990753174	2.50685715675354
43	121.42290997505188	fix_post	2		12.0	41.0	2.5	/experiments/knapen_aot/videos/R_S_OdxWh1oU8e8_1.mp4	0.0	243.32806706428528	0.10018682479858398
44	121.52309679985046	fix_pre	0		25.0	42.0	2.5	blank	1.0	243.42825388908386	0.20821499824523926
44	121.72305989265442	response	0	4		42.0	2.5	blank	1.0	243.62821698188782	
44	121.7313117980957	movie	1		301.0	42.0	2.5	blank	1.0	243.6364688873291	2.508151054382324
44	124.23946285247803	fix_post	2		12.0	42.0	2.5	blank	1.0	246.14461994171143	0.1000511646270752
45	124.3395140171051	fix_pre	0		158.0	43.0	2.5	/experiments/knapen_aot/videos/R_S_yt-yPl8LcgSMjo_32.mp4	0.0	246.2446711063385	1.3166618347167969
45	125.64800786972046	response	0	2		43.0	2.5	/experiments/knapen_aot/videos/R_S_yt-yPl8LcgSMjo_32.mp4	0.0	247.55316495895386	
45	125.6561758518219	movie	1		300.0	43.0	2.5	/experiments/knapen_aot/videos/R_S_yt-yPl8LcgSMjo_32.mp4	0.0	247.5613329410553	2.508418083190918
45	125.6575539112091	response	1	4		43.0	2.5	/experiments/knapen_aot/videos/R_S_yt-yPl8LcgSMjo_32.mp4	0.0	247.5627110004425	
45	125.86690902709961	response	1	2		43.0	2.5	/experiments/knapen_aot/videos/R_S_yt-yPl8LcgSMjo_32.mp4	0.0	247.772066116333	
45	128.16459393501282	fix_post	2		12.0	43.0	2.5	/experiments/knapen_aot/videos/R_S_yt-yPl8LcgSMjo_32.mp4	0.0	250.06975102424622	0.09991097450256348
46	128.26450490951538	fix_pre	0		2.0	44.0	2.5	/experiments/knapen_aot/videos/R_S_ioSkDvwpEaU_35.mp4	0.0	250.16966199874878	0.0167849063873291
46	128.2729868888855	response	0	4		44.0	2.5	/experiments/knapen_aot/videos/R_S_ioSkDvwpEaU_35.mp4	0.0	250.1781439781189	
46	128.2812898159027	movie	1		301.0	44.0	2.5	/experiments/knapen_aot/videos/R_S_ioSkDvwpEaU_35.mp4	0.0	250.1864469051361	2.508294105529785
46	128.42312097549438	response	1	2		44.0	2.5	/experiments/knapen_aot/videos/R_S_ioSkDvwpEaU_35.mp4	0.0	250.32827806472778	
46	130.7895839214325	fix_post	2		12.0	44.0	2.5	/experiments/knapen_aot/videos/R_S_ioSkDvwpEaU_35.mp4	0.0	252.6947410106659	0.09997010231018066
47	130.88955402374268	fix_pre	0		17.0	45.0	2.5	/experiments/knapen_aot/videos/R_S_flickr-slruok-8006772217_6.mp4	0.0	252.79471111297607	0.14162182807922363
47	131.0229938030243	response	0	4		45.0	2.5	/experiments/knapen_aot/videos/R_S_flickr-slruok-8006772217_6.mp4	0.0	252.9281508922577	
47	131.0311758518219	movie	1		301.0	45.0	2.5	/experiments/knapen_aot/videos/R_S_flickr-slruok-8006772217_6.mp4	0.0	252.9363329410553	2.5082781314849854
47	131.12373089790344	response	1	2		45.0	2.5	/experiments/knapen_aot/videos/R_S_flickr-slruok-8006772217_6.mp4	0.0	253.02888798713684	
47	133.53945398330688	fix_post	2		12.0	45.0	2.5	/experiments/knapen_aot/videos/R_S_flickr-slruok-8006772217_6.mp4	0.0	255.44461107254028	0.10003900527954102
48	133.63949298858643	fix_pre	0		18.0	46.0	2.5	/experiments/knapen_aot/videos/R_S_comp_A105_C003_0212CT_FLARE_v10_SDR_PS_FINAL_20180711_SDR_2K_AVC.mp4	0.0	255.54465007781982	0.15066981315612793
48	133.77374696731567	response	0	4		46.0	2.5	/experiments/knapen_aot/videos/R_S_comp_A105_C003_0212CT_FLARE_v10_SDR_PS_FINAL_20180711_SDR_2K_AVC.mp4	0.0	255.67890405654907	
48	133.79016280174255	movie	1		168.0	46.0	2.5	/experiments/knapen_aot/videos/R_S_comp_A105_C003_0212CT_FLARE_v10_SDR_PS_FINAL_20180711_SDR_2K_AVC.mp4	0.0	255.69531989097595	2.5076441764831543
48	136.2978069782257	fix_post	2		12.0	46.0	2.5	/experiments/knapen_aot/videos/R_S_comp_A105_C003_0212CT_FLARE_v10_SDR_PS_FINAL_20180711_SDR_2K_AVC.mp4	0.0	258.2029640674591	0.1000518798828125
49	136.39785885810852	fix_pre	0		14.0	47.0	2.5	/experiments/knapen_aot/videos/S_video_inspire_uk_edinburgh_arthursseat_010.1080-h264.mp4	0.0	258.3030159473419	0.11657214164733887
49	136.50629997253418	response	0	4		47.0	2.5	/experiments/knapen_aot/videos/S_video_inspire_uk_edinburgh_arthursseat_010.1080-h264.mp4	0.0	258.4114570617676	
49	136.51443099975586	movie	1		170.0	47.0	2.5	/experiments/knapen_aot/videos/S_video_inspire_uk_edinburgh_arthursseat_010.1080-h264.mp4	0.0	258.41958808898926	2.508378028869629
49	136.69798183441162	response	1	2		47.0	2.5	/experiments/knapen_aot/videos/S_video_inspire_uk_edinburgh_arthursseat_010.1080-h264.mp4	0.0	258.603138923645	
49	139.0228090286255	fix_post	2		12.0	47.0	2.5	/experiments/knapen_aot/videos/S_video_inspire_uk_edinburgh_arthursseat_010.1080-h264.mp4	0.0	260.9279661178589	0.10122179985046387
50	139.12403082847595	fix_pre	0		2.0	48.0	2.5	blank	1.0	261.02918791770935	0.015504121780395508
50	139.13144898414612	response	0	4		48.0	2.5	blank	1.0	261.0366060733795	
50	139.13953495025635	movie	1		301.0	48.0	2.5	blank	1.0	261.04469203948975	2.5082569122314453
50	141.6477918624878	fix_post	2		12.0	48.0	2.5	blank	1.0	263.5529489517212	0.10066008567810059
51	141.7484519481659	fix_pre	0		24.0	49.0	2.5	/experiments/knapen_aot/videos/R_S_yt-IX6uxR5DSKk_2.mp4	0.0	263.6536090373993	0.1993119716644287
51	141.93951082229614	response	0	4		49.0	2.5	/experiments/knapen_aot/videos/R_S_yt-IX6uxR5DSKk_2.mp4	0.0	263.84466791152954	
51	141.94776391983032	movie	1		299.0	49.0	2.5	/experiments/knapen_aot/videos/R_S_yt-IX6uxR5DSKk_2.mp4	0.0	263.8529210090637	2.50838303565979
51	144.4561469554901	fix_post	2		12.0	49.0	2.5	/experiments/knapen_aot/videos/R_S_yt-IX6uxR5DSKk_2.mp4	0.0	266.3613040447235	0.1000368595123291
52	144.55618381500244	fix_pre	0		7.0	50.0	2.5	/experiments/knapen_aot/videos/S_Y005_C003_SDR_2K_AVC.mp4	0.0	266.46134090423584	0.06031918525695801
52	144.60699796676636	response	0	4		50.0	2.5	/experiments/knapen_aot/videos/S_Y005_C003_SDR_2K_AVC.mp4	0.0	266.51215505599976	
52	144.6165030002594	movie	1		164.0	50.0	2.5	/experiments/knapen_aot/videos/S_Y005_C003_SDR_2K_AVC.mp4	0.0	266.5216600894928	2.5062990188598633
52	147.12280201911926	fix_post	2		12.0	50.0	2.5	/experiments/knapen_aot/videos/S_Y005_C003_SDR_2K_AVC.mp4	0.0	269.02795910835266	0.09999680519104004
53	147.2227988243103	fix_pre	0		4.0	51.0	2.5	/experiments/knapen_aot/videos/R_S_yt-O_4DgW-XKvA_35.mp4	0.0	269.1279559135437	0.03342008590698242
53	147.2490038871765	response	0	4		51.0	2.5	/experiments/knapen_aot/videos/R_S_yt-O_4DgW-XKvA_35.mp4	0.0	269.1541609764099	
53	147.25621891021729	movie	1		301.0	51.0	2.5	/experiments/knapen_aot/videos/R_S_yt-O_4DgW-XKvA_35.mp4	0.0	269.1613759994507	2.50826096534729
53	147.43130087852478	response	1	2		51.0	2.5	/experiments/knapen_aot/videos/R_S_yt-O_4DgW-XKvA_35.mp4	0.0	269.3364579677582	
53	149.76447987556458	fix_post	2		12.0	51.0	2.5	/experiments/knapen_aot/videos/R_S_yt-O_4DgW-XKvA_35.mp4	0.0	271.669636964798	0.10000205039978027
54	149.86448192596436	fix_pre	0		16.0	52.0	2.5	/experiments/knapen_aot/videos/S_yt-bH4nJibL4Jo_164.mp4	0.0	271.76963901519775	0.13384008407592773
54	149.98953580856323	response	0	4		52.0	2.5	/experiments/knapen_aot/videos/S_yt-bH4nJibL4Jo_164.mp4	0.0	271.89469289779663	
54	149.99832201004028	movie	1		301.0	52.0	2.5	/experiments/knapen_aot/videos/S_yt-bH4nJibL4Jo_164.mp4	0.0	271.9034790992737	2.5077908039093018
54	152.50611281394958	fix_post	2		12.0	52.0	2.5	/experiments/knapen_aot/videos/S_yt-bH4nJibL4Jo_164.mp4	0.0	274.411269903183	0.10000419616699219
55	152.60611701011658	fix_pre	0		16.0	53.0	2.5	/experiments/knapen_aot/videos/R_S_yt-mdLT282PVbE_6.mp4	0.0	274.51127409935	0.1333467960357666
55	152.73122191429138	response	0	4		53.0	2.5	/experiments/knapen_aot/videos/R_S_yt-mdLT282PVbE_6.mp4	0.0	274.6363790035248	
55	152.73946380615234	movie	1		301.0	53.0	2.5	/experiments/knapen_aot/videos/R_S_yt-mdLT282PVbE_6.mp4	0.0	274.64462089538574	2.508254051208496
55	152.9314148426056	response	1	2		53.0	2.5	/experiments/knapen_aot/videos/R_S_yt-mdLT282PVbE_6.mp4	0.0	274.836571931839	
55	155.24771785736084	fix_post	2		12.0	53.0	2.5	/experiments/knapen_aot/videos/R_S_yt-mdLT282PVbE_6.mp4	0.0	277.15287494659424	0.10000896453857422
56	155.3477268218994	fix_pre	0		22.0	54.0	2.5	/experiments/knapen_aot/videos/R_S_wc-DgBY_btLlgBC_19.mp4	0.0	277.2528839111328	0.18333005905151367
56	155.51520800590515	response	0	4		54.0	2.5	/experiments/knapen_aot/videos/R_S_wc-DgBY_btLlgBC_19.mp4	0.0	277.42036509513855	
56	155.53105688095093	movie	1		162.0	54.0	2.5	/experiments/knapen_aot/videos/R_S_wc-DgBY_btLlgBC_19.mp4	0.0	277.4362139701843	2.508327007293701
56	158.03938388824463	fix_post	2		12.0	54.0	2.5	/experiments/knapen_aot/videos/R_S_wc-DgBY_btLlgBC_19.mp4	0.0	279.944540977478	0.09998393058776855
57	158.1393678188324	fix_pre	0		12.0	55.0	2.5	blank	1.0	280.0445249080658	0.10004115104675293
57	158.23109984397888	response	0	4		55.0	2.5	blank	1.0	280.1362569332123	
57	158.23940896987915	movie	1		301.0	55.0	2.5	blank	1.0	280.14456605911255	2.5082619190216064
57	160.74767088890076	fix_post	2		12.0	55.0	2.5	blank	1.0	282.65282797813416	0.09999608993530273
58	160.84766697883606	fix_pre	0		10.0	56.0	2.5	/experiments/knapen_aot/videos/R_S_m-aeoYPMqfg_185.mp4	0.0	282.75282406806946	0.0833590030670166
58	160.92292380332947	response	0	4		56.0	2.5	/experiments/knapen_aot/videos/R_S_m-aeoYPMqfg_185.mp4	0.0	282.82808089256287	
58	160.93102598190308	movie	1		301.0	56.0	2.5	/experiments/knapen_aot/videos/R_S_m-aeoYPMqfg_185.mp4	0.0	282.8361830711365	2.508302927017212
58	161.064386844635	response	1	2		56.0	2.5	/experiments/knapen_aot/videos/R_S_m-aeoYPMqfg_185.mp4	0.0	282.9695439338684	
58	163.4393289089203	fix_post	2		12.0	56.0	2.5	/experiments/knapen_aot/videos/R_S_m-aeoYPMqfg_185.mp4	0.0	285.3444859981537	0.10066509246826172
59	163.53999400138855	fix_pre	0		4.0	57.0	2.5	/experiments/knapen_aot/videos/S_bing-www_yahoo_com_entertainment_anastasia-karanikolaou-chantel-jeffries-discuss-182400502_html_9.mp4	0.0	285.44515109062195	0.03270292282104492
59	163.56445503234863	response	0	4		57.0	2.5	/experiments/knapen_aot/videos/S_bing-www_yahoo_com_entertainment_anastasia-karanikolaou-chantel-jeffries-discuss-182400502_html_9.mp4	0.0	285.46961212158203	
59	163.5726969242096	movie	1		163.0	57.0	2.5	/experiments/knapen_aot/videos/S_bing-www_yahoo_com_entertainment_anastasia-karanikolaou-chantel-jeffries-discuss-182400502_html_9.mp4	0.0	285.477854013443	2.5082709789276123
59	166.0809679031372	fix_post	2		11.0	57.0	2.5	/experiments/knapen_aot/videos/S_bing-www_yahoo_com_entertainment_anastasia-karanikolaou-chantel-jeffries-discuss-182400502_html_9.mp4	0.0	287.9861249923706	0.10002708435058594
60	166.1809949874878	fix_pre	0		24.0	58.0	2.5	/experiments/knapen_aot/videos/S_yt-xrWo3lnbshw_80.mp4	0.0	288.0861520767212	0.19997692108154297
60	166.37278485298157	response	0	4		58.0	2.5	/experiments/knapen_aot/videos/S_yt-xrWo3lnbshw_80.mp4	0.0	288.27794194221497	
60	166.38097190856934	movie	1		301.0	58.0	2.5	/experiments/knapen_aot/videos/S_yt-xrWo3lnbshw_80.mp4	0.0	288.28612899780273	2.508270025253296
60	168.88924193382263	fix_post	2		12.0	58.0	2.5	/experiments/knapen_aot/videos/S_yt-xrWo3lnbshw_80.mp4	0.0	290.79439902305603	0.10003900527954102
61	168.98928093910217	fix_pre	0		11.0	59.0	2.5	/experiments/knapen_aot/videos/S_yt-NZIhxK5NvWE_152.mp4	0.0	290.89443802833557	0.09212589263916016
61	169.07270288467407	response	0	4		59.0	2.5	/experiments/knapen_aot/videos/S_yt-NZIhxK5NvWE_152.mp4	0.0	290.97785997390747	
61	169.08140683174133	movie	1		301.0	59.0	2.5	/experiments/knapen_aot/videos/S_yt-NZIhxK5NvWE_152.mp4	0.0	290.98656392097473	2.507805109024048
61	171.58921194076538	fix_post	2		12.0	59.0	2.5	/experiments/knapen_aot/videos/S_yt-NZIhxK5NvWE_152.mp4	0.0	293.4943690299988	0.1000978946685791
62	171.68930983543396	fix_pre	0		14.0	60.0	2.5	/experiments/knapen_aot/videos/S_G007_C004_UHD_SDR_2K_AVC.mp4	0.0	293.59446692466736	0.11653399467468262
62	171.79769682884216	response	0	4		60.0	2.5	/experiments/knapen_aot/videos/S_G007_C004_UHD_SDR_2K_AVC.mp4	0.0	293.70285391807556	
62	171.80584383010864	movie	1		167.0	60.0	2.5	/experiments/knapen_aot/videos/S_G007_C004_UHD_SDR_2K_AVC.mp4	0.0	293.71100091934204	2.508388042449951
62	174.3142318725586	fix_post	2		12.0	60.0	2.5	/experiments/knapen_aot/videos/S_G007_C004_UHD_SDR_2K_AVC.mp4	0.0	296.219388961792	0.09998011589050293
62	174.38105988502502	response	2	4		60.0	2.5	/experiments/knapen_aot/videos/S_G007_C004_UHD_SDR_2K_AVC.mp4	0.0	296.2862169742584	
63	174.4142119884491	fix_pre	0		62.0	61.0	2.5	/experiments/knapen_aot/videos/S_yt-aiwDdJm1ek8_90.mp4	0.0	296.3193690776825	0.5179798603057861
63	174.92268681526184	response	0	4		61.0	2.5	/experiments/knapen_aot/videos/S_yt-aiwDdJm1ek8_90.mp4	0.0	296.82784390449524	
63	174.93219184875488	movie	1		300.0	61.0	2.5	/experiments/knapen_aot/videos/S_yt-aiwDdJm1ek8_90.mp4	0.0	296.8373489379883	2.507054090499878
63	177.43924593925476	fix_post	2		12.0	61.0	2.5	/experiments/knapen_aot/videos/S_yt-aiwDdJm1ek8_90.mp4	0.0	299.34440302848816	0.10000896453857422
64	177.53925490379333	fix_pre	0		17.0	62.0	2.5	/experiments/knapen_aot/videos/S_bing-www_yahoo_com_entertainment_anastasia-karanikolaou-chantel-jeffries-discuss-182400502_html_9.mp4	0.0	299.44441199302673	0.14160609245300293
64	177.67259788513184	response	0	4		62.0	2.5	/experiments/knapen_aot/videos/S_bing-www_yahoo_com_entertainment_anastasia-karanikolaou-chantel-jeffries-discuss-182400502_html_9.mp4	0.0	299.57775497436523	
64	177.68086099624634	movie	1		162.0	62.0	2.5	/experiments/knapen_aot/videos/S_bing-www_yahoo_com_entertainment_anastasia-karanikolaou-chantel-jeffries-discuss-182400502_html_9.mp4	0.0	299.58601808547974	2.508330821990967
64	180.1891918182373	fix_post	2		12.0	62.0	2.5	/experiments/knapen_aot/videos/S_bing-www_yahoo_com_entertainment_anastasia-karanikolaou-chantel-jeffries-discuss-182400502_html_9.mp4	0.0	302.0943489074707	0.10047006607055664
65	180.28966188430786	fix_pre	0		7.0	63.0	2.5	blank	1.0	302.19481897354126	0.05784010887145996
65	180.3393998146057	response	0	4		63.0	2.5	blank	1.0	302.2445569038391	
65	180.34750199317932	movie	1		301.0	63.0	2.5	blank	1.0	302.2526590824127	2.508509874343872
65	180.49758791923523	response	1	2		63.0	2.5	blank	1.0	302.4027450084686	
65	182.8560118675232	fix_post	2		12.0	63.0	2.5	blank	1.0	304.7611689567566	0.10031914710998535
66	182.95633101463318	fix_pre	0		21.0	64.0	2.5	/experiments/knapen_aot/videos/S_video_inspire_california_catalina_00005.1080-h264.mp4	0.0	304.8614881038666	0.17456698417663574
66	183.12259697914124	response	0	4		64.0	2.5	/experiments/knapen_aot/videos/S_video_inspire_california_catalina_00005.1080-h264.mp4	0.0	305.02775406837463	
66	183.13089799880981	movie	1		165.0	64.0	2.5	/experiments/knapen_aot/videos/S_video_inspire_california_catalina_00005.1080-h264.mp4	0.0	305.0360550880432	2.5083048343658447
66	185.63920283317566	fix_post	2		12.0	64.0	2.5	/experiments/knapen_aot/videos/S_video_inspire_california_catalina_00005.1080-h264.mp4	0.0	307.54435992240906	0.100006103515625
67	185.73920893669128	fix_pre	0		10.0	65.0	2.5	/experiments/knapen_aot/videos/R_S_video_inspire_sanfrancisco_castro_005.1080-h264.mp4	0.0	307.6443660259247	0.08329486846923828
67	185.81437182426453	response	0	4		65.0	2.5	/experiments/knapen_aot/videos/R_S_video_inspire_sanfrancisco_castro_005.1080-h264.mp4	0.0	307.7195289134979	
67	185.82250380516052	movie	1		168.0	65.0	2.5	/experiments/knapen_aot/videos/R_S_video_inspire_sanfrancisco_castro_005.1080-h264.mp4	0.0	307.7276608943939	2.5082712173461914
67	188.3307750225067	fix_post	2		12.0	65.0	2.5	/experiments/knapen_aot/videos/R_S_video_inspire_sanfrancisco_castro_005.1080-h264.mp4	0.0	310.2359321117401	0.1000518798828125
67	188.41426992416382	response	2	4		65.0	2.5	/experiments/knapen_aot/videos/R_S_video_inspire_sanfrancisco_castro_005.1080-h264.mp4	0.0	310.3194270133972	
68	188.43082690238953	fix_pre	0		20.0	66.0	2.5	/experiments/knapen_aot/videos/R_S_yt-IlW1U39Dga4_5.mp4	0.0	310.3359839916229	0.16665101051330566
68	188.5892848968506	response	0	2		66.0	2.5	/experiments/knapen_aot/videos/R_S_yt-IlW1U39Dga4_5.mp4	0.0	310.494441986084	
68	188.59747791290283	movie	1		301.0	66.0	2.5	/experiments/knapen_aot/videos/R_S_yt-IlW1U39Dga4_5.mp4	0.0	310.50263500213623	2.508336067199707
68	191.10581398010254	fix_post	2		12.0	66.0	2.5	/experiments/knapen_aot/videos/R_S_yt-IlW1U39Dga4_5.mp4	0.0	313.01097106933594	0.10031795501708984
68	191.18091201782227	response	2	4		66.0	2.5	/experiments/knapen_aot/videos/R_S_yt-IlW1U39Dga4_5.mp4	0.0	313.08606910705566	
69	191.20613193511963	fix_pre	0		125.0	67.0	2.5	/experiments/knapen_aot/videos/R_S_yt-bhiGMKSAz2g_370.mp4	0.0	313.111289024353	1.0417258739471436
69	192.23171997070312	response	0	4		67.0	2.5	/experiments/knapen_aot/videos/R_S_yt-bhiGMKSAz2g_370.mp4	0.0	314.1368770599365	
69	192.24785780906677	movie	1		301.0	67.0	2.5	/experiments/knapen_aot/videos/R_S_yt-bhiGMKSAz2g_370.mp4	0.0	314.15301489830017	2.5078840255737305
69	192.41452383995056	response	1	2		67.0	2.5	/experiments/knapen_aot/videos/R_S_yt-bhiGMKSAz2g_370.mp4	0.0	314.31968092918396	
69	194.7557418346405	fix_post	2		12.0	67.0	2.5	/experiments/knapen_aot/videos/R_S_yt-bhiGMKSAz2g_370.mp4	0.0	316.6608989238739	0.1000211238861084
70	194.8557629585266	fix_pre	0		27.0	68.0	2.5	blank	1.0	316.76092004776	0.22536993026733398
70	195.0724778175354	response	0	4		68.0	2.5	blank	1.0	316.9776349067688	
70	195.08113288879395	movie	1		301.0	68.0	2.5	blank	1.0	316.98628997802734	2.507957935333252
70	197.5890908241272	fix_post	2		12.0	68.0	2.5	blank	1.0	319.4942479133606	0.09994101524353027
71	197.68903183937073	fix_pre	0		22.0	69.0	2.5	/experiments/knapen_aot/videos/R_S_yt-2IN85w8ptmM_51.mp4	0.0	319.5941889286041	0.18369412422180176
71	197.8642020225525	response	0	4		69.0	2.5	/experiments/knapen_aot/videos/R_S_yt-2IN85w8ptmM_51.mp4	0.0	319.7693591117859	
71	197.87272596359253	movie	1		301.0	69.0	2.5	/experiments/knapen_aot/videos/R_S_yt-2IN85w8ptmM_51.mp4	0.0	319.7778830528259	2.508035898208618
71	200.38076186180115	fix_post	2		12.0	69.0	2.5	/experiments/knapen_aot/videos/R_S_yt-2IN85w8ptmM_51.mp4	0.0	322.28591895103455	0.1000051498413086
72	200.48076701164246	fix_pre	0		17.0	70.0	2.5	/experiments/knapen_aot/videos/R_S_yt-F1X_vq0Zioc_154.mp4	0.0	322.38592410087585	0.1419379711151123
72	200.61417889595032	response	0	4		70.0	2.5	/experiments/knapen_aot/videos/R_S_yt-F1X_vq0Zioc_154.mp4	0.0	322.5193359851837	
72	200.62270498275757	movie	1		301.0	70.0	2.5	/experiments/knapen_aot/videos/R_S_yt-F1X_vq0Zioc_154.mp4	0.0	322.52786207199097	2.5079898834228516
72	203.13069486618042	fix_post	2		12.0	70.0	2.5	/experiments/knapen_aot/videos/R_S_yt-F1X_vq0Zioc_154.mp4	0.0	325.0358519554138	0.10001897811889648
73	203.23071384429932	fix_pre	0		16.0	71.0	2.5	/experiments/knapen_aot/videos/R_S_yt-7bSTxOajpjc_58.mp4	0.0	325.1358709335327	0.13333702087402344
73	203.35585689544678	response	0	4		71.0	2.5	/experiments/knapen_aot/videos/R_S_yt-7bSTxOajpjc_58.mp4	0.0	325.2610139846802	
73	203.36405086517334	movie	1		300.0	71.0	2.5	/experiments/knapen_aot/videos/R_S_yt-7bSTxOajpjc_58.mp4	0.0	325.26920795440674	2.5083069801330566
73	205.8723578453064	fix_post	2		12.0	71.0	2.5	/experiments/knapen_aot/videos/R_S_yt-7bSTxOajpjc_58.mp4	0.0	327.7775149345398	0.09997200965881348
74	205.9723298549652	fix_pre	0		8.0	72.0	2.5	/experiments/knapen_aot/videos/S_comp_A105_C003_0212CT_FLARE_v10_SDR_PS_FINAL_20180711_SDR_2K_AVC.mp4	0.0	327.8774869441986	0.06693100929260254
74	206.03077387809753	response	0	4		72.0	2.5	/experiments/knapen_aot/videos/S_comp_A105_C003_0212CT_FLARE_v10_SDR_PS_FINAL_20180711_SDR_2K_AVC.mp4	0.0	327.93593096733093	
74	206.0392608642578	movie	1		162.0	72.0	2.5	/experiments/knapen_aot/videos/S_comp_A105_C003_0212CT_FLARE_v10_SDR_PS_FINAL_20180711_SDR_2K_AVC.mp4	0.0	327.9444179534912	2.5081260204315186
74	208.54738688468933	fix_post	2		12.0	72.0	2.5	/experiments/knapen_aot/videos/S_comp_A105_C003_0212CT_FLARE_v10_SDR_PS_FINAL_20180711_SDR_2K_AVC.mp4	0.0	330.45254397392273	0.10001492500305176
75	208.64740180969238	fix_pre	0		8.0	73.0	2.5	/experiments/knapen_aot/videos/R_S_yt-0bovQBIUZho_15.mp4	0.0	330.5525588989258	0.06674814224243164
75	208.70623803138733	response	0	4		73.0	2.5	/experiments/knapen_aot/videos/R_S_yt-0bovQBIUZho_15.mp4	0.0	330.6113951206207	
75	208.71414995193481	movie	1		301.0	73.0	2.5	/experiments/knapen_aot/videos/R_S_yt-0bovQBIUZho_15.mp4	0.0	330.6193070411682	2.508236885070801
75	211.22238683700562	fix_post	2		12.0	73.0	2.5	/experiments/knapen_aot/videos/R_S_yt-0bovQBIUZho_15.mp4	0.0	333.127543926239	0.09994196891784668
76	211.32232880592346	fix_pre	0		13.0	74.0	2.5	/experiments/knapen_aot/videos/S_comp_A001_C004_1207W5_v23_SDR_FINAL_20180706_SDR_2K_AVC.mp4	0.0	333.22748589515686	0.10834503173828125
76	211.42249083518982	response	0	4		74.0	2.5	/experiments/knapen_aot/videos/S_comp_A001_C004_1207W5_v23_SDR_FINAL_20180706_SDR_2K_AVC.mp4	0.0	333.3276479244232	
76	211.43067383766174	movie	1		163.0	74.0	2.5	/experiments/knapen_aot/videos/S_comp_A001_C004_1207W5_v23_SDR_FINAL_20180706_SDR_2K_AVC.mp4	0.0	333.33583092689514	2.508341073989868
76	213.9390149116516	fix_post	2		12.0	74.0	2.5	/experiments/knapen_aot/videos/S_comp_A001_C004_1207W5_v23_SDR_FINAL_20180706_SDR_2K_AVC.mp4	0.0	335.844172000885	0.10019898414611816
77	214.03921389579773	fix_pre	0		8.0	75.0	2.5	blank	1.0	335.9443709850311	0.06644701957702637
77	214.09748482704163	response	0	4		75.0	2.5	blank	1.0	336.002641916275	
77	214.10566091537476	movie	1		301.0	75.0	2.5	blank	1.0	336.01081800460815	2.5082900524139404
77	216.6139509677887	fix_post	2		12.0	75.0	2.5	blank	1.0	338.5191080570221	0.09993386268615723
78	216.71388483047485	fix_pre	0		20.0	76.0	2.5	/experiments/knapen_aot/videos/S_yt-wjBwgccZM5k_150.mp4	0.0	338.61904191970825	0.16663002967834473
78	216.86505103111267	response	0	4		76.0	2.5	/experiments/knapen_aot/videos/S_yt-wjBwgccZM5k_150.mp4	0.0	338.77020812034607	
78	216.8805148601532	movie	1		301.0	76.0	2.5	/experiments/knapen_aot/videos/S_yt-wjBwgccZM5k_150.mp4	0.0	338.7856719493866	2.508350133895874
78	219.17242193222046	response	1	4		76.0	2.5	/experiments/knapen_aot/videos/S_yt-wjBwgccZM5k_150.mp4	0.0	341.07757902145386	
78	219.38886499404907	fix_post	2		12.0	76.0	2.5	/experiments/knapen_aot/videos/S_yt-wjBwgccZM5k_150.mp4	0.0	341.29402208328247	0.10005784034729004
79	219.48892283439636	fix_pre	0		53.0	77.0	2.5	/experiments/knapen_aot/videos/S_yt-EuyfT0PuOoQ_91.mp4	0.0	341.39407992362976	0.44165515899658203
79	219.91484785079956	response	0	4		77.0	2.5	/experiments/knapen_aot/videos/S_yt-EuyfT0PuOoQ_91.mp4	0.0	341.82000494003296	
79	219.93057799339294	movie	1		300.0	77.0	2.5	/experiments/knapen_aot/videos/S_yt-EuyfT0PuOoQ_91.mp4	0.0	341.83573508262634	2.5083749294281006
79	222.43895292282104	fix_post	2		12.0	77.0	2.5	/experiments/knapen_aot/videos/S_yt-EuyfT0PuOoQ_91.mp4	0.0	344.34411001205444	0.10019207000732422
80	222.53914499282837	fix_pre	0		14.0	78.0	2.5	/experiments/knapen_aot/videos/R_S_bing-www_dailymotion_com_video_x4kcklg_53.mp4	0.0	344.44430208206177	0.11643600463867188
80	222.64744901657104	response	0	4		78.0	2.5	/experiments/knapen_aot/videos/R_S_bing-www_dailymotion_com_video_x4kcklg_53.mp4	0.0	344.55260610580444	
80	222.65558099746704	movie	1		162.0	78.0	2.5	/experiments/knapen_aot/videos/R_S_bing-www_dailymotion_com_video_x4kcklg_53.mp4	0.0	344.56073808670044	2.508495807647705
80	225.16407680511475	fix_post	2		12.0	78.0	2.5	/experiments/knapen_aot/videos/R_S_bing-www_dailymotion_com_video_x4kcklg_53.mp4	0.0	347.06923389434814	0.09985899925231934
81	225.26393580436707	fix_pre	0		34.0	79.0	2.5	/experiments/knapen_aot/videos/S_yt-pOCEuqVE7ro_61.mp4	0.0	347.16909289360046	0.28324007987976074
81	225.5390110015869	response	0	4		79.0	2.5	/experiments/knapen_aot/videos/S_yt-pOCEuqVE7ro_61.mp4	0.0	347.4441680908203	
81	225.54717588424683	movie	1		301.0	79.0	2.5	/experiments/knapen_aot/videos/S_yt-pOCEuqVE7ro_61.mp4	0.0	347.4523329734802	2.50832200050354
81	228.05549788475037	fix_post	2		12.0	79.0	2.5	/experiments/knapen_aot/videos/S_yt-pOCEuqVE7ro_61.mp4	0.0	349.96065497398376	0.10000896453857422
82	228.15550684928894	fix_pre	0		20.0	80.0	2.5	/experiments/knapen_aot/videos/R_S_comp_A001_C004_1207W5_v23_SDR_FINAL_20180706_SDR_2K_AVC.mp4	0.0	350.06066393852234	0.16668105125427246
82	228.30659198760986	response	0	4		80.0	2.5	/experiments/knapen_aot/videos/R_S_comp_A001_C004_1207W5_v23_SDR_FINAL_20180706_SDR_2K_AVC.mp4	0.0	350.21174907684326	
82	228.3221879005432	movie	1		165.0	80.0	2.5	/experiments/knapen_aot/videos/R_S_comp_A001_C004_1207W5_v23_SDR_FINAL_20180706_SDR_2K_AVC.mp4	0.0	350.2273449897766	2.5084049701690674
82	230.83059287071228	fix_post	2		12.0	80.0	2.5	/experiments/knapen_aot/videos/R_S_comp_A001_C004_1207W5_v23_SDR_FINAL_20180706_SDR_2K_AVC.mp4	0.0	352.7357499599457	0.09992599487304688
83	230.93051886558533	fix_pre	0		4.0	81.0	2.5	/experiments/knapen_aot/videos/R_S_BO_A014_C023_SDR_20190717_F240F3709_SDR_2K_AVC.mp4	0.0	352.8356759548187	0.03330397605895996
83	230.94869995117188	response	0	4		81.0	2.5	/experiments/knapen_aot/videos/R_S_BO_A014_C023_SDR_20190717_F240F3709_SDR_2K_AVC.mp4	0.0	352.8538570404053	
83	230.9638228416443	movie	1		168.0	81.0	2.5	/experiments/knapen_aot/videos/R_S_BO_A014_C023_SDR_20190717_F240F3709_SDR_2K_AVC.mp4	0.0	352.8689799308777	2.5082340240478516
83	233.47205686569214	fix_post	2		12.0	81.0	2.5	/experiments/knapen_aot/videos/R_S_BO_A014_C023_SDR_20190717_F240F3709_SDR_2K_AVC.mp4	0.0	355.37721395492554	0.1000969409942627
83	233.5139570236206	response	2	4		81.0	2.5	/experiments/knapen_aot/videos/R_S_BO_A014_C023_SDR_20190717_F240F3709_SDR_2K_AVC.mp4	0.0	355.419114112854	
84	233.5721538066864	fix_pre	0		58.0	82.0	2.5	/experiments/knapen_aot/videos/S_wc-lItGMdwvEd_l_7.mp4	0.0	355.4773108959198	0.4832780361175537
84	234.0396490097046	response	0	4		82.0	2.5	/experiments/knapen_aot/videos/S_wc-lItGMdwvEd_l_7.mp4	0.0	355.944806098938	
84	234.05543184280396	movie	1		162.0	82.0	2.5	/experiments/knapen_aot/videos/S_wc-lItGMdwvEd_l_7.mp4	0.0	355.96058893203735	2.5083611011505127
84	236.56379294395447	fix_post	2		12.0	82.0	2.5	/experiments/knapen_aot/videos/S_wc-lItGMdwvEd_l_7.mp4	0.0	358.46895003318787	0.10010695457458496
85	236.66389989852905	fix_pre	0		24.0	83.0	2.5	blank	1.0	358.56905698776245	0.19980192184448242
85	236.8555748462677	response	0	4		83.0	2.5	blank	1.0	358.7607319355011	
85	236.86370182037354	movie	1		301.0	83.0	2.5	blank	1.0	358.76885890960693	2.508498191833496
85	239.37220001220703	fix_post	2		12.0	83.0	2.5	blank	1.0	361.27735710144043	0.09992098808288574
87	239.47212100028992	stim	0		367.0					361.3772780895233	3.059814929962158
87	239.63888382911682	response	0	4						361.5440409183502	
87	242.526948928833	response	0	space						364.4321060180664	
