trial_nr	onset	event_type	phase	response	nr_frames	movie_index	movie_duration	movie_file	blank	onset_abs	duration
0	0.15799307823181152	stim	0		55.0					61.9086229801178	0.4586629867553711
0	0.608910083770752	response	0	space						62.35953998565674	
1	0.6166560649871826	stim	0		121.0					62.36728596687317	1.0082740783691406
1	1.1514129638671875	response	0	space						62.902042865753174	
1	1.5594031810760498	response	0	space						63.310033082962036	
1	1.6249301433563232	stim	1		120.0					63.37556004524231	0.9996428489685059
1	2.016402006149292	response	1	space						63.76703190803528	
2	2.624572992324829	fix_pre	0		5.0	0.0	2.5	/experiments/knapen_aot/oldvideos/R_S_yt-mmvWYAttrIw_2.mp4	0.0	64.37520289421082	0.04169607162475586
2	2.658182144165039	response	0	space		0.0	2.5	/experiments/knapen_aot/oldvideos/R_S_yt-mmvWYAttrIw_2.mp4	0.0	64.40881204605103	
2	2.666269063949585	movie	1		299.0	0.0	2.5	/experiments/knapen_aot/oldvideos/R_S_yt-mmvWYAttrIw_2.mp4	0.0	64.41689896583557	2.508291006088257
2	2.7152321338653564	response	1	4		0.0	2.5	/experiments/knapen_aot/oldvideos/R_S_yt-mmvWYAttrIw_2.mp4	0.0	64.46586203575134	
2	5.174560070037842	fix_post	2		12.0	0.0	2.5	/experiments/knapen_aot/oldvideos/R_S_yt-mmvWYAttrIw_2.mp4	0.0	66.92518997192383	0.10003495216369629
3	5.274595022201538	fix_pre	0		106.0	1.0	2.5	/experiments/knapen_aot/oldvideos/R_S_yt-7NjoFHBdP7c_102.mp4	0.0	67.02522492408752	0.8834760189056396
3	6.149734020233154	response	0	4		1.0	2.5	/experiments/knapen_aot/oldvideos/R_S_yt-7NjoFHBdP7c_102.mp4	0.0	67.90036392211914	
3	6.158071041107178	movie	1		301.0	1.0	2.5	/experiments/knapen_aot/oldvideos/R_S_yt-7NjoFHBdP7c_102.mp4	0.0	67.90870094299316	2.508420944213867
3	8.666491985321045	fix_post	2		12.0	1.0	2.5	/experiments/knapen_aot/oldvideos/R_S_yt-7NjoFHBdP7c_102.mp4	0.0	70.41712188720703	0.09979510307312012
4	8.766287088394165	fix_pre	0		68.0	2.0	2.5	/experiments/knapen_aot/oldvideos/R_S_yt-ibDaDIEazxg_3.mp4	0.0	70.51691699028015	0.5665838718414307
4	9.32469916343689	response	0	4		2.0	2.5	/experiments/knapen_aot/oldvideos/R_S_yt-ibDaDIEazxg_3.mp4	0.0	71.07532906532288	
4	9.332870960235596	movie	1		301.0	2.0	2.5	/experiments/knapen_aot/oldvideos/R_S_yt-ibDaDIEazxg_3.mp4	0.0	71.08350086212158	2.5083231925964355
4	11.841194152832031	fix_post	2		12.0	2.0	2.5	/experiments/knapen_aot/oldvideos/R_S_yt-ibDaDIEazxg_3.mp4	0.0	73.59182405471802	0.10001993179321289
5	11.941214084625244	fix_pre	0		43.0	3.0	2.5	/experiments/knapen_aot/oldvideos/R_S_yt-9mWz93En7Gw_97.mp4	0.0	73.69184398651123	0.35828399658203125
5	12.291311979293823	response	0	4		3.0	2.5	/experiments/knapen_aot/oldvideos/R_S_yt-9mWz93En7Gw_97.mp4	0.0	74.04194188117981	
5	12.299498081207275	movie	1		301.0	3.0	2.5	/experiments/knapen_aot/oldvideos/R_S_yt-9mWz93En7Gw_97.mp4	0.0	74.05012798309326	2.5083680152893066
5	14.807866096496582	fix_post	2		12.0	3.0	2.5	/experiments/knapen_aot/oldvideos/R_S_yt-9mWz93En7Gw_97.mp4	0.0	76.55849599838257	0.09995293617248535
6	14.907819032669067	fix_pre	0		51.0	4.0	2.5	/experiments/knapen_aot/oldvideos/R_S_yt-XUnZ7FbBtvk_162.mp4	0.0	76.65844893455505	0.42496705055236816
6	15.324661016464233	response	0	4		4.0	2.5	/experiments/knapen_aot/oldvideos/R_S_yt-XUnZ7FbBtvk_162.mp4	0.0	77.07529091835022	
6	15.332786083221436	movie	1		301.0	4.0	2.5	/experiments/knapen_aot/oldvideos/R_S_yt-XUnZ7FbBtvk_162.mp4	0.0	77.08341598510742	2.508366107940674
6	17.84115219116211	fix_post	2		12.0	4.0	2.5	/experiments/knapen_aot/oldvideos/R_S_yt-XUnZ7FbBtvk_162.mp4	0.0	79.5917820930481	0.10041189193725586
7	17.941564083099365	fix_pre	0		43.0	5.0	2.5	/experiments/knapen_aot/oldvideos/R_S_goAwcQiFu1Q_99.mp4	0.0	79.69219398498535	0.35794806480407715
7	18.291311979293823	response	0	4		5.0	2.5	/experiments/knapen_aot/oldvideos/R_S_goAwcQiFu1Q_99.mp4	0.0	80.04194188117981	
7	18.299512147903442	movie	1		301.0	5.0	2.5	/experiments/knapen_aot/oldvideos/R_S_goAwcQiFu1Q_99.mp4	0.0	80.05014204978943	2.5083749294281006
7	20.807887077331543	fix_post	2		12.0	5.0	2.5	/experiments/knapen_aot/oldvideos/R_S_goAwcQiFu1Q_99.mp4	0.0	82.55851697921753	0.09987902641296387
8	20.907766103744507	fix_pre	0		63.0	6.0	2.5	/experiments/knapen_aot/oldvideos/R_S_yt-bOgChEHiroI_20.mp4	0.0	82.6583960056305	0.5250358581542969
8	21.424633026123047	response	0	4		6.0	2.5	/experiments/knapen_aot/oldvideos/R_S_yt-bOgChEHiroI_20.mp4	0.0	83.17526292800903	
8	21.432801961898804	movie	1		301.0	6.0	2.5	/experiments/knapen_aot/oldvideos/R_S_yt-bOgChEHiroI_20.mp4	0.0	83.18343186378479	2.508352041244507
8	23.94115400314331	fix_post	2		12.0	6.0	2.5	/experiments/knapen_aot/oldvideos/R_S_yt-bOgChEHiroI_20.mp4	0.0	85.6917839050293	0.09991216659545898
9	24.04106616973877	fix_pre	0		41.0	7.0	2.5	blank	1.0	85.79169607162476	0.3417208194732666
9	24.374622106552124	response	0	4		7.0	2.5	blank	1.0	86.12525200843811	
9	24.382786989212036	movie	1		301.0	7.0	2.5	blank	1.0	86.13341689109802	2.508479118347168
9	26.891266107559204	fix_post	2		12.0	7.0	2.5	blank	1.0	88.64189600944519	0.09987306594848633
10	26.99113917350769	fix_pre	0		88.0	8.0	2.5	/experiments/knapen_aot/oldvideos/R_S_comp_A001_C004_1207W5_v23_SDR_FINAL_20180706_SDR_2K_AVC.mp4	0.0	88.74176907539368	0.7332718372344971
10	27.716246128082275	response	0	4		8.0	2.5	/experiments/knapen_aot/oldvideos/R_S_comp_A001_C004_1207W5_v23_SDR_FINAL_20180706_SDR_2K_AVC.mp4	0.0	89.46687602996826	
10	27.724411010742188	movie	1		165.0	8.0	2.5	/experiments/knapen_aot/oldvideos/R_S_comp_A001_C004_1207W5_v23_SDR_FINAL_20180706_SDR_2K_AVC.mp4	0.0	89.47504091262817	2.5083839893341064
10	30.232795000076294	fix_post	2		12.0	8.0	2.5	/experiments/knapen_aot/oldvideos/R_S_comp_A001_C004_1207W5_v23_SDR_FINAL_20180706_SDR_2K_AVC.mp4	0.0	91.98342490196228	0.0999760627746582
11	30.332771062850952	fix_pre	0		52.0	9.0	2.5	/experiments/knapen_aot/oldvideos/R_S_flickr-lamujuri-10653517683_4.mp4	0.0	92.08340096473694	0.43329811096191406
11	30.750581979751587	response	0	4		9.0	2.5	/experiments/knapen_aot/oldvideos/R_S_flickr-lamujuri-10653517683_4.mp4	0.0	92.50121188163757	
11	30.766069173812866	movie	1		169.0	9.0	2.5	/experiments/knapen_aot/oldvideos/R_S_flickr-lamujuri-10653517683_4.mp4	0.0	92.51669907569885	2.5083839893341064
11	33.27445316314697	fix_post	2		12.0	9.0	2.5	/experiments/knapen_aot/oldvideos/R_S_flickr-lamujuri-10653517683_4.mp4	0.0	95.02508306503296	0.0999758243560791
12	33.37442898750305	fix_pre	0		36.0	10.0	2.5	/experiments/knapen_aot/oldvideos/S_pexels-roman-odintsov-8231493.mp4	0.0	95.12505888938904	0.3000221252441406
12	33.666330099105835	response	0	4		10.0	2.5	/experiments/knapen_aot/oldvideos/S_pexels-roman-odintsov-8231493.mp4	0.0	95.41696000099182	
12	33.67445111274719	movie	1		206.0	10.0	2.5	/experiments/knapen_aot/oldvideos/S_pexels-roman-odintsov-8231493.mp4	0.0	95.42508101463318	2.5084240436553955
12	36.18287515640259	fix_post	2		12.0	10.0	2.5	/experiments/knapen_aot/oldvideos/S_pexels-roman-odintsov-8231493.mp4	0.0	97.93350505828857	0.09989786148071289
13	36.2827730178833	fix_pre	0		37.0	11.0	2.5	/experiments/knapen_aot/oldvideos/R_S_yt-bH4nJibL4Jo_164.mp4	0.0	98.03340291976929	0.3082880973815918
13	36.58286905288696	response	0	4		11.0	2.5	/experiments/knapen_aot/oldvideos/R_S_yt-bH4nJibL4Jo_164.mp4	0.0	98.33349895477295	
13	36.59106111526489	movie	1		301.0	11.0	2.5	/experiments/knapen_aot/oldvideos/R_S_yt-bH4nJibL4Jo_164.mp4	0.0	98.34169101715088	2.5083670616149902
13	39.09942817687988	fix_post	2		12.0	11.0	2.5	/experiments/knapen_aot/oldvideos/R_S_yt-bH4nJibL4Jo_164.mp4	0.0	100.85005807876587	0.09998893737792969
14	39.19941711425781	fix_pre	0		31.0	12.0	2.5	/experiments/knapen_aot/oldvideos/S_yt-c5IgOXX8YZ0_24.mp4	0.0	100.9500470161438	0.2583169937133789
14	39.449620962142944	response	0	4		12.0	2.5	/experiments/knapen_aot/oldvideos/S_yt-c5IgOXX8YZ0_24.mp4	0.0	101.20025086402893	
14	39.45773410797119	movie	1		301.0	12.0	2.5	/experiments/knapen_aot/oldvideos/S_yt-c5IgOXX8YZ0_24.mp4	0.0	101.20836400985718	2.5083539485931396
14	41.96608805656433	fix_post	2		12.0	12.0	2.5	/experiments/knapen_aot/oldvideos/S_yt-c5IgOXX8YZ0_24.mp4	0.0	103.71671795845032	0.1001749038696289
15	42.06626296043396	fix_pre	0		60.0	13.0	2.5	/experiments/knapen_aot/oldvideos/R_S_yt-2IxVZeiSv3g_28.mp4	0.0	103.81689286231995	0.5000040531158447
15	42.55777406692505	response	0	4		13.0	2.5	/experiments/knapen_aot/oldvideos/R_S_yt-2IxVZeiSv3g_28.mp4	0.0	104.30840396881104	
15	42.566267013549805	movie	1		301.0	13.0	2.5	/experiments/knapen_aot/oldvideos/R_S_yt-2IxVZeiSv3g_28.mp4	0.0	104.31689691543579	2.508162021636963
15	45.07442903518677	fix_post	2		12.0	13.0	2.5	/experiments/knapen_aot/oldvideos/R_S_yt-2IxVZeiSv3g_28.mp4	0.0	106.82505893707275	0.10002899169921875
16	45.174458026885986	fix_pre	0		44.0	14.0	2.5	blank	1.0	106.92508792877197	0.36653614044189453
16	45.532822132110596	response	0	4		14.0	2.5	blank	1.0	107.28345203399658	
16	45.54099416732788	movie	1		301.0	14.0	2.5	blank	1.0	107.29162406921387	2.5084118843078613
16	48.04940605163574	fix_post	2		12.0	14.0	2.5	blank	1.0	109.80003595352173	0.1001899242401123
17	48.149595975875854	fix_pre	0		39.0	15.0	2.5	/experiments/knapen_aot/oldvideos/R_S_yt-N7ztk2fa3Ls_137.mp4	0.0	109.90022587776184	0.3247501850128174
17	48.466164112091064	response	0	4		15.0	2.5	/experiments/knapen_aot/oldvideos/R_S_yt-N7ztk2fa3Ls_137.mp4	0.0	110.21679401397705	
17	48.47434616088867	movie	1		301.0	15.0	2.5	/experiments/knapen_aot/oldvideos/R_S_yt-N7ztk2fa3Ls_137.mp4	0.0	110.22497606277466	2.5083558559417725
17	50.982702016830444	fix_post	2		12.0	15.0	2.5	/experiments/knapen_aot/oldvideos/R_S_yt-N7ztk2fa3Ls_137.mp4	0.0	112.73333191871643	0.09999608993530273
18	51.08269810676575	fix_pre	0		31.0	16.0	2.5	/experiments/knapen_aot/oldvideos/R_S_3WAnGcPubBY_179.mp4	0.0	112.83332800865173	0.2583589553833008
18	51.33284115791321	response	0	4		16.0	2.5	/experiments/knapen_aot/oldvideos/R_S_3WAnGcPubBY_179.mp4	0.0	113.0834710597992	
18	51.34105706214905	movie	1		301.0	16.0	2.5	/experiments/knapen_aot/oldvideos/R_S_3WAnGcPubBY_179.mp4	0.0	113.09168696403503	2.508342981338501
18	53.84940004348755	fix_post	2		12.0	16.0	2.5	/experiments/knapen_aot/oldvideos/R_S_3WAnGcPubBY_179.mp4	0.0	115.60002994537354	0.10002994537353516
19	53.949429988861084	fix_pre	0		32.0	17.0	2.5	/experiments/knapen_aot/oldvideos/S_yt-y6JsUW0eSW8_32.mp4	0.0	115.70005989074707	0.2665979862213135
19	54.207839012145996	response	0	4		17.0	2.5	/experiments/knapen_aot/oldvideos/S_yt-y6JsUW0eSW8_32.mp4	0.0	115.95846891403198	
19	54.2160279750824	movie	1		301.0	17.0	2.5	/experiments/knapen_aot/oldvideos/S_yt-y6JsUW0eSW8_32.mp4	0.0	115.96665787696838	2.5084290504455566
19	56.724457025527954	fix_post	2		12.0	17.0	2.5	/experiments/knapen_aot/oldvideos/S_yt-y6JsUW0eSW8_32.mp4	0.0	118.47508692741394	0.10001707077026367
20	56.82447409629822	fix_pre	0		62.0	18.0	2.5	/experiments/knapen_aot/oldvideos/S_yt-7K5X1G7Cpls_965.mp4	0.0	118.5751039981842	0.5166559219360352
20	57.332866191864014	response	0	4		18.0	2.5	/experiments/knapen_aot/oldvideos/S_yt-7K5X1G7Cpls_965.mp4	0.0	119.08349609375	
20	57.34113001823425	movie	1		301.0	18.0	2.5	/experiments/knapen_aot/oldvideos/S_yt-7K5X1G7Cpls_965.mp4	0.0	119.09175992012024	2.5082240104675293
20	59.84935402870178	fix_post	2		12.0	18.0	2.5	/experiments/knapen_aot/oldvideos/S_yt-7K5X1G7Cpls_965.mp4	0.0	121.59998393058777	0.09992408752441406
21	59.949278116226196	fix_pre	0		71.0	19.0	2.5	/experiments/knapen_aot/oldvideos/R_S_yt_R-SwXr0ScjD9o_20.mp4	0.0	121.69990801811218	0.5916769504547119
21	60.53270506858826	response	0	4		19.0	2.5	/experiments/knapen_aot/oldvideos/R_S_yt_R-SwXr0ScjD9o_20.mp4	0.0	122.28333497047424	
21	60.54095506668091	movie	1		301.0	19.0	2.5	/experiments/knapen_aot/oldvideos/R_S_yt_R-SwXr0ScjD9o_20.mp4	0.0	122.2915849685669	2.508378028869629
21	63.04933309555054	fix_post	2		12.0	19.0	2.5	/experiments/knapen_aot/oldvideos/R_S_yt_R-SwXr0ScjD9o_20.mp4	0.0	124.79996299743652	0.10019993782043457
22	63.14953303337097	fix_pre	0		16.0	20.0	2.5	/experiments/knapen_aot/oldvideos/R_S_yt--WPE_4bqQXc_26.mp4	0.0	124.90016293525696	0.1330721378326416
22	63.27446413040161	response	0	4		20.0	2.5	/experiments/knapen_aot/oldvideos/R_S_yt--WPE_4bqQXc_26.mp4	0.0	125.0250940322876	
22	63.28260517120361	movie	1		297.0	20.0	2.5	/experiments/knapen_aot/oldvideos/R_S_yt--WPE_4bqQXc_26.mp4	0.0	125.0332350730896	2.508302927017212
22	65.79090809822083	fix_post	2		12.0	20.0	2.5	/experiments/knapen_aot/oldvideos/R_S_yt--WPE_4bqQXc_26.mp4	0.0	127.54153800010681	0.10027194023132324
23	65.89118003845215	fix_pre	0		61.0	21.0	2.5	blank	1.0	127.64180994033813	0.5082221031188965
23	66.39116311073303	response	0	4		21.0	2.5	blank	1.0	128.14179301261902	
23	66.39940214157104	movie	1		301.0	21.0	2.5	blank	1.0	128.15003204345703	2.508244037628174
23	68.90764617919922	fix_post	2		12.0	21.0	2.5	blank	1.0	130.6582760810852	0.09998583793640137
24	69.00763201713562	fix_pre	0		96.0	22.0	2.5	/experiments/knapen_aot/oldvideos/R_S_yt-3JApfnMu5cU_378.mp4	0.0	130.7582619190216	0.7999320030212402
24	69.79940009117126	response	0	4		22.0	2.5	/experiments/knapen_aot/oldvideos/R_S_yt-3JApfnMu5cU_378.mp4	0.0	131.55002999305725	
24	69.80756402015686	movie	1		301.0	22.0	2.5	/experiments/knapen_aot/oldvideos/R_S_yt-3JApfnMu5cU_378.mp4	0.0	131.55819392204285	2.5085561275482178
24	72.31612014770508	fix_post	2		12.0	22.0	2.5	/experiments/knapen_aot/oldvideos/R_S_yt-3JApfnMu5cU_378.mp4	0.0	134.06675004959106	0.09984588623046875
25	72.41596603393555	fix_pre	0		27.0	23.0	2.5	/experiments/knapen_aot/oldvideos/R_S_yt-f9iXELY0EJ0_344.mp4	0.0	134.16659593582153	0.224931001663208
25	72.63270115852356	response	0	4		23.0	2.5	/experiments/knapen_aot/oldvideos/R_S_yt-f9iXELY0EJ0_344.mp4	0.0	134.38333106040955	
25	72.64089703559875	movie	1		301.0	23.0	2.5	/experiments/knapen_aot/oldvideos/R_S_yt-f9iXELY0EJ0_344.mp4	0.0	134.39152693748474	2.5085480213165283
25	75.14944505691528	fix_post	2		12.0	23.0	2.5	/experiments/knapen_aot/oldvideos/R_S_yt-f9iXELY0EJ0_344.mp4	0.0	136.90007495880127	0.09993195533752441
26	75.24937701225281	fix_pre	0		203.0	24.0	2.5	/experiments/knapen_aot/oldvideos/S_yt-mmvWYAttrIw_2.mp4	0.0	137.0000069141388	1.691603183746338
26	76.9327540397644	response	0	4		24.0	2.5	/experiments/knapen_aot/oldvideos/S_yt-mmvWYAttrIw_2.mp4	0.0	138.6833839416504	
26	76.94098019599915	movie	1		301.0	24.0	2.5	/experiments/knapen_aot/oldvideos/S_yt-mmvWYAttrIw_2.mp4	0.0	138.69161009788513	2.5083038806915283
26	79.44928407669067	fix_post	2		12.0	24.0	2.5	/experiments/knapen_aot/oldvideos/S_yt-mmvWYAttrIw_2.mp4	0.0	141.19991397857666	0.09999895095825195
27	79.54928302764893	fix_pre	0		78.0	25.0	2.5	/experiments/knapen_aot/oldvideos/R_S_yt-7K5X1G7Cpls_965.mp4	0.0	141.2999129295349	0.6499111652374268
27	80.18353414535522	response	0	4		25.0	2.5	/experiments/knapen_aot/oldvideos/R_S_yt-7K5X1G7Cpls_965.mp4	0.0	141.9341640472412	
27	80.19919419288635	movie	1		301.0	25.0	2.5	/experiments/knapen_aot/oldvideos/R_S_yt-7K5X1G7Cpls_965.mp4	0.0	141.94982409477234	2.5084378719329834
27	82.70763206481934	fix_post	2		12.0	25.0	2.5	/experiments/knapen_aot/oldvideos/R_S_yt-7K5X1G7Cpls_965.mp4	0.0	144.45826196670532	0.10000896453857422
28	82.80764102935791	fix_pre	0		55.0	26.0	2.5	/experiments/knapen_aot/oldvideos/R_S_m-aeoYPMqfg_185.mp4	0.0	144.5582709312439	0.458233118057251
28	83.2577211856842	response	0	4		26.0	2.5	/experiments/knapen_aot/oldvideos/R_S_m-aeoYPMqfg_185.mp4	0.0	145.0083510875702	
28	83.26587414741516	movie	1		301.0	26.0	2.5	/experiments/knapen_aot/oldvideos/R_S_m-aeoYPMqfg_185.mp4	0.0	145.01650404930115	2.5083649158477783
28	85.77423906326294	fix_post	2		12.0	26.0	2.5	/experiments/knapen_aot/oldvideos/R_S_m-aeoYPMqfg_185.mp4	0.0	147.52486896514893	0.10001206398010254
29	85.87425112724304	fix_pre	0		27.0	27.0	2.5	/experiments/knapen_aot/oldvideos/R_S_pexels-c-technical-6753390.mp4	0.0	147.62488102912903	0.2249128818511963
29	86.09092712402344	response	0	4		27.0	2.5	/experiments/knapen_aot/oldvideos/R_S_pexels-c-technical-6753390.mp4	0.0	147.84155702590942	
29	86.09916400909424	movie	1		202.0	27.0	2.5	/experiments/knapen_aot/oldvideos/R_S_pexels-c-technical-6753390.mp4	0.0	147.84979391098022	2.5084991455078125
29	88.60766315460205	fix_post	2		12.0	27.0	2.5	/experiments/knapen_aot/oldvideos/R_S_pexels-c-technical-6753390.mp4	0.0	150.35829305648804	0.10005688667297363
30	88.70772004127502	fix_pre	0		33.0	28.0	2.5	blank	1.0	150.458349943161	0.2748229503631592
30	88.97427010536194	response	0	4		28.0	2.5	blank	1.0	150.72490000724792	
30	88.98254299163818	movie	1		301.0	28.0	2.5	blank	1.0	150.73317289352417	2.5083560943603516
30	91.49089908599854	fix_post	2		12.0	28.0	2.5	blank	1.0	153.24152898788452	0.09999299049377441
31	91.59089207649231	fix_pre	0		266.0	29.0	2.5	/experiments/knapen_aot/oldvideos/S_ILSVRC2015_train_00682009.mp4	0.0	153.3415219783783	2.216581106185913
31	93.79927515983582	response	0	4		29.0	2.5	/experiments/knapen_aot/oldvideos/S_ILSVRC2015_train_00682009.mp4	0.0	155.5499050617218	
31	93.80747318267822	movie	1		301.0	29.0	2.5	/experiments/knapen_aot/oldvideos/S_ILSVRC2015_train_00682009.mp4	0.0	155.5581030845642	2.5083367824554443
31	96.31580996513367	fix_post	2		12.0	29.0	2.5	/experiments/knapen_aot/oldvideos/S_ILSVRC2015_train_00682009.mp4	0.0	158.06643986701965	0.10003399848937988
32	96.41584396362305	fix_pre	0		43.0	30.0	2.5	/experiments/knapen_aot/oldvideos/R_S_yt-4oT-2eGhmUo_102.mp4	0.0	158.16647386550903	0.35826706886291504
32	96.76595306396484	response	0	4		30.0	2.5	/experiments/knapen_aot/oldvideos/R_S_yt-4oT-2eGhmUo_102.mp4	0.0	158.51658296585083	
32	96.77411103248596	movie	1		301.0	30.0	2.5	/experiments/knapen_aot/oldvideos/R_S_yt-4oT-2eGhmUo_102.mp4	0.0	158.52474093437195	2.508371114730835
32	99.2824821472168	fix_post	2		12.0	30.0	2.5	/experiments/knapen_aot/oldvideos/R_S_yt-4oT-2eGhmUo_102.mp4	0.0	161.03311204910278	0.10003995895385742
33	99.38252210617065	fix_pre	0		36.0	31.0	2.5	/experiments/knapen_aot/oldvideos/S_yt-R-SETZtYWaA_336.mp4	0.0	161.13315200805664	0.299954891204834
33	99.67429614067078	response	0	4		31.0	2.5	/experiments/knapen_aot/oldvideos/S_yt-R-SETZtYWaA_336.mp4	0.0	161.42492604255676	
33	99.68247699737549	movie	1		301.0	31.0	2.5	/experiments/knapen_aot/oldvideos/S_yt-R-SETZtYWaA_336.mp4	0.0	161.43310689926147	2.508474111557007
33	102.1909511089325	fix_post	2		12.0	31.0	2.5	/experiments/knapen_aot/oldvideos/S_yt-R-SETZtYWaA_336.mp4	0.0	163.94158101081848	0.09985494613647461
34	102.29080605506897	fix_pre	0		24.0	32.0	2.5	/experiments/knapen_aot/oldvideos/R_S_ILSVRC2015_train_00441000.mp4	0.0	164.04143595695496	0.19994807243347168
34	102.48260402679443	response	0	4		32.0	2.5	/experiments/knapen_aot/oldvideos/R_S_ILSVRC2015_train_00441000.mp4	0.0	164.23323392868042	
34	102.49075412750244	movie	1		301.0	32.0	2.5	/experiments/knapen_aot/oldvideos/R_S_ILSVRC2015_train_00441000.mp4	0.0	164.24138402938843	2.508394956588745
34	104.99914908409119	fix_post	2		12.0	32.0	2.5	/experiments/knapen_aot/oldvideos/R_S_ILSVRC2015_train_00441000.mp4	0.0	166.74977898597717	0.10138988494873047
35	105.10053896903992	fix_pre	0		34.0	33.0	2.5	blank	1.0	166.8511688709259	0.28191208839416504
35	105.374263048172	response	0	4		33.0	2.5	blank	1.0	167.12489295005798	
35	105.38245105743408	movie	1		301.0	33.0	2.5	blank	1.0	167.13308095932007	2.5083460807800293
35	107.89079713821411	fix_post	2		12.0	33.0	2.5	blank	1.0	169.6414270401001	0.09997391700744629
36	107.99077105522156	fix_pre	0		40.0	34.0	2.5	/experiments/knapen_aot/oldvideos/R_S_yt--C2DDZ7LOQA_95.mp4	0.0	169.74140095710754	0.3333470821380615
36	108.3159511089325	response	0	4		34.0	2.5	/experiments/knapen_aot/oldvideos/R_S_yt--C2DDZ7LOQA_95.mp4	0.0	170.06658101081848	
36	108.32411813735962	movie	1		301.0	34.0	2.5	/experiments/knapen_aot/oldvideos/R_S_yt--C2DDZ7LOQA_95.mp4	0.0	170.0747480392456	2.5082859992980957
36	110.83240413665771	fix_post	2		12.0	34.0	2.5	/experiments/knapen_aot/oldvideos/R_S_yt--C2DDZ7LOQA_95.mp4	0.0	172.5830340385437	0.10021090507507324
37	110.93261504173279	fix_pre	0		63.0	35.0	2.5	/experiments/knapen_aot/oldvideos/R_S_yt-3ohvpS42xug_184.mp4	0.0	172.68324494361877	0.5248100757598877
37	111.4493761062622	response	0	4		35.0	2.5	/experiments/knapen_aot/oldvideos/R_S_yt-3ohvpS42xug_184.mp4	0.0	173.2000060081482	
37	111.45742511749268	movie	1		301.0	35.0	2.5	/experiments/knapen_aot/oldvideos/R_S_yt-3ohvpS42xug_184.mp4	0.0	173.20805501937866	2.5083580017089844
37	113.96578311920166	fix_post	2		12.0	35.0	2.5	/experiments/knapen_aot/oldvideos/R_S_yt-3ohvpS42xug_184.mp4	0.0	175.71641302108765	0.10011887550354004
38	114.0659019947052	fix_pre	0		143.0	36.0	2.5	/experiments/knapen_aot/oldvideos/R_S_I004_C014_SDR_2K_AVC.mp4	0.0	175.8165318965912	1.191483974456787
38	115.24165415763855	response	0	4		36.0	2.5	/experiments/knapen_aot/oldvideos/R_S_I004_C014_SDR_2K_AVC.mp4	0.0	176.99228405952454	
38	115.25738596916199	movie	1		172.0	36.0	2.5	/experiments/knapen_aot/oldvideos/R_S_I004_C014_SDR_2K_AVC.mp4	0.0	177.00801587104797	2.5083961486816406
38	117.76578211784363	fix_post	2		12.0	36.0	2.5	/experiments/knapen_aot/oldvideos/R_S_I004_C014_SDR_2K_AVC.mp4	0.0	179.51641201972961	0.0999748706817627
39	117.86575698852539	fix_pre	0		167.0	37.0	2.5	/experiments/knapen_aot/oldvideos/S_yt-c6kLumgTX54_7.mp4	0.0	179.61638689041138	1.3916339874267578
39	119.2492241859436	response	0	4		37.0	2.5	/experiments/knapen_aot/oldvideos/S_yt-c6kLumgTX54_7.mp4	0.0	180.9998540878296	
39	119.25739097595215	movie	1		301.0	37.0	2.5	/experiments/knapen_aot/oldvideos/S_yt-c6kLumgTX54_7.mp4	0.0	181.00802087783813	2.5084002017974854
39	121.76579117774963	fix_post	2		12.0	37.0	2.5	/experiments/knapen_aot/oldvideos/S_yt-c6kLumgTX54_7.mp4	0.0	183.51642107963562	0.09987688064575195
40	121.86566805839539	fix_pre	0		80.0	38.0	2.5	/experiments/knapen_aot/oldvideos/R_S_yt-1n1jTroiwJs_163.mp4	0.0	183.61629796028137	0.6666679382324219
40	122.51690411567688	response	0	4		38.0	2.5	/experiments/knapen_aot/oldvideos/R_S_yt-1n1jTroiwJs_163.mp4	0.0	184.26753401756287	
40	122.53233599662781	movie	1		301.0	38.0	2.5	/experiments/knapen_aot/oldvideos/R_S_yt-1n1jTroiwJs_163.mp4	0.0	184.2829658985138	2.508413076400757
40	125.04074907302856	fix_post	2		12.0	38.0	2.5	/experiments/knapen_aot/oldvideos/R_S_yt-1n1jTroiwJs_163.mp4	0.0	186.79137897491455	0.1000831127166748
41	125.14083218574524	fix_pre	0		169.0	39.0	2.5	/experiments/knapen_aot/oldvideos/S_yt-BLmwmX-mni8_56.mp4	0.0	186.89146208763123	1.4082648754119873
41	126.5408251285553	response	0	4		39.0	2.5	/experiments/knapen_aot/oldvideos/S_yt-BLmwmX-mni8_56.mp4	0.0	188.29145503044128	
41	126.54909706115723	movie	1		301.0	39.0	2.5	/experiments/knapen_aot/oldvideos/S_yt-BLmwmX-mni8_56.mp4	0.0	188.2997269630432	2.5082929134368896
41	129.05738997459412	fix_post	2		12.0	39.0	2.5	/experiments/knapen_aot/oldvideos/S_yt-BLmwmX-mni8_56.mp4	0.0	190.8080198764801	0.09996604919433594
42	129.15735602378845	fix_pre	0		41.0	40.0	2.5	/experiments/knapen_aot/oldvideos/R_S_ILSVRC2015_train_00584001.mp4	0.0	190.90798592567444	0.34166693687438965
42	129.49084901809692	response	0	4		40.0	2.5	/experiments/knapen_aot/oldvideos/R_S_ILSVRC2015_train_00584001.mp4	0.0	191.2414789199829	
42	129.49902296066284	movie	1		301.0	40.0	2.5	/experiments/knapen_aot/oldvideos/R_S_ILSVRC2015_train_00584001.mp4	0.0	191.24965286254883	2.508357048034668
42	132.0073800086975	fix_post	2		12.0	40.0	2.5	/experiments/knapen_aot/oldvideos/R_S_ILSVRC2015_train_00584001.mp4	0.0	193.7580099105835	0.09998297691345215
43	132.10736298561096	fix_pre	0		19.0	41.0	2.5	/experiments/knapen_aot/oldvideos/R_S_production_ID_4101309.mp4	0.0	193.85799288749695	0.1595311164855957
43	132.25734901428223	response	0	4		41.0	2.5	/experiments/knapen_aot/oldvideos/R_S_production_ID_4101309.mp4	0.0	194.0079789161682	
43	132.26689410209656	movie	1		181.0	41.0	2.5	/experiments/knapen_aot/oldvideos/R_S_production_ID_4101309.mp4	0.0	194.01752400398254	2.5071239471435547
43	134.7740180492401	fix_post	2		12.0	41.0	2.5	/experiments/knapen_aot/oldvideos/R_S_production_ID_4101309.mp4	0.0	196.5246479511261	0.10000395774841309
44	134.87402200698853	fix_pre	0		289.0	42.0	2.5	blank	1.0	196.6246519088745	2.408339023590088
44	137.27414202690125	response	0	4		42.0	2.5	blank	1.0	199.02477192878723	
44	137.2823610305786	movie	1		301.0	42.0	2.5	blank	1.0	199.0329909324646	2.50827693939209
44	139.7906379699707	fix_post	2		12.0	42.0	2.5	blank	1.0	201.5412678718567	0.10125112533569336
45	139.8918890953064	fix_pre	0		60.0	43.0	2.5	/experiments/knapen_aot/oldvideos/R_S_comp_LA_A006_C008_PSNK_ALL_LOGOS_v10_SDR_PS_FINAL_20180801_SDR_2K_AVC.mp4	0.0	201.64251899719238	0.4999520778656006
45	140.3824541568756	response	0	4		43.0	2.5	/experiments/knapen_aot/oldvideos/R_S_comp_LA_A006_C008_PSNK_ALL_LOGOS_v10_SDR_PS_FINAL_20180801_SDR_2K_AVC.mp4	0.0	202.1330840587616	
45	140.391841173172	movie	1		173.0	43.0	2.5	/experiments/knapen_aot/oldvideos/R_S_comp_LA_A006_C008_PSNK_ALL_LOGOS_v10_SDR_PS_FINAL_20180801_SDR_2K_AVC.mp4	0.0	202.14247107505798	2.507152795791626
45	142.89899396896362	fix_post	2		12.0	43.0	2.5	/experiments/knapen_aot/oldvideos/R_S_comp_LA_A006_C008_PSNK_ALL_LOGOS_v10_SDR_PS_FINAL_20180801_SDR_2K_AVC.mp4	0.0	204.6496238708496	0.0999751091003418
46	142.99896907806396	fix_pre	0		13.0	44.0	2.5	/experiments/knapen_aot/oldvideos/R_S_pexels-diva-plavalaguna-6985395_1.mp4	0.0	204.74959897994995	0.10829901695251465
46	143.09910011291504	response	0	4		44.0	2.5	/experiments/knapen_aot/oldvideos/R_S_pexels-diva-plavalaguna-6985395_1.mp4	0.0	204.84973001480103	
46	143.10726809501648	movie	1		167.0	44.0	2.5	/experiments/knapen_aot/oldvideos/R_S_pexels-diva-plavalaguna-6985395_1.mp4	0.0	204.85789799690247	2.508389949798584
46	145.61565804481506	fix_post	2		12.0	44.0	2.5	/experiments/knapen_aot/oldvideos/R_S_pexels-diva-plavalaguna-6985395_1.mp4	0.0	207.36628794670105	0.09993195533752441
47	145.7155900001526	fix_pre	0		38.0	45.0	2.5	/experiments/knapen_aot/oldvideos/R_S_ILSVRC2015_train_00538001.mp4	0.0	207.46621990203857	0.316694974899292
47	146.02416515350342	response	0	4		45.0	2.5	/experiments/knapen_aot/oldvideos/R_S_ILSVRC2015_train_00538001.mp4	0.0	207.7747950553894	
47	146.03228497505188	movie	1		301.0	45.0	2.5	/experiments/knapen_aot/oldvideos/R_S_ILSVRC2015_train_00538001.mp4	0.0	207.78291487693787	2.508338212966919
47	148.5406231880188	fix_post	2		12.0	45.0	2.5	/experiments/knapen_aot/oldvideos/R_S_ILSVRC2015_train_00538001.mp4	0.0	210.29125308990479	0.10125279426574707
48	148.64187598228455	fix_pre	0		41.0	46.0	2.5	/experiments/knapen_aot/oldvideos/R_S_flickr-53807584@N00-5566422012_16.mp4	0.0	210.39250588417053	0.3403961658477783
48	148.9741771221161	response	0	4		46.0	2.5	/experiments/knapen_aot/oldvideos/R_S_flickr-53807584@N00-5566422012_16.mp4	0.0	210.72480702400208	
48	148.98227214813232	movie	1		301.0	46.0	2.5	/experiments/knapen_aot/oldvideos/R_S_flickr-53807584@N00-5566422012_16.mp4	0.0	210.7329020500183	2.5083298683166504
48	151.49060201644897	fix_post	2		12.0	46.0	2.5	/experiments/knapen_aot/oldvideos/R_S_flickr-53807584@N00-5566422012_16.mp4	0.0	213.24123191833496	0.10004806518554688
49	151.59065008163452	fix_pre	0		40.0	47.0	2.5	blank	1.0	213.3412799835205	0.33330488204956055
49	151.91575813293457	response	0	4		47.0	2.5	blank	1.0	213.66638803482056	
49	151.92395496368408	movie	1		301.0	47.0	2.5	blank	1.0	213.67458486557007	2.5084211826324463
49	154.43237614631653	fix_post	2		12.0	47.0	2.5	blank	1.0	216.18300604820251	0.10012698173522949
50	154.53250312805176	fix_pre	0		368.0	48.0	2.5	/experiments/knapen_aot/oldvideos/S_yt-11S5tcT2Tm0_254.mp4	0.0	216.28313302993774	3.0674338340759277
50	157.5906159877777	response	0	4		48.0	2.5	/experiments/knapen_aot/oldvideos/S_yt-11S5tcT2Tm0_254.mp4	0.0	219.3412458896637	
50	157.59993696212769	movie	1		301.0	48.0	2.5	/experiments/knapen_aot/oldvideos/S_yt-11S5tcT2Tm0_254.mp4	0.0	219.35056686401367	2.507327079772949
50	160.10726404190063	fix_post	2		12.0	48.0	2.5	/experiments/knapen_aot/oldvideos/S_yt-11S5tcT2Tm0_254.mp4	0.0	221.85789394378662	0.09994006156921387
51	160.20720410346985	fix_pre	0		45.0	49.0	2.5	/experiments/knapen_aot/oldvideos/R_S_yt-RO4mhuXBVrY_67.mp4	0.0	221.95783400535583	0.3750300407409668
51	160.57400512695312	response	0	4		49.0	2.5	/experiments/knapen_aot/oldvideos/R_S_yt-RO4mhuXBVrY_67.mp4	0.0	222.3246350288391	
51	160.58223414421082	movie	1		301.0	49.0	2.5	/experiments/knapen_aot/oldvideos/R_S_yt-RO4mhuXBVrY_67.mp4	0.0	222.3328640460968	2.508291006088257
51	163.09052515029907	fix_post	2		12.0	49.0	2.5	/experiments/knapen_aot/oldvideos/R_S_yt-RO4mhuXBVrY_67.mp4	0.0	224.84115505218506	0.10015392303466797
52	163.19067907333374	fix_pre	0		30.0	50.0	2.5	/experiments/knapen_aot/oldvideos/S_g201_TH_804_A001_8_SDR_20191031_SDR_2K_AVC.mp4	0.0	224.94130897521973	0.24991202354431152
52	163.43232703208923	response	0	4		50.0	2.5	/experiments/knapen_aot/oldvideos/S_g201_TH_804_A001_8_SDR_20191031_SDR_2K_AVC.mp4	0.0	225.18295693397522	
52	163.44059109687805	movie	1		165.0	50.0	2.5	/experiments/knapen_aot/oldvideos/S_g201_TH_804_A001_8_SDR_20191031_SDR_2K_AVC.mp4	0.0	225.19122099876404	2.508289098739624
52	165.94888019561768	fix_post	2		12.0	50.0	2.5	/experiments/knapen_aot/oldvideos/S_g201_TH_804_A001_8_SDR_20191031_SDR_2K_AVC.mp4	0.0	227.69951009750366	0.10011076927185059
53	166.04899096488953	fix_pre	0		19.0	51.0	2.5	/experiments/knapen_aot/oldvideos/R_S_yt-MyL1VlXiZa4_25.mp4	0.0	227.7996208667755	0.15821313858032227
53	166.1990520954132	response	0	4		51.0	2.5	/experiments/knapen_aot/oldvideos/R_S_yt-MyL1VlXiZa4_25.mp4	0.0	227.9496819972992	
53	166.20720410346985	movie	1		301.0	51.0	2.5	/experiments/knapen_aot/oldvideos/R_S_yt-MyL1VlXiZa4_25.mp4	0.0	227.95783400535583	2.5083529949188232
53	168.71555709838867	fix_post	2		12.0	51.0	2.5	/experiments/knapen_aot/oldvideos/R_S_yt-MyL1VlXiZa4_25.mp4	0.0	230.46618700027466	0.10028290748596191
54	168.81584000587463	fix_pre	0		26.0	52.0	2.5	/experiments/knapen_aot/oldvideos/S_ILSVRC2015_train_00638001.mp4	0.0	230.56646990776062	0.216339111328125
54	169.0239851474762	response	0	4		52.0	2.5	/experiments/knapen_aot/oldvideos/S_ILSVRC2015_train_00638001.mp4	0.0	230.77461504936218	
54	169.03217911720276	movie	1		301.0	52.0	2.5	/experiments/knapen_aot/oldvideos/S_ILSVRC2015_train_00638001.mp4	0.0	230.78280901908875	2.5083789825439453
54	171.5405580997467	fix_post	2		12.0	52.0	2.5	/experiments/knapen_aot/oldvideos/S_ILSVRC2015_train_00638001.mp4	0.0	233.2911880016327	0.09999799728393555
55	171.64055609703064	fix_pre	0		21.0	53.0	2.5	/experiments/knapen_aot/oldvideos/S_ILSVRC2015_train_00001009.mp4	0.0	233.39118599891663	0.17496705055236816
55	171.80728316307068	response	0	4		53.0	2.5	/experiments/knapen_aot/oldvideos/S_ILSVRC2015_train_00001009.mp4	0.0	233.55791306495667	
55	171.815523147583	movie	1		301.0	53.0	2.5	/experiments/knapen_aot/oldvideos/S_ILSVRC2015_train_00001009.mp4	0.0	233.566153049469	2.508431911468506
55	174.3239550590515	fix_post	2		12.0	53.0	2.5	/experiments/knapen_aot/oldvideos/S_ILSVRC2015_train_00001009.mp4	0.0	236.0745849609375	0.09985899925231934
56	174.42381405830383	fix_pre	0		26.0	54.0	2.5	blank	1.0	236.17444396018982	0.2177290916442871
56	174.6323540210724	response	0	4		54.0	2.5	blank	1.0	236.38298392295837	
56	174.64154314994812	movie	1		301.0	54.0	2.5	blank	1.0	236.3921730518341	2.5074310302734375
56	177.14897418022156	fix_post	2		12.0	54.0	2.5	blank	1.0	238.89960408210754	0.09977984428405762
57	177.24875402450562	fix_pre	0		30.0	55.0	2.5	/experiments/knapen_aot/oldvideos/S_pexels-anna-tarazevich-6189268.mp4	0.0	238.9993839263916	0.25009799003601074
57	177.4831030368805	response	0	4		55.0	2.5	/experiments/knapen_aot/oldvideos/S_pexels-anna-tarazevich-6189268.mp4	0.0	239.23373293876648	
57	177.49885201454163	movie	1		214.0	55.0	2.5	/experiments/knapen_aot/oldvideos/S_pexels-anna-tarazevich-6189268.mp4	0.0	239.2494819164276	2.50833797454834
57	180.00718998908997	fix_post	2		12.0	55.0	2.5	/experiments/knapen_aot/oldvideos/S_pexels-anna-tarazevich-6189268.mp4	0.0	241.75781989097595	0.10007405281066895
58	180.10726404190063	fix_pre	0		14.0	56.0	2.5	/experiments/knapen_aot/oldvideos/S_yt-I2n2eo2zoZs_94.mp4	0.0	241.85789394378662	0.11751699447631836
58	180.2156581878662	response	0	4		56.0	2.5	/experiments/knapen_aot/oldvideos/S_yt-I2n2eo2zoZs_94.mp4	0.0	241.9662880897522	
58	180.22478103637695	movie	1		301.0	56.0	2.5	/experiments/knapen_aot/oldvideos/S_yt-I2n2eo2zoZs_94.mp4	0.0	241.97541093826294	2.507390022277832
58	182.73217105865479	fix_post	2		12.0	56.0	2.5	/experiments/knapen_aot/oldvideos/S_yt-I2n2eo2zoZs_94.mp4	0.0	244.48280096054077	0.09996604919433594
59	182.83213710784912	fix_pre	0		26.0	57.0	2.5	/experiments/knapen_aot/oldvideos/S_yt-OLDm2slgfA4_3.mp4	0.0	244.5827670097351	0.21668696403503418
59	183.0405101776123	response	0	4		57.0	2.5	/experiments/knapen_aot/oldvideos/S_yt-OLDm2slgfA4_3.mp4	0.0	244.7911400794983	
59	183.04882407188416	movie	1		301.0	57.0	2.5	/experiments/knapen_aot/oldvideos/S_yt-OLDm2slgfA4_3.mp4	0.0	244.79945397377014	2.508430004119873
59	185.55725407600403	fix_post	2		12.0	57.0	2.5	/experiments/knapen_aot/oldvideos/S_yt-OLDm2slgfA4_3.mp4	0.0	247.30788397789001	0.10001492500305176
60	185.65726900100708	fix_pre	0		47.0	58.0	2.5	/experiments/knapen_aot/oldvideos/S_pexels-mart-production-7698693.mp4	0.0	247.40789890289307	0.391477108001709
60	186.04060196876526	response	0	4		58.0	2.5	/experiments/knapen_aot/oldvideos/S_pexels-mart-production-7698693.mp4	0.0	247.79123187065125	
60	186.0487461090088	movie	1		184.0	58.0	2.5	/experiments/knapen_aot/oldvideos/S_pexels-mart-production-7698693.mp4	0.0	247.79937601089478	2.508445978164673
60	188.55719208717346	fix_post	2		12.0	58.0	2.5	/experiments/knapen_aot/oldvideos/S_pexels-mart-production-7698693.mp4	0.0	250.30782198905945	0.09995698928833008
61	188.6571490764618	fix_pre	0		17.0	59.0	2.5	/experiments/knapen_aot/oldvideos/R_S_flickr-csgzs-8144064966_10.mp4	0.0	250.40777897834778	0.14171409606933594
61	188.79052805900574	response	0	4		59.0	2.5	/experiments/knapen_aot/oldvideos/R_S_flickr-csgzs-8144064966_10.mp4	0.0	250.54115796089172	
61	188.79886317253113	movie	1		301.0	59.0	2.5	/experiments/knapen_aot/oldvideos/R_S_flickr-csgzs-8144064966_10.mp4	0.0	250.54949307441711	2.508274793624878
61	191.307137966156	fix_post	2		12.0	59.0	2.5	/experiments/knapen_aot/oldvideos/R_S_flickr-csgzs-8144064966_10.mp4	0.0	253.057767868042	0.09997200965881348
62	191.40710997581482	fix_pre	0		71.0	60.0	2.5	/experiments/knapen_aot/oldvideos/S_yt-bOgChEHiroI_20.mp4	0.0	253.1577398777008	0.5916650295257568
62	191.99049615859985	response	0	4		60.0	2.5	/experiments/knapen_aot/oldvideos/S_yt-bOgChEHiroI_20.mp4	0.0	253.74112606048584	
62	191.99877500534058	movie	1		301.0	60.0	2.5	/experiments/knapen_aot/oldvideos/S_yt-bOgChEHiroI_20.mp4	0.0	253.74940490722656	2.508315086364746
62	194.50709009170532	fix_post	2		12.0	60.0	2.5	/experiments/knapen_aot/oldvideos/S_yt-bOgChEHiroI_20.mp4	0.0	256.2577199935913	0.10001301765441895
63	194.60710310935974	fix_pre	0		66.0	61.0	2.5	/experiments/knapen_aot/oldvideos/S_goAwcQiFu1Q_99.mp4	0.0	256.3577330112457	0.5500500202178955
63	195.14888501167297	response	0	4		61.0	2.5	/experiments/knapen_aot/oldvideos/S_goAwcQiFu1Q_99.mp4	0.0	256.89951491355896	
63	195.15715312957764	movie	1		301.0	61.0	2.5	/experiments/knapen_aot/oldvideos/S_goAwcQiFu1Q_99.mp4	0.0	256.9077830314636	2.508288860321045
63	197.66544198989868	fix_post	2		12.0	61.0	2.5	/experiments/knapen_aot/oldvideos/S_goAwcQiFu1Q_99.mp4	0.0	259.41607189178467	0.09997415542602539
64	197.7654161453247	fix_pre	0		61.0	62.0	2.5	blank	1.0	259.5160460472107	0.5082428455352783
64	198.2655131816864	response	0	4		62.0	2.5	blank	1.0	260.0161430835724	
64	198.27365899085999	movie	1		301.0	62.0	2.5	blank	1.0	260.024288892746	2.508463144302368
64	200.78212213516235	fix_post	2		12.0	62.0	2.5	blank	1.0	262.53275203704834	0.10000491142272949
65	200.88212704658508	fix_pre	0		27.0	63.0	2.5	/experiments/knapen_aot/oldvideos/S_yt-I2n2eo2zoZs_94.mp4	0.0	262.63275694847107	0.22492194175720215
65	201.0913290977478	response	0	4		63.0	2.5	/experiments/knapen_aot/oldvideos/S_yt-I2n2eo2zoZs_94.mp4	0.0	262.8419589996338	
65	201.10704898834229	movie	1		301.0	63.0	2.5	/experiments/knapen_aot/oldvideos/S_yt-I2n2eo2zoZs_94.mp4	0.0	262.85767889022827	2.5083351135253906
65	203.61538410186768	fix_post	2		12.0	63.0	2.5	/experiments/knapen_aot/oldvideos/S_yt-I2n2eo2zoZs_94.mp4	0.0	265.36601400375366	0.09997797012329102
66	203.71536207199097	fix_pre	0		41.0	64.0	2.5	/experiments/knapen_aot/oldvideos/R_S_yt-HQQws1Lp_rQ_10.mp4	0.0	265.46599197387695	0.3424389362335205
66	204.04887413978577	response	0	4		64.0	2.5	/experiments/knapen_aot/oldvideos/R_S_yt-HQQws1Lp_rQ_10.mp4	0.0	265.79950404167175	
66	204.0578010082245	movie	1		301.0	64.0	2.5	/experiments/knapen_aot/oldvideos/R_S_yt-HQQws1Lp_rQ_10.mp4	0.0	265.8084309101105	2.5076141357421875
66	206.56541514396667	fix_post	2		12.0	64.0	2.5	/experiments/knapen_aot/oldvideos/R_S_yt-HQQws1Lp_rQ_10.mp4	0.0	268.31604504585266	0.09993600845336914
67	206.66535115242004	fix_pre	0		19.0	65.0	2.5	/experiments/knapen_aot/oldvideos/R_S_pexels-tima-miroshnichenko-5717005.mp4	0.0	268.41598105430603	0.1583569049835205
67	206.81554317474365	response	0	4		65.0	2.5	/experiments/knapen_aot/oldvideos/R_S_pexels-tima-miroshnichenko-5717005.mp4	0.0	268.56617307662964	
67	206.82370805740356	movie	1		166.0	65.0	2.5	/experiments/knapen_aot/oldvideos/R_S_pexels-tima-miroshnichenko-5717005.mp4	0.0	268.57433795928955	2.508352041244507
67	209.33206009864807	fix_post	2		12.0	65.0	2.5	/experiments/knapen_aot/oldvideos/R_S_pexels-tima-miroshnichenko-5717005.mp4	0.0	271.08269000053406	0.10000991821289062
68	209.43207001686096	fix_pre	0		43.0	66.0	2.5	/experiments/knapen_aot/oldvideos/R_S_pexels-cottonbro-10640532.mp4	0.0	271.18269991874695	0.358273983001709
68	209.7821559906006	response	0	4		66.0	2.5	/experiments/knapen_aot/oldvideos/R_S_pexels-cottonbro-10640532.mp4	0.0	271.5327858924866	
68	209.79034399986267	movie	1		199.0	66.0	2.5	/experiments/knapen_aot/oldvideos/R_S_pexels-cottonbro-10640532.mp4	0.0	271.54097390174866	2.508362054824829
68	212.2987060546875	fix_post	2		12.0	66.0	2.5	/experiments/knapen_aot/oldvideos/R_S_pexels-cottonbro-10640532.mp4	0.0	274.0493359565735	0.100006103515625
69	212.39871215820312	fix_pre	0		90.0	67.0	2.5	/experiments/knapen_aot/oldvideos/R_S_ILSVRC2015_train_00411001.mp4	0.0	274.1493420600891	0.7499268054962158
69	213.14052414894104	response	0	4		67.0	2.5	/experiments/knapen_aot/oldvideos/R_S_ILSVRC2015_train_00411001.mp4	0.0	274.891154050827	
69	213.14863896369934	movie	1		301.0	67.0	2.5	/experiments/knapen_aot/oldvideos/R_S_ILSVRC2015_train_00411001.mp4	0.0	274.8992688655853	2.5083751678466797
69	215.65701413154602	fix_post	2		12.0	67.0	2.5	/experiments/knapen_aot/oldvideos/R_S_ILSVRC2015_train_00411001.mp4	0.0	277.407644033432	0.10001587867736816
70	215.7570300102234	fix_pre	0		60.0	68.0	2.5	/experiments/knapen_aot/oldvideos/S_pexels-c-technical-6753390_2.mp4	0.0	277.5076599121094	0.4999680519104004
70	216.24888014793396	response	0	4		68.0	2.5	/experiments/knapen_aot/oldvideos/S_pexels-c-technical-6753390_2.mp4	0.0	277.99951004981995	
70	216.2569980621338	movie	1		193.0	68.0	2.5	/experiments/knapen_aot/oldvideos/S_pexels-c-technical-6753390_2.mp4	0.0	278.0076279640198	2.508549928665161
70	218.76554799079895	fix_post	2		12.0	68.0	2.5	/experiments/knapen_aot/oldvideos/S_pexels-c-technical-6753390_2.mp4	0.0	280.51617789268494	0.09976005554199219
71	218.86530804634094	fix_pre	0		42.0	69.0	2.5	blank	1.0	280.61593794822693	0.3500490188598633
71	219.2071521282196	response	0	4		69.0	2.5	blank	1.0	280.9577820301056	
71	219.2153570652008	movie	1		301.0	69.0	2.5	blank	1.0	280.9659869670868	2.508328914642334
71	221.72368597984314	fix_post	2		12.0	69.0	2.5	blank	1.0	283.4743158817291	0.10003209114074707
72	221.8237180709839	fix_pre	0		125.0	70.0	2.5	/experiments/knapen_aot/oldvideos/R_S_yt-GytLOB9Qjro_76.mp4	0.0	283.5743479728699	1.0415689945220947
72	222.85713815689087	response	0	4		70.0	2.5	/experiments/knapen_aot/oldvideos/R_S_yt-GytLOB9Qjro_76.mp4	0.0	284.60776805877686	
72	222.86528706550598	movie	1		301.0	70.0	2.5	/experiments/knapen_aot/oldvideos/R_S_yt-GytLOB9Qjro_76.mp4	0.0	284.61591696739197	2.5083529949188232
72	225.3736400604248	fix_post	2		12.0	70.0	2.5	/experiments/knapen_aot/oldvideos/R_S_yt-GytLOB9Qjro_76.mp4	0.0	287.1242699623108	0.09999203681945801
73	225.47363209724426	fix_pre	0		42.0	71.0	2.5	/experiments/knapen_aot/oldvideos/R_S_yt-V5iQ3MbihnI_103.mp4	0.0	287.22426199913025	0.3499269485473633
73	225.8078429698944	response	0	4		71.0	2.5	/experiments/knapen_aot/oldvideos/R_S_yt-V5iQ3MbihnI_103.mp4	0.0	287.5584728717804	
73	225.82355904579163	movie	1		301.0	71.0	2.5	/experiments/knapen_aot/oldvideos/R_S_yt-V5iQ3MbihnI_103.mp4	0.0	287.5741889476776	2.5084540843963623
73	228.332013130188	fix_post	2		12.0	71.0	2.5	/experiments/knapen_aot/oldvideos/R_S_yt-V5iQ3MbihnI_103.mp4	0.0	290.082643032074	0.09992289543151855
74	228.4319360256195	fix_pre	0		49.0	72.0	2.5	/experiments/knapen_aot/oldvideos/S_yt-bH4nJibL4Jo_164.mp4	0.0	290.1825659275055	0.40833210945129395
74	228.83208203315735	response	0	4		72.0	2.5	/experiments/knapen_aot/oldvideos/S_yt-bH4nJibL4Jo_164.mp4	0.0	290.58271193504333	
74	228.8402681350708	movie	1		301.0	72.0	2.5	/experiments/knapen_aot/oldvideos/S_yt-bH4nJibL4Jo_164.mp4	0.0	290.5908980369568	2.5083670616149902
74	231.3486351966858	fix_post	2		12.0	72.0	2.5	/experiments/knapen_aot/oldvideos/S_yt-bH4nJibL4Jo_164.mp4	0.0	293.0992650985718	0.09999990463256836
75	231.44863510131836	fix_pre	0		36.0	73.0	2.5	/experiments/knapen_aot/oldvideos/S_yt-khmJAQuCRRE_119.mp4	0.0	293.19926500320435	0.3001389503479004
75	231.74037408828735	response	0	4		73.0	2.5	/experiments/knapen_aot/oldvideos/S_yt-khmJAQuCRRE_119.mp4	0.0	293.49100399017334	
75	231.74877405166626	movie	1		301.0	73.0	2.5	/experiments/knapen_aot/oldvideos/S_yt-khmJAQuCRRE_119.mp4	0.0	293.49940395355225	2.508229970932007
75	234.25700402259827	fix_post	2		12.0	73.0	2.5	/experiments/knapen_aot/oldvideos/S_yt-khmJAQuCRRE_119.mp4	0.0	296.00763392448425	0.09993314743041992
76	234.3569371700287	fix_pre	0		275.0	74.0	2.5	/experiments/knapen_aot/oldvideos/S_ILSVRC2015_train_00569003.mp4	0.0	296.1075670719147	2.2916018962860107
76	236.64033317565918	response	0	4		74.0	2.5	/experiments/knapen_aot/oldvideos/S_ILSVRC2015_train_00569003.mp4	0.0	298.39096307754517	
76	236.6485390663147	movie	1		301.0	74.0	2.5	/experiments/knapen_aot/oldvideos/S_ILSVRC2015_train_00569003.mp4	0.0	298.3991689682007	2.508436918258667
76	239.15697598457336	fix_post	2		12.0	74.0	2.5	/experiments/knapen_aot/oldvideos/S_ILSVRC2015_train_00569003.mp4	0.0	300.90760588645935	0.09990119934082031
77	239.25687718391418	fix_pre	0		144.0	75.0	2.5	/experiments/knapen_aot/oldvideos/R_S_yt-bQRBtP9zkms_111.mp4	0.0	301.00750708580017	1.200049877166748
77	240.44869709014893	response	0	4		75.0	2.5	/experiments/knapen_aot/oldvideos/R_S_yt-bQRBtP9zkms_111.mp4	0.0	302.1993269920349	
77	240.45692706108093	movie	1		301.0	75.0	2.5	/experiments/knapen_aot/oldvideos/R_S_yt-bQRBtP9zkms_111.mp4	0.0	302.2075569629669	2.5083649158477783
77	242.9652919769287	fix_post	2		12.0	75.0	2.5	/experiments/knapen_aot/oldvideos/R_S_yt-bQRBtP9zkms_111.mp4	0.0	304.7159218788147	0.10025215148925781
78	243.06554412841797	fix_pre	0		33.0	76.0	2.5	blank	1.0	304.81617403030396	0.27468395233154297
78	243.3319971561432	response	0	4		76.0	2.5	blank	1.0	305.0826270580292	
78	243.3402280807495	movie	1		301.0	76.0	2.5	blank	1.0	305.0908579826355	2.5083250999450684
78	245.84855318069458	fix_post	2		12.0	76.0	2.5	blank	1.0	307.59918308258057	0.10009598731994629
79	245.94864916801453	fix_pre	0		48.0	77.0	2.5	/experiments/knapen_aot/oldvideos/R_S_yt--C2DDZ7LOQA_95.mp4	0.0	307.6992790699005	0.40044379234313965
79	246.34039402008057	response	0	4		77.0	2.5	/experiments/knapen_aot/oldvideos/R_S_yt--C2DDZ7LOQA_95.mp4	0.0	308.09102392196655	
79	246.34909296035767	movie	1		301.0	77.0	2.5	/experiments/knapen_aot/oldvideos/R_S_yt--C2DDZ7LOQA_95.mp4	0.0	308.09972286224365	2.507794141769409
79	248.85688710212708	fix_post	2		12.0	77.0	2.5	/experiments/knapen_aot/oldvideos/R_S_yt--C2DDZ7LOQA_95.mp4	0.0	310.60751700401306	0.0999910831451416
80	248.95687818527222	fix_pre	0		49.0	78.0	2.5	/experiments/knapen_aot/oldvideos/R_S_yt-ibDaDIEazxg_3.mp4	0.0	310.7075080871582	0.40828490257263184
80	249.34960317611694	response	0	4		78.0	2.5	/experiments/knapen_aot/oldvideos/R_S_yt-ibDaDIEazxg_3.mp4	0.0	311.10023307800293	
80	249.36516308784485	movie	1		301.0	78.0	2.5	/experiments/knapen_aot/oldvideos/R_S_yt-ibDaDIEazxg_3.mp4	0.0	311.11579298973083	2.5083820819854736
80	251.87354516983032	fix_post	2		12.0	78.0	2.5	/experiments/knapen_aot/oldvideos/R_S_yt-ibDaDIEazxg_3.mp4	0.0	313.6241750717163	0.0999917984008789
81	251.9735369682312	fix_pre	0		30.0	79.0	2.5	/experiments/knapen_aot/oldvideos/S_yt-hdZEAsVBEEM_19.mp4	0.0	313.7241668701172	0.2505161762237549
81	252.21522998809814	response	0	4		79.0	2.5	/experiments/knapen_aot/oldvideos/S_yt-hdZEAsVBEEM_19.mp4	0.0	313.96585988998413	
81	252.22405314445496	movie	1		301.0	79.0	2.5	/experiments/knapen_aot/oldvideos/S_yt-hdZEAsVBEEM_19.mp4	0.0	313.97468304634094	2.5078489780426025
81	254.73190212249756	fix_post	2		12.0	79.0	2.5	/experiments/knapen_aot/oldvideos/S_yt-hdZEAsVBEEM_19.mp4	0.0	316.48253202438354	0.10002684593200684
82	254.83192896842957	fix_pre	0		103.0	80.0	2.5	/experiments/knapen_aot/oldvideos/S_ILSVRC2015_train_00369004.mp4	0.0	316.58255887031555	0.8582570552825928
82	255.68202018737793	response	0	4		80.0	2.5	/experiments/knapen_aot/oldvideos/S_ILSVRC2015_train_00369004.mp4	0.0	317.4326500892639	
82	255.69018602371216	movie	1		301.0	80.0	2.5	/experiments/knapen_aot/oldvideos/S_ILSVRC2015_train_00369004.mp4	0.0	317.44081592559814	2.5083229541778564
82	258.19850897789	fix_post	2		12.0	80.0	2.5	/experiments/knapen_aot/oldvideos/S_ILSVRC2015_train_00369004.mp4	0.0	319.949138879776	0.09994316101074219
83	258.29845213890076	fix_pre	0		33.0	81.0	2.5	/experiments/knapen_aot/oldvideos/S_yt-ibDaDIEazxg_3.mp4	0.0	320.04908204078674	0.2749788761138916
83	258.5653691291809	response	0	4		81.0	2.5	/experiments/knapen_aot/oldvideos/S_yt-ibDaDIEazxg_3.mp4	0.0	320.3159990310669	
83	258.57343101501465	movie	1		301.0	81.0	2.5	/experiments/knapen_aot/oldvideos/S_yt-ibDaDIEazxg_3.mp4	0.0	320.32406091690063	2.5083961486816406
83	261.0818271636963	fix_post	2		12.0	81.0	2.5	/experiments/knapen_aot/oldvideos/S_yt-ibDaDIEazxg_3.mp4	0.0	322.8324570655823	0.10051083564758301
84	261.1823379993439	fix_pre	0		21.0	82.0	2.5	/experiments/knapen_aot/oldvideos/R_S_yt-N4tt7ZhANDg_21.mp4	0.0	322.93296790122986	0.17450904846191406
84	261.3485531806946	response	0	4		82.0	2.5	/experiments/knapen_aot/oldvideos/R_S_yt-N4tt7ZhANDg_21.mp4	0.0	323.09918308258057	
84	261.3568470478058	movie	1		301.0	82.0	2.5	/experiments/knapen_aot/oldvideos/R_S_yt-N4tt7ZhANDg_21.mp4	0.0	323.1074769496918	2.5082859992980957
84	263.8651330471039	fix_post	2		12.0	82.0	2.5	/experiments/knapen_aot/oldvideos/R_S_yt-N4tt7ZhANDg_21.mp4	0.0	325.61576294898987	0.10007095336914062
85	263.965204000473	fix_pre	0		40.0	83.0	2.5	blank	1.0	325.715833902359	0.3332819938659668
85	264.2901990413666	response	0	4		83.0	2.5	blank	1.0	326.04082894325256	
85	264.298485994339	movie	1		301.0	83.0	2.5	blank	1.0	326.049115896225	2.508315086364746
85	266.80680108070374	fix_post	2		12.0	83.0	2.5	blank	1.0	328.5574309825897	0.1000359058380127
87	266.90683698654175	stim	0		182.0					328.65746688842773	1.5185291767120361
87	268.4159791469574	response	0	space						330.1666090488434	
