trial_nr	onset	event_type	phase	response	nr_frames	movie_index	movie_duration	movie_file	blank	onset_abs	duration
0	0.1328120231628418	stim	0		24.0					66.50235509872437	0.20055198669433594
0	0.3246300220489502	response	0	space						66.69417309761047	
1	0.33336400985717773	stim	0		121.0					66.7029070854187	1.0078740119934082
1	1.2332110404968262	response	0	space						67.60275411605835	
1	1.341238021850586	stim	1		120.0					67.71078109741211	0.9996509552001953
1	2.2076969146728516	response	1	space						68.57723999023438	
2	2.3408889770507812	fix_pre	0		26.0	0.0	2.5	/experiments/knapen_aot/videos/S_pexels-rodnae-productions-5993654.mp4	0.0	68.7104320526123	0.21664190292358398
2	2.549283981323242	response	0	space		0.0	2.5	/experiments/knapen_aot/videos/S_pexels-rodnae-productions-5993654.mp4	0.0	68.91882705688477	
2	2.5575308799743652	movie	1		164.0	0.0	2.5	/experiments/knapen_aot/videos/S_pexels-rodnae-productions-5993654.mp4	0.0	68.92707395553589	2.5083751678466797
2	5.065906047821045	fix_post	2		12.0	0.0	2.5	/experiments/knapen_aot/videos/S_pexels-rodnae-productions-5993654.mp4	0.0	71.43544912338257	0.10038590431213379
3	5.166291952133179	fix_pre	0		99.0	1.0	2.5	/experiments/knapen_aot/videos/S_yt-WCT9dyz0-gQ_36.mp4	0.0	71.5358350276947	0.8263759613037109
3	5.987828016281128	response	0	2		1.0	2.5	/experiments/knapen_aot/videos/S_yt-WCT9dyz0-gQ_36.mp4	0.0	72.35737109184265	
3	5.99266791343689	movie	1		300.0	1.0	2.5	/experiments/knapen_aot/videos/S_yt-WCT9dyz0-gQ_36.mp4	0.0	72.36221098899841	2.5065109729766846
3	8.499178886413574	fix_post	2		12.0	1.0	2.5	/experiments/knapen_aot/videos/S_yt-WCT9dyz0-gQ_36.mp4	0.0	74.8687219619751	0.09999704360961914
4	8.599175930023193	fix_pre	0		86.0	2.0	2.5	/experiments/knapen_aot/videos/R_S_comp_H007_C003_PS_v01_SDR_PS_20180925_SDR_2K_AVC.mp4	0.0	74.96871900558472	0.7166249752044678
4	9.307651042938232	response	0	2		2.0	2.5	/experiments/knapen_aot/videos/R_S_comp_H007_C003_PS_v01_SDR_PS_20180925_SDR_2K_AVC.mp4	0.0	75.67719411849976	
4	9.315800905227661	movie	1		186.0	2.0	2.5	/experiments/knapen_aot/videos/R_S_comp_H007_C003_PS_v01_SDR_PS_20180925_SDR_2K_AVC.mp4	0.0	75.68534398078918	2.5083441734313965
4	11.824145078659058	fix_post	2		12.0	2.0	2.5	/experiments/knapen_aot/videos/R_S_comp_H007_C003_PS_v01_SDR_PS_20180925_SDR_2K_AVC.mp4	0.0	78.19368815422058	0.09996700286865234
5	11.92411208152771	fix_pre	0		68.0	3.0	2.5	/experiments/knapen_aot/videos/S_yt-ZTAaH5XbtfE_3.mp4	0.0	78.29365515708923	0.5666677951812744
5	12.482605934143066	response	0	2		3.0	2.5	/experiments/knapen_aot/videos/S_yt-ZTAaH5XbtfE_3.mp4	0.0	78.85214900970459	
5	12.490779876708984	movie	1		301.0	3.0	2.5	/experiments/knapen_aot/videos/S_yt-ZTAaH5XbtfE_3.mp4	0.0	78.86032295227051	2.508347988128662
5	14.999127864837646	fix_post	2		12.0	3.0	2.5	/experiments/knapen_aot/videos/S_yt-ZTAaH5XbtfE_3.mp4	0.0	81.36867094039917	0.10002803802490234
6	15.099155902862549	fix_pre	0		84.0	4.0	2.5	/experiments/knapen_aot/videos/R_S_2RTDFkjD6vI_93.mp4	0.0	81.46869897842407	0.6999020576477051
6	15.790982961654663	response	0	2		4.0	2.5	/experiments/knapen_aot/videos/R_S_2RTDFkjD6vI_93.mp4	0.0	82.16052603721619	
6	15.799057960510254	movie	1		301.0	4.0	2.5	/experiments/knapen_aot/videos/R_S_2RTDFkjD6vI_93.mp4	0.0	82.16860103607178	2.508409023284912
6	18.307466983795166	fix_post	2		12.0	4.0	2.5	/experiments/knapen_aot/videos/R_S_2RTDFkjD6vI_93.mp4	0.0	84.67701005935669	0.09995102882385254
7	18.40741801261902	fix_pre	0		61.0	5.0	2.5	blank	1.0	84.77696108818054	0.5087318420410156
7	18.907562971115112	response	0	2		5.0	2.5	blank	1.0	85.27710604667664	
7	18.916149854660034	movie	1		301.0	5.0	2.5	blank	1.0	85.28569293022156	2.507927179336548
7	21.424077033996582	fix_post	2		12.0	5.0	2.5	blank	1.0	87.7936201095581	0.10001683235168457
8	21.524093866348267	fix_pre	0		114.0	6.0	2.5	/experiments/knapen_aot/videos/S_yt--a-d97T4Gak_75.mp4	0.0	87.89363694190979	0.9498951435089111
8	22.46585202217102	response	0	2		6.0	2.5	/experiments/knapen_aot/videos/S_yt--a-d97T4Gak_75.mp4	0.0	88.83539509773254	
8	22.473989009857178	movie	1		300.0	6.0	2.5	/experiments/knapen_aot/videos/S_yt--a-d97T4Gak_75.mp4	0.0	88.8435320854187	2.508347988128662
8	24.98233699798584	fix_post	2		12.0	6.0	2.5	/experiments/knapen_aot/videos/S_yt--a-d97T4Gak_75.mp4	0.0	91.35188007354736	0.10010695457458496
9	25.082443952560425	fix_pre	0		102.0	7.0	2.5	/experiments/knapen_aot/videos/S_yt-BG-G7m5wLZ4_94.mp4	0.0	91.45198702812195	0.8500270843505859
9	25.92421293258667	response	0	2		7.0	2.5	/experiments/knapen_aot/videos/S_yt-BG-G7m5wLZ4_94.mp4	0.0	92.2937560081482	
9	25.93247103691101	movie	1		301.0	7.0	2.5	/experiments/knapen_aot/videos/S_yt-BG-G7m5wLZ4_94.mp4	0.0	92.30201411247253	2.5082108974456787
9	28.44068193435669	fix_post	2		12.0	7.0	2.5	/experiments/knapen_aot/videos/S_yt-BG-G7m5wLZ4_94.mp4	0.0	94.81022500991821	0.10002708435058594
10	28.540709018707275	fix_pre	0		87.0	8.0	2.5	/experiments/knapen_aot/videos/S_ILSVRC2015_train_00405000.mp4	0.0	94.9102520942688	0.7250008583068848
10	29.257513999938965	response	0	2		8.0	2.5	/experiments/knapen_aot/videos/S_ILSVRC2015_train_00405000.mp4	0.0	95.62705707550049	
10	29.26570987701416	movie	1		300.0	8.0	2.5	/experiments/knapen_aot/videos/S_ILSVRC2015_train_00405000.mp4	0.0	95.63525295257568	2.5083200931549072
10	31.774029970169067	fix_post	2		12.0	8.0	2.5	/experiments/knapen_aot/videos/S_ILSVRC2015_train_00405000.mp4	0.0	98.14357304573059	0.10034489631652832
11	31.874374866485596	fix_pre	0		85.0	9.0	2.5	/experiments/knapen_aot/videos/S_yt-tHBOlYmaBuk_96.mp4	0.0	98.24391794204712	0.7083330154418945
11	32.57422399520874	response	0	2		9.0	2.5	/experiments/knapen_aot/videos/S_yt-tHBOlYmaBuk_96.mp4	0.0	98.94376707077026	
11	32.58270788192749	movie	1		301.0	9.0	2.5	/experiments/knapen_aot/videos/S_yt-tHBOlYmaBuk_96.mp4	0.0	98.95225095748901	2.5079410076141357
11	35.090648889541626	fix_post	2		12.0	9.0	2.5	/experiments/knapen_aot/videos/S_yt-tHBOlYmaBuk_96.mp4	0.0	101.46019196510315	0.10000014305114746
12	35.19064903259277	fix_pre	0		82.0	10.0	2.5	/experiments/knapen_aot/videos/R_S_yt-CZ2qiY-kS7Y_105.mp4	0.0	101.5601921081543	0.6837480068206787
12	35.86575102806091	response	0	2		10.0	2.5	/experiments/knapen_aot/videos/R_S_yt-CZ2qiY-kS7Y_105.mp4	0.0	102.23529410362244	
12	35.87439703941345	movie	1		301.0	10.0	2.5	/experiments/knapen_aot/videos/R_S_yt-CZ2qiY-kS7Y_105.mp4	0.0	102.24394011497498	2.507952928543091
12	38.38234996795654	fix_post	2		12.0	10.0	2.5	/experiments/knapen_aot/videos/R_S_yt-CZ2qiY-kS7Y_105.mp4	0.0	104.75189304351807	0.10002589225769043
13	38.48237586021423	fix_pre	0		98.0	11.0	2.5	/experiments/knapen_aot/videos/R_S_yt-xqHrTtvFFIs_3.mp4	0.0	104.85191893577576	0.8166131973266602
13	39.29079508781433	response	0	2		11.0	2.5	/experiments/knapen_aot/videos/R_S_yt-xqHrTtvFFIs_3.mp4	0.0	105.66033816337585	
13	39.298989057540894	movie	1		301.0	11.0	2.5	/experiments/knapen_aot/videos/R_S_yt-xqHrTtvFFIs_3.mp4	0.0	105.66853213310242	2.5082828998565674
13	41.80727195739746	fix_post	2		12.0	11.0	2.5	/experiments/knapen_aot/videos/R_S_yt-xqHrTtvFFIs_3.mp4	0.0	108.17681503295898	0.10006093978881836
14	41.90733289718628	fix_pre	0		81.0	12.0	2.5	blank	1.0	108.2768759727478	0.6752610206604004
14	42.57402801513672	response	0	2		12.0	2.5	blank	1.0	108.94357109069824	
14	42.58259391784668	movie	1		301.0	12.0	2.5	blank	1.0	108.9521369934082	2.508108139038086
14	45.090702056884766	fix_post	2		12.0	12.0	2.5	blank	1.0	111.46024513244629	0.09995889663696289
15	45.19066095352173	fix_pre	0		120.0	13.0	2.5	/experiments/knapen_aot/videos/R_S_yt-G65z8p1YNhw_16.mp4	0.0	111.56020402908325	0.9999511241912842
15	46.18237590789795	response	0	2		13.0	2.5	/experiments/knapen_aot/videos/R_S_yt-G65z8p1YNhw_16.mp4	0.0	112.55191898345947	
15	46.19061207771301	movie	1		301.0	13.0	2.5	/experiments/knapen_aot/videos/R_S_yt-G65z8p1YNhw_16.mp4	0.0	112.56015515327454	2.5083749294281006
15	48.69898700714111	fix_post	2		12.0	13.0	2.5	/experiments/knapen_aot/videos/R_S_yt-G65z8p1YNhw_16.mp4	0.0	115.06853008270264	0.09996485710144043
16	48.798951864242554	fix_pre	0		108.0	14.0	2.5	/experiments/knapen_aot/videos/R_S_video-5.mp4	0.0	115.16849493980408	0.8999090194702148
16	49.69077396392822	response	0	2		14.0	2.5	/experiments/knapen_aot/videos/R_S_video-5.mp4	0.0	116.06031703948975	
16	49.69886088371277	movie	1		170.0	14.0	2.5	/experiments/knapen_aot/videos/R_S_video-5.mp4	0.0	116.06840395927429	2.5087990760803223
16	52.20765995979309	fix_post	2		12.0	14.0	2.5	/experiments/knapen_aot/videos/R_S_video-5.mp4	0.0	118.57720303535461	0.0996100902557373
17	52.30727005004883	fix_pre	0		88.0	15.0	2.5	/experiments/knapen_aot/videos/R_S_yt-Fm97IY0Z2LU_110.mp4	0.0	118.67681312561035	0.733522891998291
17	53.02497100830078	response	0	2		15.0	2.5	/experiments/knapen_aot/videos/R_S_yt-Fm97IY0Z2LU_110.mp4	0.0	119.3945140838623	
17	53.04079294204712	movie	1		301.0	15.0	2.5	/experiments/knapen_aot/videos/R_S_yt-Fm97IY0Z2LU_110.mp4	0.0	119.41033601760864	2.5081279277801514
17	55.54892086982727	fix_post	2		12.0	15.0	2.5	/experiments/knapen_aot/videos/R_S_yt-Fm97IY0Z2LU_110.mp4	0.0	121.9184639453888	0.10000920295715332
18	55.648930072784424	fix_pre	0		102.0	16.0	2.5	/experiments/knapen_aot/videos/S_P007_C027_UHD_SDR_2K_AVC.mp4	0.0	122.01847314834595	0.8501739501953125
18	56.49074602127075	response	0	2		16.0	2.5	/experiments/knapen_aot/videos/S_P007_C027_UHD_SDR_2K_AVC.mp4	0.0	122.86028909683228	
18	56.499104022979736	movie	1		166.0	16.0	2.5	/experiments/knapen_aot/videos/S_P007_C027_UHD_SDR_2K_AVC.mp4	0.0	122.86864709854126	2.5081429481506348
18	59.00724697113037	fix_post	2		12.0	16.0	2.5	/experiments/knapen_aot/videos/S_P007_C027_UHD_SDR_2K_AVC.mp4	0.0	125.3767900466919	0.09991192817687988
19	59.10715889930725	fix_pre	0		84.0	17.0	2.5	/experiments/knapen_aot/videos/S_yt-06XMUn9DTKc_35.mp4	0.0	125.47670197486877	0.7000360488891602
19	59.79906892776489	response	0	2		17.0	2.5	/experiments/knapen_aot/videos/S_yt-06XMUn9DTKc_35.mp4	0.0	126.16861200332642	
19	59.80719494819641	movie	1		301.0	17.0	2.5	/experiments/knapen_aot/videos/S_yt-06XMUn9DTKc_35.mp4	0.0	126.17673802375793	2.5083370208740234
19	62.315531969070435	fix_post	2		12.0	17.0	2.5	/experiments/knapen_aot/videos/S_yt-06XMUn9DTKc_35.mp4	0.0	128.68507504463196	0.10024499893188477
20	62.41577696800232	fix_pre	0		131.0	18.0	2.5	/experiments/knapen_aot/videos/S_pexels-pavel-danilyuk-8057714.mp4	0.0	128.78532004356384	1.091357946395874
20	63.49907088279724	response	0	2		18.0	2.5	/experiments/knapen_aot/videos/S_pexels-pavel-danilyuk-8057714.mp4	0.0	129.86861395835876	
20	63.50713491439819	movie	1		165.0	18.0	2.5	/experiments/knapen_aot/videos/S_pexels-pavel-danilyuk-8057714.mp4	0.0	129.87667798995972	2.508389949798584
20	66.01552486419678	fix_post	2		12.0	18.0	2.5	/experiments/knapen_aot/videos/S_pexels-pavel-danilyuk-8057714.mp4	0.0	132.3850679397583	0.09997916221618652
21	66.11550402641296	fix_pre	0		102.0	19.0	2.5	/experiments/knapen_aot/videos/R_S_yt-4x2eUikn9rw_212.mp4	0.0	132.4850471019745	0.8500149250030518
21	66.95736503601074	response	0	2		19.0	2.5	/experiments/knapen_aot/videos/R_S_yt-4x2eUikn9rw_212.mp4	0.0	133.32690811157227	
21	66.96551895141602	movie	1		301.0	19.0	2.5	/experiments/knapen_aot/videos/R_S_yt-4x2eUikn9rw_212.mp4	0.0	133.33506202697754	2.508341073989868
21	69.47386002540588	fix_post	2		12.0	19.0	2.5	/experiments/knapen_aot/videos/R_S_yt-4x2eUikn9rw_212.mp4	0.0	135.8434031009674	0.09995484352111816
22	69.573814868927	fix_pre	0		90.0	20.0	2.5	/experiments/knapen_aot/videos/S_yt-7K5X1G7Cpls_965.mp4	0.0	135.94335794448853	0.7500030994415283
22	70.31568503379822	response	0	2		20.0	2.5	/experiments/knapen_aot/videos/S_yt-7K5X1G7Cpls_965.mp4	0.0	136.68522810935974	
22	70.32381796836853	movie	1		300.0	20.0	2.5	/experiments/knapen_aot/videos/S_yt-7K5X1G7Cpls_965.mp4	0.0	136.69336104393005	2.508542060852051
22	72.83236002922058	fix_post	2		12.0	20.0	2.5	/experiments/knapen_aot/videos/S_yt-7K5X1G7Cpls_965.mp4	0.0	139.2019031047821	0.09988594055175781
23	72.93224596977234	fix_pre	0		150.0	21.0	2.5	blank	1.0	139.30178904533386	1.2499070167541504
23	74.17392206192017	response	0	2		21.0	2.5	blank	1.0	140.5434651374817	
23	74.18215298652649	movie	1		301.0	21.0	2.5	blank	1.0	140.551696062088	2.508370876312256
23	76.69052386283875	fix_post	2		12.0	21.0	2.5	blank	1.0	143.06006693840027	0.10006499290466309
24	76.79058885574341	fix_pre	0		104.0	22.0	2.5	/experiments/knapen_aot/videos/S_yt-ZYrQIw9VUok_111.mp4	0.0	143.16013193130493	0.8665471076965332
24	77.64898705482483	response	0	2		22.0	2.5	/experiments/knapen_aot/videos/S_yt-ZYrQIw9VUok_111.mp4	0.0	144.01853013038635	
24	77.65713596343994	movie	1		300.0	22.0	2.5	/experiments/knapen_aot/videos/S_yt-ZYrQIw9VUok_111.mp4	0.0	144.02667903900146	2.5083820819854736
24	80.16551804542542	fix_post	2		12.0	22.0	2.5	/experiments/knapen_aot/videos/S_yt-ZYrQIw9VUok_111.mp4	0.0	146.53506112098694	0.09992098808288574
25	80.2654390335083	fix_pre	0		106.0	23.0	2.5	/experiments/knapen_aot/videos/S_comp_A114_C001_0305OT_v10_SDR_FINAL_22062018_SDR_2K_AVC.mp4	0.0	146.63498210906982	0.8833408355712891
25	81.14058208465576	response	0	2		23.0	2.5	/experiments/knapen_aot/videos/S_comp_A114_C001_0305OT_v10_SDR_FINAL_22062018_SDR_2K_AVC.mp4	0.0	147.51012516021729	
25	81.14877986907959	movie	1		164.0	23.0	2.5	/experiments/knapen_aot/videos/S_comp_A114_C001_0305OT_v10_SDR_FINAL_22062018_SDR_2K_AVC.mp4	0.0	147.5183229446411	2.5083491802215576
25	83.65712904930115	fix_post	2		12.0	23.0	2.5	/experiments/knapen_aot/videos/S_comp_A114_C001_0305OT_v10_SDR_FINAL_22062018_SDR_2K_AVC.mp4	0.0	150.02667212486267	0.09999203681945801
26	83.7571210861206	fix_pre	0		91.0	24.0	2.5	/experiments/knapen_aot/videos/S_wc-DgBY_btLlgBC_19.mp4	0.0	150.12666416168213	0.758342981338501
26	84.5072729587555	response	0	2		24.0	2.5	/experiments/knapen_aot/videos/S_wc-DgBY_btLlgBC_19.mp4	0.0	150.87681603431702	
26	84.5154640674591	movie	1		162.0	24.0	2.5	/experiments/knapen_aot/videos/S_wc-DgBY_btLlgBC_19.mp4	0.0	150.88500714302063	2.50826096534729
26	87.0237250328064	fix_post	2		12.0	24.0	2.5	/experiments/knapen_aot/videos/S_wc-DgBY_btLlgBC_19.mp4	0.0	153.39326810836792	0.10011482238769531
27	87.12383985519409	fix_pre	0		89.0	25.0	2.5	/experiments/knapen_aot/videos/R_S_Ds4EKTLx_RI_51.mp4	0.0	153.49338293075562	0.7415320873260498
27	87.85726308822632	response	0	2		25.0	2.5	/experiments/knapen_aot/videos/R_S_Ds4EKTLx_RI_51.mp4	0.0	154.22680616378784	
27	87.86537194252014	movie	1		301.0	25.0	2.5	/experiments/knapen_aot/videos/R_S_Ds4EKTLx_RI_51.mp4	0.0	154.23491501808167	2.508439064025879
27	90.37381100654602	fix_post	2		12.0	25.0	2.5	/experiments/knapen_aot/videos/R_S_Ds4EKTLx_RI_51.mp4	0.0	156.74335408210754	0.09993195533752441
28	90.47374296188354	fix_pre	0		95.0	26.0	2.5	blank	1.0	156.84328603744507	0.791640043258667
28	91.25722289085388	response	0	2		26.0	2.5	blank	1.0	157.6267659664154	
28	91.26538300514221	movie	1		301.0	26.0	2.5	blank	1.0	157.63492608070374	2.508420944213867
28	93.77380394935608	fix_post	2		12.0	26.0	2.5	blank	1.0	160.1433470249176	0.10000300407409668
29	93.87380695343018	fix_pre	0		98.0	27.0	2.5	/experiments/knapen_aot/videos/S_gX_VbZnZO0k_13.mp4	0.0	160.2433500289917	0.8165750503540039
29	94.6822440624237	response	0	2		27.0	2.5	/experiments/knapen_aot/videos/S_gX_VbZnZO0k_13.mp4	0.0	161.05178713798523	
29	94.69038200378418	movie	1		300.0	27.0	2.5	/experiments/knapen_aot/videos/S_gX_VbZnZO0k_13.mp4	0.0	161.0599250793457	2.5083820819854736
29	97.19876408576965	fix_post	2		12.0	27.0	2.5	/experiments/knapen_aot/videos/S_gX_VbZnZO0k_13.mp4	0.0	163.56830716133118	0.09989500045776367
30	97.29865908622742	fix_pre	0		125.0	28.0	2.5	/experiments/knapen_aot/videos/S_yt-dqcUJzNOzbM_156.mp4	0.0	163.66820216178894	1.0417838096618652
30	98.33220100402832	response	0	2		28.0	2.5	/experiments/knapen_aot/videos/S_yt-dqcUJzNOzbM_156.mp4	0.0	164.70174407958984	
30	98.34044289588928	movie	1		301.0	28.0	2.5	/experiments/knapen_aot/videos/S_yt-dqcUJzNOzbM_156.mp4	0.0	164.7099859714508	2.508358955383301
30	100.84880185127258	fix_post	2		12.0	28.0	2.5	/experiments/knapen_aot/videos/S_yt-dqcUJzNOzbM_156.mp4	0.0	167.2183449268341	0.09994006156921387
31	100.9487419128418	fix_pre	0		101.0	29.0	2.5	/experiments/knapen_aot/videos/R_S_G009_C014_UHD_SDR_2K_AVC.mp4	0.0	167.31828498840332	0.8416390419006348
31	101.78219699859619	response	0	2		29.0	2.5	/experiments/knapen_aot/videos/R_S_G009_C014_UHD_SDR_2K_AVC.mp4	0.0	168.15174007415771	
31	101.79038095474243	movie	1		170.0	29.0	2.5	/experiments/knapen_aot/videos/R_S_G009_C014_UHD_SDR_2K_AVC.mp4	0.0	168.15992403030396	2.508362054824829
31	104.29874300956726	fix_post	2		12.0	29.0	2.5	/experiments/knapen_aot/videos/R_S_G009_C014_UHD_SDR_2K_AVC.mp4	0.0	170.66828608512878	0.09996604919433594
32	104.3987090587616	fix_pre	0		99.0	30.0	2.5	/experiments/knapen_aot/videos/R_S_yt-CEQnXB0LxQU_278.mp4	0.0	170.76825213432312	0.8249490261077881
32	105.2155430316925	response	0	2		30.0	2.5	/experiments/knapen_aot/videos/R_S_yt-CEQnXB0LxQU_278.mp4	0.0	171.58508610725403	
32	105.22365808486938	movie	1		299.0	30.0	2.5	/experiments/knapen_aot/videos/R_S_yt-CEQnXB0LxQU_278.mp4	0.0	171.5932011604309	2.508413791656494
32	107.73207187652588	fix_post	2		12.0	30.0	2.5	/experiments/knapen_aot/videos/R_S_yt-CEQnXB0LxQU_278.mp4	0.0	174.1016149520874	0.09998607635498047
33	107.83205795288086	fix_pre	0		110.0	31.0	2.5	/experiments/knapen_aot/videos/R_S_yt-waWM9vAfsIw_116.mp4	0.0	174.20160102844238	0.9165840148925781
33	108.74056100845337	response	0	2		31.0	2.5	/experiments/knapen_aot/videos/R_S_yt-waWM9vAfsIw_116.mp4	0.0	175.1101040840149	
33	108.74864196777344	movie	1		301.0	31.0	2.5	/experiments/knapen_aot/videos/R_S_yt-waWM9vAfsIw_116.mp4	0.0	175.11818504333496	2.5083649158477783
33	111.25700688362122	fix_post	2		12.0	31.0	2.5	/experiments/knapen_aot/videos/R_S_yt-waWM9vAfsIw_116.mp4	0.0	177.62654995918274	0.09993314743041992
34	111.35694003105164	fix_pre	0		139.0	32.0	2.5	/experiments/knapen_aot/videos/S_yt-XY1n_Oze1kQ_9.mp4	0.0	177.72648310661316	1.158416986465454
34	112.50717186927795	response	0	2		32.0	2.5	/experiments/knapen_aot/videos/S_yt-XY1n_Oze1kQ_9.mp4	0.0	178.87671494483948	
34	112.51535701751709	movie	1		301.0	32.0	2.5	/experiments/knapen_aot/videos/S_yt-XY1n_Oze1kQ_9.mp4	0.0	178.8849000930786	2.5082859992980957
34	115.02364301681519	fix_post	2		12.0	32.0	2.5	/experiments/knapen_aot/videos/S_yt-XY1n_Oze1kQ_9.mp4	0.0	181.3931860923767	0.10002899169921875
35	115.1236720085144	fix_pre	0		138.0	33.0	2.5	/experiments/knapen_aot/videos/R_S_production_ID_4325585.mp4	0.0	181.49321508407593	1.1500270366668701
35	116.26553392410278	response	0	2		33.0	2.5	/experiments/knapen_aot/videos/R_S_production_ID_4325585.mp4	0.0	182.6350769996643	
35	116.27369904518127	movie	1		192.0	33.0	2.5	/experiments/knapen_aot/videos/R_S_production_ID_4325585.mp4	0.0	182.6432421207428	2.5083389282226562
35	118.78203797340393	fix_post	2		12.0	33.0	2.5	/experiments/knapen_aot/videos/R_S_production_ID_4325585.mp4	0.0	185.15158104896545	0.0998990535736084
36	118.88193702697754	fix_pre	0		83.0	34.0	2.5	/experiments/knapen_aot/videos/S_yt_R-SwXr0ScjD9o_20.mp4	0.0	185.25148010253906	0.6929988861083984
36	119.56550788879395	response	0	2		34.0	2.5	/experiments/knapen_aot/videos/S_yt_R-SwXr0ScjD9o_20.mp4	0.0	185.93505096435547	
36	119.57493591308594	movie	1		301.0	34.0	2.5	/experiments/knapen_aot/videos/S_yt_R-SwXr0ScjD9o_20.mp4	0.0	185.94447898864746	2.507106065750122
36	122.08204197883606	fix_post	2		12.0	34.0	2.5	/experiments/knapen_aot/videos/S_yt_R-SwXr0ScjD9o_20.mp4	0.0	188.45158505439758	0.0999760627746582
37	122.18201804161072	fix_pre	0		100.0	35.0	2.5	blank	1.0	188.55156111717224	0.8333339691162109
37	123.00724387168884	response	0	2		35.0	2.5	blank	1.0	189.37678694725037	
37	123.01535201072693	movie	1		301.0	35.0	2.5	blank	1.0	189.38489508628845	2.5083119869232178
37	125.52366399765015	fix_post	2		12.0	35.0	2.5	blank	1.0	191.89320707321167	0.10013604164123535
38	125.62380003929138	fix_pre	0		92.0	36.0	2.5	/experiments/knapen_aot/videos/R_S_video_inspire_oregon_lone-ranch-beach_00001.1080-h264.mp4	0.0	191.9933431148529	0.7665078639984131
38	126.38207006454468	response	0	2		36.0	2.5	/experiments/knapen_aot/videos/R_S_video_inspire_oregon_lone-ranch-beach_00001.1080-h264.mp4	0.0	192.7516131401062	
38	126.3903079032898	movie	1		164.0	36.0	2.5	/experiments/knapen_aot/videos/R_S_video_inspire_oregon_lone-ranch-beach_00001.1080-h264.mp4	0.0	192.75985097885132	2.508358955383301
38	128.8986668586731	fix_post	2		12.0	36.0	2.5	/experiments/knapen_aot/videos/R_S_video_inspire_oregon_lone-ranch-beach_00001.1080-h264.mp4	0.0	195.26820993423462	0.09998202323913574
39	128.99864888191223	fix_pre	0		100.0	37.0	2.5	/experiments/knapen_aot/videos/S_yt-1n1jTroiwJs_163.mp4	0.0	195.36819195747375	0.8333439826965332
39	129.8239300251007	response	0	2		37.0	2.5	/experiments/knapen_aot/videos/S_yt-1n1jTroiwJs_163.mp4	0.0	196.19347310066223	
39	129.83199286460876	movie	1		301.0	37.0	2.5	/experiments/knapen_aot/videos/S_yt-1n1jTroiwJs_163.mp4	0.0	196.2015359401703	2.508254051208496
39	132.34024691581726	fix_post	2		12.0	37.0	2.5	/experiments/knapen_aot/videos/S_yt-1n1jTroiwJs_163.mp4	0.0	198.70978999137878	0.10001397132873535
40	132.440260887146	fix_pre	0		85.0	38.0	2.5	/experiments/knapen_aot/videos/S_yt-ZBhTpmrAlUY_70.mp4	0.0	198.80980396270752	0.7082440853118896
40	133.14039993286133	response	0	2		38.0	2.5	/experiments/knapen_aot/videos/S_yt-ZBhTpmrAlUY_70.mp4	0.0	199.50994300842285	
40	133.14850497245789	movie	1		301.0	38.0	2.5	/experiments/knapen_aot/videos/S_yt-ZBhTpmrAlUY_70.mp4	0.0	199.5180480480194	2.508352041244507
40	135.6568570137024	fix_post	2		12.0	38.0	2.5	/experiments/knapen_aot/videos/S_yt-ZBhTpmrAlUY_70.mp4	0.0	202.02640008926392	0.10000801086425781
41	135.75686502456665	fix_pre	0		90.0	39.0	2.5	/experiments/knapen_aot/videos/S_yt-rPYBHkUEwwc_10.mp4	0.0	202.12640810012817	0.7500388622283936
41	136.49868607521057	response	0	2		39.0	2.5	/experiments/knapen_aot/videos/S_yt-rPYBHkUEwwc_10.mp4	0.0	202.8682291507721	
41	136.50690388679504	movie	1		301.0	39.0	2.5	/experiments/knapen_aot/videos/S_yt-rPYBHkUEwwc_10.mp4	0.0	202.87644696235657	2.5083811283111572
41	139.0152850151062	fix_post	2		12.0	39.0	2.5	/experiments/knapen_aot/videos/S_yt-rPYBHkUEwwc_10.mp4	0.0	205.38482809066772	0.09995603561401367
42	139.11524105072021	fix_pre	0		98.0	40.0	2.5	/experiments/knapen_aot/videos/S_yt-EFrazkRaYbs_21.mp4	0.0	205.48478412628174	0.8166508674621582
42	139.92362594604492	response	0	2		40.0	2.5	/experiments/knapen_aot/videos/S_yt-EFrazkRaYbs_21.mp4	0.0	206.29316902160645	
42	139.93189191818237	movie	1		301.0	40.0	2.5	/experiments/knapen_aot/videos/S_yt-EFrazkRaYbs_21.mp4	0.0	206.3014349937439	2.5083670616149902
42	142.44025897979736	fix_post	2		12.0	40.0	2.5	/experiments/knapen_aot/videos/S_yt-EFrazkRaYbs_21.mp4	0.0	208.8098020553589	0.10007500648498535
43	142.54033398628235	fix_pre	0		114.0	41.0	2.5	blank	1.0	208.90987706184387	0.9498260021209717
43	143.48201203346252	response	0	2		41.0	2.5	blank	1.0	209.85155510902405	
43	143.49015998840332	movie	1		301.0	41.0	2.5	blank	1.0	209.85970306396484	2.5083529949188232
43	145.99851298332214	fix_post	2		12.0	41.0	2.5	blank	1.0	212.36805605888367	0.0999150276184082
44	146.09842801094055	fix_pre	0		124.0	42.0	2.5	/experiments/knapen_aot/videos/S_pexels-diva-plavalaguna-6985395.mp4	0.0	212.46797108650208	1.0334348678588867
44	147.12364792823792	response	0	2		42.0	2.5	/experiments/knapen_aot/videos/S_pexels-diva-plavalaguna-6985395.mp4	0.0	213.49319100379944	
44	147.13186287879944	movie	1		164.0	42.0	2.5	/experiments/knapen_aot/videos/S_pexels-diva-plavalaguna-6985395.mp4	0.0	213.50140595436096	2.5083250999450684
44	149.6401879787445	fix_post	2		12.0	42.0	2.5	/experiments/knapen_aot/videos/S_pexels-diva-plavalaguna-6985395.mp4	0.0	216.00973105430603	0.09993600845336914
45	149.74012398719788	fix_pre	0		79.0	43.0	2.5	/experiments/knapen_aot/videos/R_S_yt--UhwpukdyBg_51.mp4	0.0	216.1096670627594	0.6583330631256104
45	150.39030599594116	response	0	2		43.0	2.5	/experiments/knapen_aot/videos/R_S_yt--UhwpukdyBg_51.mp4	0.0	216.75984907150269	
45	150.3984570503235	movie	1		301.0	43.0	2.5	/experiments/knapen_aot/videos/R_S_yt--UhwpukdyBg_51.mp4	0.0	216.768000125885	2.50838303565979
45	152.90684008598328	fix_post	2		12.0	43.0	2.5	/experiments/knapen_aot/videos/R_S_yt--UhwpukdyBg_51.mp4	0.0	219.2763831615448	0.09998297691345215
46	153.00682306289673	fix_pre	0		111.0	44.0	2.5	/experiments/knapen_aot/videos/S_yt-SS7pSyb0_d0_32.mp4	0.0	219.37636613845825	0.9249529838562012
46	153.9236409664154	response	0	2		44.0	2.5	/experiments/knapen_aot/videos/S_yt-SS7pSyb0_d0_32.mp4	0.0	220.29318404197693	
46	153.93177604675293	movie	1		301.0	44.0	2.5	/experiments/knapen_aot/videos/S_yt-SS7pSyb0_d0_32.mp4	0.0	220.30131912231445	2.5083839893341064
46	156.44016003608704	fix_post	2		12.0	44.0	2.5	/experiments/knapen_aot/videos/S_yt-SS7pSyb0_d0_32.mp4	0.0	222.80970311164856	0.0999898910522461
47	156.54014992713928	fix_pre	0		89.0	45.0	2.5	/experiments/knapen_aot/videos/S_ILSVRC2015_train_00569007.mp4	0.0	222.9096930027008	0.7427351474761963
47	157.27359795570374	response	0	2		45.0	2.5	/experiments/knapen_aot/videos/S_ILSVRC2015_train_00569007.mp4	0.0	223.64314103126526	
47	157.28288507461548	movie	1		299.0	45.0	2.5	/experiments/knapen_aot/videos/S_ILSVRC2015_train_00569007.mp4	0.0	223.652428150177	2.5072619915008545
47	159.79014706611633	fix_post	2		12.0	45.0	2.5	/experiments/knapen_aot/videos/S_ILSVRC2015_train_00569007.mp4	0.0	226.15969014167786	0.09990501403808594
48	159.89005208015442	fix_pre	0		88.0	46.0	2.5	/experiments/knapen_aot/videos/S_yt-CZ2qiY-kS7Y_105.mp4	0.0	226.25959515571594	0.7333528995513916
48	160.61529207229614	response	0	2		46.0	2.5	/experiments/knapen_aot/videos/S_yt-CZ2qiY-kS7Y_105.mp4	0.0	226.98483514785767	
48	160.6234049797058	movie	1		301.0	46.0	2.5	/experiments/knapen_aot/videos/S_yt-CZ2qiY-kS7Y_105.mp4	0.0	226.99294805526733	2.508354902267456
48	163.13175988197327	fix_post	2		12.0	46.0	2.5	/experiments/knapen_aot/videos/S_yt-CZ2qiY-kS7Y_105.mp4	0.0	229.5013029575348	0.10001111030578613
49	163.23177099227905	fix_pre	0		85.0	47.0	2.5	/experiments/knapen_aot/videos/S_yt-hvuC_2YXsTQ_73.mp4	0.0	229.60131406784058	0.7082898616790771
49	163.93190908432007	response	0	2		47.0	2.5	/experiments/knapen_aot/videos/S_yt-hvuC_2YXsTQ_73.mp4	0.0	230.3014521598816	
49	163.94006085395813	movie	1		301.0	47.0	2.5	/experiments/knapen_aot/videos/S_yt-hvuC_2YXsTQ_73.mp4	0.0	230.30960392951965	2.5083441734313965
49	166.44840502738953	fix_post	2		12.0	47.0	2.5	/experiments/knapen_aot/videos/S_yt-hvuC_2YXsTQ_73.mp4	0.0	232.81794810295105	0.10001301765441895
50	166.54841804504395	fix_pre	0		114.0	48.0	2.5	blank	1.0	232.91796112060547	0.9499788284301758
50	167.4901840686798	response	0	2		48.0	2.5	blank	1.0	233.85972714424133	
50	167.49839687347412	movie	1		301.0	48.0	2.5	blank	1.0	233.86793994903564	2.5083420276641846
50	170.0067389011383	fix_post	2		12.0	48.0	2.5	blank	1.0	236.37628197669983	0.10004305839538574
51	170.1067819595337	fix_pre	0		87.0	49.0	2.5	/experiments/knapen_aot/videos/R_S_cST9H3zu3zQ_126.mp4	0.0	236.47632503509521	0.7249250411987305
51	170.82353401184082	response	0	2		49.0	2.5	/experiments/knapen_aot/videos/R_S_cST9H3zu3zQ_126.mp4	0.0	237.19307708740234	
51	170.83170700073242	movie	1		301.0	49.0	2.5	/experiments/knapen_aot/videos/R_S_cST9H3zu3zQ_126.mp4	0.0	237.20125007629395	2.5083138942718506
51	173.34002089500427	fix_post	2		12.0	49.0	2.5	/experiments/knapen_aot/videos/R_S_cST9H3zu3zQ_126.mp4	0.0	239.7095639705658	0.10012602806091309
52	173.44014692306519	fix_pre	0		78.0	50.0	2.5	/experiments/knapen_aot/videos/R_S_yt-06XMUn9DTKc_35.mp4	0.0	239.8096899986267	0.649914026260376
52	174.0818829536438	response	0	2		50.0	2.5	/experiments/knapen_aot/videos/R_S_yt-06XMUn9DTKc_35.mp4	0.0	240.45142602920532	
52	174.09006094932556	movie	1		301.0	50.0	2.5	/experiments/knapen_aot/videos/R_S_yt-06XMUn9DTKc_35.mp4	0.0	240.45960402488708	2.508366107940674
52	176.59842705726624	fix_post	2		12.0	50.0	2.5	/experiments/knapen_aot/videos/R_S_yt-06XMUn9DTKc_35.mp4	0.0	242.96797013282776	0.09992289543151855
53	176.69834995269775	fix_pre	0		13.0	51.0	2.5	/experiments/knapen_aot/videos/S_yt-a9bnYU0Gnxg_59.mp4	0.0	243.06789302825928	0.10840296745300293
53	176.79852485656738	response	0	2		51.0	2.5	/experiments/knapen_aot/videos/S_yt-a9bnYU0Gnxg_59.mp4	0.0	243.1680679321289	
53	176.80675292015076	movie	1		301.0	51.0	2.5	/experiments/knapen_aot/videos/S_yt-a9bnYU0Gnxg_59.mp4	0.0	243.17629599571228	2.5082809925079346
53	179.3150339126587	fix_post	2		12.0	51.0	2.5	/experiments/knapen_aot/videos/S_yt-a9bnYU0Gnxg_59.mp4	0.0	245.68457698822021	0.10004806518554688
54	179.41508197784424	fix_pre	0		62.0	52.0	2.5	/experiments/knapen_aot/videos/R_S_yt-UPgF4YAHBQY_33.mp4	0.0	245.78462505340576	0.5166220664978027
54	179.92353200912476	response	0	2		52.0	2.5	/experiments/knapen_aot/videos/R_S_yt-UPgF4YAHBQY_33.mp4	0.0	246.29307508468628	
54	179.93170404434204	movie	1		301.0	52.0	2.5	/experiments/knapen_aot/videos/R_S_yt-UPgF4YAHBQY_33.mp4	0.0	246.30124711990356	2.508363962173462
54	182.4400680065155	fix_post	2		12.0	52.0	2.5	/experiments/knapen_aot/videos/R_S_yt-UPgF4YAHBQY_33.mp4	0.0	248.80961108207703	0.099945068359375
55	182.54001307487488	fix_pre	0		141.0	53.0	2.5	/experiments/knapen_aot/videos/R_S_yt-5rC42egLl5E_387.mp4	0.0	248.9095561504364	1.175004005432129
55	183.70694994926453	response	0	2		53.0	2.5	/experiments/knapen_aot/videos/R_S_yt-5rC42egLl5E_387.mp4	0.0	250.07649302482605	
55	183.715017080307	movie	1		301.0	53.0	2.5	/experiments/knapen_aot/videos/R_S_yt-5rC42egLl5E_387.mp4	0.0	250.08456015586853	2.508314847946167
55	186.22333192825317	fix_post	2		12.0	53.0	2.5	/experiments/knapen_aot/videos/R_S_yt-5rC42egLl5E_387.mp4	0.0	252.5928750038147	0.10003304481506348
56	186.32336497306824	fix_pre	0		107.0	54.0	2.5	/experiments/knapen_aot/videos/R_S_production_ID_4325513.mp4	0.0	252.69290804862976	0.8916139602661133
56	187.20679688453674	response	0	2		54.0	2.5	/experiments/knapen_aot/videos/R_S_production_ID_4325513.mp4	0.0	253.57633996009827	
56	187.21497893333435	movie	1		196.0	54.0	2.5	/experiments/knapen_aot/videos/R_S_production_ID_4325513.mp4	0.0	253.58452200889587	2.5083041191101074
56	189.72328305244446	fix_post	2		12.0	54.0	2.5	/experiments/knapen_aot/videos/R_S_production_ID_4325513.mp4	0.0	256.092826128006	0.1000678539276123
57	189.82335090637207	fix_pre	0		71.0	55.0	2.5	blank	1.0	256.1928939819336	0.5917091369628906
57	190.40678596496582	response	0	2		55.0	2.5	blank	1.0	256.77632904052734	
57	190.41506004333496	movie	1		301.0	55.0	2.5	blank	1.0	256.7846031188965	2.508270025253296
57	192.92333006858826	fix_post	2		12.0	55.0	2.5	blank	1.0	259.2928731441498	0.09999394416809082
58	193.02332401275635	fix_pre	0		96.0	56.0	2.5	/experiments/knapen_aot/videos/S_yt-LB9LoYfH_EA_15.mp4	0.0	259.39286708831787	0.8008449077606201
58	193.8151400089264	response	0	2		56.0	2.5	/experiments/knapen_aot/videos/S_yt-LB9LoYfH_EA_15.mp4	0.0	260.1846830844879	
58	193.82416892051697	movie	1		301.0	56.0	2.5	/experiments/knapen_aot/videos/S_yt-LB9LoYfH_EA_15.mp4	0.0	260.1937119960785	2.5075290203094482
58	196.33169794082642	fix_post	2		12.0	56.0	2.5	/experiments/knapen_aot/videos/S_yt-LB9LoYfH_EA_15.mp4	0.0	262.70124101638794	0.10000014305114746
59	196.43169808387756	fix_pre	0		106.0	57.0	2.5	/experiments/knapen_aot/videos/S_yt-XF0fyyFEgWo_280.mp4	0.0	262.8012411594391	0.883293867111206
59	197.30682587623596	response	0	2		57.0	2.5	/experiments/knapen_aot/videos/S_yt-XF0fyyFEgWo_280.mp4	0.0	263.6763689517975	
59	197.31499195098877	movie	1		301.0	57.0	2.5	/experiments/knapen_aot/videos/S_yt-XF0fyyFEgWo_280.mp4	0.0	263.6845350265503	2.508331060409546
59	199.82332301139832	fix_post	2		12.0	57.0	2.5	/experiments/knapen_aot/videos/S_yt-XF0fyyFEgWo_280.mp4	0.0	266.19286608695984	0.10003185272216797
60	199.92335486412048	fix_pre	0		108.0	58.0	2.5	/experiments/knapen_aot/videos/R_S_yt-1uk2k3PnTNw_37.0.mp4	0.0	266.292897939682	0.9007561206817627
60	200.81513690948486	response	0	2		58.0	2.5	/experiments/knapen_aot/videos/R_S_yt-1uk2k3PnTNw_37.0.mp4	0.0	267.1846799850464	
60	200.82411098480225	movie	1		301.0	58.0	2.5	/experiments/knapen_aot/videos/R_S_yt-1uk2k3PnTNw_37.0.mp4	0.0	267.19365406036377	2.5075509548187256
60	203.33166193962097	fix_post	2		12.0	58.0	2.5	/experiments/knapen_aot/videos/R_S_yt-1uk2k3PnTNw_37.0.mp4	0.0	269.7012050151825	0.09990191459655762
61	203.43156385421753	fix_pre	0		110.0	59.0	2.5	/experiments/knapen_aot/videos/R_S_yt-SjPYdaUBi7A_37.mp4	0.0	269.80110692977905	0.9166741371154785
61	204.340106010437	response	0	2		59.0	2.5	/experiments/knapen_aot/videos/R_S_yt-SjPYdaUBi7A_37.mp4	0.0	270.70964908599854	
61	204.348237991333	movie	1		301.0	59.0	2.5	/experiments/knapen_aot/videos/R_S_yt-SjPYdaUBi7A_37.mp4	0.0	270.71778106689453	2.5082719326019287
61	206.85650992393494	fix_post	2		12.0	59.0	2.5	/experiments/knapen_aot/videos/R_S_yt-SjPYdaUBi7A_37.mp4	0.0	273.22605299949646	0.10003495216369629
62	206.95654487609863	fix_pre	0		85.0	60.0	2.5	/experiments/knapen_aot/videos/S_yt-F1X_vq0Zioc_154.mp4	0.0	273.32608795166016	0.708327054977417
62	207.65674686431885	response	0	2		60.0	2.5	/experiments/knapen_aot/videos/S_yt-F1X_vq0Zioc_154.mp4	0.0	274.02628993988037	
62	207.66487193107605	movie	1		301.0	60.0	2.5	/experiments/knapen_aot/videos/S_yt-F1X_vq0Zioc_154.mp4	0.0	274.0344150066376	2.5083529949188232
62	210.17322492599487	fix_post	2		12.0	60.0	2.5	/experiments/knapen_aot/videos/S_yt-F1X_vq0Zioc_154.mp4	0.0	276.5427680015564	0.10004401206970215
63	210.27326893806458	fix_pre	0		85.0	61.0	2.5	blank	1.0	276.6428120136261	0.7083189487457275
63	210.96585893630981	response	0	2		61.0	2.5	blank	1.0	277.33540201187134	
63	210.9815878868103	movie	1		301.0	61.0	2.5	blank	1.0	277.3511309623718	2.5082480907440186
63	213.48983597755432	fix_post	2		12.0	61.0	2.5	blank	1.0	279.85937905311584	0.10010194778442383
64	213.58993792533875	fix_pre	0		66.0	62.0	2.5	/experiments/knapen_aot/videos/S_Pexels_Videos_2786546.mp4	0.0	279.95948100090027	0.5499560832977295
64	214.13164401054382	response	0	2		62.0	2.5	/experiments/knapen_aot/videos/S_Pexels_Videos_2786546.mp4	0.0	280.50118708610535	
64	214.13989400863647	movie	1		165.0	62.0	2.5	/experiments/knapen_aot/videos/S_Pexels_Videos_2786546.mp4	0.0	280.509437084198	2.5083348751068115
64	216.6482288837433	fix_post	2		12.0	62.0	2.5	/experiments/knapen_aot/videos/S_Pexels_Videos_2786546.mp4	0.0	283.0177719593048	0.10001111030578613
65	216.74823999404907	fix_pre	0		67.0	63.0	2.5	/experiments/knapen_aot/videos/R_S_yt-SS7pSyb0_d0_32.mp4	0.0	283.1177830696106	0.5583338737487793
65	217.29833602905273	response	0	2		63.0	2.5	/experiments/knapen_aot/videos/R_S_yt-SS7pSyb0_d0_32.mp4	0.0	283.66787910461426	
65	217.30657386779785	movie	1		301.0	63.0	2.5	/experiments/knapen_aot/videos/R_S_yt-SS7pSyb0_d0_32.mp4	0.0	283.6761169433594	2.5082290172576904
65	219.81480288505554	fix_post	2		12.0	63.0	2.5	/experiments/knapen_aot/videos/R_S_yt-SS7pSyb0_d0_32.mp4	0.0	286.18434596061707	0.10003399848937988
66	219.91483688354492	fix_pre	0		81.0	64.0	2.5	/experiments/knapen_aot/videos/R_S_yt-ZzC953ahaxs_195.mp4	0.0	286.28437995910645	0.674997091293335
66	220.58166408538818	response	0	2		64.0	2.5	/experiments/knapen_aot/videos/R_S_yt-ZzC953ahaxs_195.mp4	0.0	286.9512071609497	
66	220.58983397483826	movie	1		299.0	64.0	2.5	/experiments/knapen_aot/videos/R_S_yt-ZzC953ahaxs_195.mp4	0.0	286.9593770503998	2.508354902267456
66	223.0981888771057	fix_post	2		12.0	64.0	2.5	/experiments/knapen_aot/videos/R_S_yt-ZzC953ahaxs_195.mp4	0.0	289.46773195266724	0.10004901885986328
67	223.19823789596558	fix_pre	0		93.0	65.0	2.5	/experiments/knapen_aot/videos/R_S_yt-F1X_vq0Zioc_154.mp4	0.0	289.5677809715271	0.7749261856079102
67	223.96500706672668	response	0	2		65.0	2.5	/experiments/knapen_aot/videos/R_S_yt-F1X_vq0Zioc_154.mp4	0.0	290.3345501422882	
67	223.9731640815735	movie	1		298.0	65.0	2.5	/experiments/knapen_aot/videos/R_S_yt-F1X_vq0Zioc_154.mp4	0.0	290.342707157135	2.5082969665527344
67	226.48146104812622	fix_post	2		12.0	65.0	2.5	/experiments/knapen_aot/videos/R_S_yt-F1X_vq0Zioc_154.mp4	0.0	292.85100412368774	0.10002589225769043
68	226.5814869403839	fix_pre	0		108.0	66.0	2.5	/experiments/knapen_aot/videos/S_yt-fCjjH_4i8Fg_115.mp4	0.0	292.95103001594543	0.8999919891357422
68	227.473326921463	response	0	2		66.0	2.5	/experiments/knapen_aot/videos/S_yt-fCjjH_4i8Fg_115.mp4	0.0	293.84286999702454	
68	227.48147892951965	movie	1		301.0	66.0	2.5	/experiments/knapen_aot/videos/S_yt-fCjjH_4i8Fg_115.mp4	0.0	293.8510220050812	2.508296012878418
68	229.98977494239807	fix_post	2		12.0	66.0	2.5	/experiments/knapen_aot/videos/S_yt-fCjjH_4i8Fg_115.mp4	0.0	296.3593180179596	0.09999895095825195
69	230.08977389335632	fix_pre	0		86.0	67.0	2.5	/experiments/knapen_aot/videos/S_production_ID_4269182.mp4	0.0	296.45931696891785	0.7166671752929688
69	230.79076290130615	response	0	2		67.0	2.5	/experiments/knapen_aot/videos/S_production_ID_4269182.mp4	0.0	297.1603059768677	
69	230.8064410686493	movie	1		194.0	67.0	2.5	/experiments/knapen_aot/videos/S_production_ID_4269182.mp4	0.0	297.1759841442108	2.5083279609680176
69	233.3147690296173	fix_post	2		12.0	67.0	2.5	/experiments/knapen_aot/videos/S_production_ID_4269182.mp4	0.0	299.68431210517883	0.10006093978881836
70	233.41482996940613	fix_pre	0		71.0	68.0	2.5	blank	1.0	299.78437304496765	0.5916590690612793
70	233.99829196929932	response	0	2		68.0	2.5	blank	1.0	300.36783504486084	
70	234.0064890384674	movie	1		301.0	68.0	2.5	blank	1.0	300.37603211402893	2.50833797454834
70	236.51482701301575	fix_post	2		12.0	68.0	2.5	blank	1.0	302.88437008857727	0.099945068359375
71	236.61477208137512	fix_pre	0		39.0	69.0	2.5	/experiments/knapen_aot/videos/S_yt-i-1Gou9SA5U_3.mp4	0.0	302.98431515693665	0.3249838352203369
71	236.93158602714539	response	0	2		69.0	2.5	/experiments/knapen_aot/videos/S_yt-i-1Gou9SA5U_3.mp4	0.0	303.3011291027069	
71	236.93975591659546	movie	1		298.0	69.0	2.5	/experiments/knapen_aot/videos/S_yt-i-1Gou9SA5U_3.mp4	0.0	303.309298992157	2.5084080696105957
71	239.07390308380127	response	1	2		69.0	2.5	/experiments/knapen_aot/videos/S_yt-i-1Gou9SA5U_3.mp4	0.0	305.4434461593628	
71	239.44816398620605	fix_post	2		12.0	69.0	2.5	/experiments/knapen_aot/videos/S_yt-i-1Gou9SA5U_3.mp4	0.0	305.8177070617676	0.09995007514953613
72	239.5481140613556	fix_pre	0		77.0	70.0	2.5	/experiments/knapen_aot/videos/S_yt--cAfxH1WnPo_3.mp4	0.0	305.9176571369171	0.6416208744049072
72	240.17400288581848	response	0	2		70.0	2.5	/experiments/knapen_aot/videos/S_yt--cAfxH1WnPo_3.mp4	0.0	306.54354596138	
72	240.1897349357605	movie	1		301.0	70.0	2.5	/experiments/knapen_aot/videos/S_yt--cAfxH1WnPo_3.mp4	0.0	306.559278011322	2.5083460807800293
72	242.69808101654053	fix_post	2		12.0	70.0	2.5	/experiments/knapen_aot/videos/S_yt--cAfxH1WnPo_3.mp4	0.0	309.06762409210205	0.10001397132873535
73	242.79809498786926	fix_pre	0		140.0	71.0	2.5	/experiments/knapen_aot/videos/R_S_yt-Ojy5TMPX8_Q_165.mp4	0.0	309.1676380634308	1.1666259765625
73	243.94905185699463	response	0	2		71.0	2.5	/experiments/knapen_aot/videos/R_S_yt-Ojy5TMPX8_Q_165.mp4	0.0	310.31859493255615	
73	243.96472096443176	movie	1		301.0	71.0	2.5	/experiments/knapen_aot/videos/R_S_yt-Ojy5TMPX8_Q_165.mp4	0.0	310.3342640399933	2.508347988128662
73	246.47306895256042	fix_post	2		12.0	71.0	2.5	/experiments/knapen_aot/videos/R_S_yt-Ojy5TMPX8_Q_165.mp4	0.0	312.84261202812195	0.10004591941833496
74	246.57311487197876	fix_pre	0		102.0	72.0	2.5	/experiments/knapen_aot/videos/S_comp_DB_D011_D009_SIGNCMP_v15_6Mbps.mp4	0.0	312.9426579475403	0.8498940467834473
74	247.41487288475037	response	0	2		72.0	2.5	/experiments/knapen_aot/videos/S_comp_DB_D011_D009_SIGNCMP_v15_6Mbps.mp4	0.0	313.7844159603119	
74	247.4230089187622	movie	1		166.0	72.0	2.5	/experiments/knapen_aot/videos/S_comp_DB_D011_D009_SIGNCMP_v15_6Mbps.mp4	0.0	313.79255199432373	2.5083861351013184
74	249.93139505386353	fix_post	2		12.0	72.0	2.5	/experiments/knapen_aot/videos/S_comp_DB_D011_D009_SIGNCMP_v15_6Mbps.mp4	0.0	316.30093812942505	0.10001087188720703
75	250.03140592575073	fix_pre	0		64.0	73.0	2.5	/experiments/knapen_aot/videos/R_S_bing-www_dailymotion_com_video_x4kcklg_53.mp4	0.0	316.40094900131226	0.5332851409912109
75	250.5565149784088	response	0	2		73.0	2.5	/experiments/knapen_aot/videos/R_S_bing-www_dailymotion_com_video_x4kcklg_53.mp4	0.0	316.92605805397034	
75	250.56469106674194	movie	1		165.0	73.0	2.5	/experiments/knapen_aot/videos/R_S_bing-www_dailymotion_com_video_x4kcklg_53.mp4	0.0	316.93423414230347	2.508316993713379
75	253.07300806045532	fix_post	2		12.0	73.0	2.5	/experiments/knapen_aot/videos/R_S_bing-www_dailymotion_com_video_x4kcklg_53.mp4	0.0	319.44255113601685	0.10007882118225098
76	253.17308688163757	fix_pre	0		70.0	74.0	2.5	/experiments/knapen_aot/videos/S_video-5.mp4	0.0	319.5426299571991	0.5847361087799072
76	253.7482829093933	response	0	2		74.0	2.5	/experiments/knapen_aot/videos/S_video-5.mp4	0.0	320.11782598495483	
76	253.75782299041748	movie	1		166.0	74.0	2.5	/experiments/knapen_aot/videos/S_video-5.mp4	0.0	320.127366065979	2.506852865219116
76	256.2646758556366	fix_post	2		12.0	74.0	2.5	/experiments/knapen_aot/videos/S_video-5.mp4	0.0	322.6342189311981	0.09999918937683105
77	256.3646750450134	fix_pre	0		85.0	75.0	2.5	/experiments/knapen_aot/videos/R_S_yt-WpLgDX6Yw_s_20.mp4	0.0	322.73421812057495	0.708845853805542
77	257.06485390663147	response	0	2		75.0	2.5	/experiments/knapen_aot/videos/R_S_yt-WpLgDX6Yw_s_20.mp4	0.0	323.434396982193	
77	257.07352089881897	movie	1		301.0	75.0	2.5	/experiments/knapen_aot/videos/R_S_yt-WpLgDX6Yw_s_20.mp4	0.0	323.4430639743805	2.507797956466675
77	259.58131885528564	fix_post	2		12.0	75.0	2.5	/experiments/knapen_aot/videos/R_S_yt-WpLgDX6Yw_s_20.mp4	0.0	325.95086193084717	0.1000370979309082
78	259.68135595321655	fix_pre	0		88.0	76.0	2.5	/experiments/knapen_aot/videos/R_S_yt-gaCbT4RR9Tw_191.mp4	0.0	326.0508990287781	0.733288049697876
78	260.406457901001	response	0	2		76.0	2.5	/experiments/knapen_aot/videos/R_S_yt-gaCbT4RR9Tw_191.mp4	0.0	326.7760009765625	
78	260.41464400291443	movie	1		301.0	76.0	2.5	/experiments/knapen_aot/videos/R_S_yt-gaCbT4RR9Tw_191.mp4	0.0	326.78418707847595	2.508394956588745
78	262.9230389595032	fix_post	2		12.0	76.0	2.5	/experiments/knapen_aot/videos/R_S_yt-gaCbT4RR9Tw_191.mp4	0.0	329.2925820350647	0.10000491142272949
79	263.0230438709259	fix_pre	0		101.0	77.0	2.5	blank	1.0	329.3925869464874	0.8421881198883057
79	263.85647988319397	response	0	2		77.0	2.5	blank	1.0	330.2260229587555	
79	263.8652319908142	movie	1		301.0	77.0	2.5	blank	1.0	330.23477506637573	2.5077900886535645
79	266.3730220794678	fix_post	2		12.0	77.0	2.5	blank	1.0	332.7425651550293	0.09997892379760742
80	266.4730010032654	fix_pre	0		102.0	78.0	2.5	/experiments/knapen_aot/videos/R_S_yt-HMAa2QbfFPI_216.mp4	0.0	332.8425440788269	0.8504629135131836
80	267.3073658943176	response	0	2		78.0	2.5	/experiments/knapen_aot/videos/R_S_yt-HMAa2QbfFPI_216.mp4	0.0	333.67690896987915	
80	267.32346391677856	movie	1		301.0	78.0	2.5	/experiments/knapen_aot/videos/R_S_yt-HMAa2QbfFPI_216.mp4	0.0	333.6930069923401	2.507869005203247
80	269.8313329219818	fix_post	2		12.0	78.0	2.5	/experiments/knapen_aot/videos/R_S_yt-HMAa2QbfFPI_216.mp4	0.0	336.20087599754333	0.09999895095825195
81	269.93133187294006	fix_pre	0		88.0	79.0	2.5	/experiments/knapen_aot/videos/R_S_yt-JTuopUgmg1w_101.mp4	0.0	336.3008749485016	0.7333371639251709
81	270.64880108833313	response	0	2		79.0	2.5	/experiments/knapen_aot/videos/R_S_yt-JTuopUgmg1w_101.mp4	0.0	337.01834416389465	
81	270.66466903686523	movie	1		301.0	79.0	2.5	/experiments/knapen_aot/videos/R_S_yt-JTuopUgmg1w_101.mp4	0.0	337.03421211242676	2.5082929134368896
81	273.1729619503021	fix_post	2		12.0	79.0	2.5	/experiments/knapen_aot/videos/R_S_yt-JTuopUgmg1w_101.mp4	0.0	339.54250502586365	0.1000669002532959
82	273.2730288505554	fix_pre	0		54.0	80.0	2.5	/experiments/knapen_aot/videos/R_S_yt-PCSXJ5YB_AE_3.mp4	0.0	339.64257192611694	0.449923038482666
82	273.71478390693665	response	0	2		80.0	2.5	/experiments/knapen_aot/videos/R_S_yt-PCSXJ5YB_AE_3.mp4	0.0	340.08432698249817	
82	273.7229518890381	movie	1		301.0	80.0	2.5	/experiments/knapen_aot/videos/R_S_yt-PCSXJ5YB_AE_3.mp4	0.0	340.0924949645996	2.5083651542663574
82	276.23131704330444	fix_post	2		12.0	80.0	2.5	/experiments/knapen_aot/videos/R_S_yt-PCSXJ5YB_AE_3.mp4	0.0	342.60086011886597	0.09995794296264648
83	276.3312749862671	fix_pre	0		107.0	81.0	2.5	/experiments/knapen_aot/videos/R_S_ILSVRC2015_train_00415007.mp4	0.0	342.7008180618286	0.8915829658508301
83	277.2147560119629	response	0	2		81.0	2.5	/experiments/knapen_aot/videos/R_S_ILSVRC2015_train_00415007.mp4	0.0	343.5842990875244	
83	277.2228579521179	movie	1		301.0	81.0	2.5	/experiments/knapen_aot/videos/R_S_ILSVRC2015_train_00415007.mp4	0.0	343.59240102767944	2.508336067199707
83	279.7311940193176	fix_post	2		12.0	81.0	2.5	/experiments/knapen_aot/videos/R_S_ILSVRC2015_train_00415007.mp4	0.0	346.10073709487915	0.10004591941833496
84	279.83123993873596	fix_pre	0		86.0	82.0	2.5	/experiments/knapen_aot/videos/R_S_yt-8vm83GUgYxI_1.mp4	0.0	346.2007830142975	0.7166879177093506
84	280.5397410392761	response	0	2		82.0	2.5	/experiments/knapen_aot/videos/R_S_yt-8vm83GUgYxI_1.mp4	0.0	346.90928411483765	
84	280.5479278564453	movie	1		301.0	82.0	2.5	/experiments/knapen_aot/videos/R_S_yt-8vm83GUgYxI_1.mp4	0.0	346.91747093200684	2.5083529949188232
84	283.05628085136414	fix_post	2		12.0	82.0	2.5	/experiments/knapen_aot/videos/R_S_yt-8vm83GUgYxI_1.mp4	0.0	349.42582392692566	0.09990119934082031
85	283.15618205070496	fix_pre	0		102.0	83.0	2.5	blank	1.0	349.5257251262665	0.8500549793243408
85	283.9980540275574	response	0	2		83.0	2.5	blank	1.0	350.3675971031189	
85	284.0062370300293	movie	1		301.0	83.0	2.5	blank	1.0	350.3757801055908	2.508301019668579
85	286.5145380496979	fix_post	2		12.0	83.0	2.5	blank	1.0	352.8840811252594	0.10051202774047852
87	286.61505007743835	stim	0		159.0					352.9845931529999	1.3263318538665771
87	287.93574500083923	response	0	space						354.30528807640076	
