trial_nr	onset	event_type	phase	response	nr_frames	movie_index	movie_duration	movie_file	blank	onset_abs	duration
0	0.16328001022338867	stim	0		50.0					139.8179051876068	0.4302191734313965
0	0.58309006690979	response	0	space						140.2377152442932	
1	0.5934991836547852	stim	0		121.0					140.2481243610382	1.005915880203247
1	1.3915910720825195	response	0	space						141.04621624946594	
1	1.5994150638580322	stim	1		120.0					141.25404024124146	0.9999470710754395
1	1.900299072265625	response	1	space						141.55492424964905	
2	2.5993621349334717	fix_pre	0		3.0	0.0	2.5	/experiments/knapen_aot/oldvideos/S_yt-EvKV7iY1_HM_193.mp4	0.0	142.2539873123169	0.02501988410949707
2	2.616180181503296	response	0	space		0.0	2.5	/experiments/knapen_aot/oldvideos/S_yt-EvKV7iY1_HM_193.mp4	0.0	142.27080535888672	
2	2.6243820190429688	movie	1		297.0	0.0	2.5	/experiments/knapen_aot/oldvideos/S_yt-EvKV7iY1_HM_193.mp4	0.0	142.2790071964264	2.5082991123199463
2	5.132681131362915	fix_post	2		12.0	0.0	2.5	/experiments/knapen_aot/oldvideos/S_yt-EvKV7iY1_HM_193.mp4	0.0	144.78730630874634	0.09999299049377441
3	5.2326741218566895	fix_pre	0		876.0	1.0	2.5	/experiments/knapen_aot/oldvideos/R_S_S003_C020_SDR_2K_AVC.mp4	0.0	144.8872992992401	7.305133104324341
3	12.529556035995483	response	0	2		1.0	2.5	/experiments/knapen_aot/oldvideos/R_S_S003_C020_SDR_2K_AVC.mp4	0.0	152.1841812133789	
3	12.53780722618103	movie	1		174.0	1.0	2.5	/experiments/knapen_aot/oldvideos/R_S_S003_C020_SDR_2K_AVC.mp4	0.0	152.19243240356445	2.503154993057251
3	15.040962219238281	fix_post	2		12.0	1.0	2.5	/experiments/knapen_aot/oldvideos/R_S_S003_C020_SDR_2K_AVC.mp4	0.0	154.6955873966217	0.10003089904785156
4	15.140993118286133	fix_pre	0		344.0	2.0	2.5	/experiments/knapen_aot/oldvideos/R_S_yt-qiPhBL4lBr0_44.mp4	0.0	154.79561829566956	2.866611957550049
4	17.99938702583313	response	0	2		2.0	2.5	/experiments/knapen_aot/oldvideos/R_S_yt-qiPhBL4lBr0_44.mp4	0.0	157.65401220321655	
4	18.00760507583618	movie	1		301.0	2.0	2.5	/experiments/knapen_aot/oldvideos/R_S_yt-qiPhBL4lBr0_44.mp4	0.0	157.6622302532196	2.508341073989868
4	20.51594614982605	fix_post	2		12.0	2.0	2.5	/experiments/knapen_aot/oldvideos/R_S_yt-qiPhBL4lBr0_44.mp4	0.0	160.17057132720947	0.10000085830688477
5	20.615947008132935	fix_pre	0		36.0	3.0	2.5	/experiments/knapen_aot/oldvideos/R_S_yt-_BvMLZo0MG0_1226.mp4	0.0	160.27057218551636	0.30001306533813477
5	20.907772064208984	response	0	2		3.0	2.5	/experiments/knapen_aot/oldvideos/R_S_yt-_BvMLZo0MG0_1226.mp4	0.0	160.5623972415924	
5	20.91596007347107	movie	1		301.0	3.0	2.5	/experiments/knapen_aot/oldvideos/R_S_yt-_BvMLZo0MG0_1226.mp4	0.0	160.5705852508545	2.508366107940674
5	23.424326181411743	fix_post	2		12.0	3.0	2.5	/experiments/knapen_aot/oldvideos/R_S_yt-_BvMLZo0MG0_1226.mp4	0.0	163.07895135879517	0.09997987747192383
6	23.524306058883667	fix_pre	0		28.0	4.0	2.5	/experiments/knapen_aot/oldvideos/R_S_yt-BDCyXL5e9S4_223.mp4	0.0	163.1789312362671	0.23326897621154785
6	23.741798162460327	response	0	2		4.0	2.5	/experiments/knapen_aot/oldvideos/R_S_yt-BDCyXL5e9S4_223.mp4	0.0	163.39642333984375	
6	23.757575035095215	movie	1		301.0	4.0	2.5	/experiments/knapen_aot/oldvideos/R_S_yt-BDCyXL5e9S4_223.mp4	0.0	163.41220021247864	2.508327007293701
6	26.265902042388916	fix_post	2		12.0	4.0	2.5	/experiments/knapen_aot/oldvideos/R_S_yt-BDCyXL5e9S4_223.mp4	0.0	165.92052721977234	0.10008001327514648
7	26.365982055664062	fix_pre	0		522.0	5.0	2.5	/experiments/knapen_aot/oldvideos/S_yt-BDCyXL5e9S4_223.mp4	0.0	166.02060723304749	4.349846124649048
7	30.707672119140625	response	0	2		5.0	2.5	/experiments/knapen_aot/oldvideos/S_yt-BDCyXL5e9S4_223.mp4	0.0	170.36229729652405	
7	30.71582818031311	movie	1		301.0	5.0	2.5	/experiments/knapen_aot/oldvideos/S_yt-BDCyXL5e9S4_223.mp4	0.0	170.37045335769653	2.5084638595581055
7	33.224292039871216	fix_post	2		12.0	5.0	2.5	/experiments/knapen_aot/oldvideos/S_yt-BDCyXL5e9S4_223.mp4	0.0	172.87891721725464	0.09998011589050293
8	33.32427215576172	fix_pre	0		122.0	6.0	2.5	blank	1.0	172.97889733314514	1.016658067703247
8	34.325199127197266	response	0	2		6.0	2.5	blank	1.0	173.9798243045807	
8	34.340930223464966	movie	1		301.0	6.0	2.5	blank	1.0	173.9955554008484	2.5082619190216064
8	36.84919214248657	fix_post	2		12.0	6.0	2.5	blank	1.0	176.50381731987	0.10011887550354004
9	36.94931101799011	fix_pre	0		44.0	7.0	2.5	/experiments/knapen_aot/oldvideos/S_yt--JnTDuElzXQ_121.mp4	0.0	176.60393619537354	0.3665800094604492
9	37.30764722824097	response	0	2		7.0	2.5	/experiments/knapen_aot/oldvideos/S_yt--JnTDuElzXQ_121.mp4	0.0	176.9622724056244	
9	37.31589102745056	movie	1		301.0	7.0	2.5	/experiments/knapen_aot/oldvideos/S_yt--JnTDuElzXQ_121.mp4	0.0	176.97051620483398	2.508388042449951
9	39.82427906990051	fix_post	2		12.0	7.0	2.5	/experiments/knapen_aot/oldvideos/S_yt--JnTDuElzXQ_121.mp4	0.0	179.47890424728394	0.09998607635498047
10	39.92426514625549	fix_pre	0		195.0	8.0	2.5	/experiments/knapen_aot/oldvideos/R_S_ILSVRC2015_train_00434000.mp4	0.0	179.57889032363892	1.6249279975891113
10	41.54097318649292	response	0	2		8.0	2.5	/experiments/knapen_aot/oldvideos/R_S_ILSVRC2015_train_00434000.mp4	0.0	181.19559836387634	
10	41.549193143844604	movie	1		301.0	8.0	2.5	/experiments/knapen_aot/oldvideos/R_S_ILSVRC2015_train_00434000.mp4	0.0	181.20381832122803	2.5083608627319336
10	44.05755400657654	fix_post	2		12.0	8.0	2.5	/experiments/knapen_aot/oldvideos/R_S_ILSVRC2015_train_00434000.mp4	0.0	183.71217918395996	0.10004019737243652
11	44.157594203948975	fix_pre	0		125.0	9.0	2.5	/experiments/knapen_aot/oldvideos/S_ILSVRC2015_train_00411001.mp4	0.0	183.8122193813324	1.041632890701294
11	45.19104504585266	response	0	2		9.0	2.5	/experiments/knapen_aot/oldvideos/S_ILSVRC2015_train_00411001.mp4	0.0	184.84567022323608	
11	45.19922709465027	movie	1		301.0	9.0	2.5	/experiments/knapen_aot/oldvideos/S_ILSVRC2015_train_00411001.mp4	0.0	184.8538522720337	2.508347988128662
11	47.70757508277893	fix_post	2		12.0	9.0	2.5	/experiments/knapen_aot/oldvideos/S_ILSVRC2015_train_00411001.mp4	0.0	187.36220026016235	0.10001993179321289
12	47.807595014572144	fix_pre	0		182.0	10.0	2.5	/experiments/knapen_aot/oldvideos/S_yt-FhnT_42bV7M_11.mp4	0.0	187.46222019195557	1.5166001319885254
12	49.31598520278931	response	0	2		10.0	2.5	/experiments/knapen_aot/oldvideos/S_yt-FhnT_42bV7M_11.mp4	0.0	188.97061038017273	
12	49.32419514656067	movie	1		301.0	10.0	2.5	/experiments/knapen_aot/oldvideos/S_yt-FhnT_42bV7M_11.mp4	0.0	188.9788203239441	2.508302927017212
12	51.83249807357788	fix_post	2		12.0	10.0	2.5	/experiments/knapen_aot/oldvideos/S_yt-FhnT_42bV7M_11.mp4	0.0	191.4871232509613	0.1001441478729248
13	51.932642221450806	fix_pre	0		54.0	11.0	2.5	/experiments/knapen_aot/oldvideos/R_S_yt-Pinnv3-3GFU_452.mp4	0.0	191.58726739883423	0.4498589038848877
13	52.37432408332825	response	0	2		11.0	2.5	/experiments/knapen_aot/oldvideos/R_S_yt-Pinnv3-3GFU_452.mp4	0.0	192.02894926071167	
13	52.38250112533569	movie	1		301.0	11.0	2.5	/experiments/knapen_aot/oldvideos/R_S_yt-Pinnv3-3GFU_452.mp4	0.0	192.03712630271912	2.5082449913024902
13	54.890746116638184	fix_post	2		12.0	11.0	2.5	/experiments/knapen_aot/oldvideos/R_S_yt-Pinnv3-3GFU_452.mp4	0.0	194.5453712940216	0.10020899772644043
14	54.990955114364624	fix_pre	0		290.0	12.0	2.5	blank	1.0	194.64558029174805	2.4165220260620117
14	57.39932322502136	response	0	2		12.0	2.5	blank	1.0	197.05394840240479	
14	57.407477140426636	movie	1		301.0	12.0	2.5	blank	1.0	197.06210231781006	2.5083370208740234
14	59.91581416130066	fix_post	2		12.0	12.0	2.5	blank	1.0	199.57043933868408	0.0999898910522461
15	60.015804052352905	fix_pre	0		26.0	13.0	2.5	/experiments/knapen_aot/oldvideos/R_S_yt-1_xoCNmTn3Y_1.mp4	0.0	199.67042922973633	0.21663308143615723
15	60.224181175231934	response	0	2		13.0	2.5	/experiments/knapen_aot/oldvideos/R_S_yt-1_xoCNmTn3Y_1.mp4	0.0	199.87880635261536	
15	60.23243713378906	movie	1		301.0	13.0	2.5	/experiments/knapen_aot/oldvideos/R_S_yt-1_xoCNmTn3Y_1.mp4	0.0	199.88706231117249	2.5083560943603516
15	62.740793228149414	fix_post	2		12.0	13.0	2.5	/experiments/knapen_aot/oldvideos/R_S_yt-1_xoCNmTn3Y_1.mp4	0.0	202.39541840553284	0.09995579719543457
16	62.84074902534485	fix_pre	0		37.0	14.0	2.5	/experiments/knapen_aot/oldvideos/R_S_video_inspire_sanfrancisco_castro_005.1080-h264.mp4	0.0	202.49537420272827	0.3084580898284912
16	63.14094305038452	response	0	2		14.0	2.5	/experiments/knapen_aot/oldvideos/R_S_video_inspire_sanfrancisco_castro_005.1080-h264.mp4	0.0	202.79556822776794	
16	63.14920711517334	movie	1		168.0	14.0	2.5	/experiments/knapen_aot/oldvideos/R_S_video_inspire_sanfrancisco_castro_005.1080-h264.mp4	0.0	202.80383229255676	2.508349895477295
16	65.65755701065063	fix_post	2		12.0	14.0	2.5	/experiments/knapen_aot/oldvideos/R_S_video_inspire_sanfrancisco_castro_005.1080-h264.mp4	0.0	205.31218218803406	0.09983611106872559
17	65.75739312171936	fix_pre	0		25.0	15.0	2.5	/experiments/knapen_aot/oldvideos/S_yt-AbJBxqEYoMg_27.mp4	0.0	205.41201829910278	0.2083580493927002
17	65.95761108398438	response	0	2		15.0	2.5	/experiments/knapen_aot/oldvideos/S_yt-AbJBxqEYoMg_27.mp4	0.0	205.6122362613678	
17	65.96575117111206	movie	1		301.0	15.0	2.5	/experiments/knapen_aot/oldvideos/S_yt-AbJBxqEYoMg_27.mp4	0.0	205.62037634849548	2.508362054824829
17	68.47411322593689	fix_post	2		12.0	15.0	2.5	/experiments/knapen_aot/oldvideos/S_yt-AbJBxqEYoMg_27.mp4	0.0	208.1287384033203	0.09999799728393555
18	68.57411122322083	fix_pre	0		147.0	16.0	2.5	/experiments/knapen_aot/oldvideos/S_yt-4BAsE47kJNk_88.mp4	0.0	208.22873640060425	1.2249269485473633
18	69.79090023040771	response	0	2		16.0	2.5	/experiments/knapen_aot/oldvideos/S_yt-4BAsE47kJNk_88.mp4	0.0	209.44552540779114	
18	69.79903817176819	movie	1		301.0	16.0	2.5	/experiments/knapen_aot/oldvideos/S_yt-4BAsE47kJNk_88.mp4	0.0	209.4536633491516	2.508307933807373
18	72.30734610557556	fix_post	2		12.0	16.0	2.5	/experiments/knapen_aot/oldvideos/S_yt-4BAsE47kJNk_88.mp4	0.0	211.96197128295898	0.10004591941833496
19	72.4073920249939	fix_pre	0		35.0	17.0	2.5	/experiments/knapen_aot/oldvideos/S_ILSVRC2015_train_00411001.mp4	0.0	212.06201720237732	0.3000481128692627
19	72.69085717201233	response	0	2		17.0	2.5	/experiments/knapen_aot/oldvideos/S_ILSVRC2015_train_00411001.mp4	0.0	212.34548234939575	
19	72.70744013786316	movie	1		300.0	17.0	2.5	/experiments/knapen_aot/oldvideos/S_ILSVRC2015_train_00411001.mp4	0.0	212.36206531524658	2.4999749660491943
19	75.20741510391235	fix_post	2		12.0	17.0	2.5	/experiments/knapen_aot/oldvideos/S_ILSVRC2015_train_00411001.mp4	0.0	214.86204028129578	0.09999489784240723
20	75.30741000175476	fix_pre	0		193.0	18.0	2.5	/experiments/knapen_aot/oldvideos/R_S_yt-y6JsUW0eSW8_32.mp4	0.0	214.96203517913818	1.6082861423492432
20	76.90756702423096	response	0	2		18.0	2.5	/experiments/knapen_aot/oldvideos/R_S_yt-y6JsUW0eSW8_32.mp4	0.0	216.56219220161438	
20	76.915696144104	movie	1		301.0	18.0	2.5	/experiments/knapen_aot/oldvideos/R_S_yt-y6JsUW0eSW8_32.mp4	0.0	216.57032132148743	2.5083510875701904
20	79.4240472316742	fix_post	2		12.0	18.0	2.5	/experiments/knapen_aot/oldvideos/R_S_yt-y6JsUW0eSW8_32.mp4	0.0	219.07867240905762	0.09995579719543457
21	79.52400302886963	fix_pre	0		23.0	19.0	2.5	/experiments/knapen_aot/oldvideos/R_S_yt-11VGDAOVEag_8.mp4	0.0	219.17862820625305	0.19168400764465332
21	79.69998812675476	response	0	2		19.0	2.5	/experiments/knapen_aot/oldvideos/R_S_yt-11VGDAOVEag_8.mp4	0.0	219.35461330413818	
21	79.71568703651428	movie	1		301.0	19.0	2.5	/experiments/knapen_aot/oldvideos/R_S_yt-11VGDAOVEag_8.mp4	0.0	219.3703122138977	2.5084080696105957
21	82.22409510612488	fix_post	2		12.0	19.0	2.5	/experiments/knapen_aot/oldvideos/R_S_yt-11VGDAOVEag_8.mp4	0.0	221.8787202835083	0.10002589225769043
22	82.32412099838257	fix_pre	0		169.0	20.0	2.5	blank	1.0	221.978746175766	1.4082942008972168
22	83.71667003631592	response	0	2		20.0	2.5	blank	1.0	223.37129521369934	
22	83.73241519927979	movie	1		301.0	20.0	2.5	blank	1.0	223.3870403766632	2.508387804031372
22	86.24080300331116	fix_post	2		12.0	20.0	2.5	blank	1.0	225.89542818069458	0.09987115859985352
23	86.34067416191101	fix_pre	0		45.0	21.0	2.5	/experiments/knapen_aot/oldvideos/R_S_yt-GETRVzxihhM_74.mp4	0.0	225.99529933929443	0.37497687339782715
23	86.70746803283691	response	0	2		21.0	2.5	/experiments/knapen_aot/oldvideos/R_S_yt-GETRVzxihhM_74.mp4	0.0	226.36209321022034	
23	86.71565103530884	movie	1		301.0	21.0	2.5	/experiments/knapen_aot/oldvideos/R_S_yt-GETRVzxihhM_74.mp4	0.0	226.37027621269226	2.5083839893341064
23	89.22403502464294	fix_post	2		12.0	21.0	2.5	/experiments/knapen_aot/oldvideos/R_S_yt-GETRVzxihhM_74.mp4	0.0	228.87866020202637	0.09992098808288574
24	89.32395601272583	fix_pre	0		35.0	22.0	2.5	/experiments/knapen_aot/oldvideos/S_ILSVRC2015_train_00689000.mp4	0.0	228.97858119010925	0.291654109954834
24	89.60747122764587	response	0	2		22.0	2.5	/experiments/knapen_aot/oldvideos/S_ILSVRC2015_train_00689000.mp4	0.0	229.2620964050293	
24	89.61561012268066	movie	1		301.0	22.0	2.5	/experiments/knapen_aot/oldvideos/S_ILSVRC2015_train_00689000.mp4	0.0	229.2702353000641	2.5084939002990723
24	92.12410402297974	fix_post	2		12.0	22.0	2.5	/experiments/knapen_aot/oldvideos/S_ILSVRC2015_train_00689000.mp4	0.0	231.77872920036316	0.10004806518554688
25	92.22415208816528	fix_pre	0		380.0	23.0	2.5	/experiments/knapen_aot/oldvideos/S_yt-KV8X9IBWuJk_48.mp4	0.0	231.8787772655487	3.167083978652954
25	95.3824610710144	response	0	2		23.0	2.5	/experiments/knapen_aot/oldvideos/S_yt-KV8X9IBWuJk_48.mp4	0.0	235.03708624839783	
25	95.39123606681824	movie	1		301.0	23.0	2.5	/experiments/knapen_aot/oldvideos/S_yt-KV8X9IBWuJk_48.mp4	0.0	235.04586124420166	2.507702112197876
25	97.89893817901611	fix_post	2		12.0	23.0	2.5	/experiments/knapen_aot/oldvideos/S_yt-KV8X9IBWuJk_48.mp4	0.0	237.55356335639954	0.10004281997680664
26	97.99898099899292	fix_pre	0		48.0	24.0	2.5	/experiments/knapen_aot/oldvideos/R_S_yt-11VGDAOVEag_8.mp4	0.0	237.65360617637634	0.39995622634887695
26	98.3907790184021	response	0	2		24.0	2.5	/experiments/knapen_aot/oldvideos/R_S_yt-11VGDAOVEag_8.mp4	0.0	238.04540419578552	
26	98.3989372253418	movie	1		301.0	24.0	2.5	/experiments/knapen_aot/oldvideos/R_S_yt-11VGDAOVEag_8.mp4	0.0	238.05356240272522	2.508293867111206
26	100.907231092453	fix_post	2		12.0	24.0	2.5	/experiments/knapen_aot/oldvideos/R_S_yt-11VGDAOVEag_8.mp4	0.0	240.56185626983643	0.10008502006530762
27	101.00731611251831	fix_pre	0		242.0	25.0	2.5	/experiments/knapen_aot/oldvideos/R_S_yt-Wf-RauSbVgA_56.mp4	0.0	240.66194128990173	2.016662120819092
27	103.01576805114746	response	0	2		25.0	2.5	/experiments/knapen_aot/oldvideos/R_S_yt-Wf-RauSbVgA_56.mp4	0.0	242.67039322853088	
27	103.0239782333374	movie	1		301.0	25.0	2.5	/experiments/knapen_aot/oldvideos/R_S_yt-Wf-RauSbVgA_56.mp4	0.0	242.67860341072083	2.508298873901367
27	105.53227710723877	fix_post	2		12.0	25.0	2.5	/experiments/knapen_aot/oldvideos/R_S_yt-Wf-RauSbVgA_56.mp4	0.0	245.1869022846222	0.09995293617248535
28	105.63223004341125	fix_pre	0		50.0	26.0	2.5	blank	1.0	245.28685522079468	0.41669702529907227
28	106.04071402549744	response	0	2		26.0	2.5	blank	1.0	245.69533920288086	
28	106.04892706871033	movie	1		301.0	26.0	2.5	blank	1.0	245.70355224609375	2.5085439682006836
28	106.21567916870117	response	1	2		26.0	2.5	blank	1.0	245.8703043460846	
28	108.55747103691101	fix_post	2		12.0	26.0	2.5	blank	1.0	248.21209621429443	0.09979796409606934
29	108.65726900100708	fix_pre	0		66.0	27.0	2.5	/experiments/knapen_aot/oldvideos/S_yt-eoASPwIAiHY_244.mp4	0.0	248.3118941783905	0.5499801635742188
29	109.19150304794312	response	0	2		27.0	2.5	/experiments/knapen_aot/oldvideos/S_yt-eoASPwIAiHY_244.mp4	0.0	248.84612822532654	
29	109.2072491645813	movie	1		301.0	27.0	2.5	/experiments/knapen_aot/oldvideos/S_yt-eoASPwIAiHY_244.mp4	0.0	248.86187434196472	2.5083060264587402
29	111.71555519104004	fix_post	2		12.0	27.0	2.5	/experiments/knapen_aot/oldvideos/S_yt-eoASPwIAiHY_244.mp4	0.0	251.37018036842346	0.10007286071777344
30	111.81562805175781	fix_pre	0		118.0	28.0	2.5	/experiments/knapen_aot/oldvideos/R_S_yt-c5_SFS4aaJI_1102.mp4	0.0	251.47025322914124	0.9832789897918701
30	112.79073309898376	response	0	2		28.0	2.5	/experiments/knapen_aot/oldvideos/R_S_yt-c5_SFS4aaJI_1102.mp4	0.0	252.4453582763672	
30	112.79890704154968	movie	1		301.0	28.0	2.5	/experiments/knapen_aot/oldvideos/R_S_yt-c5_SFS4aaJI_1102.mp4	0.0	252.4535322189331	2.5083391666412354
30	115.30724620819092	fix_post	2		12.0	28.0	2.5	/experiments/knapen_aot/oldvideos/R_S_yt-c5_SFS4aaJI_1102.mp4	0.0	254.96187138557434	0.1000218391418457
31	115.40726804733276	fix_pre	0		35.0	29.0	2.5	/experiments/knapen_aot/oldvideos/R_S_comp_GMT026_363A_103NC_E1027_KOREA_JAPAN_NIGHT_v18_SDR_PS_20180907_SDR_2K_AVC.mp4	0.0	255.0618932247162	0.2916419506072998
31	115.69062519073486	response	0	2		29.0	2.5	/experiments/knapen_aot/oldvideos/R_S_comp_GMT026_363A_103NC_E1027_KOREA_JAPAN_NIGHT_v18_SDR_PS_20180907_SDR_2K_AVC.mp4	0.0	255.3452503681183	
31	115.69890999794006	movie	1		168.0	29.0	2.5	/experiments/knapen_aot/oldvideos/R_S_comp_GMT026_363A_103NC_E1027_KOREA_JAPAN_NIGHT_v18_SDR_PS_20180907_SDR_2K_AVC.mp4	0.0	255.3535351753235	2.5083742141723633
31	118.20728421211243	fix_post	2		12.0	29.0	2.5	/experiments/knapen_aot/oldvideos/R_S_comp_GMT026_363A_103NC_E1027_KOREA_JAPAN_NIGHT_v18_SDR_PS_20180907_SDR_2K_AVC.mp4	0.0	257.86190938949585	0.10010695457458496
32	118.30739116668701	fix_pre	0		168.0	30.0	2.5	/experiments/knapen_aot/oldvideos/S_yt-R-SETZtYWaA_336.mp4	0.0	257.96201634407043	1.399812936782837
32	119.69905710220337	response	0	2		30.0	2.5	/experiments/knapen_aot/oldvideos/S_yt-R-SETZtYWaA_336.mp4	0.0	259.3536822795868	
32	119.70720410346985	movie	1		301.0	30.0	2.5	/experiments/knapen_aot/oldvideos/S_yt-R-SETZtYWaA_336.mp4	0.0	259.36182928085327	2.50858211517334
32	122.21578621864319	fix_post	2		12.0	30.0	2.5	/experiments/knapen_aot/oldvideos/S_yt-R-SETZtYWaA_336.mp4	0.0	261.8704113960266	0.09983491897583008
33	122.31562113761902	fix_pre	0		40.0	31.0	2.5	/experiments/knapen_aot/oldvideos/R_S_yt-a9bnYU0Gnxg_59.mp4	0.0	261.97024631500244	0.34158992767333984
33	122.64905905723572	response	0	2		31.0	2.5	/experiments/knapen_aot/oldvideos/R_S_yt-a9bnYU0Gnxg_59.mp4	0.0	262.30368423461914	
33	122.65721106529236	movie	1		301.0	31.0	2.5	/experiments/knapen_aot/oldvideos/R_S_yt-a9bnYU0Gnxg_59.mp4	0.0	262.3118362426758	2.50829815864563
33	125.16550922393799	fix_post	2		12.0	31.0	2.5	/experiments/knapen_aot/oldvideos/R_S_yt-a9bnYU0Gnxg_59.mp4	0.0	264.8201344013214	0.10052180290222168
34	125.26603102684021	fix_pre	0		154.0	32.0	2.5	/experiments/knapen_aot/oldvideos/R_S_yt-ejSzwn8tY8g_49.mp4	0.0	264.92065620422363	1.2827889919281006
34	126.54080700874329	response	0	2		32.0	2.5	/experiments/knapen_aot/oldvideos/R_S_yt-ejSzwn8tY8g_49.mp4	0.0	266.1954321861267	
34	126.54882001876831	movie	1		301.0	32.0	2.5	/experiments/knapen_aot/oldvideos/R_S_yt-ejSzwn8tY8g_49.mp4	0.0	266.20344519615173	2.5084991455078125
34	129.05731916427612	fix_post	2		12.0	32.0	2.5	/experiments/knapen_aot/oldvideos/R_S_yt-ejSzwn8tY8g_49.mp4	0.0	268.71194434165955	0.0998530387878418
35	129.15717220306396	fix_pre	0		155.0	33.0	2.5	blank	1.0	268.8117973804474	1.2917108535766602
35	130.43322205543518	response	0	2		33.0	2.5	blank	1.0	270.0878472328186	
35	130.44888305664062	movie	1		301.0	33.0	2.5	blank	1.0	270.10350823402405	2.508208990097046
35	132.95709204673767	fix_post	2		12.0	33.0	2.5	blank	1.0	272.6117172241211	0.10004711151123047
36	133.0571391582489	fix_pre	0		203.0	34.0	2.5	/experiments/knapen_aot/oldvideos/S_comp_A001_C004_1207W5_v23_SDR_FINAL_20180706_SDR_2K_AVC.mp4	0.0	272.7117643356323	1.6916959285736084
36	134.7405869960785	response	0	2		34.0	2.5	/experiments/knapen_aot/oldvideos/S_comp_A001_C004_1207W5_v23_SDR_FINAL_20180706_SDR_2K_AVC.mp4	0.0	274.3952121734619	
36	134.7488350868225	movie	1		166.0	34.0	2.5	/experiments/knapen_aot/oldvideos/S_comp_A001_C004_1207W5_v23_SDR_FINAL_20180706_SDR_2K_AVC.mp4	0.0	274.40346026420593	2.5083630084991455
36	137.25719809532166	fix_post	2		12.0	34.0	2.5	/experiments/knapen_aot/oldvideos/S_comp_A001_C004_1207W5_v23_SDR_FINAL_20180706_SDR_2K_AVC.mp4	0.0	276.9118232727051	0.10007596015930176
37	137.35727405548096	fix_pre	0		35.0	35.0	2.5	/experiments/knapen_aot/oldvideos/R_S_yt-HoRtvVuuvOs_5.mp4	0.0	277.0118992328644	0.2914600372314453
37	137.6406500339508	response	0	2		35.0	2.5	/experiments/knapen_aot/oldvideos/R_S_yt-HoRtvVuuvOs_5.mp4	0.0	277.29527521133423	
37	137.6487340927124	movie	1		301.0	35.0	2.5	/experiments/knapen_aot/oldvideos/R_S_yt-HoRtvVuuvOs_5.mp4	0.0	277.3033592700958	2.508430004119873
37	140.15716409683228	fix_post	2		12.0	35.0	2.5	/experiments/knapen_aot/oldvideos/R_S_yt-HoRtvVuuvOs_5.mp4	0.0	279.8117892742157	0.09997391700744629
38	140.25713801383972	fix_pre	0		29.0	36.0	2.5	/experiments/knapen_aot/oldvideos/R_S_yt-3EZOeAbiMQE_10.mp4	0.0	279.91176319122314	0.2416541576385498
38	140.49062705039978	response	0	4		36.0	2.5	/experiments/knapen_aot/oldvideos/R_S_yt-3EZOeAbiMQE_10.mp4	0.0	280.1452522277832	
38	140.49879217147827	movie	1		301.0	36.0	2.5	/experiments/knapen_aot/oldvideos/R_S_yt-3EZOeAbiMQE_10.mp4	0.0	280.1534173488617	2.508340835571289
38	143.00713300704956	fix_post	2		12.0	36.0	2.5	/experiments/knapen_aot/oldvideos/R_S_yt-3EZOeAbiMQE_10.mp4	0.0	282.661758184433	0.0999751091003418
39	143.1071081161499	fix_pre	0		288.0	37.0	2.5	/experiments/knapen_aot/oldvideos/S_production_ID_4101244.mp4	0.0	282.7617332935333	2.4000918865203857
39	145.49897408485413	response	0	4		37.0	2.5	/experiments/knapen_aot/oldvideos/S_production_ID_4101244.mp4	0.0	285.15359926223755	
39	145.5072000026703	movie	1		198.0	37.0	2.5	/experiments/knapen_aot/oldvideos/S_production_ID_4101244.mp4	0.0	285.1618251800537	2.508573055267334
39	148.01577305793762	fix_post	2		12.0	37.0	2.5	/experiments/knapen_aot/oldvideos/S_production_ID_4101244.mp4	0.0	287.67039823532104	0.09965801239013672
40	148.11543107032776	fix_pre	0		113.0	38.0	2.5	/experiments/knapen_aot/oldvideos/R_S_comp_DB_D008_C010_PSNK_v21_SDR_PS_20180914_F0F16157_SDR_2K_AVC.mp4	0.0	287.7700562477112	0.9419059753417969
40	149.04890704154968	response	0	4		38.0	2.5	/experiments/knapen_aot/oldvideos/R_S_comp_DB_D008_C010_PSNK_v21_SDR_PS_20180914_F0F16157_SDR_2K_AVC.mp4	0.0	288.7035322189331	
40	149.05733704566956	movie	1		171.0	38.0	2.5	/experiments/knapen_aot/oldvideos/R_S_comp_DB_D008_C010_PSNK_v21_SDR_PS_20180914_F0F16157_SDR_2K_AVC.mp4	0.0	288.711962223053	2.508057117462158
40	151.5653941631317	fix_post	2		12.0	38.0	2.5	/experiments/knapen_aot/oldvideos/R_S_comp_DB_D008_C010_PSNK_v21_SDR_PS_20180914_F0F16157_SDR_2K_AVC.mp4	0.0	291.22001934051514	0.10006284713745117
41	151.66545701026917	fix_pre	0		124.0	39.0	2.5	/experiments/knapen_aot/oldvideos/S_yt-4BAsE47kJNk_88.mp4	0.0	291.3200821876526	1.0332109928131104
41	152.68311715126038	response	0	4		39.0	2.5	/experiments/knapen_aot/oldvideos/S_yt-4BAsE47kJNk_88.mp4	0.0	292.3377423286438	
41	152.69866800308228	movie	1		301.0	39.0	2.5	/experiments/knapen_aot/oldvideos/S_yt-4BAsE47kJNk_88.mp4	0.0	292.3532931804657	2.508439064025879
41	155.20710706710815	fix_post	2		12.0	39.0	2.5	/experiments/knapen_aot/oldvideos/S_yt-4BAsE47kJNk_88.mp4	0.0	294.8617322444916	0.10022902488708496
42	155.30733609199524	fix_pre	0		86.0	40.0	2.5	blank	1.0	294.96196126937866	0.716372013092041
42	156.01546502113342	response	0	4		40.0	2.5	blank	1.0	295.67009019851685	
42	156.02370810508728	movie	1		301.0	40.0	2.5	blank	1.0	295.6783332824707	2.508352041244507
42	158.5320601463318	fix_post	2		12.0	40.0	2.5	blank	1.0	298.1866853237152	0.10002994537353516
43	158.63209009170532	fix_pre	0		21.0	41.0	2.5	/experiments/knapen_aot/oldvideos/R_S_comp_H005_C012_PS_v01_SDR_PS_20180925_SDR_2K_AVC.mp4	0.0	298.28671526908875	0.1751561164855957
43	158.79895520210266	response	0	4		41.0	2.5	/experiments/knapen_aot/oldvideos/R_S_comp_H005_C012_PS_v01_SDR_PS_20180925_SDR_2K_AVC.mp4	0.0	298.4535803794861	
43	158.80724620819092	movie	1		171.0	41.0	2.5	/experiments/knapen_aot/oldvideos/R_S_comp_H005_C012_PS_v01_SDR_PS_20180925_SDR_2K_AVC.mp4	0.0	298.46187138557434	2.5081028938293457
43	161.31534910202026	fix_post	2		12.0	41.0	2.5	/experiments/knapen_aot/oldvideos/R_S_comp_H005_C012_PS_v01_SDR_PS_20180925_SDR_2K_AVC.mp4	0.0	300.9699742794037	0.10014510154724121
44	161.4154942035675	fix_pre	0		366.0	42.0	2.5	/experiments/knapen_aot/oldvideos/S_yt-c5_SFS4aaJI_1102.mp4	0.0	301.0701193809509	3.0498340129852295
44	164.4571511745453	response	0	4		42.0	2.5	/experiments/knapen_aot/oldvideos/S_yt-c5_SFS4aaJI_1102.mp4	0.0	304.1117763519287	
44	164.46532821655273	movie	1		301.0	42.0	2.5	/experiments/knapen_aot/oldvideos/S_yt-c5_SFS4aaJI_1102.mp4	0.0	304.11995339393616	2.5086069107055664
44	166.9739351272583	fix_post	2		12.0	42.0	2.5	/experiments/knapen_aot/oldvideos/S_yt-c5_SFS4aaJI_1102.mp4	0.0	306.6285603046417	0.09974098205566406
45	167.07367610931396	fix_pre	0		55.0	43.0	2.5	/experiments/knapen_aot/oldvideos/R_S_yt-5doJmCcFL7s_3.mp4	0.0	306.7283012866974	0.458359956741333
45	167.52378916740417	response	0	4		43.0	2.5	/experiments/knapen_aot/oldvideos/R_S_yt-5doJmCcFL7s_3.mp4	0.0	307.1784143447876	
45	167.5320360660553	movie	1		301.0	43.0	2.5	/experiments/knapen_aot/oldvideos/R_S_yt-5doJmCcFL7s_3.mp4	0.0	307.1866612434387	2.508284091949463
45	170.04032015800476	fix_post	2		12.0	43.0	2.5	/experiments/knapen_aot/oldvideos/R_S_yt-5doJmCcFL7s_3.mp4	0.0	309.6949453353882	0.10025787353515625
46	170.14057803153992	fix_pre	0		94.0	44.0	2.5	/experiments/knapen_aot/oldvideos/S_yt-BDCyXL5e9S4_223.mp4	0.0	309.79520320892334	0.7830791473388672
46	170.91548013687134	response	0	4		44.0	2.5	/experiments/knapen_aot/oldvideos/S_yt-BDCyXL5e9S4_223.mp4	0.0	310.57010531425476	
46	170.92365717887878	movie	1		301.0	44.0	2.5	/experiments/knapen_aot/oldvideos/S_yt-BDCyXL5e9S4_223.mp4	0.0	310.5782823562622	2.5085248947143555
46	173.43218207359314	fix_post	2		12.0	44.0	2.5	/experiments/knapen_aot/oldvideos/S_yt-BDCyXL5e9S4_223.mp4	0.0	313.08680725097656	0.0998690128326416
47	173.53205108642578	fix_pre	0		28.0	45.0	2.5	/experiments/knapen_aot/oldvideos/S_yt-Ev39pXXfr1Y_152.mp4	0.0	313.1866762638092	0.23338794708251953
47	173.74973511695862	response	0	4		45.0	2.5	/experiments/knapen_aot/oldvideos/S_yt-Ev39pXXfr1Y_152.mp4	0.0	313.40436029434204	
47	173.7654390335083	movie	1		301.0	45.0	2.5	/experiments/knapen_aot/oldvideos/S_yt-Ev39pXXfr1Y_152.mp4	0.0	313.4200642108917	2.5082461833953857
47	176.2736852169037	fix_post	2		12.0	45.0	2.5	/experiments/knapen_aot/oldvideos/S_yt-Ev39pXXfr1Y_152.mp4	0.0	315.9283103942871	0.09997892379760742
48	176.3736641407013	fix_pre	0		141.0	46.0	2.5	/experiments/knapen_aot/oldvideos/S_yt-bQRBtP9zkms_111.mp4	0.0	316.0282893180847	1.1749629974365234
48	177.54049110412598	response	0	4		46.0	2.5	/experiments/knapen_aot/oldvideos/S_yt-bQRBtP9zkms_111.mp4	0.0	317.1951162815094	
48	177.54862713813782	movie	1		301.0	46.0	2.5	/experiments/knapen_aot/oldvideos/S_yt-bQRBtP9zkms_111.mp4	0.0	317.20325231552124	2.508538007736206
48	180.05716514587402	fix_post	2		12.0	46.0	2.5	/experiments/knapen_aot/oldvideos/S_yt-bQRBtP9zkms_111.mp4	0.0	319.71179032325745	0.09990787506103516
49	180.15707302093506	fix_pre	0		36.0	47.0	2.5	blank	1.0	319.8116981983185	0.29987001419067383
49	180.44877099990845	response	0	4		47.0	2.5	blank	1.0	320.10339617729187	
49	180.45694303512573	movie	1		301.0	47.0	2.5	blank	1.0	320.11156821250916	2.5084621906280518
49	182.96540522575378	fix_post	2		12.0	47.0	2.5	blank	1.0	322.6200304031372	0.0999147891998291
50	183.0653200149536	fix_pre	0		49.0	48.0	2.5	/experiments/knapen_aot/oldvideos/S_production_ID_3709168.mp4	0.0	322.71994519233704	0.4083750247955322
50	183.4654541015625	response	0	4		48.0	2.5	/experiments/knapen_aot/oldvideos/S_production_ID_3709168.mp4	0.0	323.1200792789459	
50	183.47369503974915	movie	1		202.0	48.0	2.5	/experiments/knapen_aot/oldvideos/S_production_ID_3709168.mp4	0.0	323.12832021713257	2.508294105529785
50	185.98198914527893	fix_post	2		12.0	48.0	2.5	/experiments/knapen_aot/oldvideos/S_production_ID_3709168.mp4	0.0	325.63661432266235	0.09996700286865234
51	186.08195614814758	fix_pre	0		33.0	49.0	2.5	/experiments/knapen_aot/oldvideos/S_yt-Ev39pXXfr1Y_152.mp4	0.0	325.736581325531	0.2749929428100586
51	186.34873914718628	response	0	4		49.0	2.5	/experiments/knapen_aot/oldvideos/S_yt-Ev39pXXfr1Y_152.mp4	0.0	326.0033643245697	
51	186.35694909095764	movie	1		301.0	49.0	2.5	/experiments/knapen_aot/oldvideos/S_yt-Ev39pXXfr1Y_152.mp4	0.0	326.01157426834106	2.508275032043457
51	188.8652241230011	fix_post	2		12.0	49.0	2.5	/experiments/knapen_aot/oldvideos/S_yt-Ev39pXXfr1Y_152.mp4	0.0	328.5198493003845	0.10018801689147949
52	188.96541213989258	fix_pre	0		27.0	50.0	2.5	/experiments/knapen_aot/oldvideos/S_yt-WFiEvQuOqqg_18.mp4	0.0	328.620037317276	0.2248520851135254
52	189.18211913108826	response	0	4		50.0	2.5	/experiments/knapen_aot/oldvideos/S_yt-WFiEvQuOqqg_18.mp4	0.0	328.8367443084717	
52	189.1902642250061	movie	1		301.0	50.0	2.5	/experiments/knapen_aot/oldvideos/S_yt-WFiEvQuOqqg_18.mp4	0.0	328.8448894023895	2.50837779045105
52	191.69864201545715	fix_post	2		12.0	50.0	2.5	/experiments/knapen_aot/oldvideos/S_yt-WFiEvQuOqqg_18.mp4	0.0	331.3532671928406	0.09995317459106445
53	191.79859519004822	fix_pre	0		63.0	51.0	2.5	/experiments/knapen_aot/oldvideos/S_yt-b7bIulV49DQ_81.mp4	0.0	331.45322036743164	0.5249679088592529
53	192.31538319587708	response	0	4		51.0	2.5	/experiments/knapen_aot/oldvideos/S_yt-b7bIulV49DQ_81.mp4	0.0	331.9700083732605	
53	192.32356309890747	movie	1		301.0	51.0	2.5	/experiments/knapen_aot/oldvideos/S_yt-b7bIulV49DQ_81.mp4	0.0	331.9781882762909	2.5083870887756348
53	194.8319501876831	fix_post	2		12.0	51.0	2.5	/experiments/knapen_aot/oldvideos/S_yt-b7bIulV49DQ_81.mp4	0.0	334.4865753650665	0.10002803802490234
54	194.931978225708	fix_pre	0		55.0	52.0	2.5	/experiments/knapen_aot/oldvideos/S_g201_TH_804_A001_8_SDR_20191031_SDR_2K_AVC.mp4	0.0	334.58660340309143	0.4582788944244385
54	195.37447500228882	response	0	4		52.0	2.5	/experiments/knapen_aot/oldvideos/S_g201_TH_804_A001_8_SDR_20191031_SDR_2K_AVC.mp4	0.0	335.02910017967224	
54	195.39025712013245	movie	1		166.0	52.0	2.5	/experiments/knapen_aot/oldvideos/S_g201_TH_804_A001_8_SDR_20191031_SDR_2K_AVC.mp4	0.0	335.04488229751587	2.508639097213745
54	197.8988962173462	fix_post	2		12.0	52.0	2.5	/experiments/knapen_aot/oldvideos/S_g201_TH_804_A001_8_SDR_20191031_SDR_2K_AVC.mp4	0.0	337.5535213947296	0.09963798522949219
55	197.99853420257568	fix_pre	0		30.0	53.0	2.5	/experiments/knapen_aot/oldvideos/S_ILSVRC2015_train_00584001.mp4	0.0	337.6531593799591	0.2500319480895996
55	198.24038815498352	response	0	4		53.0	2.5	/experiments/knapen_aot/oldvideos/S_ILSVRC2015_train_00584001.mp4	0.0	337.89501333236694	
55	198.24856615066528	movie	1		301.0	53.0	2.5	/experiments/knapen_aot/oldvideos/S_ILSVRC2015_train_00584001.mp4	0.0	337.9031913280487	2.5083420276641846
55	200.75690817832947	fix_post	2		12.0	53.0	2.5	/experiments/knapen_aot/oldvideos/S_ILSVRC2015_train_00584001.mp4	0.0	340.4115333557129	0.10001087188720703
56	200.85691905021667	fix_pre	0		28.0	54.0	2.5	/experiments/knapen_aot/oldvideos/R_S_production_ID_5139371.mp4	0.0	340.5115442276001	0.2334001064300537
56	201.0819730758667	response	0	4		54.0	2.5	/experiments/knapen_aot/oldvideos/R_S_production_ID_5139371.mp4	0.0	340.7365982532501	
56	201.09031915664673	movie	1		167.0	54.0	2.5	/experiments/knapen_aot/oldvideos/R_S_production_ID_5139371.mp4	0.0	340.74494433403015	2.508302927017212
56	203.59862208366394	fix_post	2		12.0	54.0	2.5	/experiments/knapen_aot/oldvideos/R_S_production_ID_5139371.mp4	0.0	343.25324726104736	0.09992504119873047
57	203.69854712486267	fix_pre	0		117.0	55.0	2.5	/experiments/knapen_aot/oldvideos/R_S_ILSVRC2015_train_00418001.mp4	0.0	343.3531723022461	0.9750158786773682
57	204.66544699668884	response	0	4		55.0	2.5	/experiments/knapen_aot/oldvideos/R_S_ILSVRC2015_train_00418001.mp4	0.0	344.32007217407227	
57	204.67356300354004	movie	1		301.0	55.0	2.5	/experiments/knapen_aot/oldvideos/R_S_ILSVRC2015_train_00418001.mp4	0.0	344.32818818092346	2.508355140686035
57	207.18191814422607	fix_post	2		12.0	55.0	2.5	/experiments/knapen_aot/oldvideos/R_S_ILSVRC2015_train_00418001.mp4	0.0	346.8365433216095	0.10001587867736816
58	207.28193402290344	fix_pre	0		40.0	56.0	2.5	blank	1.0	346.93655920028687	0.3332810401916504
58	207.60701513290405	response	0	4		56.0	2.5	blank	1.0	347.2616403102875	
58	207.6152150630951	movie	1		301.0	56.0	2.5	blank	1.0	347.2698402404785	2.508336067199707
58	210.1235511302948	fix_post	2		12.0	56.0	2.5	blank	1.0	349.7781763076782	0.09996604919433594
59	210.22351717948914	fix_pre	0		29.0	57.0	2.5	/experiments/knapen_aot/oldvideos/R_S_yt-hdZEAsVBEEM_19.mp4	0.0	349.87814235687256	0.2416858673095703
59	210.45697903633118	response	0	4		57.0	2.5	/experiments/knapen_aot/oldvideos/R_S_yt-hdZEAsVBEEM_19.mp4	0.0	350.1116042137146	
59	210.4652030467987	movie	1		301.0	57.0	2.5	/experiments/knapen_aot/oldvideos/R_S_yt-hdZEAsVBEEM_19.mp4	0.0	350.11982822418213	2.5083491802215576
59	212.97355222702026	fix_post	2		12.0	57.0	2.5	/experiments/knapen_aot/oldvideos/R_S_yt-hdZEAsVBEEM_19.mp4	0.0	352.6281774044037	0.10001587867736816
60	213.07356810569763	fix_pre	0		36.0	58.0	2.5	/experiments/knapen_aot/oldvideos/S_yt-bOgChEHiroI_20.mp4	0.0	352.72819328308105	0.29986000061035156
60	213.36536502838135	response	0	4		58.0	2.5	/experiments/knapen_aot/oldvideos/S_yt-bOgChEHiroI_20.mp4	0.0	353.01999020576477	
60	213.37342810630798	movie	1		301.0	58.0	2.5	/experiments/knapen_aot/oldvideos/S_yt-bOgChEHiroI_20.mp4	0.0	353.0280532836914	2.508462905883789
60	215.88189101219177	fix_post	2		12.0	58.0	2.5	/experiments/knapen_aot/oldvideos/S_yt-bOgChEHiroI_20.mp4	0.0	355.5365161895752	0.09996199607849121
61	215.98185300827026	fix_pre	0		34.0	59.0	2.5	/experiments/knapen_aot/oldvideos/S_Pz_NXxhQCJc_70.mp4	0.0	355.6364781856537	0.283311128616333
61	216.2569501399994	response	0	4		59.0	2.5	/experiments/knapen_aot/oldvideos/S_Pz_NXxhQCJc_70.mp4	0.0	355.9115753173828	
61	216.2651641368866	movie	1		301.0	59.0	2.5	/experiments/knapen_aot/oldvideos/S_Pz_NXxhQCJc_70.mp4	0.0	355.91978931427	2.5083489418029785
61	218.77351307868958	fix_post	2		12.0	59.0	2.5	/experiments/knapen_aot/oldvideos/S_Pz_NXxhQCJc_70.mp4	0.0	358.428138256073	0.09993600845336914
62	218.87344908714294	fix_pre	0		56.0	60.0	2.5	/experiments/knapen_aot/oldvideos/S_comp_H005_C012_PS_v01_SDR_PS_20180925_SDR_2K_AVC.mp4	0.0	358.52807426452637	0.46668410301208496
62	219.32437801361084	response	0	4		60.0	2.5	/experiments/knapen_aot/oldvideos/S_comp_H005_C012_PS_v01_SDR_PS_20180925_SDR_2K_AVC.mp4	0.0	358.97900319099426	
62	219.34013319015503	movie	1		170.0	60.0	2.5	/experiments/knapen_aot/oldvideos/S_comp_H005_C012_PS_v01_SDR_PS_20180925_SDR_2K_AVC.mp4	0.0	358.99475836753845	2.508563995361328
62	221.84869718551636	fix_post	2		12.0	60.0	2.5	/experiments/knapen_aot/oldvideos/S_comp_H005_C012_PS_v01_SDR_PS_20180925_SDR_2K_AVC.mp4	0.0	361.5033223628998	0.0997929573059082
63	221.94849014282227	fix_pre	0		35.0	61.0	2.5	/experiments/knapen_aot/oldvideos/R_S_yt-I2n2eo2zoZs_94.mp4	0.0	361.6031153202057	0.2916529178619385
63	222.2318730354309	response	0	4		61.0	2.5	/experiments/knapen_aot/oldvideos/R_S_yt-I2n2eo2zoZs_94.mp4	0.0	361.88649821281433	
63	222.2401430606842	movie	1		301.0	61.0	2.5	/experiments/knapen_aot/oldvideos/R_S_yt-I2n2eo2zoZs_94.mp4	0.0	361.8947682380676	2.508388042449951
63	224.74853110313416	fix_post	2		12.0	61.0	2.5	/experiments/knapen_aot/oldvideos/R_S_yt-I2n2eo2zoZs_94.mp4	0.0	364.4031562805176	0.10000205039978027
64	224.84853315353394	fix_pre	0		37.0	62.0	2.5	/experiments/knapen_aot/oldvideos/R_S_ahJft-G235A_122.mp4	0.0	364.50315833091736	0.30831289291381836
64	225.1485960483551	response	0	4		62.0	2.5	/experiments/knapen_aot/oldvideos/R_S_ahJft-G235A_122.mp4	0.0	364.8032212257385	
64	225.15684604644775	movie	1		301.0	62.0	2.5	/experiments/knapen_aot/oldvideos/R_S_ahJft-G235A_122.mp4	0.0	364.8114712238312	2.508284091949463
64	227.66513013839722	fix_post	2		12.0	62.0	2.5	/experiments/knapen_aot/oldvideos/R_S_ahJft-G235A_122.mp4	0.0	367.31975531578064	0.10010004043579102
65	227.765230178833	fix_pre	0		26.0	63.0	2.5	blank	1.0	367.41985535621643	0.21659398078918457
65	227.97363305091858	response	0	4		63.0	2.5	blank	1.0	367.628258228302	
65	227.9818241596222	movie	1		301.0	63.0	2.5	blank	1.0	367.6364493370056	2.5083189010620117
65	230.4901430606842	fix_post	2		12.0	63.0	2.5	blank	1.0	370.1447682380676	0.09998202323913574
66	230.59012508392334	fix_pre	0		22.0	64.0	2.5	/experiments/knapen_aot/oldvideos/R_S_yt-_6j2NXrB-zE_28.mp4	0.0	370.24475026130676	0.1832430362701416
66	230.76521921157837	response	0	4		64.0	2.5	/experiments/knapen_aot/oldvideos/R_S_yt-_6j2NXrB-zE_28.mp4	0.0	370.4198443889618	
66	230.77336812019348	movie	1		301.0	64.0	2.5	/experiments/knapen_aot/oldvideos/R_S_yt-_6j2NXrB-zE_28.mp4	0.0	370.4279932975769	2.508420944213867
66	233.28178906440735	fix_post	2		12.0	64.0	2.5	/experiments/knapen_aot/oldvideos/R_S_yt-_6j2NXrB-zE_28.mp4	0.0	372.93641424179077	0.10007309913635254
67	233.3818621635437	fix_pre	0		23.0	65.0	2.5	/experiments/knapen_aot/oldvideos/R_S_yt-sTBOjPxix5c_1072.mp4	0.0	373.0364873409271	0.19156193733215332
67	233.56525421142578	response	0	4		65.0	2.5	/experiments/knapen_aot/oldvideos/R_S_yt-sTBOjPxix5c_1072.mp4	0.0	373.2198793888092	
67	233.57342410087585	movie	1		301.0	65.0	2.5	/experiments/knapen_aot/oldvideos/R_S_yt-sTBOjPxix5c_1072.mp4	0.0	373.2280492782593	2.508574962615967
67	236.08199906349182	fix_post	2		12.0	65.0	2.5	/experiments/knapen_aot/oldvideos/R_S_yt-sTBOjPxix5c_1072.mp4	0.0	375.73662424087524	0.09982514381408691
68	236.1818242073059	fix_pre	0		37.0	66.0	2.5	/experiments/knapen_aot/oldvideos/R_S_yt-zhQ32_OayBQ_39.mp4	0.0	375.83644938468933	0.3081948757171631
68	236.48187518119812	response	0	4		66.0	2.5	/experiments/knapen_aot/oldvideos/R_S_yt-zhQ32_OayBQ_39.mp4	0.0	376.13650035858154	
68	236.49001908302307	movie	1		301.0	66.0	2.5	/experiments/knapen_aot/oldvideos/R_S_yt-zhQ32_OayBQ_39.mp4	0.0	376.1446442604065	2.508458137512207
68	238.99847722053528	fix_post	2		12.0	66.0	2.5	/experiments/knapen_aot/oldvideos/R_S_yt-zhQ32_OayBQ_39.mp4	0.0	378.6531023979187	0.0999457836151123
69	239.0984230041504	fix_pre	0		32.0	67.0	2.5	/experiments/knapen_aot/oldvideos/R_S_yt-s2tZ2NIQrxg_175.mp4	0.0	378.7530481815338	0.26667213439941406
69	239.35687017440796	response	0	4		67.0	2.5	/experiments/knapen_aot/oldvideos/R_S_yt-s2tZ2NIQrxg_175.mp4	0.0	379.0114953517914	
69	239.3650951385498	movie	1		301.0	67.0	2.5	/experiments/knapen_aot/oldvideos/R_S_yt-s2tZ2NIQrxg_175.mp4	0.0	379.0197203159332	2.5083200931549072
69	241.8734152317047	fix_post	2		12.0	67.0	2.5	/experiments/knapen_aot/oldvideos/R_S_yt-s2tZ2NIQrxg_175.mp4	0.0	381.52804040908813	0.0999898910522461
70	241.97340512275696	fix_pre	0		26.0	68.0	2.5	blank	1.0	381.6280303001404	0.21666407585144043
70	242.18192315101624	response	0	4		68.0	2.5	blank	1.0	381.83654832839966	
70	242.1900691986084	movie	1		301.0	68.0	2.5	blank	1.0	381.8446943759918	2.5083229541778564
70	244.69839215278625	fix_post	2		12.0	68.0	2.5	blank	1.0	384.3530173301697	0.10002994537353516
71	244.7984220981598	fix_pre	0		123.0	69.0	2.5	/experiments/knapen_aot/oldvideos/R_S_yt-wIZprsJwxBM_298.mp4	0.0	384.4530472755432	1.0249741077423096
71	245.81511807441711	response	0	4		69.0	2.5	/experiments/knapen_aot/oldvideos/R_S_yt-wIZprsJwxBM_298.mp4	0.0	385.46974325180054	
71	245.8233962059021	movie	1		301.0	69.0	2.5	/experiments/knapen_aot/oldvideos/R_S_yt-wIZprsJwxBM_298.mp4	0.0	385.4780213832855	2.50834584236145
71	248.33174204826355	fix_post	2		12.0	69.0	2.5	/experiments/knapen_aot/oldvideos/R_S_yt-wIZprsJwxBM_298.mp4	0.0	387.986367225647	0.10024905204772949
72	248.43199110031128	fix_pre	0		33.0	70.0	2.5	/experiments/knapen_aot/oldvideos/R_S_yt-cM5PvgE7aJs_243.mp4	0.0	388.0866162776947	0.2746429443359375
72	248.6909601688385	response	0	4		70.0	2.5	/experiments/knapen_aot/oldvideos/R_S_yt-cM5PvgE7aJs_243.mp4	0.0	388.3455853462219	
72	248.70663404464722	movie	1		301.0	70.0	2.5	/experiments/knapen_aot/oldvideos/R_S_yt-cM5PvgE7aJs_243.mp4	0.0	388.36125922203064	2.5084609985351562
72	251.21509504318237	fix_post	2		12.0	70.0	2.5	/experiments/knapen_aot/oldvideos/R_S_yt-cM5PvgE7aJs_243.mp4	0.0	390.8697202205658	0.10004115104675293
73	251.31513619422913	fix_pre	0		239.0	71.0	2.5	/experiments/knapen_aot/oldvideos/R_S_yt-bH4nJibL4Jo_164.mp4	0.0	390.96976137161255	1.9915800094604492
73	253.2985200881958	response	0	4		71.0	2.5	/experiments/knapen_aot/oldvideos/R_S_yt-bH4nJibL4Jo_164.mp4	0.0	392.9531452655792	
73	253.30671620368958	movie	1		301.0	71.0	2.5	/experiments/knapen_aot/oldvideos/R_S_yt-bH4nJibL4Jo_164.mp4	0.0	392.961341381073	2.508330821990967
73	255.81504702568054	fix_post	2		12.0	71.0	2.5	/experiments/knapen_aot/oldvideos/R_S_yt-bH4nJibL4Jo_164.mp4	0.0	395.46967220306396	0.09996318817138672
74	255.91501021385193	fix_pre	0		39.0	72.0	2.5	/experiments/knapen_aot/oldvideos/S_ILSVRC2015_train_00369004.mp4	0.0	395.56963539123535	0.32500386238098145
74	256.23178219795227	response	0	4		72.0	2.5	/experiments/knapen_aot/oldvideos/S_ILSVRC2015_train_00369004.mp4	0.0	395.8864073753357	
74	256.2400140762329	movie	1		301.0	72.0	2.5	/experiments/knapen_aot/oldvideos/S_ILSVRC2015_train_00369004.mp4	0.0	395.89463925361633	2.508378028869629
74	258.74839210510254	fix_post	2		12.0	72.0	2.5	/experiments/knapen_aot/oldvideos/S_ILSVRC2015_train_00369004.mp4	0.0	398.40301728248596	0.09991908073425293
75	258.8483111858368	fix_pre	0		33.0	73.0	2.5	/experiments/knapen_aot/oldvideos/R_S_yt-BKkZUSowoxg_59.mp4	0.0	398.5029363632202	0.2749660015106201
75	259.1075701713562	response	0	4		73.0	2.5	/experiments/knapen_aot/oldvideos/R_S_yt-BKkZUSowoxg_59.mp4	0.0	398.7621953487396	
75	259.1232771873474	movie	1		301.0	73.0	2.5	/experiments/knapen_aot/oldvideos/R_S_yt-BKkZUSowoxg_59.mp4	0.0	398.77790236473083	2.508378028869629
75	261.63165521621704	fix_post	2		12.0	73.0	2.5	/experiments/knapen_aot/oldvideos/R_S_yt-BKkZUSowoxg_59.mp4	0.0	401.28628039360046	0.10002589225769043
76	261.73168110847473	fix_pre	0		126.0	74.0	2.5	/experiments/knapen_aot/oldvideos/S_yt-dQRqGgpS9mE_288.mp4	0.0	401.38630628585815	1.0499639511108398
76	262.7734260559082	response	0	4		74.0	2.5	/experiments/knapen_aot/oldvideos/S_yt-dQRqGgpS9mE_288.mp4	0.0	402.4280512332916	
76	262.78164505958557	movie	1		301.0	74.0	2.5	/experiments/knapen_aot/oldvideos/S_yt-dQRqGgpS9mE_288.mp4	0.0	402.436270236969	2.508316993713379
76	265.28996205329895	fix_post	2		12.0	74.0	2.5	/experiments/knapen_aot/oldvideos/S_yt-dQRqGgpS9mE_288.mp4	0.0	404.9445872306824	0.09997701644897461
77	265.3899390697479	fix_pre	0		53.0	75.0	2.5	/experiments/knapen_aot/oldvideos/R_S_yt-GETRVzxihhM_74.mp4	0.0	405.04456424713135	0.4417080879211426
77	265.8234522342682	response	0	4		75.0	2.5	/experiments/knapen_aot/oldvideos/R_S_yt-GETRVzxihhM_74.mp4	0.0	405.4780774116516	
77	265.83164715766907	movie	1		301.0	75.0	2.5	/experiments/knapen_aot/oldvideos/R_S_yt-GETRVzxihhM_74.mp4	0.0	405.4862723350525	2.508262872695923
77	268.339910030365	fix_post	2		12.0	75.0	2.5	/experiments/knapen_aot/oldvideos/R_S_yt-GETRVzxihhM_74.mp4	0.0	407.9945352077484	0.10002899169921875
78	268.4399390220642	fix_pre	0		23.0	76.0	2.5	blank	1.0	408.09456419944763	0.19165420532226562
78	268.62342405319214	response	0	4		76.0	2.5	blank	1.0	408.27804923057556	
78	268.6315932273865	movie	1		301.0	76.0	2.5	blank	1.0	408.2862184047699	2.508316993713379
78	271.13991022109985	fix_post	2		12.0	76.0	2.5	blank	1.0	410.7945353984833	0.10007691383361816
79	271.2399871349335	fix_pre	0		31.0	77.0	2.5	/experiments/knapen_aot/oldvideos/S_comp_A103_C002_0205DG_v12_SDR_FINAL_20180706_SDR_2K_AVC.mp4	0.0	410.8946123123169	0.2582359313964844
79	271.4899830818176	response	0	4		77.0	2.5	/experiments/knapen_aot/oldvideos/S_comp_A103_C002_0205DG_v12_SDR_FINAL_20180706_SDR_2K_AVC.mp4	0.0	411.14460825920105	
79	271.49822306632996	movie	1		163.0	77.0	2.5	/experiments/knapen_aot/oldvideos/S_comp_A103_C002_0205DG_v12_SDR_FINAL_20180706_SDR_2K_AVC.mp4	0.0	411.1528482437134	2.50838303565979
79	274.00660610198975	fix_post	2		12.0	77.0	2.5	/experiments/knapen_aot/oldvideos/S_comp_A103_C002_0205DG_v12_SDR_FINAL_20180706_SDR_2K_AVC.mp4	0.0	413.66123127937317	0.10004091262817383
80	274.1066470146179	fix_pre	0		12.0	78.0	2.5	/experiments/knapen_aot/oldvideos/S_yt-wnQFgNEnHUI_109.mp4	0.0	413.76127219200134	0.09987902641296387
80	274.19835901260376	response	0	4		78.0	2.5	/experiments/knapen_aot/oldvideos/S_yt-wnQFgNEnHUI_109.mp4	0.0	413.8529841899872	
80	274.2065260410309	movie	1		301.0	78.0	2.5	/experiments/knapen_aot/oldvideos/S_yt-wnQFgNEnHUI_109.mp4	0.0	413.8611512184143	2.508479118347168
80	276.71500515937805	fix_post	2		12.0	78.0	2.5	/experiments/knapen_aot/oldvideos/S_yt-wnQFgNEnHUI_109.mp4	0.0	416.3696303367615	0.09993386268615723
81	276.8149390220642	fix_pre	0		41.0	79.0	2.5	/experiments/knapen_aot/oldvideos/S_yt-Ozx_f0a0ZDI_32.mp4	0.0	416.46956419944763	0.34156203269958496
81	277.1483402252197	response	0	4		79.0	2.5	/experiments/knapen_aot/oldvideos/S_yt-Ozx_f0a0ZDI_32.mp4	0.0	416.80296540260315	
81	277.1565010547638	movie	1		301.0	79.0	2.5	/experiments/knapen_aot/oldvideos/S_yt-Ozx_f0a0ZDI_32.mp4	0.0	416.8111262321472	2.5084309577941895
81	279.664932012558	fix_post	2		12.0	79.0	2.5	/experiments/knapen_aot/oldvideos/S_yt-Ozx_f0a0ZDI_32.mp4	0.0	419.3195571899414	0.09997105598449707
82	279.7649030685425	fix_pre	0		18.0	80.0	2.5	/experiments/knapen_aot/oldvideos/S_yt-AbJBxqEYoMg_27.mp4	0.0	419.4195282459259	0.14999794960021973
82	279.90670013427734	response	0	4		80.0	2.5	/experiments/knapen_aot/oldvideos/S_yt-AbJBxqEYoMg_27.mp4	0.0	419.56132531166077	
82	279.9149010181427	movie	1		301.0	80.0	2.5	/experiments/knapen_aot/oldvideos/S_yt-AbJBxqEYoMg_27.mp4	0.0	419.5695261955261	2.508336067199707
82	282.4232370853424	fix_post	2		12.0	80.0	2.5	/experiments/knapen_aot/oldvideos/S_yt-AbJBxqEYoMg_27.mp4	0.0	422.07786226272583	0.09994101524353027
83	282.52317810058594	fix_pre	0		41.0	81.0	2.5	/experiments/knapen_aot/oldvideos/S_yt-5doJmCcFL7s_3.mp4	0.0	422.17780327796936	0.34168004989624023
83	282.8567039966583	response	0	4		81.0	2.5	/experiments/knapen_aot/oldvideos/S_yt-5doJmCcFL7s_3.mp4	0.0	422.51132917404175	
83	282.8648581504822	movie	1		301.0	81.0	2.5	/experiments/knapen_aot/oldvideos/S_yt-5doJmCcFL7s_3.mp4	0.0	422.5194833278656	2.5083980560302734
83	285.37325620651245	fix_post	2		12.0	81.0	2.5	/experiments/knapen_aot/oldvideos/S_yt-5doJmCcFL7s_3.mp4	0.0	425.0278813838959	0.09995698928833008
84	285.4732131958008	fix_pre	0		160.0	82.0	2.5	/experiments/knapen_aot/oldvideos/R_S_yt-xqjVM0Vj4mI_161.mp4	0.0	425.1278383731842	1.333432912826538
84	286.79080605506897	response	0	4		82.0	2.5	/experiments/knapen_aot/oldvideos/R_S_yt-xqjVM0Vj4mI_161.mp4	0.0	426.4454312324524	
84	286.8066461086273	movie	1		301.0	82.0	2.5	/experiments/knapen_aot/oldvideos/R_S_yt-xqjVM0Vj4mI_161.mp4	0.0	426.46127128601074	2.508342981338501
84	289.3149890899658	fix_post	2		12.0	82.0	2.5	/experiments/knapen_aot/oldvideos/R_S_yt-xqjVM0Vj4mI_161.mp4	0.0	428.96961426734924	0.09984397888183594
85	289.41483306884766	fix_pre	0		46.0	83.0	2.5	blank	1.0	429.0694582462311	0.3843650817871094
85	289.78998923301697	response	0	4		83.0	2.5	blank	1.0	429.4446144104004	
85	289.79919815063477	movie	1		301.0	83.0	2.5	blank	1.0	429.4538233280182	2.507354974746704
85	292.30655312538147	fix_post	2		12.0	83.0	2.5	blank	1.0	431.9611783027649	0.09999608993530273
87	292.4065492153168	stim	0		136.0					432.0611743927002	1.1355948448181152
87	292.6317791938782	response	0	4						432.2864043712616	
87	293.5337162017822	response	0	space						433.18834137916565	
