trial_nr	onset	event_type	phase	response	nr_frames	movie_index	movie_duration	movie_file	blank	onset_abs	duration
0	0.15823984146118164	stim	0		22.0					104.46458792686462	0.18641209602355957
0	0.33338093757629395	response	0	space						104.63972902297974	
1	0.3446519374847412	stim	0		121.0					104.65100002288818	1.0052618980407715
1	0.9915688037872314	response	0	space						105.29791688919067	
1	1.3499138355255127	stim	1		120.0					105.65626192092896	0.9996349811553955
1	2.0662319660186768	response	1	space						106.37258005142212	
2	2.349548816680908	fix_pre	0		6.0	0.0	2.5	/experiments/knapen_aot/videos/R_S_yt-6vkiJedss6g_5.mp4	0.0	106.65589690208435	0.05031418800354004
2	2.3912899494171143	response	0	space		0.0	2.5	/experiments/knapen_aot/videos/R_S_yt-6vkiJedss6g_5.mp4	0.0	106.69763803482056	
2	2.3998630046844482	movie	1		301.0	0.0	2.5	/experiments/knapen_aot/videos/R_S_yt-6vkiJedss6g_5.mp4	0.0	106.70621109008789	2.507999897003174
2	4.907862901687622	fix_post	2		12.0	0.0	2.5	/experiments/knapen_aot/videos/R_S_yt-6vkiJedss6g_5.mp4	0.0	109.21421098709106	0.10009288787841797
3	5.00795578956604	fix_pre	0		130.0	1.0	2.5	/experiments/knapen_aot/videos/S_ILSVRC2015_train_00067003.mp4	0.0	109.31430387496948	1.0831990242004395
3	6.075773000717163	response	0	2		1.0	2.5	/experiments/knapen_aot/videos/S_ILSVRC2015_train_00067003.mp4	0.0	110.3821210861206	
3	6.0911548137664795	movie	1		301.0	1.0	2.5	/experiments/knapen_aot/videos/S_ILSVRC2015_train_00067003.mp4	0.0	110.39750289916992	2.5083210468292236
3	8.599475860595703	fix_post	2		12.0	1.0	2.5	/experiments/knapen_aot/videos/S_ILSVRC2015_train_00067003.mp4	0.0	112.90582394599915	0.10004997253417969
4	8.699525833129883	fix_pre	0		50.0	2.0	2.5	/experiments/knapen_aot/videos/R_S_yt-VJ65ukWmdxQ_193.mp4	0.0	113.00587391853333	0.41671299934387207
4	9.107931852340698	response	0	2		2.0	2.5	/experiments/knapen_aot/videos/R_S_yt-VJ65ukWmdxQ_193.mp4	0.0	113.41427993774414	
4	9.116238832473755	movie	1		300.0	2.0	2.5	/experiments/knapen_aot/videos/R_S_yt-VJ65ukWmdxQ_193.mp4	0.0	113.4225869178772	2.508305072784424
4	11.624543905258179	fix_post	2		12.0	2.0	2.5	/experiments/knapen_aot/videos/R_S_yt-VJ65ukWmdxQ_193.mp4	0.0	115.93089199066162	0.09996891021728516
5	11.724512815475464	fix_pre	0		33.0	3.0	2.5	/experiments/knapen_aot/videos/R_S_AK_A004_C012_SDR_20191217_SDR_2K_AVC.mp4	0.0	116.0308609008789	0.27500104904174805
5	11.991383790969849	response	0	2		3.0	2.5	/experiments/knapen_aot/videos/R_S_AK_A004_C012_SDR_20191217_SDR_2K_AVC.mp4	0.0	116.29773187637329	
5	11.999513864517212	movie	1		165.0	3.0	2.5	/experiments/knapen_aot/videos/R_S_AK_A004_C012_SDR_20191217_SDR_2K_AVC.mp4	0.0	116.30586194992065	2.508363962173462
5	14.507877826690674	fix_post	2		12.0	3.0	2.5	/experiments/knapen_aot/videos/R_S_AK_A004_C012_SDR_20191217_SDR_2K_AVC.mp4	0.0	118.81422591209412	0.10025811195373535
6	14.60813593864441	fix_pre	0		35.0	4.0	2.5	/experiments/knapen_aot/videos/R_S_yt-KV8X9IBWuJk_48.mp4	0.0	118.91448402404785	0.29155802726745605
6	14.891419887542725	response	0	2		4.0	2.5	/experiments/knapen_aot/videos/R_S_yt-KV8X9IBWuJk_48.mp4	0.0	119.19776797294617	
6	14.899693965911865	movie	1		301.0	4.0	2.5	/experiments/knapen_aot/videos/R_S_yt-KV8X9IBWuJk_48.mp4	0.0	119.20604205131531	2.5081489086151123
6	17.407842874526978	fix_post	2		12.0	4.0	2.5	/experiments/knapen_aot/videos/R_S_yt-KV8X9IBWuJk_48.mp4	0.0	121.71419095993042	0.09995603561401367
7	17.50779891014099	fix_pre	0		13.0	5.0	2.5	/experiments/knapen_aot/videos/S_flickr-clarkstonscamp-4863427159_1.mp4	0.0	121.81414699554443	0.10830903053283691
7	17.608091831207275	response	0	2		5.0	2.5	/experiments/knapen_aot/videos/S_flickr-clarkstonscamp-4863427159_1.mp4	0.0	121.91443991661072	
7	17.616107940673828	movie	1		301.0	5.0	2.5	/experiments/knapen_aot/videos/S_flickr-clarkstonscamp-4863427159_1.mp4	0.0	121.92245602607727	2.508370876312256
7	20.124478816986084	fix_post	2		12.0	5.0	2.5	/experiments/knapen_aot/videos/S_flickr-clarkstonscamp-4863427159_1.mp4	0.0	124.43082690238953	0.10001707077026367
8	20.224495887756348	fix_pre	0		33.0	6.0	2.5	blank	1.0	124.53084397315979	0.27493810653686523
8	20.491254806518555	response	0	2		6.0	2.5	blank	1.0	124.797602891922	
8	20.499433994293213	movie	1		301.0	6.0	2.5	blank	1.0	124.80578207969666	2.5083608627319336
8	23.007794857025146	fix_post	2		12.0	6.0	2.5	blank	1.0	127.31414294242859	0.10021305084228516
9	23.10800790786743	fix_pre	0		39.0	7.0	2.5	/experiments/knapen_aot/videos/S_yt-7XDVHp75fu4_93.mp4	0.0	127.41435599327087	0.324753999710083
9	23.424559831619263	response	0	2		7.0	2.5	/experiments/knapen_aot/videos/S_yt-7XDVHp75fu4_93.mp4	0.0	127.7309079170227	
9	23.432761907577515	movie	1		301.0	7.0	2.5	/experiments/knapen_aot/videos/S_yt-7XDVHp75fu4_93.mp4	0.0	127.73910999298096	2.5086259841918945
9	25.76089882850647	response	1	2		7.0	2.5	/experiments/knapen_aot/videos/S_yt-7XDVHp75fu4_93.mp4	0.0	130.0672469139099	
9	25.94138789176941	fix_post	2		12.0	7.0	2.5	/experiments/knapen_aot/videos/S_yt-7XDVHp75fu4_93.mp4	0.0	130.24773597717285	0.09972000122070312
10	26.041107892990112	fix_pre	0		139.0	8.0	2.5	/experiments/knapen_aot/videos/R_S_yt-ZBhTpmrAlUY_70.mp4	0.0	130.34745597839355	1.158308982849121
10	27.19117283821106	response	0	2		8.0	2.5	/experiments/knapen_aot/videos/R_S_yt-ZBhTpmrAlUY_70.mp4	0.0	131.4975209236145	
10	27.199416875839233	movie	1		301.0	8.0	2.5	/experiments/knapen_aot/videos/R_S_yt-ZBhTpmrAlUY_70.mp4	0.0	131.50576496124268	2.508366107940674
10	29.707782983779907	fix_post	2		12.0	8.0	2.5	/experiments/knapen_aot/videos/R_S_yt-ZBhTpmrAlUY_70.mp4	0.0	134.01413106918335	0.09992384910583496
11	29.807706832885742	fix_pre	0		21.0	9.0	2.5	/experiments/knapen_aot/videos/S_yt-BJsMGxfjrZk_59.mp4	0.0	134.11405491828918	0.17524194717407227
11	29.97460389137268	response	0	2		9.0	2.5	/experiments/knapen_aot/videos/S_yt-BJsMGxfjrZk_59.mp4	0.0	134.28095197677612	
11	29.982948780059814	movie	1		301.0	9.0	2.5	/experiments/knapen_aot/videos/S_yt-BJsMGxfjrZk_59.mp4	0.0	134.28929686546326	2.508141040802002
11	32.491089820861816	fix_post	2		12.0	9.0	2.5	/experiments/knapen_aot/videos/S_yt-BJsMGxfjrZk_59.mp4	0.0	136.79743790626526	0.09993314743041992
12	32.591022968292236	fix_pre	0		17.0	10.0	2.5	/experiments/knapen_aot/videos/R_S_yt-YyKEeu2gLrI_158.mp4	0.0	136.89737105369568	0.14185881614685059
12	32.717047929763794	response	0	2		10.0	2.5	/experiments/knapen_aot/videos/R_S_yt-YyKEeu2gLrI_158.mp4	0.0	137.02339601516724	
12	32.73288178443909	movie	1		301.0	10.0	2.5	/experiments/knapen_aot/videos/R_S_yt-YyKEeu2gLrI_158.mp4	0.0	137.03922986984253	2.508395195007324
12	35.24127697944641	fix_post	2		12.0	10.0	2.5	/experiments/knapen_aot/videos/R_S_yt-YyKEeu2gLrI_158.mp4	0.0	139.54762506484985	0.09979701042175293
13	35.341073989868164	fix_pre	0		16.0	11.0	2.5	/experiments/knapen_aot/videos/S_yt-cjndulbUtRc_51.mp4	0.0	139.6474220752716	0.1332838535308838
13	35.46612191200256	response	0	2		11.0	2.5	/experiments/knapen_aot/videos/S_yt-cjndulbUtRc_51.mp4	0.0	139.772469997406	
13	35.47435784339905	movie	1		301.0	11.0	2.5	/experiments/knapen_aot/videos/S_yt-cjndulbUtRc_51.mp4	0.0	139.7807059288025	2.5085201263427734
13	37.98287796974182	fix_post	2		12.0	11.0	2.5	/experiments/knapen_aot/videos/S_yt-cjndulbUtRc_51.mp4	0.0	142.28922605514526	0.09983682632446289
14	38.082714796066284	fix_pre	0		20.0	12.0	2.5	blank	1.0	142.38906288146973	0.16662907600402832
14	38.24123191833496	response	0	2		12.0	2.5	blank	1.0	142.5475800037384	
14	38.24934387207031	movie	1		301.0	12.0	2.5	blank	1.0	142.55569195747375	2.5084500312805176
14	40.75779390335083	fix_post	2		12.0	12.0	2.5	blank	1.0	145.06414198875427	0.10006594657897949
15	40.85785984992981	fix_pre	0		26.0	13.0	2.5	/experiments/knapen_aot/videos/R_S_yt-31yLemkW42Q_111.mp4	0.0	145.16420793533325	0.2165050506591797
15	41.066136837005615	response	0	2		13.0	2.5	/experiments/knapen_aot/videos/R_S_yt-31yLemkW42Q_111.mp4	0.0	145.37248492240906	
15	41.07436490058899	movie	1		301.0	13.0	2.5	/experiments/knapen_aot/videos/R_S_yt-31yLemkW42Q_111.mp4	0.0	145.38071298599243	2.508297920227051
15	43.58266282081604	fix_post	2		12.0	13.0	2.5	/experiments/knapen_aot/videos/R_S_yt-31yLemkW42Q_111.mp4	0.0	147.88901090621948	0.10015416145324707
16	43.68281698226929	fix_pre	0		28.0	14.0	2.5	/experiments/knapen_aot/videos/S_yt-WFiEvQuOqqg_18.mp4	0.0	147.98916506767273	0.23317193984985352
16	43.907758951187134	response	0	2		14.0	2.5	/experiments/knapen_aot/videos/S_yt-WFiEvQuOqqg_18.mp4	0.0	148.21410703659058	
16	43.91598892211914	movie	1		301.0	14.0	2.5	/experiments/knapen_aot/videos/S_yt-WFiEvQuOqqg_18.mp4	0.0	148.22233700752258	2.5083630084991455
16	46.424351930618286	fix_post	2		12.0	14.0	2.5	/experiments/knapen_aot/videos/S_yt-WFiEvQuOqqg_18.mp4	0.0	150.73070001602173	0.1000828742980957
17	46.52443480491638	fix_pre	0		22.0	15.0	2.5	/experiments/knapen_aot/videos/R_S_pexels-diva-plavalaguna-6985395_1.mp4	0.0	150.83078289031982	0.18321514129638672
17	46.69947385787964	response	0	2		15.0	2.5	/experiments/knapen_aot/videos/R_S_pexels-diva-plavalaguna-6985395_1.mp4	0.0	151.00582194328308	
17	46.70764994621277	movie	1		167.0	15.0	2.5	/experiments/knapen_aot/videos/R_S_pexels-diva-plavalaguna-6985395_1.mp4	0.0	151.0139980316162	2.508363962173462
17	49.21601390838623	fix_post	2		12.0	15.0	2.5	/experiments/knapen_aot/videos/R_S_pexels-diva-plavalaguna-6985395_1.mp4	0.0	153.52236199378967	0.10004496574401855
18	49.31605887413025	fix_pre	0		41.0	16.0	2.5	/experiments/knapen_aot/videos/R_S_yt-wqdTPz0bLrM_561.mp4	0.0	153.6224069595337	0.3498969078063965
18	49.65777897834778	response	0	2		16.0	2.5	/experiments/knapen_aot/videos/R_S_yt-wqdTPz0bLrM_561.mp4	0.0	153.96412706375122	
18	49.665955781936646	movie	1		301.0	16.0	2.5	/experiments/knapen_aot/videos/R_S_yt-wqdTPz0bLrM_561.mp4	0.0	153.9723038673401	2.508329153060913
18	52.17428493499756	fix_post	2		12.0	16.0	2.5	/experiments/knapen_aot/videos/R_S_yt-wqdTPz0bLrM_561.mp4	0.0	156.480633020401	0.1001138687133789
19	52.27439880371094	fix_pre	0		38.0	17.0	2.5	/experiments/knapen_aot/videos/S_wc-8bTJmWfuVyJ4_8.mp4	0.0	156.58074688911438	0.3166050910949707
19	52.58279991149902	response	0	2		17.0	2.5	/experiments/knapen_aot/videos/S_wc-8bTJmWfuVyJ4_8.mp4	0.0	156.88914799690247	
19	52.59100389480591	movie	1		162.0	17.0	2.5	/experiments/knapen_aot/videos/S_wc-8bTJmWfuVyJ4_8.mp4	0.0	156.89735198020935	2.508315086364746
19	55.099318981170654	fix_post	2		12.0	17.0	2.5	/experiments/knapen_aot/videos/S_wc-8bTJmWfuVyJ4_8.mp4	0.0	159.4056670665741	0.0999460220336914
20	55.199265003204346	fix_pre	0		40.0	18.0	2.5	/experiments/knapen_aot/videos/S_yt-Fm97IY0Z2LU_79.mp4	0.0	159.5056130886078	0.33335089683532715
20	55.52441883087158	response	0	2		18.0	2.5	/experiments/knapen_aot/videos/S_yt-Fm97IY0Z2LU_79.mp4	0.0	159.83076691627502	
20	55.53261590003967	movie	1		301.0	18.0	2.5	/experiments/knapen_aot/videos/S_yt-Fm97IY0Z2LU_79.mp4	0.0	159.83896398544312	2.5082919597625732
20	58.040907859802246	fix_post	2		12.0	18.0	2.5	/experiments/knapen_aot/videos/S_yt-Fm97IY0Z2LU_79.mp4	0.0	162.3472559452057	0.10012507438659668
21	58.14103293418884	fix_pre	0		20.0	19.0	2.5	/experiments/knapen_aot/videos/S_yt-0d5TkclKWVA_146.mp4	0.0	162.44738101959229	0.1666100025177002
21	58.29938578605652	response	0	2		19.0	2.5	/experiments/knapen_aot/videos/S_yt-0d5TkclKWVA_146.mp4	0.0	162.60573387145996	
21	58.30764293670654	movie	1		301.0	19.0	2.5	/experiments/knapen_aot/videos/S_yt-0d5TkclKWVA_146.mp4	0.0	162.61399102210999	2.508319854736328
21	60.81596279144287	fix_post	2		12.0	19.0	2.5	/experiments/knapen_aot/videos/S_yt-0d5TkclKWVA_146.mp4	0.0	165.1223108768463	0.10004210472106934
22	60.91600489616394	fix_pre	0		45.0	20.0	2.5	blank	1.0	165.22235298156738	0.3749260902404785
22	61.282678842544556	response	0	2		20.0	2.5	blank	1.0	165.589026927948	
22	61.29093098640442	movie	1		301.0	20.0	2.5	blank	1.0	165.59727907180786	2.508370876312256
22	63.799301862716675	fix_post	2		12.0	20.0	2.5	blank	1.0	168.10564994812012	0.09997296333312988
23	63.899274826049805	fix_pre	0		42.0	21.0	2.5	/experiments/knapen_aot/videos/R_S_yt-l_pvPAznG1A_20.mp4	0.0	168.20562291145325	0.3499720096588135
23	64.24108791351318	response	0	2		21.0	2.5	/experiments/knapen_aot/videos/R_S_yt-l_pvPAznG1A_20.mp4	0.0	168.54743599891663	
23	64.24924683570862	movie	1		300.0	21.0	2.5	/experiments/knapen_aot/videos/R_S_yt-l_pvPAznG1A_20.mp4	0.0	168.55559492111206	2.508363962173462
23	66.75761079788208	fix_post	2		12.0	21.0	2.5	/experiments/knapen_aot/videos/R_S_yt-l_pvPAznG1A_20.mp4	0.0	171.06395888328552	0.0999901294708252
24	66.8576009273529	fix_pre	0		55.0	22.0	2.5	/experiments/knapen_aot/videos/R_S_yt-jy96-k8drRE_1.mp4	0.0	171.16394901275635	0.45834803581237793
24	67.3076798915863	response	0	2		22.0	2.5	/experiments/knapen_aot/videos/R_S_yt-jy96-k8drRE_1.mp4	0.0	171.61402797698975	
24	67.31594896316528	movie	1		301.0	22.0	2.5	/experiments/knapen_aot/videos/R_S_yt-jy96-k8drRE_1.mp4	0.0	171.62229704856873	2.508286952972412
24	69.8242359161377	fix_post	2		12.0	22.0	2.5	/experiments/knapen_aot/videos/R_S_yt-jy96-k8drRE_1.mp4	0.0	174.13058400154114	0.09997987747192383
25	69.92421579360962	fix_pre	0		32.0	23.0	2.5	/experiments/knapen_aot/videos/R_S_yt-wqdTPz0bLrM_561.mp4	0.0	174.23056387901306	0.2666761875152588
25	70.1827039718628	response	0	2		23.0	2.5	/experiments/knapen_aot/videos/R_S_yt-wqdTPz0bLrM_561.mp4	0.0	174.48905205726624	
25	70.19089198112488	movie	1		301.0	23.0	2.5	/experiments/knapen_aot/videos/R_S_yt-wqdTPz0bLrM_561.mp4	0.0	174.49724006652832	2.5083279609680176
25	72.6992199420929	fix_post	2		12.0	23.0	2.5	/experiments/knapen_aot/videos/R_S_yt-wqdTPz0bLrM_561.mp4	0.0	177.00556802749634	0.10001397132873535
26	72.79923391342163	fix_pre	0		41.0	24.0	2.5	/experiments/knapen_aot/videos/R_S_yt-9NV8zv2Sdq4_30.mp4	0.0	177.10558199882507	0.34163808822631836
26	73.13267278671265	response	0	2		24.0	2.5	/experiments/knapen_aot/videos/R_S_yt-9NV8zv2Sdq4_30.mp4	0.0	177.4390208721161	
26	73.14087200164795	movie	1		299.0	24.0	2.5	/experiments/knapen_aot/videos/R_S_yt-9NV8zv2Sdq4_30.mp4	0.0	177.4472200870514	2.5083987712860107
26	75.64927077293396	fix_post	2		12.0	24.0	2.5	/experiments/knapen_aot/videos/R_S_yt-9NV8zv2Sdq4_30.mp4	0.0	179.9556188583374	0.0999910831451416
27	75.7492618560791	fix_pre	0		52.0	25.0	2.5	/experiments/knapen_aot/videos/S_bing-www_yahoo_com_entertainment_anastasia-karanikolaou-chantel-jeffries-discuss-182400502_html_9.mp4	0.0	180.05560994148254	0.433272123336792
27	76.1669487953186	response	0	2		25.0	2.5	/experiments/knapen_aot/videos/S_bing-www_yahoo_com_entertainment_anastasia-karanikolaou-chantel-jeffries-discuss-182400502_html_9.mp4	0.0	180.47329688072205	
27	76.1825339794159	movie	1		162.0	25.0	2.5	/experiments/knapen_aot/videos/S_bing-www_yahoo_com_entertainment_anastasia-karanikolaou-chantel-jeffries-discuss-182400502_html_9.mp4	0.0	180.48888206481934	2.5083179473876953
27	78.69085192680359	fix_post	2		12.0	25.0	2.5	/experiments/knapen_aot/videos/S_bing-www_yahoo_com_entertainment_anastasia-karanikolaou-chantel-jeffries-discuss-182400502_html_9.mp4	0.0	182.99720001220703	0.10006499290466309
28	78.79091691970825	fix_pre	0		30.0	26.0	2.5	blank	1.0	183.0972650051117	0.24992799758911133
28	79.03273177146912	response	0	2		26.0	2.5	blank	1.0	183.33907985687256	
28	79.04084491729736	movie	1		301.0	26.0	2.5	blank	1.0	183.3471930027008	2.5082690715789795
28	81.54911398887634	fix_post	2		10.0	26.0	2.5	blank	1.0	185.85546207427979	0.10009098052978516
29	81.64920496940613	fix_pre	0		47.0	27.0	2.5	/experiments/knapen_aot/videos/S_yt-BQixB0mumIk_169.mp4	0.0	185.95555305480957	0.3916659355163574
29	82.03267192840576	response	0	2		27.0	2.5	/experiments/knapen_aot/videos/S_yt-BQixB0mumIk_169.mp4	0.0	186.3390200138092	
29	82.04087090492249	movie	1		301.0	27.0	2.5	/experiments/knapen_aot/videos/S_yt-BQixB0mumIk_169.mp4	0.0	186.34721899032593	2.508327007293701
29	84.54919791221619	fix_post	2		12.0	27.0	2.5	/experiments/knapen_aot/videos/S_yt-BQixB0mumIk_169.mp4	0.0	188.85554599761963	0.09999608993530273
30	84.64919400215149	fix_pre	0		27.0	28.0	2.5	/experiments/knapen_aot/videos/R_S_yt-5MyvZYFlc9g_125.mp4	0.0	188.95554208755493	0.22496795654296875
30	84.85861492156982	response	0	2		28.0	2.5	/experiments/knapen_aot/videos/R_S_yt-5MyvZYFlc9g_125.mp4	0.0	189.16496300697327	
30	84.87416195869446	movie	1		300.0	28.0	2.5	/experiments/knapen_aot/videos/R_S_yt-5MyvZYFlc9g_125.mp4	0.0	189.1805100440979	2.508354902267456
30	87.38251686096191	fix_post	2		12.0	28.0	2.5	/experiments/knapen_aot/videos/R_S_yt-5MyvZYFlc9g_125.mp4	0.0	191.68886494636536	0.09995603561401367
31	87.48247289657593	fix_pre	0		22.0	29.0	2.5	/experiments/knapen_aot/videos/R_S_ILSVRC2015_train_00414000.mp4	0.0	191.78882098197937	0.18331098556518555
31	87.6576337814331	response	0	2		29.0	2.5	/experiments/knapen_aot/videos/R_S_ILSVRC2015_train_00414000.mp4	0.0	191.96398186683655	
31	87.66578388214111	movie	1		301.0	29.0	2.5	/experiments/knapen_aot/videos/R_S_ILSVRC2015_train_00414000.mp4	0.0	191.97213196754456	2.508389949798584
31	90.1741738319397	fix_post	2		12.0	29.0	2.5	/experiments/knapen_aot/videos/R_S_ILSVRC2015_train_00414000.mp4	0.0	194.48052191734314	0.1000051498413086
32	90.274178981781	fix_pre	0		42.0	30.0	2.5	/experiments/knapen_aot/videos/S_ILnEDG_aP1A_35.mp4	0.0	194.58052706718445	0.34997987747192383
32	90.61596179008484	response	0	2		30.0	2.5	/experiments/knapen_aot/videos/S_ILnEDG_aP1A_35.mp4	0.0	194.92230987548828	
32	90.62415885925293	movie	1		301.0	30.0	2.5	/experiments/knapen_aot/videos/S_ILnEDG_aP1A_35.mp4	0.0	194.93050694465637	2.5083389282226562
32	93.13249778747559	fix_post	2		12.0	30.0	2.5	/experiments/knapen_aot/videos/S_ILnEDG_aP1A_35.mp4	0.0	197.43884587287903	0.10003018379211426
33	93.2325279712677	fix_pre	0		32.0	31.0	2.5	/experiments/knapen_aot/videos/R_S_pexels-mart-production-7698693.mp4	0.0	197.53887605667114	0.2666208744049072
33	93.49093699455261	response	0	2		31.0	2.5	/experiments/knapen_aot/videos/R_S_pexels-mart-production-7698693.mp4	0.0	197.79728507995605	
33	93.49914884567261	movie	1		191.0	31.0	2.5	/experiments/knapen_aot/videos/R_S_pexels-mart-production-7698693.mp4	0.0	197.80549693107605	2.5082790851593018
33	96.00742793083191	fix_post	2		12.0	31.0	2.5	/experiments/knapen_aot/videos/R_S_pexels-mart-production-7698693.mp4	0.0	200.31377601623535	0.10004997253417969
34	96.10747790336609	fix_pre	0		33.0	32.0	2.5	/experiments/knapen_aot/videos/S_yt-Zn0YwrsCFOQ_44.mp4	0.0	200.41382598876953	0.27498888969421387
34	96.37425589561462	response	0	2		32.0	2.5	/experiments/knapen_aot/videos/S_yt-Zn0YwrsCFOQ_44.mp4	0.0	200.68060398101807	
34	96.3824667930603	movie	1		301.0	32.0	2.5	/experiments/knapen_aot/videos/S_yt-Zn0YwrsCFOQ_44.mp4	0.0	200.68881487846375	2.508336067199707
34	98.89080286026001	fix_post	2		12.0	32.0	2.5	/experiments/knapen_aot/videos/S_yt-Zn0YwrsCFOQ_44.mp4	0.0	203.19715094566345	0.10001301765441895
35	98.99081587791443	fix_pre	0		42.0	33.0	2.5	/experiments/knapen_aot/videos/S_yt-mWlx1SIXl5M_850.mp4	0.0	203.29716396331787	0.3499319553375244
35	99.3326268196106	response	0	2		33.0	2.5	/experiments/knapen_aot/videos/S_yt-mWlx1SIXl5M_850.mp4	0.0	203.63897490501404	
35	99.34074783325195	movie	1		301.0	33.0	2.5	/experiments/knapen_aot/videos/S_yt-mWlx1SIXl5M_850.mp4	0.0	203.6470959186554	2.50833797454834
35	101.8490858078003	fix_post	2		12.0	33.0	2.5	/experiments/knapen_aot/videos/S_yt-mWlx1SIXl5M_850.mp4	0.0	206.15543389320374	0.10012602806091309
36	101.9492118358612	fix_pre	0		25.0	34.0	2.5	blank	1.0	206.25555992126465	0.2081589698791504
36	102.14926290512085	response	0	2		34.0	2.5	blank	1.0	206.4556109905243	
36	102.15737080574036	movie	1		301.0	34.0	2.5	blank	1.0	206.4637188911438	2.508404016494751
36	104.66577482223511	fix_post	2		12.0	34.0	2.5	blank	1.0	208.97212290763855	0.10001111030578613
37	104.7657859325409	fix_pre	0		31.0	35.0	2.5	/experiments/knapen_aot/videos/R_S_ILSVRC2015_train_00471000.mp4	0.0	209.07213401794434	0.25830507278442383
37	105.01589488983154	response	0	2		35.0	2.5	/experiments/knapen_aot/videos/R_S_ILSVRC2015_train_00471000.mp4	0.0	209.32224297523499	
37	105.02409100532532	movie	1		301.0	35.0	2.5	/experiments/knapen_aot/videos/R_S_ILSVRC2015_train_00471000.mp4	0.0	209.33043909072876	2.508356809616089
37	107.5324478149414	fix_post	2		12.0	35.0	2.5	/experiments/knapen_aot/videos/R_S_ILSVRC2015_train_00471000.mp4	0.0	211.83879590034485	0.09998512268066406
38	107.63243293762207	fix_pre	0		41.0	36.0	2.5	/experiments/knapen_aot/videos/S_yt-82O1uT8dmv8_12.mp4	0.0	211.9387810230255	0.3428080081939697
38	107.96591377258301	response	0	2		36.0	2.5	/experiments/knapen_aot/videos/S_yt-82O1uT8dmv8_12.mp4	0.0	212.27226185798645	
38	107.97524094581604	movie	1		301.0	36.0	2.5	/experiments/knapen_aot/videos/S_yt-82O1uT8dmv8_12.mp4	0.0	212.28158903121948	2.5071709156036377
38	110.48241186141968	fix_post	2		12.0	36.0	2.5	/experiments/knapen_aot/videos/S_yt-82O1uT8dmv8_12.mp4	0.0	214.78875994682312	0.09994912147521973
39	110.5823609828949	fix_pre	0		20.0	37.0	2.5	/experiments/knapen_aot/videos/R_S_yt-9NV8zv2Sdq4_30.mp4	0.0	214.88870906829834	0.1666889190673828
39	110.74091386795044	response	0	2		37.0	2.5	/experiments/knapen_aot/videos/R_S_yt-9NV8zv2Sdq4_30.mp4	0.0	215.04726195335388	
39	110.74904990196228	movie	1		301.0	37.0	2.5	/experiments/knapen_aot/videos/R_S_yt-9NV8zv2Sdq4_30.mp4	0.0	215.05539798736572	2.508302927017212
39	113.25735282897949	fix_post	2		12.0	37.0	2.5	/experiments/knapen_aot/videos/R_S_yt-9NV8zv2Sdq4_30.mp4	0.0	217.56370091438293	0.10006499290466309
40	113.35741782188416	fix_pre	0		33.0	38.0	2.5	/experiments/knapen_aot/videos/S_yt-ujTY1igjc3E_2.mp4	0.0	217.6637659072876	0.27495908737182617
40	113.62418794631958	response	0	2		38.0	2.5	/experiments/knapen_aot/videos/S_yt-ujTY1igjc3E_2.mp4	0.0	217.93053603172302	
40	113.63237690925598	movie	1		301.0	38.0	2.5	/experiments/knapen_aot/videos/S_yt-ujTY1igjc3E_2.mp4	0.0	217.93872499465942	2.5083000659942627
40	116.14067697525024	fix_post	2		12.0	38.0	2.5	/experiments/knapen_aot/videos/S_yt-ujTY1igjc3E_2.mp4	0.0	220.4470250606537	0.10002684593200684
41	116.24070382118225	fix_pre	0		23.0	39.0	2.5	/experiments/knapen_aot/videos/R_S_pexels-mart-production-7698911.mp4	0.0	220.5470519065857	0.1927659511566162
41	116.41670894622803	response	0	2		39.0	2.5	/experiments/knapen_aot/videos/R_S_pexels-mart-production-7698911.mp4	0.0	220.72305703163147	
41	116.43346977233887	movie	1		195.0	39.0	2.5	/experiments/knapen_aot/videos/R_S_pexels-mart-production-7698911.mp4	0.0	220.7398178577423	2.5072720050811768
41	118.94074177742004	fix_post	2		12.0	39.0	2.5	/experiments/knapen_aot/videos/R_S_pexels-mart-production-7698911.mp4	0.0	223.2470898628235	0.0999910831451416
42	119.04073286056519	fix_pre	0		12.0	40.0	2.5	blank	1.0	223.34708094596863	0.09998297691345215
42	119.13259077072144	response	0	2		40.0	2.5	blank	1.0	223.43893885612488	
42	119.14071583747864	movie	1		301.0	40.0	2.5	blank	1.0	223.44706392288208	2.508310079574585
42	121.64902591705322	fix_post	2		12.0	40.0	2.5	blank	1.0	225.95537400245667	0.10008502006530762
43	121.74911093711853	fix_pre	0		63.0	41.0	2.5	/experiments/knapen_aot/videos/S_yt-QJHe-CoK4iI_170.mp4	0.0	226.05545902252197	0.524940013885498
43	122.2658360004425	response	0	2		41.0	2.5	/experiments/knapen_aot/videos/S_yt-QJHe-CoK4iI_170.mp4	0.0	226.57218408584595	
43	122.27405095100403	movie	1		301.0	41.0	2.5	/experiments/knapen_aot/videos/S_yt-QJHe-CoK4iI_170.mp4	0.0	226.58039903640747	2.508357048034668
43	124.7824079990387	fix_post	2		12.0	41.0	2.5	/experiments/knapen_aot/videos/S_yt-QJHe-CoK4iI_170.mp4	0.0	229.08875608444214	0.09990978240966797
44	124.88231778144836	fix_pre	0		26.0	42.0	2.5	/experiments/knapen_aot/videos/S_Pz_NXxhQCJc_70.mp4	0.0	229.1886658668518	0.2177581787109375
44	125.09079599380493	response	0	2		42.0	2.5	/experiments/knapen_aot/videos/S_Pz_NXxhQCJc_70.mp4	0.0	229.39714407920837	
44	125.1000759601593	movie	1		301.0	42.0	2.5	/experiments/knapen_aot/videos/S_Pz_NXxhQCJc_70.mp4	0.0	229.40642404556274	2.5073459148406982
44	127.607421875	fix_post	2		12.0	42.0	2.5	/experiments/knapen_aot/videos/S_Pz_NXxhQCJc_70.mp4	0.0	231.91376996040344	0.09992694854736328
45	127.70734882354736	fix_pre	0		42.0	43.0	2.5	/experiments/knapen_aot/videos/R_S_MEX_A006_C008_SDR_20190923_SDR_2K_AVC.mp4	0.0	232.0136969089508	0.3510150909423828
45	128.04919981956482	response	0	2		43.0	2.5	/experiments/knapen_aot/videos/R_S_MEX_A006_C008_SDR_20190923_SDR_2K_AVC.mp4	0.0	232.35554790496826	
45	128.05836391448975	movie	1		165.0	43.0	2.5	/experiments/knapen_aot/videos/R_S_MEX_A006_C008_SDR_20190923_SDR_2K_AVC.mp4	0.0	232.3647119998932	2.507443904876709
45	130.56580781936646	fix_post	2		12.0	43.0	2.5	/experiments/knapen_aot/videos/R_S_MEX_A006_C008_SDR_20190923_SDR_2K_AVC.mp4	0.0	234.8721559047699	0.0998690128326416
46	130.6656768321991	fix_pre	0		23.0	44.0	2.5	/experiments/knapen_aot/videos/S_ILSVRC2015_train_00371013.mp4	0.0	234.97202491760254	0.19164013862609863
46	130.84909582138062	response	0	2		44.0	2.5	/experiments/knapen_aot/videos/S_ILSVRC2015_train_00371013.mp4	0.0	235.15544390678406	
46	130.8573169708252	movie	1		301.0	44.0	2.5	/experiments/knapen_aot/videos/S_ILSVRC2015_train_00371013.mp4	0.0	235.16366505622864	2.5083630084991455
46	133.36567997932434	fix_post	2		12.0	44.0	2.5	/experiments/knapen_aot/videos/S_ILSVRC2015_train_00371013.mp4	0.0	237.67202806472778	0.09991884231567383
47	133.46559882164001	fix_pre	0		38.0	45.0	2.5	/experiments/knapen_aot/videos/R_S_yt-W00vtWnXgIk_73.mp4	0.0	237.77194690704346	0.3166990280151367
47	133.77417278289795	response	0	2		45.0	2.5	/experiments/knapen_aot/videos/R_S_yt-W00vtWnXgIk_73.mp4	0.0	238.0805208683014	
47	133.78229784965515	movie	1		301.0	45.0	2.5	/experiments/knapen_aot/videos/R_S_yt-W00vtWnXgIk_73.mp4	0.0	238.0886459350586	2.5083611011505127
47	136.29065895080566	fix_post	2		12.0	45.0	2.5	/experiments/knapen_aot/videos/R_S_yt-W00vtWnXgIk_73.mp4	0.0	240.5970070362091	0.10105490684509277
48	136.39171385765076	fix_pre	0		58.0	46.0	2.5	/experiments/knapen_aot/videos/R_S_yt-22c5eZ1UNME_76.mp4	0.0	240.6980619430542	0.48226404190063477
48	136.86583995819092	response	0	2		46.0	2.5	/experiments/knapen_aot/videos/R_S_yt-22c5eZ1UNME_76.mp4	0.0	241.17218804359436	
48	136.8739778995514	movie	1		300.0	46.0	2.5	/experiments/knapen_aot/videos/R_S_yt-22c5eZ1UNME_76.mp4	0.0	241.18032598495483	2.508310079574585
48	139.38228797912598	fix_post	2		12.0	46.0	2.5	/experiments/knapen_aot/videos/R_S_yt-22c5eZ1UNME_76.mp4	0.0	243.68863606452942	0.0999898910522461
49	139.48227787017822	fix_pre	0		28.0	47.0	2.5	/experiments/knapen_aot/videos/R_S_yt-22c5eZ1UNME_76.mp4	0.0	243.78862595558167	0.23326611518859863
49	139.70746397972107	response	0	2		47.0	2.5	/experiments/knapen_aot/videos/R_S_yt-22c5eZ1UNME_76.mp4	0.0	244.0138120651245	
49	139.71554398536682	movie	1		301.0	47.0	2.5	/experiments/knapen_aot/videos/R_S_yt-22c5eZ1UNME_76.mp4	0.0	244.02189207077026	2.5084338188171387
49	142.22397780418396	fix_post	2		12.0	47.0	2.5	/experiments/knapen_aot/videos/R_S_yt-22c5eZ1UNME_76.mp4	0.0	246.5303258895874	0.1000521183013916
50	142.32402992248535	fix_pre	0		20.0	48.0	2.5	blank	1.0	246.6303780078888	0.16671395301818848
50	142.48245000839233	response	0	2		48.0	2.5	blank	1.0	246.78879809379578	
50	142.49074387550354	movie	1		301.0	48.0	2.5	blank	1.0	246.79709196090698	2.5082619190216064
50	144.99900579452515	fix_post	2		12.0	48.0	2.5	blank	1.0	249.3053538799286	0.09996199607849121
51	145.09896779060364	fix_pre	0		42.0	49.0	2.5	/experiments/knapen_aot/videos/S_yt-wqdTPz0bLrM_561.mp4	0.0	249.40531587600708	0.35000109672546387
51	145.44093680381775	response	0	2		49.0	2.5	/experiments/knapen_aot/videos/S_yt-wqdTPz0bLrM_561.mp4	0.0	249.7472848892212	
51	145.4489688873291	movie	1		301.0	49.0	2.5	/experiments/knapen_aot/videos/S_yt-wqdTPz0bLrM_561.mp4	0.0	249.75531697273254	2.508291006088257
51	147.95725989341736	fix_post	2		12.0	49.0	2.5	/experiments/knapen_aot/videos/S_yt-wqdTPz0bLrM_561.mp4	0.0	252.2636079788208	0.10004901885986328
52	148.05730891227722	fix_pre	0		40.0	50.0	2.5	/experiments/knapen_aot/videos/R_S_yt-BQixB0mumIk_169.mp4	0.0	252.36365699768066	0.3342418670654297
52	148.38244199752808	response	0	2		50.0	2.5	/experiments/knapen_aot/videos/R_S_yt-BQixB0mumIk_169.mp4	0.0	252.68879008293152	
52	148.39155077934265	movie	1		301.0	50.0	2.5	/experiments/knapen_aot/videos/R_S_yt-BQixB0mumIk_169.mp4	0.0	252.6978988647461	2.5073680877685547
52	150.8989188671112	fix_post	2		12.0	50.0	2.5	/experiments/knapen_aot/videos/R_S_yt-BQixB0mumIk_169.mp4	0.0	255.20526695251465	0.09999513626098633
53	150.9989140033722	fix_pre	0		41.0	51.0	2.5	/experiments/knapen_aot/videos/S_wc-lItGMdwvEd_l_7.mp4	0.0	255.30526208877563	0.3416469097137451
53	151.33234882354736	response	0	2		51.0	2.5	/experiments/knapen_aot/videos/S_wc-lItGMdwvEd_l_7.mp4	0.0	255.6386969089508	
53	151.34056091308594	movie	1		167.0	51.0	2.5	/experiments/knapen_aot/videos/S_wc-lItGMdwvEd_l_7.mp4	0.0	255.64690899848938	2.508347988128662
53	153.8489089012146	fix_post	2		12.0	51.0	2.5	/experiments/knapen_aot/videos/S_wc-lItGMdwvEd_l_7.mp4	0.0	258.15525698661804	0.10000395774841309
54	153.948912858963	fix_pre	0		27.0	52.0	2.5	/experiments/knapen_aot/videos/R_S_pexels-kelly-lacy-6756531.mp4	0.0	258.25526094436646	0.22494912147521973
54	154.1657748222351	response	0	2		52.0	2.5	/experiments/knapen_aot/videos/R_S_pexels-kelly-lacy-6756531.mp4	0.0	258.47212290763855	
54	154.17386198043823	movie	1		164.0	52.0	2.5	/experiments/knapen_aot/videos/R_S_pexels-kelly-lacy-6756531.mp4	0.0	258.4802100658417	2.5083208084106445
54	156.68218278884888	fix_post	2		12.0	52.0	2.5	/experiments/knapen_aot/videos/R_S_pexels-kelly-lacy-6756531.mp4	0.0	260.9885308742523	0.10001206398010254
55	156.78219485282898	fix_pre	0		10.0	53.0	2.5	/experiments/knapen_aot/videos/S_yt-y2RUPYKfBZs_12.mp4	0.0	261.0885429382324	0.08352303504943848
55	156.85764598846436	response	0	2		53.0	2.5	/experiments/knapen_aot/videos/S_yt-y2RUPYKfBZs_12.mp4	0.0	261.1639940738678	
55	156.86571788787842	movie	1		301.0	53.0	2.5	/experiments/knapen_aot/videos/S_yt-y2RUPYKfBZs_12.mp4	0.0	261.17206597328186	2.5081379413604736
55	159.3738558292389	fix_post	2		12.0	53.0	2.5	/experiments/knapen_aot/videos/S_yt-y2RUPYKfBZs_12.mp4	0.0	263.68020391464233	0.10000801086425781
56	159.47386384010315	fix_pre	0		45.0	54.0	2.5	blank	1.0	263.7802119255066	0.375870943069458
56	159.84072089195251	response	0	2		54.0	2.5	blank	1.0	264.14706897735596	
56	159.8497347831726	movie	1		301.0	54.0	2.5	blank	1.0	264.15608286857605	2.5073821544647217
56	162.35711693763733	fix_post	2		12.0	54.0	2.5	blank	1.0	266.66346502304077	0.10003900527954102
57	162.45715594291687	fix_pre	0		40.0	55.0	2.5	/experiments/knapen_aot/videos/R_S_ILSVRC2015_train_00479004.mp4	0.0	266.7635040283203	0.3333909511566162
57	162.78233194351196	response	0	2		55.0	2.5	/experiments/knapen_aot/videos/R_S_ILSVRC2015_train_00479004.mp4	0.0	267.0886800289154	
57	162.7905468940735	movie	1		301.0	55.0	2.5	/experiments/knapen_aot/videos/R_S_ILSVRC2015_train_00479004.mp4	0.0	267.09689497947693	2.508341073989868
57	165.29888796806335	fix_post	2		12.0	55.0	2.5	/experiments/knapen_aot/videos/R_S_ILSVRC2015_train_00479004.mp4	0.0	269.6052360534668	0.09992694854736328
58	165.39881491661072	fix_pre	0		36.0	56.0	2.5	/experiments/knapen_aot/videos/S_yt-Fm97IY0Z2LU_79.mp4	0.0	269.70516300201416	0.3000190258026123
58	165.6906099319458	response	0	2		56.0	2.5	/experiments/knapen_aot/videos/S_yt-Fm97IY0Z2LU_79.mp4	0.0	269.99695801734924	
58	165.69883394241333	movie	1		301.0	56.0	2.5	/experiments/knapen_aot/videos/S_yt-Fm97IY0Z2LU_79.mp4	0.0	270.0051820278168	2.508370876312256
58	168.2072048187256	fix_post	2		12.0	56.0	2.5	/experiments/knapen_aot/videos/S_yt-Fm97IY0Z2LU_79.mp4	0.0	272.513552904129	0.0999150276184082
59	168.307119846344	fix_pre	0		25.0	57.0	2.5	/experiments/knapen_aot/videos/S_yt_R-lST38EdfMMQ_5.mp4	0.0	272.61346793174744	0.2092740535736084
59	168.5072979927063	response	0	2		57.0	2.5	/experiments/knapen_aot/videos/S_yt_R-lST38EdfMMQ_5.mp4	0.0	272.81364607810974	
59	168.5163938999176	movie	1		300.0	57.0	2.5	/experiments/knapen_aot/videos/S_yt_R-lST38EdfMMQ_5.mp4	0.0	272.82274198532104	2.5074000358581543
59	171.02379393577576	fix_post	2		12.0	57.0	2.5	/experiments/knapen_aot/videos/S_yt_R-lST38EdfMMQ_5.mp4	0.0	275.3301420211792	0.10001206398010254
60	171.12380599975586	fix_pre	0		24.0	58.0	2.5	/experiments/knapen_aot/videos/S_comp_GMT329_113NC_396B_1105_ITALY_v03_SDR_FINAL_20180706_SDR_2K_AVC.mp4	0.0	275.4301540851593	0.19998788833618164
60	171.31564688682556	response	0	2		58.0	2.5	/experiments/knapen_aot/videos/S_comp_GMT329_113NC_396B_1105_ITALY_v03_SDR_FINAL_20180706_SDR_2K_AVC.mp4	0.0	275.621994972229	
60	171.32379388809204	movie	1		164.0	58.0	2.5	/experiments/knapen_aot/videos/S_comp_GMT329_113NC_396B_1105_ITALY_v03_SDR_FINAL_20180706_SDR_2K_AVC.mp4	0.0	275.6301419734955	2.5084240436553955
60	173.83221793174744	fix_post	2		12.0	58.0	2.5	/experiments/knapen_aot/videos/S_comp_GMT329_113NC_396B_1105_ITALY_v03_SDR_FINAL_20180706_SDR_2K_AVC.mp4	0.0	278.1385660171509	0.10007905960083008
61	173.93229699134827	fix_pre	0		45.0	59.0	2.5	/experiments/knapen_aot/videos/R_S_yt--UhwpukdyBg_51.mp4	0.0	278.2386450767517	0.3757059574127197
61	174.2990529537201	response	0	2		59.0	2.5	/experiments/knapen_aot/videos/R_S_yt--UhwpukdyBg_51.mp4	0.0	278.60540103912354	
61	174.308002948761	movie	1		301.0	59.0	2.5	/experiments/knapen_aot/videos/R_S_yt--UhwpukdyBg_51.mp4	0.0	278.61435103416443	2.5074939727783203
61	176.8154969215393	fix_post	2		12.0	59.0	2.5	/experiments/knapen_aot/videos/R_S_yt--UhwpukdyBg_51.mp4	0.0	281.12184500694275	0.10003304481506348
62	176.91552996635437	fix_pre	0		28.0	60.0	2.5	/experiments/knapen_aot/videos/S_yt-1sn8u-rQRas_7.mp4	0.0	281.2218780517578	0.23330283164978027
62	177.1406819820404	response	0	2		60.0	2.5	/experiments/knapen_aot/videos/S_yt-1sn8u-rQRas_7.mp4	0.0	281.44703006744385	
62	177.14883279800415	movie	1		301.0	60.0	2.5	/experiments/knapen_aot/videos/S_yt-1sn8u-rQRas_7.mp4	0.0	281.4551808834076	2.5083601474761963
62	179.65719294548035	fix_post	2		12.0	60.0	2.5	/experiments/knapen_aot/videos/S_yt-1sn8u-rQRas_7.mp4	0.0	283.9635410308838	0.0999908447265625
63	179.7571837902069	fix_pre	0		28.0	61.0	2.5	/experiments/knapen_aot/videos/R_S_ILSVRC2015_train_00708000.mp4	0.0	284.06353187561035	0.23329401016235352
63	179.98229694366455	response	0	2		61.0	2.5	/experiments/knapen_aot/videos/R_S_ILSVRC2015_train_00708000.mp4	0.0	284.288645029068	
63	179.99047780036926	movie	1		301.0	61.0	2.5	/experiments/knapen_aot/videos/R_S_ILSVRC2015_train_00708000.mp4	0.0	284.2968258857727	2.5084121227264404
63	182.4988899230957	fix_post	2		12.0	61.0	2.5	/experiments/knapen_aot/videos/R_S_ILSVRC2015_train_00708000.mp4	0.0	286.80523800849915	0.099884033203125
64	182.59877395629883	fix_pre	0		26.0	62.0	2.5	blank	1.0	286.90512204170227	0.21675801277160645
64	182.80732679367065	response	0	2		62.0	2.5	blank	1.0	287.1136748790741	
64	182.81553196907043	movie	1		301.0	62.0	2.5	blank	1.0	287.1218800544739	2.5082359313964844
64	185.32376790046692	fix_post	2		12.0	62.0	2.5	blank	1.0	289.63011598587036	0.10002708435058594
65	185.4237949848175	fix_pre	0		42.0	63.0	2.5	/experiments/knapen_aot/videos/R_S_yt-Y7-umyL036c_507.mp4	0.0	289.73014307022095	0.34998488426208496
65	185.7581729888916	response	0	2		63.0	2.5	/experiments/knapen_aot/videos/R_S_yt-Y7-umyL036c_507.mp4	0.0	290.06452107429504	
65	185.7737798690796	movie	1		301.0	63.0	2.5	/experiments/knapen_aot/videos/R_S_yt-Y7-umyL036c_507.mp4	0.0	290.08012795448303	2.5083909034729004
65	188.2821707725525	fix_post	2		12.0	63.0	2.5	/experiments/knapen_aot/videos/R_S_yt-Y7-umyL036c_507.mp4	0.0	292.58851885795593	0.10000205039978027
66	188.38217282295227	fix_pre	0		28.0	64.0	2.5	/experiments/knapen_aot/videos/R_S_yt-wnQFgNEnHUI_109.mp4	0.0	292.6885209083557	0.23328208923339844
66	188.6072039604187	response	0	2		64.0	2.5	/experiments/knapen_aot/videos/R_S_yt-wnQFgNEnHUI_109.mp4	0.0	292.91355204582214	
66	188.61545491218567	movie	1		301.0	64.0	2.5	/experiments/knapen_aot/videos/R_S_yt-wnQFgNEnHUI_109.mp4	0.0	292.9218029975891	2.5083038806915283
66	191.1237587928772	fix_post	2		12.0	64.0	2.5	/experiments/knapen_aot/videos/R_S_yt-wnQFgNEnHUI_109.mp4	0.0	295.43010687828064	0.10080099105834961
67	191.22455978393555	fix_pre	0		44.0	65.0	2.5	/experiments/knapen_aot/videos/S_ILnEDG_aP1A_35.mp4	0.0	295.530907869339	0.3658452033996582
67	191.58219695091248	response	0	2		65.0	2.5	/experiments/knapen_aot/videos/S_ILnEDG_aP1A_35.mp4	0.0	295.8885450363159	
67	191.5904049873352	movie	1		301.0	65.0	2.5	/experiments/knapen_aot/videos/S_ILnEDG_aP1A_35.mp4	0.0	295.89675307273865	2.5083258152008057
67	194.098730802536	fix_post	2		12.0	65.0	2.5	/experiments/knapen_aot/videos/S_ILnEDG_aP1A_35.mp4	0.0	298.40507888793945	0.10004615783691406
68	194.19877696037292	fix_pre	0		45.0	66.0	2.5	/experiments/knapen_aot/videos/R_S_production_ID_5102663.mp4	0.0	298.50512504577637	0.37494897842407227
68	194.56551384925842	response	0	2		66.0	2.5	/experiments/knapen_aot/videos/R_S_production_ID_5102663.mp4	0.0	298.87186193466187	
68	194.573725938797	movie	1		203.0	66.0	2.5	/experiments/knapen_aot/videos/R_S_production_ID_5102663.mp4	0.0	298.88007402420044	2.508380889892578
68	197.08210682868958	fix_post	2		12.0	66.0	2.5	/experiments/knapen_aot/videos/R_S_production_ID_5102663.mp4	0.0	301.388454914093	0.10001015663146973
69	197.18211698532104	fix_pre	0		33.0	67.0	2.5	/experiments/knapen_aot/videos/S_yt-mL3MuCfKtdY_79.mp4	0.0	301.4884650707245	0.27495479583740234
69	197.4489209651947	response	0	2		67.0	2.5	/experiments/knapen_aot/videos/S_yt-mL3MuCfKtdY_79.mp4	0.0	301.75526905059814	
69	197.45707178115845	movie	1		301.0	67.0	2.5	/experiments/knapen_aot/videos/S_yt-mL3MuCfKtdY_79.mp4	0.0	301.7634198665619	2.508273124694824
69	199.96534490585327	fix_post	2		12.0	67.0	2.5	/experiments/knapen_aot/videos/S_yt-mL3MuCfKtdY_79.mp4	0.0	304.2716929912567	0.09999704360961914
70	200.0653419494629	fix_pre	0		23.0	68.0	2.5	blank	1.0	304.37169003486633	0.19172883033752441
70	200.24883389472961	response	0	2		68.0	2.5	blank	1.0	304.55518198013306	
70	200.25707077980042	movie	1		301.0	68.0	2.5	blank	1.0	304.56341886520386	2.5082900524139404
70	202.76536083221436	fix_post	2		12.0	68.0	2.5	blank	1.0	307.0717089176178	0.09997415542602539
71	202.86533498764038	fix_pre	0		63.0	69.0	2.5	/experiments/knapen_aot/videos/S_yt-pbFpqAQJCJo_149.mp4	0.0	307.1716830730438	0.5257430076599121
71	203.38219094276428	response	0	2		69.0	2.5	/experiments/knapen_aot/videos/S_yt-pbFpqAQJCJo_149.mp4	0.0	307.6885390281677	
71	203.3910779953003	movie	1		301.0	69.0	2.5	/experiments/knapen_aot/videos/S_yt-pbFpqAQJCJo_149.mp4	0.0	307.69742608070374	2.5076279640197754
71	205.89870595932007	fix_post	2		12.0	69.0	2.5	/experiments/knapen_aot/videos/S_yt-pbFpqAQJCJo_149.mp4	0.0	310.2050540447235	0.0999460220336914
72	205.99865198135376	fix_pre	0		83.0	70.0	2.5	/experiments/knapen_aot/videos/R_S_Pz_NXxhQCJc_70.mp4	0.0	310.3050000667572	0.7000489234924316
72	206.6905210018158	response	0	2		70.0	2.5	/experiments/knapen_aot/videos/R_S_Pz_NXxhQCJc_70.mp4	0.0	310.99686908721924	
72	206.6987009048462	movie	1		301.0	70.0	2.5	/experiments/knapen_aot/videos/R_S_Pz_NXxhQCJc_70.mp4	0.0	311.00504899024963	2.5082600116729736
72	209.20696091651917	fix_post	2		12.0	70.0	2.5	/experiments/knapen_aot/videos/R_S_Pz_NXxhQCJc_70.mp4	0.0	313.5133090019226	0.10067105293273926
73	209.3076319694519	fix_pre	0		76.0	71.0	2.5	/experiments/knapen_aot/videos/R_S_yt-SHTeTAnZgho_43.mp4	0.0	313.61398005485535	0.6326780319213867
73	209.93208479881287	response	0	2		71.0	2.5	/experiments/knapen_aot/videos/R_S_yt-SHTeTAnZgho_43.mp4	0.0	314.2384328842163	
73	209.9403100013733	movie	1		300.0	71.0	2.5	/experiments/knapen_aot/videos/R_S_yt-SHTeTAnZgho_43.mp4	0.0	314.24665808677673	2.508384943008423
73	212.4486949443817	fix_post	2		12.0	71.0	2.5	/experiments/knapen_aot/videos/R_S_yt-SHTeTAnZgho_43.mp4	0.0	316.75504302978516	0.09997296333312988
74	212.54866790771484	fix_pre	0		42.0	72.0	2.5	/experiments/knapen_aot/videos/S_Pexels_Videos_2791797.mp4	0.0	316.8550159931183	0.34996891021728516
74	212.89046478271484	response	0	2		72.0	2.5	/experiments/knapen_aot/videos/S_Pexels_Videos_2791797.mp4	0.0	317.1968128681183	
74	212.89863681793213	movie	1		166.0	72.0	2.5	/experiments/knapen_aot/videos/S_Pexels_Videos_2791797.mp4	0.0	317.20498490333557	2.508406162261963
74	215.4070429801941	fix_post	2		12.0	72.0	2.5	/experiments/knapen_aot/videos/S_Pexels_Videos_2791797.mp4	0.0	319.71339106559753	0.09999394416809082
75	215.50703692436218	fix_pre	0		30.0	73.0	2.5	/experiments/knapen_aot/videos/S_ILSVRC2015_train_00471000.mp4	0.0	319.8133850097656	0.24999499320983887
75	215.74883580207825	response	0	2		73.0	2.5	/experiments/knapen_aot/videos/S_ILSVRC2015_train_00471000.mp4	0.0	320.0551838874817	
75	215.75703191757202	movie	1		301.0	73.0	2.5	/experiments/knapen_aot/videos/S_ILSVRC2015_train_00471000.mp4	0.0	320.06338000297546	2.508241891860962
75	218.26527380943298	fix_post	2		12.0	73.0	2.5	/experiments/knapen_aot/videos/S_ILSVRC2015_train_00471000.mp4	0.0	322.5716218948364	0.10007309913635254
76	218.36534690856934	fix_pre	0		77.0	74.0	2.5	/experiments/knapen_aot/videos/R_S_pexels-mikhail-nilov-8410063_1.mp4	0.0	322.6716949939728	0.6416158676147461
76	218.9987349510193	response	0	2		74.0	2.5	/experiments/knapen_aot/videos/R_S_pexels-mikhail-nilov-8410063_1.mp4	0.0	323.30508303642273	
76	219.00696277618408	movie	1		168.0	74.0	2.5	/experiments/knapen_aot/videos/R_S_pexels-mikhail-nilov-8410063_1.mp4	0.0	323.3133108615875	2.5083141326904297
76	221.5152769088745	fix_post	2		12.0	74.0	2.5	/experiments/knapen_aot/videos/R_S_pexels-mikhail-nilov-8410063_1.mp4	0.0	325.82162499427795	0.10008406639099121
77	221.6153609752655	fix_pre	0		24.0	75.0	2.5	blank	1.0	325.92170906066895	0.19996285438537598
77	221.8071608543396	response	0	2		75.0	2.5	blank	1.0	326.11350893974304	
77	221.81532382965088	movie	1		301.0	75.0	2.5	blank	1.0	326.1216719150543	2.508362054824829
77	224.3236858844757	fix_post	2		12.0	75.0	2.5	blank	1.0	328.63003396987915	0.09996700286865234
78	224.42365288734436	fix_pre	0		39.0	76.0	2.5	/experiments/knapen_aot/videos/R_S_yt-7bSTxOajpjc_58.mp4	0.0	328.7300009727478	0.32502102851867676
78	224.7404408454895	response	0	2		76.0	2.5	/experiments/knapen_aot/videos/R_S_yt-7bSTxOajpjc_58.mp4	0.0	329.04678893089294	
78	224.74867391586304	movie	1		301.0	76.0	2.5	/experiments/knapen_aot/videos/R_S_yt-7bSTxOajpjc_58.mp4	0.0	329.0550220012665	2.508315086364746
78	227.25698900222778	fix_post	2		12.0	76.0	2.5	/experiments/knapen_aot/videos/R_S_yt-7bSTxOajpjc_58.mp4	0.0	331.5633370876312	0.09999990463256836
79	227.35698890686035	fix_pre	0		16.0	77.0	2.5	/experiments/knapen_aot/videos/S_pexels-anthony-shkraba-7569650.mp4	0.0	331.6633369922638	0.13332700729370117
79	227.48212790489197	response	0	2		77.0	2.5	/experiments/knapen_aot/videos/S_pexels-anthony-shkraba-7569650.mp4	0.0	331.7884759902954	
79	227.49031591415405	movie	1		178.0	77.0	2.5	/experiments/knapen_aot/videos/S_pexels-anthony-shkraba-7569650.mp4	0.0	331.7966639995575	2.508234977722168
79	229.99855089187622	fix_post	2		12.0	77.0	2.5	/experiments/knapen_aot/videos/S_pexels-anthony-shkraba-7569650.mp4	0.0	334.30489897727966	0.10055088996887207
80	230.0991017818451	fix_pre	0		23.0	78.0	2.5	/experiments/knapen_aot/videos/S_production_ID_5102663.mp4	0.0	334.40544986724854	0.19110321998596191
80	230.28209686279297	response	0	2		78.0	2.5	/experiments/knapen_aot/videos/S_production_ID_5102663.mp4	0.0	334.5884449481964	
80	230.29020500183105	movie	1		190.0	78.0	2.5	/experiments/knapen_aot/videos/S_production_ID_5102663.mp4	0.0	334.5965530872345	2.5083580017089844
80	232.79856300354004	fix_post	2		12.0	78.0	2.5	/experiments/knapen_aot/videos/S_production_ID_5102663.mp4	0.0	337.1049110889435	0.09996891021728516
81	232.89853191375732	fix_pre	0		9.0	79.0	2.5	/experiments/knapen_aot/videos/S_yt-Dwgpjoikt84_122.mp4	0.0	337.20487999916077	0.07552790641784668
81	232.96530890464783	response	0	2		79.0	2.5	/experiments/knapen_aot/videos/S_yt-Dwgpjoikt84_122.mp4	0.0	337.27165699005127	
81	232.97405982017517	movie	1		301.0	79.0	2.5	/experiments/knapen_aot/videos/S_yt-Dwgpjoikt84_122.mp4	0.0	337.2804079055786	2.507852077484131
81	235.4819118976593	fix_post	2		12.0	79.0	2.5	/experiments/knapen_aot/videos/S_yt-Dwgpjoikt84_122.mp4	0.0	339.78825998306274	0.10004401206970215
82	235.581955909729	fix_pre	0		34.0	80.0	2.5	/experiments/knapen_aot/videos/R_S_yt-lkpfs_4qAGE_50.mp4	0.0	339.88830399513245	0.28322696685791016
82	235.85699677467346	response	0	2		80.0	2.5	/experiments/knapen_aot/videos/R_S_yt-lkpfs_4qAGE_50.mp4	0.0	340.1633448600769	
82	235.8651828765869	movie	1		301.0	80.0	2.5	/experiments/knapen_aot/videos/R_S_yt-lkpfs_4qAGE_50.mp4	0.0	340.17153096199036	2.5083630084991455
82	238.37354588508606	fix_post	2		12.0	80.0	2.5	/experiments/knapen_aot/videos/R_S_yt-lkpfs_4qAGE_50.mp4	0.0	342.6798939704895	0.09994792938232422
83	238.47349381446838	fix_pre	0		17.0	81.0	2.5	/experiments/knapen_aot/videos/S_yt-8y7Xhp2_2e0_168.mp4	0.0	342.7798418998718	0.14168500900268555
83	238.60703897476196	response	0	2		81.0	2.5	/experiments/knapen_aot/videos/S_yt-8y7Xhp2_2e0_168.mp4	0.0	342.9133870601654	
83	238.61517882347107	movie	1		296.0	81.0	2.5	/experiments/knapen_aot/videos/S_yt-8y7Xhp2_2e0_168.mp4	0.0	342.9215269088745	2.508392095565796
83	241.12357091903687	fix_post	2		12.0	81.0	2.5	/experiments/knapen_aot/videos/S_yt-8y7Xhp2_2e0_168.mp4	0.0	345.4299190044403	0.09988093376159668
84	241.22345185279846	fix_pre	0		37.0	82.0	2.5	blank	1.0	345.5297999382019	0.3084239959716797
84	241.51609897613525	response	0	2		82.0	2.5	blank	1.0	345.8224470615387	
84	241.53187584877014	movie	1		301.0	82.0	2.5	blank	1.0	345.8382239341736	2.5083670616149902
84	244.04024291038513	fix_post	2		12.0	82.0	2.5	blank	1.0	348.3465909957886	0.10001707077026367
85	244.1402599811554	fix_pre	0		33.0	83.0	2.5	/experiments/knapen_aot/videos/R_S_pexels-mikhail-nilov-8410088.mp4	0.0	348.44660806655884	0.27496790885925293
85	244.40701389312744	response	0	2		83.0	2.5	/experiments/knapen_aot/videos/R_S_pexels-mikhail-nilov-8410088.mp4	0.0	348.7133619785309	
85	244.41522789001465	movie	1		164.0	83.0	2.5	/experiments/knapen_aot/videos/R_S_pexels-mikhail-nilov-8410088.mp4	0.0	348.7215759754181	2.508327007293701
85	246.92355489730835	fix_post	2		12.0	83.0	2.5	/experiments/knapen_aot/videos/R_S_pexels-mikhail-nilov-8410088.mp4	0.0	351.2299029827118	0.10001707077026367
87	247.0235719680786	stim	0		69.0					351.32992005348206	0.5754430294036865
87	247.26537585258484	response	0	2						351.5717239379883	
87	247.59366989135742	response	0	space						351.90001797676086	
