trial_nr	onset	event_type	phase	response	nr_frames	movie_index	movie_duration	movie_file	blank	onset_abs	duration
0	0.1311941146850586	stim	0		56.0					68.09965801239014	0.4665188789367676
0	0.5894620418548584	response	0	space						68.55792593955994	
1	0.5977129936218262	stim	0		121.0					68.5661768913269	1.0082321166992188
1	1.605945110321045	stim	1		120.0					69.57440900802612	0.9996500015258789
1	1.9891009330749512	response	1	space						69.95756483078003	
1	2.547373056411743	response	1	space						70.51583695411682	
2	2.605595111846924	fix_pre	0		62.0	0.0	2.5	/experiments/knapen_aot/videos/R_S_ILSVRC2015_train_00423000.mp4	0.0	70.574059009552	0.516624927520752
2	3.1140620708465576	response	0	space		0.0	2.5	/experiments/knapen_aot/videos/R_S_ILSVRC2015_train_00423000.mp4	0.0	71.08252596855164	
2	3.122220039367676	movie	1		301.0	0.0	2.5	/experiments/knapen_aot/videos/R_S_ILSVRC2015_train_00423000.mp4	0.0	71.09068393707275	2.5083959102630615
2	5.630615949630737	fix_post	2		12.0	0.0	2.5	/experiments/knapen_aot/videos/R_S_ILSVRC2015_train_00423000.mp4	0.0	73.59907984733582	0.09996914863586426
3	5.730585098266602	fix_pre	0		53.0	1.0	2.5	/experiments/knapen_aot/videos/R_S_yt-5rC42egLl5E_387.mp4	0.0	73.69904899597168	0.44258594512939453
3	6.168198108673096	response	0	2		1.0	2.5	/experiments/knapen_aot/videos/R_S_yt-5rC42egLl5E_387.mp4	0.0	74.13666200637817	
3	6.173171043395996	movie	1		296.0	1.0	2.5	/experiments/knapen_aot/videos/R_S_yt-5rC42egLl5E_387.mp4	0.0	74.14163494110107	2.5073659420013428
3	8.680536985397339	fix_post	2		12.0	1.0	2.5	/experiments/knapen_aot/videos/R_S_yt-5rC42egLl5E_387.mp4	0.0	76.64900088310242	0.10005998611450195
4	8.78059697151184	fix_pre	0		8.0	2.0	2.5	/experiments/knapen_aot/videos/R_S_yt-rZA9zXR-A6s_426.mp4	0.0	76.74906086921692	0.06654214859008789
4	8.83910608291626	response	0	4		2.0	2.5	/experiments/knapen_aot/videos/R_S_yt-rZA9zXR-A6s_426.mp4	0.0	76.80756998062134	
4	8.847139120101929	movie	1		301.0	2.0	2.5	/experiments/knapen_aot/videos/R_S_yt-rZA9zXR-A6s_426.mp4	0.0	76.815603017807	2.508445978164673
4	11.355585098266602	fix_post	2		12.0	2.0	2.5	/experiments/knapen_aot/videos/R_S_yt-rZA9zXR-A6s_426.mp4	0.0	79.32404899597168	0.10003280639648438
5	11.455617904663086	fix_pre	0		8.0	3.0	2.5	/experiments/knapen_aot/videos/R_S_ILSVRC2015_train_00756000.mp4	0.0	79.42408180236816	0.06661200523376465
5	11.51402497291565	response	0	2		3.0	2.5	/experiments/knapen_aot/videos/R_S_ILSVRC2015_train_00756000.mp4	0.0	79.48248887062073	
5	11.52222990989685	movie	1		301.0	3.0	2.5	/experiments/knapen_aot/videos/R_S_ILSVRC2015_train_00756000.mp4	0.0	79.49069380760193	2.5083041191101074
5	14.030534029006958	fix_post	2		12.0	3.0	2.5	/experiments/knapen_aot/videos/R_S_ILSVRC2015_train_00756000.mp4	0.0	81.99899792671204	0.10007596015930176
6	14.13060998916626	fix_pre	0		8.0	4.0	2.5	/experiments/knapen_aot/videos/S_yt-bhiGMKSAz2g_370.mp4	0.0	82.09907388687134	0.06663894653320312
6	14.189065933227539	response	0	4		4.0	2.5	/experiments/knapen_aot/videos/S_yt-bhiGMKSAz2g_370.mp4	0.0	82.15752983093262	
6	14.197248935699463	movie	1		301.0	4.0	2.5	/experiments/knapen_aot/videos/S_yt-bhiGMKSAz2g_370.mp4	0.0	82.16571283340454	2.508272171020508
6	16.70552110671997	fix_post	2		12.0	4.0	2.5	/experiments/knapen_aot/videos/S_yt-bhiGMKSAz2g_370.mp4	0.0	84.67398500442505	0.09997296333312988
7	16.8054940700531	fix_pre	0		8.0	5.0	2.5	blank	1.0	84.77395796775818	0.06671285629272461
7	16.863987922668457	response	0	2		5.0	2.5	blank	1.0	84.83245182037354	
7	16.872206926345825	movie	1		301.0	5.0	2.5	blank	1.0	84.8406708240509	2.5083441734313965
7	19.32224202156067	response	1	2		5.0	2.5	blank	1.0	87.29070591926575	
7	19.38055109977722	fix_post	2		12.0	5.0	2.5	blank	1.0	87.3490149974823	0.09998798370361328
8	19.480539083480835	fix_pre	0		25.0	6.0	2.5	/experiments/knapen_aot/videos/S_yt-KpOAdMtPGFs_17.mp4	0.0	87.44900298118591	0.20832490921020508
8	19.680620908737183	response	0	2		6.0	2.5	/experiments/knapen_aot/videos/S_yt-KpOAdMtPGFs_17.mp4	0.0	87.64908480644226	
8	19.68886399269104	movie	1		301.0	6.0	2.5	/experiments/knapen_aot/videos/S_yt-KpOAdMtPGFs_17.mp4	0.0	87.65732789039612	2.508273124694824
8	22.197137117385864	fix_post	2		12.0	6.0	2.5	/experiments/knapen_aot/videos/S_yt-KpOAdMtPGFs_17.mp4	0.0	90.16560101509094	0.10006284713745117
9	22.297199964523315	fix_pre	0		12.0	7.0	2.5	/experiments/knapen_aot/videos/S_yt-CH4HfNRC1hY_40.mp4	0.0	90.2656638622284	0.09987807273864746
9	22.38158893585205	response	0	2		7.0	2.5	/experiments/knapen_aot/videos/S_yt-CH4HfNRC1hY_40.mp4	0.0	90.35005283355713	
9	22.397078037261963	movie	1		300.0	7.0	2.5	/experiments/knapen_aot/videos/S_yt-CH4HfNRC1hY_40.mp4	0.0	90.36554193496704	2.5084218978881836
9	24.905499935150146	fix_post	2		12.0	7.0	2.5	/experiments/knapen_aot/videos/S_yt-CH4HfNRC1hY_40.mp4	0.0	92.87396383285522	0.09997797012329102
10	25.005477905273438	fix_pre	0		9.0	8.0	2.5	/experiments/knapen_aot/videos/S_yt-khmJAQuCRRE_119.mp4	0.0	92.97394180297852	0.07503509521484375
10	25.07225012779236	response	0	2		8.0	2.5	/experiments/knapen_aot/videos/S_yt-khmJAQuCRRE_119.mp4	0.0	93.04071402549744	
10	25.08051300048828	movie	1		301.0	8.0	2.5	/experiments/knapen_aot/videos/S_yt-khmJAQuCRRE_119.mp4	0.0	93.04897689819336	2.5082650184631348
10	27.588778018951416	fix_post	2		12.0	8.0	2.5	/experiments/knapen_aot/videos/S_yt-khmJAQuCRRE_119.mp4	0.0	95.5572419166565	0.1000509262084961
11	27.688828945159912	fix_pre	0		15.0	9.0	2.5	/experiments/knapen_aot/videos/R_S_ahJft-G235A_122.mp4	0.0	95.65729284286499	0.12496304512023926
11	27.80561900138855	response	0	2		9.0	2.5	/experiments/knapen_aot/videos/R_S_ahJft-G235A_122.mp4	0.0	95.77408289909363	
11	27.81379199028015	movie	1		301.0	9.0	2.5	/experiments/knapen_aot/videos/R_S_ahJft-G235A_122.mp4	0.0	95.78225588798523	2.5083680152893066
11	30.322160005569458	fix_post	2		12.0	9.0	2.5	/experiments/knapen_aot/videos/R_S_ahJft-G235A_122.mp4	0.0	98.29062390327454	0.0999910831451416
12	30.4221510887146	fix_pre	0		13.0	10.0	2.5	/experiments/knapen_aot/videos/S_yt-NLfzvAJgyJ4_120.mp4	0.0	98.39061498641968	0.10828495025634766
12	30.522252082824707	response	0	2		10.0	2.5	/experiments/knapen_aot/videos/S_yt-NLfzvAJgyJ4_120.mp4	0.0	98.49071598052979	
12	30.530436038970947	movie	1		299.0	10.0	2.5	/experiments/knapen_aot/videos/S_yt-NLfzvAJgyJ4_120.mp4	0.0	98.49889993667603	2.5083000659942627
12	33.03873610496521	fix_post	2		12.0	10.0	2.5	/experiments/knapen_aot/videos/S_yt-NLfzvAJgyJ4_120.mp4	0.0	101.00720000267029	0.10003089904785156
13	33.13876700401306	fix_pre	0		22.0	11.0	2.5	/experiments/knapen_aot/videos/S_yt-NqyG4Ar2JWo_10.mp4	0.0	101.10723090171814	0.18338608741760254
13	33.31394910812378	response	0	2		11.0	2.5	/experiments/knapen_aot/videos/S_yt-NqyG4Ar2JWo_10.mp4	0.0	101.28241300582886	
13	33.322153091430664	movie	1		301.0	11.0	2.5	/experiments/knapen_aot/videos/S_yt-NqyG4Ar2JWo_10.mp4	0.0	101.29061698913574	2.508335828781128
13	35.83048892021179	fix_post	2		12.0	11.0	2.5	/experiments/knapen_aot/videos/S_yt-NqyG4Ar2JWo_10.mp4	0.0	103.79895281791687	0.09999608993530273
14	35.930485010147095	fix_pre	0		15.0	12.0	2.5	/experiments/knapen_aot/videos/R_S_BO_A012_C031_SDR_20190726_SDR_2K_AVC.mp4	0.0	103.89894890785217	0.12504005432128906
14	36.04727005958557	response	0	2		12.0	2.5	/experiments/knapen_aot/videos/R_S_BO_A012_C031_SDR_20190726_SDR_2K_AVC.mp4	0.0	104.01573395729065	
14	36.055525064468384	movie	1		161.0	12.0	2.5	/experiments/knapen_aot/videos/R_S_BO_A012_C031_SDR_20190726_SDR_2K_AVC.mp4	0.0	104.02398896217346	2.508254051208496
14	38.56377911567688	fix_post	2		12.0	12.0	2.5	/experiments/knapen_aot/videos/R_S_BO_A012_C031_SDR_20190726_SDR_2K_AVC.mp4	0.0	106.53224301338196	0.1000359058380127
15	38.66381502151489	fix_pre	0		27.0	13.0	2.5	blank	1.0	106.63227891921997	0.22493791580200195
15	38.880635023117065	response	0	2		13.0	2.5	blank	1.0	106.84909892082214	
15	38.888752937316895	movie	1		301.0	13.0	2.5	blank	1.0	106.85721683502197	2.5082790851593018
15	41.397032022476196	fix_post	2		12.0	13.0	2.5	blank	1.0	109.36549592018127	0.10007905960083008
16	41.497111082077026	fix_pre	0		85.0	14.0	2.5	/experiments/knapen_aot/videos/R_S_yt--UhwpukdyBg_51.mp4	0.0	109.4655749797821	0.708331823348999
16	42.189805030822754	response	0	2		14.0	2.5	/experiments/knapen_aot/videos/R_S_yt--UhwpukdyBg_51.mp4	0.0	110.15826892852783	
16	42.205442905426025	movie	1		301.0	14.0	2.5	/experiments/knapen_aot/videos/R_S_yt--UhwpukdyBg_51.mp4	0.0	110.1739068031311	2.508334159851074
16	44.7137770652771	fix_post	2		12.0	14.0	2.5	/experiments/knapen_aot/videos/R_S_yt--UhwpukdyBg_51.mp4	0.0	112.68224096298218	0.09999990463256836
17	44.81377696990967	fix_pre	0		14.0	15.0	2.5	/experiments/knapen_aot/videos/S_b5-3.mp4	0.0	112.78224086761475	0.11660599708557129
17	44.922197103500366	response	0	2		15.0	2.5	/experiments/knapen_aot/videos/S_b5-3.mp4	0.0	112.89066100120544	
17	44.93038296699524	movie	1		166.0	15.0	2.5	/experiments/knapen_aot/videos/S_b5-3.mp4	0.0	112.89884686470032	2.508406162261963
17	47.4387891292572	fix_post	2		12.0	15.0	2.5	/experiments/knapen_aot/videos/S_b5-3.mp4	0.0	115.40725302696228	0.09999680519104004
18	47.53878593444824	fix_pre	0		6.0	16.0	2.5	/experiments/knapen_aot/videos/S_yt-AOP7QYQntPI_28.mp4	0.0	115.50724983215332	0.050672054290771484
18	47.58064913749695	response	0	2		16.0	2.5	/experiments/knapen_aot/videos/S_yt-AOP7QYQntPI_28.mp4	0.0	115.54911303520203	
18	47.589457988739014	movie	1		301.0	16.0	2.5	/experiments/knapen_aot/videos/S_yt-AOP7QYQntPI_28.mp4	0.0	115.55792188644409	2.507611036300659
18	50.09706902503967	fix_post	2		12.0	16.0	2.5	/experiments/knapen_aot/videos/S_yt-AOP7QYQntPI_28.mp4	0.0	118.06553292274475	0.10001206398010254
19	50.197081089019775	fix_pre	0		10.0	17.0	2.5	/experiments/knapen_aot/videos/S_ILSVRC2015_train_00384000.mp4	0.0	118.16554498672485	0.08329892158508301
19	50.27232098579407	response	0	2		17.0	2.5	/experiments/knapen_aot/videos/S_ILSVRC2015_train_00384000.mp4	0.0	118.24078488349915	
19	50.28038001060486	movie	1		301.0	17.0	2.5	/experiments/knapen_aot/videos/S_ILSVRC2015_train_00384000.mp4	0.0	118.24884390830994	2.5083820819854736
19	52.78876209259033	fix_post	2		12.0	17.0	2.5	/experiments/knapen_aot/videos/S_ILSVRC2015_train_00384000.mp4	0.0	120.75722599029541	0.09998393058776855
20	52.8887460231781	fix_pre	0		26.0	18.0	2.5	/experiments/knapen_aot/videos/S_yt-CH4HfNRC1hY_40.mp4	0.0	120.85720992088318	0.2166459560394287
20	53.09721493721008	response	0	2		18.0	2.5	/experiments/knapen_aot/videos/S_yt-CH4HfNRC1hY_40.mp4	0.0	121.06567883491516	
20	53.10539197921753	movie	1		301.0	18.0	2.5	/experiments/knapen_aot/videos/S_yt-CH4HfNRC1hY_40.mp4	0.0	121.07385587692261	2.5083630084991455
20	55.613754987716675	fix_post	2		12.0	18.0	2.5	/experiments/knapen_aot/videos/S_yt-CH4HfNRC1hY_40.mp4	0.0	123.58221888542175	0.09996294975280762
21	55.71371793746948	fix_pre	0		23.0	19.0	2.5	/experiments/knapen_aot/videos/R_S_ILSVRC2015_train_00465000.mp4	0.0	123.68218183517456	0.19166207313537598
21	55.897231101989746	response	0	2		19.0	2.5	/experiments/knapen_aot/videos/R_S_ILSVRC2015_train_00465000.mp4	0.0	123.86569499969482	
21	55.90538001060486	movie	1		301.0	19.0	2.5	/experiments/knapen_aot/videos/R_S_ILSVRC2015_train_00465000.mp4	0.0	123.87384390830994	2.5083000659942627
21	58.41368007659912	fix_post	2		12.0	19.0	2.5	/experiments/knapen_aot/videos/R_S_ILSVRC2015_train_00465000.mp4	0.0	126.3821439743042	0.10003185272216797
22	58.51371192932129	fix_pre	0		14.0	20.0	2.5	blank	1.0	126.48217582702637	0.11726117134094238
22	58.622162103652954	response	0	2		20.0	2.5	blank	1.0	126.59062600135803	
22	58.63097310066223	movie	1		301.0	20.0	2.5	blank	1.0	126.59943699836731	2.507664918899536
22	61.13863801956177	fix_post	2		12.0	20.0	2.5	blank	1.0	129.10710191726685	0.1000359058380127
23	61.23867392539978	fix_pre	0		17.0	21.0	2.5	/experiments/knapen_aot/videos/S_pexels-mikhail-nilov-8410084.mp4	0.0	129.20713782310486	0.14231514930725098
23	61.37222409248352	response	0	2		21.0	2.5	/experiments/knapen_aot/videos/S_pexels-mikhail-nilov-8410084.mp4	0.0	129.3406879901886	
23	61.38098907470703	movie	1		163.0	21.0	2.5	/experiments/knapen_aot/videos/S_pexels-mikhail-nilov-8410084.mp4	0.0	129.3494529724121	2.5076138973236084
23	63.88860297203064	fix_post	2		12.0	21.0	2.5	/experiments/knapen_aot/videos/S_pexels-mikhail-nilov-8410084.mp4	0.0	131.85706686973572	0.10004615783691406
24	63.988649129867554	fix_pre	0		6.0	22.0	2.5	/experiments/knapen_aot/videos/R_S_yt-rZA9zXR-A6s_426.mp4	0.0	131.95711302757263	0.05228900909423828
24	64.0306749343872	response	0	2		22.0	2.5	/experiments/knapen_aot/videos/R_S_yt-rZA9zXR-A6s_426.mp4	0.0	131.99913883209229	
24	64.04093813896179	movie	1		301.0	22.0	2.5	/experiments/knapen_aot/videos/R_S_yt-rZA9zXR-A6s_426.mp4	0.0	132.00940203666687	2.5061118602752686
24	66.54704999923706	fix_post	2		12.0	22.0	2.5	/experiments/knapen_aot/videos/R_S_yt-rZA9zXR-A6s_426.mp4	0.0	134.51551389694214	0.10002303123474121
24	66.62213492393494	response	2	2		22.0	2.5	/experiments/knapen_aot/videos/R_S_yt-rZA9zXR-A6s_426.mp4	0.0	134.59059882164001	
25	66.6470730304718	fix_pre	0		54.0	23.0	2.5	/experiments/knapen_aot/videos/R_S_ILSVRC2015_train_00595000.mp4	0.0	134.61553692817688	0.4498720169067383
25	67.08873105049133	response	0	2		23.0	2.5	/experiments/knapen_aot/videos/R_S_ILSVRC2015_train_00595000.mp4	0.0	135.0571949481964	
25	67.09694504737854	movie	1		301.0	23.0	2.5	/experiments/knapen_aot/videos/R_S_ILSVRC2015_train_00595000.mp4	0.0	135.06540894508362	2.5083658695220947
25	69.60531091690063	fix_post	2		12.0	23.0	2.5	/experiments/knapen_aot/videos/R_S_ILSVRC2015_train_00595000.mp4	0.0	137.5737748146057	0.09999799728393555
26	69.70530891418457	fix_pre	0		22.0	24.0	2.5	/experiments/knapen_aot/videos/R_S_yt-c5_SFS4aaJI_1102.mp4	0.0	137.67377281188965	0.18334221839904785
26	69.88046097755432	response	0	2		24.0	2.5	/experiments/knapen_aot/videos/R_S_yt-c5_SFS4aaJI_1102.mp4	0.0	137.8489248752594	
26	69.88865113258362	movie	1		301.0	24.0	2.5	/experiments/knapen_aot/videos/R_S_yt-c5_SFS4aaJI_1102.mp4	0.0	137.8571150302887	2.508419990539551
26	70.1971390247345	response	1	2		24.0	2.5	/experiments/knapen_aot/videos/R_S_yt-c5_SFS4aaJI_1102.mp4	0.0	138.16560292243958	
26	72.39707112312317	fix_post	2		12.0	24.0	2.5	/experiments/knapen_aot/videos/R_S_yt-c5_SFS4aaJI_1102.mp4	0.0	140.36553502082825	0.09992289543151855
27	72.49699401855469	fix_pre	0		18.0	25.0	2.5	/experiments/knapen_aot/videos/R_S_yt-CH4HfNRC1hY_40.mp4	0.0	140.46545791625977	0.15001702308654785
27	72.63866806030273	response	0	2		25.0	2.5	/experiments/knapen_aot/videos/R_S_yt-CH4HfNRC1hY_40.mp4	0.0	140.6071319580078	
27	72.64701104164124	movie	1		301.0	25.0	2.5	/experiments/knapen_aot/videos/R_S_yt-CH4HfNRC1hY_40.mp4	0.0	140.6154749393463	2.508298873901367
27	75.1553099155426	fix_post	2		11.0	25.0	2.5	/experiments/knapen_aot/videos/R_S_yt-CH4HfNRC1hY_40.mp4	0.0	143.12377381324768	0.09363222122192383
27	75.23876810073853	response	2	2		25.0	2.5	/experiments/knapen_aot/videos/R_S_yt-CH4HfNRC1hY_40.mp4	0.0	143.2072319984436	
28	75.24894213676453	fix_pre	0		57.0	26.0	2.5	/experiments/knapen_aot/videos/S_ILSVRC2015_train_00423000.mp4	0.0	143.2174060344696	0.47296786308288574
28	75.713711977005	response	0	2		26.0	2.5	/experiments/knapen_aot/videos/S_ILSVRC2015_train_00423000.mp4	0.0	143.68217587471008	
28	75.72190999984741	movie	1		301.0	26.0	2.5	/experiments/knapen_aot/videos/S_ILSVRC2015_train_00423000.mp4	0.0	143.6903738975525	2.508323907852173
28	78.23023390769958	fix_post	2		12.0	26.0	2.5	/experiments/knapen_aot/videos/S_ILSVRC2015_train_00423000.mp4	0.0	146.19869780540466	0.10016322135925293
29	78.33039712905884	fix_pre	0		13.0	27.0	2.5	/experiments/knapen_aot/videos/S_pexels-cottonbro-6844209.mp4	0.0	146.29886102676392	0.10821986198425293
29	78.42292594909668	response	0	2		27.0	2.5	/experiments/knapen_aot/videos/S_pexels-cottonbro-6844209.mp4	0.0	146.39138984680176	
29	78.43861699104309	movie	1		203.0	27.0	2.5	/experiments/knapen_aot/videos/S_pexels-cottonbro-6844209.mp4	0.0	146.40708088874817	2.5082991123199463
29	80.94691610336304	fix_post	2		12.0	27.0	2.5	/experiments/knapen_aot/videos/S_pexels-cottonbro-6844209.mp4	0.0	148.91538000106812	0.09995388984680176
30	81.04686999320984	fix_pre	0		111.0	28.0	2.5	blank	1.0	149.01533389091492	0.9250309467315674
30	81.96367812156677	response	0	2		28.0	2.5	blank	1.0	149.93214201927185	
30	81.9719009399414	movie	1		301.0	28.0	2.5	blank	1.0	149.94036483764648	2.508341073989868
30	84.48024201393127	fix_post	2		12.0	28.0	2.5	blank	1.0	152.44870591163635	0.09998798370361328
31	84.58022999763489	fix_pre	0		54.0	29.0	2.5	/experiments/knapen_aot/videos/S_yt-c5_SFS4aaJI_1102.mp4	0.0	152.54869389533997	0.4500601291656494
31	85.0220639705658	response	0	2		29.0	2.5	/experiments/knapen_aot/videos/S_yt-c5_SFS4aaJI_1102.mp4	0.0	152.99052786827087	
31	85.03029012680054	movie	1		301.0	29.0	2.5	/experiments/knapen_aot/videos/S_yt-c5_SFS4aaJI_1102.mp4	0.0	152.99875402450562	2.508314847946167
31	87.5386049747467	fix_post	2		12.0	29.0	2.5	/experiments/knapen_aot/videos/S_yt-c5_SFS4aaJI_1102.mp4	0.0	155.50706887245178	0.09996795654296875
32	87.63857293128967	fix_pre	0		27.0	30.0	2.5	/experiments/knapen_aot/videos/S_yt-K0CzoUy_uIA_22.mp4	0.0	155.60703682899475	0.22493314743041992
32	87.85557508468628	response	0	2		30.0	2.5	/experiments/knapen_aot/videos/S_yt-K0CzoUy_uIA_22.mp4	0.0	155.82403898239136	
32	87.86350607872009	movie	1		301.0	30.0	2.5	/experiments/knapen_aot/videos/S_yt-K0CzoUy_uIA_22.mp4	0.0	155.83196997642517	2.5084028244018555
32	90.37190890312195	fix_post	2		12.0	30.0	2.5	/experiments/knapen_aot/videos/S_yt-K0CzoUy_uIA_22.mp4	0.0	158.34037280082703	0.10003113746643066
33	90.47194004058838	fix_pre	0		15.0	31.0	2.5	/experiments/knapen_aot/videos/S_yt-EBuE7GbFw7U_180.mp4	0.0	158.44040393829346	0.12495803833007812
33	90.58860898017883	response	0	2		31.0	2.5	/experiments/knapen_aot/videos/S_yt-EBuE7GbFw7U_180.mp4	0.0	158.5570728778839	
33	90.59689807891846	movie	1		301.0	31.0	2.5	/experiments/knapen_aot/videos/S_yt-EBuE7GbFw7U_180.mp4	0.0	158.56536197662354	2.5083138942718506
33	93.10521197319031	fix_post	2		12.0	31.0	2.5	/experiments/knapen_aot/videos/S_yt-EBuE7GbFw7U_180.mp4	0.0	161.07367587089539	0.10001897811889648
34	93.2052309513092	fix_pre	0		9.0	32.0	2.5	/experiments/knapen_aot/videos/R_S_Y011_C001_SDR_2K_AVC.mp4	0.0	161.17369484901428	0.07499217987060547
34	93.27208805084229	response	0	2		32.0	2.5	/experiments/knapen_aot/videos/R_S_Y011_C001_SDR_2K_AVC.mp4	0.0	161.24055194854736	
34	93.28022313117981	movie	1		170.0	32.0	2.5	/experiments/knapen_aot/videos/R_S_Y011_C001_SDR_2K_AVC.mp4	0.0	161.2486870288849	2.508363962173462
34	95.78858709335327	fix_post	2		12.0	32.0	2.5	/experiments/knapen_aot/videos/R_S_Y011_C001_SDR_2K_AVC.mp4	0.0	163.75705099105835	0.09999990463256836
35	95.88858699798584	fix_pre	0		1.0	33.0	2.5	/experiments/knapen_aot/videos/S_pexels-artem-podrez-5457692.mp4	0.0	163.85705089569092	0.008333921432495117
35	95.89020609855652	response	0	2		33.0	2.5	/experiments/knapen_aot/videos/S_pexels-artem-podrez-5457692.mp4	0.0	163.8586699962616	
35	95.89692091941833	movie	1		164.0	33.0	2.5	/experiments/knapen_aot/videos/S_pexels-artem-podrez-5457692.mp4	0.0	163.8653848171234	2.508331060409546
35	98.40525197982788	fix_post	2		12.0	33.0	2.5	/experiments/knapen_aot/videos/S_pexels-artem-podrez-5457692.mp4	0.0	166.37371587753296	0.10046100616455078
36	98.50571298599243	fix_pre	0		5.0	34.0	2.5	blank	1.0	166.4741768836975	0.04195594787597656
36	98.53133201599121	response	0	2		34.0	2.5	blank	1.0	166.4997959136963	
36	98.54766893386841	movie	1		301.0	34.0	2.5	blank	1.0	166.5161328315735	2.507560968399048
36	101.05522990226746	fix_post	2		12.0	34.0	2.5	blank	1.0	169.02369379997253	0.1000361442565918
37	101.15526604652405	fix_pre	0		33.0	35.0	2.5	/experiments/knapen_aot/videos/R_S_ILSVRC2015_train_00001009.mp4	0.0	169.12372994422913	0.2749450206756592
37	101.42201209068298	response	0	2		35.0	2.5	/experiments/knapen_aot/videos/R_S_ILSVRC2015_train_00001009.mp4	0.0	169.39047598838806	
37	101.4302110671997	movie	1		300.0	35.0	2.5	/experiments/knapen_aot/videos/R_S_ILSVRC2015_train_00001009.mp4	0.0	169.39867496490479	2.5082969665527344
37	103.93850803375244	fix_post	2		12.0	35.0	2.5	/experiments/knapen_aot/videos/R_S_ILSVRC2015_train_00001009.mp4	0.0	171.90697193145752	0.09994101524353027
38	104.03844904899597	fix_pre	0		29.0	36.0	2.5	/experiments/knapen_aot/videos/S_comp_GMT060_117NC_363D_1034_AUSTRALIA_v35_SDR_PS_FINAL_20180731_SDR_2K_AVC.mp4	0.0	172.00691294670105	0.24169492721557617
38	104.27201199531555	response	0	2		36.0	2.5	/experiments/knapen_aot/videos/S_comp_GMT060_117NC_363D_1034_AUSTRALIA_v35_SDR_PS_FINAL_20180731_SDR_2K_AVC.mp4	0.0	172.24047589302063	
38	104.28014397621155	movie	1		164.0	36.0	2.5	/experiments/knapen_aot/videos/S_comp_GMT060_117NC_363D_1034_AUSTRALIA_v35_SDR_PS_FINAL_20180731_SDR_2K_AVC.mp4	0.0	172.24860787391663	2.5083670616149902
38	106.78851103782654	fix_post	2		12.0	36.0	2.5	/experiments/knapen_aot/videos/S_comp_GMT060_117NC_363D_1034_AUSTRALIA_v35_SDR_PS_FINAL_20180731_SDR_2K_AVC.mp4	0.0	174.75697493553162	0.1000070571899414
39	106.88851809501648	fix_pre	0		4.0	37.0	2.5	/experiments/knapen_aot/videos/S_yt-gMqeZkpA_1Q_61.mp4	0.0	174.85698199272156	0.03395199775695801
39	106.9137511253357	response	0	2		37.0	2.5	/experiments/knapen_aot/videos/S_yt-gMqeZkpA_1Q_61.mp4	0.0	174.88221502304077	
39	106.92247009277344	movie	1		301.0	37.0	2.5	/experiments/knapen_aot/videos/S_yt-gMqeZkpA_1Q_61.mp4	0.0	174.89093399047852	2.5077109336853027
39	109.43018102645874	fix_post	2		12.0	37.0	2.5	/experiments/knapen_aot/videos/S_yt-gMqeZkpA_1Q_61.mp4	0.0	177.39864492416382	0.09999394416809082
40	109.53017497062683	fix_pre	0		9.0	38.0	2.5	/experiments/knapen_aot/videos/R_S_ILSVRC2015_train_00743002.mp4	0.0	177.4986388683319	0.07500505447387695
40	109.59698605537415	response	0	2		38.0	2.5	/experiments/knapen_aot/videos/R_S_ILSVRC2015_train_00743002.mp4	0.0	177.56544995307922	
40	109.60518002510071	movie	1		300.0	38.0	2.5	/experiments/knapen_aot/videos/R_S_ILSVRC2015_train_00743002.mp4	0.0	177.5736439228058	2.508357048034668
40	112.11353707313538	fix_post	2		12.0	38.0	2.5	/experiments/knapen_aot/videos/R_S_ILSVRC2015_train_00743002.mp4	0.0	180.08200097084045	0.1003110408782959
41	112.21384811401367	fix_pre	0		22.0	39.0	2.5	/experiments/knapen_aot/videos/R_S_yt-N7ztk2fa3Ls_137.mp4	0.0	180.18231201171875	0.18291783332824707
41	112.38866591453552	response	0	2		39.0	2.5	/experiments/knapen_aot/videos/R_S_yt-N7ztk2fa3Ls_137.mp4	0.0	180.3571298122406	
41	112.39676594734192	movie	1		301.0	39.0	2.5	/experiments/knapen_aot/videos/R_S_yt-N7ztk2fa3Ls_137.mp4	0.0	180.365229845047	2.508329153060913
41	114.90509510040283	fix_post	2		12.0	39.0	2.5	/experiments/knapen_aot/videos/R_S_yt-N7ztk2fa3Ls_137.mp4	0.0	182.8735589981079	0.10015296936035156
42	115.00524806976318	fix_pre	0		41.0	40.0	2.5	/experiments/knapen_aot/videos/S_yt-R0gFQo85cAE_5.mp4	0.0	182.97371196746826	0.34150004386901855
42	115.3385899066925	response	0	2		40.0	2.5	/experiments/knapen_aot/videos/S_yt-R0gFQo85cAE_5.mp4	0.0	183.30705380439758	
42	115.3467481136322	movie	1		301.0	40.0	2.5	/experiments/knapen_aot/videos/S_yt-R0gFQo85cAE_5.mp4	0.0	183.31521201133728	2.508373975753784
42	117.85512208938599	fix_post	2		12.0	40.0	2.5	/experiments/knapen_aot/videos/S_yt-R0gFQo85cAE_5.mp4	0.0	185.82358598709106	0.10000085830688477
43	117.95512294769287	fix_pre	0		44.0	41.0	2.5	/experiments/knapen_aot/videos/R_S_g201_WH_D004_L014_SDR_20191031_SDR_2K_AVC.mp4	0.0	185.92358684539795	0.36663818359375
43	118.31360912322998	response	0	2		41.0	2.5	/experiments/knapen_aot/videos/R_S_g201_WH_D004_L014_SDR_20191031_SDR_2K_AVC.mp4	0.0	186.28207302093506	
43	118.32176113128662	movie	1		165.0	41.0	2.5	/experiments/knapen_aot/videos/R_S_g201_WH_D004_L014_SDR_20191031_SDR_2K_AVC.mp4	0.0	186.2902250289917	2.5083839893341064
43	120.83014512062073	fix_post	2		12.0	41.0	2.5	/experiments/knapen_aot/videos/R_S_g201_WH_D004_L014_SDR_20191031_SDR_2K_AVC.mp4	0.0	188.7986090183258	0.09998893737792969
44	120.93013405799866	fix_pre	0		14.0	42.0	2.5	blank	1.0	188.89859795570374	0.1169898509979248
44	121.03859996795654	response	0	2		42.0	2.5	blank	1.0	189.00706386566162	
44	121.04712390899658	movie	1		301.0	42.0	2.5	blank	1.0	189.01558780670166	2.507899045944214
44	123.5550229549408	fix_post	2		12.0	42.0	2.5	blank	1.0	191.52348685264587	0.10005617141723633
45	123.65507912635803	fix_pre	0		52.0	43.0	2.5	/experiments/knapen_aot/videos/R_S_yt-uY5xsUKn8zU_17.mp4	0.0	191.6235430240631	0.43360400199890137
45	124.0801899433136	response	0	2		43.0	2.5	/experiments/knapen_aot/videos/R_S_yt-uY5xsUKn8zU_17.mp4	0.0	192.04865384101868	
45	124.08868312835693	movie	1		301.0	43.0	2.5	/experiments/knapen_aot/videos/R_S_yt-uY5xsUKn8zU_17.mp4	0.0	192.057147026062	2.5080578327178955
45	126.59674096107483	fix_post	2		12.0	43.0	2.5	/experiments/knapen_aot/videos/R_S_yt-uY5xsUKn8zU_17.mp4	0.0	194.5652048587799	0.10000205039978027
46	126.69674301147461	fix_pre	0		26.0	44.0	2.5	/experiments/knapen_aot/videos/S_ILSVRC2015_train_00613000.mp4	0.0	194.6652069091797	0.21666693687438965
46	126.9051821231842	response	0	2		44.0	2.5	/experiments/knapen_aot/videos/S_ILSVRC2015_train_00613000.mp4	0.0	194.87364602088928	
46	126.913409948349	movie	1		299.0	44.0	2.5	/experiments/knapen_aot/videos/S_ILSVRC2015_train_00613000.mp4	0.0	194.88187384605408	2.508319139480591
46	129.4217290878296	fix_post	2		12.0	44.0	2.5	/experiments/knapen_aot/videos/S_ILSVRC2015_train_00613000.mp4	0.0	197.39019298553467	0.09994983673095703
47	129.52167892456055	fix_pre	0		6.0	45.0	2.5	/experiments/knapen_aot/videos/R_S_yt-w_e3sxIzepA_27.mp4	0.0	197.49014282226562	0.05005216598510742
47	129.56354904174805	response	0	2		45.0	2.5	/experiments/knapen_aot/videos/R_S_yt-w_e3sxIzepA_27.mp4	0.0	197.53201293945312	
47	129.57173109054565	movie	1		301.0	45.0	2.5	/experiments/knapen_aot/videos/R_S_yt-w_e3sxIzepA_27.mp4	0.0	197.54019498825073	2.508354902267456
47	131.5435140132904	response	1	2		45.0	2.5	/experiments/knapen_aot/videos/R_S_yt-w_e3sxIzepA_27.mp4	0.0	199.51197791099548	
47	132.0800859928131	fix_post	2		12.0	45.0	2.5	/experiments/knapen_aot/videos/R_S_yt-w_e3sxIzepA_27.mp4	0.0	200.0485498905182	0.09989404678344727
47	132.1311309337616	response	2	2		45.0	2.5	/experiments/knapen_aot/videos/R_S_yt-w_e3sxIzepA_27.mp4	0.0	200.09959483146667	
48	132.17998003959656	fix_pre	0		45.0	46.0	2.5	/experiments/knapen_aot/videos/S_yt-j3Sk8ZnAiEA_32.mp4	0.0	200.14844393730164	0.3750300407409668
48	132.54680013656616	response	0	2		46.0	2.5	/experiments/knapen_aot/videos/S_yt-j3Sk8ZnAiEA_32.mp4	0.0	200.51526403427124	
48	132.55501008033752	movie	1		301.0	46.0	2.5	/experiments/knapen_aot/videos/S_yt-j3Sk8ZnAiEA_32.mp4	0.0	200.5234739780426	2.508391857147217
48	135.06340193748474	fix_post	2		12.0	46.0	2.5	/experiments/knapen_aot/videos/S_yt-j3Sk8ZnAiEA_32.mp4	0.0	203.03186583518982	0.0999140739440918
49	135.16331601142883	fix_pre	0		24.0	47.0	2.5	/experiments/knapen_aot/videos/R_S_yt-Rqwi-Fk9IJQ_114.mp4	0.0	203.1317799091339	0.20000290870666504
49	135.3551790714264	response	0	2		47.0	2.5	/experiments/knapen_aot/videos/R_S_yt-Rqwi-Fk9IJQ_114.mp4	0.0	203.32364296913147	
49	135.3633189201355	movie	1		301.0	47.0	2.5	/experiments/knapen_aot/videos/R_S_yt-Rqwi-Fk9IJQ_114.mp4	0.0	203.33178281784058	2.508329153060913
49	137.8716480731964	fix_post	2		12.0	47.0	2.5	/experiments/knapen_aot/videos/R_S_yt-Rqwi-Fk9IJQ_114.mp4	0.0	205.8401119709015	0.10004687309265137
50	137.97169494628906	fix_pre	0		14.0	48.0	2.5	/experiments/knapen_aot/videos/S_comp_LW_L001_C006_PSNK_DENOISE_v02_SDR_PS_FINAL_20180709_SDR_2K_AVC.mp4	0.0	205.94015884399414	0.11686015129089355
50	138.08019495010376	response	0	2		48.0	2.5	/experiments/knapen_aot/videos/S_comp_LW_L001_C006_PSNK_DENOISE_v02_SDR_PS_FINAL_20180709_SDR_2K_AVC.mp4	0.0	206.04865884780884	
50	138.08855509757996	movie	1		166.0	48.0	2.5	/experiments/knapen_aot/videos/S_comp_LW_L001_C006_PSNK_DENOISE_v02_SDR_PS_FINAL_20180709_SDR_2K_AVC.mp4	0.0	206.05701899528503	2.50809383392334
50	140.5966489315033	fix_post	2		12.0	48.0	2.5	/experiments/knapen_aot/videos/S_comp_LW_L001_C006_PSNK_DENOISE_v02_SDR_PS_FINAL_20180709_SDR_2K_AVC.mp4	0.0	208.56511282920837	0.0999910831451416
51	140.69664001464844	fix_pre	0		14.0	49.0	2.5	blank	1.0	208.66510391235352	0.11674904823303223
51	140.7975959777832	response	0	2		49.0	2.5	blank	1.0	208.76605987548828	
51	140.81338906288147	movie	1		301.0	49.0	2.5	blank	1.0	208.78185296058655	2.5082409381866455
51	143.32163000106812	fix_post	2		12.0	49.0	2.5	blank	1.0	211.2900938987732	0.10023903846740723
52	143.42186903953552	fix_pre	0		21.0	50.0	2.5	/experiments/knapen_aot/videos/S_ILSVRC2015_test_00004002.mp4	0.0	211.3903329372406	0.17477798461914062
52	143.5885190963745	response	0	2		50.0	2.5	/experiments/knapen_aot/videos/S_ILSVRC2015_test_00004002.mp4	0.0	211.5569829940796	
52	143.59664702415466	movie	1		301.0	50.0	2.5	/experiments/knapen_aot/videos/S_ILSVRC2015_test_00004002.mp4	0.0	211.56511092185974	2.5083630084991455
52	146.1050100326538	fix_post	2		12.0	50.0	2.5	/experiments/knapen_aot/videos/S_ILSVRC2015_test_00004002.mp4	0.0	214.0734739303589	0.10002398490905762
53	146.20503401756287	fix_pre	0		10.0	51.0	2.5	/experiments/knapen_aot/videos/S_ILSVRC2015_train_00756000.mp4	0.0	214.17349791526794	0.08328795433044434
53	146.2800509929657	response	0	2		51.0	2.5	/experiments/knapen_aot/videos/S_ILSVRC2015_train_00756000.mp4	0.0	214.24851489067078	
53	146.2883219718933	movie	1		301.0	51.0	2.5	/experiments/knapen_aot/videos/S_ILSVRC2015_train_00756000.mp4	0.0	214.2567858695984	2.50856614112854
53	148.79688811302185	fix_post	2		12.0	51.0	2.5	/experiments/knapen_aot/videos/S_ILSVRC2015_train_00756000.mp4	0.0	216.76535201072693	0.09979581832885742
54	148.8966839313507	fix_pre	0		15.0	52.0	2.5	/experiments/knapen_aot/videos/S_8amznWxLS04_212.mp4	0.0	216.8651478290558	0.12497115135192871
54	149.01345992088318	response	0	2		52.0	2.5	/experiments/knapen_aot/videos/S_8amznWxLS04_212.mp4	0.0	216.98192381858826	
54	149.02165508270264	movie	1		299.0	52.0	2.5	/experiments/knapen_aot/videos/S_8amznWxLS04_212.mp4	0.0	216.99011898040771	2.5083160400390625
54	151.5299711227417	fix_post	2		12.0	52.0	2.5	/experiments/knapen_aot/videos/S_8amznWxLS04_212.mp4	0.0	219.49843502044678	0.10017085075378418
55	151.63014197349548	fix_pre	0		33.0	53.0	2.5	/experiments/knapen_aot/videos/S_video_inspire_texas_pecos_foggy-landscape_00018.1080-h264.mp4	0.0	219.59860587120056	0.27484703063964844
55	151.88922595977783	response	0	2		53.0	2.5	/experiments/knapen_aot/videos/S_video_inspire_texas_pecos_foggy-landscape_00018.1080-h264.mp4	0.0	219.8576898574829	
55	151.90498900413513	movie	1		165.0	53.0	2.5	/experiments/knapen_aot/videos/S_video_inspire_texas_pecos_foggy-landscape_00018.1080-h264.mp4	0.0	219.8734529018402	2.5083189010620117
55	154.41330790519714	fix_post	2		12.0	53.0	2.5	/experiments/knapen_aot/videos/S_video_inspire_texas_pecos_foggy-landscape_00018.1080-h264.mp4	0.0	222.38177180290222	0.09999203681945801
56	154.5132999420166	fix_pre	0		8.0	54.0	2.5	/experiments/knapen_aot/videos/R_S_PA_A002_C009_SDR_20190730_ALT01_SDR_2K_AVC.mp4	0.0	222.48176383972168	0.06665897369384766
56	154.57173895835876	response	0	2		54.0	2.5	/experiments/knapen_aot/videos/R_S_PA_A002_C009_SDR_20190730_ALT01_SDR_2K_AVC.mp4	0.0	222.54020285606384	
56	154.57995891571045	movie	1		166.0	54.0	2.5	/experiments/knapen_aot/videos/R_S_PA_A002_C009_SDR_20190730_ALT01_SDR_2K_AVC.mp4	0.0	222.54842281341553	2.5084822177886963
56	157.08844113349915	fix_post	2		12.0	54.0	2.5	/experiments/knapen_aot/videos/R_S_PA_A002_C009_SDR_20190730_ALT01_SDR_2K_AVC.mp4	0.0	225.05690503120422	0.09987187385559082
57	157.18831300735474	fix_pre	0		5.0	55.0	2.5	blank	1.0	225.15677690505981	0.04172396659851074
57	157.21494603157043	response	0	2		55.0	2.5	blank	1.0	225.1834099292755	
57	157.23003697395325	movie	1		301.0	55.0	2.5	blank	1.0	225.19850087165833	2.508273124694824
57	159.73831009864807	fix_post	2		12.0	55.0	2.5	blank	1.0	227.70677399635315	0.1001119613647461
58	159.83842206001282	fix_pre	0		15.0	56.0	2.5	/experiments/knapen_aot/videos/R_S_yt-QQPv17nfR_E_2.mp4	0.0	227.8068859577179	0.12497305870056152
58	159.95500493049622	response	0	2		56.0	2.5	/experiments/knapen_aot/videos/R_S_yt-QQPv17nfR_E_2.mp4	0.0	227.9234688282013	
58	159.96339511871338	movie	1		301.0	56.0	2.5	/experiments/knapen_aot/videos/R_S_yt-QQPv17nfR_E_2.mp4	0.0	227.93185901641846	2.5081889629364014
58	162.47158408164978	fix_post	2		12.0	56.0	2.5	/experiments/knapen_aot/videos/R_S_yt-QQPv17nfR_E_2.mp4	0.0	230.44004797935486	0.10005784034729004
59	162.57164192199707	fix_pre	0		6.0	57.0	2.5	/experiments/knapen_aot/videos/S_yt--UhwpukdyBg_51.mp4	0.0	230.54010581970215	0.051603078842163086
59	162.61335492134094	response	0	2		57.0	2.5	/experiments/knapen_aot/videos/S_yt--UhwpukdyBg_51.mp4	0.0	230.58181881904602	
59	162.62324500083923	movie	1		301.0	57.0	2.5	/experiments/knapen_aot/videos/S_yt--UhwpukdyBg_51.mp4	0.0	230.5917088985443	2.50675892829895
59	165.13000392913818	fix_post	2		12.0	57.0	2.5	/experiments/knapen_aot/videos/S_yt--UhwpukdyBg_51.mp4	0.0	233.09846782684326	0.09988117218017578
60	165.22988510131836	fix_pre	0		11.0	58.0	2.5	/experiments/knapen_aot/videos/R_S_production_ID_5144823.mp4	0.0	233.19834899902344	0.09169697761535645
60	165.3133909702301	response	0	2		58.0	2.5	/experiments/knapen_aot/videos/R_S_production_ID_5144823.mp4	0.0	233.28185486793518	
60	165.32158207893372	movie	1		163.0	58.0	2.5	/experiments/knapen_aot/videos/R_S_production_ID_5144823.mp4	0.0	233.2900459766388	2.508388042449951
60	167.82997012138367	fix_post	2		12.0	58.0	2.5	/experiments/knapen_aot/videos/R_S_production_ID_5144823.mp4	0.0	235.79843401908875	0.0998377799987793
61	167.92980790138245	fix_pre	0		7.0	59.0	2.5	/experiments/knapen_aot/videos/R_S_yt-mDil5vGZb14_4049.mp4	0.0	235.89827179908752	0.05843210220336914
61	167.97248101234436	response	0	2		59.0	2.5	/experiments/knapen_aot/videos/R_S_yt-mDil5vGZb14_4049.mp4	0.0	235.94094491004944	
61	167.98824000358582	movie	1		301.0	59.0	2.5	/experiments/knapen_aot/videos/R_S_yt-mDil5vGZb14_4049.mp4	0.0	235.9567039012909	2.508327007293701
61	170.49656701087952	fix_post	2		12.0	59.0	2.5	/experiments/knapen_aot/videos/R_S_yt-mDil5vGZb14_4049.mp4	0.0	238.4650309085846	0.1000220775604248
62	170.59658908843994	fix_pre	0		31.0	60.0	2.5	/experiments/knapen_aot/videos/S_pexels-c-technical-5771610.mp4	0.0	238.56505298614502	0.25833892822265625
62	170.8466820716858	response	0	2		60.0	2.5	/experiments/knapen_aot/videos/S_pexels-c-technical-5771610.mp4	0.0	238.81514596939087	
62	170.8549280166626	movie	1		189.0	60.0	2.5	/experiments/knapen_aot/videos/S_pexels-c-technical-5771610.mp4	0.0	238.82339191436768	2.5083189010620117
62	173.3632469177246	fix_post	2		12.0	60.0	2.5	/experiments/knapen_aot/videos/S_pexels-c-technical-5771610.mp4	0.0	241.3317108154297	0.10008406639099121
63	173.4633309841156	fix_pre	0		9.0	61.0	2.5	/experiments/knapen_aot/videos/R_S_yt-bhiGMKSAz2g_370.mp4	0.0	241.43179488182068	0.07489705085754395
63	173.53006505966187	response	0	2		61.0	2.5	/experiments/knapen_aot/videos/R_S_yt-bhiGMKSAz2g_370.mp4	0.0	241.49852895736694	
63	173.53822803497314	movie	1		301.0	61.0	2.5	/experiments/knapen_aot/videos/R_S_yt-bhiGMKSAz2g_370.mp4	0.0	241.50669193267822	2.508373975753784
63	176.04660201072693	fix_post	2		12.0	61.0	2.5	/experiments/knapen_aot/videos/R_S_yt-bhiGMKSAz2g_370.mp4	0.0	244.015065908432	0.09996795654296875
64	176.1465699672699	fix_pre	0		59.0	62.0	2.5	/experiments/knapen_aot/videos/R_S_ILSVRC2015_train_00001009.mp4	0.0	244.11503386497498	0.4916250705718994
64	176.63020205497742	response	0	2		62.0	2.5	/experiments/knapen_aot/videos/R_S_ILSVRC2015_train_00001009.mp4	0.0	244.5986659526825	
64	176.6381950378418	movie	1		299.0	62.0	2.5	/experiments/knapen_aot/videos/R_S_ILSVRC2015_train_00001009.mp4	0.0	244.60665893554688	2.5083389282226562
64	179.14653396606445	fix_post	2		12.0	62.0	2.5	/experiments/knapen_aot/videos/R_S_ILSVRC2015_train_00001009.mp4	0.0	247.11499786376953	0.09998893737792969
65	179.24652290344238	fix_pre	0		64.0	63.0	2.5	blank	1.0	247.21498680114746	0.5333452224731445
65	179.77171897888184	response	0	2		63.0	2.5	blank	1.0	247.7401828765869	
65	179.77986812591553	movie	1		301.0	63.0	2.5	blank	1.0	247.7483320236206	2.508340835571289
65	182.28820896148682	fix_post	2		12.0	63.0	2.5	blank	1.0	250.2566728591919	0.09994316101074219
66	182.38815212249756	fix_pre	0		51.0	64.0	2.5	/experiments/knapen_aot/videos/S_yt-0Ut9QANGX20_35.mp4	0.0	250.35661602020264	0.4250459671020508
66	182.80494594573975	response	0	2		64.0	2.5	/experiments/knapen_aot/videos/S_yt-0Ut9QANGX20_35.mp4	0.0	250.77340984344482	
66	182.8131980895996	movie	1		301.0	64.0	2.5	/experiments/knapen_aot/videos/S_yt-0Ut9QANGX20_35.mp4	0.0	250.7816619873047	2.5083529949188232
66	185.32155108451843	fix_post	2		12.0	64.0	2.5	/experiments/knapen_aot/videos/S_yt-0Ut9QANGX20_35.mp4	0.0	253.2900149822235	0.10000991821289062
67	185.42156100273132	fix_pre	0		267.0	65.0	2.5	/experiments/knapen_aot/videos/R_S_yt-zam74qlzGtQ_122.mp4	0.0	253.3900249004364	2.224951982498169
67	187.63829803466797	response	0	2		65.0	2.5	/experiments/knapen_aot/videos/R_S_yt-zam74qlzGtQ_122.mp4	0.0	255.60676193237305	
67	187.6465129852295	movie	1		301.0	65.0	2.5	/experiments/knapen_aot/videos/R_S_yt-zam74qlzGtQ_122.mp4	0.0	255.61497688293457	2.508254051208496
67	190.154767036438	fix_post	2		12.0	65.0	2.5	/experiments/knapen_aot/videos/R_S_yt-zam74qlzGtQ_122.mp4	0.0	258.12323093414307	0.10003304481506348
68	190.25480008125305	fix_pre	0		30.0	66.0	2.5	/experiments/knapen_aot/videos/S_pexels-mart-production-7277934.mp4	0.0	258.22326397895813	0.2500009536743164
68	190.49652290344238	response	0	2		66.0	2.5	/experiments/knapen_aot/videos/S_pexels-mart-production-7277934.mp4	0.0	258.46498680114746	
68	190.50480103492737	movie	1		162.0	66.0	2.5	/experiments/knapen_aot/videos/S_pexels-mart-production-7277934.mp4	0.0	258.47326493263245	2.5083348751068115
68	193.01313591003418	fix_post	2		12.0	66.0	2.5	/experiments/knapen_aot/videos/S_pexels-mart-production-7277934.mp4	0.0	260.98159980773926	0.1000220775604248
69	193.1131579875946	fix_pre	0		11.0	67.0	2.5	/experiments/knapen_aot/videos/R_S_yt-146gReE6xKw_379.mp4	0.0	261.0816218852997	0.09160995483398438
69	193.19655203819275	response	0	2		67.0	2.5	/experiments/knapen_aot/videos/R_S_yt-146gReE6xKw_379.mp4	0.0	261.1650159358978	
69	193.2047679424286	movie	1		301.0	67.0	2.5	/experiments/knapen_aot/videos/R_S_yt-146gReE6xKw_379.mp4	0.0	261.17323184013367	2.50844407081604
69	195.71321201324463	fix_post	2		12.0	67.0	2.5	/experiments/knapen_aot/videos/R_S_yt-146gReE6xKw_379.mp4	0.0	263.6816759109497	0.09997391700744629
70	195.81318593025208	fix_pre	0		32.0	68.0	2.5	/experiments/knapen_aot/videos/S_g201_WH_D004_L014_SDR_20191031_SDR_2K_AVC.mp4	0.0	263.78164982795715	0.26674318313598633
70	196.06416392326355	response	0	2		68.0	2.5	/experiments/knapen_aot/videos/S_g201_WH_D004_L014_SDR_20191031_SDR_2K_AVC.mp4	0.0	264.0326278209686	
70	196.07992911338806	movie	1		161.0	68.0	2.5	/experiments/knapen_aot/videos/S_g201_WH_D004_L014_SDR_20191031_SDR_2K_AVC.mp4	0.0	264.04839301109314	2.5082509517669678
70	198.58818006515503	fix_post	2		12.0	68.0	2.5	/experiments/knapen_aot/videos/S_g201_WH_D004_L014_SDR_20191031_SDR_2K_AVC.mp4	0.0	266.5566439628601	0.09996390342712402
71	198.68814396858215	fix_pre	0		32.0	69.0	2.5	/experiments/knapen_aot/videos/S_yt-3ohvpS42xug_184.mp4	0.0	266.65660786628723	0.26796698570251465
71	198.94662404060364	response	0	2		69.0	2.5	/experiments/knapen_aot/videos/S_yt-3ohvpS42xug_184.mp4	0.0	266.9150879383087	
71	198.95611095428467	movie	1		300.0	69.0	2.5	/experiments/knapen_aot/videos/S_yt-3ohvpS42xug_184.mp4	0.0	266.92457485198975	2.5070409774780273
71	201.4631519317627	fix_post	2		12.0	69.0	2.5	/experiments/knapen_aot/videos/S_yt-3ohvpS42xug_184.mp4	0.0	269.4316158294678	0.09999203681945801
72	201.56314396858215	fix_pre	0		21.0	70.0	2.5	blank	1.0	269.53160786628723	0.17499303817749023
72	201.72988510131836	response	0	2		70.0	2.5	blank	1.0	269.69834899902344	
72	201.73813700675964	movie	1		301.0	70.0	2.5	blank	1.0	269.7066009044647	2.5083279609680176
72	204.24646496772766	fix_post	2		12.0	70.0	2.5	blank	1.0	272.21492886543274	0.1000220775604248
73	204.3464870452881	fix_pre	0		47.0	71.0	2.5	/experiments/knapen_aot/videos/R_S_video-11.mp4	0.0	272.31495094299316	0.39160799980163574
73	204.72992706298828	response	0	2		71.0	2.5	/experiments/knapen_aot/videos/R_S_video-11.mp4	0.0	272.69839096069336	
73	204.73809504508972	movie	1		166.0	71.0	2.5	/experiments/knapen_aot/videos/R_S_video-11.mp4	0.0	272.7065589427948	2.508362054824829
73	207.24645709991455	fix_post	2		12.0	71.0	2.5	/experiments/knapen_aot/videos/R_S_video-11.mp4	0.0	275.21492099761963	0.09999489784240723
74	207.34645199775696	fix_pre	0		9.0	72.0	2.5	/experiments/knapen_aot/videos/S_yt-AbJBxqEYoMg_27.mp4	0.0	275.31491589546204	0.07499194145202637
74	207.41322803497314	response	0	2		72.0	2.5	/experiments/knapen_aot/videos/S_yt-AbJBxqEYoMg_27.mp4	0.0	275.3816919326782	
74	207.42144393920898	movie	1		300.0	72.0	2.5	/experiments/knapen_aot/videos/S_yt-AbJBxqEYoMg_27.mp4	0.0	275.38990783691406	2.5082590579986572
74	209.92970299720764	fix_post	2		12.0	72.0	2.5	/experiments/knapen_aot/videos/S_yt-AbJBxqEYoMg_27.mp4	0.0	277.8981668949127	0.0999901294708252
75	210.02969312667847	fix_pre	0		33.0	73.0	2.5	/experiments/knapen_aot/videos/S_yt-OTNdgakSIJE_97.mp4	0.0	277.99815702438354	0.27497291564941406
75	210.2966160774231	response	0	2		73.0	2.5	/experiments/knapen_aot/videos/S_yt-OTNdgakSIJE_97.mp4	0.0	278.2650799751282	
75	210.30466604232788	movie	1		301.0	73.0	2.5	/experiments/knapen_aot/videos/S_yt-OTNdgakSIJE_97.mp4	0.0	278.27312994003296	2.5084099769592285
75	212.8130760192871	fix_post	2		12.0	73.0	2.5	/experiments/knapen_aot/videos/S_yt-OTNdgakSIJE_97.mp4	0.0	280.7815399169922	0.09999895095825195
76	212.91307497024536	fix_pre	0		17.0	74.0	2.5	/experiments/knapen_aot/videos/S_comp_L007_C007_PS_v01_SDR_PS_20180925_SDR_2K_AVC.mp4	0.0	280.88153886795044	0.14156794548034668
76	213.04653191566467	response	0	2		74.0	2.5	/experiments/knapen_aot/videos/S_comp_L007_C007_PS_v01_SDR_PS_20180925_SDR_2K_AVC.mp4	0.0	281.01499581336975	
76	213.0546429157257	movie	1		169.0	74.0	2.5	/experiments/knapen_aot/videos/S_comp_L007_C007_PS_v01_SDR_PS_20180925_SDR_2K_AVC.mp4	0.0	281.0231068134308	2.508392095565796
76	215.5630350112915	fix_post	2		12.0	74.0	2.5	/experiments/knapen_aot/videos/S_comp_L007_C007_PS_v01_SDR_PS_20180925_SDR_2K_AVC.mp4	0.0	283.5314989089966	0.10001397132873535
77	215.66304898262024	fix_pre	0		30.0	75.0	2.5	/experiments/knapen_aot/videos/R_S_yt-kKRGgUhVRzc_74.mp4	0.0	283.6315128803253	0.25119614601135254
77	215.90482711791992	response	0	2		75.0	2.5	/experiments/knapen_aot/videos/R_S_yt-kKRGgUhVRzc_74.mp4	0.0	283.873291015625	
77	215.9142451286316	movie	1		301.0	75.0	2.5	/experiments/knapen_aot/videos/R_S_yt-kKRGgUhVRzc_74.mp4	0.0	283.88270902633667	2.5071167945861816
77	218.42136192321777	fix_post	2		12.0	75.0	2.5	/experiments/knapen_aot/videos/R_S_yt-kKRGgUhVRzc_74.mp4	0.0	286.38982582092285	0.1000051498413086
78	218.52136707305908	fix_pre	0		8.0	76.0	2.5	/experiments/knapen_aot/videos/S_production_ID_4122384.mp4	0.0	286.48983097076416	0.0666189193725586
78	218.57990908622742	response	0	2		76.0	2.5	/experiments/knapen_aot/videos/S_production_ID_4122384.mp4	0.0	286.5483729839325	
78	218.58798599243164	movie	1		172.0	76.0	2.5	/experiments/knapen_aot/videos/S_production_ID_4122384.mp4	0.0	286.5564498901367	2.508424997329712
78	221.09641098976135	fix_post	2		12.0	76.0	2.5	/experiments/knapen_aot/videos/S_production_ID_4122384.mp4	0.0	289.06487488746643	0.09998798370361328
79	221.19639897346497	fix_pre	0		12.0	77.0	2.5	blank	1.0	289.16486287117004	0.10000014305114746
79	221.28820705413818	response	0	2		77.0	2.5	blank	1.0	289.25667095184326	
79	221.2963991165161	movie	1		301.0	77.0	2.5	blank	1.0	289.2648630142212	2.5083417892456055
79	223.80474090576172	fix_post	2		12.0	77.0	2.5	blank	1.0	291.7732048034668	0.09995818138122559
80	223.90469908714294	fix_pre	0		22.0	78.0	2.5	/experiments/knapen_aot/videos/R_S_yt-eLQydFSMGCU_75.mp4	0.0	291.873162984848	0.1833019256591797
80	224.07983994483948	response	0	2		78.0	2.5	/experiments/knapen_aot/videos/R_S_yt-eLQydFSMGCU_75.mp4	0.0	292.04830384254456	
80	224.08800101280212	movie	1		301.0	78.0	2.5	/experiments/knapen_aot/videos/R_S_yt-eLQydFSMGCU_75.mp4	0.0	292.0564649105072	2.5083060264587402
80	226.25481009483337	response	1	2		78.0	2.5	/experiments/knapen_aot/videos/R_S_yt-eLQydFSMGCU_75.mp4	0.0	294.22327399253845	
80	226.59630703926086	fix_post	2		12.0	78.0	2.5	/experiments/knapen_aot/videos/R_S_yt-eLQydFSMGCU_75.mp4	0.0	294.56477093696594	0.10004997253417969
81	226.69635701179504	fix_pre	0		4.0	79.0	2.5	/experiments/knapen_aot/videos/S_pexels-koolshooters-7327401_1.mp4	0.0	294.6648209095001	0.033303022384643555
81	226.72154211997986	response	0	2		79.0	2.5	/experiments/knapen_aot/videos/S_pexels-koolshooters-7327401_1.mp4	0.0	294.69000601768494	
81	226.7296600341797	movie	1		166.0	79.0	2.5	/experiments/knapen_aot/videos/S_pexels-koolshooters-7327401_1.mp4	0.0	294.69812393188477	2.5083250999450684
81	229.23798513412476	fix_post	2		12.0	79.0	2.5	/experiments/knapen_aot/videos/S_pexels-koolshooters-7327401_1.mp4	0.0	297.20644903182983	0.10005879402160645
82	229.33804392814636	fix_pre	0		11.0	80.0	2.5	/experiments/knapen_aot/videos/S_ILSVRC2015_train_00451000.mp4	0.0	297.30650782585144	0.09164214134216309
82	229.4214870929718	response	0	2		80.0	2.5	/experiments/knapen_aot/videos/S_ILSVRC2015_train_00451000.mp4	0.0	297.3899509906769	
82	229.42968606948853	movie	1		301.0	80.0	2.5	/experiments/knapen_aot/videos/S_ILSVRC2015_train_00451000.mp4	0.0	297.3981499671936	2.5083370208740234
82	231.93802309036255	fix_post	2		12.0	80.0	2.5	/experiments/knapen_aot/videos/S_ILSVRC2015_train_00451000.mp4	0.0	299.9064869880676	0.10000395774841309
83	232.03802704811096	fix_pre	0		15.0	81.0	2.5	/experiments/knapen_aot/videos/R_S_yt-Ul81y6R9YbE_12.mp4	0.0	300.00649094581604	0.12604403495788574
83	232.15473890304565	response	0	4		81.0	2.5	/experiments/knapen_aot/videos/R_S_yt-Ul81y6R9YbE_12.mp4	0.0	300.12320280075073	
83	232.16407108306885	movie	1		301.0	81.0	2.5	/experiments/knapen_aot/videos/R_S_yt-Ul81y6R9YbE_12.mp4	0.0	300.1325349807739	2.507262945175171
83	234.67133402824402	fix_post	2		12.0	81.0	2.5	/experiments/knapen_aot/videos/R_S_yt-Ul81y6R9YbE_12.mp4	0.0	302.6397979259491	0.09994888305664062
84	234.77128291130066	fix_pre	0		11.0	82.0	2.5	/experiments/knapen_aot/videos/S_b5-3.mp4	0.0	302.73974680900574	0.09166622161865234
84	234.85478901863098	response	0	2		82.0	2.5	/experiments/knapen_aot/videos/S_b5-3.mp4	0.0	302.82325291633606	
84	234.8629491329193	movie	1		167.0	82.0	2.5	/experiments/knapen_aot/videos/S_b5-3.mp4	0.0	302.8314130306244	2.508408784866333
84	237.37135791778564	fix_post	2		11.0	82.0	2.5	/experiments/knapen_aot/videos/S_b5-3.mp4	0.0	305.3398218154907	0.09997320175170898
85	237.47133111953735	fix_pre	0		9.0	83.0	2.5	blank	1.0	305.43979501724243	0.0749969482421875
85	237.53813290596008	response	0	4		83.0	2.5	blank	1.0	305.50659680366516	
85	237.54632806777954	movie	1		301.0	83.0	2.5	blank	1.0	305.5147919654846	2.5083160400390625
85	240.0546441078186	fix_post	2		12.0	83.0	2.5	blank	1.0	308.0231080055237	0.10002684593200684
87	240.1546709537506	stim	0		483.0					308.1231348514557	4.024907112121582
87	242.37573313713074	response	0	return						310.3441970348358	
87	243.28808307647705	response	0	return						311.25654697418213	
87	244.17126202583313	response	0	space						312.1397259235382	
