trial_nr	onset	event_type	phase	response	nr_frames	movie_index	movie_duration	movie_file	blank	onset_abs	duration
0	0.15534305572509766	stim	0		45.0					148.2841980457306	0.37494897842407227
0	0.5222821235656738	response	0	space						148.65113711357117	
1	0.5302920341491699	stim	0		121.0					148.65914702415466	1.0080931186676025
1	1.5383851528167725	stim	1		120.0					149.66724014282227	0.9999568462371826
1	2.430190086364746	response	1	space						150.55904507637024	
2	2.538341999053955	fix_pre	0		33.0	0.0	2.5	/experiments/knapen_aot/videos/R_S_yt-Rsfo57AlpLA_332.mp4	0.0	150.66719698905945	0.27500295639038086
2	2.7975730895996094	response	0	space		0.0	2.5	/experiments/knapen_aot/videos/R_S_yt-Rsfo57AlpLA_332.mp4	0.0	150.9264280796051	
2	2.813344955444336	movie	1		300.0	0.0	2.5	/experiments/knapen_aot/videos/R_S_yt-Rsfo57AlpLA_332.mp4	0.0	150.94219994544983	2.5083701610565186
2	5.3217151165008545	fix_post	2		12.0	0.0	2.5	/experiments/knapen_aot/videos/R_S_yt-Rsfo57AlpLA_332.mp4	0.0	153.45057010650635	0.10001587867736816
3	5.421730995178223	fix_pre	0		4.0	1.0	2.5	/experiments/knapen_aot/videos/S_yt-YLcmfyfIokU_64.mp4	0.0	153.55058598518372	0.036195993423461914
3	5.448692083358765	response	0	2		1.0	2.5	/experiments/knapen_aot/videos/S_yt-YLcmfyfIokU_64.mp4	0.0	153.57754707336426	
3	5.457926988601685	movie	1		301.0	1.0	2.5	/experiments/knapen_aot/videos/S_yt-YLcmfyfIokU_64.mp4	0.0	153.58678197860718	2.505434989929199
3	7.963361978530884	fix_post	2		12.0	1.0	2.5	/experiments/knapen_aot/videos/S_yt-YLcmfyfIokU_64.mp4	0.0	156.09221696853638	0.10007119178771973
4	8.063433170318604	fix_pre	0		5.0	2.0	2.5	/experiments/knapen_aot/videos/R_S_yt-IDpUZ2NWBUY_60.mp4	0.0	156.1922881603241	0.04168200492858887
4	8.09695315361023	response	0	2		2.0	2.5	/experiments/knapen_aot/videos/R_S_yt-IDpUZ2NWBUY_60.mp4	0.0	156.22580814361572	
4	8.105115175247192	movie	1		301.0	2.0	2.5	/experiments/knapen_aot/videos/R_S_yt-IDpUZ2NWBUY_60.mp4	0.0	156.23397016525269	2.5082879066467285
4	10.613403081893921	fix_post	2		12.0	2.0	2.5	/experiments/knapen_aot/videos/R_S_yt-IDpUZ2NWBUY_60.mp4	0.0	158.7422580718994	0.09997701644897461
5	10.713380098342896	fix_pre	0		6.0	3.0	2.5	/experiments/knapen_aot/videos/S_yt-hekMMCluhnU_18.mp4	0.0	158.8422350883484	0.05010485649108887
5	10.755300045013428	response	0	2		3.0	2.5	/experiments/knapen_aot/videos/S_yt-hekMMCluhnU_18.mp4	0.0	158.88415503501892	
5	10.763484954833984	movie	1		301.0	3.0	2.5	/experiments/knapen_aot/videos/S_yt-hekMMCluhnU_18.mp4	0.0	158.89233994483948	2.5082650184631348
5	12.772117137908936	response	1	2		3.0	2.5	/experiments/knapen_aot/videos/S_yt-hekMMCluhnU_18.mp4	0.0	160.90097212791443	
5	13.12191104888916	response	1	2		3.0	2.5	/experiments/knapen_aot/videos/S_yt-hekMMCluhnU_18.mp4	0.0	161.25076603889465	
5	13.27174997329712	fix_post	2		12.0	3.0	2.5	/experiments/knapen_aot/videos/S_yt-hekMMCluhnU_18.mp4	0.0	161.4006049633026	0.09998798370361328
6	13.371737957000732	fix_pre	0		3.0	4.0	2.5	/experiments/knapen_aot/videos/S_yt-hOtj2y9VWrc_354.mp4	0.0	161.50059294700623	0.02501511573791504
6	13.388604164123535	response	0	2		4.0	2.5	/experiments/knapen_aot/videos/S_yt-hOtj2y9VWrc_354.mp4	0.0	161.51745915412903	
6	13.396753072738647	movie	1		299.0	4.0	2.5	/experiments/knapen_aot/videos/S_yt-hOtj2y9VWrc_354.mp4	0.0	161.52560806274414	2.508305072784424
6	15.905058145523071	fix_post	2		12.0	4.0	2.5	/experiments/knapen_aot/videos/S_yt-hOtj2y9VWrc_354.mp4	0.0	164.03391313552856	0.09996581077575684
7	16.005023956298828	fix_pre	0		18.0	5.0	2.5	/experiments/knapen_aot/videos/R_S_pexels-mikhail-nilov-8410063_1.mp4	0.0	164.13387894630432	0.15003514289855957
7	16.13937497138977	response	0	2		5.0	2.5	/experiments/knapen_aot/videos/R_S_pexels-mikhail-nilov-8410063_1.mp4	0.0	164.26822996139526	
7	16.155059099197388	movie	1		167.0	5.0	2.5	/experiments/knapen_aot/videos/R_S_pexels-mikhail-nilov-8410063_1.mp4	0.0	164.28391408920288	2.5083680152893066
7	18.663427114486694	fix_post	2		12.0	5.0	2.5	/experiments/knapen_aot/videos/R_S_pexels-mikhail-nilov-8410063_1.mp4	0.0	166.7922821044922	0.09997797012329102
8	18.763405084609985	fix_pre	0		17.0	6.0	2.5	/experiments/knapen_aot/videos/R_S_ioSkDvwpEaU_35.mp4	0.0	166.89226007461548	0.1416490077972412
8	18.89687204360962	response	0	2		6.0	2.5	/experiments/knapen_aot/videos/R_S_ioSkDvwpEaU_35.mp4	0.0	167.0257270336151	
8	18.905054092407227	movie	1		301.0	6.0	2.5	/experiments/knapen_aot/videos/R_S_ioSkDvwpEaU_35.mp4	0.0	167.03390908241272	2.508175849914551
8	21.138472080230713	response	1	2		6.0	2.5	/experiments/knapen_aot/videos/R_S_ioSkDvwpEaU_35.mp4	0.0	169.2673270702362	
8	21.413229942321777	fix_post	2		12.0	6.0	2.5	/experiments/knapen_aot/videos/R_S_ioSkDvwpEaU_35.mp4	0.0	169.54208493232727	0.10006999969482422
8	21.4062819480896	response	2	2		6.0	2.5	/experiments/knapen_aot/videos/R_S_ioSkDvwpEaU_35.mp4	0.0	169.5351369380951	
9	21.5132999420166	fix_pre	0		22.0	7.0	2.5	blank	1.0	169.6421549320221	0.18330907821655273
9	21.68842911720276	response	0	2		7.0	2.5	blank	1.0	169.81728410720825	
9	21.696609020233154	movie	1		301.0	7.0	2.5	blank	1.0	169.82546401023865	2.508366107940674
9	24.204975128173828	fix_post	2		12.0	7.0	2.5	blank	1.0	172.33383011817932	0.10002684593200684
10	24.305001974105835	fix_pre	0		17.0	8.0	2.5	/experiments/knapen_aot/videos/S_yt-ycQy_fHCK-U_8.mp4	0.0	172.43385696411133	0.14162802696228027
10	24.438416957855225	response	0	2		8.0	2.5	/experiments/knapen_aot/videos/S_yt-ycQy_fHCK-U_8.mp4	0.0	172.56727194786072	
10	24.446630001068115	movie	1		301.0	8.0	2.5	/experiments/knapen_aot/videos/S_yt-ycQy_fHCK-U_8.mp4	0.0	172.5754849910736	2.5083611011505127
10	26.954991102218628	fix_post	2		12.0	8.0	2.5	/experiments/knapen_aot/videos/S_yt-ycQy_fHCK-U_8.mp4	0.0	175.08384609222412	0.09999585151672363
11	27.05498695373535	fix_pre	0		10.0	9.0	2.5	/experiments/knapen_aot/videos/S_yt-l6WPyKg_3is_154.mp4	0.0	175.18384194374084	0.08326315879821777
11	27.13010001182556	response	0	2		9.0	2.5	/experiments/knapen_aot/videos/S_yt-l6WPyKg_3is_154.mp4	0.0	175.25895500183105	
11	27.13825011253357	movie	1		301.0	9.0	2.5	/experiments/knapen_aot/videos/S_yt-l6WPyKg_3is_154.mp4	0.0	175.26710510253906	2.508314847946167
11	29.646564960479736	fix_post	2		12.0	9.0	2.5	/experiments/knapen_aot/videos/S_yt-l6WPyKg_3is_154.mp4	0.0	177.77541995048523	0.10004210472106934
12	29.746607065200806	fix_pre	0		19.0	10.0	2.5	/experiments/knapen_aot/videos/R_S_yt-bOgChEHiroI_20.mp4	0.0	177.8754620552063	0.15834689140319824
12	29.896660089492798	response	0	2		10.0	2.5	/experiments/knapen_aot/videos/R_S_yt-bOgChEHiroI_20.mp4	0.0	178.0255150794983	
12	29.904953956604004	movie	1		301.0	10.0	2.5	/experiments/knapen_aot/videos/R_S_yt-bOgChEHiroI_20.mp4	0.0	178.0338089466095	2.5083670616149902
12	32.413321018218994	fix_post	2		12.0	10.0	2.5	/experiments/knapen_aot/videos/R_S_yt-bOgChEHiroI_20.mp4	0.0	180.5421760082245	0.10000109672546387
13	32.51332211494446	fix_pre	0		5.0	11.0	2.5	/experiments/knapen_aot/videos/R_S_Xq0a2BWE3zA_53.mp4	0.0	180.64217710494995	0.041626930236816406
13	32.54682111740112	response	0	2		11.0	2.5	/experiments/knapen_aot/videos/R_S_Xq0a2BWE3zA_53.mp4	0.0	180.67567610740662	
13	32.554949045181274	movie	1		301.0	11.0	2.5	/experiments/knapen_aot/videos/R_S_Xq0a2BWE3zA_53.mp4	0.0	180.68380403518677	2.5083699226379395
13	35.063318967819214	fix_post	2		12.0	11.0	2.5	/experiments/knapen_aot/videos/R_S_Xq0a2BWE3zA_53.mp4	0.0	183.1921739578247	0.09999918937683105
14	35.163318157196045	fix_pre	0		26.0	12.0	2.5	blank	1.0	183.29217314720154	0.2166450023651123
14	35.37189507484436	response	0	2		12.0	2.5	blank	1.0	183.50075006484985	
14	35.37996315956116	movie	1		301.0	12.0	2.5	blank	1.0	183.50881814956665	2.5083518028259277
14	37.821757078170776	response	1	2		12.0	2.5	blank	1.0	185.95061206817627	
14	37.888314962387085	fix_post	2		12.0	12.0	2.5	blank	1.0	186.01716995239258	0.10004711151123047
15	37.988362073898315	fix_pre	0		24.0	13.0	2.5	/experiments/knapen_aot/videos/S_yt-cokedWwwYYs_136.mp4	0.0	186.1172170639038	0.19992399215698242
15	38.18006896972656	response	0	2		13.0	2.5	/experiments/knapen_aot/videos/S_yt-cokedWwwYYs_136.mp4	0.0	186.30892395973206	
15	38.1882860660553	movie	1		301.0	13.0	2.5	/experiments/knapen_aot/videos/S_yt-cokedWwwYYs_136.mp4	0.0	186.3171410560608	2.5083439350128174
15	40.696630001068115	fix_post	2		12.0	13.0	2.5	/experiments/knapen_aot/videos/S_yt-cokedWwwYYs_136.mp4	0.0	188.8254849910736	0.10125994682312012
16	40.797889947891235	fix_pre	0		8.0	14.0	2.5	/experiments/knapen_aot/videos/S_yt-GaJaxp546lc_22.mp4	0.0	188.92674493789673	0.06539320945739746
16	40.85505199432373	response	0	2		14.0	2.5	/experiments/knapen_aot/videos/S_yt-GaJaxp546lc_22.mp4	0.0	188.98390698432922	
16	40.86328315734863	movie	1		300.0	14.0	2.5	/experiments/knapen_aot/videos/S_yt-GaJaxp546lc_22.mp4	0.0	188.99213814735413	2.5082848072052
16	43.37156796455383	fix_post	2		12.0	14.0	2.5	/experiments/knapen_aot/videos/S_yt-GaJaxp546lc_22.mp4	0.0	191.50042295455933	0.09997415542602539
17	43.47154211997986	fix_pre	0		11.0	15.0	2.5	/experiments/knapen_aot/videos/R_S_video_inspire_texas_pecos_foggy-landscape_00018.1080-h264.mp4	0.0	191.60039710998535	0.09161686897277832
17	43.55502796173096	response	0	2		15.0	2.5	/experiments/knapen_aot/videos/R_S_video_inspire_texas_pecos_foggy-landscape_00018.1080-h264.mp4	0.0	191.68388295173645	
17	43.56315898895264	movie	1		171.0	15.0	2.5	/experiments/knapen_aot/videos/R_S_video_inspire_texas_pecos_foggy-landscape_00018.1080-h264.mp4	0.0	191.69201397895813	2.5084381103515625
17	46.0715970993042	fix_post	2		12.0	15.0	2.5	/experiments/knapen_aot/videos/R_S_video_inspire_texas_pecos_foggy-landscape_00018.1080-h264.mp4	0.0	194.2004520893097	0.0999610424041748
18	46.171558141708374	fix_pre	0		2.0	16.0	2.5	/experiments/knapen_aot/videos/S_production_ID_3709168.mp4	0.0	194.30041313171387	0.016721010208129883
18	46.1801381111145	response	0	2		16.0	2.5	/experiments/knapen_aot/videos/S_production_ID_3709168.mp4	0.0	194.30899310112	
18	46.188279151916504	movie	1		206.0	16.0	2.5	/experiments/knapen_aot/videos/S_production_ID_3709168.mp4	0.0	194.317134141922	2.5082108974456787
18	48.69649004936218	fix_post	2		12.0	16.0	2.5	/experiments/knapen_aot/videos/S_production_ID_3709168.mp4	0.0	196.82534503936768	0.10004091262817383
19	48.796530961990356	fix_pre	0		24.0	17.0	2.5	/experiments/knapen_aot/videos/S_yt-e9AZJKNv9ow_359.mp4	0.0	196.92538595199585	0.19999098777770996
19	48.988260984420776	response	0	2		17.0	2.5	/experiments/knapen_aot/videos/S_yt-e9AZJKNv9ow_359.mp4	0.0	197.11711597442627	
19	48.996521949768066	movie	1		301.0	17.0	2.5	/experiments/knapen_aot/videos/S_yt-e9AZJKNv9ow_359.mp4	0.0	197.12537693977356	2.5083281993865967
19	51.50485014915466	fix_post	2		12.0	17.0	2.5	/experiments/knapen_aot/videos/S_yt-e9AZJKNv9ow_359.mp4	0.0	199.63370513916016	0.10002589225769043
20	51.60487604141235	fix_pre	0		39.0	18.0	2.5	/experiments/knapen_aot/videos/R_S_yt-YCjbGOPBQHw_131.mp4	0.0	199.73373103141785	0.3249809741973877
20	51.92160105705261	response	0	2		18.0	2.5	/experiments/knapen_aot/videos/R_S_yt-YCjbGOPBQHw_131.mp4	0.0	200.0504560470581	
20	51.92985701560974	movie	1		301.0	18.0	2.5	/experiments/knapen_aot/videos/R_S_yt-YCjbGOPBQHw_131.mp4	0.0	200.05871200561523	2.5082781314849854
20	54.43813514709473	fix_post	2		12.0	18.0	2.5	/experiments/knapen_aot/videos/R_S_yt-YCjbGOPBQHw_131.mp4	0.0	202.56699013710022	0.10002303123474121
21	54.53815817832947	fix_pre	0		39.0	19.0	2.5	/experiments/knapen_aot/videos/R_S_yt-lv6mhnH7_g4_134.mp4	0.0	202.66701316833496	0.3250157833099365
21	54.85493016242981	response	0	2		19.0	2.5	/experiments/knapen_aot/videos/R_S_yt-lv6mhnH7_g4_134.mp4	0.0	202.9837851524353	
21	54.863173961639404	movie	1		300.0	19.0	2.5	/experiments/knapen_aot/videos/R_S_yt-lv6mhnH7_g4_134.mp4	0.0	202.9920289516449	2.508334159851074
21	57.37150812149048	fix_post	2		12.0	19.0	2.5	/experiments/knapen_aot/videos/R_S_yt-lv6mhnH7_g4_134.mp4	0.0	205.50036311149597	0.10000300407409668
22	57.471511125564575	fix_pre	0		33.0	20.0	2.5	blank	1.0	205.60036611557007	0.2749929428100586
22	57.73832416534424	response	0	2		20.0	2.5	blank	1.0	205.86717915534973	
22	57.746504068374634	movie	1		301.0	20.0	2.5	blank	1.0	205.87535905838013	2.508281946182251
22	60.254786014556885	fix_post	2		12.0	20.0	2.5	blank	1.0	208.38364100456238	0.10005712509155273
23	60.35484313964844	fix_pre	0		34.0	21.0	2.5	/experiments/knapen_aot/videos/S_yt-xNITUMXoU0g_9.mp4	0.0	208.48369812965393	0.28329896926879883
23	60.629932165145874	response	0	2		21.0	2.5	/experiments/knapen_aot/videos/S_yt-xNITUMXoU0g_9.mp4	0.0	208.75878715515137	
23	60.638142108917236	movie	1		301.0	21.0	2.5	/experiments/knapen_aot/videos/S_yt-xNITUMXoU0g_9.mp4	0.0	208.76699709892273	2.50834584236145
23	63.14648795127869	fix_post	2		12.0	21.0	2.5	/experiments/knapen_aot/videos/S_yt-xNITUMXoU0g_9.mp4	0.0	211.27534294128418	0.10000801086425781
24	63.246495962142944	fix_pre	0		41.0	22.0	2.5	/experiments/knapen_aot/videos/R_S_yt-738MRS0yI6g_177.mp4	0.0	211.37535095214844	0.3427560329437256
24	63.57994794845581	response	0	2		22.0	2.5	/experiments/knapen_aot/videos/R_S_yt-738MRS0yI6g_177.mp4	0.0	211.7088029384613	
24	63.58925199508667	movie	1		301.0	22.0	2.5	/experiments/knapen_aot/videos/R_S_yt-738MRS0yI6g_177.mp4	0.0	211.71810698509216	2.507228136062622
24	66.09648013114929	fix_post	2		12.0	22.0	2.5	/experiments/knapen_aot/videos/R_S_yt-738MRS0yI6g_177.mp4	0.0	214.22533512115479	0.10002398490905762
25	66.19650411605835	fix_pre	0		17.0	23.0	2.5	/experiments/knapen_aot/videos/S_pexels-marcus-aurelius-6785014.mp4	0.0	214.32535910606384	0.14273285865783691
25	66.32235097885132	response	0	2		23.0	2.5	/experiments/knapen_aot/videos/S_pexels-marcus-aurelius-6785014.mp4	0.0	214.4512059688568	
25	66.33923697471619	movie	1		167.0	23.0	2.5	/experiments/knapen_aot/videos/S_pexels-marcus-aurelius-6785014.mp4	0.0	214.46809196472168	2.5072100162506104
25	68.8464469909668	fix_post	2		12.0	23.0	2.5	/experiments/knapen_aot/videos/S_pexels-marcus-aurelius-6785014.mp4	0.0	216.9753019809723	0.09999203681945801
26	68.94643902778625	fix_pre	0		18.0	24.0	2.5	/experiments/knapen_aot/videos/S_pexels-marcus-aurelius-6785014.mp4	0.0	217.07529401779175	0.14999103546142578
26	69.08820605278015	response	0	2		24.0	2.5	/experiments/knapen_aot/videos/S_pexels-marcus-aurelius-6785014.mp4	0.0	217.21706104278564	
26	69.09643006324768	movie	1		168.0	24.0	2.5	/experiments/knapen_aot/videos/S_pexels-marcus-aurelius-6785014.mp4	0.0	217.22528505325317	2.5083560943603516
26	71.60478615760803	fix_post	2		12.0	24.0	2.5	/experiments/knapen_aot/videos/S_pexels-marcus-aurelius-6785014.mp4	0.0	219.73364114761353	0.1000218391418457
27	71.70480799674988	fix_pre	0		6.0	25.0	2.5	/experiments/knapen_aot/videos/S_yt-ujTY1igjc3E_2.mp4	0.0	219.83366298675537	0.0511021614074707
27	71.74660801887512	response	0	2		25.0	2.5	/experiments/knapen_aot/videos/S_yt-ujTY1igjc3E_2.mp4	0.0	219.87546300888062	
27	71.75591015815735	movie	1		301.0	25.0	2.5	/experiments/knapen_aot/videos/S_yt-ujTY1igjc3E_2.mp4	0.0	219.88476514816284	2.507185935974121
27	74.21323204040527	response	1	2		25.0	2.5	/experiments/knapen_aot/videos/S_yt-ujTY1igjc3E_2.mp4	0.0	222.34208703041077	
27	74.26309609413147	fix_post	2		12.0	25.0	2.5	/experiments/knapen_aot/videos/S_yt-ujTY1igjc3E_2.mp4	0.0	222.39195108413696	0.10009503364562988
28	74.3631911277771	fix_pre	0		53.0	26.0	2.5	blank	1.0	222.4920461177826	0.441572904586792
28	74.79652810096741	response	0	2		26.0	2.5	blank	1.0	222.9253830909729	
28	74.80476403236389	movie	1		301.0	26.0	2.5	blank	1.0	222.93361902236938	2.508333921432495
28	77.31309795379639	fix_post	2		12.0	26.0	2.5	blank	1.0	225.44195294380188	0.09997320175170898
29	77.4130711555481	fix_pre	0		5.0	27.0	2.5	/experiments/knapen_aot/videos/S_pexels-anthony-shkraba-7569650.mp4	0.0	225.5419261455536	0.04167795181274414
29	77.44653701782227	response	0	2		27.0	2.5	/experiments/knapen_aot/videos/S_pexels-anthony-shkraba-7569650.mp4	0.0	225.57539200782776	
29	77.45474910736084	movie	1		198.0	27.0	2.5	/experiments/knapen_aot/videos/S_pexels-anthony-shkraba-7569650.mp4	0.0	225.58360409736633	2.5083160400390625
29	79.9630651473999	fix_post	2		12.0	27.0	2.5	/experiments/knapen_aot/videos/S_pexels-anthony-shkraba-7569650.mp4	0.0	228.0919201374054	0.09996581077575684
30	80.06303095817566	fix_pre	0		11.0	28.0	2.5	/experiments/knapen_aot/videos/R_S_yt-hRAqAwRhmwE_58.mp4	0.0	228.19188594818115	0.09171605110168457
30	80.14684009552002	response	0	2		28.0	2.5	/experiments/knapen_aot/videos/R_S_yt-hRAqAwRhmwE_58.mp4	0.0	228.2756950855255	
30	80.15474700927734	movie	1		300.0	28.0	2.5	/experiments/knapen_aot/videos/R_S_yt-hRAqAwRhmwE_58.mp4	0.0	228.28360199928284	2.508303165435791
30	82.66305017471313	fix_post	2		12.0	28.0	2.5	/experiments/knapen_aot/videos/R_S_yt-hRAqAwRhmwE_58.mp4	0.0	230.79190516471863	0.1000208854675293
31	82.76307106018066	fix_pre	0		16.0	29.0	2.5	/experiments/knapen_aot/videos/S_yt-JmmyeMOFpII_29.mp4	0.0	230.89192605018616	0.1332991123199463
31	82.88818717002869	response	0	2		29.0	2.5	/experiments/knapen_aot/videos/S_yt-JmmyeMOFpII_29.mp4	0.0	231.01704216003418	
31	82.89637017250061	movie	1		301.0	29.0	2.5	/experiments/knapen_aot/videos/S_yt-JmmyeMOFpII_29.mp4	0.0	231.0252251625061	2.50836181640625
31	85.40473198890686	fix_post	2		12.0	29.0	2.5	/experiments/knapen_aot/videos/S_yt-JmmyeMOFpII_29.mp4	0.0	233.53358697891235	0.10002303123474121
32	85.5047550201416	fix_pre	0		13.0	30.0	2.5	/experiments/knapen_aot/videos/R_S_yt-9Ow95khYa_M_91.mp4	0.0	233.6336100101471	0.10826802253723145
32	85.604807138443	response	0	2		30.0	2.5	/experiments/knapen_aot/videos/R_S_yt-9Ow95khYa_M_91.mp4	0.0	233.7336621284485	
32	85.61302304267883	movie	1		301.0	30.0	2.5	/experiments/knapen_aot/videos/R_S_yt-9Ow95khYa_M_91.mp4	0.0	233.74187803268433	2.508327007293701
32	88.12135004997253	fix_post	2		12.0	30.0	2.5	/experiments/knapen_aot/videos/R_S_yt-9Ow95khYa_M_91.mp4	0.0	236.25020503997803	0.10002398490905762
33	88.22137403488159	fix_pre	0		18.0	31.0	2.5	/experiments/knapen_aot/videos/S_yt-Fm97IY0Z2LU_110.mp4	0.0	236.35022902488708	0.14997410774230957
33	88.35564613342285	response	0	2		31.0	2.5	/experiments/knapen_aot/videos/S_yt-Fm97IY0Z2LU_110.mp4	0.0	236.48450112342834	
33	88.3713481426239	movie	1		300.0	31.0	2.5	/experiments/knapen_aot/videos/S_yt-Fm97IY0Z2LU_110.mp4	0.0	236.5002031326294	2.5083529949188232
33	90.87970113754272	fix_post	2		12.0	31.0	2.5	/experiments/knapen_aot/videos/S_yt-Fm97IY0Z2LU_110.mp4	0.0	239.00855612754822	0.09992790222167969
34	90.9796290397644	fix_pre	0		38.0	32.0	2.5	/experiments/knapen_aot/videos/S_yt-PRqnM7xDsus_24.mp4	0.0	239.1084840297699	0.3176901340484619
34	91.2881441116333	response	0	2		32.0	2.5	/experiments/knapen_aot/videos/S_yt-PRqnM7xDsus_24.mp4	0.0	239.4169991016388	
34	91.29731917381287	movie	1		301.0	32.0	2.5	/experiments/knapen_aot/videos/S_yt-PRqnM7xDsus_24.mp4	0.0	239.42617416381836	2.5074048042297363
34	93.8047239780426	fix_post	2		12.0	32.0	2.5	/experiments/knapen_aot/videos/S_yt-PRqnM7xDsus_24.mp4	0.0	241.9335789680481	0.09993410110473633
35	93.90465807914734	fix_pre	0		21.0	33.0	2.5	/experiments/knapen_aot/videos/R_S_ILSVRC2015_train_00569002.mp4	0.0	242.03351306915283	0.17500996589660645
35	94.07141304016113	response	0	2		33.0	2.5	/experiments/knapen_aot/videos/R_S_ILSVRC2015_train_00569002.mp4	0.0	242.20026803016663	
35	94.07966804504395	movie	1		299.0	33.0	2.5	/experiments/knapen_aot/videos/R_S_ILSVRC2015_train_00569002.mp4	0.0	242.20852303504944	2.5083401203155518
35	96.5880081653595	fix_post	2		12.0	33.0	2.5	/experiments/knapen_aot/videos/R_S_ILSVRC2015_train_00569002.mp4	0.0	244.716863155365	0.10003900527954102
36	96.68804717063904	fix_pre	0		17.0	34.0	2.5	blank	1.0	244.81690216064453	0.14167189598083496
36	96.82151103019714	response	0	2		34.0	2.5	blank	1.0	244.95036602020264	
36	96.82971906661987	movie	1		301.0	34.0	2.5	blank	1.0	244.95857405662537	2.508331060409546
36	99.33805012702942	fix_post	2		12.0	34.0	2.5	blank	1.0	247.4669051170349	0.0999898910522461
37	99.43804001808167	fix_pre	0		32.0	35.0	2.5	/experiments/knapen_aot/videos/R_S_yt-7NjoFHBdP7c_102.mp4	0.0	247.56689500808716	0.26663899421691895
37	99.69648504257202	response	0	2		35.0	2.5	/experiments/knapen_aot/videos/R_S_yt-7NjoFHBdP7c_102.mp4	0.0	247.82534003257751	
37	99.70467901229858	movie	1		301.0	35.0	2.5	/experiments/knapen_aot/videos/R_S_yt-7NjoFHBdP7c_102.mp4	0.0	247.83353400230408	2.5083420276641846
37	102.21302103996277	fix_post	2		12.0	35.0	2.5	/experiments/knapen_aot/videos/R_S_yt-7NjoFHBdP7c_102.mp4	0.0	250.34187602996826	0.09998798370361328
38	102.31300902366638	fix_pre	0		12.0	36.0	2.5	/experiments/knapen_aot/videos/R_S_yt-Iu2ZPHLqXuY_32.mp4	0.0	250.44186401367188	0.099945068359375
38	102.40481400489807	response	0	2		36.0	2.5	/experiments/knapen_aot/videos/R_S_yt-Iu2ZPHLqXuY_32.mp4	0.0	250.53366899490356	
38	102.41295409202576	movie	1		301.0	36.0	2.5	/experiments/knapen_aot/videos/R_S_yt-Iu2ZPHLqXuY_32.mp4	0.0	250.54180908203125	2.508359909057617
38	104.92131400108337	fix_post	2		12.0	36.0	2.5	/experiments/knapen_aot/videos/R_S_yt-Iu2ZPHLqXuY_32.mp4	0.0	253.05016899108887	0.1000521183013916
39	105.02136611938477	fix_pre	0		12.0	37.0	2.5	/experiments/knapen_aot/videos/R_S_BO_A014_C008_SDR_20190719_SDR_2K_AVC.mp4	0.0	253.15022110939026	0.09995102882385254
39	105.11314296722412	response	0	2		37.0	2.5	/experiments/knapen_aot/videos/R_S_BO_A014_C008_SDR_20190719_SDR_2K_AVC.mp4	0.0	253.24199795722961	
39	105.12131714820862	movie	1		165.0	37.0	2.5	/experiments/knapen_aot/videos/R_S_BO_A014_C008_SDR_20190719_SDR_2K_AVC.mp4	0.0	253.2501721382141	2.5083658695220947
39	107.62968301773071	fix_post	2		12.0	37.0	2.5	/experiments/knapen_aot/videos/R_S_BO_A014_C008_SDR_20190719_SDR_2K_AVC.mp4	0.0	255.7585380077362	0.10000109672546387
40	107.72968411445618	fix_pre	0		12.0	38.0	2.5	/experiments/knapen_aot/videos/S_yt-ObT9gF8E_tU_250.mp4	0.0	255.85853910446167	0.10002589225769043
40	107.82143497467041	response	0	2		38.0	2.5	/experiments/knapen_aot/videos/S_yt-ObT9gF8E_tU_250.mp4	0.0	255.9502899646759	
40	107.82971000671387	movie	1		301.0	38.0	2.5	/experiments/knapen_aot/videos/S_yt-ObT9gF8E_tU_250.mp4	0.0	255.95856499671936	2.5083000659942627
40	110.33801007270813	fix_post	2		12.0	38.0	2.5	/experiments/knapen_aot/videos/S_yt-ObT9gF8E_tU_250.mp4	0.0	258.4668650627136	0.09997296333312988
41	110.43798303604126	fix_pre	0		9.0	39.0	2.5	/experiments/knapen_aot/videos/S_yt-Rsfo57AlpLA_332.mp4	0.0	258.56683802604675	0.07503294944763184
41	110.50482702255249	response	0	2		39.0	2.5	/experiments/knapen_aot/videos/S_yt-Rsfo57AlpLA_332.mp4	0.0	258.633682012558	
41	110.51301598548889	movie	1		301.0	39.0	2.5	/experiments/knapen_aot/videos/S_yt-Rsfo57AlpLA_332.mp4	0.0	258.6418709754944	2.508251190185547
41	113.02126717567444	fix_post	2		12.0	39.0	2.5	/experiments/knapen_aot/videos/S_yt-Rsfo57AlpLA_332.mp4	0.0	261.15012216567993	0.09999489784240723
41	113.11303997039795	response	2	2		39.0	2.5	/experiments/knapen_aot/videos/S_yt-Rsfo57AlpLA_332.mp4	0.0	261.24189496040344	
42	113.12126207351685	fix_pre	0		56.0	40.0	2.5	/experiments/knapen_aot/videos/R_S_yt-0Ut9QANGX20_35.mp4	0.0	261.25011706352234	0.46752095222473145
42	113.57971715927124	response	0	2		40.0	2.5	/experiments/knapen_aot/videos/R_S_yt-0Ut9QANGX20_35.mp4	0.0	261.70857214927673	
42	113.58878302574158	movie	1		301.0	40.0	2.5	/experiments/knapen_aot/videos/R_S_yt-0Ut9QANGX20_35.mp4	0.0	261.71763801574707	2.5075490474700928
42	116.09633207321167	fix_post	2		12.0	40.0	2.5	/experiments/knapen_aot/videos/R_S_yt-0Ut9QANGX20_35.mp4	0.0	264.22518706321716	0.09998893737792969
43	116.1963210105896	fix_pre	0		24.0	41.0	2.5	/experiments/knapen_aot/videos/S_comp_GMT314_139M_170NC_NORTH_AMERICA_AURORA__COMP_v22_SDR_20181206_v12CC_SDR_2K_AVC.mp4	0.0	264.3251760005951	0.1999499797821045
43	116.38809108734131	response	0	2		41.0	2.5	/experiments/knapen_aot/videos/S_comp_GMT314_139M_170NC_NORTH_AMERICA_AURORA__COMP_v22_SDR_20181206_v12CC_SDR_2K_AVC.mp4	0.0	264.5169460773468	
43	116.3962709903717	movie	1		165.0	41.0	2.5	/experiments/knapen_aot/videos/S_comp_GMT314_139M_170NC_NORTH_AMERICA_AURORA__COMP_v22_SDR_20181206_v12CC_SDR_2K_AVC.mp4	0.0	264.5251259803772	2.508368968963623
43	118.90463995933533	fix_post	2		12.0	41.0	2.5	/experiments/knapen_aot/videos/S_comp_GMT314_139M_170NC_NORTH_AMERICA_AURORA__COMP_v22_SDR_20181206_v12CC_SDR_2K_AVC.mp4	0.0	267.0334949493408	0.0999751091003418
44	119.00461506843567	fix_pre	0		22.0	42.0	2.5	blank	1.0	267.13347005844116	0.18333101272583008
44	119.17224216461182	response	0	2		42.0	2.5	blank	1.0	267.3010971546173	
44	119.1879460811615	movie	1		301.0	42.0	2.5	blank	1.0	267.316801071167	2.5083279609680176
44	121.69627404212952	fix_post	2		12.0	42.0	2.5	blank	1.0	269.825129032135	0.09996294975280762
45	121.79623699188232	fix_pre	0		40.0	43.0	2.5	/experiments/knapen_aot/videos/S_yt-_zDYi2P-QxY_128.mp4	0.0	269.9250919818878	0.33418917655944824
45	122.1213960647583	response	0	2		43.0	2.5	/experiments/knapen_aot/videos/S_yt-_zDYi2P-QxY_128.mp4	0.0	270.2502510547638	
45	122.13042616844177	movie	1		300.0	43.0	2.5	/experiments/knapen_aot/videos/S_yt-_zDYi2P-QxY_128.mp4	0.0	270.25928115844727	2.50746488571167
45	124.63789105415344	fix_post	2		12.0	43.0	2.5	/experiments/knapen_aot/videos/S_yt-_zDYi2P-QxY_128.mp4	0.0	272.76674604415894	0.10001993179321289
46	124.73791098594666	fix_pre	0		12.0	44.0	2.5	/experiments/knapen_aot/videos/R_S__9v_wUywaAA_35.mp4	0.0	272.86676597595215	0.10075497627258301
46	124.82968616485596	response	0	2		44.0	2.5	/experiments/knapen_aot/videos/R_S__9v_wUywaAA_35.mp4	0.0	272.95854115486145	
46	124.83866596221924	movie	1		301.0	44.0	2.5	/experiments/knapen_aot/videos/R_S__9v_wUywaAA_35.mp4	0.0	272.96752095222473	2.507534980773926
46	127.34620094299316	fix_post	2		12.0	44.0	2.5	/experiments/knapen_aot/videos/R_S__9v_wUywaAA_35.mp4	0.0	275.47505593299866	0.10008001327514648
47	127.44628095626831	fix_pre	0		26.0	45.0	2.5	/experiments/knapen_aot/videos/S_comp_CH_C007_C004_PSNK_v02_SDR_PS_FINAL_20180709_SDR_2K_AVC.mp4	0.0	275.5751359462738	0.2165980339050293
47	127.65469098091125	response	0	2		45.0	2.5	/experiments/knapen_aot/videos/S_comp_CH_C007_C004_PSNK_v02_SDR_PS_FINAL_20180709_SDR_2K_AVC.mp4	0.0	275.78354597091675	
47	127.66287899017334	movie	1		172.0	45.0	2.5	/experiments/knapen_aot/videos/S_comp_CH_C007_C004_PSNK_v02_SDR_PS_FINAL_20180709_SDR_2K_AVC.mp4	0.0	275.79173398017883	2.5083370208740234
47	130.17121601104736	fix_post	2		12.0	45.0	2.5	/experiments/knapen_aot/videos/S_comp_CH_C007_C004_PSNK_v02_SDR_PS_FINAL_20180709_SDR_2K_AVC.mp4	0.0	278.30007100105286	0.09999895095825195
47	130.23890900611877	response	2	2		45.0	2.5	/experiments/knapen_aot/videos/S_comp_CH_C007_C004_PSNK_v02_SDR_PS_FINAL_20180709_SDR_2K_AVC.mp4	0.0	278.36776399612427	
48	130.27121496200562	fix_pre	0		57.0	46.0	2.5	/experiments/knapen_aot/videos/R_S_yt-R9Iabv0XgOQ_80.mp4	0.0	278.4000699520111	0.47500109672546387
48	130.7380349636078	response	0	2		46.0	2.5	/experiments/knapen_aot/videos/R_S_yt-R9Iabv0XgOQ_80.mp4	0.0	278.8668899536133	
48	130.74621605873108	movie	1		301.0	46.0	2.5	/experiments/knapen_aot/videos/R_S_yt-R9Iabv0XgOQ_80.mp4	0.0	278.8750710487366	2.508286952972412
48	133.2545030117035	fix_post	2		12.0	46.0	2.5	/experiments/knapen_aot/videos/R_S_yt-R9Iabv0XgOQ_80.mp4	0.0	281.383358001709	0.1000051498413086
49	133.3545081615448	fix_pre	0		20.0	47.0	2.5	blank	1.0	281.4833631515503	0.1666088104248047
49	133.51296496391296	response	0	2		47.0	2.5	blank	1.0	281.64181995391846	
49	133.5211169719696	movie	1		301.0	47.0	2.5	blank	1.0	281.6499719619751	2.508406162261963
49	136.02952313423157	fix_post	2		12.0	47.0	2.5	blank	1.0	284.15837812423706	0.10003995895385742
50	136.12956309318542	fix_pre	0		26.0	48.0	2.5	/experiments/knapen_aot/videos/R_S_ILSVRC2015_train_00067005.mp4	0.0	284.2584180831909	0.21651887893676758
50	136.3379499912262	response	0	2		48.0	2.5	/experiments/knapen_aot/videos/R_S_ILSVRC2015_train_00067005.mp4	0.0	284.4668049812317	
50	136.3460819721222	movie	1		300.0	48.0	2.5	/experiments/knapen_aot/videos/R_S_ILSVRC2015_train_00067005.mp4	0.0	284.4749369621277	2.508411169052124
50	138.85449314117432	fix_post	2		12.0	48.0	2.5	/experiments/knapen_aot/videos/R_S_ILSVRC2015_train_00067005.mp4	0.0	286.9833481311798	0.10002493858337402
51	138.9545180797577	fix_pre	0		20.0	49.0	2.5	/experiments/knapen_aot/videos/R_S_ioSkDvwpEaU_35.mp4	0.0	287.0833730697632	0.16665387153625488
51	139.11291813850403	response	0	2		49.0	2.5	/experiments/knapen_aot/videos/R_S_ioSkDvwpEaU_35.mp4	0.0	287.2417731285095	
51	139.12117195129395	movie	1		301.0	49.0	2.5	/experiments/knapen_aot/videos/R_S_ioSkDvwpEaU_35.mp4	0.0	287.25002694129944	2.50832200050354
51	141.62949395179749	fix_post	2		12.0	49.0	2.5	/experiments/knapen_aot/videos/R_S_ioSkDvwpEaU_35.mp4	0.0	289.758348941803	0.09995007514953613
52	141.72944402694702	fix_pre	0		23.0	50.0	2.5	/experiments/knapen_aot/videos/S_yt-EKPrSw5xF7k_112.mp4	0.0	289.8582990169525	0.19240498542785645
52	141.91289401054382	response	0	2		50.0	2.5	/experiments/knapen_aot/videos/S_yt-EKPrSw5xF7k_112.mp4	0.0	290.0417490005493	
52	141.92184901237488	movie	1		301.0	50.0	2.5	/experiments/knapen_aot/videos/S_yt-EKPrSw5xF7k_112.mp4	0.0	290.05070400238037	2.5076229572296143
52	144.4294719696045	fix_post	2		12.0	50.0	2.5	/experiments/knapen_aot/videos/S_yt-EKPrSw5xF7k_112.mp4	0.0	292.55832695961	0.09998917579650879
53	144.529461145401	fix_pre	0		30.0	51.0	2.5	/experiments/knapen_aot/videos/R_S_yt-Iu2ZPHLqXuY_32.mp4	0.0	292.6583161354065	0.24997901916503906
53	144.77126908302307	response	0	2		51.0	2.5	/experiments/knapen_aot/videos/R_S_yt-Iu2ZPHLqXuY_32.mp4	0.0	292.90012407302856	
53	144.77944016456604	movie	1		301.0	51.0	2.5	/experiments/knapen_aot/videos/R_S_yt-Iu2ZPHLqXuY_32.mp4	0.0	292.90829515457153	2.508309841156006
53	147.28775000572205	fix_post	2		12.0	51.0	2.5	/experiments/knapen_aot/videos/R_S_yt-Iu2ZPHLqXuY_32.mp4	0.0	295.41660499572754	0.10002803802490234
54	147.38777804374695	fix_pre	0		19.0	52.0	2.5	/experiments/knapen_aot/videos/R_S_yt-GETRVzxihhM_74.mp4	0.0	295.51663303375244	0.1590580940246582
54	147.53783917427063	response	0	2		52.0	2.5	/experiments/knapen_aot/videos/R_S_yt-GETRVzxihhM_74.mp4	0.0	295.6666941642761	
54	147.5468361377716	movie	1		301.0	52.0	2.5	/experiments/knapen_aot/videos/R_S_yt-GETRVzxihhM_74.mp4	0.0	295.6756911277771	2.507544994354248
54	150.05438113212585	fix_post	2		12.0	52.0	2.5	/experiments/knapen_aot/videos/R_S_yt-GETRVzxihhM_74.mp4	0.0	298.18323612213135	0.1000669002532959
55	150.15444803237915	fix_pre	0		52.0	53.0	2.5	/experiments/knapen_aot/videos/S_ILSVRC2015_train_00569002.mp4	0.0	298.28330302238464	0.43394899368286133
55	150.57960104942322	response	0	2		53.0	2.5	/experiments/knapen_aot/videos/S_ILSVRC2015_train_00569002.mp4	0.0	298.7084560394287	
55	150.588397026062	movie	1		301.0	53.0	2.5	/experiments/knapen_aot/videos/S_ILSVRC2015_train_00569002.mp4	0.0	298.7172520160675	2.5076940059661865
55	153.0960910320282	fix_post	2		12.0	53.0	2.5	/experiments/knapen_aot/videos/S_ILSVRC2015_train_00569002.mp4	0.0	301.2249460220337	0.10001206398010254
56	153.1961030960083	fix_pre	0		79.0	54.0	2.5	blank	1.0	301.3249580860138	0.6582720279693604
56	153.84621810913086	response	0	2		54.0	2.5	blank	1.0	301.97507309913635	
56	153.85437512397766	movie	1		301.0	54.0	2.5	blank	1.0	301.98323011398315	2.5083889961242676
56	156.36276412010193	fix_post	2		12.0	54.0	2.5	blank	1.0	304.4916191101074	0.10004901885986328
57	156.4628131389618	fix_pre	0		28.0	55.0	2.5	/experiments/knapen_aot/videos/S_yt-BLmwmX-mni8_1030.mp4	0.0	304.5916681289673	0.23334288597106934
57	156.68792510032654	response	0	2		55.0	2.5	/experiments/knapen_aot/videos/S_yt-BLmwmX-mni8_1030.mp4	0.0	304.81678009033203	
57	156.69615602493286	movie	1		301.0	55.0	2.5	/experiments/knapen_aot/videos/S_yt-BLmwmX-mni8_1030.mp4	0.0	304.82501101493835	2.5082309246063232
57	159.20438694953918	fix_post	2		12.0	55.0	2.5	/experiments/knapen_aot/videos/S_yt-BLmwmX-mni8_1030.mp4	0.0	307.3332419395447	0.09994316101074219
58	159.30433011054993	fix_pre	0		6.0	56.0	2.5	/experiments/knapen_aot/videos/S_yt-nS2QqSQbjOQ_39.mp4	0.0	307.4331851005554	0.05006599426269531
58	159.34623408317566	response	0	2		56.0	2.5	/experiments/knapen_aot/videos/S_yt-nS2QqSQbjOQ_39.mp4	0.0	307.47508907318115	
58	159.35439610481262	movie	1		299.0	56.0	2.5	/experiments/knapen_aot/videos/S_yt-nS2QqSQbjOQ_39.mp4	0.0	307.4832510948181	2.5083210468292236
58	161.86271715164185	fix_post	2		12.0	56.0	2.5	/experiments/knapen_aot/videos/S_yt-nS2QqSQbjOQ_39.mp4	0.0	309.99157214164734	0.09996986389160156
59	161.96268701553345	fix_pre	0		10.0	57.0	2.5	/experiments/knapen_aot/videos/R_S_yt-RO4mhuXBVrY_67.mp4	0.0	310.09154200553894	0.08400893211364746
59	162.03788995742798	response	0	2		57.0	2.5	/experiments/knapen_aot/videos/R_S_yt-RO4mhuXBVrY_67.mp4	0.0	310.1667449474335	
59	162.0466959476471	movie	1		301.0	57.0	2.5	/experiments/knapen_aot/videos/R_S_yt-RO4mhuXBVrY_67.mp4	0.0	310.1755509376526	2.5076711177825928
59	164.5543670654297	fix_post	2		12.0	57.0	2.5	/experiments/knapen_aot/videos/R_S_yt-RO4mhuXBVrY_67.mp4	0.0	312.6832220554352	0.09999489784240723
60	164.6543619632721	fix_pre	0		30.0	58.0	2.5	/experiments/knapen_aot/videos/R_S_production_ID_4325509.mp4	0.0	312.7832169532776	0.2500631809234619
60	164.89621305465698	response	0	2		58.0	2.5	/experiments/knapen_aot/videos/R_S_production_ID_4325509.mp4	0.0	313.0250680446625	
60	164.90442514419556	movie	1		199.0	58.0	2.5	/experiments/knapen_aot/videos/R_S_production_ID_4325509.mp4	0.0	313.03328013420105	2.508297920227051
60	167.4127230644226	fix_post	2		12.0	58.0	2.5	/experiments/knapen_aot/videos/R_S_production_ID_4325509.mp4	0.0	315.5415780544281	0.0999610424041748
61	167.51268410682678	fix_pre	0		30.0	59.0	2.5	/experiments/knapen_aot/videos/S_yt-hvuC_2YXsTQ_73.mp4	0.0	315.6415390968323	0.2500169277191162
61	167.7545120716095	response	0	2		59.0	2.5	/experiments/knapen_aot/videos/S_yt-hvuC_2YXsTQ_73.mp4	0.0	315.883367061615	
61	167.7627010345459	movie	1		301.0	59.0	2.5	/experiments/knapen_aot/videos/S_yt-hvuC_2YXsTQ_73.mp4	0.0	315.8915560245514	2.508355140686035
61	170.27105617523193	fix_post	2		12.0	59.0	2.5	/experiments/knapen_aot/videos/S_yt-hvuC_2YXsTQ_73.mp4	0.0	318.3999111652374	0.09997177124023438
62	170.37102794647217	fix_pre	0		39.0	60.0	2.5	/experiments/knapen_aot/videos/S_yt-KM_SJx8CMGc_10.mp4	0.0	318.49988293647766	0.32500219345092773
62	170.68791794776917	response	0	2		60.0	2.5	/experiments/knapen_aot/videos/S_yt-KM_SJx8CMGc_10.mp4	0.0	318.81677293777466	
62	170.6960301399231	movie	1		301.0	60.0	2.5	/experiments/knapen_aot/videos/S_yt-KM_SJx8CMGc_10.mp4	0.0	318.8248851299286	2.5083019733428955
62	173.204332113266	fix_post	2		12.0	60.0	2.5	/experiments/knapen_aot/videos/S_yt-KM_SJx8CMGc_10.mp4	0.0	321.3331871032715	0.09994292259216309
63	173.30427503585815	fix_pre	0		27.0	61.0	2.5	/experiments/knapen_aot/videos/S_yt-2lnxIdOTxog_157.mp4	0.0	321.43313002586365	0.2250049114227295
63	173.51371216773987	response	0	2		61.0	2.5	/experiments/knapen_aot/videos/S_yt-2lnxIdOTxog_157.mp4	0.0	321.64256715774536	
63	173.52927994728088	movie	1		301.0	61.0	2.5	/experiments/knapen_aot/videos/S_yt-2lnxIdOTxog_157.mp4	0.0	321.6581349372864	2.5083980560302734
63	176.03767800331116	fix_post	2		12.0	61.0	2.5	/experiments/knapen_aot/videos/S_yt-2lnxIdOTxog_157.mp4	0.0	324.16653299331665	0.10007214546203613
64	176.1377501487732	fix_pre	0		17.0	62.0	2.5	blank	1.0	324.2666051387787	0.14154887199401855
64	176.27102708816528	response	0	2		62.0	2.5	blank	1.0	324.3998820781708	
64	176.2792990207672	movie	1		301.0	62.0	2.5	blank	1.0	324.4081540107727	2.5083401203155518
64	178.78763914108276	fix_post	2		12.0	62.0	2.5	blank	1.0	326.91649413108826	0.09995388984680176
65	178.88759303092957	fix_pre	0		33.0	63.0	2.5	/experiments/knapen_aot/videos/R_S_yt-vjed5qyKqZw_1.mp4	0.0	327.01644802093506	0.27497196197509766
65	179.15441417694092	response	0	2		63.0	2.5	/experiments/knapen_aot/videos/R_S_yt-vjed5qyKqZw_1.mp4	0.0	327.2832691669464	
65	179.16256499290466	movie	1		301.0	63.0	2.5	/experiments/knapen_aot/videos/R_S_yt-vjed5qyKqZw_1.mp4	0.0	327.29141998291016	2.5083181858062744
65	181.67088317871094	fix_post	2		12.0	63.0	2.5	/experiments/knapen_aot/videos/R_S_yt-vjed5qyKqZw_1.mp4	0.0	329.79973816871643	0.10003495216369629
66	181.77091813087463	fix_pre	0		3.0	64.0	2.5	/experiments/knapen_aot/videos/R_S_yt-KpOAdMtPGFs_17.mp4	0.0	329.8997731208801	0.02556896209716797
66	181.78774905204773	response	0	2		64.0	2.5	/experiments/knapen_aot/videos/R_S_yt-KpOAdMtPGFs_17.mp4	0.0	329.9166040420532	
66	181.7964870929718	movie	1		301.0	64.0	2.5	/experiments/knapen_aot/videos/R_S_yt-KpOAdMtPGFs_17.mp4	0.0	329.9253420829773	2.507906913757324
66	184.30439400672913	fix_post	2		12.0	64.0	2.5	/experiments/knapen_aot/videos/R_S_yt-KpOAdMtPGFs_17.mp4	0.0	332.4332489967346	0.09994697570800781
67	184.40434098243713	fix_pre	0		17.0	65.0	2.5	/experiments/knapen_aot/videos/S_yt-TqVe93JCGmM_12.mp4	0.0	332.5331959724426	0.14207100868225098
67	184.53772497177124	response	0	2		65.0	2.5	/experiments/knapen_aot/videos/S_yt-TqVe93JCGmM_12.mp4	0.0	332.66657996177673	
67	184.54641199111938	movie	1		301.0	65.0	2.5	/experiments/knapen_aot/videos/S_yt-TqVe93JCGmM_12.mp4	0.0	332.6752669811249	2.5079050064086914
67	187.05431699752808	fix_post	2		12.0	65.0	2.5	/experiments/knapen_aot/videos/S_yt-TqVe93JCGmM_12.mp4	0.0	335.18317198753357	0.10003209114074707
68	187.15434908866882	fix_pre	0		23.0	66.0	2.5	/experiments/knapen_aot/videos/R_S_yt-E8EDQCPbBeI_196.mp4	0.0	335.2832040786743	0.19988608360290527
68	187.3460340499878	response	0	2		66.0	2.5	/experiments/knapen_aot/videos/R_S_yt-E8EDQCPbBeI_196.mp4	0.0	335.4748890399933	
68	187.35423517227173	movie	1		301.0	66.0	2.5	/experiments/knapen_aot/videos/R_S_yt-E8EDQCPbBeI_196.mp4	0.0	335.4830901622772	2.508354902267456
68	189.86259007453918	fix_post	2		12.0	66.0	2.5	/experiments/knapen_aot/videos/R_S_yt-E8EDQCPbBeI_196.mp4	0.0	337.9914450645447	0.09999704360961914
69	189.9625871181488	fix_pre	0		28.0	67.0	2.5	/experiments/knapen_aot/videos/R_S_yt-hekMMCluhnU_18.mp4	0.0	338.0914421081543	0.23331093788146973
69	190.1877360343933	response	0	2		67.0	2.5	/experiments/knapen_aot/videos/R_S_yt-hekMMCluhnU_18.mp4	0.0	338.3165910243988	
69	190.19589805603027	movie	1		301.0	67.0	2.5	/experiments/knapen_aot/videos/R_S_yt-hekMMCluhnU_18.mp4	0.0	338.32475304603577	2.5084280967712402
69	192.7043261528015	fix_post	2		12.0	67.0	2.5	/experiments/knapen_aot/videos/R_S_yt-hekMMCluhnU_18.mp4	0.0	340.833181142807	0.10004496574401855
70	192.80437111854553	fix_pre	0		21.0	68.0	2.5	blank	1.0	340.933226108551	0.17492985725402832
70	192.97114610671997	response	0	2		68.0	2.5	blank	1.0	341.10000109672546	
70	192.97930097579956	movie	1		301.0	68.0	2.5	blank	1.0	341.10815596580505	2.508277177810669
70	195.48757815361023	fix_post	2		12.0	68.0	2.5	blank	1.0	343.6164331436157	0.10004091262817383
71	195.5876190662384	fix_pre	0		29.0	69.0	2.5	/experiments/knapen_aot/videos/S_yt-mDil5vGZb14_4049.mp4	0.0	343.7164740562439	0.24164509773254395
71	195.82106494903564	response	0	2		69.0	2.5	/experiments/knapen_aot/videos/S_yt-mDil5vGZb14_4049.mp4	0.0	343.94991993904114	
71	195.82926416397095	movie	1		301.0	69.0	2.5	/experiments/knapen_aot/videos/S_yt-mDil5vGZb14_4049.mp4	0.0	343.95811915397644	2.508291006088257
71	198.3375551700592	fix_post	2		12.0	69.0	2.5	/experiments/knapen_aot/videos/S_yt-mDil5vGZb14_4049.mp4	0.0	346.4664101600647	0.10000991821289062
72	198.4375650882721	fix_pre	0		7.0	70.0	2.5	/experiments/knapen_aot/videos/R_S_yt-ObT9gF8E_tU_250.mp4	0.0	346.5664200782776	0.05829501152038574
72	198.48766613006592	response	0	2		70.0	2.5	/experiments/knapen_aot/videos/R_S_yt-ObT9gF8E_tU_250.mp4	0.0	346.6165211200714	
72	198.49586009979248	movie	1		301.0	70.0	2.5	/experiments/knapen_aot/videos/R_S_yt-ObT9gF8E_tU_250.mp4	0.0	346.624715089798	2.508336067199707
72	201.0041961669922	fix_post	2		12.0	70.0	2.5	/experiments/knapen_aot/videos/R_S_yt-ObT9gF8E_tU_250.mp4	0.0	349.1330511569977	0.09996891021728516
73	201.10416507720947	fix_pre	0		1.0	71.0	2.5	/experiments/knapen_aot/videos/S_yt-q9-_bG9ry3E_5.mp4	0.0	349.23302006721497	0.008358001708984375
73	201.0971601009369	response	0	2		71.0	2.5	/experiments/knapen_aot/videos/S_yt-q9-_bG9ry3E_5.mp4	0.0	349.2260150909424	
73	201.11252307891846	movie	1		301.0	71.0	2.5	/experiments/knapen_aot/videos/S_yt-q9-_bG9ry3E_5.mp4	0.0	349.24137806892395	2.5083839893341064
73	203.62090706825256	fix_post	2		12.0	71.0	2.5	/experiments/knapen_aot/videos/S_yt-q9-_bG9ry3E_5.mp4	0.0	351.74976205825806	0.09998106956481934
74	203.72088813781738	fix_pre	0		6.0	72.0	2.5	/experiments/knapen_aot/videos/S_pexels-cottonbro-6844209.mp4	0.0	351.8497431278229	0.05001688003540039
74	203.76281309127808	response	0	2		72.0	2.5	/experiments/knapen_aot/videos/S_pexels-cottonbro-6844209.mp4	0.0	351.89166808128357	
74	203.77090501785278	movie	1		202.0	72.0	2.5	/experiments/knapen_aot/videos/S_pexels-cottonbro-6844209.mp4	0.0	351.8997600078583	2.5082669258117676
74	206.27917194366455	fix_post	2		12.0	72.0	2.5	/experiments/knapen_aot/videos/S_pexels-cottonbro-6844209.mp4	0.0	354.40802693367004	0.10048317909240723
75	206.37965512275696	fix_pre	0		27.0	73.0	2.5	/experiments/knapen_aot/videos/R_S_ILSVRC2015_train_00044004.mp4	0.0	354.50851011276245	0.22443890571594238
75	206.59597897529602	response	0	2		73.0	2.5	/experiments/knapen_aot/videos/R_S_ILSVRC2015_train_00044004.mp4	0.0	354.7248339653015	
75	206.6040940284729	movie	1		301.0	73.0	2.5	/experiments/knapen_aot/videos/R_S_ILSVRC2015_train_00044004.mp4	0.0	354.7329490184784	2.508384943008423
75	209.11247897148132	fix_post	2		12.0	73.0	2.5	/experiments/knapen_aot/videos/R_S_ILSVRC2015_train_00044004.mp4	0.0	357.2413339614868	0.10040497779846191
76	209.21288394927979	fix_pre	0		6.0	74.0	2.5	/experiments/knapen_aot/videos/S_comp_GMT110_112NC_364D_1054_AURORA_ANTARTICA__COMP_FINAL_v34_PS_SDR_20181107_SDR_2K_AVC.mp4	0.0	357.3417389392853	0.0496211051940918
76	209.25437903404236	response	0	2		74.0	2.5	/experiments/knapen_aot/videos/S_comp_GMT110_112NC_364D_1054_AURORA_ANTARTICA__COMP_FINAL_v34_PS_SDR_20181107_SDR_2K_AVC.mp4	0.0	357.38323402404785	
76	209.26250505447388	movie	1		164.0	74.0	2.5	/experiments/knapen_aot/videos/S_comp_GMT110_112NC_364D_1054_AURORA_ANTARTICA__COMP_FINAL_v34_PS_SDR_20181107_SDR_2K_AVC.mp4	0.0	357.39136004447937	2.5082950592041016
76	211.77080011367798	fix_post	2		12.0	74.0	2.5	/experiments/knapen_aot/videos/S_comp_GMT110_112NC_364D_1054_AURORA_ANTARTICA__COMP_FINAL_v34_PS_SDR_20181107_SDR_2K_AVC.mp4	0.0	359.8996551036835	0.1000678539276123
77	211.8708679676056	fix_pre	0		3.0	75.0	2.5	blank	1.0	359.9997229576111	0.025127172470092773
77	211.880784034729	response	0	2		75.0	2.5	blank	1.0	360.0096390247345	
77	211.89599514007568	movie	1		301.0	75.0	2.5	blank	1.0	360.0248501300812	2.508173942565918
77	214.4041690826416	fix_post	2		12.0	75.0	2.5	blank	1.0	362.5330240726471	0.10038208961486816
78	214.50455117225647	fix_pre	0		77.0	76.0	2.5	/experiments/knapen_aot/videos/S_yt-2kPrGwVmRfE_169.mp4	0.0	362.63340616226196	0.6412198543548584
78	215.13769817352295	response	0	2		76.0	2.5	/experiments/knapen_aot/videos/S_yt-2kPrGwVmRfE_169.mp4	0.0	363.26655316352844	
78	215.14577102661133	movie	1		301.0	76.0	2.5	/experiments/knapen_aot/videos/S_yt-2kPrGwVmRfE_169.mp4	0.0	363.2746260166168	2.5082650184631348
78	217.65403604507446	fix_post	2		12.0	76.0	2.5	/experiments/knapen_aot/videos/S_yt-2kPrGwVmRfE_169.mp4	0.0	365.78289103507996	0.1004641056060791
79	217.75450015068054	fix_pre	0		17.0	77.0	2.5	/experiments/knapen_aot/videos/R_S_comp_H012_C009_PS_v01_SDR_PS_20180925_SDR_2K_AVC.mp4	0.0	365.88335514068604	0.14126801490783691
79	217.88760209083557	response	0	2		77.0	2.5	/experiments/knapen_aot/videos/R_S_comp_H012_C009_PS_v01_SDR_PS_20180925_SDR_2K_AVC.mp4	0.0	366.01645708084106	
79	217.89576816558838	movie	1		167.0	77.0	2.5	/experiments/knapen_aot/videos/R_S_comp_H012_C009_PS_v01_SDR_PS_20180925_SDR_2K_AVC.mp4	0.0	366.0246231555939	2.508330821990967
79	220.40409898757935	fix_post	2		12.0	77.0	2.5	/experiments/knapen_aot/videos/R_S_comp_H012_C009_PS_v01_SDR_PS_20180925_SDR_2K_AVC.mp4	0.0	368.53295397758484	0.10037016868591309
79	220.47094917297363	response	2	2		77.0	2.5	/experiments/knapen_aot/videos/R_S_comp_H012_C009_PS_v01_SDR_PS_20180925_SDR_2K_AVC.mp4	0.0	368.5998041629791	
80	220.50446915626526	fix_pre	0		38.0	78.0	2.5	/experiments/knapen_aot/videos/S_ILSVRC2015_train_00654000.mp4	0.0	368.63332414627075	0.3163168430328369
80	220.81263303756714	response	0	2		78.0	2.5	/experiments/knapen_aot/videos/S_ILSVRC2015_train_00654000.mp4	0.0	368.94148802757263	
80	220.8207859992981	movie	1		301.0	78.0	2.5	/experiments/knapen_aot/videos/S_ILSVRC2015_train_00654000.mp4	0.0	368.9496409893036	2.5083940029144287
80	223.32918000221252	fix_post	2		12.0	78.0	2.5	/experiments/knapen_aot/videos/S_ILSVRC2015_train_00654000.mp4	0.0	371.458034992218	0.09993696212768555
81	223.4291169643402	fix_pre	0		10.0	79.0	2.5	/experiments/knapen_aot/videos/S_yt-xQilXyNKsBw_42.mp4	0.0	371.5579719543457	0.08343100547790527
81	223.5046591758728	response	0	2		79.0	2.5	/experiments/knapen_aot/videos/S_yt-xQilXyNKsBw_42.mp4	0.0	371.6335141658783	
81	223.51254796981812	movie	1		301.0	79.0	2.5	/experiments/knapen_aot/videos/S_yt-xQilXyNKsBw_42.mp4	0.0	371.6414029598236	2.5082080364227295
81	226.02075600624084	fix_post	2		12.0	79.0	2.5	/experiments/knapen_aot/videos/S_yt-xQilXyNKsBw_42.mp4	0.0	374.14961099624634	0.10000109672546387
82	226.1207571029663	fix_pre	0		11.0	80.0	2.5	/experiments/knapen_aot/videos/S_ILSVRC2015_train_00371013.mp4	0.0	374.2496120929718	0.09192991256713867
82	226.2042760848999	response	0	2		80.0	2.5	/experiments/knapen_aot/videos/S_ILSVRC2015_train_00371013.mp4	0.0	374.3331310749054	
82	226.21268701553345	movie	1		301.0	80.0	2.5	/experiments/knapen_aot/videos/S_ILSVRC2015_train_00371013.mp4	0.0	374.34154200553894	2.508059024810791
82	228.72074604034424	fix_post	2		12.0	80.0	2.5	/experiments/knapen_aot/videos/S_ILSVRC2015_train_00371013.mp4	0.0	376.84960103034973	0.09997296333312988
83	228.82071900367737	fix_pre	0		20.0	81.0	2.5	/experiments/knapen_aot/videos/R_S_yt-GjFQxAklviE_25.mp4	0.0	376.94957399368286	0.16671204566955566
83	228.9791820049286	response	0	2		81.0	2.5	/experiments/knapen_aot/videos/R_S_yt-GjFQxAklviE_25.mp4	0.0	377.1080369949341	
83	228.98743104934692	movie	1		301.0	81.0	2.5	/experiments/knapen_aot/videos/R_S_yt-GjFQxAklviE_25.mp4	0.0	377.1162860393524	2.50832200050354
83	231.49575304985046	fix_post	2		12.0	81.0	2.5	/experiments/knapen_aot/videos/R_S_yt-GjFQxAklviE_25.mp4	0.0	379.62460803985596	0.10004210472106934
84	231.59579515457153	fix_pre	0		29.0	82.0	2.5	/experiments/knapen_aot/videos/S_yt-LhP0mZ6xxIg_111.mp4	0.0	379.724650144577	0.24184298515319824
84	231.82923913002014	response	0	2		82.0	2.5	/experiments/knapen_aot/videos/S_yt-LhP0mZ6xxIg_111.mp4	0.0	379.95809412002563	
84	231.83763813972473	movie	1		301.0	82.0	2.5	/experiments/knapen_aot/videos/S_yt-LhP0mZ6xxIg_111.mp4	0.0	379.9664931297302	2.5081379413604736
84	234.3457760810852	fix_post	2		12.0	82.0	2.5	/experiments/knapen_aot/videos/S_yt-LhP0mZ6xxIg_111.mp4	0.0	382.4746310710907	0.09998893737792969
84	234.37941908836365	response	2	2		82.0	2.5	/experiments/knapen_aot/videos/S_yt-LhP0mZ6xxIg_111.mp4	0.0	382.50827407836914	
85	234.44576501846313	fix_pre	0		49.0	83.0	2.5	blank	1.0	382.5746200084686	0.40829896926879883
85	234.84580612182617	response	0	2		83.0	2.5	blank	1.0	382.97466111183167	
85	234.85406398773193	movie	1		301.0	83.0	2.5	blank	1.0	382.9829189777374	2.5082809925079346
85	237.36234498023987	fix_post	2		12.0	83.0	2.5	blank	1.0	385.49119997024536	0.10023903846740723
87	237.46258401870728	stim	0		243.0					385.59143900871277	2.0278100967407227
87	237.76251196861267	response	0	2						385.89136695861816	
87	239.4828541278839	response	0	space						387.6117091178894	
