trial_nr	onset	event_type	phase	response	nr_frames	movie_index	movie_duration	movie_file	blank	onset_abs	duration
0	0.15400409698486328	stim	0		101.0					57.57607412338257	0.83992600440979
0	0.5168149471282959	response	0	escape						57.938884973526	
0	0.9834768772125244	response	0	space						58.40554690361023	
1	0.9939301013946533	stim	0		121.0					58.41600012779236	1.0057029724121094
1	1.9080939292907715	response	0	space						59.33016395568848	
1	1.9996330738067627	stim	1		120.0					59.42170310020447	0.9999489784240723
1	2.933180093765259	response	1	space						60.355250120162964	
2	2.999582052230835	fix_pre	0		36.0	0.0	2.5	/experiments/knapen_aot/videos/R_S_production_ID_4325585.mp4	0.0	60.42165207862854	0.29999589920043945
2	3.291332960128784	response	0	space		0.0	2.5	/experiments/knapen_aot/videos/R_S_production_ID_4325585.mp4	0.0	60.71340298652649	
2	3.2995779514312744	movie	1		196.0	0.0	2.5	/experiments/knapen_aot/videos/R_S_production_ID_4325585.mp4	0.0	60.72164797782898	2.5083539485931396
2	5.807931900024414	fix_post	2		12.0	0.0	2.5	/experiments/knapen_aot/videos/R_S_production_ID_4325585.mp4	0.0	63.23000192642212	0.0999910831451416
3	5.907922983169556	fix_pre	0		62.0	1.0	2.5	/experiments/knapen_aot/videos/R_S_ILSVRC2015_train_00165012.mp4	0.0	63.32999300956726	0.516577959060669
3	6.416871070861816	response	0	2		1.0	2.5	/experiments/knapen_aot/videos/R_S_ILSVRC2015_train_00165012.mp4	0.0	63.83894109725952	
3	6.424500942230225	movie	1		301.0	1.0	2.5	/experiments/knapen_aot/videos/R_S_ILSVRC2015_train_00165012.mp4	0.0	63.84657096862793	2.5084550380706787
3	8.932955980300903	fix_post	2		12.0	1.0	2.5	/experiments/knapen_aot/videos/R_S_ILSVRC2015_train_00165012.mp4	0.0	66.35502600669861	0.10000300407409668
4	9.032958984375	fix_pre	0		37.0	2.0	2.5	/experiments/knapen_aot/videos/S_pexels-tima-miroshnichenko-6077718.mp4	0.0	66.4550290107727	0.3083319664001465
4	9.333091974258423	response	0	2		2.0	2.5	/experiments/knapen_aot/videos/S_pexels-tima-miroshnichenko-6077718.mp4	0.0	66.75516200065613	
4	9.341290950775146	movie	1		166.0	2.0	2.5	/experiments/knapen_aot/videos/S_pexels-tima-miroshnichenko-6077718.mp4	0.0	66.76336097717285	2.508273124694824
4	11.84956407546997	fix_post	2		12.0	2.0	2.5	/experiments/knapen_aot/videos/S_pexels-tima-miroshnichenko-6077718.mp4	0.0	69.27163410186768	0.10009479522705078
5	11.949658870697021	fix_pre	0		26.0	3.0	2.5	/experiments/knapen_aot/videos/R_S_yt-8aJDzfAaArQ_75.mp4	0.0	69.37172889709473	0.2174701690673828
5	12.158019065856934	response	0	2		3.0	2.5	/experiments/knapen_aot/videos/R_S_yt-8aJDzfAaArQ_75.mp4	0.0	69.58008909225464	
5	12.167129039764404	movie	1		301.0	3.0	2.5	/experiments/knapen_aot/videos/R_S_yt-8aJDzfAaArQ_75.mp4	0.0	69.58919906616211	2.507459878921509
5	14.674588918685913	fix_post	2		12.0	3.0	2.5	/experiments/knapen_aot/videos/R_S_yt-8aJDzfAaArQ_75.mp4	0.0	72.09665894508362	0.10009598731994629
6	14.77468490600586	fix_pre	0		39.0	4.0	2.5	/experiments/knapen_aot/videos/R_S_pexels-c-technical-6491262.mp4	0.0	72.19675493240356	0.3248560428619385
6	15.091363906860352	response	0	2		4.0	2.5	/experiments/knapen_aot/videos/R_S_pexels-c-technical-6491262.mp4	0.0	72.51343393325806	
6	15.099540948867798	movie	1		198.0	4.0	2.5	/experiments/knapen_aot/videos/R_S_pexels-c-technical-6491262.mp4	0.0	72.5216109752655	2.508366107940674
6	17.60790705680847	fix_post	2		12.0	4.0	2.5	/experiments/knapen_aot/videos/R_S_pexels-c-technical-6491262.mp4	0.0	75.02997708320618	0.09990191459655762
7	17.70780897140503	fix_pre	0		32.0	5.0	2.5	/experiments/knapen_aot/videos/S_yt-gC3my54_ChQ_58.mp4	0.0	75.12987899780273	0.26668405532836914
7	17.966257095336914	response	0	2		5.0	2.5	/experiments/knapen_aot/videos/S_yt-gC3my54_ChQ_58.mp4	0.0	75.38832712173462	
7	17.9744930267334	movie	1		301.0	5.0	2.5	/experiments/knapen_aot/videos/S_yt-gC3my54_ChQ_58.mp4	0.0	75.3965630531311	2.50838303565979
7	20.48287606239319	fix_post	2		12.0	5.0	2.5	/experiments/knapen_aot/videos/S_yt-gC3my54_ChQ_58.mp4	0.0	77.9049460887909	0.10004901885986328
8	20.58292508125305	fix_pre	0		53.0	6.0	2.5	blank	1.0	78.00499510765076	0.4415149688720703
8	21.01633596420288	response	0	2		6.0	2.5	blank	1.0	78.43840599060059	
8	21.024440050125122	movie	1		301.0	6.0	2.5	blank	1.0	78.44651007652283	2.5084969997406006
8	23.532937049865723	fix_post	2		12.0	6.0	2.5	blank	1.0	80.95500707626343	0.09997296333312988
9	23.632910013198853	fix_pre	0		59.0	7.0	2.5	/experiments/knapen_aot/videos/S_FZ0hLmjCR0s_26.mp4	0.0	81.05498003959656	0.4924139976501465
9	24.116307973861694	response	0	2		7.0	2.5	/experiments/knapen_aot/videos/S_FZ0hLmjCR0s_26.mp4	0.0	81.5383780002594	
9	24.125324010849	movie	1		301.0	7.0	2.5	/experiments/knapen_aot/videos/S_FZ0hLmjCR0s_26.mp4	0.0	81.5473940372467	2.5075480937957764
9	26.632872104644775	fix_post	2		12.0	7.0	2.5	/experiments/knapen_aot/videos/S_FZ0hLmjCR0s_26.mp4	0.0	84.05494213104248	0.09993386268615723
10	26.732805967330933	fix_pre	0		51.0	8.0	2.5	/experiments/knapen_aot/videos/S_yt-ebzrQh5ErI4_3.mp4	0.0	84.15487599372864	0.4249749183654785
10	27.149619102478027	response	0	2		8.0	2.5	/experiments/knapen_aot/videos/S_yt-ebzrQh5ErI4_3.mp4	0.0	84.57168912887573	
10	27.15778088569641	movie	1		301.0	8.0	2.5	/experiments/knapen_aot/videos/S_yt-ebzrQh5ErI4_3.mp4	0.0	84.57985091209412	2.508388042449951
10	29.666168928146362	fix_post	2		12.0	8.0	2.5	/experiments/knapen_aot/videos/S_yt-ebzrQh5ErI4_3.mp4	0.0	87.08823895454407	0.09998917579650879
11	29.76615810394287	fix_pre	0		33.0	9.0	2.5	/experiments/knapen_aot/videos/S_yt-n1snPiGfg0A_45.mp4	0.0	87.18822813034058	0.27578282356262207
11	30.03315496444702	response	0	2		9.0	2.5	/experiments/knapen_aot/videos/S_yt-n1snPiGfg0A_45.mp4	0.0	87.45522499084473	
11	30.041940927505493	movie	1		301.0	9.0	2.5	/experiments/knapen_aot/videos/S_yt-n1snPiGfg0A_45.mp4	0.0	87.4640109539032	2.5075149536132812
11	32.549455881118774	fix_post	2		12.0	9.0	2.5	/experiments/knapen_aot/videos/S_yt-n1snPiGfg0A_45.mp4	0.0	89.97152590751648	0.100006103515625
12	32.6494619846344	fix_pre	0		31.0	10.0	2.5	/experiments/knapen_aot/videos/R_S_yt-O_4DgW-XKvA_35.mp4	0.0	90.0715320110321	0.25833797454833984
12	32.89200210571289	response	0	2		10.0	2.5	/experiments/knapen_aot/videos/R_S_yt-O_4DgW-XKvA_35.mp4	0.0	90.3140721321106	
12	32.90779995918274	movie	1		301.0	10.0	2.5	/experiments/knapen_aot/videos/R_S_yt-O_4DgW-XKvA_35.mp4	0.0	90.32986998558044	2.5083329677581787
12	35.41613292694092	fix_post	2		12.0	10.0	2.5	/experiments/knapen_aot/videos/R_S_yt-O_4DgW-XKvA_35.mp4	0.0	92.83820295333862	0.0999901294708252
13	35.51612305641174	fix_pre	0		28.0	11.0	2.5	/experiments/knapen_aot/videos/R_S_zAKvYNtmhuc_772.mp4	0.0	92.93819308280945	0.23421001434326172
13	35.73370599746704	response	0	2		11.0	2.5	/experiments/knapen_aot/videos/R_S_zAKvYNtmhuc_772.mp4	0.0	93.15577602386475	
13	35.750333070755005	movie	1		297.0	11.0	2.5	/experiments/knapen_aot/videos/R_S_zAKvYNtmhuc_772.mp4	0.0	93.17240309715271	2.507469892501831
13	38.257802963256836	fix_post	2		12.0	11.0	2.5	/experiments/knapen_aot/videos/R_S_zAKvYNtmhuc_772.mp4	0.0	95.67987298965454	0.09999513626098633
14	38.35779809951782	fix_pre	0		33.0	12.0	2.5	/experiments/knapen_aot/videos/R_S_comp_GL_G004_C010_PSNK_v04_SDR_PS_FINAL_20180709_SDR_2K_AVC.mp4	0.0	95.77986812591553	0.27501678466796875
14	38.62459397315979	response	0	2		12.0	2.5	/experiments/knapen_aot/videos/R_S_comp_GL_G004_C010_PSNK_v04_SDR_PS_FINAL_20180709_SDR_2K_AVC.mp4	0.0	96.0466639995575	
14	38.63281488418579	movie	1		168.0	12.0	2.5	/experiments/knapen_aot/videos/R_S_comp_GL_G004_C010_PSNK_v04_SDR_PS_FINAL_20180709_SDR_2K_AVC.mp4	0.0	96.0548849105835	2.5082950592041016
14	41.14110994338989	fix_post	2		12.0	12.0	2.5	/experiments/knapen_aot/videos/R_S_comp_GL_G004_C010_PSNK_v04_SDR_PS_FINAL_20180709_SDR_2K_AVC.mp4	0.0	98.5631799697876	0.09995913505554199
15	41.241069078445435	fix_pre	0		33.0	13.0	2.5	/experiments/knapen_aot/videos/S_video_inspire_oregon_portland_00064.1080-h264.mp4	0.0	98.66313910484314	0.27504587173461914
15	41.507853984832764	response	0	2		13.0	2.5	/experiments/knapen_aot/videos/S_video_inspire_oregon_portland_00064.1080-h264.mp4	0.0	98.92992401123047	
15	41.516114950180054	movie	1		167.0	13.0	2.5	/experiments/knapen_aot/videos/S_video_inspire_oregon_portland_00064.1080-h264.mp4	0.0	98.93818497657776	2.508301019668579
15	44.02441596984863	fix_post	2		12.0	13.0	2.5	/experiments/knapen_aot/videos/S_video_inspire_oregon_portland_00064.1080-h264.mp4	0.0	101.44648599624634	0.10001707077026367
16	44.1244330406189	fix_pre	0		36.0	14.0	2.5	blank	1.0	101.5465030670166	0.299968957901001
16	44.41629910469055	response	0	2		14.0	2.5	blank	1.0	101.83836913108826	
16	44.4244019985199	movie	1		301.0	14.0	2.5	blank	1.0	101.8464720249176	2.5083820819854736
16	46.93278408050537	fix_post	2		12.0	14.0	2.5	blank	1.0	104.35485410690308	0.09994196891784668
17	47.03272604942322	fix_pre	0		51.0	15.0	2.5	/experiments/knapen_aot/videos/S_yt-6B69qmkEdTI_1.mp4	0.0	104.45479607582092	0.42569494247436523
17	47.449498891830444	response	0	2		15.0	2.5	/experiments/knapen_aot/videos/S_yt-6B69qmkEdTI_1.mp4	0.0	104.87156891822815	
17	47.45842099189758	movie	1		301.0	15.0	2.5	/experiments/knapen_aot/videos/S_yt-6B69qmkEdTI_1.mp4	0.0	104.88049101829529	2.507654905319214
17	49.9660758972168	fix_post	2		12.0	15.0	2.5	/experiments/knapen_aot/videos/S_yt-6B69qmkEdTI_1.mp4	0.0	107.3881459236145	0.10005402565002441
18	50.06612992286682	fix_pre	0		33.0	16.0	2.5	/experiments/knapen_aot/videos/S_ILSVRC2015_train_00761000.mp4	0.0	107.48819994926453	0.27495408058166504
18	50.33281087875366	response	0	2		16.0	2.5	/experiments/knapen_aot/videos/S_ILSVRC2015_train_00761000.mp4	0.0	107.75488090515137	
18	50.341084003448486	movie	1		297.0	16.0	2.5	/experiments/knapen_aot/videos/S_ILSVRC2015_train_00761000.mp4	0.0	107.76315402984619	2.5083649158477783
18	52.849448919296265	fix_post	2		12.0	16.0	2.5	/experiments/knapen_aot/videos/S_ILSVRC2015_train_00761000.mp4	0.0	110.27151894569397	0.09991717338562012
19	52.949366092681885	fix_pre	0		35.0	17.0	2.5	/experiments/knapen_aot/videos/R_S_ILSVRC2015_train_00446000.mp4	0.0	110.37143611907959	0.2916748523712158
19	53.23287391662598	response	0	2		17.0	2.5	/experiments/knapen_aot/videos/R_S_ILSVRC2015_train_00446000.mp4	0.0	110.65494394302368	
19	53.2410409450531	movie	1		301.0	17.0	2.5	/experiments/knapen_aot/videos/R_S_ILSVRC2015_train_00446000.mp4	0.0	110.6631109714508	2.5083580017089844
19	55.749398946762085	fix_post	2		12.0	17.0	2.5	/experiments/knapen_aot/videos/R_S_ILSVRC2015_train_00446000.mp4	0.0	113.17146897315979	0.09997415542602539
20	55.84937310218811	fix_pre	0		32.0	18.0	2.5	/experiments/knapen_aot/videos/S_yt-wVMhACNFF-M_154.mp4	0.0	113.27144312858582	0.2666478157043457
20	56.10785698890686	response	0	2		18.0	2.5	/experiments/knapen_aot/videos/S_yt-wVMhACNFF-M_154.mp4	0.0	113.52992701530457	
20	56.116020917892456	movie	1		301.0	18.0	2.5	/experiments/knapen_aot/videos/S_yt-wVMhACNFF-M_154.mp4	0.0	113.53809094429016	2.5083351135253906
20	58.62435603141785	fix_post	2		12.0	18.0	2.5	/experiments/knapen_aot/videos/S_yt-wVMhACNFF-M_154.mp4	0.0	116.04642605781555	0.09999203681945801
21	58.724348068237305	fix_pre	0		50.0	19.0	2.5	blank	1.0	116.14641809463501	0.41669583320617676
21	59.13281607627869	response	0	2		19.0	2.5	blank	1.0	116.55488610267639	
21	59.14104390144348	movie	1		301.0	19.0	2.5	blank	1.0	116.56311392784119	2.508289098739624
21	61.649333000183105	fix_post	2		12.0	19.0	2.5	blank	1.0	119.07140302658081	0.10009598731994629
22	61.74942898750305	fix_pre	0		40.0	20.0	2.5	/experiments/knapen_aot/videos/R_S_yt--v_iMUMMX6g_39.mp4	0.0	119.17149901390076	0.33383703231811523
22	62.074480056762695	response	0	2		20.0	2.5	/experiments/knapen_aot/videos/R_S_yt--v_iMUMMX6g_39.mp4	0.0	119.4965500831604	
22	62.08326601982117	movie	1		301.0	20.0	2.5	/experiments/knapen_aot/videos/R_S_yt--v_iMUMMX6g_39.mp4	0.0	119.50533604621887	2.5076608657836914
22	64.59092688560486	fix_post	2		12.0	20.0	2.5	/experiments/knapen_aot/videos/R_S_yt--v_iMUMMX6g_39.mp4	0.0	122.01299691200256	0.10004901885986328
23	64.69097590446472	fix_pre	0		32.0	21.0	2.5	/experiments/knapen_aot/videos/S_yt-kxWtOXNIsRA_329.mp4	0.0	122.11304593086243	0.2672441005706787
23	64.94946908950806	response	0	2		21.0	2.5	/experiments/knapen_aot/videos/S_yt-kxWtOXNIsRA_329.mp4	0.0	122.37153911590576	
23	64.9582200050354	movie	1		301.0	21.0	2.5	/experiments/knapen_aot/videos/S_yt-kxWtOXNIsRA_329.mp4	0.0	122.3802900314331	2.507704019546509
23	67.46592402458191	fix_post	2		12.0	21.0	2.5	/experiments/knapen_aot/videos/S_yt-kxWtOXNIsRA_329.mp4	0.0	124.88799405097961	0.10005998611450195
24	67.56598401069641	fix_pre	0		51.0	22.0	2.5	/experiments/knapen_aot/videos/S_yt-GOgS--rzmKQ_51.mp4	0.0	124.98805403709412	0.4251730442047119
24	67.9828109741211	response	0	2		22.0	2.5	/experiments/knapen_aot/videos/S_yt-GOgS--rzmKQ_51.mp4	0.0	125.4048810005188	
24	67.99115705490112	movie	1		300.0	22.0	2.5	/experiments/knapen_aot/videos/S_yt-GOgS--rzmKQ_51.mp4	0.0	125.41322708129883	2.508105993270874
24	70.499263048172	fix_post	2		12.0	22.0	2.5	/experiments/knapen_aot/videos/S_yt-GOgS--rzmKQ_51.mp4	0.0	127.9213330745697	0.09995603561401367
25	70.59921908378601	fix_pre	0		54.0	23.0	2.5	/experiments/knapen_aot/videos/R_S_wc-dwTccI0TNwps_15.mp4	0.0	128.02128911018372	0.45839500427246094
25	71.03355002403259	response	0	2		23.0	2.5	/experiments/knapen_aot/videos/R_S_wc-dwTccI0TNwps_15.mp4	0.0	128.4556200504303	
25	71.05761408805847	movie	1		300.0	23.0	2.5	/experiments/knapen_aot/videos/R_S_wc-dwTccI0TNwps_15.mp4	0.0	128.47968411445618	2.5000498294830322
25	73.5576639175415	fix_post	2		12.0	23.0	2.5	/experiments/knapen_aot/videos/R_S_wc-dwTccI0TNwps_15.mp4	0.0	130.9797339439392	0.09993910789489746
26	73.6576030254364	fix_pre	0		42.0	24.0	2.5	/experiments/knapen_aot/videos/R_S_comp_A009_C001_010181A_v09_SDR_PS_FINAL_20180725_SDR_2K_AVC.mp4	0.0	131.0796730518341	0.3500099182128906
26	73.99938201904297	response	0	2		24.0	2.5	/experiments/knapen_aot/videos/R_S_comp_A009_C001_010181A_v09_SDR_PS_FINAL_20180725_SDR_2K_AVC.mp4	0.0	131.42145204544067	
26	74.00761294364929	movie	1		163.0	24.0	2.5	/experiments/knapen_aot/videos/R_S_comp_A009_C001_010181A_v09_SDR_PS_FINAL_20180725_SDR_2K_AVC.mp4	0.0	131.429682970047	2.508384943008423
26	76.51599788665771	fix_post	2		12.0	24.0	2.5	/experiments/knapen_aot/videos/R_S_comp_A009_C001_010181A_v09_SDR_PS_FINAL_20180725_SDR_2K_AVC.mp4	0.0	133.93806791305542	0.09999704360961914
27	76.61599493026733	fix_pre	0		58.0	25.0	2.5	/experiments/knapen_aot/videos/S_ILSVRC2015_train_00524006.mp4	0.0	134.03806495666504	0.483381986618042
27	77.09116792678833	response	0	2		25.0	2.5	/experiments/knapen_aot/videos/S_ILSVRC2015_train_00524006.mp4	0.0	134.51323795318604	
27	77.09937691688538	movie	1		301.0	25.0	2.5	/experiments/knapen_aot/videos/S_ILSVRC2015_train_00524006.mp4	0.0	134.52144694328308	2.5082461833953857
27	79.60762310028076	fix_post	2		12.0	25.0	2.5	/experiments/knapen_aot/videos/S_ILSVRC2015_train_00524006.mp4	0.0	137.02969312667847	0.10051393508911133
28	79.70813703536987	fix_pre	0		39.0	26.0	2.5	/experiments/knapen_aot/videos/S_zAKvYNtmhuc_772.mp4	0.0	137.13020706176758	0.3244318962097168
28	80.02437996864319	response	0	2		26.0	2.5	/experiments/knapen_aot/videos/S_zAKvYNtmhuc_772.mp4	0.0	137.4464499950409	
28	80.03256893157959	movie	1		297.0	26.0	2.5	/experiments/knapen_aot/videos/S_zAKvYNtmhuc_772.mp4	0.0	137.4546389579773	2.508355140686035
28	82.54092407226562	fix_post	2		12.0	26.0	2.5	/experiments/knapen_aot/videos/S_zAKvYNtmhuc_772.mp4	0.0	139.96299409866333	0.10000181198120117
29	82.64092588424683	fix_pre	0		28.0	27.0	2.5	/experiments/knapen_aot/videos/R_S_yt-ujdFTAUE8rc_34.mp4	0.0	140.06299591064453	0.23385405540466309
29	82.86606097221375	response	0	2		27.0	2.5	/experiments/knapen_aot/videos/R_S_yt-ujdFTAUE8rc_34.mp4	0.0	140.28813099861145	
29	82.87477993965149	movie	1		301.0	27.0	2.5	/experiments/knapen_aot/videos/R_S_yt-ujdFTAUE8rc_34.mp4	0.0	140.2968499660492	2.507920026779175
29	85.38269996643066	fix_post	2		12.0	27.0	2.5	/experiments/knapen_aot/videos/R_S_yt-ujdFTAUE8rc_34.mp4	0.0	142.80476999282837	0.0998389720916748
30	85.48253893852234	fix_pre	0		34.0	28.0	2.5	blank	1.0	142.90460896492004	0.2833261489868164
30	85.75773692131042	response	0	2		28.0	2.5	blank	1.0	143.17980694770813	
30	85.76586508750916	movie	1		301.0	28.0	2.5	blank	1.0	143.18793511390686	2.5083999633789062
30	88.27426505088806	fix_post	2		12.0	28.0	2.5	blank	1.0	145.69633507728577	0.09993982315063477
31	88.3742048740387	fix_pre	0		60.0	29.0	2.5	/experiments/knapen_aot/videos/R_S_yt-OEY9O2MglQM_7.mp4	0.0	145.7962749004364	0.5004711151123047
31	88.86591601371765	response	0	2		29.0	2.5	/experiments/knapen_aot/videos/R_S_yt-OEY9O2MglQM_7.mp4	0.0	146.28798604011536	
31	88.874675989151	movie	1		301.0	29.0	2.5	/experiments/knapen_aot/videos/R_S_yt-OEY9O2MglQM_7.mp4	0.0	146.2967460155487	2.507878065109253
31	91.38255405426025	fix_post	2		12.0	29.0	2.5	/experiments/knapen_aot/videos/R_S_yt-OEY9O2MglQM_7.mp4	0.0	148.80462408065796	0.10003495216369629
32	91.48258900642395	fix_pre	0		54.0	30.0	2.5	/experiments/knapen_aot/videos/R_S_yt-dWF89kq2JIA_13.mp4	0.0	148.90465903282166	0.4499640464782715
32	91.92432403564453	response	0	2		30.0	2.5	/experiments/knapen_aot/videos/R_S_yt-dWF89kq2JIA_13.mp4	0.0	149.34639406204224	
32	91.93255305290222	movie	1		301.0	30.0	2.5	/experiments/knapen_aot/videos/R_S_yt-dWF89kq2JIA_13.mp4	0.0	149.35462307929993	2.5083699226379395
32	94.44092297554016	fix_post	2		12.0	30.0	2.5	/experiments/knapen_aot/videos/R_S_yt-dWF89kq2JIA_13.mp4	0.0	151.86299300193787	0.0999610424041748
33	94.54088401794434	fix_pre	0		87.0	31.0	2.5	/experiments/knapen_aot/videos/R_S_yt-XRQ_LSGGr3Y_712.mp4	0.0	151.96295404434204	0.7249550819396973
33	95.25765490531921	response	0	2		31.0	2.5	/experiments/knapen_aot/videos/R_S_yt-XRQ_LSGGr3Y_712.mp4	0.0	152.67972493171692	
33	95.26583909988403	movie	1		301.0	31.0	2.5	/experiments/knapen_aot/videos/R_S_yt-XRQ_LSGGr3Y_712.mp4	0.0	152.68790912628174	2.5083248615264893
33	97.77416396141052	fix_post	2		12.0	31.0	2.5	/experiments/knapen_aot/videos/R_S_yt-XRQ_LSGGr3Y_712.mp4	0.0	155.19623398780823	0.1000070571899414
34	97.87417101860046	fix_pre	0		47.0	32.0	2.5	/experiments/knapen_aot/videos/R_S_yt-RNPFV7lgAvE_362.mp4	0.0	155.29624104499817	0.3916940689086914
34	98.2576539516449	response	0	2		32.0	2.5	/experiments/knapen_aot/videos/R_S_yt-RNPFV7lgAvE_362.mp4	0.0	155.6797239780426	
34	98.26586508750916	movie	1		299.0	32.0	2.5	/experiments/knapen_aot/videos/R_S_yt-RNPFV7lgAvE_362.mp4	0.0	155.68793511390686	2.508333921432495
34	100.77419900894165	fix_post	2		12.0	32.0	2.5	/experiments/knapen_aot/videos/R_S_yt-RNPFV7lgAvE_362.mp4	0.0	158.19626903533936	0.10051798820495605
35	100.8747169971466	fix_pre	0		283.0	33.0	2.5	/experiments/knapen_aot/videos/S_yt-eLQydFSMGCU_75.mp4	0.0	158.2967870235443	2.3577640056610107
35	103.22425293922424	response	0	2		33.0	2.5	/experiments/knapen_aot/videos/S_yt-eLQydFSMGCU_75.mp4	0.0	160.64632296562195	
35	103.23248100280762	movie	1		301.0	33.0	2.5	/experiments/knapen_aot/videos/S_yt-eLQydFSMGCU_75.mp4	0.0	160.65455102920532	2.5083680152893066
35	105.74084901809692	fix_post	2		12.0	33.0	2.5	/experiments/knapen_aot/videos/S_yt-eLQydFSMGCU_75.mp4	0.0	163.16291904449463	0.10002708435058594
36	105.84087610244751	fix_pre	0		33.0	34.0	2.5	blank	1.0	163.26294612884521	0.27500391006469727
36	106.10766100883484	response	0	2		34.0	2.5	blank	1.0	163.52973103523254	
36	106.1158800125122	movie	1		301.0	34.0	2.5	blank	1.0	163.5379500389099	2.5083069801330566
36	108.62418699264526	fix_post	2		12.0	34.0	2.5	blank	1.0	166.04625701904297	0.09996604919433594
37	108.7241530418396	fix_pre	0		268.0	35.0	2.5	/experiments/knapen_aot/videos/S_yt-9CY7rDYBYUI_40.mp4	0.0	166.1462230682373	2.2337188720703125
37	110.94926810264587	response	0	2		35.0	2.5	/experiments/knapen_aot/videos/S_yt-9CY7rDYBYUI_40.mp4	0.0	168.37133812904358	
37	110.95787191390991	movie	1		299.0	35.0	2.5	/experiments/knapen_aot/videos/S_yt-9CY7rDYBYUI_40.mp4	0.0	168.37994194030762	2.5078670978546143
37	113.46573901176453	fix_post	2		12.0	35.0	2.5	/experiments/knapen_aot/videos/S_yt-9CY7rDYBYUI_40.mp4	0.0	170.88780903816223	0.10003209114074707
38	113.56577110290527	fix_pre	0		54.0	36.0	2.5	/experiments/knapen_aot/videos/S_yt-sIXdPhfS67U_203.mp4	0.0	170.98784112930298	0.4499678611755371
38	114.00776600837708	response	0	2		36.0	2.5	/experiments/knapen_aot/videos/S_yt-sIXdPhfS67U_203.mp4	0.0	171.42983603477478	
38	114.01573896408081	movie	1		301.0	36.0	2.5	/experiments/knapen_aot/videos/S_yt-sIXdPhfS67U_203.mp4	0.0	171.43780899047852	2.5082740783691406
38	116.52401304244995	fix_post	2		12.0	36.0	2.5	/experiments/knapen_aot/videos/S_yt-sIXdPhfS67U_203.mp4	0.0	173.94608306884766	0.10005593299865723
39	116.62406897544861	fix_pre	0		28.0	37.0	2.5	/experiments/knapen_aot/videos/R_S_production_ID_4997166.mp4	0.0	174.0461390018463	0.23334813117980957
39	116.84920191764832	response	0	2		37.0	2.5	/experiments/knapen_aot/videos/R_S_production_ID_4997166.mp4	0.0	174.27127194404602	
39	116.85741710662842	movie	1		166.0	37.0	2.5	/experiments/knapen_aot/videos/R_S_production_ID_4997166.mp4	0.0	174.27948713302612	2.5082738399505615
39	119.36569094657898	fix_post	2		12.0	37.0	2.5	/experiments/knapen_aot/videos/R_S_production_ID_4997166.mp4	0.0	176.78776097297668	0.10007596015930176
40	119.46576690673828	fix_pre	0		38.0	38.0	2.5	/experiments/knapen_aot/videos/S_yt-Rqwi-Fk9IJQ_114.mp4	0.0	176.887836933136	0.3166639804840088
40	119.766685962677	response	0	2		38.0	2.5	/experiments/knapen_aot/videos/S_yt-Rqwi-Fk9IJQ_114.mp4	0.0	177.1887559890747	
40	119.78243088722229	movie	1		301.0	38.0	2.5	/experiments/knapen_aot/videos/S_yt-Rqwi-Fk9IJQ_114.mp4	0.0	177.20450091362	2.5084340572357178
40	122.29086494445801	fix_post	2		12.0	38.0	2.5	/experiments/knapen_aot/videos/S_yt-Rqwi-Fk9IJQ_114.mp4	0.0	179.7129349708557	0.0998389720916748
41	122.39070391654968	fix_pre	0		56.0	39.0	2.5	/experiments/knapen_aot/videos/R_S_production_ID_4707837.mp4	0.0	179.8127739429474	0.4667980670928955
41	122.84174990653992	response	0	2		39.0	2.5	/experiments/knapen_aot/videos/R_S_production_ID_4707837.mp4	0.0	180.26381993293762	
41	122.85750198364258	movie	1		177.0	39.0	2.5	/experiments/knapen_aot/videos/R_S_production_ID_4707837.mp4	0.0	180.27957201004028	2.508268117904663
41	125.36577010154724	fix_post	2		12.0	39.0	2.5	/experiments/knapen_aot/videos/R_S_production_ID_4707837.mp4	0.0	182.78784012794495	0.09994077682495117
42	125.46571087837219	fix_pre	0		78.0	40.0	2.5	blank	1.0	182.8877809047699	0.650015115737915
42	126.10004901885986	response	0	2		40.0	2.5	blank	1.0	183.52211904525757	
42	126.11572599411011	movie	1		301.0	40.0	2.5	blank	1.0	183.5377960205078	2.5083460807800293
42	128.62407207489014	fix_post	2		12.0	40.0	2.5	blank	1.0	186.04614210128784	0.09998798370361328
43	128.72406005859375	fix_pre	0		222.0	41.0	2.5	/experiments/knapen_aot/videos/S_pexels-koolshooters-7691440.mp4	0.0	186.14613008499146	1.8500068187713623
43	130.5658700466156	response	0	2		41.0	2.5	/experiments/knapen_aot/videos/S_pexels-koolshooters-7691440.mp4	0.0	187.9879400730133	
43	130.5740668773651	movie	1		165.0	41.0	2.5	/experiments/knapen_aot/videos/S_pexels-koolshooters-7691440.mp4	0.0	187.99613690376282	2.508289098739624
43	133.08235597610474	fix_post	2		12.0	41.0	2.5	/experiments/knapen_aot/videos/S_pexels-koolshooters-7691440.mp4	0.0	190.50442600250244	0.09997200965881348
44	133.18232798576355	fix_pre	0		33.0	42.0	2.5	/experiments/knapen_aot/videos/S_yt-oPq1uvbw-lQ_62.mp4	0.0	190.60439801216125	0.27521705627441406
44	133.4491798877716	response	0	2		42.0	2.5	/experiments/knapen_aot/videos/S_yt-oPq1uvbw-lQ_62.mp4	0.0	190.8712499141693	
44	133.45754504203796	movie	1		301.0	42.0	2.5	/experiments/knapen_aot/videos/S_yt-oPq1uvbw-lQ_62.mp4	0.0	190.87961506843567	2.5080878734588623
44	135.96563291549683	fix_post	2		12.0	42.0	2.5	/experiments/knapen_aot/videos/S_yt-oPq1uvbw-lQ_62.mp4	0.0	193.38770294189453	0.10007905960083008
45	136.06571197509766	fix_pre	0		44.0	43.0	2.5	/experiments/knapen_aot/videos/R_S_S003_C020_SDR_2K_AVC.mp4	0.0	193.48778200149536	0.3666079044342041
45	136.4241509437561	response	0	2		43.0	2.5	/experiments/knapen_aot/videos/R_S_S003_C020_SDR_2K_AVC.mp4	0.0	193.8462209701538	
45	136.43231987953186	movie	1		177.0	43.0	2.5	/experiments/knapen_aot/videos/R_S_S003_C020_SDR_2K_AVC.mp4	0.0	193.85438990592957	2.5084121227264404
45	138.9407320022583	fix_post	2		12.0	43.0	2.5	/experiments/knapen_aot/videos/R_S_S003_C020_SDR_2K_AVC.mp4	0.0	196.362802028656	0.10022306442260742
46	139.0409550666809	fix_pre	0		59.0	44.0	2.5	/experiments/knapen_aot/videos/R_S_pexels-tima-miroshnichenko-6077718.mp4	0.0	196.4630250930786	0.4914119243621826
46	139.52418208122253	response	0	2		44.0	2.5	/experiments/knapen_aot/videos/R_S_pexels-tima-miroshnichenko-6077718.mp4	0.0	196.94625210762024	
46	139.5323669910431	movie	1		165.0	44.0	2.5	/experiments/knapen_aot/videos/R_S_pexels-tima-miroshnichenko-6077718.mp4	0.0	196.9544370174408	2.5085089206695557
46	142.04087591171265	fix_post	2		12.0	44.0	2.5	/experiments/knapen_aot/videos/R_S_pexels-tima-miroshnichenko-6077718.mp4	0.0	199.46294593811035	0.09982705116271973
47	142.14070296287537	fix_pre	0		49.0	45.0	2.5	/experiments/knapen_aot/videos/S_wc-__wCAtivIDG3_93.mp4	0.0	199.56277298927307	0.40819501876831055
47	142.54078102111816	response	0	2		45.0	2.5	/experiments/knapen_aot/videos/S_wc-__wCAtivIDG3_93.mp4	0.0	199.96285104751587	
47	142.54889798164368	movie	1		164.0	45.0	2.5	/experiments/knapen_aot/videos/S_wc-__wCAtivIDG3_93.mp4	0.0	199.97096800804138	2.5084168910980225
47	145.0573148727417	fix_post	2		12.0	45.0	2.5	/experiments/knapen_aot/videos/S_wc-__wCAtivIDG3_93.mp4	0.0	202.4793848991394	0.1000051498413086
48	145.157320022583	fix_pre	0		37.0	46.0	2.5	/experiments/knapen_aot/videos/R_S_yt-KK6fVRAMm-c_476.mp4	0.0	202.5793900489807	0.30827999114990234
48	145.45750498771667	response	0	2		46.0	2.5	/experiments/knapen_aot/videos/R_S_yt-KK6fVRAMm-c_476.mp4	0.0	202.87957501411438	
48	145.4656000137329	movie	1		301.0	46.0	2.5	/experiments/knapen_aot/videos/R_S_yt-KK6fVRAMm-c_476.mp4	0.0	202.88767004013062	2.508352041244507
48	147.97395205497742	fix_post	2		12.0	46.0	2.5	/experiments/knapen_aot/videos/R_S_yt-KK6fVRAMm-c_476.mp4	0.0	205.39602208137512	0.10001897811889648
49	148.0739710330963	fix_pre	0		33.0	47.0	2.5	/experiments/knapen_aot/videos/S_yt-14tjqjjjAEI_15.mp4	0.0	205.49604105949402	0.2749500274658203
49	148.34068703651428	response	0	2		47.0	2.5	/experiments/knapen_aot/videos/S_yt-14tjqjjjAEI_15.mp4	0.0	205.762757062912	
49	148.34892106056213	movie	1		301.0	47.0	2.5	/experiments/knapen_aot/videos/S_yt-14tjqjjjAEI_15.mp4	0.0	205.77099108695984	2.508389949798584
49	150.85731101036072	fix_post	2		12.0	47.0	2.5	/experiments/knapen_aot/videos/S_yt-14tjqjjjAEI_15.mp4	0.0	208.27938103675842	0.10008907318115234
50	150.95740008354187	fix_pre	0		32.0	48.0	2.5	/experiments/knapen_aot/videos/S_yt-wEbfIR14zZ8_7.mp4	0.0	208.37947010993958	0.26654887199401855
50	151.21574997901917	response	0	2		48.0	2.5	/experiments/knapen_aot/videos/S_yt-wEbfIR14zZ8_7.mp4	0.0	208.63782000541687	
50	151.2239489555359	movie	1		301.0	48.0	2.5	/experiments/knapen_aot/videos/S_yt-wEbfIR14zZ8_7.mp4	0.0	208.6460189819336	2.5083601474761963
50	153.73230910301208	fix_post	2		12.0	48.0	2.5	/experiments/knapen_aot/videos/S_yt-wEbfIR14zZ8_7.mp4	0.0	211.1543791294098	0.10016393661499023
51	153.83247303962708	fix_pre	0		23.0	49.0	2.5	blank	1.0	211.25454306602478	0.19150185585021973
51	154.01564192771912	response	0	2		49.0	2.5	blank	1.0	211.43771195411682	
51	154.0239748954773	movie	1		301.0	49.0	2.5	blank	1.0	211.446044921875	2.5082781314849854
51	156.53225302696228	fix_post	2		12.0	49.0	2.5	blank	1.0	213.95432305335999	0.09995198249816895
52	156.63220500946045	fix_pre	0		22.0	50.0	2.5	/experiments/knapen_aot/videos/S_yt-jy96-k8drRE_1.mp4	0.0	214.05427503585815	0.18334698677062988
52	156.80731296539307	response	0	2		50.0	2.5	/experiments/knapen_aot/videos/S_yt-jy96-k8drRE_1.mp4	0.0	214.22938299179077	
52	156.81555199623108	movie	1		301.0	50.0	2.5	/experiments/knapen_aot/videos/S_yt-jy96-k8drRE_1.mp4	0.0	214.23762202262878	2.5084879398345947
52	159.32403993606567	fix_post	2		12.0	50.0	2.5	/experiments/knapen_aot/videos/S_yt-jy96-k8drRE_1.mp4	0.0	216.74610996246338	0.09991812705993652
53	159.4239580631256	fix_pre	0		26.0	51.0	2.5	/experiments/knapen_aot/videos/S_yt-eVAlSjH8E8k_127.mp4	0.0	216.84602808952332	0.2166428565979004
53	159.63246202468872	response	0	2		51.0	2.5	/experiments/knapen_aot/videos/S_yt-eVAlSjH8E8k_127.mp4	0.0	217.05453205108643	
53	159.6406009197235	movie	1		299.0	51.0	2.5	/experiments/knapen_aot/videos/S_yt-eVAlSjH8E8k_127.mp4	0.0	217.06267094612122	2.508334159851074
53	162.14893507957458	fix_post	2		12.0	51.0	2.5	/experiments/knapen_aot/videos/S_yt-eVAlSjH8E8k_127.mp4	0.0	219.5710051059723	0.10009479522705078
54	162.24902987480164	fix_pre	0		33.0	52.0	2.5	/experiments/knapen_aot/videos/S_yt-EKPrSw5xF7k_112.mp4	0.0	219.67109990119934	0.2748560905456543
54	162.51559591293335	response	0	2		52.0	2.5	/experiments/knapen_aot/videos/S_yt-EKPrSw5xF7k_112.mp4	0.0	219.93766593933105	
54	162.5238859653473	movie	1		301.0	52.0	2.5	/experiments/knapen_aot/videos/S_yt-EKPrSw5xF7k_112.mp4	0.0	219.945955991745	2.5083229541778564
54	165.03220891952515	fix_post	2		12.0	52.0	2.5	/experiments/knapen_aot/videos/S_yt-EKPrSw5xF7k_112.mp4	0.0	222.45427894592285	0.10000014305114746
55	165.1322090625763	fix_pre	0		52.0	53.0	2.5	/experiments/knapen_aot/videos/S_comp_A009_C001_010181A_v09_SDR_PS_FINAL_20180725_SDR_2K_AVC.mp4	0.0	222.554279088974	0.4333510398864746
55	165.55727791786194	response	0	2		53.0	2.5	/experiments/knapen_aot/videos/S_comp_A009_C001_010181A_v09_SDR_PS_FINAL_20180725_SDR_2K_AVC.mp4	0.0	222.97934794425964	
55	165.56556010246277	movie	1		165.0	53.0	2.5	/experiments/knapen_aot/videos/S_comp_A009_C001_010181A_v09_SDR_PS_FINAL_20180725_SDR_2K_AVC.mp4	0.0	222.98763012886047	2.508370876312256
55	168.07393097877502	fix_post	2		12.0	53.0	2.5	/experiments/knapen_aot/videos/S_comp_A009_C001_010181A_v09_SDR_PS_FINAL_20180725_SDR_2K_AVC.mp4	0.0	225.49600100517273	0.10000205039978027
56	168.1739330291748	fix_pre	0		31.0	54.0	2.5	/experiments/knapen_aot/videos/S_yt-2cwARrUMj40_67.mp4	0.0	225.5960030555725	0.25832104682922363
56	168.42406702041626	response	0	2		54.0	2.5	/experiments/knapen_aot/videos/S_yt-2cwARrUMj40_67.mp4	0.0	225.84613704681396	
56	168.43225407600403	movie	1		301.0	54.0	2.5	/experiments/knapen_aot/videos/S_yt-2cwARrUMj40_67.mp4	0.0	225.85432410240173	2.5082759857177734
56	170.9405300617218	fix_post	2		12.0	54.0	2.5	/experiments/knapen_aot/videos/S_yt-2cwARrUMj40_67.mp4	0.0	228.3626000881195	0.10008692741394043
57	171.04061698913574	fix_pre	0		64.0	55.0	2.5	/experiments/knapen_aot/videos/R_S_production_ID_4101242.mp4	0.0	228.46268701553345	0.5332510471343994
57	171.56569695472717	response	0	2		55.0	2.5	/experiments/knapen_aot/videos/R_S_production_ID_4101242.mp4	0.0	228.98776698112488	
57	171.57386803627014	movie	1		194.0	55.0	2.5	/experiments/knapen_aot/videos/R_S_production_ID_4101242.mp4	0.0	228.99593806266785	2.5083749294281006
57	174.08224296569824	fix_post	2		12.0	55.0	2.5	/experiments/knapen_aot/videos/R_S_production_ID_4101242.mp4	0.0	231.50431299209595	0.09992313385009766
58	174.18216609954834	fix_pre	0		35.0	56.0	2.5	blank	1.0	231.60423612594604	0.2916538715362549
58	174.46560788154602	response	0	2		56.0	2.5	blank	1.0	231.88767790794373	
58	174.4738199710846	movie	1		301.0	56.0	2.5	blank	1.0	231.8958899974823	2.5083460807800293
58	176.98216605186462	fix_post	2		12.0	56.0	2.5	blank	1.0	234.40423607826233	0.10003805160522461
59	177.08220410346985	fix_pre	0		79.0	57.0	2.5	/experiments/knapen_aot/videos/R_S_pexels-diva-plavalaguna-6985395.mp4	0.0	234.50427412986755	0.6582798957824707
59	177.7323100566864	response	0	2		57.0	2.5	/experiments/knapen_aot/videos/R_S_pexels-diva-plavalaguna-6985395.mp4	0.0	235.1543800830841	
59	177.74048399925232	movie	1		162.0	57.0	2.5	/experiments/knapen_aot/videos/R_S_pexels-diva-plavalaguna-6985395.mp4	0.0	235.16255402565002	2.508363962173462
59	180.24884796142578	fix_post	2		12.0	57.0	2.5	/experiments/knapen_aot/videos/R_S_pexels-diva-plavalaguna-6985395.mp4	0.0	237.6709179878235	0.09995698928833008
60	180.3488049507141	fix_pre	0		34.0	58.0	2.5	/experiments/knapen_aot/videos/S_pexels-cottonbro-5780808.mp4	0.0	237.77087497711182	0.2833371162414551
60	180.61636590957642	response	0	2		58.0	2.5	/experiments/knapen_aot/videos/S_pexels-cottonbro-5780808.mp4	0.0	238.03843593597412	
60	180.63214206695557	movie	1		165.0	58.0	2.5	/experiments/knapen_aot/videos/S_pexels-cottonbro-5780808.mp4	0.0	238.05421209335327	2.5083489418029785
60	183.14049100875854	fix_post	2		12.0	58.0	2.5	/experiments/knapen_aot/videos/S_pexels-cottonbro-5780808.mp4	0.0	240.56256103515625	0.10017895698547363
61	183.24066996574402	fix_pre	0		31.0	59.0	2.5	/experiments/knapen_aot/videos/S_yt-1iB2ofPY1U8_16.mp4	0.0	240.66273999214172	0.2581169605255127
61	183.49061608314514	response	0	2		59.0	2.5	/experiments/knapen_aot/videos/S_yt-1iB2ofPY1U8_16.mp4	0.0	240.91268610954285	
61	183.49878692626953	movie	1		301.0	59.0	2.5	/experiments/knapen_aot/videos/S_yt-1iB2ofPY1U8_16.mp4	0.0	240.92085695266724	2.50833797454834
61	186.00712490081787	fix_post	2		12.0	59.0	2.5	/experiments/knapen_aot/videos/S_yt-1iB2ofPY1U8_16.mp4	0.0	243.42919492721558	0.10006904602050781
62	186.10719394683838	fix_pre	0		29.0	60.0	2.5	/experiments/knapen_aot/videos/R_S_yt-aiwDdJm1ek8_90.mp4	0.0	243.52926397323608	0.24161005020141602
62	186.34060287475586	response	0	2		60.0	2.5	/experiments/knapen_aot/videos/R_S_yt-aiwDdJm1ek8_90.mp4	0.0	243.76267290115356	
62	186.3488039970398	movie	1		301.0	60.0	2.5	/experiments/knapen_aot/videos/R_S_yt-aiwDdJm1ek8_90.mp4	0.0	243.7708740234375	2.508333921432495
62	188.8571379184723	fix_post	2		12.0	60.0	2.5	/experiments/knapen_aot/videos/R_S_yt-aiwDdJm1ek8_90.mp4	0.0	246.27920794487	0.100006103515625
63	188.95714402198792	fix_pre	0		31.0	61.0	2.5	/experiments/knapen_aot/videos/S_pexels-ron-lach-8071987.mp4	0.0	246.37921404838562	0.25830793380737305
63	189.20729804039001	response	0	2		61.0	2.5	/experiments/knapen_aot/videos/S_pexels-ron-lach-8071987.mp4	0.0	246.62936806678772	
63	189.2154519557953	movie	1		200.0	61.0	2.5	/experiments/knapen_aot/videos/S_pexels-ron-lach-8071987.mp4	0.0	246.637521982193	2.5084049701690674
63	191.72385692596436	fix_post	2		12.0	61.0	2.5	/experiments/knapen_aot/videos/S_pexels-ron-lach-8071987.mp4	0.0	249.14592695236206	0.0999140739440918
64	191.82377099990845	fix_pre	0		28.0	62.0	2.5	/experiments/knapen_aot/videos/S_3dzza09VbXY_235.mp4	0.0	249.24584102630615	0.233306884765625
64	192.0488510131836	response	0	2		62.0	2.5	/experiments/knapen_aot/videos/S_3dzza09VbXY_235.mp4	0.0	249.4709210395813	
64	192.05707788467407	movie	1		301.0	62.0	2.5	/experiments/knapen_aot/videos/S_3dzza09VbXY_235.mp4	0.0	249.47914791107178	2.5083751678466797
64	194.56545305252075	fix_post	2		12.0	62.0	2.5	/experiments/knapen_aot/videos/S_3dzza09VbXY_235.mp4	0.0	251.98752307891846	0.1000218391418457
65	194.6654748916626	fix_pre	0		50.0	63.0	2.5	blank	1.0	252.0875449180603	0.4166381359100342
65	195.0739140510559	response	0	2		63.0	2.5	blank	1.0	252.4959840774536	
65	195.08211302757263	movie	1		301.0	63.0	2.5	blank	1.0	252.50418305397034	2.5083658695220947
65	197.59047889709473	fix_post	2		12.0	63.0	2.5	blank	1.0	255.01254892349243	0.09989809989929199
66	197.69037699699402	fix_pre	0		33.0	64.0	2.5	/experiments/knapen_aot/videos/R_S_yt--OkafQ5VFHs_51.mp4	0.0	255.11244702339172	0.27501392364501953
66	197.95723009109497	response	0	2		64.0	2.5	/experiments/knapen_aot/videos/R_S_yt--OkafQ5VFHs_51.mp4	0.0	255.37930011749268	
66	197.96539092063904	movie	1		301.0	64.0	2.5	/experiments/knapen_aot/videos/R_S_yt--OkafQ5VFHs_51.mp4	0.0	255.38746094703674	2.508341073989868
66	200.4737319946289	fix_post	2		12.0	64.0	2.5	/experiments/knapen_aot/videos/R_S_yt--OkafQ5VFHs_51.mp4	0.0	257.8958020210266	0.10001111030578613
67	200.5737431049347	fix_pre	0		50.0	65.0	2.5	/experiments/knapen_aot/videos/S_yt-jy96-k8drRE_1.mp4	0.0	257.9958131313324	0.41794586181640625
67	200.98224091529846	response	0	2		65.0	2.5	/experiments/knapen_aot/videos/S_yt-jy96-k8drRE_1.mp4	0.0	258.40431094169617	
67	200.9916889667511	movie	1		301.0	65.0	2.5	/experiments/knapen_aot/videos/S_yt-jy96-k8drRE_1.mp4	0.0	258.4137589931488	2.5070619583129883
67	203.4987509250641	fix_post	2		12.0	65.0	2.5	/experiments/knapen_aot/videos/S_yt-jy96-k8drRE_1.mp4	0.0	260.9208209514618	0.09997200965881348
68	203.5987229347229	fix_pre	0		27.0	66.0	2.5	/experiments/knapen_aot/videos/R_S_yt-O6W6CZPXvlA_15.mp4	0.0	261.0207929611206	0.22626805305480957
68	203.81549906730652	response	0	2		66.0	2.5	/experiments/knapen_aot/videos/R_S_yt-O6W6CZPXvlA_15.mp4	0.0	261.2375690937042	
68	203.8249909877777	movie	1		301.0	66.0	2.5	/experiments/knapen_aot/videos/R_S_yt-O6W6CZPXvlA_15.mp4	0.0	261.2470610141754	2.507086992263794
68	206.3320779800415	fix_post	2		12.0	66.0	2.5	/experiments/knapen_aot/videos/R_S_yt-O6W6CZPXvlA_15.mp4	0.0	263.7541480064392	0.09998893737792969
69	206.43206691741943	fix_pre	0		79.0	67.0	2.5	/experiments/knapen_aot/videos/R_S_yt-oPq1uvbw-lQ_62.mp4	0.0	263.85413694381714	0.6582951545715332
69	207.08236503601074	response	0	2		67.0	2.5	/experiments/knapen_aot/videos/R_S_yt-oPq1uvbw-lQ_62.mp4	0.0	264.50443506240845	
69	207.09036207199097	movie	1		297.0	67.0	2.5	/experiments/knapen_aot/videos/R_S_yt-oPq1uvbw-lQ_62.mp4	0.0	264.5124320983887	2.5082619190216064
69	209.59862399101257	fix_post	2		12.0	67.0	2.5	/experiments/knapen_aot/videos/R_S_yt-oPq1uvbw-lQ_62.mp4	0.0	267.0206940174103	0.10004806518554688
70	209.69867205619812	fix_pre	0		33.0	68.0	2.5	/experiments/knapen_aot/videos/R_S_yt-yPl8LcgSMjo_32.mp4	0.0	267.1207420825958	0.274979829788208
70	209.96548008918762	response	0	2		68.0	2.5	/experiments/knapen_aot/videos/R_S_yt-yPl8LcgSMjo_32.mp4	0.0	267.3875501155853	
70	209.97365188598633	movie	1		301.0	68.0	2.5	/experiments/knapen_aot/videos/R_S_yt-yPl8LcgSMjo_32.mp4	0.0	267.39572191238403	2.5083940029144287
70	212.48204588890076	fix_post	2		12.0	68.0	2.5	/experiments/knapen_aot/videos/R_S_yt-yPl8LcgSMjo_32.mp4	0.0	269.90411591529846	0.10000801086425781
71	212.58205389976501	fix_pre	0		25.0	69.0	2.5	/experiments/knapen_aot/videos/R_S_yt-7VVzNnp36DM_62.mp4	0.0	270.0041239261627	0.2082819938659668
71	212.78215503692627	response	0	2		69.0	2.5	/experiments/knapen_aot/videos/R_S_yt-7VVzNnp36DM_62.mp4	0.0	270.204225063324	
71	212.79033589363098	movie	1		301.0	69.0	2.5	/experiments/knapen_aot/videos/R_S_yt-7VVzNnp36DM_62.mp4	0.0	270.2124059200287	2.5082530975341797
71	215.29858899116516	fix_post	2		12.0	69.0	2.5	/experiments/knapen_aot/videos/R_S_yt-7VVzNnp36DM_62.mp4	0.0	272.72065901756287	0.10006499290466309
72	215.39865398406982	fix_pre	0		32.0	70.0	2.5	blank	1.0	272.82072401046753	0.2666189670562744
72	215.65714597702026	response	0	2		70.0	2.5	blank	1.0	273.07921600341797	
72	215.6652729511261	movie	1		301.0	70.0	2.5	blank	1.0	273.0873429775238	2.5083141326904297
72	218.17358708381653	fix_post	2		12.0	70.0	2.5	blank	1.0	275.59565711021423	0.10011982917785645
73	218.27370691299438	fix_pre	0		61.0	71.0	2.5	/experiments/knapen_aot/videos/R_S_yt-D9uD7yM6bxQ_269.mp4	0.0	275.6957769393921	0.5094499588012695
73	218.77381110191345	response	0	2		71.0	2.5	/experiments/knapen_aot/videos/R_S_yt-D9uD7yM6bxQ_269.mp4	0.0	276.19588112831116	
73	218.78315687179565	movie	1		301.0	71.0	2.5	/experiments/knapen_aot/videos/R_S_yt-D9uD7yM6bxQ_269.mp4	0.0	276.20522689819336	2.507139205932617
73	221.29029607772827	fix_post	2		12.0	71.0	2.5	/experiments/knapen_aot/videos/R_S_yt-D9uD7yM6bxQ_269.mp4	0.0	278.712366104126	0.09999799728393555
74	221.3902940750122	fix_pre	0		47.0	72.0	2.5	/experiments/knapen_aot/videos/S_ILSVRC2015_train_00165012.mp4	0.0	278.8123641014099	0.39285898208618164
74	221.77382707595825	response	0	2		72.0	2.5	/experiments/knapen_aot/videos/S_ILSVRC2015_train_00165012.mp4	0.0	279.19589710235596	
74	221.7831530570984	movie	1		301.0	72.0	2.5	/experiments/knapen_aot/videos/S_ILSVRC2015_train_00165012.mp4	0.0	279.2052230834961	2.5070979595184326
74	224.29025101661682	fix_post	2		12.0	72.0	2.5	/experiments/knapen_aot/videos/S_ILSVRC2015_train_00165012.mp4	0.0	281.7123210430145	0.10002589225769043
75	224.3902769088745	fix_pre	0		71.0	73.0	2.5	/experiments/knapen_aot/videos/R_S_PA_A010_C007_SDR_20190717_SDR_2K_AVC.mp4	0.0	281.8123469352722	0.5916740894317627
75	224.9737548828125	response	0	2		73.0	2.5	/experiments/knapen_aot/videos/R_S_PA_A010_C007_SDR_20190717_SDR_2K_AVC.mp4	0.0	282.3958249092102	
75	224.98195099830627	movie	1		167.0	73.0	2.5	/experiments/knapen_aot/videos/R_S_PA_A010_C007_SDR_20190717_SDR_2K_AVC.mp4	0.0	282.404021024704	2.508301019668579
75	227.49025201797485	fix_post	2		12.0	73.0	2.5	/experiments/knapen_aot/videos/R_S_PA_A010_C007_SDR_20190717_SDR_2K_AVC.mp4	0.0	284.91232204437256	0.10002589225769043
76	227.59027791023254	fix_pre	0		35.0	74.0	2.5	/experiments/knapen_aot/videos/R_S_yt-Rqwi-Fk9IJQ_114.mp4	0.0	285.01234793663025	0.29161906242370605
76	227.87377500534058	response	0	2		74.0	2.5	/experiments/knapen_aot/videos/R_S_yt-Rqwi-Fk9IJQ_114.mp4	0.0	285.2958450317383	
76	227.88189697265625	movie	1		301.0	74.0	2.5	/experiments/knapen_aot/videos/R_S_yt-Rqwi-Fk9IJQ_114.mp4	0.0	285.30396699905396	2.5083091259002686
76	230.39020609855652	fix_post	2		12.0	74.0	2.5	/experiments/knapen_aot/videos/R_S_yt-Rqwi-Fk9IJQ_114.mp4	0.0	287.8122761249542	0.10006594657897949
77	230.4902720451355	fix_pre	0		36.0	75.0	2.5	/experiments/knapen_aot/videos/R_S_yt-a9bnYU0Gnxg_59.mp4	0.0	287.9123420715332	0.2999598979949951
77	230.78205704689026	response	0	2		75.0	2.5	/experiments/knapen_aot/videos/R_S_yt-a9bnYU0Gnxg_59.mp4	0.0	288.20412707328796	
77	230.7902319431305	movie	1		298.0	75.0	2.5	/experiments/knapen_aot/videos/R_S_yt-a9bnYU0Gnxg_59.mp4	0.0	288.2123019695282	2.50846004486084
77	233.29869198799133	fix_post	2		12.0	75.0	2.5	/experiments/knapen_aot/videos/R_S_yt-a9bnYU0Gnxg_59.mp4	0.0	290.72076201438904	0.09992408752441406
78	233.39861607551575	fix_pre	0		72.0	76.0	2.5	blank	1.0	290.82068610191345	0.5999369621276855
78	233.9904100894928	response	0	2		76.0	2.5	blank	1.0	291.4124801158905	
78	233.99855303764343	movie	1		301.0	76.0	2.5	blank	1.0	291.42062306404114	2.508296012878418
78	236.50684905052185	fix_post	2		12.0	76.0	2.5	blank	1.0	293.92891907691956	0.10007786750793457
79	236.60692691802979	fix_pre	0		46.0	77.0	2.5	/experiments/knapen_aot/videos/S_yt-2cwARrUMj40_67.mp4	0.0	294.0289969444275	0.38443613052368164
79	236.9819540977478	response	0	2		77.0	2.5	/experiments/knapen_aot/videos/S_yt-2cwARrUMj40_67.mp4	0.0	294.4040241241455	
79	236.99136304855347	movie	1		300.0	77.0	2.5	/experiments/knapen_aot/videos/S_yt-2cwARrUMj40_67.mp4	0.0	294.4134330749512	2.5072100162506104
79	239.49857306480408	fix_post	2		12.0	77.0	2.5	/experiments/knapen_aot/videos/S_yt-2cwARrUMj40_67.mp4	0.0	296.9206430912018	0.09993982315063477
80	239.5985128879547	fix_pre	0		66.0	78.0	2.5	/experiments/knapen_aot/videos/R_S_yt-G65z8p1YNhw_16.mp4	0.0	297.0205829143524	0.5499861240386963
80	240.14042901992798	response	0	2		78.0	2.5	/experiments/knapen_aot/videos/R_S_yt-G65z8p1YNhw_16.mp4	0.0	297.5624990463257	
80	240.1484990119934	movie	1		301.0	78.0	2.5	/experiments/knapen_aot/videos/R_S_yt-G65z8p1YNhw_16.mp4	0.0	297.5705690383911	2.5083820819854736
80	242.65688109397888	fix_post	2		12.0	78.0	2.5	/experiments/knapen_aot/videos/R_S_yt-G65z8p1YNhw_16.mp4	0.0	300.0789511203766	0.10003495216369629
81	242.75691604614258	fix_pre	0		81.0	79.0	2.5	/experiments/knapen_aot/videos/S_yt-RlHmMGUjT9E_130.mp4	0.0	300.1789860725403	0.6749598979949951
81	243.42364192008972	response	0	2		79.0	2.5	/experiments/knapen_aot/videos/S_yt-RlHmMGUjT9E_130.mp4	0.0	300.8457119464874	
81	243.43187594413757	movie	1		301.0	79.0	2.5	/experiments/knapen_aot/videos/S_yt-RlHmMGUjT9E_130.mp4	0.0	300.8539459705353	2.5083279609680176
81	245.9402039051056	fix_post	2		12.0	79.0	2.5	/experiments/knapen_aot/videos/S_yt-RlHmMGUjT9E_130.mp4	0.0	303.3622739315033	0.09996414184570312
82	246.0401680469513	fix_pre	0		49.0	80.0	2.5	/experiments/knapen_aot/videos/S_yt-IC62JSYpq9w_71.mp4	0.0	303.462238073349	0.4094359874725342
82	246.44034099578857	response	0	2		80.0	2.5	/experiments/knapen_aot/videos/S_yt-IC62JSYpq9w_71.mp4	0.0	303.8624110221863	
82	246.44960403442383	movie	1		301.0	80.0	2.5	/experiments/knapen_aot/videos/S_yt-IC62JSYpq9w_71.mp4	0.0	303.87167406082153	2.5072739124298096
82	248.95687794685364	fix_post	2		12.0	80.0	2.5	/experiments/knapen_aot/videos/S_yt-IC62JSYpq9w_71.mp4	0.0	306.37894797325134	0.09998512268066406
83	249.0568630695343	fix_pre	0		68.0	81.0	2.5	/experiments/knapen_aot/videos/R_S_yt-ebzrQh5ErI4_3.mp4	0.0	306.478933095932	0.5666530132293701
83	249.6153359413147	response	0	2		81.0	2.5	/experiments/knapen_aot/videos/R_S_yt-ebzrQh5ErI4_3.mp4	0.0	307.0374059677124	
83	249.62351608276367	movie	1		301.0	81.0	2.5	/experiments/knapen_aot/videos/R_S_yt-ebzrQh5ErI4_3.mp4	0.0	307.0455861091614	2.508330821990967
83	252.13184690475464	fix_post	2		12.0	81.0	2.5	/experiments/knapen_aot/videos/R_S_yt-ebzrQh5ErI4_3.mp4	0.0	309.55391693115234	0.10012197494506836
84	252.2319688796997	fix_pre	0		41.0	82.0	2.5	/experiments/knapen_aot/videos/S_yt-kxWtOXNIsRA_329.mp4	0.0	309.6540389060974	0.34255313873291016
84	252.56533789634705	response	0	2		82.0	2.5	/experiments/knapen_aot/videos/S_yt-kxWtOXNIsRA_329.mp4	0.0	309.98740792274475	
84	252.57452201843262	movie	1		301.0	82.0	2.5	/experiments/knapen_aot/videos/S_yt-kxWtOXNIsRA_329.mp4	0.0	309.9965920448303	2.5073070526123047
84	255.08182907104492	fix_post	2		12.0	82.0	2.5	/experiments/knapen_aot/videos/S_yt-kxWtOXNIsRA_329.mp4	0.0	312.5038990974426	0.1000528335571289
85	255.18188190460205	fix_pre	0		83.0	83.0	2.5	blank	1.0	312.60395193099976	0.6916060447692871
85	255.86531591415405	response	0	2		83.0	2.5	blank	1.0	313.28738594055176	
85	255.87348794937134	movie	1		301.0	83.0	2.5	blank	1.0	313.29555797576904	2.508341073989868
85	258.3818290233612	fix_post	2		12.0	83.0	2.5	blank	1.0	315.8038990497589	0.09990906715393066
87	258.48173809051514	stim	0		274.0					315.90380811691284	2.287195920944214
87	260.7619888782501	response	0	space						318.1840589046478	
