trial_nr	onset	event_type	phase	response	nr_frames	movie_index	movie_duration	movie_file	blank	onset_abs	duration
0	0.1249849796295166	stim	0		72.0					55.14266896247864	0.6022510528564453
0	0.7167460918426514	response	0	space						55.73443007469177	
1	0.7272360324859619	stim	0		121.0					55.74492001533508	1.0061290264129639
1	1.7333650588989258	stim	1		120.0					56.75104904174805	0.9997599124908447
1	1.8747620582580566	response	1	space						56.89244604110718	
1	2.1912920475006104	response	1	space						57.20897603034973	
2	2.7331249713897705	fix_pre	0		85.0	0.0	2.5	/experiments/knapen_aot/videos/S_production_ID_4101309.mp4	0.0	57.75080895423889	0.7092180252075195
2	3.4331111907958984	response	0	space		0.0	2.5	/experiments/knapen_aot/videos/S_production_ID_4101309.mp4	0.0	58.45079517364502	
2	3.44234299659729	movie	1		210.0	0.0	2.5	/experiments/knapen_aot/videos/S_production_ID_4101309.mp4	0.0	58.46002697944641	2.507284164428711
2	5.949627161026001	fix_post	2		12.0	0.0	2.5	/experiments/knapen_aot/videos/S_production_ID_4101309.mp4	0.0	60.96731114387512	0.10002994537353516
3	6.049657106399536	fix_pre	0		30.0	1.0	2.5	/experiments/knapen_aot/videos/R_S_comp_A009_C001_010181A_v09_SDR_PS_FINAL_20180725_SDR_2K_AVC.mp4	0.0	61.06734108924866	0.2538259029388428
3	6.294527053833008	response	0	2		1.0	2.5	/experiments/knapen_aot/videos/R_S_comp_A009_C001_010181A_v09_SDR_PS_FINAL_20180725_SDR_2K_AVC.mp4	0.0	61.31221103668213	
3	6.303483009338379	movie	1		164.0	1.0	2.5	/experiments/knapen_aot/videos/R_S_comp_A009_C001_010181A_v09_SDR_PS_FINAL_20180725_SDR_2K_AVC.mp4	0.0	61.3211669921875	2.504472017288208
3	8.807955026626587	fix_post	2		12.0	1.0	2.5	/experiments/knapen_aot/videos/R_S_comp_A009_C001_010181A_v09_SDR_PS_FINAL_20180725_SDR_2K_AVC.mp4	0.0	63.82563900947571	0.09999895095825195
4	8.907953977584839	fix_pre	0		38.0	2.0	2.5	/experiments/knapen_aot/videos/R_S_ILSVRC2015_train_00479002.mp4	0.0	63.92563796043396	0.3166801929473877
4	9.21636700630188	response	0	2		2.0	2.5	/experiments/knapen_aot/videos/R_S_ILSVRC2015_train_00479002.mp4	0.0	64.234050989151	
4	9.224634170532227	movie	1		301.0	2.0	2.5	/experiments/knapen_aot/videos/R_S_ILSVRC2015_train_00479002.mp4	0.0	64.24231815338135	2.508307933807373
4	11.7329421043396	fix_post	2		12.0	2.0	2.5	/experiments/knapen_aot/videos/R_S_ILSVRC2015_train_00479002.mp4	0.0	66.75062608718872	0.09999990463256836
5	11.832942008972168	fix_pre	0		36.0	3.0	2.5	/experiments/knapen_aot/videos/S_ILSVRC2015_train_00515001.mp4	0.0	66.85062599182129	0.3000180721282959
5	12.124749183654785	response	0	2		3.0	2.5	/experiments/knapen_aot/videos/S_ILSVRC2015_train_00515001.mp4	0.0	67.1424331665039	
5	12.132960081100464	movie	1		301.0	3.0	2.5	/experiments/knapen_aot/videos/S_ILSVRC2015_train_00515001.mp4	0.0	67.15064406394958	2.508315086364746
5	14.64127516746521	fix_post	2		12.0	3.0	2.5	/experiments/knapen_aot/videos/S_ILSVRC2015_train_00515001.mp4	0.0	69.65895915031433	0.10002279281616211
6	14.741297960281372	fix_pre	0		45.0	4.0	2.5	/experiments/knapen_aot/videos/S_yt-2OoHcgS8sss_7.mp4	0.0	69.7589819431305	0.37494421005249023
6	15.10807204246521	response	0	2		4.0	2.5	/experiments/knapen_aot/videos/S_yt-2OoHcgS8sss_7.mp4	0.0	70.12575602531433	
6	15.116242170333862	movie	1		301.0	4.0	2.5	/experiments/knapen_aot/videos/S_yt-2OoHcgS8sss_7.mp4	0.0	70.13392615318298	2.5085887908935547
6	17.624830961227417	fix_post	2		12.0	4.0	2.5	/experiments/knapen_aot/videos/S_yt-2OoHcgS8sss_7.mp4	0.0	72.64251494407654	0.09999322891235352
7	17.72482419013977	fix_pre	0		41.0	5.0	2.5	blank	1.0	72.74250817298889	0.34252381324768066
7	18.058089017868042	response	0	2		5.0	2.5	blank	1.0	73.07577300071716	
7	18.06734800338745	movie	1		301.0	5.0	2.5	blank	1.0	73.08503198623657	2.507258176803589
7	20.57460618019104	fix_post	2		12.0	5.0	2.5	blank	1.0	75.59229016304016	0.10000491142272949
8	20.67461109161377	fix_pre	0		32.0	6.0	2.5	/experiments/knapen_aot/videos/S_EFR8AteY59I_15.mp4	0.0	75.69229507446289	0.2676570415496826
8	20.93303418159485	response	0	2		6.0	2.5	/experiments/knapen_aot/videos/S_EFR8AteY59I_15.mp4	0.0	75.95071816444397	
8	20.942268133163452	movie	1		301.0	6.0	2.5	/experiments/knapen_aot/videos/S_EFR8AteY59I_15.mp4	0.0	75.95995211601257	2.5073578357696533
8	23.449625968933105	fix_post	2		12.0	6.0	2.5	/experiments/knapen_aot/videos/S_EFR8AteY59I_15.mp4	0.0	78.46730995178223	0.09997010231018066
9	23.549596071243286	fix_pre	0		26.0	7.0	2.5	/experiments/knapen_aot/videos/R_S_yt-xWCPbUQc-vg_7.mp4	0.0	78.56728005409241	0.2165989875793457
9	23.75798201560974	response	0	2		7.0	2.5	/experiments/knapen_aot/videos/R_S_yt-xWCPbUQc-vg_7.mp4	0.0	78.77566599845886	
9	23.766195058822632	movie	1		301.0	7.0	2.5	/experiments/knapen_aot/videos/R_S_yt-xWCPbUQc-vg_7.mp4	0.0	78.78387904167175	2.5083909034729004
9	26.274585962295532	fix_post	2		12.0	7.0	2.5	/experiments/knapen_aot/videos/R_S_yt-xWCPbUQc-vg_7.mp4	0.0	81.29226994514465	0.09996604919433594
10	26.374552011489868	fix_pre	0		56.0	8.0	2.5	/experiments/knapen_aot/videos/R_S_yt-VbKGc8N_29.mp4	0.0	81.39223599433899	0.4666321277618408
10	26.825528144836426	response	0	2		8.0	2.5	/experiments/knapen_aot/videos/R_S_yt-VbKGc8N_29.mp4	0.0	81.84321212768555	
10	26.84118413925171	movie	1		301.0	8.0	2.5	/experiments/knapen_aot/videos/R_S_yt-VbKGc8N_29.mp4	0.0	81.85886812210083	2.5084269046783447
10	29.349611043930054	fix_post	2		12.0	8.0	2.5	/experiments/knapen_aot/videos/R_S_yt-VbKGc8N_29.mp4	0.0	84.36729502677917	0.09996294975280762
11	29.44957399368286	fix_pre	0		24.0	9.0	2.5	/experiments/knapen_aot/videos/S_yt-1iB2ofPY1U8_16.mp4	0.0	84.46725797653198	0.2009570598602295
11	29.633854150772095	response	0	2		9.0	2.5	/experiments/knapen_aot/videos/S_yt-1iB2ofPY1U8_16.mp4	0.0	84.65153813362122	
11	29.65053105354309	movie	1		301.0	9.0	2.5	/experiments/knapen_aot/videos/S_yt-1iB2ofPY1U8_16.mp4	0.0	84.66821503639221	2.5073740482330322
11	32.15790510177612	fix_post	2		12.0	9.0	2.5	/experiments/knapen_aot/videos/S_yt-1iB2ofPY1U8_16.mp4	0.0	87.17558908462524	0.09985494613647461
12	32.2577600479126	fix_pre	0		32.0	10.0	2.5	/experiments/knapen_aot/videos/S_comp_A105_C002_v06_SDR_FINAL_25062018_SDR_2K_AVC.mp4	0.0	87.27544403076172	0.26761603355407715
12	32.51628518104553	response	0	2		10.0	2.5	/experiments/knapen_aot/videos/S_comp_A105_C002_v06_SDR_FINAL_25062018_SDR_2K_AVC.mp4	0.0	87.53396916389465	
12	32.525376081466675	movie	1		164.0	10.0	2.5	/experiments/knapen_aot/videos/S_comp_A105_C002_v06_SDR_FINAL_25062018_SDR_2K_AVC.mp4	0.0	87.5430600643158	2.5075390338897705
12	35.032915115356445	fix_post	2		12.0	10.0	2.5	/experiments/knapen_aot/videos/S_comp_A105_C002_v06_SDR_FINAL_25062018_SDR_2K_AVC.mp4	0.0	90.05059909820557	0.10029196739196777
13	35.13320708274841	fix_pre	0		16.0	11.0	2.5	/experiments/knapen_aot/videos/S_yt-lfDIg8kaXhA_169.mp4	0.0	90.15089106559753	0.13300490379333496
13	35.258031129837036	response	0	2		11.0	2.5	/experiments/knapen_aot/videos/S_yt-lfDIg8kaXhA_169.mp4	0.0	90.27571511268616	
13	35.26621198654175	movie	1		301.0	11.0	2.5	/experiments/knapen_aot/videos/S_yt-lfDIg8kaXhA_169.mp4	0.0	90.28389596939087	2.5082881450653076
13	37.774500131607056	fix_post	2		12.0	11.0	2.5	/experiments/knapen_aot/videos/S_yt-lfDIg8kaXhA_169.mp4	0.0	92.79218411445618	0.09999704360961914
14	37.874497175216675	fix_pre	0		28.0	12.0	2.5	/experiments/knapen_aot/videos/S_pexels-ron-lach-8071987.mp4	0.0	92.8921811580658	0.2341468334197998
14	38.09960603713989	response	0	2		12.0	2.5	/experiments/knapen_aot/videos/S_pexels-ron-lach-8071987.mp4	0.0	93.11729001998901	
14	38.108644008636475	movie	1		188.0	12.0	2.5	/experiments/knapen_aot/videos/S_pexels-ron-lach-8071987.mp4	0.0	93.1263279914856	2.5076839923858643
14	40.61632800102234	fix_post	2		12.0	12.0	2.5	/experiments/knapen_aot/videos/S_pexels-ron-lach-8071987.mp4	0.0	95.63401198387146	0.09987115859985352
15	40.71619915962219	fix_pre	0		21.0	13.0	2.5	blank	1.0	95.73388314247131	0.17492198944091797
15	40.88302803039551	response	0	2		13.0	2.5	blank	1.0	95.90071201324463	
15	40.89112114906311	movie	1		301.0	13.0	2.5	blank	1.0	95.90880513191223	2.5083539485931396
15	43.39947509765625	fix_post	2		12.0	13.0	2.5	blank	1.0	98.41715908050537	0.10000491142272949
16	43.49948000907898	fix_pre	0		33.0	14.0	2.5	/experiments/knapen_aot/videos/S_yt-RMjo2PPEPEA_112.mp4	0.0	98.5171639919281	0.2758491039276123
16	43.766213178634644	response	0	2		14.0	2.5	/experiments/knapen_aot/videos/S_yt-RMjo2PPEPEA_112.mp4	0.0	98.78389716148376	
16	43.77532911300659	movie	1		301.0	14.0	2.5	/experiments/knapen_aot/videos/S_yt-RMjo2PPEPEA_112.mp4	0.0	98.79301309585571	2.5074219703674316
16	46.28275108337402	fix_post	2		12.0	14.0	2.5	/experiments/knapen_aot/videos/S_yt-RMjo2PPEPEA_112.mp4	0.0	101.30043506622314	0.10006403923034668
17	46.38281512260437	fix_pre	0		34.0	15.0	2.5	/experiments/knapen_aot/videos/S_pexels-cottonbro-9063801.mp4	0.0	101.40049910545349	0.28325390815734863
17	46.650352001190186	response	0	2		15.0	2.5	/experiments/knapen_aot/videos/S_pexels-cottonbro-9063801.mp4	0.0	101.6680359840393	
17	46.66606903076172	movie	1		190.0	15.0	2.5	/experiments/knapen_aot/videos/S_pexels-cottonbro-9063801.mp4	0.0	101.68375301361084	2.5084049701690674
17	49.174474000930786	fix_post	2		12.0	15.0	2.5	/experiments/knapen_aot/videos/S_pexels-cottonbro-9063801.mp4	0.0	104.19215798377991	0.10007309913635254
18	49.27454710006714	fix_pre	0		17.0	16.0	2.5	/experiments/knapen_aot/videos/R_S_yt-Zn0YwrsCFOQ_44.mp4	0.0	104.29223108291626	0.141524076461792
18	49.40793514251709	response	0	2		16.0	2.5	/experiments/knapen_aot/videos/R_S_yt-Zn0YwrsCFOQ_44.mp4	0.0	104.42561912536621	
18	49.41607117652893	movie	1		301.0	16.0	2.5	/experiments/knapen_aot/videos/R_S_yt-Zn0YwrsCFOQ_44.mp4	0.0	104.43375515937805	2.508340835571289
18	51.92441201210022	fix_post	2		12.0	16.0	2.5	/experiments/knapen_aot/videos/R_S_yt-Zn0YwrsCFOQ_44.mp4	0.0	106.94209599494934	0.10002398490905762
19	52.02443599700928	fix_pre	0		29.0	17.0	2.5	/experiments/knapen_aot/videos/R_S_yt-2OoHcgS8sss_7.mp4	0.0	107.0421199798584	0.24167108535766602
19	52.25781202316284	response	0	2		17.0	2.5	/experiments/knapen_aot/videos/R_S_yt-2OoHcgS8sss_7.mp4	0.0	107.27549600601196	
19	52.26610708236694	movie	1		301.0	17.0	2.5	/experiments/knapen_aot/videos/R_S_yt-2OoHcgS8sss_7.mp4	0.0	107.28379106521606	2.508366107940674
19	54.77447319030762	fix_post	2		12.0	17.0	2.5	/experiments/knapen_aot/videos/R_S_yt-2OoHcgS8sss_7.mp4	0.0	109.79215717315674	0.10010600090026855
20	54.874579191207886	fix_pre	0		21.0	18.0	2.5	/experiments/knapen_aot/videos/S_video_inspire_california_vineyard_sierra-mar_sunrise_110.1080-h264.mp4	0.0	109.892263174057	0.17484283447265625
20	55.04118299484253	response	0	2		18.0	2.5	/experiments/knapen_aot/videos/S_video_inspire_california_vineyard_sierra-mar_sunrise_110.1080-h264.mp4	0.0	110.05886697769165	
20	55.04942202568054	movie	1		166.0	18.0	2.5	/experiments/knapen_aot/videos/S_video_inspire_california_vineyard_sierra-mar_sunrise_110.1080-h264.mp4	0.0	110.06710600852966	2.508366107940674
20	57.557788133621216	fix_post	2		12.0	18.0	2.5	/experiments/knapen_aot/videos/S_video_inspire_california_vineyard_sierra-mar_sunrise_110.1080-h264.mp4	0.0	112.57547211647034	0.10001301765441895
21	57.657801151275635	fix_pre	0		28.0	19.0	2.5	/experiments/knapen_aot/videos/R_S_yt-6xXEMHBQ08A_28.mp4	0.0	112.67548513412476	0.2334129810333252
21	57.88293218612671	response	0	2		19.0	2.5	/experiments/knapen_aot/videos/R_S_yt-6xXEMHBQ08A_28.mp4	0.0	112.90061616897583	
21	57.89121413230896	movie	1		301.0	19.0	2.5	/experiments/knapen_aot/videos/R_S_yt-6xXEMHBQ08A_28.mp4	0.0	112.90889811515808	2.5082998275756836
21	60.399513959884644	fix_post	2		12.0	19.0	2.5	/experiments/knapen_aot/videos/R_S_yt-6xXEMHBQ08A_28.mp4	0.0	115.41719794273376	0.10006999969482422
22	60.49958395957947	fix_pre	0		27.0	20.0	2.5	blank	1.0	115.51726794242859	0.22486114501953125
22	60.71618914604187	response	0	2		20.0	2.5	blank	1.0	115.73387312889099	
22	60.724445104599	movie	1		301.0	20.0	2.5	blank	1.0	115.74212908744812	2.5083320140838623
22	63.23277711868286	fix_post	2		12.0	20.0	2.5	blank	1.0	118.25046110153198	0.09999394416809082
23	63.33277106285095	fix_pre	0		25.0	21.0	2.5	/experiments/knapen_aot/videos/S_yt-PP93D7b7Ni4_10.mp4	0.0	118.35045504570007	0.20833706855773926
23	63.53291916847229	response	0	2		21.0	2.5	/experiments/knapen_aot/videos/S_yt-PP93D7b7Ni4_10.mp4	0.0	118.55060315132141	
23	63.54110813140869	movie	1		301.0	21.0	2.5	/experiments/knapen_aot/videos/S_yt-PP93D7b7Ni4_10.mp4	0.0	118.55879211425781	2.508333921432495
23	66.04944205284119	fix_post	2		12.0	21.0	2.5	/experiments/knapen_aot/videos/S_yt-PP93D7b7Ni4_10.mp4	0.0	121.06712603569031	0.0999610424041748
24	66.14940309524536	fix_pre	0		35.0	22.0	2.5	/experiments/knapen_aot/videos/S_yt-7Z6Kmp0n7L8_145.mp4	0.0	121.16708707809448	0.2923400402069092
24	66.43289804458618	response	0	2		22.0	2.5	/experiments/knapen_aot/videos/S_yt-7Z6Kmp0n7L8_145.mp4	0.0	121.4505820274353	
24	66.44174313545227	movie	1		301.0	22.0	2.5	/experiments/knapen_aot/videos/S_yt-7Z6Kmp0n7L8_145.mp4	0.0	121.45942711830139	2.507680892944336
24	68.9494240283966	fix_post	2		12.0	22.0	2.5	/experiments/knapen_aot/videos/S_yt-7Z6Kmp0n7L8_145.mp4	0.0	123.96710801124573	0.09999895095825195
25	69.04942297935486	fix_pre	0		30.0	23.0	2.5	/experiments/knapen_aot/videos/R_S_yt-82O1uT8dmv8_12.mp4	0.0	124.06710696220398	0.24996018409729004
25	69.29121899604797	response	0	2		23.0	2.5	/experiments/knapen_aot/videos/R_S_yt-82O1uT8dmv8_12.mp4	0.0	124.3089029788971	
25	69.29938316345215	movie	1		301.0	23.0	2.5	/experiments/knapen_aot/videos/R_S_yt-82O1uT8dmv8_12.mp4	0.0	124.31706714630127	2.5083999633789062
25	71.80778312683105	fix_post	2		12.0	23.0	2.5	/experiments/knapen_aot/videos/R_S_yt-82O1uT8dmv8_12.mp4	0.0	126.82546710968018	0.09993600845336914
26	71.90771913528442	fix_pre	0		45.0	24.0	2.5	/experiments/knapen_aot/videos/S_ILSVRC2015_train_00515001.mp4	0.0	126.92540311813354	0.37490296363830566
26	72.2744631767273	response	0	2		24.0	2.5	/experiments/knapen_aot/videos/S_ILSVRC2015_train_00515001.mp4	0.0	127.29214715957642	
26	72.28262209892273	movie	1		301.0	24.0	2.5	/experiments/knapen_aot/videos/S_ILSVRC2015_train_00515001.mp4	0.0	127.30030608177185	2.508486032485962
26	74.79110813140869	fix_post	2		12.0	24.0	2.5	/experiments/knapen_aot/videos/S_ILSVRC2015_train_00515001.mp4	0.0	129.8087921142578	0.0999460220336914
27	74.89105415344238	fix_pre	0		47.0	25.0	2.5	/experiments/knapen_aot/videos/S_yt-O4wUEZwHLyI_114.mp4	0.0	129.9087381362915	0.3916049003601074
27	75.27446413040161	response	0	2		25.0	2.5	/experiments/knapen_aot/videos/S_yt-O4wUEZwHLyI_114.mp4	0.0	130.29214811325073	
27	75.28265905380249	movie	1		301.0	25.0	2.5	/experiments/knapen_aot/videos/S_yt-O4wUEZwHLyI_114.mp4	0.0	130.3003430366516	2.5083909034729004
27	77.79104995727539	fix_post	2		12.0	25.0	2.5	/experiments/knapen_aot/videos/S_yt-O4wUEZwHLyI_114.mp4	0.0	132.8087339401245	0.09994816780090332
28	77.8909981250763	fix_pre	0		27.0	26.0	2.5	/experiments/knapen_aot/videos/S_yt-O_6CyqHeJig_132.mp4	0.0	132.90868210792542	0.22502589225769043
28	78.10772109031677	response	0	2		26.0	2.5	/experiments/knapen_aot/videos/S_yt-O_6CyqHeJig_132.mp4	0.0	133.1254050731659	
28	78.11602401733398	movie	1		301.0	26.0	2.5	/experiments/knapen_aot/videos/S_yt-O_6CyqHeJig_132.mp4	0.0	133.1337080001831	2.508315086364746
28	80.62433910369873	fix_post	2		12.0	26.0	2.5	/experiments/knapen_aot/videos/S_yt-O_6CyqHeJig_132.mp4	0.0	135.64202308654785	0.09999608993530273
29	80.72433519363403	fix_pre	0		59.0	27.0	2.5	blank	1.0	135.74201917648315	0.49165987968444824
29	81.20034408569336	response	0	2		27.0	2.5	blank	1.0	136.21802806854248	
29	81.21599507331848	movie	1		301.0	27.0	2.5	blank	1.0	136.2336790561676	2.508413076400757
29	83.72440814971924	fix_post	2		12.0	27.0	2.5	blank	1.0	138.74209213256836	0.09986996650695801
30	83.8242781162262	fix_pre	0		31.0	28.0	2.5	/experiments/knapen_aot/videos/R_S_yt-tX3slAQb9yY_13.mp4	0.0	138.84196209907532	0.258342981338501
30	84.07451796531677	response	0	2		28.0	2.5	/experiments/knapen_aot/videos/R_S_yt-tX3slAQb9yY_13.mp4	0.0	139.0922019481659	
30	84.0826210975647	movie	1		301.0	28.0	2.5	/experiments/knapen_aot/videos/R_S_yt-tX3slAQb9yY_13.mp4	0.0	139.10030508041382	2.5083329677581787
30	86.59095406532288	fix_post	2		12.0	28.0	2.5	/experiments/knapen_aot/videos/R_S_yt-tX3slAQb9yY_13.mp4	0.0	141.608638048172	0.10002803802490234
31	86.69098210334778	fix_pre	0		35.0	29.0	2.5	/experiments/knapen_aot/videos/R_S_yt_R-lST38EdfMMQ_5.mp4	0.0	141.7086660861969	0.29227399826049805
31	86.97439908981323	response	0	2		29.0	2.5	/experiments/knapen_aot/videos/R_S_yt_R-lST38EdfMMQ_5.mp4	0.0	141.99208307266235	
31	86.98325610160828	movie	1		301.0	29.0	2.5	/experiments/knapen_aot/videos/R_S_yt_R-lST38EdfMMQ_5.mp4	0.0	142.0009400844574	2.5077929496765137
31	89.49104905128479	fix_post	2		12.0	29.0	2.5	/experiments/knapen_aot/videos/R_S_yt_R-lST38EdfMMQ_5.mp4	0.0	144.5087330341339	0.09990096092224121
32	89.59095001220703	fix_pre	0		22.0	30.0	2.5	/experiments/knapen_aot/videos/R_S_yt-GWOOQZ19-oU_331.mp4	0.0	144.60863399505615	0.18396210670471191
32	89.76603412628174	response	0	2		30.0	2.5	/experiments/knapen_aot/videos/R_S_yt-GWOOQZ19-oU_331.mp4	0.0	144.78371810913086	
32	89.77491211891174	movie	1		301.0	30.0	2.5	/experiments/knapen_aot/videos/R_S_yt-GWOOQZ19-oU_331.mp4	0.0	144.79259610176086	2.507781982421875
32	92.28269410133362	fix_post	2		12.0	30.0	2.5	/experiments/knapen_aot/videos/R_S_yt-GWOOQZ19-oU_331.mp4	0.0	147.30037808418274	0.09998297691345215
33	92.38267707824707	fix_pre	0		34.0	31.0	2.5	/experiments/knapen_aot/videos/S_yt-WrwPgZYBXlA_34.mp4	0.0	147.4003610610962	0.2832369804382324
33	92.6577250957489	response	0	2		31.0	2.5	/experiments/knapen_aot/videos/S_yt-WrwPgZYBXlA_34.mp4	0.0	147.67540907859802	
33	92.6659140586853	movie	1		301.0	31.0	2.5	/experiments/knapen_aot/videos/S_yt-WrwPgZYBXlA_34.mp4	0.0	147.68359804153442	2.508579969406128
33	95.17449402809143	fix_post	2		12.0	31.0	2.5	/experiments/knapen_aot/videos/S_yt-WrwPgZYBXlA_34.mp4	0.0	150.19217801094055	0.09981203079223633
34	95.27430605888367	fix_pre	0		30.0	32.0	2.5	/experiments/knapen_aot/videos/R_S_ILSVRC2015_train_00364000.mp4	0.0	150.2919900417328	0.25058412551879883
34	95.5160961151123	response	0	2		32.0	2.5	/experiments/knapen_aot/videos/R_S_ILSVRC2015_train_00364000.mp4	0.0	150.53378009796143	
34	95.52489018440247	movie	1		301.0	32.0	2.5	/experiments/knapen_aot/videos/R_S_ILSVRC2015_train_00364000.mp4	0.0	150.5425741672516	2.5078117847442627
34	98.03270196914673	fix_post	2		12.0	32.0	2.5	/experiments/knapen_aot/videos/R_S_ILSVRC2015_train_00364000.mp4	0.0	153.05038595199585	0.09990119934082031
35	98.13260316848755	fix_pre	0		37.0	33.0	2.5	/experiments/knapen_aot/videos/S_yt-VJ65ukWmdxQ_193.mp4	0.0	153.15028715133667	0.3089139461517334
35	98.43274712562561	response	0	2		33.0	2.5	/experiments/knapen_aot/videos/S_yt-VJ65ukWmdxQ_193.mp4	0.0	153.45043110847473	
35	98.44151711463928	movie	1		301.0	33.0	2.5	/experiments/knapen_aot/videos/S_yt-VJ65ukWmdxQ_193.mp4	0.0	153.4592010974884	2.5077998638153076
35	100.94931697845459	fix_post	2		12.0	33.0	2.5	/experiments/knapen_aot/videos/S_yt-VJ65ukWmdxQ_193.mp4	0.0	155.9670009613037	0.10003805160522461
36	101.04935503005981	fix_pre	0		22.0	34.0	2.5	/experiments/knapen_aot/videos/R_S_ILSVRC2015_train_00450001.mp4	0.0	156.06703901290894	0.18376708030700684
36	101.22439908981323	response	0	2		34.0	2.5	/experiments/knapen_aot/videos/R_S_ILSVRC2015_train_00450001.mp4	0.0	156.24208307266235	
36	101.23312211036682	movie	1		301.0	34.0	2.5	/experiments/knapen_aot/videos/R_S_ILSVRC2015_train_00450001.mp4	0.0	156.25080609321594	2.507828950881958
36	103.74095106124878	fix_post	2		12.0	34.0	2.5	/experiments/knapen_aot/videos/R_S_ILSVRC2015_train_00450001.mp4	0.0	158.7586350440979	0.1002199649810791
37	103.84117102622986	fix_pre	0		25.0	35.0	2.5	blank	1.0	158.85885500907898	0.2081301212310791
37	104.04120397567749	response	0	2		35.0	2.5	blank	1.0	159.0588879585266	
37	104.04930114746094	movie	1		301.0	35.0	2.5	blank	1.0	159.06698513031006	2.508258819580078
37	106.55755996704102	fix_post	2		12.0	35.0	2.5	blank	1.0	161.57524394989014	0.10007214546203613
38	106.65763211250305	fix_pre	0		35.0	36.0	2.5	/experiments/knapen_aot/videos/S_yt-xCh0LI9VKeI_28.mp4	0.0	161.67531609535217	0.2915990352630615
38	106.94099116325378	response	0	2		36.0	2.5	/experiments/knapen_aot/videos/S_yt-xCh0LI9VKeI_28.mp4	0.0	161.9586751461029	
38	106.94923114776611	movie	1		301.0	36.0	2.5	/experiments/knapen_aot/videos/S_yt-xCh0LI9VKeI_28.mp4	0.0	161.96691513061523	2.5083959102630615
38	109.45762705802917	fix_post	2		12.0	36.0	2.5	/experiments/knapen_aot/videos/S_yt-xCh0LI9VKeI_28.mp4	0.0	164.4753110408783	0.09996199607849121
39	109.55758905410767	fix_pre	0		23.0	37.0	2.5	/experiments/knapen_aot/videos/R_S_m-aeoYPMqfg_185.mp4	0.0	164.5752730369568	0.19159293174743652
39	109.74103307723999	response	0	2		37.0	2.5	/experiments/knapen_aot/videos/R_S_m-aeoYPMqfg_185.mp4	0.0	164.7587170600891	
39	109.7491819858551	movie	1		301.0	37.0	2.5	/experiments/knapen_aot/videos/R_S_m-aeoYPMqfg_185.mp4	0.0	164.76686596870422	2.50832200050354
39	112.25750398635864	fix_post	2		12.0	37.0	2.5	/experiments/knapen_aot/videos/R_S_m-aeoYPMqfg_185.mp4	0.0	167.27518796920776	0.10008811950683594
40	112.35759210586548	fix_pre	0		29.0	38.0	2.5	/experiments/knapen_aot/videos/S_pexels-mikhail-nilov-8410063_1.mp4	0.0	167.3752760887146	0.2416238784790039
40	112.59099316596985	response	0	2		38.0	2.5	/experiments/knapen_aot/videos/S_pexels-mikhail-nilov-8410063_1.mp4	0.0	167.60867714881897	
40	112.59921598434448	movie	1		168.0	38.0	2.5	/experiments/knapen_aot/videos/S_pexels-mikhail-nilov-8410063_1.mp4	0.0	167.6168999671936	2.50832200050354
40	115.10753798484802	fix_post	2		12.0	38.0	2.5	/experiments/knapen_aot/videos/S_pexels-mikhail-nilov-8410063_1.mp4	0.0	170.12522196769714	0.10004019737243652
41	115.20757818222046	fix_pre	0		25.0	39.0	2.5	/experiments/knapen_aot/videos/R_S_ILSVRC2015_train_00545000.mp4	0.0	170.22526216506958	0.2082509994506836
41	115.40781307220459	response	0	2		39.0	2.5	/experiments/knapen_aot/videos/R_S_ILSVRC2015_train_00545000.mp4	0.0	170.4254970550537	
41	115.41582918167114	movie	1		301.0	39.0	2.5	/experiments/knapen_aot/videos/R_S_ILSVRC2015_train_00545000.mp4	0.0	170.43351316452026	2.5083799362182617
41	117.9242091178894	fix_post	2		12.0	39.0	2.5	/experiments/knapen_aot/videos/R_S_ILSVRC2015_train_00545000.mp4	0.0	172.94189310073853	0.0999908447265625
42	118.02419996261597	fix_pre	0		34.0	40.0	2.5	/experiments/knapen_aot/videos/S_yt-cG2qDR5ka5w_119.mp4	0.0	173.0418839454651	0.28325510025024414
42	118.29926204681396	response	0	2		40.0	2.5	/experiments/knapen_aot/videos/S_yt-cG2qDR5ka5w_119.mp4	0.0	173.3169460296631	
42	118.30745506286621	movie	1		301.0	40.0	2.5	/experiments/knapen_aot/videos/S_yt-cG2qDR5ka5w_119.mp4	0.0	173.32513904571533	2.508436918258667
42	120.81589198112488	fix_post	2		12.0	40.0	2.5	/experiments/knapen_aot/videos/S_yt-cG2qDR5ka5w_119.mp4	0.0	175.833575963974	0.0999610424041748
43	120.91585302352905	fix_pre	0		32.0	41.0	2.5	/experiments/knapen_aot/videos/S_G009_C003_UHD_SDR_2K_AVC.mp4	0.0	175.93353700637817	0.2665541172027588
43	121.17423796653748	response	0	2		41.0	2.5	/experiments/knapen_aot/videos/S_G009_C003_UHD_SDR_2K_AVC.mp4	0.0	176.1919219493866	
43	121.18240714073181	movie	1		166.0	41.0	2.5	/experiments/knapen_aot/videos/S_G009_C003_UHD_SDR_2K_AVC.mp4	0.0	176.20009112358093	2.508704900741577
43	123.69111204147339	fix_post	2		12.0	41.0	2.5	/experiments/knapen_aot/videos/S_G009_C003_UHD_SDR_2K_AVC.mp4	0.0	178.7087960243225	0.09970498085021973
44	123.79081702232361	fix_pre	0		27.0	42.0	2.5	blank	1.0	178.80850100517273	0.22502493858337402
44	124.00760698318481	response	0	2		42.0	2.5	blank	1.0	179.02529096603394	
44	124.01584196090698	movie	1		301.0	42.0	2.5	blank	1.0	179.0335259437561	2.5083072185516357
44	126.52414917945862	fix_post	2		12.0	42.0	2.5	blank	1.0	181.54183316230774	0.10001182556152344
45	126.62416100502014	fix_pre	0		37.0	43.0	2.5	/experiments/knapen_aot/videos/S_yt-Zn0YwrsCFOQ_44.mp4	0.0	181.64184498786926	0.30828213691711426
45	126.92420601844788	response	0	2		43.0	2.5	/experiments/knapen_aot/videos/S_yt-Zn0YwrsCFOQ_44.mp4	0.0	181.941890001297	
45	126.93244314193726	movie	1		301.0	43.0	2.5	/experiments/knapen_aot/videos/S_yt-Zn0YwrsCFOQ_44.mp4	0.0	181.95012712478638	2.5083489418029785
45	129.44079208374023	fix_post	2		12.0	43.0	2.5	/experiments/knapen_aot/videos/S_yt-Zn0YwrsCFOQ_44.mp4	0.0	184.45847606658936	0.09995889663696289
46	129.5407509803772	fix_pre	0		40.0	44.0	2.5	/experiments/knapen_aot/videos/S_yt-RMjo2PPEPEA_112.mp4	0.0	184.55843496322632	0.3333930969238281
46	129.86596417427063	response	0	2		44.0	2.5	/experiments/knapen_aot/videos/S_yt-RMjo2PPEPEA_112.mp4	0.0	184.88364815711975	
46	129.87414407730103	movie	1		301.0	44.0	2.5	/experiments/knapen_aot/videos/S_yt-RMjo2PPEPEA_112.mp4	0.0	184.89182806015015	2.5083200931549072
46	132.38246417045593	fix_post	2		12.0	44.0	2.5	/experiments/knapen_aot/videos/S_yt-RMjo2PPEPEA_112.mp4	0.0	187.40014815330505	0.10006594657897949
47	132.4825301170349	fix_pre	0		38.0	45.0	2.5	/experiments/knapen_aot/videos/S_ILSVRC2015_train_00479002.mp4	0.0	187.50021409988403	0.31676697731018066
47	132.7909049987793	response	0	2		45.0	2.5	/experiments/knapen_aot/videos/S_ILSVRC2015_train_00479002.mp4	0.0	187.80858898162842	
47	132.7992970943451	movie	1		301.0	45.0	2.5	/experiments/knapen_aot/videos/S_ILSVRC2015_train_00479002.mp4	0.0	187.8169810771942	2.508168935775757
47	135.30746603012085	fix_post	2		12.0	45.0	2.5	/experiments/knapen_aot/videos/S_ILSVRC2015_train_00479002.mp4	0.0	190.32515001296997	0.09994912147521973
48	135.40741515159607	fix_pre	0		39.0	46.0	2.5	/experiments/knapen_aot/videos/R_S_comp_LA_A005_C009_PSNK_ALT_v09_SDR_PS_201809134_SDR_2K_AVC.mp4	0.0	190.4250991344452	0.325423002243042
48	135.7241849899292	response	0	2		46.0	2.5	/experiments/knapen_aot/videos/R_S_comp_LA_A005_C009_PSNK_ALT_v09_SDR_PS_201809134_SDR_2K_AVC.mp4	0.0	190.74186897277832	
48	135.7328381538391	movie	1		171.0	46.0	2.5	/experiments/knapen_aot/videos/R_S_comp_LA_A005_C009_PSNK_ALT_v09_SDR_PS_201809134_SDR_2K_AVC.mp4	0.0	190.75052213668823	2.50793194770813
48	138.24077010154724	fix_post	2		12.0	46.0	2.5	/experiments/knapen_aot/videos/R_S_comp_LA_A005_C009_PSNK_ALT_v09_SDR_PS_201809134_SDR_2K_AVC.mp4	0.0	193.25845408439636	0.09997200965881348
49	138.34074211120605	fix_pre	0		34.0	47.0	2.5	/experiments/knapen_aot/videos/S_yt-LdHRVIb4nIE_6.mp4	0.0	193.35842609405518	0.28336000442504883
49	138.6083390712738	response	0	2		47.0	2.5	/experiments/knapen_aot/videos/S_yt-LdHRVIb4nIE_6.mp4	0.0	193.62602305412292	
49	138.6241021156311	movie	1		301.0	47.0	2.5	/experiments/knapen_aot/videos/S_yt-LdHRVIb4nIE_6.mp4	0.0	193.64178609848022	2.5083489418029785
49	141.13245105743408	fix_post	2		12.0	47.0	2.5	/experiments/knapen_aot/videos/S_yt-LdHRVIb4nIE_6.mp4	0.0	196.1501350402832	0.10008597373962402
50	141.2325370311737	fix_pre	0		45.0	48.0	2.5	/experiments/knapen_aot/videos/S_yt-JPsTqfqfPIY_319.mp4	0.0	196.25022101402283	0.37514710426330566
50	141.59919810295105	response	0	2		48.0	2.5	/experiments/knapen_aot/videos/S_yt-JPsTqfqfPIY_319.mp4	0.0	196.61688208580017	
50	141.607684135437	movie	1		301.0	48.0	2.5	/experiments/knapen_aot/videos/S_yt-JPsTqfqfPIY_319.mp4	0.0	196.62536811828613	2.508112907409668
50	144.11579704284668	fix_post	2		12.0	48.0	2.5	/experiments/knapen_aot/videos/S_yt-JPsTqfqfPIY_319.mp4	0.0	199.1334810256958	0.0999610424041748
51	144.21575808525085	fix_pre	0		65.0	49.0	2.5	blank	1.0	199.23344206809998	0.541632890701294
51	144.74922513961792	response	0	2		49.0	2.5	blank	1.0	199.76690912246704	
51	144.75739097595215	movie	1		301.0	49.0	2.5	blank	1.0	199.77507495880127	2.5083391666412354
51	147.26573014259338	fix_post	2		12.0	49.0	2.5	blank	1.0	202.2834141254425	0.10002493858337402
52	147.36575508117676	fix_pre	0		43.0	50.0	2.5	/experiments/knapen_aot/videos/R_S_pexels-mart-production-7698693.mp4	0.0	202.38343906402588	0.35829901695251465
52	147.71584606170654	response	0	2		50.0	2.5	/experiments/knapen_aot/videos/R_S_pexels-mart-production-7698693.mp4	0.0	202.73353004455566	
52	147.72405409812927	movie	1		181.0	50.0	2.5	/experiments/knapen_aot/videos/R_S_pexels-mart-production-7698693.mp4	0.0	202.7417380809784	2.508357048034668
52	150.23241114616394	fix_post	2		12.0	50.0	2.5	/experiments/knapen_aot/videos/R_S_pexels-mart-production-7698693.mp4	0.0	205.25009512901306	0.1000068187713623
53	150.3324179649353	fix_pre	0		36.0	51.0	2.5	/experiments/knapen_aot/videos/S_yt-JtR6WZXT2kU_8.mp4	0.0	205.35010194778442	0.2998921871185303
53	150.61663603782654	response	0	2		51.0	2.5	/experiments/knapen_aot/videos/S_yt-JtR6WZXT2kU_8.mp4	0.0	205.63432002067566	
53	150.63231015205383	movie	1		301.0	51.0	2.5	/experiments/knapen_aot/videos/S_yt-JtR6WZXT2kU_8.mp4	0.0	205.64999413490295	2.5084388256073
53	153.14074897766113	fix_post	2		12.0	51.0	2.5	/experiments/knapen_aot/videos/S_yt-JtR6WZXT2kU_8.mp4	0.0	208.15843296051025	0.0999610424041748
54	153.2407100200653	fix_pre	0		66.0	52.0	2.5	/experiments/knapen_aot/videos/R_S_ILSVRC2015_train_00364000.mp4	0.0	208.25839400291443	0.5500800609588623
54	153.77494597434998	response	0	2		52.0	2.5	/experiments/knapen_aot/videos/R_S_ILSVRC2015_train_00364000.mp4	0.0	208.7926299571991	
54	153.79079008102417	movie	1		301.0	52.0	2.5	/experiments/knapen_aot/videos/R_S_ILSVRC2015_train_00364000.mp4	0.0	208.8084740638733	2.508213996887207
54	156.29900407791138	fix_post	2		12.0	52.0	2.5	/experiments/knapen_aot/videos/R_S_ILSVRC2015_train_00364000.mp4	0.0	211.3166880607605	0.10034489631652832
55	156.3993489742279	fix_pre	0		34.0	53.0	2.5	/experiments/knapen_aot/videos/R_S_yt-aSEKRE_FNaI_62.mp4	0.0	211.41703295707703	0.28298020362854004
55	156.67415618896484	response	0	2		53.0	2.5	/experiments/knapen_aot/videos/R_S_yt-aSEKRE_FNaI_62.mp4	0.0	211.69184017181396	
55	156.68232917785645	movie	1		301.0	53.0	2.5	/experiments/knapen_aot/videos/R_S_yt-aSEKRE_FNaI_62.mp4	0.0	211.70001316070557	2.508389949798584
55	159.19071912765503	fix_post	2		12.0	53.0	2.5	/experiments/knapen_aot/videos/R_S_yt-aSEKRE_FNaI_62.mp4	0.0	214.20840311050415	0.09997200965881348
56	159.29069113731384	fix_pre	0		22.0	54.0	2.5	/experiments/knapen_aot/videos/R_S_ILSVRC2015_train_00515001.mp4	0.0	214.30837512016296	0.18334484100341797
56	159.46580505371094	response	0	2		54.0	2.5	/experiments/knapen_aot/videos/R_S_ILSVRC2015_train_00515001.mp4	0.0	214.48348903656006	
56	159.47403597831726	movie	1		301.0	54.0	2.5	/experiments/knapen_aot/videos/R_S_ILSVRC2015_train_00515001.mp4	0.0	214.49171996116638	2.508305072784424
56	161.98234105110168	fix_post	2		12.0	54.0	2.5	/experiments/knapen_aot/videos/R_S_ILSVRC2015_train_00515001.mp4	0.0	217.0000250339508	0.09993290901184082
57	162.08227396011353	fix_pre	0		25.0	55.0	2.5	/experiments/knapen_aot/videos/R_S_yt-J2PiBa1MXI0_210.mp4	0.0	217.09995794296265	0.20837807655334473
57	162.28232502937317	response	0	2		55.0	2.5	/experiments/knapen_aot/videos/R_S_yt-J2PiBa1MXI0_210.mp4	0.0	217.3000090122223	
57	162.29065203666687	movie	1		301.0	55.0	2.5	/experiments/knapen_aot/videos/R_S_yt-J2PiBa1MXI0_210.mp4	0.0	217.308336019516	2.5083820819854736
57	164.79903411865234	fix_post	2		12.0	55.0	2.5	/experiments/knapen_aot/videos/R_S_yt-J2PiBa1MXI0_210.mp4	0.0	219.81671810150146	0.10023188591003418
58	164.89926600456238	fix_pre	0		51.0	56.0	2.5	blank	1.0	219.9169499874115	0.4246799945831299
58	165.31575918197632	response	0	2		56.0	2.5	blank	1.0	220.33344316482544	
58	165.3239459991455	movie	1		301.0	56.0	2.5	blank	1.0	220.34162998199463	2.508316993713379
58	167.8322629928589	fix_post	2		12.0	56.0	2.5	blank	1.0	222.849946975708	0.1000521183013916
59	167.93231511116028	fix_pre	0		35.0	57.0	2.5	/experiments/knapen_aot/videos/S_ILSVRC2015_train_00756000.mp4	0.0	222.9499990940094	0.291640043258667
59	168.2157380580902	response	0	2		57.0	2.5	/experiments/knapen_aot/videos/S_ILSVRC2015_train_00756000.mp4	0.0	223.23342204093933	
59	168.22395515441895	movie	1		301.0	57.0	2.5	/experiments/knapen_aot/videos/S_ILSVRC2015_train_00756000.mp4	0.0	223.24163913726807	2.5088868141174316
59	170.73284196853638	fix_post	2		12.0	57.0	2.5	/experiments/knapen_aot/videos/S_ILSVRC2015_train_00756000.mp4	0.0	225.7505259513855	0.09949922561645508
60	170.83234119415283	fix_pre	0		51.0	58.0	2.5	/experiments/knapen_aot/videos/S_ILSVRC2015_train_00704000.mp4	0.0	225.85002517700195	0.42486095428466797
60	171.2414300441742	response	0	2		58.0	2.5	/experiments/knapen_aot/videos/S_ILSVRC2015_train_00704000.mp4	0.0	226.25911402702332	
60	171.2572021484375	movie	1		301.0	58.0	2.5	/experiments/knapen_aot/videos/S_ILSVRC2015_train_00704000.mp4	0.0	226.27488613128662	2.5083978176116943
60	173.7655999660492	fix_post	2		12.0	58.0	2.5	/experiments/knapen_aot/videos/S_ILSVRC2015_train_00704000.mp4	0.0	228.78328394889832	0.10002017021179199
61	173.865620136261	fix_pre	0		53.0	59.0	2.5	/experiments/knapen_aot/videos/S_yt-7Ya-rGPO8cM_159.mp4	0.0	228.8833041191101	0.44165587425231934
61	174.29909110069275	response	0	2		59.0	2.5	/experiments/knapen_aot/videos/S_yt-7Ya-rGPO8cM_159.mp4	0.0	229.31677508354187	
61	174.3072760105133	movie	1		301.0	59.0	2.5	/experiments/knapen_aot/videos/S_yt-7Ya-rGPO8cM_159.mp4	0.0	229.32495999336243	2.5088939666748047
61	176.8161699771881	fix_post	2		12.0	59.0	2.5	/experiments/knapen_aot/videos/S_yt-7Ya-rGPO8cM_159.mp4	0.0	231.83385396003723	0.09953117370605469
62	176.91570115089417	fix_pre	0		42.0	60.0	2.5	/experiments/knapen_aot/videos/R_S_b1-3.mp4	0.0	231.9333851337433	0.34993600845336914
62	177.2573549747467	response	0	2		60.0	2.5	/experiments/knapen_aot/videos/R_S_b1-3.mp4	0.0	232.27503895759583	
62	177.26563715934753	movie	1		167.0	60.0	2.5	/experiments/knapen_aot/videos/R_S_b1-3.mp4	0.0	232.28332114219666	2.5084729194641113
62	179.77411007881165	fix_post	2		12.0	60.0	2.5	/experiments/knapen_aot/videos/R_S_b1-3.mp4	0.0	234.79179406166077	0.09983110427856445
63	179.8739411830902	fix_pre	0		29.0	61.0	2.5	/experiments/knapen_aot/videos/R_S_yt-tHBOlYmaBuk_96.mp4	0.0	234.89162516593933	0.24163579940795898
63	180.10742807388306	response	0	2		61.0	2.5	/experiments/knapen_aot/videos/R_S_yt-tHBOlYmaBuk_96.mp4	0.0	235.12511205673218	
63	180.11557698249817	movie	1		301.0	61.0	2.5	/experiments/knapen_aot/videos/R_S_yt-tHBOlYmaBuk_96.mp4	0.0	235.1332609653473	2.508553981781006
63	182.62413096427917	fix_post	2		12.0	61.0	2.5	/experiments/knapen_aot/videos/R_S_yt-tHBOlYmaBuk_96.mp4	0.0	237.6418149471283	0.09979009628295898
64	182.72392106056213	fix_pre	0		80.0	62.0	2.5	/experiments/knapen_aot/videos/R_S_yt-xSGPe0KemD4_384.mp4	0.0	237.74160504341125	0.6665709018707275
64	183.38243198394775	response	0	2		62.0	2.5	/experiments/knapen_aot/videos/R_S_yt-xSGPe0KemD4_384.mp4	0.0	238.40011596679688	
64	183.39049196243286	movie	1		301.0	62.0	2.5	/experiments/knapen_aot/videos/R_S_yt-xSGPe0KemD4_384.mp4	0.0	238.40817594528198	2.5086300373077393
64	185.8991219997406	fix_post	2		12.0	62.0	2.5	/experiments/knapen_aot/videos/R_S_yt-xSGPe0KemD4_384.mp4	0.0	240.91680598258972	0.09981918334960938
65	185.9989411830902	fix_pre	0		23.0	63.0	2.5	blank	1.0	241.01662516593933	0.19170784950256348
65	186.18239903450012	response	0	2		63.0	2.5	blank	1.0	241.20008301734924	
65	186.19064903259277	movie	1		301.0	63.0	2.5	blank	1.0	241.2083330154419	2.5082409381866455
65	188.69888997077942	fix_post	2		12.0	63.0	2.5	blank	1.0	243.71657395362854	0.10002422332763672
66	188.79891419410706	fix_pre	0		57.0	64.0	2.5	/experiments/knapen_aot/videos/R_S_yt-fk-z6WCvjjA_3.mp4	0.0	243.81659817695618	0.47497987747192383
66	189.26567006111145	response	0	2		64.0	2.5	/experiments/knapen_aot/videos/R_S_yt-fk-z6WCvjjA_3.mp4	0.0	244.28335404396057	
66	189.27389407157898	movie	1		301.0	64.0	2.5	/experiments/knapen_aot/videos/R_S_yt-fk-z6WCvjjA_3.mp4	0.0	244.2915780544281	2.508289098739624
66	191.7821831703186	fix_post	2		12.0	64.0	2.5	/experiments/knapen_aot/videos/R_S_yt-fk-z6WCvjjA_3.mp4	0.0	246.79986715316772	0.10002589225769043
67	191.8822090625763	fix_pre	0		75.0	65.0	2.5	/experiments/knapen_aot/videos/S_yt-xSGPe0KemD4_384.mp4	0.0	246.89989304542542	0.6249730587005615
67	192.4989631175995	response	0	2		65.0	2.5	/experiments/knapen_aot/videos/S_yt-xSGPe0KemD4_384.mp4	0.0	247.5166471004486	
67	192.50718212127686	movie	1		301.0	65.0	2.5	/experiments/knapen_aot/videos/S_yt-xSGPe0KemD4_384.mp4	0.0	247.52486610412598	2.5083940029144287
67	195.01557612419128	fix_post	2		12.0	65.0	2.5	/experiments/knapen_aot/videos/S_yt-xSGPe0KemD4_384.mp4	0.0	250.0332601070404	0.09991788864135742
68	195.11549401283264	fix_pre	0		30.0	66.0	2.5	/experiments/knapen_aot/videos/S_EFR8AteY59I_15.mp4	0.0	250.13317799568176	0.2500419616699219
68	195.35731196403503	response	0	2		66.0	2.5	/experiments/knapen_aot/videos/S_EFR8AteY59I_15.mp4	0.0	250.37499594688416	
68	195.36553597450256	movie	1		301.0	66.0	2.5	/experiments/knapen_aot/videos/S_EFR8AteY59I_15.mp4	0.0	250.38321995735168	2.5083370208740234
68	197.8738729953766	fix_post	2		12.0	66.0	2.5	/experiments/knapen_aot/videos/S_EFR8AteY59I_15.mp4	0.0	252.8915569782257	0.09995198249816895
69	197.97382497787476	fix_pre	0		55.0	67.0	2.5	/experiments/knapen_aot/videos/R_S_flickr-slruok-8006772217_6.mp4	0.0	252.99150896072388	0.45827412605285645
69	198.42397618293762	response	0	2		67.0	2.5	/experiments/knapen_aot/videos/R_S_flickr-slruok-8006772217_6.mp4	0.0	253.44166016578674	
69	198.4320991039276	movie	1		301.0	67.0	2.5	/experiments/knapen_aot/videos/R_S_flickr-slruok-8006772217_6.mp4	0.0	253.44978308677673	2.5087568759918213
69	200.94085597991943	fix_post	2		12.0	67.0	2.5	/experiments/knapen_aot/videos/R_S_flickr-slruok-8006772217_6.mp4	0.0	255.95853996276855	0.0997161865234375
70	201.04057216644287	fix_pre	0		41.0	68.0	2.5	/experiments/knapen_aot/videos/S_yt-lzXao6Reec4_14.mp4	0.0	256.058256149292	0.3415088653564453
70	201.37397003173828	response	0	2		68.0	2.5	/experiments/knapen_aot/videos/S_yt-lzXao6Reec4_14.mp4	0.0	256.3916540145874	
70	201.38208103179932	movie	1		301.0	68.0	2.5	/experiments/knapen_aot/videos/S_yt-lzXao6Reec4_14.mp4	0.0	256.39976501464844	2.508455991744995
70	203.8905370235443	fix_post	2		12.0	68.0	2.5	/experiments/knapen_aot/videos/S_yt-lzXao6Reec4_14.mp4	0.0	258.90822100639343	0.09998798370361328
71	203.99052500724792	fix_pre	0		18.0	69.0	2.5	/experiments/knapen_aot/videos/R_S_yt-xrPrnzvWUkY_7.mp4	0.0	259.00820899009705	0.14996004104614258
71	204.13225197792053	response	0	2		69.0	2.5	/experiments/knapen_aot/videos/R_S_yt-xrPrnzvWUkY_7.mp4	0.0	259.14993596076965	
71	204.14048504829407	movie	1		301.0	69.0	2.5	/experiments/knapen_aot/videos/R_S_yt-xrPrnzvWUkY_7.mp4	0.0	259.1581690311432	2.5085670948028564
71	206.64905214309692	fix_post	2		12.0	69.0	2.5	/experiments/knapen_aot/videos/R_S_yt-xrPrnzvWUkY_7.mp4	0.0	261.66673612594604	0.09977889060974121
72	206.74883103370667	fix_pre	0		29.0	70.0	2.5	blank	1.0	261.7665150165558	0.24170899391174316
72	206.98232913017273	response	0	2		70.0	2.5	blank	1.0	262.00001311302185	
72	206.9905400276184	movie	1		301.0	70.0	2.5	blank	1.0	262.00822401046753	2.508270025253296
72	209.4988100528717	fix_post	2		12.0	70.0	2.5	blank	1.0	264.5164940357208	0.10005307197570801
73	209.5988631248474	fix_pre	0		30.0	71.0	2.5	/experiments/knapen_aot/videos/S_yt-wnQFgNEnHUI_109.mp4	0.0	264.61654710769653	0.24992799758911133
73	209.84059405326843	response	0	2		71.0	2.5	/experiments/knapen_aot/videos/S_yt-wnQFgNEnHUI_109.mp4	0.0	264.85827803611755	
73	209.84879112243652	movie	1		301.0	71.0	2.5	/experiments/knapen_aot/videos/S_yt-wnQFgNEnHUI_109.mp4	0.0	264.86647510528564	2.508388042449951
73	212.35717916488647	fix_post	2		12.0	71.0	2.5	/experiments/knapen_aot/videos/S_yt-wnQFgNEnHUI_109.mp4	0.0	267.3748631477356	0.0999448299407959
74	212.45712399482727	fix_pre	0		45.0	72.0	2.5	/experiments/knapen_aot/videos/S_yt-PREz5XiiXg0_107.mp4	0.0	267.4748079776764	0.37497997283935547
74	212.82393717765808	response	0	2		72.0	2.5	/experiments/knapen_aot/videos/S_yt-PREz5XiiXg0_107.mp4	0.0	267.8416211605072	
74	212.83210396766663	movie	1		301.0	72.0	2.5	/experiments/knapen_aot/videos/S_yt-PREz5XiiXg0_107.mp4	0.0	267.84978795051575	2.508774995803833
74	215.34087896347046	fix_post	2		12.0	72.0	2.5	/experiments/knapen_aot/videos/S_yt-PREz5XiiXg0_107.mp4	0.0	270.3585629463196	0.09957408905029297
75	215.44045305252075	fix_pre	0		21.0	73.0	2.5	/experiments/knapen_aot/videos/S_ILSVRC2015_train_00394000.mp4	0.0	270.4581370353699	0.17497897148132324
75	215.6072940826416	response	0	2		73.0	2.5	/experiments/knapen_aot/videos/S_ILSVRC2015_train_00394000.mp4	0.0	270.6249780654907	
75	215.61543202400208	movie	1		301.0	73.0	2.5	/experiments/knapen_aot/videos/S_ILSVRC2015_train_00394000.mp4	0.0	270.6331160068512	2.5083980560302734
75	218.12383008003235	fix_post	2		12.0	73.0	2.5	/experiments/knapen_aot/videos/S_ILSVRC2015_train_00394000.mp4	0.0	273.14151406288147	0.10012102127075195
76	218.2239511013031	fix_pre	0		19.0	74.0	2.5	/experiments/knapen_aot/videos/R_S_pexels-mikhail-nilov-8410063_1.mp4	0.0	273.2416350841522	0.15822887420654297
76	218.373850107193	response	0	2		74.0	2.5	/experiments/knapen_aot/videos/R_S_pexels-mikhail-nilov-8410063_1.mp4	0.0	273.3915340900421	
76	218.38217997550964	movie	1		164.0	74.0	2.5	/experiments/knapen_aot/videos/R_S_pexels-mikhail-nilov-8410063_1.mp4	0.0	273.39986395835876	2.5083119869232178
76	220.89049196243286	fix_post	2		12.0	74.0	2.5	/experiments/knapen_aot/videos/R_S_pexels-mikhail-nilov-8410063_1.mp4	0.0	275.908175945282	0.10019612312316895
77	220.99068808555603	fix_pre	0		16.0	75.0	2.5	/experiments/knapen_aot/videos/S_comp_DB_D002_C003_PSNK_v04_SDR_PS_20180914_SDR_2K_AVC.mp4	0.0	276.00837206840515	0.13301897048950195
77	221.11557817459106	response	0	2		75.0	2.5	/experiments/knapen_aot/videos/S_comp_DB_D002_C003_PSNK_v04_SDR_PS_20180914_SDR_2K_AVC.mp4	0.0	276.1332621574402	
77	221.12370705604553	movie	1		166.0	75.0	2.5	/experiments/knapen_aot/videos/S_comp_DB_D002_C003_PSNK_v04_SDR_PS_20180914_SDR_2K_AVC.mp4	0.0	276.14139103889465	2.508376121520996
77	223.63208317756653	fix_post	2		12.0	75.0	2.5	/experiments/knapen_aot/videos/S_comp_DB_D002_C003_PSNK_v04_SDR_PS_20180914_SDR_2K_AVC.mp4	0.0	278.64976716041565	0.1000509262084961
78	223.73213410377502	fix_pre	0		31.0	76.0	2.5	/experiments/knapen_aot/videos/R_S_yt-jcuaf9iSEkI_169.mp4	0.0	278.74981808662415	0.25827598571777344
78	223.98217916488647	response	0	2		76.0	2.5	/experiments/knapen_aot/videos/R_S_yt-jcuaf9iSEkI_169.mp4	0.0	278.9998631477356	
78	223.9904100894928	movie	1		301.0	76.0	2.5	/experiments/knapen_aot/videos/R_S_yt-jcuaf9iSEkI_169.mp4	0.0	279.0080940723419	2.508323907852173
78	226.49873399734497	fix_post	2		12.0	76.0	2.5	/experiments/knapen_aot/videos/R_S_yt-jcuaf9iSEkI_169.mp4	0.0	281.5164179801941	0.10024213790893555
79	226.5989761352539	fix_pre	0		42.0	77.0	2.5	blank	1.0	281.616660118103	0.34974098205566406
79	226.94056701660156	response	0	2		77.0	2.5	blank	1.0	281.9582509994507	
79	226.94871711730957	movie	1		301.0	77.0	2.5	blank	1.0	281.9664011001587	2.508357048034668
79	229.45707416534424	fix_post	2		12.0	77.0	2.5	blank	1.0	284.47475814819336	0.09994101524353027
80	229.55701518058777	fix_pre	0		44.0	78.0	2.5	/experiments/knapen_aot/videos/R_S_yt-bhiGMKSAz2g_370.mp4	0.0	284.5746991634369	0.36670780181884766
80	229.9155170917511	response	0	2		78.0	2.5	/experiments/knapen_aot/videos/R_S_yt-bhiGMKSAz2g_370.mp4	0.0	284.9332010746002	
80	229.92372298240662	movie	1		301.0	78.0	2.5	/experiments/knapen_aot/videos/R_S_yt-bhiGMKSAz2g_370.mp4	0.0	284.94140696525574	2.5082850456237793
80	232.4320080280304	fix_post	2		12.0	78.0	2.5	/experiments/knapen_aot/videos/R_S_yt-bhiGMKSAz2g_370.mp4	0.0	287.4496920108795	0.10006213188171387
81	232.5320701599121	fix_pre	0		43.0	79.0	2.5	/experiments/knapen_aot/videos/R_S_production_ID_5139371.mp4	0.0	287.54975414276123	0.3582580089569092
81	232.88213300704956	response	0	2		79.0	2.5	/experiments/knapen_aot/videos/R_S_production_ID_5139371.mp4	0.0	287.8998169898987	
81	232.89032816886902	movie	1		165.0	79.0	2.5	/experiments/knapen_aot/videos/R_S_production_ID_5139371.mp4	0.0	287.90801215171814	2.508471965789795
81	235.3988001346588	fix_post	2		12.0	79.0	2.5	/experiments/knapen_aot/videos/R_S_production_ID_5139371.mp4	0.0	290.41648411750793	0.09991598129272461
82	235.49871611595154	fix_pre	0		28.0	80.0	2.5	/experiments/knapen_aot/videos/R_S_EFR8AteY59I_15.mp4	0.0	290.51640009880066	0.23335695266723633
82	235.72382998466492	response	0	2		80.0	2.5	/experiments/knapen_aot/videos/R_S_EFR8AteY59I_15.mp4	0.0	290.74151396751404	
82	235.73207306861877	movie	1		301.0	80.0	2.5	/experiments/knapen_aot/videos/R_S_EFR8AteY59I_15.mp4	0.0	290.7497570514679	2.508333921432495
82	238.24040699005127	fix_post	2		12.0	80.0	2.5	/experiments/knapen_aot/videos/R_S_EFR8AteY59I_15.mp4	0.0	293.2580909729004	0.09998512268066406
83	238.34039211273193	fix_pre	0		19.0	81.0	2.5	/experiments/knapen_aot/videos/R_S_yt-7e6Z9QQieAk_183.mp4	0.0	293.35807609558105	0.15828585624694824
83	238.49051809310913	response	0	2		81.0	2.5	/experiments/knapen_aot/videos/R_S_yt-7e6Z9QQieAk_183.mp4	0.0	293.50820207595825	
83	238.49867796897888	movie	1		301.0	81.0	2.5	/experiments/knapen_aot/videos/R_S_yt-7e6Z9QQieAk_183.mp4	0.0	293.516361951828	2.5083601474761963
83	241.00703811645508	fix_post	2		12.0	81.0	2.5	/experiments/knapen_aot/videos/R_S_yt-7e6Z9QQieAk_183.mp4	0.0	296.0247220993042	0.10019803047180176
84	241.10723614692688	fix_pre	0		71.0	82.0	2.5	blank	1.0	296.124920129776	0.5914340019226074
84	241.69042015075684	response	0	2		82.0	2.5	blank	1.0	296.70810413360596	
84	241.6986701488495	movie	1		301.0	82.0	2.5	blank	1.0	296.7163541316986	2.5083658695220947
84	244.20703601837158	fix_post	2		12.0	82.0	2.5	blank	1.0	299.2247200012207	0.09996700286865234
85	244.30700302124023	fix_pre	0		50.0	83.0	2.5	/experiments/knapen_aot/videos/R_S_comp_N008_C003_PS_v01_SDR_PS_20180925_SDR_2K_AVC.mp4	0.0	299.32468700408936	0.41669607162475586
85	244.71538710594177	response	0	2		83.0	2.5	/experiments/knapen_aot/videos/R_S_comp_N008_C003_PS_v01_SDR_PS_20180925_SDR_2K_AVC.mp4	0.0	299.7330710887909	
85	244.723699092865	movie	1		167.0	83.0	2.5	/experiments/knapen_aot/videos/R_S_comp_N008_C003_PS_v01_SDR_PS_20180925_SDR_2K_AVC.mp4	0.0	299.7413830757141	2.5083489418029785
85	247.23204803466797	fix_post	2		12.0	83.0	2.5	/experiments/knapen_aot/videos/R_S_comp_N008_C003_PS_v01_SDR_PS_20180925_SDR_2K_AVC.mp4	0.0	302.2497320175171	0.09998011589050293
87	247.33202815055847	stim	0		128.0					302.3497121334076	1.0666038990020752
87	247.5654580593109	response	0	2						302.58314204216003	
87	248.39067816734314	response	0	space						303.40836215019226	
