trial_nr	onset	event_type	phase	response	nr_frames	movie_index	movie_duration	movie_file	blank	onset_abs	duration
0	0.1583409309387207	stim	0		108.0					73.40609884262085	0.8991560935974121
0	1.0494120121002197	response	0	space						74.29716992378235	
1	1.0574970245361328	stim	0		121.0					74.30525493621826	1.008085012435913
1	2.065582036972046	stim	1		120.0					75.31333994865417	0.9999620914459229
1	2.3907790184020996	response	1	space						75.63853693008423	
2	3.0655441284179688	fix_pre	0		42.0	0.0	2.5	/experiments/knapen_aot/videos/S_yt-b29VtKvlnWE_430.mp4	0.0	76.3133020401001	0.35064101219177246
2	3.4074089527130127	response	0	space		0.0	2.5	/experiments/knapen_aot/videos/S_yt-b29VtKvlnWE_430.mp4	0.0	76.65516686439514	
2	3.416185140609741	movie	1		300.0	0.0	2.5	/experiments/knapen_aot/videos/S_yt-b29VtKvlnWE_430.mp4	0.0	76.66394305229187	2.507600784301758
2	5.923785924911499	fix_post	2		12.0	0.0	2.5	/experiments/knapen_aot/videos/S_yt-b29VtKvlnWE_430.mp4	0.0	79.17154383659363	0.10004806518554688
3	6.023833990097046	fix_pre	0		28.0	1.0	2.5	/experiments/knapen_aot/videos/R_S_yt-vDjj0EWFdIU_49.mp4	0.0	79.27159190177917	0.23963713645935059
3	6.254316091537476	response	0	4		1.0	2.5	/experiments/knapen_aot/videos/R_S_yt-vDjj0EWFdIU_49.mp4	0.0	79.5020740032196	
3	6.2634711265563965	movie	1		293.0	1.0	2.5	/experiments/knapen_aot/videos/R_S_yt-vDjj0EWFdIU_49.mp4	0.0	79.51122903823853	2.5021250247955322
3	8.765596151351929	fix_post	2		12.0	1.0	2.5	/experiments/knapen_aot/videos/R_S_yt-vDjj0EWFdIU_49.mp4	0.0	82.01335406303406	0.09997987747192383
4	8.865576028823853	fix_pre	0		19.0	2.0	2.5	/experiments/knapen_aot/videos/S_ILSVRC2015_train_00423000.mp4	0.0	82.11333394050598	0.1583421230316162
4	9.015780925750732	response	0	4		2.0	2.5	/experiments/knapen_aot/videos/S_ILSVRC2015_train_00423000.mp4	0.0	82.26353883743286	
4	9.023918151855469	movie	1		301.0	2.0	2.5	/experiments/knapen_aot/videos/S_ILSVRC2015_train_00423000.mp4	0.0	82.2716760635376	2.5082828998565674
4	11.532201051712036	fix_post	2		12.0	2.0	2.5	/experiments/knapen_aot/videos/S_ILSVRC2015_train_00423000.mp4	0.0	84.77995896339417	0.10002398490905762
5	11.632225036621094	fix_pre	0		26.0	3.0	2.5	/experiments/knapen_aot/videos/S_yt-PyO8-WsbaLU_43.mp4	0.0	84.87998294830322	0.21668601036071777
5	11.833191156387329	response	0	4		3.0	2.5	/experiments/knapen_aot/videos/S_yt-PyO8-WsbaLU_43.mp4	0.0	85.08094906806946	
5	11.848911046981812	movie	1		301.0	3.0	2.5	/experiments/knapen_aot/videos/S_yt-PyO8-WsbaLU_43.mp4	0.0	85.09666895866394	2.5083160400390625
5	14.357227087020874	fix_post	2		12.0	3.0	2.5	/experiments/knapen_aot/videos/S_yt-PyO8-WsbaLU_43.mp4	0.0	87.604984998703	0.09999799728393555
6	14.45722508430481	fix_pre	0		23.0	4.0	2.5	/experiments/knapen_aot/videos/R_S_yt-wE0cEswyaaM_53.mp4	0.0	87.70498299598694	0.19165396690368652
6	14.64064908027649	response	0	4		4.0	2.5	/experiments/knapen_aot/videos/R_S_yt-wE0cEswyaaM_53.mp4	0.0	87.88840699195862	
6	14.648879051208496	movie	1		301.0	4.0	2.5	/experiments/knapen_aot/videos/R_S_yt-wE0cEswyaaM_53.mp4	0.0	87.89663696289062	2.508286952972412
6	17.157166004180908	fix_post	2		12.0	4.0	2.5	/experiments/knapen_aot/videos/R_S_yt-wE0cEswyaaM_53.mp4	0.0	90.40492391586304	0.1000509262084961
7	17.257216930389404	fix_pre	0		16.0	5.0	2.5	/experiments/knapen_aot/videos/R_S_yt-35i8UeYXjGw_47.mp4	0.0	90.50497484207153	0.13330602645874023
7	17.38235306739807	response	0	4		5.0	2.5	/experiments/knapen_aot/videos/R_S_yt-35i8UeYXjGw_47.mp4	0.0	90.6301109790802	
7	17.390522956848145	movie	1		301.0	5.0	2.5	/experiments/knapen_aot/videos/R_S_yt-35i8UeYXjGw_47.mp4	0.0	90.63828086853027	2.5082881450653076
7	19.898811101913452	fix_post	2		12.0	5.0	2.5	/experiments/knapen_aot/videos/R_S_yt-35i8UeYXjGw_47.mp4	0.0	93.14656901359558	0.10000491142272949
8	19.99881601333618	fix_pre	0		33.0	6.0	2.5	blank	1.0	93.24657392501831	0.27501511573791504
8	20.265525102615356	response	0	4		6.0	2.5	blank	1.0	93.51328301429749	
8	20.273831129074097	movie	1		301.0	6.0	2.5	blank	1.0	93.52158904075623	2.5082859992980957
8	22.782117128372192	fix_post	2		12.0	6.0	2.5	blank	1.0	96.02987504005432	0.10001397132873535
9	22.882131099700928	fix_pre	0		132.0	7.0	2.5	/experiments/knapen_aot/videos/R_S_yt-kP7VNn9QIo4_53.mp4	0.0	96.12988901138306	1.0999548435211182
9	23.9738609790802	response	0	4		7.0	2.5	/experiments/knapen_aot/videos/R_S_yt-kP7VNn9QIo4_53.mp4	0.0	97.22161889076233	
9	23.982085943222046	movie	1		301.0	7.0	2.5	/experiments/knapen_aot/videos/R_S_yt-kP7VNn9QIo4_53.mp4	0.0	97.22984385490417	2.5083580017089844
9	26.49044394493103	fix_post	2		12.0	7.0	2.5	/experiments/knapen_aot/videos/R_S_yt-kP7VNn9QIo4_53.mp4	0.0	99.73820185661316	0.09998416900634766
10	26.590428113937378	fix_pre	0		5.0	8.0	2.5	/experiments/knapen_aot/videos/S_yt-Fm97IY0Z2LU_79.mp4	0.0	99.8381860256195	0.041702985763549805
10	26.62391209602356	response	0	4		8.0	2.5	/experiments/knapen_aot/videos/S_yt-Fm97IY0Z2LU_79.mp4	0.0	99.87167000770569	
10	26.632131099700928	movie	1		301.0	8.0	2.5	/experiments/knapen_aot/videos/S_yt-Fm97IY0Z2LU_79.mp4	0.0	99.87988901138306	2.50832200050354
10	29.140453100204468	fix_post	2		12.0	8.0	2.5	/experiments/knapen_aot/videos/S_yt-Fm97IY0Z2LU_79.mp4	0.0	102.3882110118866	0.10002303123474121
11	29.24047613143921	fix_pre	0		9.0	9.0	2.5	/experiments/knapen_aot/videos/R_S_wc-lItGMdwvEd_l_7.mp4	0.0	102.48823404312134	0.07503485679626465
11	29.307492971420288	response	0	4		9.0	2.5	/experiments/knapen_aot/videos/R_S_wc-lItGMdwvEd_l_7.mp4	0.0	102.55525088310242	
11	29.315510988235474	movie	1		166.0	9.0	2.5	/experiments/knapen_aot/videos/R_S_wc-lItGMdwvEd_l_7.mp4	0.0	102.5632688999176	2.50822114944458
11	31.63620114326477	response	1	4		9.0	2.5	/experiments/knapen_aot/videos/R_S_wc-lItGMdwvEd_l_7.mp4	0.0	104.8839590549469	
11	31.823732137680054	fix_post	2		12.0	9.0	2.5	/experiments/knapen_aot/videos/R_S_wc-lItGMdwvEd_l_7.mp4	0.0	105.07149004936218	0.09995388984680176
12	31.923686027526855	fix_pre	0		22.0	10.0	2.5	/experiments/knapen_aot/videos/R_S_ILSVRC2015_train_00364000.mp4	0.0	105.17144393920898	0.18335604667663574
12	32.09891200065613	response	0	4		10.0	2.5	/experiments/knapen_aot/videos/R_S_ILSVRC2015_train_00364000.mp4	0.0	105.34666991233826	
12	32.10704207420349	movie	1		301.0	10.0	2.5	/experiments/knapen_aot/videos/R_S_ILSVRC2015_train_00364000.mp4	0.0	105.35479998588562	2.5083649158477783
12	34.61540699005127	fix_post	2		12.0	10.0	2.5	/experiments/knapen_aot/videos/R_S_ILSVRC2015_train_00364000.mp4	0.0	107.8631649017334	0.10001707077026367
13	34.71542406082153	fix_pre	0		14.0	11.0	2.5	/experiments/knapen_aot/videos/S_yt-OEY9O2MglQM_7.mp4	0.0	107.96318197250366	0.1171720027923584
13	34.82388615608215	response	0	4		11.0	2.5	/experiments/knapen_aot/videos/S_yt-OEY9O2MglQM_7.mp4	0.0	108.07164406776428	
13	34.83259606361389	movie	1		301.0	11.0	2.5	/experiments/knapen_aot/videos/S_yt-OEY9O2MglQM_7.mp4	0.0	108.08035397529602	2.5078389644622803
13	37.34043502807617	fix_post	2		12.0	11.0	2.5	/experiments/knapen_aot/videos/S_yt-OEY9O2MglQM_7.mp4	0.0	110.5881929397583	0.09998703002929688
14	37.44042205810547	fix_pre	0		7.0	12.0	2.5	/experiments/knapen_aot/videos/R_S_bing-www_msn_com_en-us_video_news_tommy-lasorda-salutes-national-league-champs_vp-AAtLThQ_4.mp4	0.0	110.6881799697876	0.05884099006652832
14	37.49050307273865	response	0	4		12.0	2.5	/experiments/knapen_aot/videos/R_S_bing-www_msn_com_en-us_video_news_tommy-lasorda-salutes-national-league-champs_vp-AAtLThQ_4.mp4	0.0	110.73826098442078	
14	37.499263048172	movie	1		169.0	12.0	2.5	/experiments/knapen_aot/videos/R_S_bing-www_msn_com_en-us_video_news_tommy-lasorda-salutes-national-league-champs_vp-AAtLThQ_4.mp4	0.0	110.74702095985413	2.5077459812164307
14	40.00700902938843	fix_post	2		12.0	12.0	2.5	/experiments/knapen_aot/videos/R_S_bing-www_msn_com_en-us_video_news_tommy-lasorda-salutes-national-league-champs_vp-AAtLThQ_4.mp4	0.0	113.25476694107056	0.10006093978881836
15	40.107069969177246	fix_pre	0		7.0	13.0	2.5	blank	1.0	113.35482788085938	0.05887317657470703
15	40.157236099243164	response	0	4		13.0	2.5	blank	1.0	113.4049940109253	
15	40.16594314575195	movie	1		301.0	13.0	2.5	blank	1.0	113.41370105743408	2.5078048706054688
15	42.5571551322937	response	1	4		13.0	2.5	blank	1.0	115.80491304397583	
15	42.67374801635742	fix_post	2		12.0	13.0	2.5	blank	1.0	115.92150592803955	0.09993290901184082
16	42.77368092536926	fix_pre	0		9.0	14.0	2.5	/experiments/knapen_aot/videos/S_yt-r4st6Mt4EE8_85.mp4	0.0	116.02143883705139	0.0750420093536377
16	42.84054398536682	response	0	4		14.0	2.5	/experiments/knapen_aot/videos/S_yt-r4st6Mt4EE8_85.mp4	0.0	116.08830189704895	
16	42.8487229347229	movie	1		301.0	14.0	2.5	/experiments/knapen_aot/videos/S_yt-r4st6Mt4EE8_85.mp4	0.0	116.09648084640503	2.5083541870117188
16	45.35707712173462	fix_post	2		12.0	14.0	2.5	/experiments/knapen_aot/videos/S_yt-r4st6Mt4EE8_85.mp4	0.0	118.60483503341675	0.1000518798828125
17	45.45712900161743	fix_pre	0		6.0	15.0	2.5	/experiments/knapen_aot/videos/R_S_yt-R9Iabv0XgOQ_80.mp4	0.0	118.70488691329956	0.04988908767700195
17	45.49946904182434	response	0	4		15.0	2.5	/experiments/knapen_aot/videos/R_S_yt-R9Iabv0XgOQ_80.mp4	0.0	118.74722695350647	
17	45.507018089294434	movie	1		301.0	15.0	2.5	/experiments/knapen_aot/videos/R_S_yt-R9Iabv0XgOQ_80.mp4	0.0	118.75477600097656	2.5082879066467285
17	48.01530599594116	fix_post	2		12.0	15.0	2.5	/experiments/knapen_aot/videos/R_S_yt-R9Iabv0XgOQ_80.mp4	0.0	121.26306390762329	0.10006308555603027
18	48.11536908149719	fix_pre	0		10.0	16.0	2.5	/experiments/knapen_aot/videos/S_comp_A351_C001_v06_SDR_PS_20180725_SDR_2K_AVC.mp4	0.0	121.36312699317932	0.08338403701782227
18	48.19071102142334	response	0	4		16.0	2.5	/experiments/knapen_aot/videos/S_comp_A351_C001_v06_SDR_PS_20180725_SDR_2K_AVC.mp4	0.0	121.43846893310547	
18	48.198753118515015	movie	1		163.0	16.0	2.5	/experiments/knapen_aot/videos/S_comp_A351_C001_v06_SDR_PS_20180725_SDR_2K_AVC.mp4	0.0	121.44651103019714	2.5082919597625732
18	50.70704507827759	fix_post	2		12.0	16.0	2.5	/experiments/knapen_aot/videos/S_comp_A351_C001_v06_SDR_PS_20180725_SDR_2K_AVC.mp4	0.0	123.95480298995972	0.1000070571899414
19	50.80705213546753	fix_pre	0		27.0	17.0	2.5	/experiments/knapen_aot/videos/R_S_yt-MEfljVFL0xw_375.mp4	0.0	124.05481004714966	0.22498202323913574
19	51.02380108833313	response	0	4		17.0	2.5	/experiments/knapen_aot/videos/R_S_yt-MEfljVFL0xw_375.mp4	0.0	124.27155900001526	
19	51.032034158706665	movie	1		301.0	17.0	2.5	/experiments/knapen_aot/videos/R_S_yt-MEfljVFL0xw_375.mp4	0.0	124.2797920703888	2.508312940597534
19	53.5403470993042	fix_post	2		12.0	17.0	2.5	/experiments/knapen_aot/videos/R_S_yt-MEfljVFL0xw_375.mp4	0.0	126.78810501098633	0.0999460220336914
20	53.64029312133789	fix_pre	0		26.0	18.0	2.5	/experiments/knapen_aot/videos/S_ILSVRC2015_train_00743005.mp4	0.0	126.88805103302002	0.21672892570495605
20	53.84883499145508	response	0	4		18.0	2.5	/experiments/knapen_aot/videos/S_ILSVRC2015_train_00743005.mp4	0.0	127.0965929031372	
20	53.85702204704285	movie	1		301.0	18.0	2.5	/experiments/knapen_aot/videos/S_ILSVRC2015_train_00743005.mp4	0.0	127.10477995872498	2.508275032043457
20	56.365297079086304	fix_post	2		12.0	18.0	2.5	/experiments/knapen_aot/videos/S_ILSVRC2015_train_00743005.mp4	0.0	129.61305499076843	0.10001397132873535
21	56.46531105041504	fix_pre	0		1.0	19.0	2.5	blank	1.0	129.71306896209717	0.008392095565795898
21	56.46694612503052	response	0	4		19.0	2.5	blank	1.0	129.71470403671265	
21	56.473703145980835	movie	1		301.0	19.0	2.5	blank	1.0	129.72146105766296	2.508366823196411
21	58.982069969177246	fix_post	2		12.0	19.0	2.5	blank	1.0	132.22982788085938	0.09995603561401367
22	59.08202600479126	fix_pre	0		39.0	20.0	2.5	/experiments/knapen_aot/videos/R_S_dwi2oPzQ1Wo_48.mp4	0.0	132.3297839164734	0.3249199390411377
22	59.39880704879761	response	0	4		20.0	2.5	/experiments/knapen_aot/videos/R_S_dwi2oPzQ1Wo_48.mp4	0.0	132.64656496047974	
22	59.4069459438324	movie	1		300.0	20.0	2.5	/experiments/knapen_aot/videos/R_S_dwi2oPzQ1Wo_48.mp4	0.0	132.65470385551453	2.508369207382202
22	61.9153151512146	fix_post	2		12.0	20.0	2.5	/experiments/knapen_aot/videos/R_S_dwi2oPzQ1Wo_48.mp4	0.0	135.16307306289673	0.1000068187713623
23	62.01532196998596	fix_pre	0		14.0	21.0	2.5	/experiments/knapen_aot/videos/R_S_ILSVRC2015_train_00578001.mp4	0.0	135.2630798816681	0.11665010452270508
23	62.11624193191528	response	0	4		21.0	2.5	/experiments/knapen_aot/videos/R_S_ILSVRC2015_train_00578001.mp4	0.0	135.3639998435974	
23	62.13197207450867	movie	1		301.0	21.0	2.5	/experiments/knapen_aot/videos/R_S_ILSVRC2015_train_00578001.mp4	0.0	135.3797299861908	2.508293867111206
23	64.64026594161987	fix_post	2		12.0	21.0	2.5	/experiments/knapen_aot/videos/R_S_ILSVRC2015_train_00578001.mp4	0.0	137.888023853302	0.10000205039978027
24	64.74026799201965	fix_pre	0		27.0	22.0	2.5	/experiments/knapen_aot/videos/R_S_b3TCugtX0h0_108.mp4	0.0	137.98802590370178	0.22501516342163086
24	64.94952011108398	response	0	4		22.0	2.5	/experiments/knapen_aot/videos/R_S_b3TCugtX0h0_108.mp4	0.0	138.1972780227661	
24	64.96528315544128	movie	1		300.0	22.0	2.5	/experiments/knapen_aot/videos/R_S_b3TCugtX0h0_108.mp4	0.0	138.2130410671234	2.508363962173462
24	67.47364711761475	fix_post	2		12.0	22.0	2.5	/experiments/knapen_aot/videos/R_S_b3TCugtX0h0_108.mp4	0.0	140.72140502929688	0.10001182556152344
25	67.57365894317627	fix_pre	0		6.0	23.0	2.5	/experiments/knapen_aot/videos/S_yt-AHbFln6blfE_36.mp4	0.0	140.8214168548584	0.05052804946899414
25	67.61555409431458	response	0	4		23.0	2.5	/experiments/knapen_aot/videos/S_yt-AHbFln6blfE_36.mp4	0.0	140.8633120059967	
25	67.62418699264526	movie	1		301.0	23.0	2.5	/experiments/knapen_aot/videos/S_yt-AHbFln6blfE_36.mp4	0.0	140.8719449043274	2.5077240467071533
25	70.13191103935242	fix_post	2		12.0	23.0	2.5	/experiments/knapen_aot/videos/S_yt-AHbFln6blfE_36.mp4	0.0	143.37966895103455	0.09993910789489746
26	70.23185014724731	fix_pre	0		15.0	24.0	2.5	/experiments/knapen_aot/videos/S_ILSVRC2015_train_00547001.mp4	0.0	143.47960805892944	0.1251378059387207
26	70.34123396873474	response	0	4		24.0	2.5	/experiments/knapen_aot/videos/S_ILSVRC2015_train_00547001.mp4	0.0	143.58899188041687	
26	70.35698795318604	movie	1		299.0	24.0	2.5	/experiments/knapen_aot/videos/S_ILSVRC2015_train_00547001.mp4	0.0	143.60474586486816	2.508291006088257
26	72.86527895927429	fix_post	2		12.0	24.0	2.5	/experiments/knapen_aot/videos/S_ILSVRC2015_train_00547001.mp4	0.0	146.11303687095642	0.10001897811889648
27	72.96529793739319	fix_pre	0		2.0	25.0	2.5	/experiments/knapen_aot/videos/R_S_yt-TbdZrcl_Jso_5.mp4	0.0	146.21305584907532	0.016682147979736328
27	72.97382092475891	response	0	4		25.0	2.5	/experiments/knapen_aot/videos/R_S_yt-TbdZrcl_Jso_5.mp4	0.0	146.22157883644104	
27	72.98198008537292	movie	1		301.0	25.0	2.5	/experiments/knapen_aot/videos/R_S_yt-TbdZrcl_Jso_5.mp4	0.0	146.22973799705505	2.5082340240478516
27	75.10706114768982	response	1	4		25.0	2.5	/experiments/knapen_aot/videos/R_S_yt-TbdZrcl_Jso_5.mp4	0.0	148.35481905937195	
27	75.49021410942078	fix_post	2		12.0	25.0	2.5	/experiments/knapen_aot/videos/R_S_yt-TbdZrcl_Jso_5.mp4	0.0	148.7379720211029	0.10006284713745117
28	75.59027695655823	fix_pre	0		6.0	26.0	2.5	/experiments/knapen_aot/videos/R_S_yt--WPE_4bqQXc_26.mp4	0.0	148.83803486824036	0.0500490665435791
28	75.6322910785675	response	0	4		26.0	2.5	/experiments/knapen_aot/videos/R_S_yt--WPE_4bqQXc_26.mp4	0.0	148.88004899024963	
28	75.6403260231018	movie	1		300.0	26.0	2.5	/experiments/knapen_aot/videos/R_S_yt--WPE_4bqQXc_26.mp4	0.0	148.88808393478394	2.508273124694824
28	78.14859914779663	fix_post	2		12.0	26.0	2.5	/experiments/knapen_aot/videos/R_S_yt--WPE_4bqQXc_26.mp4	0.0	151.39635705947876	0.10032987594604492
29	78.24892902374268	fix_pre	0		26.0	27.0	2.5	blank	1.0	151.4966869354248	0.21627306938171387
29	78.45701503753662	response	0	4		27.0	2.5	blank	1.0	151.70477294921875	
29	78.46520209312439	movie	1		301.0	27.0	2.5	blank	1.0	151.71296000480652	2.5084099769592285
29	80.97361207008362	fix_post	2		12.0	27.0	2.5	blank	1.0	154.22136998176575	0.09993886947631836
30	81.07355093955994	fix_pre	0		41.0	28.0	2.5	/experiments/knapen_aot/videos/S_yt-K_gHa2x2OQA_319.mp4	0.0	154.32130885124207	0.34203314781188965
30	81.4070200920105	response	0	4		28.0	2.5	/experiments/knapen_aot/videos/S_yt-K_gHa2x2OQA_319.mp4	0.0	154.65477800369263	
30	81.41558408737183	movie	1		301.0	28.0	2.5	/experiments/knapen_aot/videos/S_yt-K_gHa2x2OQA_319.mp4	0.0	154.66334199905396	2.508146047592163
30	83.92373013496399	fix_post	2		12.0	28.0	2.5	/experiments/knapen_aot/videos/S_yt-K_gHa2x2OQA_319.mp4	0.0	157.17148804664612	0.09979987144470215
31	84.02353000640869	fix_pre	0		19.0	29.0	2.5	/experiments/knapen_aot/videos/S_production_ID_4325591.mp4	0.0	157.27128791809082	0.1583421230316162
31	84.17375111579895	response	0	4		29.0	2.5	/experiments/knapen_aot/videos/S_production_ID_4325591.mp4	0.0	157.42150902748108	
31	84.18187212944031	movie	1		209.0	29.0	2.5	/experiments/knapen_aot/videos/S_production_ID_4325591.mp4	0.0	157.42963004112244	2.5083680152893066
31	86.69024014472961	fix_post	2		12.0	29.0	2.5	/experiments/knapen_aot/videos/S_production_ID_4325591.mp4	0.0	159.93799805641174	0.10020184516906738
32	86.79044198989868	fix_pre	0		23.0	30.0	2.5	/experiments/knapen_aot/videos/R_S_yt-jeVeQBuzbEQ_120.mp4	0.0	160.0381999015808	0.1913900375366211
32	86.96615409851074	response	0	4		30.0	2.5	/experiments/knapen_aot/videos/R_S_yt-jeVeQBuzbEQ_120.mp4	0.0	160.21391201019287	
32	86.9818320274353	movie	1		301.0	30.0	2.5	/experiments/knapen_aot/videos/R_S_yt-jeVeQBuzbEQ_120.mp4	0.0	160.22958993911743	2.508392095565796
32	89.4902241230011	fix_post	2		12.0	30.0	2.5	/experiments/knapen_aot/videos/R_S_yt-jeVeQBuzbEQ_120.mp4	0.0	162.73798203468323	0.09997892379760742
33	89.5902030467987	fix_pre	0		17.0	31.0	2.5	/experiments/knapen_aot/videos/R_S_yt-osdlC1buTaM_4.mp4	0.0	162.83796095848083	0.14163708686828613
33	89.72366714477539	response	0	4		31.0	2.5	/experiments/knapen_aot/videos/R_S_yt-osdlC1buTaM_4.mp4	0.0	162.97142505645752	
33	89.73184013366699	movie	1		301.0	31.0	2.5	/experiments/knapen_aot/videos/R_S_yt-osdlC1buTaM_4.mp4	0.0	162.97959804534912	2.508349895477295
33	92.24019002914429	fix_post	2		12.0	31.0	2.5	/experiments/knapen_aot/videos/R_S_yt-osdlC1buTaM_4.mp4	0.0	165.48794794082642	0.09994006156921387
34	92.3401300907135	fix_pre	0		35.0	32.0	2.5	/experiments/knapen_aot/videos/S_yt-s5YONFy3vb4_46.mp4	0.0	165.58788800239563	0.29166603088378906
34	92.62367296218872	response	0	4		32.0	2.5	/experiments/knapen_aot/videos/S_yt-s5YONFy3vb4_46.mp4	0.0	165.87143087387085	
34	92.63179612159729	movie	1		298.0	32.0	2.5	/experiments/knapen_aot/videos/S_yt-s5YONFy3vb4_46.mp4	0.0	165.87955403327942	2.5084128379821777
34	95.14020895957947	fix_post	2		12.0	32.0	2.5	/experiments/knapen_aot/videos/S_yt-s5YONFy3vb4_46.mp4	0.0	168.3879668712616	0.10000419616699219
35	95.24021315574646	fix_pre	0		12.0	33.0	2.5	/experiments/knapen_aot/videos/R_S_yt-FbCVXEJicis_5.mp4	0.0	168.4879710674286	0.09992289543151855
35	95.33201813697815	response	0	4		33.0	2.5	/experiments/knapen_aot/videos/R_S_yt-FbCVXEJicis_5.mp4	0.0	168.57977604866028	
35	95.34013605117798	movie	1		301.0	33.0	2.5	/experiments/knapen_aot/videos/R_S_yt-FbCVXEJicis_5.mp4	0.0	168.5878939628601	2.508435010910034
35	97.84857106208801	fix_post	2		12.0	33.0	2.5	/experiments/knapen_aot/videos/R_S_yt-FbCVXEJicis_5.mp4	0.0	171.09632897377014	0.09994292259216309
36	97.94851398468018	fix_pre	0		13.0	34.0	2.5	/experiments/knapen_aot/videos/R_S_ILSVRC2015_train_00292006.mp4	0.0	171.1962718963623	0.10826802253723145
36	98.04863095283508	response	0	4		34.0	2.5	/experiments/knapen_aot/videos/R_S_ILSVRC2015_train_00292006.mp4	0.0	171.2963888645172	
36	98.05678200721741	movie	1		301.0	34.0	2.5	/experiments/knapen_aot/videos/R_S_ILSVRC2015_train_00292006.mp4	0.0	171.30453991889954	2.508388042449951
36	100.56517004966736	fix_post	2		12.0	34.0	2.5	/experiments/knapen_aot/videos/R_S_ILSVRC2015_train_00292006.mp4	0.0	173.8129279613495	0.1002199649810791
37	100.66539001464844	fix_pre	0		14.0	35.0	2.5	blank	1.0	173.91314792633057	0.11638712882995605
37	100.77366709709167	response	0	4		35.0	2.5	blank	1.0	174.0214250087738	
37	100.7817771434784	movie	1		301.0	35.0	2.5	blank	1.0	174.02953505516052	2.508544921875
37	103.2903220653534	fix_post	2		12.0	35.0	2.5	blank	1.0	176.53807997703552	0.09983396530151367
38	103.39015603065491	fix_pre	0		29.0	36.0	2.5	/experiments/knapen_aot/videos/S_wc-eJe3wXMgTLRV_20.mp4	0.0	176.63791394233704	0.24166512489318848
38	103.62361693382263	response	0	4		36.0	2.5	/experiments/knapen_aot/videos/S_wc-eJe3wXMgTLRV_20.mp4	0.0	176.87137484550476	
38	103.6318211555481	movie	1		165.0	36.0	2.5	/experiments/knapen_aot/videos/S_wc-eJe3wXMgTLRV_20.mp4	0.0	176.87957906723022	2.5083138942718506
38	106.14013504981995	fix_post	2		12.0	36.0	2.5	/experiments/knapen_aot/videos/S_wc-eJe3wXMgTLRV_20.mp4	0.0	179.38789296150208	0.10006189346313477
39	106.24019694328308	fix_pre	0		4.0	37.0	2.5	/experiments/knapen_aot/videos/S_yt-35i8UeYXjGw_47.mp4	0.0	179.4879548549652	0.03333306312561035
39	106.26536512374878	response	0	4		37.0	2.5	/experiments/knapen_aot/videos/S_yt-35i8UeYXjGw_47.mp4	0.0	179.5131230354309	
39	106.27353000640869	movie	1		301.0	37.0	2.5	/experiments/knapen_aot/videos/S_yt-35i8UeYXjGw_47.mp4	0.0	179.52128791809082	2.5083119869232178
39	108.78184199333191	fix_post	2		12.0	37.0	2.5	/experiments/knapen_aot/videos/S_yt-35i8UeYXjGw_47.mp4	0.0	182.02959990501404	0.0999901294708252
40	108.88183212280273	fix_pre	0		50.0	38.0	2.5	/experiments/knapen_aot/videos/S_production_ID_4325591.mp4	0.0	182.12959003448486	0.41665196418762207
40	109.29028701782227	response	0	4		38.0	2.5	/experiments/knapen_aot/videos/S_production_ID_4325591.mp4	0.0	182.5380449295044	
40	109.29848408699036	movie	1		205.0	38.0	2.5	/experiments/knapen_aot/videos/S_production_ID_4325591.mp4	0.0	182.54624199867249	2.508344888687134
40	111.80682897567749	fix_post	2		12.0	38.0	2.5	/experiments/knapen_aot/videos/S_production_ID_4325591.mp4	0.0	185.05458688735962	0.10000300407409668
41	111.90683197975159	fix_pre	0		29.0	39.0	2.5	/experiments/knapen_aot/videos/S_pexels-cottonbro-5310858.mp4	0.0	185.15458989143372	0.24151897430419922
41	112.14021611213684	response	0	4		39.0	2.5	/experiments/knapen_aot/videos/S_pexels-cottonbro-5310858.mp4	0.0	185.38797402381897	
41	112.14835095405579	movie	1		165.0	39.0	2.5	/experiments/knapen_aot/videos/S_pexels-cottonbro-5310858.mp4	0.0	185.39610886573792	2.508604049682617
41	114.6569550037384	fix_post	2		12.0	39.0	2.5	/experiments/knapen_aot/videos/S_pexels-cottonbro-5310858.mp4	0.0	187.90471291542053	0.09978199005126953
42	114.75673699378967	fix_pre	0		24.0	40.0	2.5	/experiments/knapen_aot/videos/S_ux8Mvi8P16k_168.mp4	0.0	188.0044949054718	0.2000570297241211
42	114.94862914085388	response	0	4		40.0	2.5	/experiments/knapen_aot/videos/S_ux8Mvi8P16k_168.mp4	0.0	188.196387052536	
42	114.9567940235138	movie	1		301.0	40.0	2.5	/experiments/knapen_aot/videos/S_ux8Mvi8P16k_168.mp4	0.0	188.20455193519592	2.508342981338501
42	117.4651370048523	fix_post	2		12.0	40.0	2.5	/experiments/knapen_aot/videos/S_ux8Mvi8P16k_168.mp4	0.0	190.71289491653442	0.10001397132873535
43	117.56515097618103	fix_pre	0		41.0	41.0	2.5	/experiments/knapen_aot/videos/S_yt-AbJBxqEYoMg_27.mp4	0.0	190.81290888786316	0.3415980339050293
43	117.89866304397583	response	0	4		41.0	2.5	/experiments/knapen_aot/videos/S_yt-AbJBxqEYoMg_27.mp4	0.0	191.14642095565796	
43	117.90674901008606	movie	1		301.0	41.0	2.5	/experiments/knapen_aot/videos/S_yt-AbJBxqEYoMg_27.mp4	0.0	191.1545069217682	2.5084850788116455
43	120.4152340888977	fix_post	2		12.0	41.0	2.5	/experiments/knapen_aot/videos/S_yt-AbJBxqEYoMg_27.mp4	0.0	193.66299200057983	0.09984397888183594
44	120.51507806777954	fix_pre	0		38.0	42.0	2.5	blank	1.0	193.76283597946167	0.3167870044708252
44	120.82363510131836	response	0	4		42.0	2.5	blank	1.0	194.0713930130005	
44	120.83186507225037	movie	1		301.0	42.0	2.5	blank	1.0	194.0796229839325	2.508241891860962
44	123.34010696411133	fix_post	2		12.0	42.0	2.5	blank	1.0	196.58786487579346	0.09998297691345215
45	123.44008994102478	fix_pre	0		36.0	43.0	2.5	/experiments/knapen_aot/videos/S_yt-K_gHa2x2OQA_319.mp4	0.0	196.6878478527069	0.29999613761901855
45	123.73181414604187	response	0	4		43.0	2.5	/experiments/knapen_aot/videos/S_yt-K_gHa2x2OQA_319.mp4	0.0	196.979572057724	
45	123.7400860786438	movie	1		301.0	43.0	2.5	/experiments/knapen_aot/videos/S_yt-K_gHa2x2OQA_319.mp4	0.0	196.98784399032593	2.5084619522094727
45	126.24854803085327	fix_post	2		11.0	43.0	2.5	/experiments/knapen_aot/videos/S_yt-K_gHa2x2OQA_319.mp4	0.0	199.4963059425354	0.09989190101623535
46	126.3484399318695	fix_pre	0		37.0	44.0	2.5	/experiments/knapen_aot/videos/S_yt-fA0nOetbOJY_580.mp4	0.0	199.59619784355164	0.3083162307739258
46	126.64858603477478	response	0	4		44.0	2.5	/experiments/knapen_aot/videos/S_yt-fA0nOetbOJY_580.mp4	0.0	199.8963439464569	
46	126.65675616264343	movie	1		301.0	44.0	2.5	/experiments/knapen_aot/videos/S_yt-fA0nOetbOJY_580.mp4	0.0	199.90451407432556	2.5084068775177
46	129.16516304016113	fix_post	2		12.0	44.0	2.5	/experiments/knapen_aot/videos/S_yt-fA0nOetbOJY_580.mp4	0.0	202.41292095184326	0.09986710548400879
47	129.26503014564514	fix_pre	0		44.0	45.0	2.5	/experiments/knapen_aot/videos/R_S_yt-9pYW_TqVpU4_43.mp4	0.0	202.51278805732727	0.3666708469390869
47	129.62370896339417	response	0	4		45.0	2.5	/experiments/knapen_aot/videos/R_S_yt-9pYW_TqVpU4_43.mp4	0.0	202.8714668750763	
47	129.63170099258423	movie	1		301.0	45.0	2.5	/experiments/knapen_aot/videos/R_S_yt-9pYW_TqVpU4_43.mp4	0.0	202.87945890426636	2.5083000659942627
47	132.1400010585785	fix_post	2		12.0	45.0	2.5	/experiments/knapen_aot/videos/R_S_yt-9pYW_TqVpU4_43.mp4	0.0	205.38775897026062	0.10007190704345703
48	132.24007296562195	fix_pre	0		13.0	46.0	2.5	/experiments/knapen_aot/videos/S_PA_A002_C009_SDR_20190730_ALT01_SDR_2K_AVC.mp4	0.0	205.48783087730408	0.10827517509460449
48	132.3400809764862	response	0	4		46.0	2.5	/experiments/knapen_aot/videos/S_PA_A002_C009_SDR_20190730_ALT01_SDR_2K_AVC.mp4	0.0	205.58783888816833	
48	132.34834814071655	movie	1		166.0	46.0	2.5	/experiments/knapen_aot/videos/S_PA_A002_C009_SDR_20190730_ALT01_SDR_2K_AVC.mp4	0.0	205.59610605239868	2.5083789825439453
48	134.8567271232605	fix_post	2		12.0	46.0	2.5	/experiments/knapen_aot/videos/S_PA_A002_C009_SDR_20190730_ALT01_SDR_2K_AVC.mp4	0.0	208.10448503494263	0.0999748706817627
49	134.95670199394226	fix_pre	0		24.0	47.0	2.5	/experiments/knapen_aot/videos/S_pexels-kampus-production-5991896.mp4	0.0	208.2044599056244	0.1999969482421875
49	135.14844393730164	response	0	4		47.0	2.5	/experiments/knapen_aot/videos/S_pexels-kampus-production-5991896.mp4	0.0	208.39620184898376	
49	135.15669894218445	movie	1		169.0	47.0	2.5	/experiments/knapen_aot/videos/S_pexels-kampus-production-5991896.mp4	0.0	208.40445685386658	2.508341073989868
49	137.66504001617432	fix_post	2		12.0	47.0	2.5	/experiments/knapen_aot/videos/S_pexels-kampus-production-5991896.mp4	0.0	210.91279792785645	0.10000109672546387
50	137.76504111289978	fix_pre	0		15.0	48.0	2.5	/experiments/knapen_aot/videos/S_yt-2V2tq9-O_Nc_1669.mp4	0.0	211.0127990245819	0.12500500679016113
50	137.88178896903992	response	0	4		48.0	2.5	/experiments/knapen_aot/videos/S_yt-2V2tq9-O_Nc_1669.mp4	0.0	211.12954688072205	
50	137.89004611968994	movie	1		301.0	48.0	2.5	/experiments/knapen_aot/videos/S_yt-2V2tq9-O_Nc_1669.mp4	0.0	211.13780403137207	2.508309841156006
50	140.39835596084595	fix_post	2		12.0	48.0	2.5	/experiments/knapen_aot/videos/S_yt-2V2tq9-O_Nc_1669.mp4	0.0	213.64611387252808	0.09996318817138672
51	140.49831914901733	fix_pre	0		15.0	49.0	2.5	blank	1.0	213.74607706069946	0.12500500679016113
51	140.6151270866394	response	0	4		49.0	2.5	blank	1.0	213.86288499832153	
51	140.6233241558075	movie	1		301.0	49.0	2.5	blank	1.0	213.87108206748962	2.508323907852173
51	143.13164806365967	fix_post	2		12.0	49.0	2.5	blank	1.0	216.3794059753418	0.10001397132873535
52	143.2316620349884	fix_pre	0		33.0	50.0	2.5	/experiments/knapen_aot/videos/S_production_ID_5049072.mp4	0.0	216.47941994667053	0.2750051021575928
52	143.49846005439758	response	0	4		50.0	2.5	/experiments/knapen_aot/videos/S_production_ID_5049072.mp4	0.0	216.7462179660797	
52	143.506667137146	movie	1		167.0	50.0	2.5	/experiments/knapen_aot/videos/S_production_ID_5049072.mp4	0.0	216.75442504882812	2.5083158016204834
52	146.01498293876648	fix_post	2		12.0	50.0	2.5	/experiments/knapen_aot/videos/S_production_ID_5049072.mp4	0.0	219.2627408504486	0.10003900527954102
53	146.11502194404602	fix_pre	0		25.0	51.0	2.5	/experiments/knapen_aot/videos/R_S_yt-OPzchvF7jO8_53.mp4	0.0	219.36277985572815	0.2083601951599121
53	146.31517004966736	response	0	4		51.0	2.5	/experiments/knapen_aot/videos/R_S_yt-OPzchvF7jO8_53.mp4	0.0	219.5629279613495	
53	146.32338213920593	movie	1		301.0	51.0	2.5	/experiments/knapen_aot/videos/R_S_yt-OPzchvF7jO8_53.mp4	0.0	219.57114005088806	2.5082848072052
53	148.83166694641113	fix_post	2		12.0	51.0	2.5	/experiments/knapen_aot/videos/R_S_yt-OPzchvF7jO8_53.mp4	0.0	222.07942485809326	0.10008502006530762
54	148.93175196647644	fix_pre	0		4.0	52.0	2.5	/experiments/knapen_aot/videos/R_S_yt-AHbFln6blfE_36.mp4	0.0	222.17950987815857	0.03319716453552246
54	148.95679593086243	response	0	4		52.0	2.5	/experiments/knapen_aot/videos/R_S_yt-AHbFln6blfE_36.mp4	0.0	222.20455384254456	
54	148.96494913101196	movie	1		301.0	52.0	2.5	/experiments/knapen_aot/videos/R_S_yt-AHbFln6blfE_36.mp4	0.0	222.2127070426941	2.5083258152008057
54	151.47327494621277	fix_post	2		12.0	52.0	2.5	/experiments/knapen_aot/videos/R_S_yt-AHbFln6blfE_36.mp4	0.0	224.7210328578949	0.10003805160522461
55	151.573312997818	fix_pre	0		23.0	53.0	2.5	/experiments/knapen_aot/videos/S_comp_LA_A005_C009_PSNK_ALT_v09_SDR_PS_201809134_SDR_2K_AVC.mp4	0.0	224.82107090950012	0.1916670799255371
55	151.75668501853943	response	0	4		53.0	2.5	/experiments/knapen_aot/videos/S_comp_LA_A005_C009_PSNK_ALT_v09_SDR_PS_201809134_SDR_2K_AVC.mp4	0.0	225.00444293022156	
55	151.76498007774353	movie	1		172.0	53.0	2.5	/experiments/knapen_aot/videos/S_comp_LA_A005_C009_PSNK_ALT_v09_SDR_PS_201809134_SDR_2K_AVC.mp4	0.0	225.01273798942566	2.508275032043457
55	154.273255109787	fix_post	2		12.0	53.0	2.5	/experiments/knapen_aot/videos/S_comp_LA_A005_C009_PSNK_ALT_v09_SDR_PS_201809134_SDR_2K_AVC.mp4	0.0	227.52101302146912	0.10001897811889648
55	154.34007811546326	response	2	4		53.0	2.5	/experiments/knapen_aot/videos/S_comp_LA_A005_C009_PSNK_ALT_v09_SDR_PS_201809134_SDR_2K_AVC.mp4	0.0	227.58783602714539	
56	154.37327408790588	fix_pre	0		72.0	54.0	2.5	blank	1.0	227.621031999588	0.600031852722168
56	154.96507501602173	response	0	4		54.0	2.5	blank	1.0	228.21283292770386	
56	154.97330594062805	movie	1		301.0	54.0	2.5	blank	1.0	228.22106385231018	2.5083260536193848
56	157.48163199424744	fix_post	2		12.0	54.0	2.5	blank	1.0	230.72938990592957	0.09995412826538086
57	157.58158612251282	fix_pre	0		24.0	55.0	2.5	/experiments/knapen_aot/videos/S_yt-dj0XQUJos38_14.mp4	0.0	230.82934403419495	0.19991493225097656
57	157.7733941078186	response	0	4		55.0	2.5	/experiments/knapen_aot/videos/S_yt-dj0XQUJos38_14.mp4	0.0	231.02115201950073	
57	157.7815010547638	movie	1		301.0	55.0	2.5	/experiments/knapen_aot/videos/S_yt-dj0XQUJos38_14.mp4	0.0	231.02925896644592	2.5084409713745117
57	160.2899420261383	fix_post	2		12.0	55.0	2.5	/experiments/knapen_aot/videos/S_yt-dj0XQUJos38_14.mp4	0.0	233.53769993782043	0.10010504722595215
58	160.39004707336426	fix_pre	0		15.0	56.0	2.5	/experiments/knapen_aot/videos/S_yt-PCSXJ5YB_AE_3.mp4	0.0	233.6378049850464	0.12477993965148926
58	160.4991409778595	response	0	4		56.0	2.5	/experiments/knapen_aot/videos/S_yt-PCSXJ5YB_AE_3.mp4	0.0	233.74689888954163	
58	160.51482701301575	movie	1		301.0	56.0	2.5	/experiments/knapen_aot/videos/S_yt-PCSXJ5YB_AE_3.mp4	0.0	233.76258492469788	2.5083961486816406
58	163.0232231616974	fix_post	2		12.0	56.0	2.5	/experiments/knapen_aot/videos/S_yt-PCSXJ5YB_AE_3.mp4	0.0	236.27098107337952	0.10005688667297363
59	163.12328004837036	fix_pre	0		10.0	57.0	2.5	/experiments/knapen_aot/videos/S_yt-fk-z6WCvjjA_3.mp4	0.0	236.3710379600525	0.08326411247253418
59	163.19859910011292	response	0	4		57.0	2.5	/experiments/knapen_aot/videos/S_yt-fk-z6WCvjjA_3.mp4	0.0	236.44635701179504	
59	163.2065441608429	movie	1		301.0	57.0	2.5	/experiments/knapen_aot/videos/S_yt-fk-z6WCvjjA_3.mp4	0.0	236.45430207252502	2.508323907852173
59	165.71486806869507	fix_post	2		12.0	57.0	2.5	/experiments/knapen_aot/videos/S_yt-fk-z6WCvjjA_3.mp4	0.0	238.9626259803772	0.10005998611450195
60	165.81492805480957	fix_pre	0		33.0	58.0	2.5	/experiments/knapen_aot/videos/R_S_yt-McqS-QObQbk_122.mp4	0.0	239.0626859664917	0.27497291564941406
60	166.0816991329193	response	0	4		58.0	2.5	/experiments/knapen_aot/videos/R_S_yt-McqS-QObQbk_122.mp4	0.0	239.32945704460144	
60	166.08990097045898	movie	1		301.0	58.0	2.5	/experiments/knapen_aot/videos/R_S_yt-McqS-QObQbk_122.mp4	0.0	239.3376588821411	2.5083229541778564
60	168.59822392463684	fix_post	2		12.0	58.0	2.5	/experiments/knapen_aot/videos/R_S_yt-McqS-QObQbk_122.mp4	0.0	241.84598183631897	0.10147309303283691
61	168.69969701766968	fix_pre	0		1.0	59.0	2.5	/experiments/knapen_aot/videos/R_S_ILSVRC2015_train_00369000.mp4	0.0	241.9474549293518	0.0068590641021728516
61	168.7013840675354	response	0	4		59.0	2.5	/experiments/knapen_aot/videos/R_S_ILSVRC2015_train_00369000.mp4	0.0	241.94914197921753	
61	168.70655608177185	movie	1		301.0	59.0	2.5	/experiments/knapen_aot/videos/R_S_ILSVRC2015_train_00369000.mp4	0.0	241.95431399345398	2.5083460807800293
61	171.21490216255188	fix_post	2		12.0	59.0	2.5	/experiments/knapen_aot/videos/R_S_ILSVRC2015_train_00369000.mp4	0.0	244.462660074234	0.10003995895385742
62	171.31494212150574	fix_pre	0		3.0	60.0	2.5	/experiments/knapen_aot/videos/S_comp_DB_D001_C001_PSNK_v06_SDR_PS_20180824_SDR_2K_AVC.mp4	0.0	244.56270003318787	0.024879932403564453
62	171.33165907859802	response	0	4		60.0	2.5	/experiments/knapen_aot/videos/S_comp_DB_D001_C001_PSNK_v06_SDR_PS_20180824_SDR_2K_AVC.mp4	0.0	244.57941699028015	
62	171.3398220539093	movie	1		180.0	60.0	2.5	/experiments/knapen_aot/videos/S_comp_DB_D001_C001_PSNK_v06_SDR_PS_20180824_SDR_2K_AVC.mp4	0.0	244.58757996559143	2.50846791267395
62	173.84828996658325	fix_post	2		12.0	60.0	2.5	/experiments/knapen_aot/videos/S_comp_DB_D001_C001_PSNK_v06_SDR_PS_20180824_SDR_2K_AVC.mp4	0.0	247.09604787826538	0.0999610424041748
63	173.94825100898743	fix_pre	0		2.0	61.0	2.5	blank	1.0	247.19600892066956	0.016727924346923828
63	173.9569010734558	response	0	4		61.0	2.5	blank	1.0	247.20465898513794	
63	173.96497893333435	movie	1		301.0	61.0	2.5	blank	1.0	247.21273684501648	2.5082671642303467
63	176.4732460975647	fix_post	2		12.0	61.0	2.5	blank	1.0	249.72100400924683	0.1000058650970459
64	176.57325196266174	fix_pre	0		24.0	62.0	2.5	/experiments/knapen_aot/videos/S_comp_CH_C002_C005_PSNK_v05_SDR_PS_FINAL_20180709_SDR_2K_AVC.mp4	0.0	249.82100987434387	0.19997811317443848
64	176.76497101783752	response	0	4		62.0	2.5	/experiments/knapen_aot/videos/S_comp_CH_C002_C005_PSNK_v05_SDR_PS_FINAL_20180709_SDR_2K_AVC.mp4	0.0	250.01272892951965	
64	176.77323007583618	movie	1		171.0	62.0	2.5	/experiments/knapen_aot/videos/S_comp_CH_C002_C005_PSNK_v05_SDR_PS_FINAL_20180709_SDR_2K_AVC.mp4	0.0	250.0209879875183	2.508293867111206
64	179.2815239429474	fix_post	2		12.0	62.0	2.5	/experiments/knapen_aot/videos/S_comp_CH_C002_C005_PSNK_v05_SDR_PS_FINAL_20180709_SDR_2K_AVC.mp4	0.0	252.52928185462952	0.10004210472106934
64	179.30676412582397	response	2	4		62.0	2.5	/experiments/knapen_aot/videos/S_comp_CH_C002_C005_PSNK_v05_SDR_PS_FINAL_20180709_SDR_2K_AVC.mp4	0.0	252.5545220375061	
65	179.38156604766846	fix_pre	0		33.0	63.0	2.5	/experiments/knapen_aot/videos/R_S_yt-fA0nOetbOJY_580.mp4	0.0	252.6293239593506	0.276141881942749
65	179.64827013015747	response	0	4		63.0	2.5	/experiments/knapen_aot/videos/R_S_yt-fA0nOetbOJY_580.mp4	0.0	252.8960280418396	
65	179.6577079296112	movie	1		301.0	63.0	2.5	/experiments/knapen_aot/videos/R_S_yt-fA0nOetbOJY_580.mp4	0.0	252.90546584129333	2.507176160812378
65	182.16488409042358	fix_post	2		12.0	63.0	2.5	/experiments/knapen_aot/videos/R_S_yt-fA0nOetbOJY_580.mp4	0.0	255.4126420021057	0.09998202323913574
66	182.26486611366272	fix_pre	0		16.0	64.0	2.5	/experiments/knapen_aot/videos/R_S_yt--WPE_4bqQXc_26.mp4	0.0	255.51262402534485	0.13333892822265625
66	182.39021801948547	response	0	4		64.0	2.5	/experiments/knapen_aot/videos/R_S_yt--WPE_4bqQXc_26.mp4	0.0	255.6379759311676	
66	182.39820504188538	movie	1		301.0	64.0	2.5	/experiments/knapen_aot/videos/R_S_yt--WPE_4bqQXc_26.mp4	0.0	255.6459629535675	2.508294105529785
66	184.90649914741516	fix_post	2		12.0	64.0	2.5	/experiments/knapen_aot/videos/R_S_yt--WPE_4bqQXc_26.mp4	0.0	258.1542570590973	0.10004186630249023
67	185.00654101371765	fix_pre	0		21.0	65.0	2.5	/experiments/knapen_aot/videos/R_S_comp_A006_C003_1219EE_CC_v01_SDR_PS_FINAL_20180709_SDR_2K_AVC.mp4	0.0	258.2542989253998	0.17497491836547852
67	185.17331409454346	response	0	4		65.0	2.5	/experiments/knapen_aot/videos/R_S_comp_A006_C003_1219EE_CC_v01_SDR_PS_FINAL_20180709_SDR_2K_AVC.mp4	0.0	258.4210720062256	
67	185.18151593208313	movie	1		174.0	65.0	2.5	/experiments/knapen_aot/videos/R_S_comp_A006_C003_1219EE_CC_v01_SDR_PS_FINAL_20180709_SDR_2K_AVC.mp4	0.0	258.42927384376526	2.508315086364746
67	187.68983101844788	fix_post	2		12.0	65.0	2.5	/experiments/knapen_aot/videos/R_S_comp_A006_C003_1219EE_CC_v01_SDR_PS_FINAL_20180709_SDR_2K_AVC.mp4	0.0	260.93758893013	0.10003495216369629
67	187.73997497558594	response	2	4		65.0	2.5	/experiments/knapen_aot/videos/R_S_comp_A006_C003_1219EE_CC_v01_SDR_PS_FINAL_20180709_SDR_2K_AVC.mp4	0.0	260.98773288726807	
68	187.78986597061157	fix_pre	0		47.0	66.0	2.5	/experiments/knapen_aot/videos/R_S_yt-s2tZ2NIQrxg_175.mp4	0.0	261.0376238822937	0.3916599750518799
68	188.17332100868225	response	0	4		66.0	2.5	/experiments/knapen_aot/videos/R_S_yt-s2tZ2NIQrxg_175.mp4	0.0	261.4210789203644	
68	188.18152594566345	movie	1		301.0	66.0	2.5	/experiments/knapen_aot/videos/R_S_yt-s2tZ2NIQrxg_175.mp4	0.0	261.4292838573456	2.5083119869232178
68	190.68983793258667	fix_post	2		12.0	66.0	2.5	/experiments/knapen_aot/videos/R_S_yt-s2tZ2NIQrxg_175.mp4	0.0	263.9375958442688	0.09995913505554199
69	190.7897970676422	fix_pre	0		23.0	67.0	2.5	/experiments/knapen_aot/videos/R_S_pexels-koolshooters-7327405.mp4	0.0	264.03755497932434	0.19171786308288574
69	190.97329592704773	response	0	4		67.0	2.5	/experiments/knapen_aot/videos/R_S_pexels-koolshooters-7327405.mp4	0.0	264.22105383872986	
69	190.9815149307251	movie	1		167.0	67.0	2.5	/experiments/knapen_aot/videos/R_S_pexels-koolshooters-7327405.mp4	0.0	264.2292728424072	2.5082430839538574
69	193.48975801467896	fix_post	2		12.0	67.0	2.5	/experiments/knapen_aot/videos/R_S_pexels-koolshooters-7327405.mp4	0.0	266.7375159263611	0.10000014305114746
70	193.5897581577301	fix_pre	0		25.0	68.0	2.5	blank	1.0	266.83751606941223	0.20825695991516113
70	193.78992414474487	response	0	4		68.0	2.5	blank	1.0	267.037682056427	
70	193.79801511764526	movie	1		301.0	68.0	2.5	blank	1.0	267.0457730293274	2.5083630084991455
70	196.3063781261444	fix_post	2		12.0	68.0	2.5	blank	1.0	269.55413603782654	0.10117483139038086
71	196.4075529575348	fix_pre	0		24.0	69.0	2.5	/experiments/knapen_aot/videos/S_yt-9mWz93En7Gw_97.mp4	0.0	269.6553108692169	0.19885706901550293
71	196.59819793701172	response	0	4		69.0	2.5	/experiments/knapen_aot/videos/S_yt-9mWz93En7Gw_97.mp4	0.0	269.84595584869385	
71	196.6064100265503	movie	1		301.0	69.0	2.5	/experiments/knapen_aot/videos/S_yt-9mWz93En7Gw_97.mp4	0.0	269.8541679382324	2.508307933807373
71	199.11471796035767	fix_post	2		12.0	69.0	2.5	/experiments/knapen_aot/videos/S_yt-9mWz93En7Gw_97.mp4	0.0	272.3624758720398	0.0999910831451416
72	199.2147090435028	fix_pre	0		22.0	70.0	2.5	/experiments/knapen_aot/videos/R_S_pexels-mart-production-7698911.mp4	0.0	272.46246695518494	0.1833810806274414
72	199.38986897468567	response	0	4		70.0	2.5	/experiments/knapen_aot/videos/R_S_pexels-mart-production-7698911.mp4	0.0	272.6376268863678	
72	199.39809012413025	movie	1		189.0	70.0	2.5	/experiments/knapen_aot/videos/R_S_pexels-mart-production-7698911.mp4	0.0	272.6458480358124	2.5083470344543457
72	201.9064371585846	fix_post	2		12.0	70.0	2.5	/experiments/knapen_aot/videos/R_S_pexels-mart-production-7698911.mp4	0.0	275.1541950702667	0.09995794296264648
73	202.00639510154724	fix_pre	0		13.0	71.0	2.5	/experiments/knapen_aot/videos/R_S_yt-IDpUZ2NWBUY_60.mp4	0.0	275.25415301322937	0.10940098762512207
73	202.10658812522888	response	0	4		71.0	2.5	/experiments/knapen_aot/videos/R_S_yt-IDpUZ2NWBUY_60.mp4	0.0	275.354346036911	
73	202.11579608917236	movie	1		299.0	71.0	2.5	/experiments/knapen_aot/videos/R_S_yt-IDpUZ2NWBUY_60.mp4	0.0	275.3635540008545	2.5072860717773438
73	204.6230821609497	fix_post	2		12.0	71.0	2.5	/experiments/knapen_aot/videos/R_S_yt-IDpUZ2NWBUY_60.mp4	0.0	277.87084007263184	0.0999748706817627
74	204.72305703163147	fix_pre	0		6.0	72.0	2.5	/experiments/knapen_aot/videos/S_yt--WPE_4bqQXc_26.mp4	0.0	277.9708149433136	0.050004005432128906
74	204.7648949623108	response	0	4		72.0	2.5	/experiments/knapen_aot/videos/S_yt--WPE_4bqQXc_26.mp4	0.0	278.0126528739929	
74	204.7730610370636	movie	1		301.0	72.0	2.5	/experiments/knapen_aot/videos/S_yt--WPE_4bqQXc_26.mp4	0.0	278.0208189487457	2.508265972137451
74	207.28132700920105	fix_post	2		12.0	72.0	2.5	/experiments/knapen_aot/videos/S_yt--WPE_4bqQXc_26.mp4	0.0	280.5290849208832	0.10007500648498535
75	207.38140201568604	fix_pre	0		10.0	73.0	2.5	/experiments/knapen_aot/videos/R_S_yt-s5YONFy3vb4_46.mp4	0.0	280.62915992736816	0.08327603340148926
75	207.45654702186584	response	0	4		73.0	2.5	/experiments/knapen_aot/videos/R_S_yt-s5YONFy3vb4_46.mp4	0.0	280.704304933548	
75	207.46467804908752	movie	1		301.0	73.0	2.5	/experiments/knapen_aot/videos/R_S_yt-s5YONFy3vb4_46.mp4	0.0	280.71243596076965	2.508307933807373
75	209.9729859828949	fix_post	2		12.0	73.0	2.5	/experiments/knapen_aot/videos/R_S_yt-s5YONFy3vb4_46.mp4	0.0	283.220743894577	0.10010600090026855
76	210.07309198379517	fix_pre	0		5.0	74.0	2.5	/experiments/knapen_aot/videos/S_yt-tNCrkObhB6c_17.mp4	0.0	283.3208498954773	0.0433650016784668
76	210.1065649986267	response	0	4		74.0	2.5	/experiments/knapen_aot/videos/S_yt-tNCrkObhB6c_17.mp4	0.0	283.35432291030884	
76	210.11645698547363	movie	1		301.0	74.0	2.5	/experiments/knapen_aot/videos/S_yt-tNCrkObhB6c_17.mp4	0.0	283.36421489715576	2.5067081451416016
76	212.62316513061523	fix_post	2		12.0	74.0	2.5	/experiments/knapen_aot/videos/S_yt-tNCrkObhB6c_17.mp4	0.0	285.87092304229736	0.09992098808288574
77	212.72308611869812	fix_pre	0		28.0	75.0	2.5	blank	1.0	285.97084403038025	0.23333191871643066
77	212.94818806648254	response	0	4		75.0	2.5	blank	1.0	286.1959459781647	
77	212.95641803741455	movie	1		301.0	75.0	2.5	blank	1.0	286.2041759490967	2.5083649158477783
77	215.46478295326233	fix_post	2		12.0	75.0	2.5	blank	1.0	288.71254086494446	0.0998990535736084
78	215.56468200683594	fix_pre	0		16.0	76.0	2.5	/experiments/knapen_aot/videos/S_yt-FbCVXEJicis_5.mp4	0.0	288.81243991851807	0.13435101509094238
78	215.68980598449707	response	0	4		76.0	2.5	/experiments/knapen_aot/videos/S_yt-FbCVXEJicis_5.mp4	0.0	288.9375638961792	
78	215.69903302192688	movie	1		301.0	76.0	2.5	/experiments/knapen_aot/videos/S_yt-FbCVXEJicis_5.mp4	0.0	288.946790933609	2.507375955581665
78	218.20640897750854	fix_post	2		12.0	76.0	2.5	/experiments/knapen_aot/videos/S_yt-FbCVXEJicis_5.mp4	0.0	291.4541668891907	0.09993195533752441
78	218.2897219657898	response	2	4		76.0	2.5	/experiments/knapen_aot/videos/S_yt-FbCVXEJicis_5.mp4	0.0	291.5374798774719	
79	218.30634093284607	fix_pre	0		76.0	77.0	2.5	/experiments/knapen_aot/videos/R_S_video-2_copy.mp4	0.0	291.5540988445282	0.6333491802215576
79	218.93140411376953	response	0	4		77.0	2.5	/experiments/knapen_aot/videos/R_S_video-2_copy.mp4	0.0	292.17916202545166	
79	218.93969011306763	movie	1		172.0	77.0	2.5	/experiments/knapen_aot/videos/R_S_video-2_copy.mp4	0.0	292.18744802474976	2.5083088874816895
79	221.44799900054932	fix_post	2		12.0	77.0	2.5	/experiments/knapen_aot/videos/R_S_video-2_copy.mp4	0.0	294.69575691223145	0.10005593299865723
80	221.54805493354797	fix_pre	0		5.0	78.0	2.5	/experiments/knapen_aot/videos/R_S_yt-1iB2ofPY1U8_16.mp4	0.0	294.7958128452301	0.04162907600402832
80	221.5738639831543	response	0	4		78.0	2.5	/experiments/knapen_aot/videos/R_S_yt-1iB2ofPY1U8_16.mp4	0.0	294.8216218948364	
80	221.589684009552	movie	1		301.0	78.0	2.5	/experiments/knapen_aot/videos/R_S_yt-1iB2ofPY1U8_16.mp4	0.0	294.83744192123413	2.508342981338501
80	224.0980269908905	fix_post	2		12.0	78.0	2.5	/experiments/knapen_aot/videos/R_S_yt-1iB2ofPY1U8_16.mp4	0.0	297.34578490257263	0.09998703002929688
81	224.1980140209198	fix_pre	0		5.0	79.0	2.5	/experiments/knapen_aot/videos/S_yt-s5YONFy3vb4_46.mp4	0.0	297.44577193260193	0.04258608818054199
81	224.23143696784973	response	0	4		79.0	2.5	/experiments/knapen_aot/videos/S_yt-s5YONFy3vb4_46.mp4	0.0	297.47919487953186	
81	224.24060010910034	movie	1		301.0	79.0	2.5	/experiments/knapen_aot/videos/S_yt-s5YONFy3vb4_46.mp4	0.0	297.48835802078247	2.507427930831909
81	226.74802803993225	fix_post	2		12.0	79.0	2.5	/experiments/knapen_aot/videos/S_yt-s5YONFy3vb4_46.mp4	0.0	299.9957859516144	0.10000896453857422
82	226.84803700447083	fix_pre	0		16.0	80.0	2.5	/experiments/knapen_aot/videos/S_yt-OPzchvF7jO8_53.mp4	0.0	300.09579491615295	0.13325905799865723
82	226.97308802604675	response	0	4		80.0	2.5	/experiments/knapen_aot/videos/S_yt-OPzchvF7jO8_53.mp4	0.0	300.2208459377289	
82	226.98129606246948	movie	1		301.0	80.0	2.5	/experiments/knapen_aot/videos/S_yt-OPzchvF7jO8_53.mp4	0.0	300.2290539741516	2.508349895477295
82	229.48964595794678	fix_post	2		12.0	80.0	2.5	/experiments/knapen_aot/videos/S_yt-OPzchvF7jO8_53.mp4	0.0	302.7374038696289	0.09998798370361328
83	229.5896339416504	fix_pre	0		8.0	81.0	2.5	/experiments/knapen_aot/videos/S_production_ID_3735542.mp4	0.0	302.8373918533325	0.06757020950317383
83	229.64808702468872	response	0	4		81.0	2.5	/experiments/knapen_aot/videos/S_production_ID_3735542.mp4	0.0	302.89584493637085	
83	229.65720415115356	movie	1		168.0	81.0	2.5	/experiments/knapen_aot/videos/S_production_ID_3735542.mp4	0.0	302.9049620628357	2.5073649883270264
83	232.1645691394806	fix_post	2		12.0	81.0	2.5	/experiments/knapen_aot/videos/S_production_ID_3735542.mp4	0.0	305.4123270511627	0.10006594657897949
84	232.26463508605957	fix_pre	0		5.0	82.0	2.5	/experiments/knapen_aot/videos/S_yt-FbCVXEJicis_5.mp4	0.0	305.5123929977417	0.04174184799194336
84	232.29811000823975	response	0	4		82.0	2.5	/experiments/knapen_aot/videos/S_yt-FbCVXEJicis_5.mp4	0.0	305.5458679199219	
84	232.3063769340515	movie	1		301.0	82.0	2.5	/experiments/knapen_aot/videos/S_yt-FbCVXEJicis_5.mp4	0.0	305.55413484573364	2.5082499980926514
84	234.81462693214417	fix_post	2		12.0	82.0	2.5	/experiments/knapen_aot/videos/S_yt-FbCVXEJicis_5.mp4	0.0	308.0623848438263	0.09997820854187012
85	234.91460514068604	fix_pre	0		14.0	83.0	2.5	blank	1.0	308.16236305236816	0.11756300926208496
85	235.02298998832703	response	0	4		83.0	2.5	blank	1.0	308.27074790000916	
85	235.03216814994812	movie	1		301.0	83.0	2.5	blank	1.0	308.27992606163025	2.5074639320373535
85	237.53963208198547	fix_post	2		12.0	83.0	2.5	blank	1.0	310.7873899936676	0.10012388229370117
87	237.63975596427917	stim	0		183.0					310.8875138759613	1.5248541831970215
87	237.73974013328552	response	0	4						310.98749804496765	
87	239.16113209724426	response	0	space						312.4088900089264	
