trial_nr	onset	event_type	phase	response	nr_frames	movie_index	movie_duration	movie_file	blank	onset_abs	duration
0	0.12747883796691895	stim	0		51.0					343.81977677345276	0.424591064453125
0	0.5437908172607422	response	0	space						344.2360887527466	
1	0.552069902420044	stim	0		121.0					344.2443678379059	1.008316993713379
1	1.1022109985351562	response	0	space						344.794508934021	
1	1.5603868961334229	stim	1		120.0					345.25268483161926	0.9998199939727783
1	1.8934898376464844	response	1	space						345.5857877731323	
1	2.3434560298919678	response	1	space						346.0357539653778	
2	2.560206890106201	fix_pre	0		38.0	0.0	2.5	/experiments/knapen_aot/videos/S_yt-fP2JRJAFGZ4_25.mp4	0.0	346.25250482559204	0.3165121078491211
2	2.8684279918670654	response	0	space		0.0	2.5	/experiments/knapen_aot/videos/S_yt-fP2JRJAFGZ4_25.mp4	0.0	346.5607259273529	
2	2.8767189979553223	movie	1		300.0	0.0	2.5	/experiments/knapen_aot/videos/S_yt-fP2JRJAFGZ4_25.mp4	0.0	346.56901693344116	2.508478879928589
2	5.385197877883911	fix_post	2		12.0	0.0	2.5	/experiments/knapen_aot/videos/S_yt-fP2JRJAFGZ4_25.mp4	0.0	349.07749581336975	0.09987902641296387
3	5.485076904296875	fix_pre	0		68.0	1.0	2.5	/experiments/knapen_aot/videos/S_production_ID_5144823.mp4	0.0	349.1773748397827	0.5666389465332031
3	6.040549993515015	response	0	2		1.0	2.5	/experiments/knapen_aot/videos/S_production_ID_5144823.mp4	0.0	349.73284792900085	
3	6.051715850830078	movie	1		161.0	1.0	2.5	/experiments/knapen_aot/videos/S_production_ID_5144823.mp4	0.0	349.7440137863159	2.5083601474761963
3	8.560075998306274	fix_post	2		12.0	1.0	2.5	/experiments/knapen_aot/videos/S_production_ID_5144823.mp4	0.0	352.2523739337921	0.09999585151672363
4	8.660071849822998	fix_pre	0		66.0	2.0	2.5	/experiments/knapen_aot/videos/R_S_yt-G_eNNzNB-hU_1.mp4	0.0	352.35236978530884	0.5500121116638184
4	9.201872825622559	response	0	2		2.0	2.5	/experiments/knapen_aot/videos/R_S_yt-G_eNNzNB-hU_1.mp4	0.0	352.8941707611084	
4	9.210083961486816	movie	1		301.0	2.0	2.5	/experiments/knapen_aot/videos/R_S_yt-G_eNNzNB-hU_1.mp4	0.0	352.90238189697266	2.5082828998565674
4	11.546727895736694	response	1	4		2.0	2.5	/experiments/knapen_aot/videos/R_S_yt-G_eNNzNB-hU_1.mp4	0.0	355.23902583122253	
4	11.718366861343384	fix_post	2		12.0	2.0	2.5	/experiments/knapen_aot/videos/R_S_yt-G_eNNzNB-hU_1.mp4	0.0	355.4106647968292	0.09997105598449707
5	11.81833791732788	fix_pre	0		89.0	3.0	2.5	/experiments/knapen_aot/videos/S_production_ID_3967181.mp4	0.0	355.5106358528137	0.7416539192199707
5	12.5518159866333	response	0	4		3.0	2.5	/experiments/knapen_aot/videos/S_production_ID_3967181.mp4	0.0	356.24411392211914	
5	12.559991836547852	movie	1		192.0	3.0	2.5	/experiments/knapen_aot/videos/S_production_ID_3967181.mp4	0.0	356.2522897720337	2.508380174636841
5	15.068372011184692	fix_post	2		12.0	3.0	2.5	/experiments/knapen_aot/videos/S_production_ID_3967181.mp4	0.0	358.76066994667053	0.10001802444458008
6	15.168390035629272	fix_pre	0		20.0	4.0	2.5	/experiments/knapen_aot/videos/R_S_ioSkDvwpEaU_35.mp4	0.0	358.8606879711151	0.1666419506072998
6	15.326790809631348	response	0	4		4.0	2.5	/experiments/knapen_aot/videos/R_S_ioSkDvwpEaU_35.mp4	0.0	359.0190887451172	
6	15.335031986236572	movie	1		301.0	4.0	2.5	/experiments/knapen_aot/videos/R_S_ioSkDvwpEaU_35.mp4	0.0	359.0273299217224	2.508328914642334
6	17.843360900878906	fix_post	2		12.0	4.0	2.5	/experiments/knapen_aot/videos/R_S_ioSkDvwpEaU_35.mp4	0.0	361.53565883636475	0.09993696212768555
7	17.943297863006592	fix_pre	0		135.0	5.0	2.5	/experiments/knapen_aot/videos/S_yt-gC3my54_ChQ_58.mp4	0.0	361.63559579849243	1.1255240440368652
7	19.060086965560913	response	0	4		5.0	2.5	/experiments/knapen_aot/videos/S_yt-gC3my54_ChQ_58.mp4	0.0	362.75238490104675	
7	19.068821907043457	movie	1		301.0	5.0	2.5	/experiments/knapen_aot/videos/S_yt-gC3my54_ChQ_58.mp4	0.0	362.7611198425293	2.5079779624938965
7	21.576799869537354	fix_post	2		12.0	5.0	2.5	/experiments/knapen_aot/videos/S_yt-gC3my54_ChQ_58.mp4	0.0	365.2690978050232	0.09987401962280273
8	21.676673889160156	fix_pre	0		37.0	6.0	2.5	blank	1.0	365.368971824646	0.30881309509277344
8	21.97680687904358	response	0	4		6.0	2.5	blank	1.0	365.6691048145294	
8	21.98548698425293	movie	1		301.0	6.0	2.5	blank	1.0	365.67778491973877	2.507823944091797
8	24.44352102279663	response	1	4		6.0	2.5	blank	1.0	368.13581895828247	
8	24.493310928344727	fix_post	2		12.0	6.0	2.5	blank	1.0	368.18560886383057	0.0999760627746582
9	24.593286991119385	fix_pre	0		127.0	7.0	2.5	/experiments/knapen_aot/videos/S_yt-AjyR9--Mx3A_44.mp4	0.0	368.2855849266052	1.058758020401001
9	25.64351201057434	response	0	4		7.0	2.5	/experiments/knapen_aot/videos/S_yt-AjyR9--Mx3A_44.mp4	0.0	369.3358099460602	
9	25.652045011520386	movie	1		301.0	7.0	2.5	/experiments/knapen_aot/videos/S_yt-AjyR9--Mx3A_44.mp4	0.0	369.3443429470062	2.5079410076141357
9	28.15998601913452	fix_post	2		12.0	7.0	2.5	/experiments/knapen_aot/videos/S_yt-AjyR9--Mx3A_44.mp4	0.0	371.85228395462036	0.09999299049377441
10	28.259979009628296	fix_pre	0		5.0	8.0	2.5	/experiments/knapen_aot/videos/S_comp_L010_C006_PS_v01_SDR_PS_20180925_SDR_2K_AVC.mp4	0.0	371.95227694511414	0.04170489311218262
10	28.28584885597229	response	0	4		8.0	2.5	/experiments/knapen_aot/videos/S_comp_L010_C006_PS_v01_SDR_PS_20180925_SDR_2K_AVC.mp4	0.0	371.97814679145813	
10	28.30168390274048	movie	1		167.0	8.0	2.5	/experiments/knapen_aot/videos/S_comp_L010_C006_PS_v01_SDR_PS_20180925_SDR_2K_AVC.mp4	0.0	371.9939818382263	2.508291006088257
10	30.809974908828735	fix_post	2		12.0	8.0	2.5	/experiments/knapen_aot/videos/S_comp_L010_C006_PS_v01_SDR_PS_20180925_SDR_2K_AVC.mp4	0.0	374.5022728443146	0.10001111030578613
11	30.90998601913452	fix_pre	0		34.0	9.0	2.5	/experiments/knapen_aot/videos/S_production_ID_3712945.mp4	0.0	374.60228395462036	0.2836878299713135
11	31.185045957565308	response	0	4		9.0	2.5	/experiments/knapen_aot/videos/S_production_ID_3712945.mp4	0.0	374.87734389305115	
11	31.193673849105835	movie	1		201.0	9.0	2.5	/experiments/knapen_aot/videos/S_production_ID_3712945.mp4	0.0	374.8859717845917	2.5079691410064697
11	33.701642990112305	fix_post	2		12.0	9.0	2.5	/experiments/knapen_aot/videos/S_production_ID_3712945.mp4	0.0	377.39394092559814	0.10022902488708496
12	33.80187201499939	fix_pre	0		15.0	10.0	2.5	/experiments/knapen_aot/videos/R_S_pexels-cottonbro-10640532.mp4	0.0	377.49416995048523	0.12478280067443848
12	33.91835403442383	response	0	4		10.0	2.5	/experiments/knapen_aot/videos/R_S_pexels-cottonbro-10640532.mp4	0.0	377.61065196990967	
12	33.92665481567383	movie	1		201.0	10.0	2.5	/experiments/knapen_aot/videos/R_S_pexels-cottonbro-10640532.mp4	0.0	377.61895275115967	2.5083160400390625
12	36.43497085571289	fix_post	2		12.0	10.0	2.5	/experiments/knapen_aot/videos/R_S_pexels-cottonbro-10640532.mp4	0.0	380.12726879119873	0.09993195533752441
13	36.534902811050415	fix_pre	0		13.0	11.0	2.5	/experiments/knapen_aot/videos/R_S_ILSVRC2015_train_00278004.mp4	0.0	380.22720074653625	0.10836911201477051
13	36.63502097129822	response	0	4		11.0	2.5	/experiments/knapen_aot/videos/R_S_ILSVRC2015_train_00278004.mp4	0.0	380.32731890678406	
13	36.643271923065186	movie	1		301.0	11.0	2.5	/experiments/knapen_aot/videos/R_S_ILSVRC2015_train_00278004.mp4	0.0	380.335569858551	2.5083320140838623
13	39.15160393714905	fix_post	2		12.0	11.0	2.5	/experiments/knapen_aot/videos/R_S_ILSVRC2015_train_00278004.mp4	0.0	382.8439018726349	0.09995102882385254
14	39.2515549659729	fix_pre	0		32.0	12.0	2.5	blank	1.0	382.94385290145874	0.2667269706726074
14	39.510042905807495	response	0	4		12.0	2.5	blank	1.0	383.20234084129333	
14	39.51828193664551	movie	1		301.0	12.0	2.5	blank	1.0	383.21057987213135	2.508352041244507
14	42.026633977890015	fix_post	2		12.0	12.0	2.5	blank	1.0	385.71893191337585	0.09989404678344727
15	42.12652802467346	fix_pre	0		18.0	13.0	2.5	/experiments/knapen_aot/videos/S_flickr-seattlemcneals-996953_3.mp4	0.0	385.8188259601593	0.15043091773986816
15	42.26857590675354	response	0	4		13.0	2.5	/experiments/knapen_aot/videos/S_flickr-seattlemcneals-996953_3.mp4	0.0	385.9608738422394	
15	42.27695894241333	movie	1		301.0	13.0	2.5	/experiments/knapen_aot/videos/S_flickr-seattlemcneals-996953_3.mp4	0.0	385.96925687789917	2.507943868637085
15	44.784902811050415	fix_post	2		12.0	13.0	2.5	/experiments/knapen_aot/videos/S_flickr-seattlemcneals-996953_3.mp4	0.0	388.47720074653625	0.10002708435058594
16	44.884929895401	fix_pre	0		26.0	14.0	2.5	/experiments/knapen_aot/videos/R_S_yt-t-wpKypNysg_27.mp4	0.0	388.57722783088684	0.21663212776184082
16	45.09343194961548	response	0	4		14.0	2.5	/experiments/knapen_aot/videos/R_S_yt-t-wpKypNysg_27.mp4	0.0	388.7857298851013	
16	45.10156202316284	movie	1		301.0	14.0	2.5	/experiments/knapen_aot/videos/R_S_yt-t-wpKypNysg_27.mp4	0.0	388.7938599586487	2.508342981338501
16	47.60990500450134	fix_post	2		12.0	14.0	2.5	/experiments/knapen_aot/videos/R_S_yt-t-wpKypNysg_27.mp4	0.0	391.3022029399872	0.10000395774841309
17	47.709908962249756	fix_pre	0		19.0	15.0	2.5	/experiments/knapen_aot/videos/R_S_ILSVRC2015_train_00563000.mp4	0.0	391.4022068977356	0.15832805633544922
17	47.85254096984863	response	0	4		15.0	2.5	/experiments/knapen_aot/videos/R_S_ILSVRC2015_train_00563000.mp4	0.0	391.5448389053345	
17	47.868237018585205	movie	1		301.0	15.0	2.5	/experiments/knapen_aot/videos/R_S_ILSVRC2015_train_00563000.mp4	0.0	391.56053495407104	2.5083367824554443
17	50.37657380104065	fix_post	2		12.0	15.0	2.5	/experiments/knapen_aot/videos/R_S_ILSVRC2015_train_00563000.mp4	0.0	394.0688717365265	0.09998106956481934
17	50.40998697280884	response	2	4		15.0	2.5	/experiments/knapen_aot/videos/R_S_ILSVRC2015_train_00563000.mp4	0.0	394.1022849082947	
18	50.47655487060547	fix_pre	0		58.0	16.0	2.5	/experiments/knapen_aot/videos/R_S_DL_B002_C011_SDR_20191122_SDR_2K_AVC.mp4	0.0	394.1688528060913	0.4833199977874756
18	50.95165991783142	response	0	4		16.0	2.5	/experiments/knapen_aot/videos/R_S_DL_B002_C011_SDR_20191122_SDR_2K_AVC.mp4	0.0	394.64395785331726	
18	50.959874868392944	movie	1		182.0	16.0	2.5	/experiments/knapen_aot/videos/R_S_DL_B002_C011_SDR_20191122_SDR_2K_AVC.mp4	0.0	394.6521728038788	2.5084469318389893
18	53.043471813201904	response	1	4		16.0	2.5	/experiments/knapen_aot/videos/R_S_DL_B002_C011_SDR_20191122_SDR_2K_AVC.mp4	0.0	396.73576974868774	
18	53.468321800231934	fix_post	2		12.0	16.0	2.5	/experiments/knapen_aot/videos/R_S_DL_B002_C011_SDR_20191122_SDR_2K_AVC.mp4	0.0	397.1606197357178	0.10026001930236816
19	53.5685818195343	fix_pre	0		36.0	17.0	2.5	/experiments/knapen_aot/videos/R_S_yt-MSdNCUWOp4o_4.mp4	0.0	397.26087975502014	0.29961299896240234
19	53.8599488735199	response	0	4		17.0	2.5	/experiments/knapen_aot/videos/R_S_yt-MSdNCUWOp4o_4.mp4	0.0	397.55224680900574	
19	53.868194818496704	movie	1		301.0	17.0	2.5	/experiments/knapen_aot/videos/R_S_yt-MSdNCUWOp4o_4.mp4	0.0	397.56049275398254	2.5083701610565186
19	56.37656497955322	fix_post	2		12.0	17.0	2.5	/experiments/knapen_aot/videos/R_S_yt-MSdNCUWOp4o_4.mp4	0.0	400.06886291503906	0.09998798370361328
20	56.476552963256836	fix_pre	0		107.0	18.0	2.5	/experiments/knapen_aot/videos/R_S_yt-QXsedpZh800_275.mp4	0.0	400.1688508987427	0.8916280269622803
20	57.36002492904663	response	0	4		18.0	2.5	/experiments/knapen_aot/videos/R_S_yt-QXsedpZh800_275.mp4	0.0	401.05232286453247	
20	57.368180990219116	movie	1		301.0	18.0	2.5	/experiments/knapen_aot/videos/R_S_yt-QXsedpZh800_275.mp4	0.0	401.06047892570496	2.508683919906616
20	59.87686491012573	fix_post	2		12.0	18.0	2.5	/experiments/knapen_aot/videos/R_S_yt-QXsedpZh800_275.mp4	0.0	403.5691628456116	0.09966611862182617
21	59.97653102874756	fix_pre	0		40.0	19.0	2.5	/experiments/knapen_aot/videos/R_S_Pz_NXxhQCJc_70.mp4	0.0	403.6688289642334	0.33328986167907715
21	60.30183386802673	response	0	4		19.0	2.5	/experiments/knapen_aot/videos/R_S_Pz_NXxhQCJc_70.mp4	0.0	403.9941318035126	
21	60.309820890426636	movie	1		301.0	19.0	2.5	/experiments/knapen_aot/videos/R_S_Pz_NXxhQCJc_70.mp4	0.0	404.0021188259125	2.508427143096924
21	62.81824803352356	fix_post	2		12.0	19.0	2.5	/experiments/knapen_aot/videos/R_S_Pz_NXxhQCJc_70.mp4	0.0	406.5105459690094	0.09992599487304688
22	62.918174028396606	fix_pre	0		41.0	20.0	2.5	blank	1.0	406.61047196388245	0.34163880348205566
22	63.2515869140625	response	0	4		20.0	2.5	blank	1.0	406.94388484954834	
22	63.25981283187866	movie	1		301.0	20.0	2.5	blank	1.0	406.9521107673645	2.5082449913024902
22	65.42660284042358	response	1	4		20.0	2.5	blank	1.0	409.1189007759094	
22	65.76805782318115	fix_post	2		12.0	20.0	2.5	blank	1.0	409.460355758667	0.10014700889587402
23	65.86820483207703	fix_pre	0		35.0	21.0	2.5	/experiments/knapen_aot/videos/S_ILSVRC2015_train_00165013.mp4	0.0	409.56050276756287	0.291607141494751
23	66.15157198905945	response	0	4		21.0	2.5	/experiments/knapen_aot/videos/S_ILSVRC2015_train_00165013.mp4	0.0	409.8438699245453	
23	66.15981197357178	movie	1		300.0	21.0	2.5	/experiments/knapen_aot/videos/S_ILSVRC2015_train_00165013.mp4	0.0	409.8521099090576	2.508373975753784
23	68.49322986602783	response	1	4		21.0	2.5	/experiments/knapen_aot/videos/S_ILSVRC2015_train_00165013.mp4	0.0	412.1855278015137	
23	68.66818594932556	fix_post	2		12.0	21.0	2.5	/experiments/knapen_aot/videos/S_ILSVRC2015_train_00165013.mp4	0.0	412.3604838848114	0.0999748706817627
24	68.76816082000732	fix_pre	0		51.0	22.0	2.5	/experiments/knapen_aot/videos/R_S_yt-JPsTqfqfPIY_319.mp4	0.0	412.46045875549316	0.42522621154785156
24	69.18492388725281	response	0	4		22.0	2.5	/experiments/knapen_aot/videos/R_S_yt-JPsTqfqfPIY_319.mp4	0.0	412.87722182273865	
24	69.19338703155518	movie	1		301.0	22.0	2.5	/experiments/knapen_aot/videos/R_S_yt-JPsTqfqfPIY_319.mp4	0.0	412.885684967041	2.508079767227173
24	71.70146679878235	fix_post	2		12.0	22.0	2.5	/experiments/knapen_aot/videos/R_S_yt-JPsTqfqfPIY_319.mp4	0.0	415.3937647342682	0.10001206398010254
25	71.80147886276245	fix_pre	0		36.0	23.0	2.5	/experiments/knapen_aot/videos/R_S_yt-P8vJa4YVcGU_488.mp4	0.0	415.4937767982483	0.29998111724853516
25	72.09323692321777	response	0	4		23.0	2.5	/experiments/knapen_aot/videos/R_S_yt-P8vJa4YVcGU_488.mp4	0.0	415.7855348587036	
25	72.10145998001099	movie	1		301.0	23.0	2.5	/experiments/knapen_aot/videos/R_S_yt-P8vJa4YVcGU_488.mp4	0.0	415.7937579154968	2.50834584236145
25	74.60980582237244	fix_post	2		12.0	23.0	2.5	/experiments/knapen_aot/videos/R_S_yt-P8vJa4YVcGU_488.mp4	0.0	418.3021037578583	0.1000070571899414
26	74.70981287956238	fix_pre	0		67.0	24.0	2.5	/experiments/knapen_aot/videos/R_S_production_ID_3944248.mp4	0.0	418.4021108150482	0.558311939239502
26	75.25988793373108	response	0	4		24.0	2.5	/experiments/knapen_aot/videos/R_S_production_ID_3944248.mp4	0.0	418.9521858692169	
26	75.26812481880188	movie	1		182.0	24.0	2.5	/experiments/knapen_aot/videos/R_S_production_ID_3944248.mp4	0.0	418.9604227542877	2.508553981781006
26	77.77667880058289	fix_post	2		12.0	24.0	2.5	/experiments/knapen_aot/videos/R_S_production_ID_3944248.mp4	0.0	421.4689767360687	0.09980201721191406
27	77.8764808177948	fix_pre	0		39.0	25.0	2.5	/experiments/knapen_aot/videos/R_S_wc-oyG6AjP_W2EL_15.mp4	0.0	421.56877875328064	0.32495903968811035
27	78.19314384460449	response	0	4		25.0	2.5	/experiments/knapen_aot/videos/R_S_wc-oyG6AjP_W2EL_15.mp4	0.0	421.88544178009033	
27	78.20143985748291	movie	1		301.0	25.0	2.5	/experiments/knapen_aot/videos/R_S_wc-oyG6AjP_W2EL_15.mp4	0.0	421.89373779296875	2.5083720684051514
27	80.70981192588806	fix_post	2		12.0	25.0	2.5	/experiments/knapen_aot/videos/R_S_wc-oyG6AjP_W2EL_15.mp4	0.0	424.4021098613739	0.1000669002532959
27	80.71825885772705	response	2	4		25.0	2.5	/experiments/knapen_aot/videos/R_S_wc-oyG6AjP_W2EL_15.mp4	0.0	424.4105567932129	
28	80.80987882614136	fix_pre	0		54.0	26.0	2.5	/experiments/knapen_aot/videos/S_video-3.mp4	0.0	424.5021767616272	0.4498581886291504
28	81.2515218257904	response	0	4		26.0	2.5	/experiments/knapen_aot/videos/S_video-3.mp4	0.0	424.94381976127625	
28	81.25973701477051	movie	1		164.0	26.0	2.5	/experiments/knapen_aot/videos/S_video-3.mp4	0.0	424.95203495025635	2.5083508491516113
28	83.05121397972107	response	1	4		26.0	2.5	/experiments/knapen_aot/videos/S_video-3.mp4	0.0	426.7435119152069	
28	83.76808786392212	fix_post	2		12.0	26.0	2.5	/experiments/knapen_aot/videos/S_video-3.mp4	0.0	427.46038579940796	0.10015010833740234
29	83.86823797225952	fix_pre	0		23.0	27.0	2.5	blank	1.0	427.56053590774536	0.1914670467376709
29	84.05155992507935	response	0	4		27.0	2.5	blank	1.0	427.7438578605652	
29	84.05970501899719	movie	1		301.0	27.0	2.5	blank	1.0	427.75200295448303	2.5085458755493164
29	86.56825089454651	fix_post	2		12.0	27.0	2.5	blank	1.0	430.26054883003235	0.09984612464904785
30	86.66809701919556	fix_pre	0		49.0	28.0	2.5	/experiments/knapen_aot/videos/S_yt-4W224-RSCnM_15.mp4	0.0	430.3603949546814	0.40831780433654785
30	87.06058692932129	response	0	4		28.0	2.5	/experiments/knapen_aot/videos/S_yt-4W224-RSCnM_15.mp4	0.0	430.75288486480713	
30	87.0764148235321	movie	1		301.0	28.0	2.5	/experiments/knapen_aot/videos/S_yt-4W224-RSCnM_15.mp4	0.0	430.76871275901794	2.5085160732269287
30	89.58493089675903	fix_post	2		12.0	28.0	2.5	/experiments/knapen_aot/videos/S_yt-4W224-RSCnM_15.mp4	0.0	433.2772288322449	0.0997459888458252
31	89.68467688560486	fix_pre	0		21.0	29.0	2.5	/experiments/knapen_aot/videos/R_S_yt-a0axt7n0GuQ_19.mp4	0.0	433.3769748210907	0.17510604858398438
31	89.85152196884155	response	0	4		29.0	2.5	/experiments/knapen_aot/videos/R_S_yt-a0axt7n0GuQ_19.mp4	0.0	433.5438199043274	
31	89.85978293418884	movie	1		301.0	29.0	2.5	/experiments/knapen_aot/videos/R_S_yt-a0axt7n0GuQ_19.mp4	0.0	433.5520808696747	2.5083250999450684
31	92.36810803413391	fix_post	2		12.0	29.0	2.5	/experiments/knapen_aot/videos/R_S_yt-a0axt7n0GuQ_19.mp4	0.0	436.06040596961975	0.09994196891784668
32	92.46805000305176	fix_pre	0		25.0	30.0	2.5	/experiments/knapen_aot/videos/S_yt-cgwHIb9LAFc_336.mp4	0.0	436.1603479385376	0.20831584930419922
32	92.66821098327637	response	0	4		30.0	2.5	/experiments/knapen_aot/videos/S_yt-cgwHIb9LAFc_336.mp4	0.0	436.3605089187622	
32	92.67636585235596	movie	1		301.0	30.0	2.5	/experiments/knapen_aot/videos/S_yt-cgwHIb9LAFc_336.mp4	0.0	436.3686637878418	2.508394956588745
32	95.1847608089447	fix_post	2		12.0	30.0	2.5	/experiments/knapen_aot/videos/S_yt-cgwHIb9LAFc_336.mp4	0.0	438.87705874443054	0.09995102882385254
33	95.28471183776855	fix_pre	0		12.0	31.0	2.5	/experiments/knapen_aot/videos/R_S_yt-H-2Vvouw9VI_85.mp4	0.0	438.9770097732544	0.09999799728393555
33	95.37639498710632	response	0	4		31.0	2.5	/experiments/knapen_aot/videos/R_S_yt-H-2Vvouw9VI_85.mp4	0.0	439.06869292259216	
33	95.38470983505249	movie	1		301.0	31.0	2.5	/experiments/knapen_aot/videos/R_S_yt-H-2Vvouw9VI_85.mp4	0.0	439.07700777053833	2.5082881450653076
33	97.8929979801178	fix_post	2		12.0	31.0	2.5	/experiments/knapen_aot/videos/R_S_yt-H-2Vvouw9VI_85.mp4	0.0	441.58529591560364	0.10004186630249023
34	97.99303984642029	fix_pre	0		28.0	32.0	2.5	/experiments/knapen_aot/videos/S_yt-NQSCGMpo-p8_118.mp4	0.0	441.6853377819061	0.23326516151428223
34	98.21817302703857	response	0	4		32.0	2.5	/experiments/knapen_aot/videos/S_yt-NQSCGMpo-p8_118.mp4	0.0	441.9104709625244	
34	98.22630500793457	movie	1		301.0	32.0	2.5	/experiments/knapen_aot/videos/S_yt-NQSCGMpo-p8_118.mp4	0.0	441.9186029434204	2.508481025695801
34	100.73478603363037	fix_post	2		12.0	32.0	2.5	/experiments/knapen_aot/videos/S_yt-NQSCGMpo-p8_118.mp4	0.0	444.4270839691162	0.09990477561950684
35	100.83469080924988	fix_pre	0		41.0	33.0	2.5	/experiments/knapen_aot/videos/S_production_ID_3944248.mp4	0.0	444.5269887447357	0.3416471481323242
35	101.16808295249939	response	0	4		33.0	2.5	/experiments/knapen_aot/videos/S_production_ID_3944248.mp4	0.0	444.86038088798523	
35	101.1763379573822	movie	1		190.0	33.0	2.5	/experiments/knapen_aot/videos/S_production_ID_3944248.mp4	0.0	444.86863589286804	2.5083420276641846
35	103.68467998504639	fix_post	2		12.0	33.0	2.5	/experiments/knapen_aot/videos/S_production_ID_3944248.mp4	0.0	447.3769779205322	0.10002303123474121
36	103.78470301628113	fix_pre	0		27.0	34.0	2.5	blank	1.0	447.47700095176697	0.2249608039855957
36	104.00147199630737	response	0	4		34.0	2.5	blank	1.0	447.6937699317932	
36	104.00966382026672	movie	1		301.0	34.0	2.5	blank	1.0	447.70196175575256	2.5083250999450684
36	106.51798892021179	fix_post	2		12.0	34.0	2.5	blank	1.0	450.21028685569763	0.09999299049377441
37	106.61798191070557	fix_pre	0		30.0	35.0	2.5	/experiments/knapen_aot/videos/S_production_ID_4269182.mp4	0.0	450.3102798461914	0.24993205070495605
37	106.85976481437683	response	0	4		35.0	2.5	/experiments/knapen_aot/videos/S_production_ID_4269182.mp4	0.0	450.55206274986267	
37	106.86791396141052	movie	1		202.0	35.0	2.5	/experiments/knapen_aot/videos/S_production_ID_4269182.mp4	0.0	450.56021189689636	2.5083959102630615
37	109.37630987167358	fix_post	2		12.0	35.0	2.5	/experiments/knapen_aot/videos/S_production_ID_4269182.mp4	0.0	453.0686078071594	0.1000981330871582
38	109.47640800476074	fix_pre	0		41.0	36.0	2.5	/experiments/knapen_aot/videos/R_S_yt-MyL1VlXiZa4_25.mp4	0.0	453.1687059402466	0.34151792526245117
38	109.80970287322998	response	0	4		36.0	2.5	/experiments/knapen_aot/videos/R_S_yt-MyL1VlXiZa4_25.mp4	0.0	453.5020008087158	
38	109.8179259300232	movie	1		301.0	36.0	2.5	/experiments/knapen_aot/videos/R_S_yt-MyL1VlXiZa4_25.mp4	0.0	453.51022386550903	2.5083088874816895
38	112.32623481750488	fix_post	2		12.0	36.0	2.5	/experiments/knapen_aot/videos/R_S_yt-MyL1VlXiZa4_25.mp4	0.0	456.0185327529907	0.10010313987731934
39	112.4263379573822	fix_pre	0		19.0	37.0	2.5	/experiments/knapen_aot/videos/R_S_yt-e_eOzV7qMZo_374.mp4	0.0	456.11863589286804	0.15830588340759277
39	112.57646679878235	response	0	4		37.0	2.5	/experiments/knapen_aot/videos/R_S_yt-e_eOzV7qMZo_374.mp4	0.0	456.2687647342682	
39	112.5846438407898	movie	1		301.0	37.0	2.5	/experiments/knapen_aot/videos/R_S_yt-e_eOzV7qMZo_374.mp4	0.0	456.27694177627563	2.5083811283111572
39	114.58481502532959	response	1	4		37.0	2.5	/experiments/knapen_aot/videos/R_S_yt-e_eOzV7qMZo_374.mp4	0.0	458.27711296081543	
39	115.09302496910095	fix_post	2		12.0	37.0	2.5	/experiments/knapen_aot/videos/R_S_yt-e_eOzV7qMZo_374.mp4	0.0	458.7853229045868	0.10019183158874512
40	115.1932168006897	fix_pre	0		25.0	38.0	2.5	/experiments/knapen_aot/videos/R_S_yt-cgwHIb9LAFc_336.mp4	0.0	458.88551473617554	0.20814013481140137
40	115.39306592941284	response	0	4		38.0	2.5	/experiments/knapen_aot/videos/R_S_yt-cgwHIb9LAFc_336.mp4	0.0	459.0853638648987	
40	115.4013569355011	movie	1		301.0	38.0	2.5	/experiments/knapen_aot/videos/R_S_yt-cgwHIb9LAFc_336.mp4	0.0	459.09365487098694	2.5085909366607666
40	117.90994787216187	fix_post	2		12.0	38.0	2.5	/experiments/knapen_aot/videos/R_S_yt-cgwHIb9LAFc_336.mp4	0.0	461.6022458076477	0.09966802597045898
41	118.00961589813232	fix_pre	0		48.0	39.0	2.5	/experiments/knapen_aot/videos/R_S_yt-Wr5pSPApQDw_235.mp4	0.0	461.70191383361816	0.39989304542541504
41	118.40139389038086	response	0	4		39.0	2.5	/experiments/knapen_aot/videos/R_S_yt-Wr5pSPApQDw_235.mp4	0.0	462.0936918258667	
41	118.40950894355774	movie	1		301.0	39.0	2.5	/experiments/knapen_aot/videos/R_S_yt-Wr5pSPApQDw_235.mp4	0.0	462.1018068790436	2.5084879398345947
41	120.91799688339233	fix_post	2		12.0	39.0	2.5	/experiments/knapen_aot/videos/R_S_yt-Wr5pSPApQDw_235.mp4	0.0	464.6102948188782	0.0999910831451416
42	121.01798796653748	fix_pre	0		22.0	40.0	2.5	blank	1.0	464.7102859020233	0.18328404426574707
42	121.19299483299255	response	0	4		40.0	2.5	blank	1.0	464.8852927684784	
42	121.20127201080322	movie	1		301.0	40.0	2.5	blank	1.0	464.89356994628906	2.5083329677581787
42	123.7096049785614	fix_post	2		12.0	40.0	2.5	blank	1.0	467.40190291404724	0.10001087188720703
43	123.80961585044861	fix_pre	0		50.0	41.0	2.5	/experiments/knapen_aot/videos/S_yt-PRqnM7xDsus_24.mp4	0.0	467.50191378593445	0.4166131019592285
43	124.21061587333679	response	0	4		41.0	2.5	/experiments/knapen_aot/videos/S_yt-PRqnM7xDsus_24.mp4	0.0	467.90291380882263	
43	124.22622895240784	movie	1		301.0	41.0	2.5	/experiments/knapen_aot/videos/S_yt-PRqnM7xDsus_24.mp4	0.0	467.9185268878937	2.508362054824829
43	126.73459100723267	fix_post	2		12.0	41.0	2.5	/experiments/knapen_aot/videos/S_yt-PRqnM7xDsus_24.mp4	0.0	470.4268889427185	0.1000218391418457
44	126.83461284637451	fix_pre	0		59.0	42.0	2.5	/experiments/knapen_aot/videos/S_yt-bOgChEHiroI_20.mp4	0.0	470.52691078186035	0.49155211448669434
44	127.31805491447449	response	0	4		42.0	2.5	/experiments/knapen_aot/videos/S_yt-bOgChEHiroI_20.mp4	0.0	471.0103528499603	
44	127.3261649608612	movie	1		301.0	42.0	2.5	/experiments/knapen_aot/videos/S_yt-bOgChEHiroI_20.mp4	0.0	471.01846289634705	2.508391857147217
44	129.83455681800842	fix_post	2		12.0	42.0	2.5	/experiments/knapen_aot/videos/S_yt-bOgChEHiroI_20.mp4	0.0	473.52685475349426	0.100006103515625
45	129.93456292152405	fix_pre	0		41.0	43.0	2.5	/experiments/knapen_aot/videos/R_S_ILSVRC2015_train_00363000.mp4	0.0	473.6268608570099	0.3415989875793457
45	130.26802802085876	response	0	4		43.0	2.5	/experiments/knapen_aot/videos/R_S_ILSVRC2015_train_00363000.mp4	0.0	473.9603259563446	
45	130.2761619091034	movie	1		301.0	43.0	2.5	/experiments/knapen_aot/videos/R_S_ILSVRC2015_train_00363000.mp4	0.0	473.96845984458923	2.50838303565979
45	132.20133590698242	response	1	4		43.0	2.5	/experiments/knapen_aot/videos/R_S_ILSVRC2015_train_00363000.mp4	0.0	475.89363384246826	
45	132.78454494476318	fix_post	2		12.0	43.0	2.5	/experiments/knapen_aot/videos/R_S_ILSVRC2015_train_00363000.mp4	0.0	476.476842880249	0.1000220775604248
46	132.8845670223236	fix_pre	0		46.0	44.0	2.5	/experiments/knapen_aot/videos/R_S_yt-1V0KJEc4cJ4_203.mp4	0.0	476.57686495780945	0.38461780548095703
46	133.2596378326416	response	0	4		44.0	2.5	/experiments/knapen_aot/videos/R_S_yt-1V0KJEc4cJ4_203.mp4	0.0	476.95193576812744	
46	133.26918482780457	movie	1		301.0	44.0	2.5	/experiments/knapen_aot/videos/R_S_yt-1V0KJEc4cJ4_203.mp4	0.0	476.9614827632904	2.507016181945801
46	135.77620100975037	fix_post	2		12.0	44.0	2.5	/experiments/knapen_aot/videos/R_S_yt-1V0KJEc4cJ4_203.mp4	0.0	479.4684989452362	0.10001182556152344
47	135.8762128353119	fix_pre	0		41.0	45.0	2.5	/experiments/knapen_aot/videos/R_S_yt-xNITUMXoU0g_9.mp4	0.0	479.56851077079773	0.3415980339050293
47	136.20955801010132	response	0	4		45.0	2.5	/experiments/knapen_aot/videos/R_S_yt-xNITUMXoU0g_9.mp4	0.0	479.90185594558716	
47	136.21781086921692	movie	1		301.0	45.0	2.5	/experiments/knapen_aot/videos/R_S_yt-xNITUMXoU0g_9.mp4	0.0	479.91010880470276	2.508307933807373
47	138.7261188030243	fix_post	2		12.0	45.0	2.5	/experiments/knapen_aot/videos/R_S_yt-xNITUMXoU0g_9.mp4	0.0	482.41841673851013	0.10010218620300293
48	138.8262209892273	fix_pre	0		47.0	46.0	2.5	/experiments/knapen_aot/videos/S_comp_L010_C006_PS_v01_SDR_PS_20180925_SDR_2K_AVC.mp4	0.0	482.51851892471313	0.39165592193603516
48	139.20962285995483	response	0	4		46.0	2.5	/experiments/knapen_aot/videos/S_comp_L010_C006_PS_v01_SDR_PS_20180925_SDR_2K_AVC.mp4	0.0	482.9019207954407	
48	139.21787691116333	movie	1		165.0	46.0	2.5	/experiments/knapen_aot/videos/S_comp_L010_C006_PS_v01_SDR_PS_20180925_SDR_2K_AVC.mp4	0.0	482.91017484664917	2.508331060409546
48	141.72620797157288	fix_post	2		12.0	46.0	2.5	/experiments/knapen_aot/videos/S_comp_L010_C006_PS_v01_SDR_PS_20180925_SDR_2K_AVC.mp4	0.0	485.4185059070587	0.09996891021728516
49	141.82617688179016	fix_pre	0		54.0	47.0	2.5	blank	1.0	485.518474817276	0.4500610828399658
49	142.26792883872986	response	0	4		47.0	2.5	blank	1.0	485.9602267742157	
49	142.27623796463013	movie	1		301.0	47.0	2.5	blank	1.0	485.96853590011597	2.5082809925079346
49	144.78451895713806	fix_post	2		12.0	47.0	2.5	blank	1.0	488.4768168926239	0.09990596771240234
50	144.88442492485046	fix_pre	0		30.0	48.0	2.5	/experiments/knapen_aot/videos/R_S_yt-zpoIiHGRm5k_296.mp4	0.0	488.5767228603363	0.2500340938568115
50	145.12625288963318	response	0	4		48.0	2.5	/experiments/knapen_aot/videos/R_S_yt-zpoIiHGRm5k_296.mp4	0.0	488.818550825119	
50	145.13445901870728	movie	1		301.0	48.0	2.5	/experiments/knapen_aot/videos/R_S_yt-zpoIiHGRm5k_296.mp4	0.0	488.8267569541931	2.508373975753784
50	147.64283299446106	fix_post	2		12.0	48.0	2.5	/experiments/knapen_aot/videos/R_S_yt-zpoIiHGRm5k_296.mp4	0.0	491.3351309299469	0.10001182556152344
51	147.74284482002258	fix_pre	0		39.0	49.0	2.5	/experiments/knapen_aot/videos/R_S_ILSVRC2015_train_00563000.mp4	0.0	491.4351427555084	0.3249690532684326
51	148.0595829486847	response	0	4		49.0	2.5	/experiments/knapen_aot/videos/R_S_ILSVRC2015_train_00563000.mp4	0.0	491.75188088417053	
51	148.06781387329102	movie	1		301.0	49.0	2.5	/experiments/knapen_aot/videos/R_S_ILSVRC2015_train_00563000.mp4	0.0	491.76011180877686	2.5083720684051514
51	150.57618594169617	fix_post	2		12.0	49.0	2.5	/experiments/knapen_aot/videos/R_S_ILSVRC2015_train_00563000.mp4	0.0	494.268483877182	0.10000395774841309
52	150.67618989944458	fix_pre	0		39.0	50.0	2.5	/experiments/knapen_aot/videos/S_ILSVRC2015_train_00446000.mp4	0.0	494.3684878349304	0.32492995262145996
52	150.99298191070557	response	0	4		50.0	2.5	/experiments/knapen_aot/videos/S_ILSVRC2015_train_00446000.mp4	0.0	494.6852798461914	
52	151.00111985206604	movie	1		301.0	50.0	2.5	/experiments/knapen_aot/videos/S_ILSVRC2015_train_00446000.mp4	0.0	494.6934177875519	2.508341073989868
52	153.5094609260559	fix_post	2		12.0	50.0	2.5	/experiments/knapen_aot/videos/S_ILSVRC2015_train_00446000.mp4	0.0	497.20175886154175	0.10001087188720703
53	153.60947179794312	fix_pre	0		59.0	51.0	2.5	/experiments/knapen_aot/videos/R_S_yt-jQrMcUCmAaM_44.mp4	0.0	497.30176973342896	0.4928622245788574
53	154.09295082092285	response	0	4		51.0	2.5	/experiments/knapen_aot/videos/R_S_yt-jQrMcUCmAaM_44.mp4	0.0	497.7852487564087	
53	154.10233402252197	movie	1		301.0	51.0	2.5	/experiments/knapen_aot/videos/R_S_yt-jQrMcUCmAaM_44.mp4	0.0	497.7946319580078	2.5070769786834717
53	156.60941100120544	fix_post	2		12.0	51.0	2.5	/experiments/knapen_aot/videos/R_S_yt-jQrMcUCmAaM_44.mp4	0.0	500.3017089366913	0.10005998611450195
54	156.70947098731995	fix_pre	0		158.0	52.0	2.5	/experiments/knapen_aot/videos/S_yt-rafmq6Ydoc8_15.mp4	0.0	500.4017689228058	1.316619873046875
54	158.01801991462708	response	0	4		52.0	2.5	/experiments/knapen_aot/videos/S_yt-rafmq6Ydoc8_15.mp4	0.0	501.7103178501129	
54	158.02609086036682	movie	1		301.0	52.0	2.5	/experiments/knapen_aot/videos/S_yt-rafmq6Ydoc8_15.mp4	0.0	501.71838879585266	2.5083470344543457
54	160.53443789482117	fix_post	2		12.0	52.0	2.5	/experiments/knapen_aot/videos/S_yt-rafmq6Ydoc8_15.mp4	0.0	504.226735830307	0.10000896453857422
55	160.63444685935974	fix_pre	0		55.0	53.0	2.5	/experiments/knapen_aot/videos/S_yt-Jro_TRE8NUQ_234.mp4	0.0	504.3267447948456	0.4582841396331787
55	161.08456897735596	response	0	4		53.0	2.5	/experiments/knapen_aot/videos/S_yt-Jro_TRE8NUQ_234.mp4	0.0	504.7768669128418	
55	161.09273099899292	movie	1		301.0	53.0	2.5	/experiments/knapen_aot/videos/S_yt-Jro_TRE8NUQ_234.mp4	0.0	504.78502893447876	2.508378028869629
55	163.60110902786255	fix_post	2		12.0	53.0	2.5	/experiments/knapen_aot/videos/S_yt-Jro_TRE8NUQ_234.mp4	0.0	507.2934069633484	0.09991192817687988
56	163.70102095603943	fix_pre	0		51.0	54.0	2.5	/experiments/knapen_aot/videos/S_flickr-seattlemcneals-996953_3.mp4	0.0	507.39331889152527	0.4250319004058838
56	164.11789298057556	response	0	4		54.0	2.5	/experiments/knapen_aot/videos/S_flickr-seattlemcneals-996953_3.mp4	0.0	507.8101909160614	
56	164.1260528564453	movie	1		300.0	54.0	2.5	/experiments/knapen_aot/videos/S_flickr-seattlemcneals-996953_3.mp4	0.0	507.81835079193115	2.508357048034668
56	165.1261339187622	response	1	4		54.0	2.5	/experiments/knapen_aot/videos/S_flickr-seattlemcneals-996953_3.mp4	0.0	508.81843185424805	
56	166.63440990447998	fix_post	2		12.0	54.0	2.5	/experiments/knapen_aot/videos/S_flickr-seattlemcneals-996953_3.mp4	0.0	510.3267078399658	0.10003089904785156
57	166.73444080352783	fix_pre	0		556.0	55.0	2.5	/experiments/knapen_aot/videos/R_S_yt-ayx4rU9bJrU_179.mp4	0.0	510.4267387390137	4.63323712348938
57	171.35948991775513	response	0	4		55.0	2.5	/experiments/knapen_aot/videos/R_S_yt-ayx4rU9bJrU_179.mp4	0.0	515.051787853241	
57	171.3676779270172	movie	1		301.0	55.0	2.5	/experiments/knapen_aot/videos/R_S_yt-ayx4rU9bJrU_179.mp4	0.0	515.059975862503	2.508359909057617
57	173.87603783607483	fix_post	2		12.0	55.0	2.5	/experiments/knapen_aot/videos/R_S_yt-ayx4rU9bJrU_179.mp4	0.0	517.5683357715607	0.10001301765441895
58	173.97605085372925	fix_pre	0		39.0	56.0	2.5	blank	1.0	517.6683487892151	0.3249640464782715
58	174.29285597801208	response	0	4		56.0	2.5	blank	1.0	517.9851539134979	
58	174.30101490020752	movie	1		301.0	56.0	2.5	blank	1.0	517.9933128356934	2.50846004486084
58	176.69280982017517	response	1	4		56.0	2.5	blank	1.0	520.385107755661	
58	176.80947494506836	fix_post	2		12.0	56.0	2.5	blank	1.0	520.5017728805542	0.09994292259216309
59	176.90941786766052	fix_pre	0		39.0	57.0	2.5	/experiments/knapen_aot/videos/R_S_g201_AK_A003_C014_SDR_20191113_SDR_2K_AVC.mp4	0.0	520.6017158031464	0.3249030113220215
59	177.2185559272766	response	0	4		57.0	2.5	/experiments/knapen_aot/videos/R_S_g201_AK_A003_C014_SDR_20191113_SDR_2K_AVC.mp4	0.0	520.9108538627625	
59	177.23432087898254	movie	1		165.0	57.0	2.5	/experiments/knapen_aot/videos/R_S_g201_AK_A003_C014_SDR_20191113_SDR_2K_AVC.mp4	0.0	520.9266188144684	2.5085489749908447
59	179.7428698539734	fix_post	2		12.0	57.0	2.5	/experiments/knapen_aot/videos/R_S_g201_AK_A003_C014_SDR_20191113_SDR_2K_AVC.mp4	0.0	523.4351677894592	0.09981703758239746
59	179.83435893058777	response	2	4		57.0	2.5	/experiments/knapen_aot/videos/R_S_g201_AK_A003_C014_SDR_20191113_SDR_2K_AVC.mp4	0.0	523.5266568660736	
60	179.8426868915558	fix_pre	0		71.0	58.0	2.5	/experiments/knapen_aot/videos/R_S_yt-J2PiBa1MXI0_210.mp4	0.0	523.5349848270416	0.5928149223327637
60	180.42609095573425	response	0	4		58.0	2.5	/experiments/knapen_aot/videos/R_S_yt-J2PiBa1MXI0_210.mp4	0.0	524.1183888912201	
60	180.43550181388855	movie	1		301.0	58.0	2.5	/experiments/knapen_aot/videos/R_S_yt-J2PiBa1MXI0_210.mp4	0.0	524.1277997493744	2.5071511268615723
60	182.94265294075012	fix_post	2		12.0	58.0	2.5	/experiments/knapen_aot/videos/R_S_yt-J2PiBa1MXI0_210.mp4	0.0	526.634950876236	0.10002994537353516
61	183.04268288612366	fix_pre	0		12.0	59.0	2.5	/experiments/knapen_aot/videos/R_S_yt-6B69qmkEdTI_1.mp4	0.0	526.7349808216095	0.1011509895324707
61	183.1344518661499	response	0	4		59.0	2.5	/experiments/knapen_aot/videos/R_S_yt-6B69qmkEdTI_1.mp4	0.0	526.8267498016357	
61	183.14383387565613	movie	1		301.0	59.0	2.5	/experiments/knapen_aot/videos/R_S_yt-6B69qmkEdTI_1.mp4	0.0	526.836131811142	2.5071890354156494
61	185.65102291107178	fix_post	2		12.0	59.0	2.5	/experiments/knapen_aot/videos/R_S_yt-6B69qmkEdTI_1.mp4	0.0	529.3433208465576	0.10003209114074707
62	185.75105500221252	fix_pre	0		11.0	60.0	2.5	/experiments/knapen_aot/videos/R_S_yt-Rsfo57AlpLA_332.mp4	0.0	529.4433529376984	0.09158086776733398
62	185.83443999290466	response	0	4		60.0	2.5	/experiments/knapen_aot/videos/R_S_yt-Rsfo57AlpLA_332.mp4	0.0	529.5267379283905	
62	185.84263586997986	movie	1		301.0	60.0	2.5	/experiments/knapen_aot/videos/R_S_yt-Rsfo57AlpLA_332.mp4	0.0	529.5349338054657	2.5083160400390625
62	188.35095191001892	fix_post	2		12.0	60.0	2.5	/experiments/knapen_aot/videos/R_S_yt-Rsfo57AlpLA_332.mp4	0.0	532.0432498455048	0.10004091262817383
63	188.4509928226471	fix_pre	0		46.0	61.0	2.5	/experiments/knapen_aot/videos/R_S_yt-k-MRlbCOzZU_163.mp4	0.0	532.1432907581329	0.3833441734313965
63	188.82609295845032	response	0	4		61.0	2.5	/experiments/knapen_aot/videos/R_S_yt-k-MRlbCOzZU_163.mp4	0.0	532.5183908939362	
63	188.8343369960785	movie	1		301.0	61.0	2.5	/experiments/knapen_aot/videos/R_S_yt-k-MRlbCOzZU_163.mp4	0.0	532.5266349315643	2.5083160400390625
63	191.34265303611755	fix_post	2		12.0	61.0	2.5	/experiments/knapen_aot/videos/R_S_yt-k-MRlbCOzZU_163.mp4	0.0	535.0349509716034	0.0999908447265625
64	191.44264388084412	fix_pre	0		48.0	62.0	2.5	blank	1.0	535.13494181633	0.4000129699707031
64	191.8344509601593	response	0	4		62.0	2.5	blank	1.0	535.5267488956451	
64	191.84265685081482	movie	1		301.0	62.0	2.5	blank	1.0	535.5349547863007	2.5083391666412354
64	194.00106191635132	response	1	4		62.0	2.5	blank	1.0	537.6933598518372	
64	194.35099601745605	fix_post	2		12.0	62.0	2.5	blank	1.0	538.0432939529419	0.09995079040527344
65	194.45094680786133	fix_pre	0		24.0	63.0	2.5	/experiments/knapen_aot/videos/R_S_ioSkDvwpEaU_35.mp4	0.0	538.1432447433472	0.199937105178833
65	194.6427059173584	response	0	4		63.0	2.5	/experiments/knapen_aot/videos/R_S_ioSkDvwpEaU_35.mp4	0.0	538.3350038528442	
65	194.65088391304016	movie	1		301.0	63.0	2.5	/experiments/knapen_aot/videos/R_S_ioSkDvwpEaU_35.mp4	0.0	538.343181848526	2.5084590911865234
65	197.15934300422668	fix_post	2		12.0	63.0	2.5	/experiments/knapen_aot/videos/R_S_ioSkDvwpEaU_35.mp4	0.0	540.8516409397125	0.09996891021728516
66	197.25931191444397	fix_pre	0		7.0	64.0	2.5	/experiments/knapen_aot/videos/S_ILSVRC2015_train_00444000.mp4	0.0	540.9516098499298	0.05827593803405762
66	197.30928993225098	response	0	4		64.0	2.5	/experiments/knapen_aot/videos/S_ILSVRC2015_train_00444000.mp4	0.0	541.0015878677368	
66	197.31758785247803	movie	1		301.0	64.0	2.5	/experiments/knapen_aot/videos/S_ILSVRC2015_train_00444000.mp4	0.0	541.0098857879639	2.5083279609680176
66	199.82591581344604	fix_post	2		12.0	64.0	2.5	/experiments/knapen_aot/videos/S_ILSVRC2015_train_00444000.mp4	0.0	543.5182137489319	0.10004711151123047
67	199.92596292495728	fix_pre	0		1.0	65.0	2.5	/experiments/knapen_aot/videos/S_yt-IlW1U39Dga4_5.mp4	0.0	543.6182608604431	0.009259939193725586
67	199.9276888370514	response	0	4		65.0	2.5	/experiments/knapen_aot/videos/S_yt-IlW1U39Dga4_5.mp4	0.0	543.6199867725372	
67	199.935222864151	movie	1		301.0	65.0	2.5	/experiments/knapen_aot/videos/S_yt-IlW1U39Dga4_5.mp4	0.0	543.6275207996368	2.507378101348877
67	202.44260096549988	fix_post	2		12.0	65.0	2.5	/experiments/knapen_aot/videos/S_yt-IlW1U39Dga4_5.mp4	0.0	546.1348989009857	0.09999203681945801
68	202.54259300231934	fix_pre	0		5.0	66.0	2.5	/experiments/knapen_aot/videos/S_yt-MSdNCUWOp4o_4.mp4	0.0	546.2348909378052	0.04165291786193848
68	202.57608580589294	response	0	4		66.0	2.5	/experiments/knapen_aot/videos/S_yt-MSdNCUWOp4o_4.mp4	0.0	546.2683837413788	
68	202.58424592018127	movie	1		301.0	66.0	2.5	/experiments/knapen_aot/videos/S_yt-MSdNCUWOp4o_4.mp4	0.0	546.2765438556671	2.5083439350128174
68	205.0925898551941	fix_post	2		12.0	66.0	2.5	/experiments/knapen_aot/videos/S_yt-MSdNCUWOp4o_4.mp4	0.0	548.7848877906799	0.0999910831451416
69	205.19258093833923	fix_pre	0		11.0	67.0	2.5	/experiments/knapen_aot/videos/R_S_g201_WH_D004_L014_SDR_20191031_SDR_2K_AVC.mp4	0.0	548.8848788738251	0.09166789054870605
69	205.26852583885193	response	0	4		67.0	2.5	/experiments/knapen_aot/videos/R_S_g201_WH_D004_L014_SDR_20191031_SDR_2K_AVC.mp4	0.0	548.9608237743378	
69	205.28424882888794	movie	1		166.0	67.0	2.5	/experiments/knapen_aot/videos/R_S_g201_WH_D004_L014_SDR_20191031_SDR_2K_AVC.mp4	0.0	548.9765467643738	2.5083231925964355
69	207.79257202148438	fix_post	2		12.0	67.0	2.5	/experiments/knapen_aot/videos/R_S_g201_WH_D004_L014_SDR_20191031_SDR_2K_AVC.mp4	0.0	551.4848699569702	0.10000181198120117
70	207.89257383346558	fix_pre	0		1.0	68.0	2.5	blank	1.0	551.5848717689514	0.008321046829223633
70	207.89418697357178	response	0	4		68.0	2.5	blank	1.0	551.5864849090576	
70	207.9008948802948	movie	1		301.0	68.0	2.5	blank	1.0	551.5931928157806	2.5084331035614014
70	210.4093279838562	fix_post	2		12.0	68.0	2.5	blank	1.0	554.101625919342	0.09990191459655762
70	210.45179295539856	response	2	4		68.0	2.5	blank	1.0	554.1440908908844	
71	210.50922989845276	fix_pre	0		11.0	69.0	2.5	/experiments/knapen_aot/videos/S_yt-lEPoNlKWibA_1.mp4	0.0	554.2015278339386	0.09254598617553711
71	210.59259796142578	response	0	4		69.0	2.5	/experiments/knapen_aot/videos/S_yt-lEPoNlKWibA_1.mp4	0.0	554.2848958969116	
71	210.6017758846283	movie	1		301.0	69.0	2.5	/experiments/knapen_aot/videos/S_yt-lEPoNlKWibA_1.mp4	0.0	554.2940738201141	2.5074660778045654
71	213.10924196243286	fix_post	2		12.0	69.0	2.5	/experiments/knapen_aot/videos/S_yt-lEPoNlKWibA_1.mp4	0.0	556.8015398979187	0.10005307197570801
72	213.20929503440857	fix_pre	0		16.0	70.0	2.5	/experiments/knapen_aot/videos/R_S_yt-PRqnM7xDsus_24.mp4	0.0	556.9015929698944	0.13319087028503418
72	213.3343288898468	response	0	4		70.0	2.5	/experiments/knapen_aot/videos/R_S_yt-PRqnM7xDsus_24.mp4	0.0	557.0266268253326	
72	213.3424859046936	movie	1		301.0	70.0	2.5	/experiments/knapen_aot/videos/R_S_yt-PRqnM7xDsus_24.mp4	0.0	557.0347838401794	2.508347988128662
72	215.85083389282227	fix_post	2		11.0	70.0	2.5	/experiments/knapen_aot/videos/R_S_yt-PRqnM7xDsus_24.mp4	0.0	559.5431318283081	0.09162306785583496
72	215.93433594703674	response	2	4		70.0	2.5	/experiments/knapen_aot/videos/R_S_yt-PRqnM7xDsus_24.mp4	0.0	559.6266338825226	
73	215.9424569606781	fix_pre	0		106.0	71.0	2.5	/experiments/knapen_aot/videos/R_S_yt-gC3my54_ChQ_58.mp4	0.0	559.6347548961639	0.8833558559417725
73	216.81768798828125	response	0	4		71.0	2.5	/experiments/knapen_aot/videos/R_S_yt-gC3my54_ChQ_58.mp4	0.0	560.5099859237671	
73	216.82581281661987	movie	1		301.0	71.0	2.5	/experiments/knapen_aot/videos/R_S_yt-gC3my54_ChQ_58.mp4	0.0	560.5181107521057	2.508430004119873
73	219.33424282073975	fix_post	2		12.0	71.0	2.5	/experiments/knapen_aot/videos/R_S_yt-gC3my54_ChQ_58.mp4	0.0	563.0265407562256	0.10024118423461914
74	219.43448400497437	fix_pre	0		32.0	72.0	2.5	/experiments/knapen_aot/videos/S_yt-316ecr1BT84_44.mp4	0.0	563.1267819404602	0.266387939453125
74	219.69267988204956	response	0	4		72.0	2.5	/experiments/knapen_aot/videos/S_yt-316ecr1BT84_44.mp4	0.0	563.3849778175354	
74	219.7008719444275	movie	1		301.0	72.0	2.5	/experiments/knapen_aot/videos/S_yt-316ecr1BT84_44.mp4	0.0	563.3931698799133	2.508362054824829
74	222.20923399925232	fix_post	2		12.0	72.0	2.5	/experiments/knapen_aot/videos/S_yt-316ecr1BT84_44.mp4	0.0	565.9015319347382	0.10001397132873535
75	222.30924797058105	fix_pre	0		5.0	73.0	2.5	/experiments/knapen_aot/videos/S_pexels-mart-production-8435081.mp4	0.0	566.0015459060669	0.04246091842651367
75	222.34270691871643	response	0	4		73.0	2.5	/experiments/knapen_aot/videos/S_pexels-mart-production-8435081.mp4	0.0	566.0350048542023	
75	222.35170888900757	movie	1		208.0	73.0	2.5	/experiments/knapen_aot/videos/S_pexels-mart-production-8435081.mp4	0.0	566.0440068244934	2.5075020790100098
75	224.85921096801758	fix_post	2		12.0	73.0	2.5	/experiments/knapen_aot/videos/S_pexels-mart-production-8435081.mp4	0.0	568.5515089035034	0.0999760627746582
76	224.95918703079224	fix_pre	0		4.0	74.0	2.5	/experiments/knapen_aot/videos/S_comp_H004_C007_PS_v02_SDR_PS_20180925_SDR_2K_AVC.mp4	0.0	568.6514849662781	0.0333559513092041
76	224.9773178100586	response	0	4		74.0	2.5	/experiments/knapen_aot/videos/S_comp_H004_C007_PS_v02_SDR_PS_20180925_SDR_2K_AVC.mp4	0.0	568.6696157455444	
76	224.99254298210144	movie	1		164.0	74.0	2.5	/experiments/knapen_aot/videos/S_comp_H004_C007_PS_v02_SDR_PS_20180925_SDR_2K_AVC.mp4	0.0	568.6848409175873	2.5083260536193848
76	227.50086903572083	fix_post	2		12.0	74.0	2.5	/experiments/knapen_aot/videos/S_comp_H004_C007_PS_v02_SDR_PS_20180925_SDR_2K_AVC.mp4	0.0	571.1931669712067	0.09996294975280762
77	227.60083198547363	fix_pre	0		31.0	75.0	2.5	/experiments/knapen_aot/videos/R_S_yt-SgiTZNjCPCo_19.mp4	0.0	571.2931299209595	0.2583308219909668
77	227.8510229587555	response	0	4		75.0	2.5	/experiments/knapen_aot/videos/R_S_yt-SgiTZNjCPCo_19.mp4	0.0	571.5433208942413	
77	227.8591628074646	movie	1		301.0	75.0	2.5	/experiments/knapen_aot/videos/R_S_yt-SgiTZNjCPCo_19.mp4	0.0	571.5514607429504	2.5083651542663574
77	230.36752796173096	fix_post	2		12.0	75.0	2.5	/experiments/knapen_aot/videos/R_S_yt-SgiTZNjCPCo_19.mp4	0.0	574.0598258972168	0.09999203681945801
77	230.44265294075012	response	2	4		75.0	2.5	/experiments/knapen_aot/videos/R_S_yt-SgiTZNjCPCo_19.mp4	0.0	574.134950876236	
78	230.46751999855042	fix_pre	0		64.0	76.0	2.5	blank	1.0	574.1598179340363	0.533336877822876
78	230.99262189865112	response	0	4		76.0	2.5	blank	1.0	574.684919834137	
78	231.0008568763733	movie	1		301.0	76.0	2.5	blank	1.0	574.6931548118591	2.5083229541778564
78	233.50917983055115	fix_post	2		12.0	76.0	2.5	blank	1.0	577.201477766037	0.09988808631896973
79	233.60906791687012	fix_pre	0		20.0	77.0	2.5	/experiments/knapen_aot/videos/S_yt-tX5U0Lyo6Gs_376.mp4	0.0	577.301365852356	0.16669392585754395
79	233.76755595207214	response	0	4		77.0	2.5	/experiments/knapen_aot/videos/S_yt-tX5U0Lyo6Gs_376.mp4	0.0	577.459853887558	
79	233.77576184272766	movie	1		301.0	77.0	2.5	/experiments/knapen_aot/videos/S_yt-tX5U0Lyo6Gs_376.mp4	0.0	577.4680597782135	2.5083320140838623
79	236.28409385681152	fix_post	2		12.0	77.0	2.5	/experiments/knapen_aot/videos/S_yt-tX5U0Lyo6Gs_376.mp4	0.0	579.9763917922974	0.10009598731994629
80	236.38418984413147	fix_pre	0		26.0	78.0	2.5	/experiments/knapen_aot/videos/S_yt-mJzkLd3Mr_c_35.mp4	0.0	580.0764877796173	0.21729707717895508
80	236.59260296821594	response	0	4		78.0	2.5	/experiments/knapen_aot/videos/S_yt-mJzkLd3Mr_c_35.mp4	0.0	580.2849009037018	
80	236.60148692131042	movie	1		301.0	78.0	2.5	/experiments/knapen_aot/videos/S_yt-mJzkLd3Mr_c_35.mp4	0.0	580.2937848567963	2.5077850818634033
80	239.10927200317383	fix_post	2		12.0	78.0	2.5	/experiments/knapen_aot/videos/S_yt-mJzkLd3Mr_c_35.mp4	0.0	582.8015699386597	0.0999138355255127
81	239.20918583869934	fix_pre	0		25.0	79.0	2.5	/experiments/knapen_aot/videos/R_S_yt-Ryb0K9lGPrg_5.mp4	0.0	582.9014837741852	0.20825600624084473
81	239.40927386283875	response	0	4		79.0	2.5	/experiments/knapen_aot/videos/R_S_yt-Ryb0K9lGPrg_5.mp4	0.0	583.1015717983246	
81	239.41744184494019	movie	1		301.0	79.0	2.5	/experiments/knapen_aot/videos/R_S_yt-Ryb0K9lGPrg_5.mp4	0.0	583.109739780426	2.5084550380706787
81	241.92589688301086	fix_post	2		12.0	79.0	2.5	/experiments/knapen_aot/videos/R_S_yt-Ryb0K9lGPrg_5.mp4	0.0	585.6181948184967	0.10003399848937988
82	242.02593088150024	fix_pre	0		39.0	80.0	2.5	/experiments/knapen_aot/videos/R_S_yt-Rsfo57AlpLA_332.mp4	0.0	585.7182288169861	0.32553696632385254
82	242.34261989593506	response	0	4		80.0	2.5	/experiments/knapen_aot/videos/R_S_yt-Rsfo57AlpLA_332.mp4	0.0	586.0349178314209	
82	242.3514678478241	movie	1		301.0	80.0	2.5	/experiments/knapen_aot/videos/R_S_yt-Rsfo57AlpLA_332.mp4	0.0	586.0437657833099	2.5076169967651367
82	244.85908484458923	fix_post	2		12.0	80.0	2.5	/experiments/knapen_aot/videos/R_S_yt-Rsfo57AlpLA_332.mp4	0.0	588.5513827800751	0.10008716583251953
83	244.95917201042175	fix_pre	0		70.0	81.0	2.5	/experiments/knapen_aot/videos/R_S_yt-lv6mhnH7_g4_134.mp4	0.0	588.6514699459076	0.5832598209381104
83	245.5342879295349	response	0	4		81.0	2.5	/experiments/knapen_aot/videos/R_S_yt-lv6mhnH7_g4_134.mp4	0.0	589.2265858650208	
83	245.54243183135986	movie	1		301.0	81.0	2.5	/experiments/knapen_aot/videos/R_S_yt-lv6mhnH7_g4_134.mp4	0.0	589.2347297668457	2.5084500312805176
83	248.05088186264038	fix_post	2		12.0	81.0	2.5	/experiments/knapen_aot/videos/R_S_yt-lv6mhnH7_g4_134.mp4	0.0	591.7431797981262	0.09991216659545898
84	248.15079402923584	fix_pre	0		25.0	82.0	2.5	/experiments/knapen_aot/videos/R_S_flickr-hapanine-31880782705_22.mp4	0.0	591.8430919647217	0.20829296112060547
84	248.35086393356323	response	0	4		82.0	2.5	/experiments/knapen_aot/videos/R_S_flickr-hapanine-31880782705_22.mp4	0.0	592.0431618690491	
84	248.35908699035645	movie	1		165.0	82.0	2.5	/experiments/knapen_aot/videos/R_S_flickr-hapanine-31880782705_22.mp4	0.0	592.0513849258423	2.508455991744995
84	250.86754298210144	fix_post	2		12.0	82.0	2.5	/experiments/knapen_aot/videos/R_S_flickr-hapanine-31880782705_22.mp4	0.0	594.5598409175873	0.09987902641296387
85	250.9674220085144	fix_pre	0		30.0	83.0	2.5	blank	1.0	594.6597199440002	0.249891996383667
85	251.20917892456055	response	0	4		83.0	2.5	blank	1.0	594.9014768600464	
85	251.21731400489807	movie	1		301.0	83.0	2.5	blank	1.0	594.9096119403839	2.50832200050354
85	253.7256360054016	fix_post	2		12.0	83.0	2.5	blank	1.0	597.4179339408875	0.10009479522705078
87	253.82573080062866	stim	0		104.0					597.5180287361145	0.8666341304779053
87	254.68458199501038	response	0	space						598.3768799304962	
