trial_nr	onset	event_type	phase	response	nr_frames	movie_index	movie_duration	movie_file	blank	onset_abs	duration
0	0.16013097763061523	stim	0		24.0					56.88596487045288	0.19783496856689453
0	0.34986209869384766	response	0	space						57.07569599151611	
1	0.35796594619750977	stim	0		121.0					57.083799839019775	1.0080771446228027
1	1.3660430908203125	stim	1		120.0					58.09187698364258	1.0000200271606445
2	2.366063117980957	fix_pre	0		16.0	0.0	2.5	/experiments/knapen_aot/videos/S_yt-dESxu60Cl10_24.mp4	0.0	59.09189701080322	0.13354802131652832
2	2.491194009780884	response	0	space		0.0	2.5	/experiments/knapen_aot/videos/S_yt-dESxu60Cl10_24.mp4	0.0	59.21702790260315	
2	2.4996111392974854	movie	1		297.0	0.0	2.5	/experiments/knapen_aot/videos/S_yt-dESxu60Cl10_24.mp4	0.0	59.22544503211975	2.5081000328063965
2	5.007711172103882	fix_post	2		12.0	0.0	2.5	/experiments/knapen_aot/videos/S_yt-dESxu60Cl10_24.mp4	0.0	61.73354506492615	0.09993195533752441
3	5.107643127441406	fix_pre	0		23.0	1.0	2.5	/experiments/knapen_aot/videos/R_S_ILSVRC2015_train_00682003.mp4	0.0	61.83347702026367	0.19168996810913086
3	5.293960094451904	response	0	4		1.0	2.5	/experiments/knapen_aot/videos/R_S_ILSVRC2015_train_00682003.mp4	0.0	62.01979398727417	
3	5.299333095550537	movie	1		300.0	1.0	2.5	/experiments/knapen_aot/videos/R_S_ILSVRC2015_train_00682003.mp4	0.0	62.0251669883728	2.508368968963623
3	7.80770206451416	fix_post	2		12.0	1.0	2.5	/experiments/knapen_aot/videos/R_S_ILSVRC2015_train_00682003.mp4	0.0	64.53353595733643	0.09993290901184082
4	7.907634973526001	fix_pre	0		10.0	2.0	2.5	/experiments/knapen_aot/videos/S_yt-v8e_DlCsP4w_10.mp4	0.0	64.63346886634827	0.08338809013366699
4	7.9827799797058105	response	0	4		2.0	2.5	/experiments/knapen_aot/videos/S_yt-v8e_DlCsP4w_10.mp4	0.0	64.70861387252808	
4	7.991023063659668	movie	1		301.0	2.0	2.5	/experiments/knapen_aot/videos/S_yt-v8e_DlCsP4w_10.mp4	0.0	64.71685695648193	2.508491039276123
4	10.499514102935791	fix_post	2		12.0	2.0	2.5	/experiments/knapen_aot/videos/S_yt-v8e_DlCsP4w_10.mp4	0.0	67.22534799575806	0.09980201721191406
5	10.599316120147705	fix_pre	0		32.0	3.0	2.5	/experiments/knapen_aot/videos/S_yt-ebzrQh5ErI4_3.mp4	0.0	67.32515001296997	0.26659083366394043
5	10.857764959335327	response	0	4		3.0	2.5	/experiments/knapen_aot/videos/S_yt-ebzrQh5ErI4_3.mp4	0.0	67.58359885215759	
5	10.865906953811646	movie	1		301.0	3.0	2.5	/experiments/knapen_aot/videos/S_yt-ebzrQh5ErI4_3.mp4	0.0	67.59174084663391	2.508355140686035
5	13.37426209449768	fix_post	2		12.0	3.0	2.5	/experiments/knapen_aot/videos/S_yt-ebzrQh5ErI4_3.mp4	0.0	70.10009598731995	0.10005998611450195
6	13.474322080612183	fix_pre	0		46.0	4.0	2.5	/experiments/knapen_aot/videos/S_yt-a0axt7n0GuQ_19.mp4	0.0	70.20015597343445	0.3832850456237793
6	13.849431991577148	response	0	4		4.0	2.5	/experiments/knapen_aot/videos/S_yt-a0axt7n0GuQ_19.mp4	0.0	70.57526588439941	
6	13.857607126235962	movie	1		301.0	4.0	2.5	/experiments/knapen_aot/videos/S_yt-a0axt7n0GuQ_19.mp4	0.0	70.58344101905823	2.508288860321045
6	16.365895986557007	fix_post	2		12.0	4.0	2.5	/experiments/knapen_aot/videos/S_yt-a0axt7n0GuQ_19.mp4	0.0	73.09172987937927	0.0999751091003418
7	16.46587109565735	fix_pre	0		56.0	5.0	2.5	/experiments/knapen_aot/videos/S_yt-6B69qmkEdTI_1.mp4	0.0	73.19170498847961	0.4667069911956787
7	16.924365043640137	response	0	4		5.0	2.5	/experiments/knapen_aot/videos/S_yt-6B69qmkEdTI_1.mp4	0.0	73.6501989364624	
7	16.932578086853027	movie	1		301.0	5.0	2.5	/experiments/knapen_aot/videos/S_yt-6B69qmkEdTI_1.mp4	0.0	73.6584119796753	2.5083160400390625
7	19.44089412689209	fix_post	2		12.0	5.0	2.5	/experiments/knapen_aot/videos/S_yt-6B69qmkEdTI_1.mp4	0.0	76.16672801971436	0.10019397735595703
8	19.541088104248047	fix_pre	0		26.0	6.0	2.5	blank	1.0	76.26692199707031	0.21645903587341309
8	19.749369144439697	response	0	4		6.0	2.5	blank	1.0	76.47520303726196	
8	19.75754714012146	movie	1		301.0	6.0	2.5	blank	1.0	76.48338103294373	2.508384943008423
8	22.265932083129883	fix_post	2		12.0	6.0	2.5	blank	1.0	78.99176597595215	0.09987807273864746
9	22.36581015586853	fix_pre	0		113.0	7.0	2.5	/experiments/knapen_aot/videos/R_S_pexels-vlada-karpovich-8044792.mp4	0.0	79.0916440486908	0.9417498111724854
9	23.29932999610901	response	0	4		7.0	2.5	/experiments/knapen_aot/videos/R_S_pexels-vlada-karpovich-8044792.mp4	0.0	80.02516388893127	
9	23.307559967041016	movie	1		169.0	7.0	2.5	/experiments/knapen_aot/videos/R_S_pexels-vlada-karpovich-8044792.mp4	0.0	80.03339385986328	2.508350133895874
9	25.81591010093689	fix_post	2		12.0	7.0	2.5	/experiments/knapen_aot/videos/R_S_pexels-vlada-karpovich-8044792.mp4	0.0	82.54174399375916	0.10011601448059082
10	25.91602611541748	fix_pre	0		11.0	8.0	2.5	/experiments/knapen_aot/videos/S_yt-ebzrQh5ErI4_3.mp4	0.0	82.64186000823975	0.09152388572692871
10	25.999385118484497	response	0	4		8.0	2.5	/experiments/knapen_aot/videos/S_yt-ebzrQh5ErI4_3.mp4	0.0	82.72521901130676	
10	26.00755000114441	movie	1		301.0	8.0	2.5	/experiments/knapen_aot/videos/S_yt-ebzrQh5ErI4_3.mp4	0.0	82.73338389396667	2.508327007293701
10	28.51587700843811	fix_post	2		12.0	8.0	2.5	/experiments/knapen_aot/videos/S_yt-ebzrQh5ErI4_3.mp4	0.0	85.24171090126038	0.09991216659545898
11	28.61578917503357	fix_pre	0		16.0	9.0	2.5	/experiments/knapen_aot/videos/S_comp_GMT110_112NC_364D_1054_AURORA_ANTARTICA__COMP_FINAL_v34_PS_SDR_20181107_SDR_2K_AVC.mp4	0.0	85.34162306785583	0.1335158348083496
11	28.740966081619263	response	0	4		9.0	2.5	/experiments/knapen_aot/videos/S_comp_GMT110_112NC_364D_1054_AURORA_ANTARTICA__COMP_FINAL_v34_PS_SDR_20181107_SDR_2K_AVC.mp4	0.0	85.46679997444153	
11	28.74930500984192	movie	1		170.0	9.0	2.5	/experiments/knapen_aot/videos/S_comp_GMT110_112NC_364D_1054_AURORA_ANTARTICA__COMP_FINAL_v34_PS_SDR_20181107_SDR_2K_AVC.mp4	0.0	85.47513890266418	2.5083000659942627
11	31.25760507583618	fix_post	2		12.0	9.0	2.5	/experiments/knapen_aot/videos/S_comp_GMT110_112NC_364D_1054_AURORA_ANTARTICA__COMP_FINAL_v34_PS_SDR_20181107_SDR_2K_AVC.mp4	0.0	87.98343896865845	0.09993791580200195
12	31.357542991638184	fix_pre	0		17.0	10.0	2.5	/experiments/knapen_aot/videos/R_S_yt-Ev39pXXfr1Y_152.mp4	0.0	88.08337688446045	0.14173507690429688
12	31.491008043289185	response	0	4		10.0	2.5	/experiments/knapen_aot/videos/R_S_yt-Ev39pXXfr1Y_152.mp4	0.0	88.21684193611145	
12	31.49927806854248	movie	1		301.0	10.0	2.5	/experiments/knapen_aot/videos/R_S_yt-Ev39pXXfr1Y_152.mp4	0.0	88.22511196136475	2.508272886276245
12	34.007550954818726	fix_post	2		12.0	10.0	2.5	/experiments/knapen_aot/videos/R_S_yt-Ev39pXXfr1Y_152.mp4	0.0	90.73338484764099	0.10009312629699707
13	34.10764408111572	fix_pre	0		61.0	11.0	2.5	/experiments/knapen_aot/videos/S_wc-AJxbR6daLxMM_5.mp4	0.0	90.83347797393799	0.5081930160522461
13	34.60763907432556	response	0	4		11.0	2.5	/experiments/knapen_aot/videos/S_wc-AJxbR6daLxMM_5.mp4	0.0	91.33347296714783	
13	34.61583709716797	movie	1		170.0	11.0	2.5	/experiments/knapen_aot/videos/S_wc-AJxbR6daLxMM_5.mp4	0.0	91.34167098999023	2.5084228515625
13	37.12425994873047	fix_post	2		12.0	11.0	2.5	/experiments/knapen_aot/videos/S_wc-AJxbR6daLxMM_5.mp4	0.0	93.85009384155273	0.0998690128326416
14	37.22412896156311	fix_pre	0		28.0	12.0	2.5	blank	1.0	93.94996285438538	0.23349404335021973
14	37.44927215576172	response	0	4		12.0	2.5	blank	1.0	94.17510604858398	
14	37.45762300491333	movie	1		301.0	12.0	2.5	blank	1.0	94.1834568977356	2.508249044418335
14	39.965872049331665	fix_post	2		12.0	12.0	2.5	blank	1.0	96.69170594215393	0.10002994537353516
15	40.0659019947052	fix_pre	0		147.0	13.0	2.5	/experiments/knapen_aot/videos/S_yt-qjg6kRxNXK8_217.mp4	0.0	96.79173588752747	1.224966049194336
15	41.28264617919922	response	0	4		13.0	2.5	/experiments/knapen_aot/videos/S_yt-qjg6kRxNXK8_217.mp4	0.0	98.00848007202148	
15	41.290868043899536	movie	1		299.0	13.0	2.5	/experiments/knapen_aot/videos/S_yt-qjg6kRxNXK8_217.mp4	0.0	98.0167019367218	2.508357048034668
15	43.799225091934204	fix_post	2		12.0	13.0	2.5	/experiments/knapen_aot/videos/S_yt-qjg6kRxNXK8_217.mp4	0.0	100.52505898475647	0.09992504119873047
16	43.899150133132935	fix_pre	0		26.0	14.0	2.5	/experiments/knapen_aot/videos/R_S_yt-H5LQq4MPIao_660.mp4	0.0	100.6249840259552	0.21667695045471191
16	44.10767698287964	response	0	4		14.0	2.5	/experiments/knapen_aot/videos/R_S_yt-H5LQq4MPIao_660.mp4	0.0	100.8335108757019	
16	44.11582708358765	movie	1		301.0	14.0	2.5	/experiments/knapen_aot/videos/R_S_yt-H5LQq4MPIao_660.mp4	0.0	100.84166097640991	2.5084118843078613
16	46.62423896789551	fix_post	2		12.0	14.0	2.5	/experiments/knapen_aot/videos/R_S_yt-H5LQq4MPIao_660.mp4	0.0	103.35007286071777	0.09994912147521973
17	46.72418808937073	fix_pre	0		34.0	15.0	2.5	/experiments/knapen_aot/videos/R_S_ILSVRC2015_train_00044004.mp4	0.0	103.450021982193	0.2833249568939209
17	46.9993040561676	response	0	4		15.0	2.5	/experiments/knapen_aot/videos/R_S_ILSVRC2015_train_00044004.mp4	0.0	103.72513794898987	
17	47.00751304626465	movie	1		301.0	15.0	2.5	/experiments/knapen_aot/videos/R_S_ILSVRC2015_train_00044004.mp4	0.0	103.73334693908691	2.508327007293701
17	49.51584005355835	fix_post	2		12.0	15.0	2.5	/experiments/knapen_aot/videos/R_S_ILSVRC2015_train_00044004.mp4	0.0	106.24167394638062	0.09993791580200195
18	49.61577796936035	fix_pre	0		9.0	16.0	2.5	/experiments/knapen_aot/videos/R_S_yt-5rC42egLl5E_387.mp4	0.0	106.34161186218262	0.07503318786621094
18	49.68268394470215	response	0	4		16.0	2.5	/experiments/knapen_aot/videos/R_S_yt-5rC42egLl5E_387.mp4	0.0	106.40851783752441	
18	49.69081115722656	movie	1		301.0	16.0	2.5	/experiments/knapen_aot/videos/R_S_yt-5rC42egLl5E_387.mp4	0.0	106.41664505004883	2.508330821990967
18	52.19914197921753	fix_post	2		12.0	16.0	2.5	/experiments/knapen_aot/videos/R_S_yt-5rC42egLl5E_387.mp4	0.0	108.9249758720398	0.10003018379211426
19	52.299172163009644	fix_pre	0		10.0	17.0	2.5	/experiments/knapen_aot/videos/R_S_production_ID_4997166.mp4	0.0	109.02500605583191	0.08335590362548828
19	52.367635011672974	response	0	4		17.0	2.5	/experiments/knapen_aot/videos/R_S_production_ID_4997166.mp4	0.0	109.09346890449524	
19	52.38252806663513	movie	1		167.0	17.0	2.5	/experiments/knapen_aot/videos/R_S_production_ID_4997166.mp4	0.0	109.1083619594574	2.508359909057617
19	54.89088797569275	fix_post	2		12.0	17.0	2.5	/experiments/knapen_aot/videos/R_S_production_ID_4997166.mp4	0.0	111.61672186851501	0.09995603561401367
20	54.99084401130676	fix_pre	0		151.0	18.0	2.5	/experiments/knapen_aot/videos/R_S_yt-J8E_BpSJMpk_5.mp4	0.0	111.71667790412903	1.2582941055297852
20	56.24098610877991	response	0	4		18.0	2.5	/experiments/knapen_aot/videos/R_S_yt-J8E_BpSJMpk_5.mp4	0.0	112.96682000160217	
20	56.24913811683655	movie	1		301.0	18.0	2.5	/experiments/knapen_aot/videos/R_S_yt-J8E_BpSJMpk_5.mp4	0.0	112.97497200965881	2.50833797454834
20	58.75747609138489	fix_post	2		12.0	18.0	2.5	/experiments/knapen_aot/videos/R_S_yt-J8E_BpSJMpk_5.mp4	0.0	115.48330998420715	0.10000491142272949
21	58.85748100280762	fix_pre	0		14.0	19.0	2.5	blank	1.0	115.58331489562988	0.11664104461669922
21	58.96591401100159	response	0	4		19.0	2.5	blank	1.0	115.69174790382385	
21	58.974122047424316	movie	1		301.0	19.0	2.5	blank	1.0	115.69995594024658	2.5082950592041016
21	61.48241710662842	fix_post	2		12.0	19.0	2.5	blank	1.0	118.20825099945068	0.09993386268615723
22	61.582350969314575	fix_pre	0		30.0	20.0	2.5	/experiments/knapen_aot/videos/S_ILSVRC2015_train_00762000.mp4	0.0	118.30818486213684	0.25004100799560547
22	61.82418894767761	response	0	4		20.0	2.5	/experiments/knapen_aot/videos/S_ILSVRC2015_train_00762000.mp4	0.0	118.55002284049988	
22	61.83239197731018	movie	1		301.0	20.0	2.5	/experiments/knapen_aot/videos/S_ILSVRC2015_train_00762000.mp4	0.0	118.55822587013245	2.508301019668579
22	64.34069299697876	fix_post	2		12.0	20.0	2.5	/experiments/knapen_aot/videos/S_ILSVRC2015_train_00762000.mp4	0.0	121.06652688980103	0.09997105598449707
23	64.44066405296326	fix_pre	0		14.0	21.0	2.5	/experiments/knapen_aot/videos/R_S_production_ID_4325516.mp4	0.0	121.16649794578552	0.11668896675109863
23	64.54913210868835	response	0	4		21.0	2.5	/experiments/knapen_aot/videos/R_S_production_ID_4325516.mp4	0.0	121.27496600151062	
23	64.55735301971436	movie	1		195.0	21.0	2.5	/experiments/knapen_aot/videos/R_S_production_ID_4325516.mp4	0.0	121.28318691253662	2.5083250999450684
23	67.06567811965942	fix_post	2		12.0	21.0	2.5	/experiments/knapen_aot/videos/R_S_production_ID_4325516.mp4	0.0	123.79151201248169	0.10008382797241211
24	67.16576194763184	fix_pre	0		24.0	22.0	2.5	/experiments/knapen_aot/videos/R_S_pexels-c-technical-6753390_2.mp4	0.0	123.8915958404541	0.19993901252746582
24	67.35744714736938	response	0	4		22.0	2.5	/experiments/knapen_aot/videos/R_S_pexels-c-technical-6753390_2.mp4	0.0	124.08328104019165	
24	67.3657009601593	movie	1		211.0	22.0	2.5	/experiments/knapen_aot/videos/R_S_pexels-c-technical-6753390_2.mp4	0.0	124.09153485298157	2.5083742141723633
24	69.87407517433167	fix_post	2		12.0	22.0	2.5	/experiments/knapen_aot/videos/R_S_pexels-c-technical-6753390_2.mp4	0.0	126.59990906715393	0.09999585151672363
25	69.97407102584839	fix_pre	0		25.0	23.0	2.5	/experiments/knapen_aot/videos/S_yt-cG2qDR5ka5w_119.mp4	0.0	126.69990491867065	0.20835614204406738
25	70.16661810874939	response	0	4		23.0	2.5	/experiments/knapen_aot/videos/S_yt-cG2qDR5ka5w_119.mp4	0.0	126.89245200157166	
25	70.18242716789246	movie	1		300.0	23.0	2.5	/experiments/knapen_aot/videos/S_yt-cG2qDR5ka5w_119.mp4	0.0	126.90826106071472	2.508298873901367
25	72.69072604179382	fix_post	2		12.0	23.0	2.5	/experiments/knapen_aot/videos/S_yt-cG2qDR5ka5w_119.mp4	0.0	129.4165599346161	0.10000205039978027
26	72.7907280921936	fix_pre	0		30.0	24.0	2.5	/experiments/knapen_aot/videos/R_S_production_ID_5139371.mp4	0.0	129.51656198501587	0.249953031539917
26	73.03254199028015	response	0	4		24.0	2.5	/experiments/knapen_aot/videos/R_S_production_ID_5139371.mp4	0.0	129.75837588310242	
26	73.04068112373352	movie	1		164.0	24.0	2.5	/experiments/knapen_aot/videos/R_S_production_ID_5139371.mp4	0.0	129.7665150165558	2.508293867111206
26	75.54897499084473	fix_post	2		12.0	24.0	2.5	/experiments/knapen_aot/videos/R_S_production_ID_5139371.mp4	0.0	132.274808883667	0.10005497932434082
27	75.64902997016907	fix_pre	0		150.0	25.0	2.5	/experiments/knapen_aot/videos/R_S_comp_C001_C005_PS_v01_SDR_PS_20180925_SDR_2K_AVC.mp4	0.0	132.37486386299133	1.249939203262329
27	76.89079904556274	response	0	4		25.0	2.5	/experiments/knapen_aot/videos/R_S_comp_C001_C005_PS_v01_SDR_PS_20180925_SDR_2K_AVC.mp4	0.0	133.616632938385	
27	76.8989691734314	movie	1		169.0	25.0	2.5	/experiments/knapen_aot/videos/R_S_comp_C001_C005_PS_v01_SDR_PS_20180925_SDR_2K_AVC.mp4	0.0	133.62480306625366	2.5083649158477783
27	79.40733408927917	fix_post	2		12.0	25.0	2.5	/experiments/knapen_aot/videos/R_S_comp_C001_C005_PS_v01_SDR_PS_20180925_SDR_2K_AVC.mp4	0.0	136.13316798210144	0.09995508193969727
28	79.50728917121887	fix_pre	0		34.0	26.0	2.5	/experiments/knapen_aot/videos/S_yt-9mWz93En7Gw_97.mp4	0.0	136.23312306404114	0.28339099884033203
28	79.78239798545837	response	0	4		26.0	2.5	/experiments/knapen_aot/videos/S_yt-9mWz93En7Gw_97.mp4	0.0	136.50823187828064	
28	79.7906801700592	movie	1		301.0	26.0	2.5	/experiments/knapen_aot/videos/S_yt-9mWz93En7Gw_97.mp4	0.0	136.51651406288147	2.5082638263702393
28	82.29894399642944	fix_post	2		12.0	26.0	2.5	/experiments/knapen_aot/videos/S_yt-9mWz93En7Gw_97.mp4	0.0	139.0247778892517	0.10013914108276367
29	82.3990831375122	fix_pre	0		101.0	27.0	2.5	/experiments/knapen_aot/videos/S_ILSVRC2015_train_00565000.mp4	0.0	139.12491703033447	0.84157395362854
29	83.22482705116272	response	0	4		27.0	2.5	/experiments/knapen_aot/videos/S_ILSVRC2015_train_00565000.mp4	0.0	139.95066094398499	
29	83.24065709114075	movie	1		301.0	27.0	2.5	/experiments/knapen_aot/videos/S_ILSVRC2015_train_00565000.mp4	0.0	139.966490983963	2.5083298683166504
29	85.7489869594574	fix_post	2		12.0	27.0	2.5	/experiments/knapen_aot/videos/S_ILSVRC2015_train_00565000.mp4	0.0	142.47482085227966	0.09996509552001953
30	85.84895205497742	fix_pre	0		24.0	28.0	2.5	blank	1.0	142.57478594779968	0.2000119686126709
30	86.04080605506897	response	0	4		28.0	2.5	blank	1.0	142.76663994789124	
30	86.04896402359009	movie	1		301.0	28.0	2.5	blank	1.0	142.77479791641235	2.5082719326019287
30	88.55723595619202	fix_post	2		12.0	28.0	2.5	blank	1.0	145.28306984901428	0.1000361442565918
31	88.65727210044861	fix_pre	0		38.0	29.0	2.5	/experiments/knapen_aot/videos/S_yt-wIZprsJwxBM_298.mp4	0.0	145.38310599327087	0.3166689872741699
31	88.96584415435791	response	0	4		29.0	2.5	/experiments/knapen_aot/videos/S_yt-wIZprsJwxBM_298.mp4	0.0	145.69167804718018	
31	88.97394108772278	movie	1		301.0	29.0	2.5	/experiments/knapen_aot/videos/S_yt-wIZprsJwxBM_298.mp4	0.0	145.69977498054504	2.5083699226379395
31	91.48231101036072	fix_post	2		12.0	29.0	2.5	/experiments/knapen_aot/videos/S_yt-wIZprsJwxBM_298.mp4	0.0	148.20814490318298	0.10001397132873535
32	91.58232498168945	fix_pre	0		60.0	30.0	2.5	/experiments/knapen_aot/videos/S_ILSVRC2015_train_00682005.mp4	0.0	148.30815887451172	0.49991703033447266
32	92.07401299476624	response	0	4		30.0	2.5	/experiments/knapen_aot/videos/S_ILSVRC2015_train_00682005.mp4	0.0	148.7998468875885	
32	92.08224201202393	movie	1		301.0	30.0	2.5	/experiments/knapen_aot/videos/S_ILSVRC2015_train_00682005.mp4	0.0	148.8080759048462	2.508392095565796
32	94.59063410758972	fix_post	2		12.0	30.0	2.5	/experiments/knapen_aot/videos/S_ILSVRC2015_train_00682005.mp4	0.0	151.316468000412	0.09993386268615723
33	94.69056797027588	fix_pre	0		13.0	31.0	2.5	/experiments/knapen_aot/videos/R_S_yt-v8e_DlCsP4w_10.mp4	0.0	151.41640186309814	0.10834097862243652
33	94.79071402549744	response	0	4		31.0	2.5	/experiments/knapen_aot/videos/R_S_yt-v8e_DlCsP4w_10.mp4	0.0	151.5165479183197	
33	94.79890894889832	movie	1		300.0	31.0	2.5	/experiments/knapen_aot/videos/R_S_yt-v8e_DlCsP4w_10.mp4	0.0	151.52474284172058	2.508308172225952
33	97.30721712112427	fix_post	2		12.0	31.0	2.5	/experiments/knapen_aot/videos/R_S_yt-v8e_DlCsP4w_10.mp4	0.0	154.03305101394653	0.10002684593200684
34	97.40724396705627	fix_pre	0		42.0	32.0	2.5	/experiments/knapen_aot/videos/S_yt-Dwgpjoikt84_71.mp4	0.0	154.13307785987854	0.35000109672546387
34	97.7490119934082	response	0	4		32.0	2.5	/experiments/knapen_aot/videos/S_yt-Dwgpjoikt84_71.mp4	0.0	154.47484588623047	
34	97.75724506378174	movie	1		301.0	32.0	2.5	/experiments/knapen_aot/videos/S_yt-Dwgpjoikt84_71.mp4	0.0	154.483078956604	2.508358955383301
34	100.26560401916504	fix_post	2		12.0	32.0	2.5	/experiments/knapen_aot/videos/S_yt-Dwgpjoikt84_71.mp4	0.0	156.9914379119873	0.1011350154876709
35	100.36673903465271	fix_pre	0		28.0	33.0	2.5	/experiments/knapen_aot/videos/S_yt-IC62JSYpq9w_71.mp4	0.0	157.09257292747498	0.2321319580078125
35	100.5907051563263	response	0	4		33.0	2.5	/experiments/knapen_aot/videos/S_yt-IC62JSYpq9w_71.mp4	0.0	157.31653904914856	
35	100.59887099266052	movie	1		301.0	33.0	2.5	/experiments/knapen_aot/videos/S_yt-IC62JSYpq9w_71.mp4	0.0	157.3247048854828	2.5084290504455566
35	103.10730004310608	fix_post	2		12.0	33.0	2.5	/experiments/knapen_aot/videos/S_yt-IC62JSYpq9w_71.mp4	0.0	159.83313393592834	0.09990310668945312
36	103.20720314979553	fix_pre	0		132.0	34.0	2.5	/experiments/knapen_aot/videos/S_ILSVRC2015_train_00067003.mp4	0.0	159.9330370426178	1.0999670028686523
36	104.29903507232666	response	0	4		34.0	2.5	/experiments/knapen_aot/videos/S_ILSVRC2015_train_00067003.mp4	0.0	161.02486896514893	
36	104.30717015266418	movie	1		301.0	34.0	2.5	/experiments/knapen_aot/videos/S_ILSVRC2015_train_00067003.mp4	0.0	161.03300404548645	2.508419990539551
36	106.81559014320374	fix_post	2		12.0	34.0	2.5	/experiments/knapen_aot/videos/S_ILSVRC2015_train_00067003.mp4	0.0	163.541424036026	0.09999990463256836
37	106.9155900478363	fix_pre	0		22.0	35.0	2.5	blank	1.0	163.64142394065857	0.1833200454711914
37	107.08324098587036	response	0	4		35.0	2.5	blank	1.0	163.80907487869263	
37	107.0989100933075	movie	1		301.0	35.0	2.5	blank	1.0	163.82474398612976	2.508328914642334
37	109.60723900794983	fix_post	2		12.0	35.0	2.5	blank	1.0	166.3330729007721	0.09999799728393555
38	109.70723700523376	fix_pre	0		22.0	36.0	2.5	/experiments/knapen_aot/videos/R_S_yt-BIDHmbneB10_998.mp4	0.0	166.43307089805603	0.1833350658416748
38	109.8823561668396	response	0	4		36.0	2.5	/experiments/knapen_aot/videos/R_S_yt-BIDHmbneB10_998.mp4	0.0	166.60819005966187	
38	109.89057207107544	movie	1		300.0	36.0	2.5	/experiments/knapen_aot/videos/R_S_yt-BIDHmbneB10_998.mp4	0.0	166.6164059638977	2.5082859992980957
38	112.39885807037354	fix_post	2		12.0	36.0	2.5	/experiments/knapen_aot/videos/R_S_yt-BIDHmbneB10_998.mp4	0.0	169.1246919631958	0.10001587867736816
39	112.4988739490509	fix_pre	0		35.0	37.0	2.5	/experiments/knapen_aot/videos/S_yt-xWCPbUQc-vg_7.mp4	0.0	169.22470784187317	0.2916271686553955
39	112.78233218193054	response	0	4		37.0	2.5	/experiments/knapen_aot/videos/S_yt-xWCPbUQc-vg_7.mp4	0.0	169.5081660747528	
39	112.7905011177063	movie	1		301.0	37.0	2.5	/experiments/knapen_aot/videos/S_yt-xWCPbUQc-vg_7.mp4	0.0	169.51633501052856	2.508251905441284
39	115.29875302314758	fix_post	2		12.0	37.0	2.5	/experiments/knapen_aot/videos/S_yt-xWCPbUQc-vg_7.mp4	0.0	172.02458691596985	0.10006403923034668
40	115.39881706237793	fix_pre	0		44.0	38.0	2.5	/experiments/knapen_aot/videos/S_yt-IyxCMODHSSE_29.mp4	0.0	172.1246509552002	0.3667020797729492
40	115.75730109214783	response	0	4		38.0	2.5	/experiments/knapen_aot/videos/S_yt-IyxCMODHSSE_29.mp4	0.0	172.4831349849701	
40	115.76551914215088	movie	1		301.0	38.0	2.5	/experiments/knapen_aot/videos/S_yt-IyxCMODHSSE_29.mp4	0.0	172.49135303497314	2.508296012878418
40	118.2738151550293	fix_post	2		12.0	38.0	2.5	/experiments/knapen_aot/videos/S_yt-IyxCMODHSSE_29.mp4	0.0	174.99964904785156	0.10000491142272949
41	118.37382006645203	fix_pre	0		46.0	39.0	2.5	/experiments/knapen_aot/videos/S_yt-H5LQq4MPIao_660.mp4	0.0	175.0996539592743	0.3833799362182617
41	118.74902105331421	response	0	4		39.0	2.5	/experiments/knapen_aot/videos/S_yt-H5LQq4MPIao_660.mp4	0.0	175.47485494613647	
41	118.75720000267029	movie	1		301.0	39.0	2.5	/experiments/knapen_aot/videos/S_yt-H5LQq4MPIao_660.mp4	0.0	175.48303389549255	2.5083529949188232
41	121.26555299758911	fix_post	2		12.0	39.0	2.5	/experiments/knapen_aot/videos/S_yt-H5LQq4MPIao_660.mp4	0.0	177.99138689041138	0.09988617897033691
42	121.36543917655945	fix_pre	0		31.0	40.0	2.5	/experiments/knapen_aot/videos/S_yt-wnQFgNEnHUI_109.mp4	0.0	178.0912730693817	0.25834178924560547
42	121.61554098129272	response	0	4		40.0	2.5	/experiments/knapen_aot/videos/S_yt-wnQFgNEnHUI_109.mp4	0.0	178.341374874115	
42	121.62378096580505	movie	1		301.0	40.0	2.5	/experiments/knapen_aot/videos/S_yt-wnQFgNEnHUI_109.mp4	0.0	178.34961485862732	2.5083770751953125
42	124.13215804100037	fix_post	2		12.0	40.0	2.5	/experiments/knapen_aot/videos/S_yt-wnQFgNEnHUI_109.mp4	0.0	180.85799193382263	0.10006499290466309
43	124.23222303390503	fix_pre	0		142.0	41.0	2.5	/experiments/knapen_aot/videos/R_S_yt-BLmwmX-mni8_56.mp4	0.0	180.9580569267273	1.1832780838012695
43	125.40731811523438	response	0	4		41.0	2.5	/experiments/knapen_aot/videos/R_S_yt-BLmwmX-mni8_56.mp4	0.0	182.13315200805664	
43	125.4155011177063	movie	1		301.0	41.0	2.5	/experiments/knapen_aot/videos/R_S_yt-BLmwmX-mni8_56.mp4	0.0	182.14133501052856	2.508358955383301
43	127.9238600730896	fix_post	2		12.0	41.0	2.5	/experiments/knapen_aot/videos/R_S_yt-BLmwmX-mni8_56.mp4	0.0	184.64969396591187	0.09997797012329102
44	128.0238380432129	fix_pre	0		25.0	42.0	2.5	blank	1.0	184.74967193603516	0.20830392837524414
44	128.22400903701782	response	0	4		42.0	2.5	blank	1.0	184.9498429298401	
44	128.23214197158813	movie	1		301.0	42.0	2.5	blank	1.0	184.9579758644104	2.508336067199707
44	130.74047803878784	fix_post	2		12.0	42.0	2.5	blank	1.0	187.4663119316101	0.10001611709594727
45	130.8404941558838	fix_pre	0		39.0	43.0	2.5	/experiments/knapen_aot/videos/S_yt-fIEGqReekCM_10.mp4	0.0	187.56632804870605	0.32500791549682617
45	131.15732598304749	response	0	4		43.0	2.5	/experiments/knapen_aot/videos/S_yt-fIEGqReekCM_10.mp4	0.0	187.88315987586975	
45	131.16550207138062	movie	1		301.0	43.0	2.5	/experiments/knapen_aot/videos/S_yt-fIEGqReekCM_10.mp4	0.0	187.89133596420288	2.508236885070801
45	133.67373895645142	fix_post	2		12.0	43.0	2.5	/experiments/knapen_aot/videos/S_yt-fIEGqReekCM_10.mp4	0.0	190.39957284927368	0.09999608993530273
46	133.77373504638672	fix_pre	0		24.0	44.0	2.5	/experiments/knapen_aot/videos/R_S_yt-9mWz93En7Gw_97.mp4	0.0	190.49956893920898	0.20003199577331543
46	133.9580581188202	response	0	4		44.0	2.5	/experiments/knapen_aot/videos/R_S_yt-9mWz93En7Gw_97.mp4	0.0	190.68389201164246	
46	133.97376704216003	movie	1		301.0	44.0	2.5	/experiments/knapen_aot/videos/R_S_yt-9mWz93En7Gw_97.mp4	0.0	190.6996009349823	2.5083200931549072
46	136.48208713531494	fix_post	2		12.0	44.0	2.5	/experiments/knapen_aot/videos/R_S_yt-9mWz93En7Gw_97.mp4	0.0	193.2079210281372	0.10002994537353516
47	136.58211708068848	fix_pre	0		84.0	45.0	2.5	/experiments/knapen_aot/videos/R_S_yt-RqWnxg1wT-0_41.mp4	0.0	193.30795097351074	0.700922966003418
47	137.2739109992981	response	0	4		45.0	2.5	/experiments/knapen_aot/videos/R_S_yt-RqWnxg1wT-0_41.mp4	0.0	193.99974489212036	
47	137.2830400466919	movie	1		301.0	45.0	2.5	/experiments/knapen_aot/videos/R_S_yt-RqWnxg1wT-0_41.mp4	0.0	194.00887393951416	2.5073299407958984
47	139.7903699874878	fix_post	2		12.0	45.0	2.5	/experiments/knapen_aot/videos/R_S_yt-RqWnxg1wT-0_41.mp4	0.0	196.51620388031006	0.10004305839538574
48	139.89041304588318	fix_pre	0		31.0	46.0	2.5	/experiments/knapen_aot/videos/S_comp_GMT110_112NC_364D_1054_AURORA_ANTARTICA__COMP_FINAL_v34_PS_SDR_20181107_SDR_2K_AVC.mp4	0.0	196.61624693870544	0.25833797454833984
48	140.1405529975891	response	0	4		46.0	2.5	/experiments/knapen_aot/videos/S_comp_GMT110_112NC_364D_1054_AURORA_ANTARTICA__COMP_FINAL_v34_PS_SDR_20181107_SDR_2K_AVC.mp4	0.0	196.86638689041138	
48	140.14875102043152	movie	1		161.0	46.0	2.5	/experiments/knapen_aot/videos/S_comp_GMT110_112NC_364D_1054_AURORA_ANTARTICA__COMP_FINAL_v34_PS_SDR_20181107_SDR_2K_AVC.mp4	0.0	196.87458491325378	2.508389949798584
48	142.6571409702301	fix_post	2		12.0	46.0	2.5	/experiments/knapen_aot/videos/S_comp_GMT110_112NC_364D_1054_AURORA_ANTARTICA__COMP_FINAL_v34_PS_SDR_20181107_SDR_2K_AVC.mp4	0.0	199.38297486305237	0.10008597373962402
49	142.75722694396973	fix_pre	0		279.0	47.0	2.5	blank	1.0	199.483060836792	2.324885129928589
49	145.07393097877502	response	0	4		47.0	2.5	blank	1.0	201.7997648715973	
49	145.08211207389832	movie	1		301.0	47.0	2.5	blank	1.0	201.80794596672058	2.508328914642334
49	147.59044098854065	fix_post	2		12.0	47.0	2.5	blank	1.0	204.31627488136292	0.09999704360961914
50	147.69043803215027	fix_pre	0		60.0	48.0	2.5	/experiments/knapen_aot/videos/R_S_pexels-mikhail-nilov-8410063.mp4	0.0	204.41627192497253	0.49997901916503906
50	148.18220114707947	response	0	4		48.0	2.5	/experiments/knapen_aot/videos/R_S_pexels-mikhail-nilov-8410063.mp4	0.0	204.90803503990173	
50	148.1904170513153	movie	1		164.0	48.0	2.5	/experiments/knapen_aot/videos/R_S_pexels-mikhail-nilov-8410063.mp4	0.0	204.91625094413757	2.5083250999450684
50	150.69874215126038	fix_post	2		12.0	48.0	2.5	/experiments/knapen_aot/videos/R_S_pexels-mikhail-nilov-8410063.mp4	0.0	207.42457604408264	0.09998798370361328
51	150.798730134964	fix_pre	0		4.0	49.0	2.5	/experiments/knapen_aot/videos/S_yt-4x2eUikn9rw_212.mp4	0.0	207.52456402778625	0.03329801559448242
51	150.82379817962646	response	0	4		49.0	2.5	/experiments/knapen_aot/videos/S_yt-4x2eUikn9rw_212.mp4	0.0	207.54963207244873	
51	150.83202815055847	movie	1		301.0	49.0	2.5	/experiments/knapen_aot/videos/S_yt-4x2eUikn9rw_212.mp4	0.0	207.55786204338074	2.508340835571289
51	153.34036898612976	fix_post	2		12.0	49.0	2.5	/experiments/knapen_aot/videos/S_yt-4x2eUikn9rw_212.mp4	0.0	210.06620287895203	0.09995317459106445
52	153.44032216072083	fix_pre	0		122.0	50.0	2.5	/experiments/knapen_aot/videos/R_S_yt-BLmwmX-mni8_1030.mp4	0.0	210.1661560535431	1.0166728496551514
52	154.4487681388855	response	0	4		50.0	2.5	/experiments/knapen_aot/videos/R_S_yt-BLmwmX-mni8_1030.mp4	0.0	211.17460203170776	
52	154.45699501037598	movie	1		301.0	50.0	2.5	/experiments/knapen_aot/videos/R_S_yt-BLmwmX-mni8_1030.mp4	0.0	211.18282890319824	2.508355140686035
52	156.965350151062	fix_post	2		12.0	50.0	2.5	/experiments/knapen_aot/videos/R_S_yt-BLmwmX-mni8_1030.mp4	0.0	213.69118404388428	0.10007500648498535
53	157.065425157547	fix_pre	0		19.0	51.0	2.5	/experiments/knapen_aot/videos/S_bing-www_cnet_com_videos_amazon-wants-to-put-alexa-on-your-pc__50.mp4	0.0	213.79125905036926	0.15825891494750977
53	157.21548700332642	response	0	4		51.0	2.5	/experiments/knapen_aot/videos/S_bing-www_cnet_com_videos_amazon-wants-to-put-alexa-on-your-pc__50.mp4	0.0	213.94132089614868	
53	157.2236840724945	movie	1		165.0	51.0	2.5	/experiments/knapen_aot/videos/S_bing-www_cnet_com_videos_amazon-wants-to-put-alexa-on-your-pc__50.mp4	0.0	213.94951796531677	2.5083699226379395
53	159.73205399513245	fix_post	2		12.0	51.0	2.5	/experiments/knapen_aot/videos/S_bing-www_cnet_com_videos_amazon-wants-to-put-alexa-on-your-pc__50.mp4	0.0	216.4578878879547	0.10000801086425781
54	159.8320620059967	fix_pre	0		39.0	52.0	2.5	/experiments/knapen_aot/videos/R_S_yt-M5qZo3CUXYE_27.mp4	0.0	216.55789589881897	0.32578110694885254
54	160.1487181186676	response	0	4		52.0	2.5	/experiments/knapen_aot/videos/R_S_yt-M5qZo3CUXYE_27.mp4	0.0	216.87455201148987	
54	160.15784311294556	movie	1		301.0	52.0	2.5	/experiments/knapen_aot/videos/R_S_yt-M5qZo3CUXYE_27.mp4	0.0	216.88367700576782	2.5075440406799316
54	162.6653871536255	fix_post	2		12.0	52.0	2.5	/experiments/knapen_aot/videos/R_S_yt-M5qZo3CUXYE_27.mp4	0.0	219.39122104644775	0.10004687309265137
55	162.76543402671814	fix_pre	0		35.0	53.0	2.5	/experiments/knapen_aot/videos/R_S_yt-CXn1PGH67_s_20.mp4	0.0	219.4912679195404	0.2915959358215332
55	163.0488040447235	response	0	4		53.0	2.5	/experiments/knapen_aot/videos/R_S_yt-CXn1PGH67_s_20.mp4	0.0	219.77463793754578	
55	163.05702996253967	movie	1		299.0	53.0	2.5	/experiments/knapen_aot/videos/R_S_yt-CXn1PGH67_s_20.mp4	0.0	219.78286385536194	2.508327007293701
55	165.56535696983337	fix_post	2		12.0	53.0	2.5	/experiments/knapen_aot/videos/R_S_yt-CXn1PGH67_s_20.mp4	0.0	222.29119086265564	0.09992718696594238
56	165.66528415679932	fix_pre	0		17.0	54.0	2.5	/experiments/knapen_aot/videos/S_yt-0Zze3Ff12Ys_58.mp4	0.0	222.39111804962158	0.14165186882019043
56	165.79880905151367	response	0	4		54.0	2.5	/experiments/knapen_aot/videos/S_yt-0Zze3Ff12Ys_58.mp4	0.0	222.52464294433594	
56	165.8069360256195	movie	1		301.0	54.0	2.5	/experiments/knapen_aot/videos/S_yt-0Zze3Ff12Ys_58.mp4	0.0	222.53276991844177	2.5083770751953125
56	168.31531310081482	fix_post	2		12.0	54.0	2.5	/experiments/knapen_aot/videos/S_yt-0Zze3Ff12Ys_58.mp4	0.0	225.04114699363708	0.10005593299865723
57	168.41536903381348	fix_pre	0		23.0	55.0	2.5	blank	1.0	225.14120292663574	0.1916360855102539
57	168.59882998466492	response	0	4		55.0	2.5	blank	1.0	225.32466387748718	
57	168.60700511932373	movie	1		301.0	55.0	2.5	blank	1.0	225.332839012146	2.508347988128662
57	170.59875416755676	response	1	4		55.0	2.5	blank	1.0	227.32458806037903	
57	171.1153531074524	fix_post	2		12.0	55.0	2.5	blank	1.0	227.84118700027466	0.09998488426208496
58	171.21533799171448	fix_pre	0		64.0	56.0	2.5	/experiments/knapen_aot/videos/R_S_Pexels_Videos_278654_1.mp4	0.0	227.94117188453674	0.5333380699157715
58	171.7404100894928	response	0	4		56.0	2.5	/experiments/knapen_aot/videos/R_S_Pexels_Videos_278654_1.mp4	0.0	228.46624398231506	
58	171.74867606163025	movie	1		163.0	56.0	2.5	/experiments/knapen_aot/videos/R_S_Pexels_Videos_278654_1.mp4	0.0	228.47450995445251	2.5082740783691406
58	174.2569501399994	fix_post	2		12.0	56.0	2.5	/experiments/knapen_aot/videos/R_S_Pexels_Videos_278654_1.mp4	0.0	230.98278403282166	0.10007190704345703
59	174.35702204704285	fix_pre	0		27.0	57.0	2.5	/experiments/knapen_aot/videos/S_yt-gDZnJCR2uXI_18.mp4	0.0	231.0828559398651	0.22489500045776367
59	174.5737509727478	response	0	4		57.0	2.5	/experiments/knapen_aot/videos/S_yt-gDZnJCR2uXI_18.mp4	0.0	231.29958486557007	
59	174.5819170475006	movie	1		300.0	57.0	2.5	/experiments/knapen_aot/videos/S_yt-gDZnJCR2uXI_18.mp4	0.0	231.30775094032288	2.5083539485931396
59	177.09027099609375	fix_post	2		12.0	57.0	2.5	/experiments/knapen_aot/videos/S_yt-gDZnJCR2uXI_18.mp4	0.0	233.81610488891602	0.1000070571899414
60	177.1902780532837	fix_pre	0		36.0	58.0	2.5	/experiments/knapen_aot/videos/R_S_comp_LA_A008_C004_ALTB_ED_FROM_FLAME_RETIME_v46_SDR_PS_20180917_SDR_2K_AVC.mp4	0.0	233.91611194610596	0.3007619380950928
60	177.48202896118164	response	0	4		58.0	2.5	/experiments/knapen_aot/videos/R_S_comp_LA_A008_C004_ALTB_ED_FROM_FLAME_RETIME_v46_SDR_PS_20180917_SDR_2K_AVC.mp4	0.0	234.2078628540039	
60	177.49103999137878	movie	1		170.0	58.0	2.5	/experiments/knapen_aot/videos/R_S_comp_LA_A008_C004_ALTB_ED_FROM_FLAME_RETIME_v46_SDR_PS_20180917_SDR_2K_AVC.mp4	0.0	234.21687388420105	2.50754714012146
60	179.99858713150024	fix_post	2		12.0	58.0	2.5	/experiments/knapen_aot/videos/R_S_comp_LA_A008_C004_ALTB_ED_FROM_FLAME_RETIME_v46_SDR_PS_20180917_SDR_2K_AVC.mp4	0.0	236.7244210243225	0.09994387626647949
61	180.09853100776672	fix_pre	0		13.0	59.0	2.5	/experiments/knapen_aot/videos/S_comp_GMT329_113NC_396B_1105_CHINA_v04_SDR_FINAL_20180706_F900F2700_SDR_2K_AVC.mp4	0.0	236.824364900589	0.10843300819396973
61	180.19866299629211	response	0	4		59.0	2.5	/experiments/knapen_aot/videos/S_comp_GMT329_113NC_396B_1105_CHINA_v04_SDR_FINAL_20180706_F900F2700_SDR_2K_AVC.mp4	0.0	236.92449688911438	
61	180.2069640159607	movie	1		163.0	59.0	2.5	/experiments/knapen_aot/videos/S_comp_GMT329_113NC_396B_1105_CHINA_v04_SDR_FINAL_20180706_F900F2700_SDR_2K_AVC.mp4	0.0	236.93279790878296	2.5083401203155518
61	182.71530413627625	fix_post	2		12.0	59.0	2.5	/experiments/knapen_aot/videos/S_comp_GMT329_113NC_396B_1105_CHINA_v04_SDR_FINAL_20180706_F900F2700_SDR_2K_AVC.mp4	0.0	239.4411380290985	0.09996891021728516
62	182.81527304649353	fix_pre	0		74.0	60.0	2.5	/experiments/knapen_aot/videos/R_S_yt-ja8Pmpik_ao_112.mp4	0.0	239.5411069393158	0.6166830062866211
62	183.42523002624512	response	0	4		60.0	2.5	/experiments/knapen_aot/videos/R_S_yt-ja8Pmpik_ao_112.mp4	0.0	240.15106391906738	
62	183.43195605278015	movie	1		301.0	60.0	2.5	/experiments/knapen_aot/videos/R_S_yt-ja8Pmpik_ao_112.mp4	0.0	240.15778994560242	2.5083041191101074
62	185.94026017189026	fix_post	2		12.0	60.0	2.5	/experiments/knapen_aot/videos/R_S_yt-ja8Pmpik_ao_112.mp4	0.0	242.66609406471252	0.09997200965881348
63	186.04023218154907	fix_pre	0		23.0	61.0	2.5	/experiments/knapen_aot/videos/S_video-9.mp4	0.0	242.76606607437134	0.19167685508728027
63	186.22370195388794	response	0	4		61.0	2.5	/experiments/knapen_aot/videos/S_video-9.mp4	0.0	242.9495358467102	
63	186.23190903663635	movie	1		208.0	61.0	2.5	/experiments/knapen_aot/videos/S_video-9.mp4	0.0	242.95774292945862	2.508376121520996
63	188.74028515815735	fix_post	2		12.0	61.0	2.5	/experiments/knapen_aot/videos/S_video-9.mp4	0.0	245.46611905097961	0.10002279281616211
64	188.8403079509735	fix_pre	0		69.0	62.0	2.5	/experiments/knapen_aot/videos/S_yt-d5jBQ-LOW2I_17.mp4	0.0	245.56614184379578	0.5749650001525879
64	189.40709114074707	response	0	4		62.0	2.5	/experiments/knapen_aot/videos/S_yt-d5jBQ-LOW2I_17.mp4	0.0	246.13292503356934	
64	189.4152729511261	movie	1		301.0	62.0	2.5	/experiments/knapen_aot/videos/S_yt-d5jBQ-LOW2I_17.mp4	0.0	246.14110684394836	2.508316993713379
64	191.92358994483948	fix_post	2		12.0	62.0	2.5	/experiments/knapen_aot/videos/S_yt-d5jBQ-LOW2I_17.mp4	0.0	248.64942383766174	0.10001111030578613
65	192.02360105514526	fix_pre	0		73.0	63.0	2.5	blank	1.0	248.74943494796753	0.6082620620727539
65	192.6237530708313	response	0	4		63.0	2.5	blank	1.0	249.34958696365356	
65	192.63186311721802	movie	1		301.0	63.0	2.5	blank	1.0	249.35769701004028	2.5083229541778564
65	195.14018607139587	fix_post	2		12.0	63.0	2.5	blank	1.0	251.86601996421814	0.10004496574401855
66	195.2402310371399	fix_pre	0		19.0	64.0	2.5	/experiments/knapen_aot/videos/S_yt-Ev39pXXfr1Y_152.mp4	0.0	251.96606492996216	0.1583089828491211
66	195.39035296440125	response	0	4		64.0	2.5	/experiments/knapen_aot/videos/S_yt-Ev39pXXfr1Y_152.mp4	0.0	252.1161868572235	
66	195.398540019989	movie	1		301.0	64.0	2.5	/experiments/knapen_aot/videos/S_yt-Ev39pXXfr1Y_152.mp4	0.0	252.12437391281128	2.508355140686035
66	197.90689516067505	fix_post	2		12.0	64.0	2.5	/experiments/knapen_aot/videos/S_yt-Ev39pXXfr1Y_152.mp4	0.0	254.63272905349731	0.10002684593200684
67	198.00692200660706	fix_pre	0		52.0	65.0	2.5	/experiments/knapen_aot/videos/S_yt-Ul81y6R9YbE_12.mp4	0.0	254.73275589942932	0.4332890510559082
67	198.43204617500305	response	0	4		65.0	2.5	/experiments/knapen_aot/videos/S_yt-Ul81y6R9YbE_12.mp4	0.0	255.15788006782532	
67	198.44021105766296	movie	1		301.0	65.0	2.5	/experiments/knapen_aot/videos/S_yt-Ul81y6R9YbE_12.mp4	0.0	255.16604495048523	2.5083370208740234
67	200.948548078537	fix_post	2		12.0	65.0	2.5	/experiments/knapen_aot/videos/S_yt-Ul81y6R9YbE_12.mp4	0.0	257.67438197135925	0.10002398490905762
68	201.04857206344604	fix_pre	0		38.0	66.0	2.5	/experiments/knapen_aot/videos/R_S_pexels-cottonbro-10640532.mp4	0.0	257.7744059562683	0.3172640800476074
68	201.3570101261139	response	0	4		66.0	2.5	/experiments/knapen_aot/videos/R_S_pexels-cottonbro-10640532.mp4	0.0	258.08284401893616	
68	201.36583614349365	movie	1		197.0	66.0	2.5	/experiments/knapen_aot/videos/R_S_pexels-cottonbro-10640532.mp4	0.0	258.0916700363159	2.5077269077301025
68	203.87356305122375	fix_post	2		12.0	66.0	2.5	/experiments/knapen_aot/videos/R_S_pexels-cottonbro-10640532.mp4	0.0	260.599396944046	0.09993290901184082
69	203.9734959602356	fix_pre	0		10.0	67.0	2.5	/experiments/knapen_aot/videos/R_S_yt-wnQFgNEnHUI_109.mp4	0.0	260.69932985305786	0.08333706855773926
69	204.04873299598694	response	0	4		67.0	2.5	/experiments/knapen_aot/videos/R_S_yt-wnQFgNEnHUI_109.mp4	0.0	260.7745668888092	
69	204.05683302879333	movie	1		299.0	67.0	2.5	/experiments/knapen_aot/videos/R_S_yt-wnQFgNEnHUI_109.mp4	0.0	260.7826669216156	2.508324146270752
69	206.5651571750641	fix_post	2		12.0	67.0	2.5	/experiments/knapen_aot/videos/R_S_yt-wnQFgNEnHUI_109.mp4	0.0	263.29099106788635	0.0999908447265625
70	206.66514801979065	fix_pre	0		13.0	68.0	2.5	blank	1.0	263.3909819126129	0.10823702812194824
70	206.76533198356628	response	0	4		68.0	2.5	blank	1.0	263.49116587638855	
70	206.7733850479126	movie	1		301.0	68.0	2.5	blank	1.0	263.49921894073486	2.508405923843384
70	209.28179097175598	fix_post	2		12.0	68.0	2.5	blank	1.0	266.00762486457825	0.09999799728393555
71	209.38178896903992	fix_pre	0		140.0	69.0	2.5	/experiments/knapen_aot/videos/R_S_yt-zKnjBBYWe90_369.mp4	0.0	266.1076228618622	1.1666250228881836
71	210.54028415679932	response	0	4		69.0	2.5	/experiments/knapen_aot/videos/R_S_yt-zKnjBBYWe90_369.mp4	0.0	267.2661180496216	
71	210.5484139919281	movie	1		298.0	69.0	2.5	/experiments/knapen_aot/videos/R_S_yt-zKnjBBYWe90_369.mp4	0.0	267.27424788475037	2.5084011554718018
71	213.0568151473999	fix_post	2		12.0	69.0	2.5	/experiments/knapen_aot/videos/R_S_yt-zKnjBBYWe90_369.mp4	0.0	269.78264904022217	0.09999990463256836
72	213.15681505203247	fix_pre	0		19.0	70.0	2.5	/experiments/knapen_aot/videos/R_S_yt-ebzrQh5ErI4_3.mp4	0.0	269.88264894485474	0.15831708908081055
72	213.30698704719543	response	0	4		70.0	2.5	/experiments/knapen_aot/videos/R_S_yt-ebzrQh5ErI4_3.mp4	0.0	270.0328209400177	
72	213.31513214111328	movie	1		301.0	70.0	2.5	/experiments/knapen_aot/videos/R_S_yt-ebzrQh5ErI4_3.mp4	0.0	270.04096603393555	2.5083138942718506
72	215.82344603538513	fix_post	2		12.0	70.0	2.5	/experiments/knapen_aot/videos/R_S_yt-ebzrQh5ErI4_3.mp4	0.0	272.5492799282074	0.10003113746643066
73	215.92347717285156	fix_pre	0		17.0	71.0	2.5	/experiments/knapen_aot/videos/R_S_g201_CA_A016_C002_SDR_20191114_SDR_2K_AVC.mp4	0.0	272.6493110656738	0.14158177375793457
73	216.056813955307	response	0	4		71.0	2.5	/experiments/knapen_aot/videos/R_S_g201_CA_A016_C002_SDR_20191114_SDR_2K_AVC.mp4	0.0	272.7826478481293	
73	216.0650589466095	movie	1		167.0	71.0	2.5	/experiments/knapen_aot/videos/R_S_g201_CA_A016_C002_SDR_20191114_SDR_2K_AVC.mp4	0.0	272.79089283943176	2.508369207382202
73	218.5734281539917	fix_post	2		12.0	71.0	2.5	/experiments/knapen_aot/videos/R_S_g201_CA_A016_C002_SDR_20191114_SDR_2K_AVC.mp4	0.0	275.29926204681396	0.10003900527954102
74	218.67346715927124	fix_pre	0		100.0	72.0	2.5	/experiments/knapen_aot/videos/S_production_ID_4325516.mp4	0.0	275.3993010520935	0.833305835723877
74	219.49862599372864	response	0	4		72.0	2.5	/experiments/knapen_aot/videos/S_production_ID_4325516.mp4	0.0	276.2244598865509	
74	219.50677299499512	movie	1		188.0	72.0	2.5	/experiments/knapen_aot/videos/S_production_ID_4325516.mp4	0.0	276.2326068878174	2.508249044418335
74	222.01502203941345	fix_post	2		12.0	72.0	2.5	/experiments/knapen_aot/videos/S_production_ID_4325516.mp4	0.0	278.7408559322357	0.10007810592651367
75	222.11510014533997	fix_pre	0		18.0	73.0	2.5	/experiments/knapen_aot/videos/S_yt-v8e_DlCsP4w_10.mp4	0.0	278.84093403816223	0.14993786811828613
75	222.2568941116333	response	0	4		73.0	2.5	/experiments/knapen_aot/videos/S_yt-v8e_DlCsP4w_10.mp4	0.0	278.98272800445557	
75	222.26503801345825	movie	1		301.0	73.0	2.5	/experiments/knapen_aot/videos/S_yt-v8e_DlCsP4w_10.mp4	0.0	278.9908719062805	2.508409023284912
75	224.77344703674316	fix_post	2		12.0	73.0	2.5	/experiments/knapen_aot/videos/S_yt-v8e_DlCsP4w_10.mp4	0.0	281.49928092956543	0.0999600887298584
76	224.87340712547302	fix_pre	0		240.0	74.0	2.5	/experiments/knapen_aot/videos/S_yt-F1vQ5nZWhDg_21.mp4	0.0	281.5992410182953	1.9999680519104004
76	226.8576991558075	response	0	4		74.0	2.5	/experiments/knapen_aot/videos/S_yt-F1vQ5nZWhDg_21.mp4	0.0	283.58353304862976	
76	226.87337517738342	movie	1		301.0	74.0	2.5	/experiments/knapen_aot/videos/S_yt-F1vQ5nZWhDg_21.mp4	0.0	283.5992090702057	2.508319854736328
76	229.38169503211975	fix_post	2		12.0	74.0	2.5	/experiments/knapen_aot/videos/S_yt-F1vQ5nZWhDg_21.mp4	0.0	286.107528924942	0.10000801086425781
77	229.481703042984	fix_pre	0		69.0	75.0	2.5	/experiments/knapen_aot/videos/S_yt-J8E_BpSJMpk_5.mp4	0.0	286.2075369358063	0.5749359130859375
77	230.04855799674988	response	0	4		75.0	2.5	/experiments/knapen_aot/videos/S_yt-J8E_BpSJMpk_5.mp4	0.0	286.77439188957214	
77	230.05663895606995	movie	1		301.0	75.0	2.5	/experiments/knapen_aot/videos/S_yt-J8E_BpSJMpk_5.mp4	0.0	286.7824728488922	2.5084030628204346
77	232.56504201889038	fix_post	2		12.0	75.0	2.5	/experiments/knapen_aot/videos/S_yt-J8E_BpSJMpk_5.mp4	0.0	289.29087591171265	0.1000211238861084
78	232.6650631427765	fix_pre	0		29.0	76.0	2.5	/experiments/knapen_aot/videos/R_S_yt-F1vQ5nZWhDg_21.mp4	0.0	289.39089703559875	0.24210596084594727
78	232.89843916893005	response	0	4		76.0	2.5	/experiments/knapen_aot/videos/R_S_yt-F1vQ5nZWhDg_21.mp4	0.0	289.6242730617523	
78	232.90716910362244	movie	1		301.0	76.0	2.5	/experiments/knapen_aot/videos/R_S_yt-F1vQ5nZWhDg_21.mp4	0.0	289.6330029964447	2.507889986038208
78	235.41505908966064	fix_post	2		12.0	76.0	2.5	/experiments/knapen_aot/videos/R_S_yt-F1vQ5nZWhDg_21.mp4	0.0	292.1408929824829	0.09997105598449707
79	235.51503014564514	fix_pre	0		31.0	77.0	2.5	blank	1.0	292.2408640384674	0.25821781158447266
79	235.76510310173035	response	0	4		77.0	2.5	blank	1.0	292.4909369945526	
79	235.77324795722961	movie	1		301.0	77.0	2.5	blank	1.0	292.4990818500519	2.508397102355957
79	238.28164505958557	fix_post	2		12.0	77.0	2.5	blank	1.0	295.00747895240784	0.10000896453857422
80	238.38165402412415	fix_pre	0		76.0	78.0	2.5	/experiments/knapen_aot/videos/S_g201_CA_A016_C002_SDR_20191114_SDR_2K_AVC.mp4	0.0	295.1074879169464	0.6332621574401855
80	238.99929809570312	response	0	4		78.0	2.5	/experiments/knapen_aot/videos/S_g201_CA_A016_C002_SDR_20191114_SDR_2K_AVC.mp4	0.0	295.7251319885254	
80	239.01491618156433	movie	1		165.0	78.0	2.5	/experiments/knapen_aot/videos/S_g201_CA_A016_C002_SDR_20191114_SDR_2K_AVC.mp4	0.0	295.7407500743866	2.508403778076172
80	241.5233199596405	fix_post	2		12.0	78.0	2.5	/experiments/knapen_aot/videos/S_g201_CA_A016_C002_SDR_20191114_SDR_2K_AVC.mp4	0.0	298.24915385246277	0.10002803802490234
81	241.6233479976654	fix_pre	0		11.0	79.0	2.5	/experiments/knapen_aot/videos/S_comp_C004_C003_PS_v01_SDR_PS_20180925_SDR_2K_AVC.mp4	0.0	298.34918189048767	0.09160304069519043
81	241.70681810379028	response	0	4		79.0	2.5	/experiments/knapen_aot/videos/S_comp_C004_C003_PS_v01_SDR_PS_20180925_SDR_2K_AVC.mp4	0.0	298.43265199661255	
81	241.7149510383606	movie	1		171.0	79.0	2.5	/experiments/knapen_aot/videos/S_comp_C004_C003_PS_v01_SDR_PS_20180925_SDR_2K_AVC.mp4	0.0	298.44078493118286	2.5083091259002686
81	244.22326016426086	fix_post	2		12.0	79.0	2.5	/experiments/knapen_aot/videos/S_comp_C004_C003_PS_v01_SDR_PS_20180925_SDR_2K_AVC.mp4	0.0	300.94909405708313	0.10007500648498535
82	244.32333517074585	fix_pre	0		30.0	80.0	2.5	/experiments/knapen_aot/videos/R_S_yt-7bSTxOajpjc_58.mp4	0.0	301.0491690635681	0.25030088424682617
82	244.55757117271423	response	0	4		80.0	2.5	/experiments/knapen_aot/videos/R_S_yt-7bSTxOajpjc_58.mp4	0.0	301.2834050655365	
82	244.57363605499268	movie	1		301.0	80.0	2.5	/experiments/knapen_aot/videos/R_S_yt-7bSTxOajpjc_58.mp4	0.0	301.29946994781494	2.507952928543091
82	247.08158898353577	fix_post	2		12.0	80.0	2.5	/experiments/knapen_aot/videos/R_S_yt-7bSTxOajpjc_58.mp4	0.0	303.80742287635803	0.10004711151123047
83	247.181636095047	fix_pre	0		72.0	81.0	2.5	/experiments/knapen_aot/videos/R_S_yt-BAwvfRmE1LU_79.mp4	0.0	303.90746998786926	0.6003670692443848
83	247.7734820842743	response	0	4		81.0	2.5	/experiments/knapen_aot/videos/R_S_yt-BAwvfRmE1LU_79.mp4	0.0	304.49931597709656	
83	247.78200316429138	movie	1		301.0	81.0	2.5	/experiments/knapen_aot/videos/R_S_yt-BAwvfRmE1LU_79.mp4	0.0	304.50783705711365	2.5079309940338135
83	250.2899341583252	fix_post	2		12.0	81.0	2.5	/experiments/knapen_aot/videos/R_S_yt-BAwvfRmE1LU_79.mp4	0.0	307.01576805114746	0.1000359058380127
84	250.3899700641632	fix_pre	0		11.0	82.0	2.5	blank	1.0	307.1158039569855	0.09165096282958984
84	250.47341394424438	response	0	4		82.0	2.5	blank	1.0	307.19924783706665	
84	250.4816210269928	movie	1		301.0	82.0	2.5	blank	1.0	307.20745491981506	2.5083489418029785
84	252.4816770553589	response	1	4		82.0	2.5	blank	1.0	309.20751094818115	
84	252.98996996879578	fix_post	2		12.0	82.0	2.5	blank	1.0	309.71580386161804	0.09999918937683105
85	253.0899691581726	fix_pre	0		40.0	83.0	2.5	/experiments/knapen_aot/videos/R_S_yt-UzWRbs9Syf4_7.mp4	0.0	309.8158030509949	0.3332979679107666
85	253.4150071144104	response	0	4		83.0	2.5	/experiments/knapen_aot/videos/R_S_yt-UzWRbs9Syf4_7.mp4	0.0	310.14084100723267	
85	253.42326712608337	movie	1		301.0	83.0	2.5	/experiments/knapen_aot/videos/R_S_yt-UzWRbs9Syf4_7.mp4	0.0	310.14910101890564	2.508352041244507
85	255.93161916732788	fix_post	2		12.0	83.0	2.5	/experiments/knapen_aot/videos/R_S_yt-UzWRbs9Syf4_7.mp4	0.0	312.65745306015015	0.10051178932189941
87	256.0321309566498	stim	0		340.0					312.75796484947205	2.8331542015075684
87	256.9484839439392	response	0	4						313.6743178367615	
87	258.86167097091675	response	0	space						315.587504863739	
