trial_nr	onset	event_type	phase	response	nr_frames	movie_index	movie_duration	movie_file	blank	onset_abs	duration
0	0.15960288047790527	stim	0		21.0					161.54813289642334	0.25709104537963867
0	0.38350796699523926	response	0	space						161.77203798294067	
1	0.41669392585754395	stim	0		120.0					161.80522394180298	0.9996418952941895
1	1.3414719104766846	response	0	space						162.73000192642212	
1	1.4163358211517334	stim	1		120.0					162.80486583709717	0.9999771118164062
1	1.6664459705352783	response	1	space						163.0549759864807	
1	2.3580269813537598	response	1	space						163.7465569972992	
2	2.4163129329681396	fix_pre	0		35.0	0.0	2.5	/experiments/knapen_aot/videos/S_yt-osz-TXlRdXs_2.mp4	0.0	163.80484294891357	0.2916550636291504
2	2.6998119354248047	response	0	space		0.0	2.5	/experiments/knapen_aot/videos/S_yt-osz-TXlRdXs_2.mp4	0.0	164.08834195137024	
2	2.70796799659729	movie	1		298.0	0.0	2.5	/experiments/knapen_aot/videos/S_yt-osz-TXlRdXs_2.mp4	0.0	164.09649801254272	2.508293867111206
2	5.216261863708496	fix_post	2		12.0	0.0	2.5	/experiments/knapen_aot/videos/S_yt-osz-TXlRdXs_2.mp4	0.0	166.60479187965393	0.10022807121276855
3	5.316489934921265	fix_pre	0		10.0	1.0	2.5	/experiments/knapen_aot/videos/R_S_yt-tX5U0Lyo6Gs_376.mp4	0.0	166.7050199508667	0.08577704429626465
3	5.396200895309448	response	0	2		1.0	2.5	/experiments/knapen_aot/videos/R_S_yt-tX5U0Lyo6Gs_376.mp4	0.0	166.78473091125488	
3	5.402266979217529	movie	1		301.0	1.0	2.5	/experiments/knapen_aot/videos/R_S_yt-tX5U0Lyo6Gs_376.mp4	0.0	166.79079699516296	2.505713939666748
3	7.907980918884277	fix_post	2		12.0	1.0	2.5	/experiments/knapen_aot/videos/R_S_yt-tX5U0Lyo6Gs_376.mp4	0.0	169.2965109348297	0.10018301010131836
4	8.008163928985596	fix_pre	0		71.0	2.0	2.5	/experiments/knapen_aot/videos/R_S_yt-qE70lj3-A78_228.mp4	0.0	169.39669394493103	0.591454029083252
4	8.591418981552124	response	0	2		2.0	2.5	/experiments/knapen_aot/videos/R_S_yt-qE70lj3-A78_228.mp4	0.0	169.97994899749756	
4	8.599617958068848	movie	1		301.0	2.0	2.5	/experiments/knapen_aot/videos/R_S_yt-qE70lj3-A78_228.mp4	0.0	169.98814797401428	2.508359909057617
4	11.107977867126465	fix_post	2		12.0	2.0	2.5	/experiments/knapen_aot/videos/R_S_yt-qE70lj3-A78_228.mp4	0.0	172.4965078830719	0.10005617141723633
5	11.208034038543701	fix_pre	0		77.0	3.0	2.5	/experiments/knapen_aot/videos/S_yt-a9bnYU0Gnxg_59.mp4	0.0	172.59656405448914	0.6415469646453857
5	11.841459035873413	response	0	2		3.0	2.5	/experiments/knapen_aot/videos/S_yt-a9bnYU0Gnxg_59.mp4	0.0	173.22998905181885	
5	11.849581003189087	movie	1		301.0	3.0	2.5	/experiments/knapen_aot/videos/S_yt-a9bnYU0Gnxg_59.mp4	0.0	173.23811101913452	2.5083868503570557
5	14.357967853546143	fix_post	2		12.0	3.0	2.5	/experiments/knapen_aot/videos/S_yt-a9bnYU0Gnxg_59.mp4	0.0	175.74649786949158	0.09995007514953613
6	14.457917928695679	fix_pre	0		71.0	4.0	2.5	/experiments/knapen_aot/videos/S_yt-JG2OY_7B-gI_537.mp4	0.0	175.8464479446411	0.5916500091552734
6	15.03392481803894	response	0	2		4.0	2.5	/experiments/knapen_aot/videos/S_yt-JG2OY_7B-gI_537.mp4	0.0	176.42245483398438	
6	15.049567937850952	movie	1		298.0	4.0	2.5	/experiments/knapen_aot/videos/S_yt-JG2OY_7B-gI_537.mp4	0.0	176.4380979537964	2.508342981338501
6	17.557910919189453	fix_post	2		12.0	4.0	2.5	/experiments/knapen_aot/videos/S_yt-JG2OY_7B-gI_537.mp4	0.0	178.9464409351349	0.09995198249816895
7	17.657862901687622	fix_pre	0		94.0	5.0	2.5	blank	1.0	179.04639291763306	0.7833499908447266
7	18.433048963546753	response	0	2		5.0	2.5	blank	1.0	179.8215789794922	
7	18.44121289253235	movie	1		301.0	5.0	2.5	blank	1.0	179.82974290847778	2.508324146270752
7	20.9495370388031	fix_post	2		12.0	5.0	2.5	blank	1.0	182.33806705474854	0.10540485382080078
8	21.0549418926239	fix_pre	0		69.0	6.0	2.5	/experiments/knapen_aot/videos/R_S_yt-osz-TXlRdXs_2.mp4	0.0	182.44347190856934	0.5779500007629395
8	21.62466287612915	response	0	2		6.0	2.5	/experiments/knapen_aot/videos/R_S_yt-osz-TXlRdXs_2.mp4	0.0	183.01319289207458	
8	21.63289189338684	movie	1		301.0	6.0	2.5	/experiments/knapen_aot/videos/R_S_yt-osz-TXlRdXs_2.mp4	0.0	183.02142190933228	2.508366107940674
8	24.141258001327515	fix_post	2		12.0	6.0	2.5	/experiments/knapen_aot/videos/R_S_yt-osz-TXlRdXs_2.mp4	0.0	185.52978801727295	0.10009384155273438
9	24.24135184288025	fix_pre	0		96.0	7.0	2.5	/experiments/knapen_aot/videos/R_S_ILSVRC2015_train_00484001.mp4	0.0	185.62988185882568	0.799828052520752
9	25.033005952835083	response	0	2		7.0	2.5	/experiments/knapen_aot/videos/R_S_ILSVRC2015_train_00484001.mp4	0.0	186.42153596878052	
9	25.041179895401	movie	1		301.0	7.0	2.5	/experiments/knapen_aot/videos/R_S_ILSVRC2015_train_00484001.mp4	0.0	186.42970991134644	2.5083539485931396
9	27.54953384399414	fix_post	2		12.0	7.0	2.5	/experiments/knapen_aot/videos/R_S_ILSVRC2015_train_00484001.mp4	0.0	188.93806385993958	0.0999610424041748
10	27.649494886398315	fix_pre	0		86.0	8.0	2.5	/experiments/knapen_aot/videos/S_ILSVRC2015_train_00067005.mp4	0.0	189.03802490234375	0.7177231311798096
10	28.357980012893677	response	0	2		8.0	2.5	/experiments/knapen_aot/videos/S_ILSVRC2015_train_00067005.mp4	0.0	189.7465100288391	
10	28.367218017578125	movie	1		301.0	8.0	2.5	/experiments/knapen_aot/videos/S_ILSVRC2015_train_00067005.mp4	0.0	189.75574803352356	2.5072948932647705
10	30.874512910842896	fix_post	2		12.0	8.0	2.5	/experiments/knapen_aot/videos/S_ILSVRC2015_train_00067005.mp4	0.0	192.26304292678833	0.10001993179321289
11	30.97453284263611	fix_pre	0		93.0	9.0	2.5	/experiments/knapen_aot/videos/R_S_video-6.mp4	0.0	192.36306285858154	0.77500319480896
11	31.741381883621216	response	0	2		9.0	2.5	/experiments/knapen_aot/videos/R_S_video-6.mp4	0.0	193.12991189956665	
11	31.74953603744507	movie	1		177.0	9.0	2.5	/experiments/knapen_aot/videos/R_S_video-6.mp4	0.0	193.1380660533905	2.50836181640625
11	34.25789785385132	fix_post	2		12.0	9.0	2.5	/experiments/knapen_aot/videos/R_S_video-6.mp4	0.0	195.64642786979675	0.09997200965881348
12	34.35786986351013	fix_pre	0		87.0	10.0	2.5	/experiments/knapen_aot/videos/R_S_wc-_W9iefBXz8bi_23.mp4	0.0	195.74639987945557	0.7249841690063477
12	35.074666023254395	response	0	2		10.0	2.5	/experiments/knapen_aot/videos/R_S_wc-_W9iefBXz8bi_23.mp4	0.0	196.46319603919983	
12	35.08285403251648	movie	1		160.0	10.0	2.5	/experiments/knapen_aot/videos/R_S_wc-_W9iefBXz8bi_23.mp4	0.0	196.4713840484619	2.508342981338501
12	37.59119701385498	fix_post	2		12.0	10.0	2.5	/experiments/knapen_aot/videos/R_S_wc-_W9iefBXz8bi_23.mp4	0.0	198.97972702980042	0.09998488426208496
13	37.691181898117065	fix_pre	0		96.0	11.0	2.5	/experiments/knapen_aot/videos/S_yt-0buqUbXVTn8_48.mp4	0.0	199.0797119140625	0.8009910583496094
13	38.48298001289368	response	0	2		11.0	2.5	/experiments/knapen_aot/videos/S_yt-0buqUbXVTn8_48.mp4	0.0	199.8715100288391	
13	38.492172956466675	movie	1		301.0	11.0	2.5	/experiments/knapen_aot/videos/S_yt-0buqUbXVTn8_48.mp4	0.0	199.8807029724121	2.50734806060791
13	40.999521017074585	fix_post	2		12.0	11.0	2.5	/experiments/knapen_aot/videos/S_yt-0buqUbXVTn8_48.mp4	0.0	202.38805103302002	0.09998393058776855
14	41.09950494766235	fix_pre	0		81.0	12.0	2.5	/experiments/knapen_aot/videos/R_S_59eT4XDXNno_25.mp4	0.0	202.4880349636078	0.6749570369720459
14	41.7662718296051	response	0	2		12.0	2.5	/experiments/knapen_aot/videos/R_S_59eT4XDXNno_25.mp4	0.0	203.15480184555054	
14	41.7744619846344	movie	1		301.0	12.0	2.5	/experiments/knapen_aot/videos/R_S_59eT4XDXNno_25.mp4	0.0	203.16299200057983	2.508333921432495
14	44.282795906066895	fix_post	2		12.0	12.0	2.5	/experiments/knapen_aot/videos/R_S_59eT4XDXNno_25.mp4	0.0	205.67132592201233	0.1001279354095459
15	44.38292384147644	fix_pre	0		88.0	13.0	2.5	blank	1.0	205.77145385742188	0.7341711521148682
15	45.10790205001831	response	0	2		13.0	2.5	blank	1.0	206.49643206596375	
15	45.11709499359131	movie	1		301.0	13.0	2.5	blank	1.0	206.50562500953674	2.5073208808898926
15	47.6244158744812	fix_post	2		12.0	13.0	2.5	blank	1.0	209.01294589042664	0.09998607635498047
16	47.72440195083618	fix_pre	0		62.0	14.0	2.5	/experiments/knapen_aot/videos/S_yt-cjndulbUtRc_51.mp4	0.0	209.11293196678162	0.5176069736480713
16	48.2328679561615	response	0	2		14.0	2.5	/experiments/knapen_aot/videos/S_yt-cjndulbUtRc_51.mp4	0.0	209.62139797210693	
16	48.24200892448425	movie	1		301.0	14.0	2.5	/experiments/knapen_aot/videos/S_yt-cjndulbUtRc_51.mp4	0.0	209.6305389404297	2.5074169635772705
16	50.74942588806152	fix_post	2		12.0	14.0	2.5	/experiments/knapen_aot/videos/S_yt-cjndulbUtRc_51.mp4	0.0	212.13795590400696	0.10017800331115723
17	50.84960389137268	fix_pre	0		83.0	15.0	2.5	/experiments/knapen_aot/videos/S_production_ID_3944248.mp4	0.0	212.23813390731812	0.6914279460906982
17	51.53290891647339	response	0	2		15.0	2.5	/experiments/knapen_aot/videos/S_production_ID_3944248.mp4	0.0	212.92143893241882	
17	51.54103183746338	movie	1		201.0	15.0	2.5	/experiments/knapen_aot/videos/S_production_ID_3944248.mp4	0.0	212.9295618534088	2.508362054824829
17	54.04939389228821	fix_post	2		12.0	15.0	2.5	/experiments/knapen_aot/videos/S_production_ID_3944248.mp4	0.0	215.43792390823364	0.100067138671875
18	54.14946103096008	fix_pre	0		79.0	16.0	2.5	/experiments/knapen_aot/videos/S_yt-1sn8u-rQRas_7.mp4	0.0	215.53799104690552	0.6582248210906982
18	54.799505949020386	response	0	2		16.0	2.5	/experiments/knapen_aot/videos/S_yt-1sn8u-rQRas_7.mp4	0.0	216.18803596496582	
18	54.80768585205078	movie	1		301.0	16.0	2.5	/experiments/knapen_aot/videos/S_yt-1sn8u-rQRas_7.mp4	0.0	216.19621586799622	2.50844407081604
18	57.31612992286682	fix_post	2		12.0	16.0	2.5	/experiments/knapen_aot/videos/S_yt-1sn8u-rQRas_7.mp4	0.0	218.70465993881226	0.0999300479888916
19	57.41605997085571	fix_pre	0		80.0	17.0	2.5	/experiments/knapen_aot/videos/S_production_ID_4540332.mp4	0.0	218.80458998680115	0.6666259765625
19	58.074604988098145	response	0	2		17.0	2.5	/experiments/knapen_aot/videos/S_production_ID_4540332.mp4	0.0	219.46313500404358	
19	58.08268594741821	movie	1		165.0	17.0	2.5	/experiments/knapen_aot/videos/S_production_ID_4540332.mp4	0.0	219.47121596336365	2.5083470344543457
19	60.59103298187256	fix_post	2		12.0	17.0	2.5	/experiments/knapen_aot/videos/S_production_ID_4540332.mp4	0.0	221.979562997818	0.09995293617248535
20	60.690985918045044	fix_pre	0		91.0	18.0	2.5	/experiments/knapen_aot/videos/R_S_yt-etQaTgGOhR4_69.mp4	0.0	222.07951593399048	0.7592611312866211
20	61.44111490249634	response	0	2		18.0	2.5	/experiments/knapen_aot/videos/R_S_yt-etQaTgGOhR4_69.mp4	0.0	222.82964491844177	
20	61.450247049331665	movie	1		301.0	18.0	2.5	/experiments/knapen_aot/videos/R_S_yt-etQaTgGOhR4_69.mp4	0.0	222.8387770652771	2.5073537826538086
20	63.957600831985474	fix_post	2		12.0	18.0	2.5	/experiments/knapen_aot/videos/R_S_yt-etQaTgGOhR4_69.mp4	0.0	225.3461308479309	0.10007405281066895
21	64.05767488479614	fix_pre	0		80.0	19.0	2.5	blank	1.0	225.44620490074158	0.6842041015625
21	64.73296999931335	response	0	2		19.0	2.5	blank	1.0	226.1215000152588	
21	64.74187898635864	movie	1		301.0	19.0	2.5	blank	1.0	226.13040900230408	2.5074329376220703
21	67.24931192398071	fix_post	2		12.0	19.0	2.5	blank	1.0	228.63784193992615	0.09996795654296875
22	67.34927988052368	fix_pre	0		78.0	20.0	2.5	/experiments/knapen_aot/videos/S_yt-9qXwehMoX7o_50.mp4	0.0	228.73780989646912	0.6500380039215088
22	67.99114084243774	response	0	2		20.0	2.5	/experiments/knapen_aot/videos/S_yt-9qXwehMoX7o_50.mp4	0.0	229.37967085838318	
22	67.99931788444519	movie	1		301.0	20.0	2.5	/experiments/knapen_aot/videos/S_yt-9qXwehMoX7o_50.mp4	0.0	229.38784790039062	2.508510112762451
22	70.50782799720764	fix_post	2		12.0	20.0	2.5	/experiments/knapen_aot/videos/S_yt-9qXwehMoX7o_50.mp4	0.0	231.89635801315308	0.09987497329711914
23	70.60770297050476	fix_pre	0		85.0	21.0	2.5	/experiments/knapen_aot/videos/R_S_yt-8LO59eN9om4_16.mp4	0.0	231.9962329864502	0.7082178592681885
23	71.30768585205078	response	0	2		21.0	2.5	/experiments/knapen_aot/videos/R_S_yt-8LO59eN9om4_16.mp4	0.0	232.69621586799622	
23	71.31592082977295	movie	1		300.0	21.0	2.5	/experiments/knapen_aot/videos/R_S_yt-8LO59eN9om4_16.mp4	0.0	232.70445084571838	2.5083742141723633
23	73.82429504394531	fix_post	2		12.0	21.0	2.5	/experiments/knapen_aot/videos/R_S_yt-8LO59eN9om4_16.mp4	0.0	235.21282505989075	0.10001087188720703
24	73.92430591583252	fix_pre	0		129.0	22.0	2.5	/experiments/knapen_aot/videos/S_wc-8bTJmWfuVyJ4_8.mp4	0.0	235.31283593177795	1.0749709606170654
24	74.9910569190979	response	0	2		22.0	2.5	/experiments/knapen_aot/videos/S_wc-8bTJmWfuVyJ4_8.mp4	0.0	236.37958693504333	
24	74.99927687644958	movie	1		175.0	22.0	2.5	/experiments/knapen_aot/videos/S_wc-8bTJmWfuVyJ4_8.mp4	0.0	236.38780689239502	2.5083770751953125
24	77.5076539516449	fix_post	2		12.0	22.0	2.5	/experiments/knapen_aot/videos/S_wc-8bTJmWfuVyJ4_8.mp4	0.0	238.89618396759033	0.09999799728393555
25	77.60765194892883	fix_pre	0		68.0	23.0	2.5	/experiments/knapen_aot/videos/S_pexels-anthony-shkraba-production-8135459.mp4	0.0	238.99618196487427	0.5666220188140869
25	78.16604590415955	response	0	2		23.0	2.5	/experiments/knapen_aot/videos/S_pexels-anthony-shkraba-production-8135459.mp4	0.0	239.55457592010498	
25	78.17427396774292	movie	1		160.0	23.0	2.5	/experiments/knapen_aot/videos/S_pexels-anthony-shkraba-production-8135459.mp4	0.0	239.56280398368835	2.508291006088257
25	80.68256497383118	fix_post	2		12.0	23.0	2.5	/experiments/knapen_aot/videos/S_pexels-anthony-shkraba-production-8135459.mp4	0.0	242.0710949897766	0.10004901885986328
26	80.78261399269104	fix_pre	0		84.0	24.0	2.5	/experiments/knapen_aot/videos/R_S_yt-l6WPyKg_3is_154.mp4	0.0	242.17114400863647	0.6999578475952148
26	81.46691584587097	response	0	2		24.0	2.5	/experiments/knapen_aot/videos/R_S_yt-l6WPyKg_3is_154.mp4	0.0	242.8554458618164	
26	81.48257184028625	movie	1		301.0	24.0	2.5	/experiments/knapen_aot/videos/R_S_yt-l6WPyKg_3is_154.mp4	0.0	242.8711018562317	2.508310079574585
26	83.99088191986084	fix_post	2		12.0	24.0	2.5	/experiments/knapen_aot/videos/R_S_yt-l6WPyKg_3is_154.mp4	0.0	245.37941193580627	0.10005402565002441
27	84.09093594551086	fix_pre	0		66.0	25.0	2.5	/experiments/knapen_aot/videos/R_S_yt-TSSPDwAQLXs_158.mp4	0.0	245.4794659614563	0.5499200820922852
27	84.63259696960449	response	0	2		25.0	2.5	/experiments/knapen_aot/videos/R_S_yt-TSSPDwAQLXs_158.mp4	0.0	246.02112698554993	
27	84.64085602760315	movie	1		297.0	25.0	2.5	/experiments/knapen_aot/videos/R_S_yt-TSSPDwAQLXs_158.mp4	0.0	246.02938604354858	2.508375883102417
27	87.14923191070557	fix_post	2		12.0	25.0	2.5	/experiments/knapen_aot/videos/R_S_yt-TSSPDwAQLXs_158.mp4	0.0	248.537761926651	0.10003995895385742
28	87.24927186965942	fix_pre	0		73.0	26.0	2.5	/experiments/knapen_aot/videos/S_yt-WrwPgZYBXlA_34.mp4	0.0	248.63780188560486	0.6082520484924316
28	87.84939098358154	response	0	2		26.0	2.5	/experiments/knapen_aot/videos/S_yt-WrwPgZYBXlA_34.mp4	0.0	249.23792099952698	
28	87.85752391815186	movie	1		301.0	26.0	2.5	/experiments/knapen_aot/videos/S_yt-WrwPgZYBXlA_34.mp4	0.0	249.2460539340973	2.5094940662384033
28	90.36701798439026	fix_post	2		12.0	26.0	2.5	/experiments/knapen_aot/videos/S_yt-WrwPgZYBXlA_34.mp4	0.0	251.7555480003357	0.09890198707580566
29	90.46591997146606	fix_pre	0		73.0	27.0	2.5	/experiments/knapen_aot/videos/S_ILSVRC2015_train_00575000.mp4	0.0	251.8544499874115	0.6089599132537842
29	91.06595587730408	response	0	2		27.0	2.5	/experiments/knapen_aot/videos/S_ILSVRC2015_train_00575000.mp4	0.0	252.4544858932495	
29	91.07487988471985	movie	1		300.0	27.0	2.5	/experiments/knapen_aot/videos/S_ILSVRC2015_train_00575000.mp4	0.0	252.46340990066528	2.5076849460601807
29	93.58256483078003	fix_post	2		12.0	27.0	2.5	/experiments/knapen_aot/videos/S_ILSVRC2015_train_00575000.mp4	0.0	254.97109484672546	0.09997320175170898
30	93.68253803253174	fix_pre	0		61.0	28.0	2.5	blank	1.0	255.07106804847717	0.5083379745483398
30	94.18261504173279	response	0	2		28.0	2.5	blank	1.0	255.57114505767822	
30	94.19087600708008	movie	1		301.0	28.0	2.5	blank	1.0	255.5794060230255	2.5082619190216064
30	96.69913792610168	fix_post	2		12.0	28.0	2.5	blank	1.0	258.0876679420471	0.10022997856140137
31	96.79936790466309	fix_pre	0		73.0	29.0	2.5	/experiments/knapen_aot/videos/R_S_yt-roThCERxVCs_133.mp4	0.0	258.1878979206085	0.6088309288024902
31	97.39941883087158	response	0	2		29.0	2.5	/experiments/knapen_aot/videos/R_S_yt-roThCERxVCs_133.mp4	0.0	258.787948846817	
31	97.40819883346558	movie	1		301.0	29.0	2.5	/experiments/knapen_aot/videos/R_S_yt-roThCERxVCs_133.mp4	0.0	258.796728849411	2.507667064666748
31	99.91586589813232	fix_post	2		12.0	29.0	2.5	/experiments/knapen_aot/videos/R_S_yt-roThCERxVCs_133.mp4	0.0	261.30439591407776	0.10001111030578613
32	100.01587700843811	fix_pre	0		71.0	30.0	2.5	/experiments/knapen_aot/videos/S_comp_LW_L001_C006_PSNK_DENOISE_v02_SDR_PS_FINAL_20180709_SDR_2K_AVC.mp4	0.0	261.40440702438354	0.5915539264678955
32	100.59930300712585	response	0	2		30.0	2.5	/experiments/knapen_aot/videos/S_comp_LW_L001_C006_PSNK_DENOISE_v02_SDR_PS_FINAL_20180709_SDR_2K_AVC.mp4	0.0	261.9878330230713	
32	100.607430934906	movie	1		163.0	30.0	2.5	/experiments/knapen_aot/videos/S_comp_LW_L001_C006_PSNK_DENOISE_v02_SDR_PS_FINAL_20180709_SDR_2K_AVC.mp4	0.0	261.99596095085144	2.5084030628204346
32	103.11583399772644	fix_post	2		12.0	30.0	2.5	/experiments/knapen_aot/videos/S_comp_LW_L001_C006_PSNK_DENOISE_v02_SDR_PS_FINAL_20180709_SDR_2K_AVC.mp4	0.0	264.5043640136719	0.10003495216369629
33	103.21586894989014	fix_pre	0		63.0	31.0	2.5	/experiments/knapen_aot/videos/R_S_G008_C015_UHD_SDR_2K_AVC.mp4	0.0	264.60439896583557	0.5256190299987793
33	103.73266792297363	response	0	2		31.0	2.5	/experiments/knapen_aot/videos/R_S_G008_C015_UHD_SDR_2K_AVC.mp4	0.0	265.12119793891907	
33	103.74148797988892	movie	1		173.0	31.0	2.5	/experiments/knapen_aot/videos/R_S_G008_C015_UHD_SDR_2K_AVC.mp4	0.0	265.13001799583435	2.5076069831848145
33	106.24909496307373	fix_post	2		12.0	31.0	2.5	/experiments/knapen_aot/videos/R_S_G008_C015_UHD_SDR_2K_AVC.mp4	0.0	267.63762497901917	0.0999760627746582
34	106.34907102584839	fix_pre	0		57.0	32.0	2.5	/experiments/knapen_aot/videos/S_yt-xnqqB-leeaQ_128.mp4	0.0	267.7376010417938	0.4756917953491211
34	106.8159019947052	response	0	2		32.0	2.5	/experiments/knapen_aot/videos/S_yt-xnqqB-leeaQ_128.mp4	0.0	268.20443201065063	
34	106.82476282119751	movie	1		301.0	32.0	2.5	/experiments/knapen_aot/videos/S_yt-xnqqB-leeaQ_128.mp4	0.0	268.21329283714294	2.5077221393585205
34	109.33248496055603	fix_post	2		12.0	32.0	2.5	/experiments/knapen_aot/videos/S_yt-xnqqB-leeaQ_128.mp4	0.0	270.72101497650146	0.09999489784240723
35	109.43247985839844	fix_pre	0		76.0	33.0	2.5	/experiments/knapen_aot/videos/S_yt-54kx8P3L1ns_6.mp4	0.0	270.8210098743439	0.633310079574585
35	110.05758690834045	response	0	2		33.0	2.5	/experiments/knapen_aot/videos/S_yt-54kx8P3L1ns_6.mp4	0.0	271.4461169242859	
35	110.06578993797302	movie	1		301.0	33.0	2.5	/experiments/knapen_aot/videos/S_yt-54kx8P3L1ns_6.mp4	0.0	271.45431995391846	2.5082991123199463
35	112.57408905029297	fix_post	2		12.0	33.0	2.5	/experiments/knapen_aot/videos/S_yt-54kx8P3L1ns_6.mp4	0.0	273.9626190662384	0.10001182556152344
36	112.67410087585449	fix_pre	0		100.0	34.0	2.5	/experiments/knapen_aot/videos/R_S_yt-5fZZrdwkFx0_28.mp4	0.0	274.0626308917999	0.8332681655883789
36	113.4992299079895	response	0	2		34.0	2.5	/experiments/knapen_aot/videos/R_S_yt-5fZZrdwkFx0_28.mp4	0.0	274.88775992393494	
36	113.50736904144287	movie	1		300.0	34.0	2.5	/experiments/knapen_aot/videos/R_S_yt-5fZZrdwkFx0_28.mp4	0.0	274.8958990573883	2.508427858352661
36	116.01579689979553	fix_post	2		12.0	34.0	2.5	/experiments/knapen_aot/videos/R_S_yt-5fZZrdwkFx0_28.mp4	0.0	277.40432691574097	0.10062098503112793
37	116.11641788482666	fix_pre	0		76.0	35.0	2.5	blank	1.0	277.5049479007721	0.6326911449432373
37	116.74097895622253	response	0	2		35.0	2.5	blank	1.0	278.12950897216797	
37	116.7491090297699	movie	1		301.0	35.0	2.5	blank	1.0	278.13763904571533	2.5082778930664062
37	119.2573869228363	fix_post	2		12.0	35.0	2.5	blank	1.0	280.64591693878174	0.10005807876586914
38	119.35744500160217	fix_pre	0		98.0	36.0	2.5	/experiments/knapen_aot/videos/R_S_yt-0buqUbXVTn8_48.mp4	0.0	280.7459750175476	0.8166389465332031
38	120.1659300327301	response	0	2		36.0	2.5	/experiments/knapen_aot/videos/R_S_yt-0buqUbXVTn8_48.mp4	0.0	281.55446004867554	
38	120.17408394813538	movie	1		300.0	36.0	2.5	/experiments/knapen_aot/videos/R_S_yt-0buqUbXVTn8_48.mp4	0.0	281.5626139640808	2.508289098739624
38	122.682373046875	fix_post	2		12.0	36.0	2.5	/experiments/knapen_aot/videos/R_S_yt-0buqUbXVTn8_48.mp4	0.0	284.07090306282043	0.10003995895385742
39	122.78241300582886	fix_pre	0		93.0	37.0	2.5	/experiments/knapen_aot/videos/R_S_yt-xnqqB-leeaQ_128.mp4	0.0	284.1709430217743	0.7750039100646973
39	123.54924988746643	response	0	2		37.0	2.5	/experiments/knapen_aot/videos/R_S_yt-xnqqB-leeaQ_128.mp4	0.0	284.93777990341187	
39	123.55741691589355	movie	1		301.0	37.0	2.5	/experiments/knapen_aot/videos/R_S_yt-xnqqB-leeaQ_128.mp4	0.0	284.945946931839	2.5083250999450684
39	126.06574201583862	fix_post	2		12.0	37.0	2.5	/experiments/knapen_aot/videos/R_S_yt-xnqqB-leeaQ_128.mp4	0.0	287.45427203178406	0.09985780715942383
40	126.16559982299805	fix_pre	0		77.0	38.0	2.5	/experiments/knapen_aot/videos/S_yt-TSSPDwAQLXs_158.mp4	0.0	287.5541298389435	0.6417100429534912
40	126.7992160320282	response	0	2		38.0	2.5	/experiments/knapen_aot/videos/S_yt-TSSPDwAQLXs_158.mp4	0.0	288.18774604797363	
40	126.80730986595154	movie	1		301.0	38.0	2.5	/experiments/knapen_aot/videos/S_yt-TSSPDwAQLXs_158.mp4	0.0	288.195839881897	2.5083999633789062
40	129.31570982933044	fix_post	2		12.0	38.0	2.5	/experiments/knapen_aot/videos/S_yt-TSSPDwAQLXs_158.mp4	0.0	290.7042398452759	0.1000361442565918
41	129.41574597358704	fix_pre	0		71.0	39.0	2.5	/experiments/knapen_aot/videos/R_S_yt-v9WGfC67DPk_50.mp4	0.0	290.80427598953247	0.5915489196777344
41	129.9991478919983	response	0	2		39.0	2.5	/experiments/knapen_aot/videos/R_S_yt-v9WGfC67DPk_50.mp4	0.0	291.3876779079437	
41	130.00729489326477	movie	1		300.0	39.0	2.5	/experiments/knapen_aot/videos/R_S_yt-v9WGfC67DPk_50.mp4	0.0	291.3958249092102	2.508394956588745
41	132.51568984985352	fix_post	2		12.0	39.0	2.5	/experiments/knapen_aot/videos/R_S_yt-v9WGfC67DPk_50.mp4	0.0	293.90421986579895	0.09998512268066406
42	132.61567497253418	fix_pre	0		89.0	40.0	2.5	/experiments/knapen_aot/videos/S_ILSVRC2015_train_00574000.mp4	0.0	294.0042049884796	0.7416319847106934
42	133.34914803504944	response	0	2		40.0	2.5	/experiments/knapen_aot/videos/S_ILSVRC2015_train_00574000.mp4	0.0	294.7376780509949	
42	133.35730695724487	movie	1		301.0	40.0	2.5	/experiments/knapen_aot/videos/S_ILSVRC2015_train_00574000.mp4	0.0	294.7458369731903	2.5083539485931396
42	135.865660905838	fix_post	2		12.0	40.0	2.5	/experiments/knapen_aot/videos/S_ILSVRC2015_train_00574000.mp4	0.0	297.25419092178345	0.09997391700744629
43	135.96563482284546	fix_pre	0		79.0	41.0	2.5	/experiments/knapen_aot/videos/R_S_ILSVRC2015_train_00379000.mp4	0.0	297.3541648387909	0.6582760810852051
43	136.615797996521	response	0	2		41.0	2.5	/experiments/knapen_aot/videos/R_S_ILSVRC2015_train_00379000.mp4	0.0	298.00432801246643	
43	136.62391090393066	movie	1		301.0	41.0	2.5	/experiments/knapen_aot/videos/R_S_ILSVRC2015_train_00379000.mp4	0.0	298.0124409198761	2.5083699226379395
43	139.1322808265686	fix_post	2		12.0	41.0	2.5	/experiments/knapen_aot/videos/R_S_ILSVRC2015_train_00379000.mp4	0.0	300.52081084251404	0.09999513626098633
44	139.2322759628296	fix_pre	0		68.0	42.0	2.5	blank	1.0	300.620805978775	0.5666508674621582
44	139.79079389572144	response	0	2		42.0	2.5	blank	1.0	301.17932391166687	
44	139.79892683029175	movie	1		301.0	42.0	2.5	blank	1.0	301.1874568462372	2.5083231925964355
44	142.30725002288818	fix_post	2		12.0	42.0	2.5	blank	1.0	303.6957800388336	0.1000359058380127
45	142.4072859287262	fix_pre	0		76.0	43.0	2.5	/experiments/knapen_aot/videos/S_yt-QQPv17nfR_E_2.mp4	0.0	303.79581594467163	0.6333060264587402
45	143.03236198425293	response	0	2		43.0	2.5	/experiments/knapen_aot/videos/S_yt-QQPv17nfR_E_2.mp4	0.0	304.42089200019836	
45	143.04059195518494	movie	1		301.0	43.0	2.5	/experiments/knapen_aot/videos/S_yt-QQPv17nfR_E_2.mp4	0.0	304.42912197113037	2.508281946182251
45	145.5488739013672	fix_post	2		12.0	43.0	2.5	/experiments/knapen_aot/videos/S_yt-QQPv17nfR_E_2.mp4	0.0	306.9374039173126	0.10003399848937988
46	145.64890789985657	fix_pre	0		64.0	44.0	2.5	/experiments/knapen_aot/videos/R_S_yt-F1vQ5nZWhDg_21.mp4	0.0	307.037437915802	0.533344030380249
46	146.17402005195618	response	0	2		44.0	2.5	/experiments/knapen_aot/videos/R_S_yt-F1vQ5nZWhDg_21.mp4	0.0	307.5625500679016	
46	146.18225193023682	movie	1		301.0	44.0	2.5	/experiments/knapen_aot/videos/R_S_yt-F1vQ5nZWhDg_21.mp4	0.0	307.57078194618225	2.508347988128662
46	148.69059991836548	fix_post	2		12.0	44.0	2.5	/experiments/knapen_aot/videos/R_S_yt-F1vQ5nZWhDg_21.mp4	0.0	310.0791299343109	0.09999394416809082
47	148.79059386253357	fix_pre	0		77.0	45.0	2.5	/experiments/knapen_aot/videos/R_S_yt-WrwPgZYBXlA_34.mp4	0.0	310.179123878479	0.6416020393371582
47	149.42407298088074	response	0	2		45.0	2.5	/experiments/knapen_aot/videos/R_S_yt-WrwPgZYBXlA_34.mp4	0.0	310.8126029968262	
47	149.43219590187073	movie	1		301.0	45.0	2.5	/experiments/knapen_aot/videos/R_S_yt-WrwPgZYBXlA_34.mp4	0.0	310.82072591781616	2.508310079574585
47	151.9405059814453	fix_post	2		12.0	45.0	2.5	/experiments/knapen_aot/videos/R_S_yt-WrwPgZYBXlA_34.mp4	0.0	313.32903599739075	0.10004591941833496
48	152.04055190086365	fix_pre	0		87.0	46.0	2.5	/experiments/knapen_aot/videos/R_S_pexels-rodnae-productions-5993237.mp4	0.0	313.4290819168091	0.7249419689178467
48	152.75735092163086	response	0	2		46.0	2.5	/experiments/knapen_aot/videos/R_S_pexels-rodnae-productions-5993237.mp4	0.0	314.1458809375763	
48	152.7654938697815	movie	1		163.0	46.0	2.5	/experiments/knapen_aot/videos/R_S_pexels-rodnae-productions-5993237.mp4	0.0	314.15402388572693	2.508394956588745
48	155.27388882637024	fix_post	2		12.0	46.0	2.5	/experiments/knapen_aot/videos/R_S_pexels-rodnae-productions-5993237.mp4	0.0	316.6624188423157	0.10000205039978027
49	155.37389087677002	fix_pre	0		86.0	47.0	2.5	/experiments/knapen_aot/videos/S_yt-BF80IX4r8x4_106.mp4	0.0	316.76242089271545	0.7166190147399902
49	156.08236503601074	response	0	2		47.0	2.5	/experiments/knapen_aot/videos/S_yt-BF80IX4r8x4_106.mp4	0.0	317.4708950519562	
49	156.09050989151	movie	1		300.0	47.0	2.5	/experiments/knapen_aot/videos/S_yt-BF80IX4r8x4_106.mp4	0.0	317.47903990745544	2.508371114730835
49	158.59888100624084	fix_post	2		12.0	47.0	2.5	/experiments/knapen_aot/videos/S_yt-BF80IX4r8x4_106.mp4	0.0	319.9874110221863	0.10042285919189453
50	158.69930386543274	fix_pre	0		74.0	48.0	2.5	/experiments/knapen_aot/videos/S_yt-9qXwehMoX7o_50.mp4	0.0	320.0878338813782	0.6162290573120117
50	159.29978585243225	response	0	2		48.0	2.5	/experiments/knapen_aot/videos/S_yt-9qXwehMoX7o_50.mp4	0.0	320.6883158683777	
50	159.31553292274475	movie	1		301.0	48.0	2.5	/experiments/knapen_aot/videos/S_yt-9qXwehMoX7o_50.mp4	0.0	320.7040629386902	2.5082709789276123
50	161.82380390167236	fix_post	2		12.0	48.0	2.5	/experiments/knapen_aot/videos/S_yt-9qXwehMoX7o_50.mp4	0.0	323.2123339176178	0.1001129150390625
51	161.92391681671143	fix_pre	0		62.0	49.0	2.5	blank	1.0	323.31244683265686	0.5165901184082031
51	162.4322898387909	response	0	2		49.0	2.5	blank	1.0	323.8208198547363	
51	162.44050693511963	movie	1		301.0	49.0	2.5	blank	1.0	323.82903695106506	2.5083301067352295
51	164.94883704185486	fix_post	2		12.0	49.0	2.5	blank	1.0	326.3373670578003	0.10005998611450195
52	165.04889702796936	fix_pre	0		24.0	50.0	2.5	/experiments/knapen_aot/videos/S_yt-v9WGfC67DPk_50.mp4	0.0	326.4374270439148	0.19992280006408691
52	165.24060487747192	response	0	2		50.0	2.5	/experiments/knapen_aot/videos/S_yt-v9WGfC67DPk_50.mp4	0.0	326.62913489341736	
52	165.24881982803345	movie	1		301.0	50.0	2.5	/experiments/knapen_aot/videos/S_yt-v9WGfC67DPk_50.mp4	0.0	326.6373498439789	2.5083041191101074
52	167.75712394714355	fix_post	2		12.0	50.0	2.5	/experiments/knapen_aot/videos/S_yt-v9WGfC67DPk_50.mp4	0.0	329.145653963089	0.10002708435058594
53	167.85715103149414	fix_pre	0		66.0	51.0	2.5	/experiments/knapen_aot/videos/S_I004_C014_SDR_2K_AVC.mp4	0.0	329.2456810474396	0.5502989292144775
53	168.39154195785522	response	0	2		51.0	2.5	/experiments/knapen_aot/videos/S_I004_C014_SDR_2K_AVC.mp4	0.0	329.78007197380066	
53	168.40744996070862	movie	1		171.0	51.0	2.5	/experiments/knapen_aot/videos/S_I004_C014_SDR_2K_AVC.mp4	0.0	329.79597997665405	2.5081560611724854
53	170.9156060218811	fix_post	2		12.0	51.0	2.5	/experiments/knapen_aot/videos/S_I004_C014_SDR_2K_AVC.mp4	0.0	332.30413603782654	0.09990286827087402
54	171.01550889015198	fix_pre	0		31.0	52.0	2.5	/experiments/knapen_aot/videos/S_yt-8LO59eN9om4_16.mp4	0.0	332.4040389060974	0.2583141326904297
54	171.2657368183136	response	0	2		52.0	2.5	/experiments/knapen_aot/videos/S_yt-8LO59eN9om4_16.mp4	0.0	332.65426683425903	
54	171.2738230228424	movie	1		301.0	52.0	2.5	/experiments/knapen_aot/videos/S_yt-8LO59eN9om4_16.mp4	0.0	332.66235303878784	2.5083019733428955
54	173.7821249961853	fix_post	2		12.0	52.0	2.5	/experiments/knapen_aot/videos/S_yt-8LO59eN9om4_16.mp4	0.0	335.17065501213074	0.10007882118225098
55	173.88220381736755	fix_pre	0		94.0	53.0	2.5	/experiments/knapen_aot/videos/S_yt-RKo978aBdzw_173.mp4	0.0	335.270733833313	0.7832632064819336
55	174.65730786323547	response	0	2		53.0	2.5	/experiments/knapen_aot/videos/S_yt-RKo978aBdzw_173.mp4	0.0	336.0458378791809	
55	174.6654670238495	movie	1		301.0	53.0	2.5	/experiments/knapen_aot/videos/S_yt-RKo978aBdzw_173.mp4	0.0	336.0539970397949	2.5083658695220947
55	177.17383289337158	fix_post	2		12.0	53.0	2.5	/experiments/knapen_aot/videos/S_yt-RKo978aBdzw_173.mp4	0.0	338.562362909317	0.09997797012329102
56	177.27381086349487	fix_pre	0		75.0	54.0	2.5	/experiments/knapen_aot/videos/S_yt-l6WPyKg_3is_154.mp4	0.0	338.6623408794403	0.6250021457672119
56	177.89064502716064	response	0	2		54.0	2.5	/experiments/knapen_aot/videos/S_yt-l6WPyKg_3is_154.mp4	0.0	339.2791750431061	
56	177.89881300926208	movie	1		300.0	54.0	2.5	/experiments/knapen_aot/videos/S_yt-l6WPyKg_3is_154.mp4	0.0	339.2873430252075	2.508327007293701
56	180.4071400165558	fix_post	2		12.0	54.0	2.5	/experiments/knapen_aot/videos/S_yt-l6WPyKg_3is_154.mp4	0.0	341.7956700325012	0.09999299049377441
57	180.50713300704956	fix_pre	0		56.0	55.0	2.5	blank	1.0	341.895663022995	0.46666383743286133
57	180.95801091194153	response	0	2		55.0	2.5	blank	1.0	342.34654092788696	
57	180.97379684448242	movie	1		301.0	55.0	2.5	blank	1.0	342.36232686042786	2.5082430839538574
57	183.48203992843628	fix_post	2		12.0	55.0	2.5	blank	1.0	344.8705699443817	0.10005593299865723
58	183.58209586143494	fix_pre	0		72.0	56.0	2.5	/experiments/knapen_aot/videos/S_yt-Wr5vs_0Iypw_161.mp4	0.0	344.97062587738037	0.5999491214752197
58	184.17393493652344	response	0	2		56.0	2.5	/experiments/knapen_aot/videos/S_yt-Wr5vs_0Iypw_161.mp4	0.0	345.5624649524689	
58	184.18204498291016	movie	1		301.0	56.0	2.5	/experiments/knapen_aot/videos/S_yt-Wr5vs_0Iypw_161.mp4	0.0	345.5705749988556	2.508373975753784
58	186.69041895866394	fix_post	2		12.0	56.0	2.5	/experiments/knapen_aot/videos/S_yt-Wr5vs_0Iypw_161.mp4	0.0	348.0789489746094	0.0999460220336914
59	186.79036498069763	fix_pre	0		83.0	57.0	2.5	/experiments/knapen_aot/videos/R_S_production_ID_4540332.mp4	0.0	348.17889499664307	0.691673994064331
59	187.47388005256653	response	0	2		57.0	2.5	/experiments/knapen_aot/videos/R_S_production_ID_4540332.mp4	0.0	348.86241006851196	
59	187.48203897476196	movie	1		172.0	57.0	2.5	/experiments/knapen_aot/videos/R_S_production_ID_4540332.mp4	0.0	348.8705689907074	2.5084140300750732
59	189.99045300483704	fix_post	2		12.0	57.0	2.5	/experiments/knapen_aot/videos/R_S_production_ID_4540332.mp4	0.0	351.37898302078247	0.09993290901184082
60	190.09038591384888	fix_pre	0		51.0	58.0	2.5	/experiments/knapen_aot/videos/R_S_yt-BF80IX4r8x4_106.mp4	0.0	351.4789159297943	0.42502903938293457
60	190.50723385810852	response	0	2		58.0	2.5	/experiments/knapen_aot/videos/R_S_yt-BF80IX4r8x4_106.mp4	0.0	351.89576387405396	
60	190.5154149532318	movie	1		301.0	58.0	2.5	/experiments/knapen_aot/videos/R_S_yt-BF80IX4r8x4_106.mp4	0.0	351.90394496917725	2.5083260536193848
60	193.0237410068512	fix_post	2		12.0	58.0	2.5	/experiments/knapen_aot/videos/R_S_yt-BF80IX4r8x4_106.mp4	0.0	354.41227102279663	0.09995603561401367
61	193.1236970424652	fix_pre	0		69.0	59.0	2.5	/experiments/knapen_aot/videos/R_S_ILSVRC2015_train_00324002.mp4	0.0	354.51222705841064	0.5751869678497314
61	193.69056701660156	response	0	2		59.0	2.5	/experiments/knapen_aot/videos/R_S_ILSVRC2015_train_00324002.mp4	0.0	355.079097032547	
61	193.69888401031494	movie	1		301.0	59.0	2.5	/experiments/knapen_aot/videos/R_S_ILSVRC2015_train_00324002.mp4	0.0	355.0874140262604	2.508220911026001
61	196.20710492134094	fix_post	2		12.0	59.0	2.5	/experiments/knapen_aot/videos/R_S_ILSVRC2015_train_00324002.mp4	0.0	357.5956349372864	0.09996604919433594
62	196.30707097053528	fix_pre	0		60.0	60.0	2.5	/experiments/knapen_aot/videos/S_pexels-mart-production-7698693.mp4	0.0	357.6956009864807	0.5000059604644775
62	196.7988748550415	response	0	2		60.0	2.5	/experiments/knapen_aot/videos/S_pexels-mart-production-7698693.mp4	0.0	358.18740487098694	
62	196.80707693099976	movie	1		201.0	60.0	2.5	/experiments/knapen_aot/videos/S_pexels-mart-production-7698693.mp4	0.0	358.1956069469452	2.508312940597534
62	199.3153898715973	fix_post	2		12.0	60.0	2.5	/experiments/knapen_aot/videos/S_pexels-mart-production-7698693.mp4	0.0	360.7039198875427	0.10000300407409668
63	199.4153928756714	fix_pre	0		75.0	61.0	2.5	/experiments/knapen_aot/videos/S_ILSVRC2015_train_00569002.mp4	0.0	360.8039228916168	0.6249711513519287
63	200.03348302841187	response	0	2		61.0	2.5	/experiments/knapen_aot/videos/S_ILSVRC2015_train_00569002.mp4	0.0	361.4220130443573	
63	200.04036402702332	movie	1		301.0	61.0	2.5	/experiments/knapen_aot/videos/S_ILSVRC2015_train_00569002.mp4	0.0	361.42889404296875	2.5083370208740234
63	202.54870104789734	fix_post	2		12.0	61.0	2.5	/experiments/knapen_aot/videos/S_ILSVRC2015_train_00569002.mp4	0.0	363.9372310638428	0.10002684593200684
64	202.64872789382935	fix_pre	0		75.0	62.0	2.5	/experiments/knapen_aot/videos/S_yt-H3EadcgKySM_58.mp4	0.0	364.0372579097748	0.6249480247497559
64	203.26550698280334	response	0	2		62.0	2.5	/experiments/knapen_aot/videos/S_yt-H3EadcgKySM_58.mp4	0.0	364.6540369987488	
64	203.2736759185791	movie	1		301.0	62.0	2.5	/experiments/knapen_aot/videos/S_yt-H3EadcgKySM_58.mp4	0.0	364.66220593452454	2.5084259510040283
64	205.78210186958313	fix_post	2		12.0	62.0	2.5	/experiments/knapen_aot/videos/S_yt-H3EadcgKySM_58.mp4	0.0	367.17063188552856	0.09983205795288086
65	205.881933927536	fix_pre	0		128.0	63.0	2.5	blank	1.0	367.27046394348145	1.0668361186981201
65	206.93291997909546	response	0	2		63.0	2.5	blank	1.0	368.3214499950409	
65	206.94877004623413	movie	1		301.0	63.0	2.5	blank	1.0	368.33730006217957	2.508220911026001
65	209.45699095726013	fix_post	2		12.0	63.0	2.5	blank	1.0	370.84552097320557	0.09992408752441406
66	209.55691504478455	fix_pre	0		78.0	64.0	2.5	/experiments/knapen_aot/videos/R_S_yt-B7ZRYVhfW2U_52.mp4	0.0	370.94544506073	0.6500427722930908
66	210.19879603385925	response	0	2		64.0	2.5	/experiments/knapen_aot/videos/R_S_yt-B7ZRYVhfW2U_52.mp4	0.0	371.5873260498047	
66	210.20695781707764	movie	1		301.0	64.0	2.5	/experiments/knapen_aot/videos/R_S_yt-B7ZRYVhfW2U_52.mp4	0.0	371.59548783302307	2.5083870887756348
66	212.71534490585327	fix_post	2		12.0	64.0	2.5	/experiments/knapen_aot/videos/R_S_yt-B7ZRYVhfW2U_52.mp4	0.0	374.1038749217987	0.09995603561401367
67	212.81530094146729	fix_pre	0		105.0	65.0	2.5	/experiments/knapen_aot/videos/R_S_ILSVRC2015_train_00411001.mp4	0.0	374.2038309574127	0.8749399185180664
67	213.6820969581604	response	0	2		65.0	2.5	/experiments/knapen_aot/videos/R_S_ILSVRC2015_train_00411001.mp4	0.0	375.07062697410583	
67	213.69024085998535	movie	1		301.0	65.0	2.5	/experiments/knapen_aot/videos/R_S_ILSVRC2015_train_00411001.mp4	0.0	375.0787708759308	2.508481025695801
67	216.19872188568115	fix_post	2		12.0	65.0	2.5	/experiments/knapen_aot/videos/R_S_ILSVRC2015_train_00411001.mp4	0.0	377.5872519016266	0.099945068359375
68	216.29866695404053	fix_pre	0		99.0	66.0	2.5	/experiments/knapen_aot/videos/R_S_yt-_zDYi2P-QxY_128.mp4	0.0	377.68719696998596	0.8249728679656982
68	217.11555194854736	response	0	2		66.0	2.5	/experiments/knapen_aot/videos/R_S_yt-_zDYi2P-QxY_128.mp4	0.0	378.5040819644928	
68	217.12363982200623	movie	1		301.0	66.0	2.5	/experiments/knapen_aot/videos/R_S_yt-_zDYi2P-QxY_128.mp4	0.0	378.51216983795166	2.5082461833953857
68	219.6318860054016	fix_post	2		12.0	66.0	2.5	/experiments/knapen_aot/videos/R_S_yt-_zDYi2P-QxY_128.mp4	0.0	381.02041602134705	0.1000218391418457
69	219.73190784454346	fix_pre	0		98.0	67.0	2.5	/experiments/knapen_aot/videos/R_S_yt-wjBwgccZM5k_150.mp4	0.0	381.1204378604889	0.8208730220794678
69	220.54039001464844	response	0	2		67.0	2.5	/experiments/knapen_aot/videos/R_S_yt-wjBwgccZM5k_150.mp4	0.0	381.9289200305939	
69	220.55278086662292	movie	1		297.0	67.0	2.5	/experiments/knapen_aot/videos/R_S_yt-wjBwgccZM5k_150.mp4	0.0	381.94131088256836	2.504101037979126
69	223.05688190460205	fix_post	2		12.0	67.0	2.5	/experiments/knapen_aot/videos/R_S_yt-wjBwgccZM5k_150.mp4	0.0	384.4454119205475	0.10005998611450195
70	223.15694189071655	fix_pre	0		99.0	68.0	2.5	/experiments/knapen_aot/videos/S_yt-RKo978aBdzw_173.mp4	0.0	384.545471906662	0.824923038482666
70	223.97369694709778	response	0	2		68.0	2.5	/experiments/knapen_aot/videos/S_yt-RKo978aBdzw_173.mp4	0.0	385.3622269630432	
70	223.98186492919922	movie	1		301.0	68.0	2.5	/experiments/knapen_aot/videos/S_yt-RKo978aBdzw_173.mp4	0.0	385.37039494514465	2.508415937423706
70	226.49028086662292	fix_post	2		12.0	68.0	2.5	/experiments/knapen_aot/videos/S_yt-RKo978aBdzw_173.mp4	0.0	387.87881088256836	0.09990096092224121
71	226.59018182754517	fix_pre	0		103.0	69.0	2.5	/experiments/knapen_aot/videos/R_S_yt-kuzdrmHa-W0_39.mp4	0.0	387.9787118434906	0.8583831787109375
71	227.4403429031372	response	0	2		69.0	2.5	/experiments/knapen_aot/videos/R_S_yt-kuzdrmHa-W0_39.mp4	0.0	388.82887291908264	
71	227.4485650062561	movie	1		301.0	69.0	2.5	/experiments/knapen_aot/videos/R_S_yt-kuzdrmHa-W0_39.mp4	0.0	388.83709502220154	2.508330821990967
71	229.95689582824707	fix_post	2		12.0	69.0	2.5	/experiments/knapen_aot/videos/R_S_yt-kuzdrmHa-W0_39.mp4	0.0	391.3454258441925	0.09994220733642578
72	230.0568380355835	fix_pre	0		88.0	70.0	2.5	blank	1.0	391.44536805152893	0.7333629131317139
72	230.7820348739624	response	0	2		70.0	2.5	blank	1.0	392.17056488990784	
72	230.7902009487152	movie	1		301.0	70.0	2.5	blank	1.0	392.17873096466064	2.508270025253296
72	233.2984709739685	fix_post	2		12.0	70.0	2.5	blank	1.0	394.68700098991394	0.10006499290466309
73	233.39853596687317	fix_pre	0		79.0	71.0	2.5	/experiments/knapen_aot/videos/R_S_yt-Jo6PxivsTOg_247.mp4	0.0	394.7870659828186	0.6583058834075928
73	234.0486388206482	response	0	2		71.0	2.5	/experiments/knapen_aot/videos/R_S_yt-Jo6PxivsTOg_247.mp4	0.0	395.4371688365936	
73	234.05684185028076	movie	1		301.0	71.0	2.5	/experiments/knapen_aot/videos/R_S_yt-Jo6PxivsTOg_247.mp4	0.0	395.4453718662262	2.508287191390991
73	236.56512904167175	fix_post	2		12.0	71.0	2.5	/experiments/knapen_aot/videos/R_S_yt-Jo6PxivsTOg_247.mp4	0.0	397.9536590576172	0.09998893737792969
74	236.66511797904968	fix_pre	0		96.0	72.0	2.5	/experiments/knapen_aot/videos/S_yt-D6fhzH21T_E_26.mp4	0.0	398.0536479949951	0.8000278472900391
74	237.4569809436798	response	0	2		72.0	2.5	/experiments/knapen_aot/videos/S_yt-D6fhzH21T_E_26.mp4	0.0	398.84551095962524	
74	237.46514582633972	movie	1		301.0	72.0	2.5	/experiments/knapen_aot/videos/S_yt-D6fhzH21T_E_26.mp4	0.0	398.85367584228516	2.5083491802215576
74	239.97349500656128	fix_post	2		12.0	72.0	2.5	/experiments/knapen_aot/videos/S_yt-D6fhzH21T_E_26.mp4	0.0	401.3620250225067	0.09999489784240723
75	240.0734899044037	fix_pre	0		72.0	73.0	2.5	/experiments/knapen_aot/videos/R_S_yt-CINajD_PVjQ_494.mp4	0.0	401.4620199203491	0.5999491214752197
75	240.66534090042114	response	0	2		73.0	2.5	/experiments/knapen_aot/videos/R_S_yt-CINajD_PVjQ_494.mp4	0.0	402.0538709163666	
75	240.6734390258789	movie	1		301.0	73.0	2.5	/experiments/knapen_aot/videos/R_S_yt-CINajD_PVjQ_494.mp4	0.0	402.06196904182434	2.5083818435668945
75	243.1818208694458	fix_post	2		12.0	73.0	2.5	/experiments/knapen_aot/videos/R_S_yt-CINajD_PVjQ_494.mp4	0.0	404.57035088539124	0.1000051498413086
76	243.2818260192871	fix_pre	0		69.0	74.0	2.5	/experiments/knapen_aot/videos/S_flickr-claywakening-27928940166_2.mp4	0.0	404.67035603523254	0.5748867988586426
76	243.8486258983612	response	0	2		74.0	2.5	/experiments/knapen_aot/videos/S_flickr-claywakening-27928940166_2.mp4	0.0	405.23715591430664	
76	243.85671281814575	movie	1		168.0	74.0	2.5	/experiments/knapen_aot/videos/S_flickr-claywakening-27928940166_2.mp4	0.0	405.2452428340912	2.5085251331329346
76	246.3652379512787	fix_post	2		12.0	74.0	2.5	/experiments/knapen_aot/videos/S_flickr-claywakening-27928940166_2.mp4	0.0	407.7537679672241	0.09986495971679688
77	246.46510291099548	fix_pre	0		69.0	75.0	2.5	blank	1.0	407.8536329269409	0.5749831199645996
77	247.03191304206848	response	0	2		75.0	2.5	blank	1.0	408.4204430580139	
77	247.04008603096008	movie	1		301.0	75.0	2.5	blank	1.0	408.4286160469055	2.5083489418029785
77	249.54843497276306	fix_post	2		12.0	75.0	2.5	blank	1.0	410.9369649887085	0.10000991821289062
78	249.64844489097595	fix_pre	0		65.0	76.0	2.5	/experiments/knapen_aot/videos/R_S_yt-kuzdrmHa-W0_39.mp4	0.0	411.0369749069214	0.5429379940032959
78	250.1818928718567	response	0	2		76.0	2.5	/experiments/knapen_aot/videos/R_S_yt-kuzdrmHa-W0_39.mp4	0.0	411.5704228878021	
78	250.19138288497925	movie	1		301.0	76.0	2.5	/experiments/knapen_aot/videos/R_S_yt-kuzdrmHa-W0_39.mp4	0.0	411.5799129009247	2.5070550441741943
78	252.69843792915344	fix_post	2		12.0	76.0	2.5	/experiments/knapen_aot/videos/R_S_yt-kuzdrmHa-W0_39.mp4	0.0	414.0869679450989	0.10001301765441895
79	252.79845094680786	fix_pre	0		78.0	77.0	2.5	/experiments/knapen_aot/videos/R_S_yt-J1dw4AznwmQ_7.mp4	0.0	414.1869809627533	0.6499390602111816
79	253.44026684761047	response	0	2		77.0	2.5	/experiments/knapen_aot/videos/R_S_yt-J1dw4AznwmQ_7.mp4	0.0	414.8287968635559	
79	253.44839000701904	movie	1		301.0	77.0	2.5	/experiments/knapen_aot/videos/R_S_yt-J1dw4AznwmQ_7.mp4	0.0	414.8369200229645	2.5083529949188232
79	255.95674300193787	fix_post	2		12.0	77.0	2.5	/experiments/knapen_aot/videos/R_S_yt-J1dw4AznwmQ_7.mp4	0.0	417.3452730178833	0.10002398490905762
80	256.0567669868469	fix_pre	0		78.0	78.0	2.5	/experiments/knapen_aot/videos/R_S_ILSVRC2015_train_00303005.mp4	0.0	417.44529700279236	0.6499128341674805
80	256.69859194755554	response	0	2		78.0	2.5	/experiments/knapen_aot/videos/R_S_ILSVRC2015_train_00303005.mp4	0.0	418.087121963501	
80	256.7066798210144	movie	1		300.0	78.0	2.5	/experiments/knapen_aot/videos/R_S_ILSVRC2015_train_00303005.mp4	0.0	418.09520983695984	2.5083889961242676
80	259.2150688171387	fix_post	2		12.0	78.0	2.5	/experiments/knapen_aot/videos/R_S_ILSVRC2015_train_00303005.mp4	0.0	420.6035988330841	0.09994912147521973
81	259.3150179386139	fix_pre	0		68.0	79.0	2.5	/experiments/knapen_aot/videos/R_S_yt-4-u4Fw_J_q8_45.mp4	0.0	420.7035479545593	0.5666720867156982
81	259.8735399246216	response	0	2		79.0	2.5	/experiments/knapen_aot/videos/R_S_yt-4-u4Fw_J_q8_45.mp4	0.0	421.262069940567	
81	259.8816900253296	movie	1		301.0	79.0	2.5	/experiments/knapen_aot/videos/R_S_yt-4-u4Fw_J_q8_45.mp4	0.0	421.270220041275	2.50826096534729
81	262.3899509906769	fix_post	2		12.0	79.0	2.5	/experiments/knapen_aot/videos/R_S_yt-4-u4Fw_J_q8_45.mp4	0.0	423.7784810066223	0.10008597373962402
82	262.4900369644165	fix_pre	0		95.0	80.0	2.5	/experiments/knapen_aot/videos/R_S_yt-NuJbedGLcQY_112.mp4	0.0	423.87856698036194	0.7916660308837891
82	263.2737009525299	response	0	2		80.0	2.5	/experiments/knapen_aot/videos/R_S_yt-NuJbedGLcQY_112.mp4	0.0	424.66223096847534	
82	263.2817029953003	movie	1		301.0	80.0	2.5	/experiments/knapen_aot/videos/R_S_yt-NuJbedGLcQY_112.mp4	0.0	424.6702330112457	2.508309841156006
82	265.7900128364563	fix_post	2		12.0	80.0	2.5	/experiments/knapen_aot/videos/R_S_yt-NuJbedGLcQY_112.mp4	0.0	427.17854285240173	0.09991717338562012
83	265.8899300098419	fix_pre	0		123.0	81.0	2.5	/experiments/knapen_aot/videos/R_S_wc-rs31_SV1Opy__6.mp4	0.0	427.27846002578735	1.0250568389892578
83	266.90681982040405	response	0	2		81.0	2.5	/experiments/knapen_aot/videos/R_S_wc-rs31_SV1Opy__6.mp4	0.0	428.2953498363495	
83	266.9149868488312	movie	1		171.0	81.0	2.5	/experiments/knapen_aot/videos/R_S_wc-rs31_SV1Opy__6.mp4	0.0	428.3035168647766	2.5083529949188232
83	269.42333984375	fix_post	2		12.0	81.0	2.5	/experiments/knapen_aot/videos/R_S_wc-rs31_SV1Opy__6.mp4	0.0	430.81186985969543	0.09999799728393555
84	269.52333784103394	fix_pre	0		82.0	82.0	2.5	/experiments/knapen_aot/videos/R_S_yt-Wr5vs_0Iypw_161.mp4	0.0	430.91186785697937	0.6832911968231201
84	270.1984009742737	response	0	2		82.0	2.5	/experiments/knapen_aot/videos/R_S_yt-Wr5vs_0Iypw_161.mp4	0.0	431.5869309902191	
84	270.20662903785706	movie	1		301.0	82.0	2.5	/experiments/knapen_aot/videos/R_S_yt-Wr5vs_0Iypw_161.mp4	0.0	431.5951590538025	2.508401870727539
84	272.7150309085846	fix_post	2		12.0	82.0	2.5	/experiments/knapen_aot/videos/R_S_yt-Wr5vs_0Iypw_161.mp4	0.0	434.10356092453003	0.10000801086425781
85	272.81503891944885	fix_pre	0		67.0	83.0	2.5	blank	1.0	434.2035689353943	0.5582671165466309
85	273.3651168346405	response	0	2		83.0	2.5	blank	1.0	434.75364685058594	
85	273.3733060359955	movie	1		301.0	83.0	2.5	blank	1.0	434.7618360519409	2.5083248615264893
85	275.881630897522	fix_post	2		12.0	83.0	2.5	blank	1.0	437.2701609134674	0.10001111030578613
87	275.98164200782776	stim	0		74.0					437.3701720237732	0.6191878318786621
87	276.58765602111816	response	0	space						437.9761860370636	
