trial_nr	onset	event_type	phase	response	nr_frames	movie_index	movie_duration	movie_file	blank	onset_abs	duration
0	0.1598072052001953	stim	0		40.0					52.44704818725586	0.333096981048584
0	0.48314499855041504	response	0	space						52.77038598060608	
1	0.4929041862487793	stim	0		121.0					52.78014516830444	1.0065789222717285
1	1.2994890213012695	response	0	space						53.586730003356934	
1	1.4994831085205078	stim	1		120.0					53.78672409057617	0.9998199939727783
1	1.6578030586242676	response	1	space						53.94504404067993	
1	2.116892099380493	response	1	space						54.40413308143616	
2	2.499303102493286	fix_pre	0		13.0	0.0	2.5	/experiments/knapen_aot/oldvideos/S_yt-FE5srhxadno_73.mp4	0.0	54.78654408454895	0.10831499099731445
2	2.59951114654541	response	0	space		0.0	2.5	/experiments/knapen_aot/oldvideos/S_yt-FE5srhxadno_73.mp4	0.0	54.886752128601074	
2	2.6076180934906006	movie	1		301.0	0.0	2.5	/experiments/knapen_aot/oldvideos/S_yt-FE5srhxadno_73.mp4	0.0	54.894859075546265	2.5083389282226562
2	5.115957021713257	fix_post	2		12.0	0.0	2.5	/experiments/knapen_aot/oldvideos/S_yt-FE5srhxadno_73.mp4	0.0	57.40319800376892	0.10006403923034668
3	5.2160210609436035	fix_pre	0		9.0	1.0	2.5	/experiments/knapen_aot/oldvideos/S_production_ID_5020960.mp4	0.0	57.50326204299927	0.07494902610778809
3	5.286562204360962	response	0	2		1.0	2.5	/experiments/knapen_aot/oldvideos/S_production_ID_5020960.mp4	0.0	57.573803186416626	
3	5.290970087051392	movie	1		190.0	1.0	2.5	/experiments/knapen_aot/oldvideos/S_production_ID_5020960.mp4	0.0	57.578211069107056	2.5084340572357178
3	7.799404144287109	fix_post	2		12.0	1.0	2.5	/experiments/knapen_aot/oldvideos/S_production_ID_5020960.mp4	0.0	60.08664512634277	0.0998990535736084
4	7.899303197860718	fix_pre	0		9.0	2.0	2.5	/experiments/knapen_aot/oldvideos/R_S_yt-dqcUJzNOzbM_156.mp4	0.0	60.18654417991638	0.07500481605529785
4	7.958540201187134	response	0	2		2.0	2.5	/experiments/knapen_aot/oldvideos/R_S_yt-dqcUJzNOzbM_156.mp4	0.0	60.2457811832428	
4	7.974308013916016	movie	1		301.0	2.0	2.5	/experiments/knapen_aot/oldvideos/R_S_yt-dqcUJzNOzbM_156.mp4	0.0	60.26154899597168	2.5083401203155518
4	10.482648134231567	fix_post	2		12.0	2.0	2.5	/experiments/knapen_aot/oldvideos/R_S_yt-dqcUJzNOzbM_156.mp4	0.0	62.76988911628723	0.09997797012329102
5	10.582626104354858	fix_pre	0		21.0	3.0	2.5	/experiments/knapen_aot/oldvideos/S_yt-ujTY1igjc3E_2.mp4	0.0	62.86986708641052	0.1750040054321289
5	10.741887092590332	response	0	2		3.0	2.5	/experiments/knapen_aot/oldvideos/S_yt-ujTY1igjc3E_2.mp4	0.0	63.029128074645996	
5	10.757630109786987	movie	1		301.0	3.0	2.5	/experiments/knapen_aot/oldvideos/S_yt-ujTY1igjc3E_2.mp4	0.0	63.04487109184265	2.508542060852051
5	12.849465131759644	response	1	2		3.0	2.5	/experiments/knapen_aot/oldvideos/S_yt-ujTY1igjc3E_2.mp4	0.0	65.13670611381531	
5	13.166089057922363	response	1	2		3.0	2.5	/experiments/knapen_aot/oldvideos/S_yt-ujTY1igjc3E_2.mp4	0.0	65.45333003997803	
5	13.266172170639038	fix_post	2		12.0	3.0	2.5	/experiments/knapen_aot/oldvideos/S_yt-ujTY1igjc3E_2.mp4	0.0	65.5534131526947	0.09984397888183594
6	13.366016149520874	fix_pre	0		43.0	4.0	2.5	/experiments/knapen_aot/oldvideos/S_production_ID_4325516.mp4	0.0	65.65325713157654	0.358259916305542
6	13.715963125228882	response	0	2		4.0	2.5	/experiments/knapen_aot/oldvideos/S_production_ID_4325516.mp4	0.0	66.00320410728455	
6	13.724276065826416	movie	1		206.0	4.0	2.5	/experiments/knapen_aot/oldvideos/S_production_ID_4325516.mp4	0.0	66.01151704788208	2.5084011554718018
6	16.232677221298218	fix_post	2		12.0	4.0	2.5	/experiments/knapen_aot/oldvideos/S_production_ID_4325516.mp4	0.0	68.51991820335388	0.09995484352111816
7	16.332632064819336	fix_pre	0		7.0	5.0	2.5	/experiments/knapen_aot/oldvideos/R_S_yt-XRQ_LSGGr3Y_712.mp4	0.0	68.619873046875	0.05831003189086914
7	16.38276720046997	response	0	2		5.0	2.5	/experiments/knapen_aot/oldvideos/R_S_yt-XRQ_LSGGr3Y_712.mp4	0.0	68.67000818252563	
7	16.390942096710205	movie	1		301.0	5.0	2.5	/experiments/knapen_aot/oldvideos/R_S_yt-XRQ_LSGGr3Y_712.mp4	0.0	68.67818307876587	2.5085721015930176
7	18.540988206863403	response	1	2		5.0	2.5	/experiments/knapen_aot/oldvideos/R_S_yt-XRQ_LSGGr3Y_712.mp4	0.0	70.82822918891907	
7	18.799333095550537	response	1	2		5.0	2.5	/experiments/knapen_aot/oldvideos/R_S_yt-XRQ_LSGGr3Y_712.mp4	0.0	71.0865740776062	
7	18.899514198303223	fix_post	2		12.0	5.0	2.5	/experiments/knapen_aot/oldvideos/R_S_yt-XRQ_LSGGr3Y_712.mp4	0.0	71.18675518035889	0.0997459888458252
8	18.999260187149048	fix_pre	0		9.0	6.0	2.5	blank	1.0	71.28650116920471	0.07499003410339355
8	19.058494091033936	response	0	2		6.0	2.5	blank	1.0	71.3457350730896	
8	19.07425022125244	movie	1		301.0	6.0	2.5	blank	1.0	71.3614912033081	2.5083577632904053
8	21.582607984542847	fix_post	2		12.0	6.0	2.5	blank	1.0	73.86984896659851	0.10001921653747559
8	21.607731103897095	response	2	2		6.0	2.5	blank	1.0	73.89497208595276	
9	21.682627201080322	fix_pre	0		34.0	7.0	2.5	/experiments/knapen_aot/oldvideos/S_comp_GMT329_113NC_396B_1105_CHINA_v04_SDR_FINAL_20180706_F900F2700_SDR_2K_AVC.mp4	0.0	73.96986818313599	0.28330183029174805
9	21.957656145095825	response	0	2		7.0	2.5	/experiments/knapen_aot/oldvideos/S_comp_GMT329_113NC_396B_1105_CHINA_v04_SDR_FINAL_20180706_F900F2700_SDR_2K_AVC.mp4	0.0	74.24489712715149	
9	21.96592903137207	movie	1		164.0	7.0	2.5	/experiments/knapen_aot/oldvideos/S_comp_GMT329_113NC_396B_1105_CHINA_v04_SDR_FINAL_20180706_F900F2700_SDR_2K_AVC.mp4	0.0	74.25317001342773	2.508502960205078
9	24.47443199157715	fix_post	2		12.0	7.0	2.5	/experiments/knapen_aot/oldvideos/S_comp_GMT329_113NC_396B_1105_CHINA_v04_SDR_FINAL_20180706_F900F2700_SDR_2K_AVC.mp4	0.0	76.76167297363281	0.09984302520751953
9	24.549386024475098	response	2	2		7.0	2.5	/experiments/knapen_aot/oldvideos/S_comp_GMT329_113NC_396B_1105_CHINA_v04_SDR_FINAL_20180706_F900F2700_SDR_2K_AVC.mp4	0.0	76.83662700653076	
10	24.574275016784668	fix_pre	0		60.0	8.0	2.5	/experiments/knapen_aot/oldvideos/S_yt-V4Oosy-ZtGY_193.mp4	0.0	76.86151599884033	0.49999403953552246
10	25.066035985946655	response	0	2		8.0	2.5	/experiments/knapen_aot/oldvideos/S_yt-V4Oosy-ZtGY_193.mp4	0.0	77.35327696800232	
10	25.07426905632019	movie	1		301.0	8.0	2.5	/experiments/knapen_aot/oldvideos/S_yt-V4Oosy-ZtGY_193.mp4	0.0	77.36151003837585	2.5083160400390625
10	27.582585096359253	fix_post	2		12.0	8.0	2.5	/experiments/knapen_aot/oldvideos/S_yt-V4Oosy-ZtGY_193.mp4	0.0	79.86982607841492	0.0999760627746582
11	27.68256115913391	fix_pre	0		15.0	9.0	2.5	/experiments/knapen_aot/oldvideos/S_yt-7Fyu2vr7zbA_31.mp4	0.0	79.96980214118958	0.12495303153991699
11	27.79930019378662	response	0	2		9.0	2.5	/experiments/knapen_aot/oldvideos/S_yt-7Fyu2vr7zbA_31.mp4	0.0	80.08654117584229	
11	27.807514190673828	movie	1		301.0	9.0	2.5	/experiments/knapen_aot/oldvideos/S_yt-7Fyu2vr7zbA_31.mp4	0.0	80.09475517272949	2.5084149837493896
11	30.315929174423218	fix_post	2		12.0	9.0	2.5	/experiments/knapen_aot/oldvideos/S_yt-7Fyu2vr7zbA_31.mp4	0.0	82.60317015647888	0.09996700286865234
12	30.41589617729187	fix_pre	0		18.0	10.0	2.5	/experiments/knapen_aot/oldvideos/R_S_yt-2lnxIdOTxog_157.mp4	0.0	82.70313715934753	0.14993882179260254
12	30.55762219429016	response	0	2		10.0	2.5	/experiments/knapen_aot/oldvideos/R_S_yt-2lnxIdOTxog_157.mp4	0.0	82.84486317634583	
12	30.565834999084473	movie	1		301.0	10.0	2.5	/experiments/knapen_aot/oldvideos/R_S_yt-2lnxIdOTxog_157.mp4	0.0	82.85307598114014	2.508479118347168
12	33.07431411743164	fix_post	2		12.0	10.0	2.5	/experiments/knapen_aot/oldvideos/R_S_yt-2lnxIdOTxog_157.mp4	0.0	85.3615550994873	0.09988093376159668
13	33.17419505119324	fix_pre	0		18.0	11.0	2.5	/experiments/knapen_aot/oldvideos/R_S_G010_C026_UHD_SDR_v02_2K_AVC.mp4	0.0	85.4614360332489	0.15129494667053223
13	33.31594514846802	response	0	2		11.0	2.5	/experiments/knapen_aot/oldvideos/R_S_G010_C026_UHD_SDR_v02_2K_AVC.mp4	0.0	85.60318613052368	
13	33.32548999786377	movie	1		180.0	11.0	2.5	/experiments/knapen_aot/oldvideos/R_S_G010_C026_UHD_SDR_v02_2K_AVC.mp4	0.0	85.61273097991943	2.5071001052856445
13	35.832590103149414	fix_post	2		12.0	11.0	2.5	/experiments/knapen_aot/oldvideos/R_S_G010_C026_UHD_SDR_v02_2K_AVC.mp4	0.0	88.11983108520508	0.09997296333312988
14	35.932563066482544	fix_pre	0		10.0	12.0	2.5	/experiments/knapen_aot/oldvideos/R_S_yt-7Fyu2vr7zbA_31.mp4	0.0	88.21980404853821	0.08340191841125488
14	36.00014519691467	response	0	2		12.0	2.5	/experiments/knapen_aot/oldvideos/R_S_yt-7Fyu2vr7zbA_31.mp4	0.0	88.28738617897034	
14	36.0159649848938	movie	1		301.0	12.0	2.5	/experiments/knapen_aot/oldvideos/R_S_yt-7Fyu2vr7zbA_31.mp4	0.0	88.30320596694946	2.508305072784424
14	38.52427005767822	fix_post	2		12.0	12.0	2.5	/experiments/knapen_aot/oldvideos/R_S_yt-7Fyu2vr7zbA_31.mp4	0.0	90.81151103973389	0.10001015663146973
15	38.62428021430969	fix_pre	0		27.0	13.0	2.5	blank	1.0	90.91152119636536	0.2249138355255127
15	38.84113812446594	response	0	2		13.0	2.5	blank	1.0	91.1283791065216	
15	38.849194049835205	movie	1		301.0	13.0	2.5	blank	1.0	91.13643503189087	2.5083529949188232
15	41.35754704475403	fix_post	2		12.0	13.0	2.5	blank	1.0	93.64478802680969	0.1000211238861084
16	41.45756816864014	fix_pre	0		28.0	14.0	2.5	/experiments/knapen_aot/oldvideos/S_Person_Going_Through_A_Bible.mp4	0.0	93.7448091506958	0.23328495025634766
16	41.67507815361023	response	0	2		14.0	2.5	/experiments/knapen_aot/oldvideos/S_Person_Going_Through_A_Bible.mp4	0.0	93.9623191356659	
16	41.690853118896484	movie	1		166.0	14.0	2.5	/experiments/knapen_aot/oldvideos/S_Person_Going_Through_A_Bible.mp4	0.0	93.97809410095215	2.5083670616149902
16	44.199220180511475	fix_post	2		12.0	14.0	2.5	/experiments/knapen_aot/oldvideos/S_Person_Going_Through_A_Bible.mp4	0.0	96.48646116256714	0.10003280639648438
17	44.29925298690796	fix_pre	0		8.0	15.0	2.5	/experiments/knapen_aot/oldvideos/R_S_comp_GMT329_113NC_396B_1105_ITALY_v03_SDR_FINAL_20180706_SDR_2K_AVC.mp4	0.0	96.58649396896362	0.06654000282287598
17	44.349995136260986	response	0	2		15.0	2.5	/experiments/knapen_aot/oldvideos/R_S_comp_GMT329_113NC_396B_1105_ITALY_v03_SDR_FINAL_20180706_SDR_2K_AVC.mp4	0.0	96.63723611831665	
17	44.365792989730835	movie	1		166.0	15.0	2.5	/experiments/knapen_aot/oldvideos/R_S_comp_GMT329_113NC_396B_1105_ITALY_v03_SDR_FINAL_20180706_SDR_2K_AVC.mp4	0.0	96.6530339717865	2.5083842277526855
17	46.87417721748352	fix_post	2		12.0	15.0	2.5	/experiments/knapen_aot/oldvideos/R_S_comp_GMT329_113NC_396B_1105_ITALY_v03_SDR_FINAL_20180706_SDR_2K_AVC.mp4	0.0	99.16141819953918	0.0999748706817627
18	46.97415208816528	fix_pre	0		16.0	16.0	2.5	/experiments/knapen_aot/oldvideos/S_yt-GWlwb2QsxIA_48.mp4	0.0	99.26139307022095	0.13332295417785645
18	47.09921407699585	response	0	2		16.0	2.5	/experiments/knapen_aot/oldvideos/S_yt-GWlwb2QsxIA_48.mp4	0.0	99.38645505905151	
18	47.10747504234314	movie	1		301.0	16.0	2.5	/experiments/knapen_aot/oldvideos/S_yt-GWlwb2QsxIA_48.mp4	0.0	99.3947160243988	2.5084550380706787
18	49.61593008041382	fix_post	2		12.0	16.0	2.5	/experiments/knapen_aot/oldvideos/S_yt-GWlwb2QsxIA_48.mp4	0.0	101.90317106246948	0.10005807876586914
19	49.71598815917969	fix_pre	0		43.0	17.0	2.5	/experiments/knapen_aot/oldvideos/S_yt-fja6A_3ys_w_116.mp4	0.0	102.00322914123535	0.3593599796295166
19	50.065922021865845	response	0	2		17.0	2.5	/experiments/knapen_aot/oldvideos/S_yt-fja6A_3ys_w_116.mp4	0.0	102.35316300392151	
19	50.075348138809204	movie	1		301.0	17.0	2.5	/experiments/knapen_aot/oldvideos/S_yt-fja6A_3ys_w_116.mp4	0.0	102.36258912086487	2.5071630477905273
19	52.58251118659973	fix_post	2		12.0	17.0	2.5	/experiments/knapen_aot/oldvideos/S_yt-fja6A_3ys_w_116.mp4	0.0	104.8697521686554	0.10001492500305176
20	52.68252611160278	fix_pre	0		25.0	18.0	2.5	/experiments/knapen_aot/oldvideos/R_S_ILSVRC2015_train_00572000.mp4	0.0	104.96976709365845	0.20830202102661133
20	52.882631063461304	response	0	2		18.0	2.5	/experiments/knapen_aot/oldvideos/R_S_ILSVRC2015_train_00572000.mp4	0.0	105.16987204551697	
20	52.890828132629395	movie	1		301.0	18.0	2.5	/experiments/knapen_aot/oldvideos/R_S_ILSVRC2015_train_00572000.mp4	0.0	105.17806911468506	2.5083470344543457
20	55.39917516708374	fix_post	2		12.0	18.0	2.5	/experiments/knapen_aot/oldvideos/R_S_ILSVRC2015_train_00572000.mp4	0.0	107.6864161491394	0.09998488426208496
21	55.499160051345825	fix_pre	0		21.0	19.0	2.5	/experiments/knapen_aot/oldvideos/S_yt-Co4dzHwupRM_18.mp4	0.0	107.78640103340149	0.17493414878845215
21	55.66593313217163	response	0	2		19.0	2.5	/experiments/knapen_aot/oldvideos/S_yt-Co4dzHwupRM_18.mp4	0.0	107.9531741142273	
21	55.67409420013428	movie	1		301.0	19.0	2.5	/experiments/knapen_aot/oldvideos/S_yt-Co4dzHwupRM_18.mp4	0.0	107.96133518218994	2.5084760189056396
21	58.18257021903992	fix_post	2		12.0	19.0	2.5	/experiments/knapen_aot/oldvideos/S_yt-Co4dzHwupRM_18.mp4	0.0	110.46981120109558	0.10107183456420898
22	58.283642053604126	fix_pre	0		26.0	20.0	2.5	/experiments/knapen_aot/oldvideos/R_S_yt-JQOHHL30Y54_101.mp4	0.0	110.57088303565979	0.21546697616577148
22	58.49089598655701	response	0	2		20.0	2.5	/experiments/knapen_aot/oldvideos/R_S_yt-JQOHHL30Y54_101.mp4	0.0	110.77813696861267	
22	58.4991090297699	movie	1		301.0	20.0	2.5	/experiments/knapen_aot/oldvideos/R_S_yt-JQOHHL30Y54_101.mp4	0.0	110.78635001182556	2.508305072784424
22	61.00741410255432	fix_post	2		12.0	20.0	2.5	/experiments/knapen_aot/oldvideos/R_S_yt-JQOHHL30Y54_101.mp4	0.0	113.29465508460999	0.0999910831451416
23	61.10740518569946	fix_pre	0		19.0	21.0	2.5	blank	1.0	113.39464616775513	0.15828490257263184
23	61.25769400596619	response	0	2		21.0	2.5	blank	1.0	113.54493498802185	
23	61.265690088272095	movie	1		301.0	21.0	2.5	blank	1.0	113.55293107032776	2.508357048034668
23	63.77404713630676	fix_post	2		12.0	21.0	2.5	blank	1.0	116.06128811836243	0.10003399848937988
24	63.87408113479614	fix_pre	0		26.0	22.0	2.5	/experiments/knapen_aot/oldvideos/S_ILSVRC2015_train_00697001.mp4	0.0	116.1613221168518	0.21661090850830078
24	64.08250308036804	response	0	2		22.0	2.5	/experiments/knapen_aot/oldvideos/S_ILSVRC2015_train_00697001.mp4	0.0	116.3697440624237	
24	64.09069204330444	movie	1		301.0	22.0	2.5	/experiments/knapen_aot/oldvideos/S_ILSVRC2015_train_00697001.mp4	0.0	116.37793302536011	2.5083680152893066
24	66.59906005859375	fix_post	2		12.0	22.0	2.5	/experiments/knapen_aot/oldvideos/S_ILSVRC2015_train_00697001.mp4	0.0	118.88630104064941	0.09998512268066406
25	66.69904518127441	fix_pre	0		23.0	23.0	2.5	/experiments/knapen_aot/oldvideos/R_S_production_ID_5020960.mp4	0.0	118.98628616333008	0.1916649341583252
25	66.88259100914001	response	0	2		23.0	2.5	/experiments/knapen_aot/oldvideos/R_S_production_ID_5020960.mp4	0.0	119.16983199119568	
25	66.89071011543274	movie	1		202.0	23.0	2.5	/experiments/knapen_aot/oldvideos/R_S_production_ID_5020960.mp4	0.0	119.1779510974884	2.5083510875701904
25	69.39906120300293	fix_post	2		12.0	23.0	2.5	/experiments/knapen_aot/oldvideos/R_S_production_ID_5020960.mp4	0.0	121.6863021850586	0.0999898910522461
26	69.49905109405518	fix_pre	0		25.0	24.0	2.5	/experiments/knapen_aot/oldvideos/S_yt-f9iXELY0EJ0_344.mp4	0.0	121.78629207611084	0.20830202102661133
26	69.69919800758362	response	0	2		24.0	2.5	/experiments/knapen_aot/oldvideos/S_yt-f9iXELY0EJ0_344.mp4	0.0	121.98643898963928	
26	69.70735311508179	movie	1		301.0	24.0	2.5	/experiments/knapen_aot/oldvideos/S_yt-f9iXELY0EJ0_344.mp4	0.0	121.99459409713745	2.508342981338501
26	72.21569609642029	fix_post	2		12.0	24.0	2.5	/experiments/knapen_aot/oldvideos/S_yt-f9iXELY0EJ0_344.mp4	0.0	124.50293707847595	0.09996199607849121
27	72.31565809249878	fix_pre	0		25.0	25.0	2.5	/experiments/knapen_aot/oldvideos/R_S_yt-uWeU2s6JYyk_10.mp4	0.0	124.60289907455444	0.20832109451293945
27	72.51576113700867	response	0	2		25.0	2.5	/experiments/knapen_aot/oldvideos/R_S_yt-uWeU2s6JYyk_10.mp4	0.0	124.80300211906433	
27	72.52397918701172	movie	1		301.0	25.0	2.5	/experiments/knapen_aot/oldvideos/R_S_yt-uWeU2s6JYyk_10.mp4	0.0	124.81122016906738	2.5084078311920166
27	75.03238701820374	fix_post	2		12.0	25.0	2.5	/experiments/knapen_aot/oldvideos/R_S_yt-uWeU2s6JYyk_10.mp4	0.0	127.3196280002594	0.10026717185974121
28	75.13265419006348	fix_pre	0		18.0	26.0	2.5	/experiments/knapen_aot/oldvideos/R_S_yt-HwEfWfFJhRo_73.mp4	0.0	127.41989517211914	0.15076279640197754
28	75.27421617507935	response	0	2		26.0	2.5	/experiments/knapen_aot/oldvideos/R_S_yt-HwEfWfFJhRo_73.mp4	0.0	127.56145715713501	
28	75.28341698646545	movie	1		301.0	26.0	2.5	/experiments/knapen_aot/oldvideos/R_S_yt-HwEfWfFJhRo_73.mp4	0.0	127.57065796852112	2.507268190383911
28	77.79068517684937	fix_post	2		12.0	26.0	2.5	/experiments/knapen_aot/oldvideos/R_S_yt-HwEfWfFJhRo_73.mp4	0.0	130.07792615890503	0.1000058650970459
29	77.89069104194641	fix_pre	0		26.0	27.0	2.5	/experiments/knapen_aot/oldvideos/R_S_comp_H005_C012_PS_v01_SDR_PS_20180925_SDR_2K_AVC.mp4	0.0	130.17793202400208	0.2166290283203125
29	78.0992751121521	response	0	2		27.0	2.5	/experiments/knapen_aot/oldvideos/R_S_comp_H005_C012_PS_v01_SDR_PS_20180925_SDR_2K_AVC.mp4	0.0	130.38651609420776	
29	78.10732007026672	movie	1		168.0	27.0	2.5	/experiments/knapen_aot/oldvideos/R_S_comp_H005_C012_PS_v01_SDR_PS_20180925_SDR_2K_AVC.mp4	0.0	130.3945610523224	2.5083420276641846
29	80.61566209793091	fix_post	2		12.0	27.0	2.5	/experiments/knapen_aot/oldvideos/R_S_comp_H005_C012_PS_v01_SDR_PS_20180925_SDR_2K_AVC.mp4	0.0	132.90290307998657	0.1000370979309082
30	80.71569919586182	fix_pre	0		12.0	28.0	2.5	blank	1.0	133.00294017791748	0.0999460220336914
30	80.80745100975037	response	0	2		28.0	2.5	blank	1.0	133.09469199180603	
30	80.81564521789551	movie	1		301.0	28.0	2.5	blank	1.0	133.10288619995117	2.50833797454834
30	83.32398319244385	fix_post	2		12.0	28.0	2.5	blank	1.0	135.6112241744995	0.10010790824890137
31	83.42409110069275	fix_pre	0		30.0	29.0	2.5	/experiments/knapen_aot/oldvideos/R_S_comp_GMT329_113NC_396B_1105_ITALY_v03_SDR_FINAL_20180706_SDR_2K_AVC.mp4	0.0	135.7113320827484	0.24989604949951172
31	83.66568803787231	response	0	2		29.0	2.5	/experiments/knapen_aot/oldvideos/R_S_comp_GMT329_113NC_396B_1105_ITALY_v03_SDR_FINAL_20180706_SDR_2K_AVC.mp4	0.0	135.95292901992798	
31	83.67398715019226	movie	1		163.0	29.0	2.5	/experiments/knapen_aot/oldvideos/R_S_comp_GMT329_113NC_396B_1105_ITALY_v03_SDR_FINAL_20180706_SDR_2K_AVC.mp4	0.0	135.96122813224792	2.508391857147217
31	86.18237900733948	fix_post	2		12.0	29.0	2.5	/experiments/knapen_aot/oldvideos/R_S_comp_GMT329_113NC_396B_1105_ITALY_v03_SDR_FINAL_20180706_SDR_2K_AVC.mp4	0.0	138.46961998939514	0.09993910789489746
32	86.28231811523438	fix_pre	0		5.0	30.0	2.5	/experiments/knapen_aot/oldvideos/R_S_ILSVRC2015_train_00538001.mp4	0.0	138.56955909729004	0.04260897636413574
32	86.31585502624512	response	0	2		30.0	2.5	/experiments/knapen_aot/oldvideos/R_S_ILSVRC2015_train_00538001.mp4	0.0	138.60309600830078	
32	86.32492709159851	movie	1		301.0	30.0	2.5	/experiments/knapen_aot/oldvideos/R_S_ILSVRC2015_train_00538001.mp4	0.0	138.61216807365417	2.507420063018799
32	88.83234715461731	fix_post	2		12.0	30.0	2.5	/experiments/knapen_aot/oldvideos/R_S_ILSVRC2015_train_00538001.mp4	0.0	141.11958813667297	0.09994101524353027
33	88.93228816986084	fix_pre	0		6.0	31.0	2.5	/experiments/knapen_aot/oldvideos/S_ILSVRC2015_train_00418001.mp4	0.0	141.2195291519165	0.04997682571411133
33	88.97411108016968	response	0	2		31.0	2.5	/experiments/knapen_aot/oldvideos/S_ILSVRC2015_train_00418001.mp4	0.0	141.26135206222534	
33	88.98226499557495	movie	1		301.0	31.0	2.5	/experiments/knapen_aot/oldvideos/S_ILSVRC2015_train_00418001.mp4	0.0	141.26950597763062	2.5083301067352295
33	91.32496500015259	response	1	2		31.0	2.5	/experiments/knapen_aot/oldvideos/S_ILSVRC2015_train_00418001.mp4	0.0	143.61220598220825	
33	91.49059510231018	fix_post	2		12.0	31.0	2.5	/experiments/knapen_aot/oldvideos/S_ILSVRC2015_train_00418001.mp4	0.0	143.77783608436584	0.10003900527954102
33	91.5407190322876	response	2	2		31.0	2.5	/experiments/knapen_aot/oldvideos/S_ILSVRC2015_train_00418001.mp4	0.0	143.82796001434326	
34	91.59063410758972	fix_pre	0		19.0	32.0	2.5	/experiments/knapen_aot/oldvideos/R_S_ILSVRC2015_train_00524001.mp4	0.0	143.87787508964539	0.15829110145568848
34	91.74069499969482	response	0	2		32.0	2.5	/experiments/knapen_aot/oldvideos/R_S_ILSVRC2015_train_00524001.mp4	0.0	144.0279359817505	
34	91.74892520904541	movie	1		299.0	32.0	2.5	/experiments/knapen_aot/oldvideos/R_S_ILSVRC2015_train_00524001.mp4	0.0	144.03616619110107	2.508572816848755
34	91.90283417701721	response	1	2		32.0	2.5	/experiments/knapen_aot/oldvideos/R_S_ILSVRC2015_train_00524001.mp4	0.0	144.19007515907288	
34	92.10218000411987	response	1	2		32.0	2.5	/experiments/knapen_aot/oldvideos/R_S_ILSVRC2015_train_00524001.mp4	0.0	144.38942098617554	
34	92.34078407287598	response	1	2		32.0	2.5	/experiments/knapen_aot/oldvideos/R_S_ILSVRC2015_train_00524001.mp4	0.0	144.62802505493164	
34	92.59901404380798	response	1	2		32.0	2.5	/experiments/knapen_aot/oldvideos/R_S_ILSVRC2015_train_00524001.mp4	0.0	144.88625502586365	
34	92.81796312332153	response	1	2		32.0	2.5	/experiments/knapen_aot/oldvideos/R_S_ILSVRC2015_train_00524001.mp4	0.0	145.1052041053772	
34	92.98466420173645	response	1	2		32.0	2.5	/experiments/knapen_aot/oldvideos/R_S_ILSVRC2015_train_00524001.mp4	0.0	145.27190518379211	
34	93.13234901428223	response	1	2		32.0	2.5	/experiments/knapen_aot/oldvideos/R_S_ILSVRC2015_train_00524001.mp4	0.0	145.4195899963379	
34	93.30743408203125	response	1	2		32.0	2.5	/experiments/knapen_aot/oldvideos/R_S_ILSVRC2015_train_00524001.mp4	0.0	145.5946750640869	
34	93.4823670387268	response	1	2		32.0	2.5	/experiments/knapen_aot/oldvideos/R_S_ILSVRC2015_train_00524001.mp4	0.0	145.76960802078247	
34	94.25749802589417	fix_post	2		12.0	32.0	2.5	/experiments/knapen_aot/oldvideos/R_S_ILSVRC2015_train_00524001.mp4	0.0	146.54473900794983	0.09980297088623047
35	94.3573009967804	fix_pre	0		7.0	33.0	2.5	/experiments/knapen_aot/oldvideos/S_yt-Ozx_f0a0ZDI_32.mp4	0.0	146.64454197883606	0.05829310417175293
35	94.40741920471191	response	0	2		33.0	2.5	/experiments/knapen_aot/oldvideos/S_yt-Ozx_f0a0ZDI_32.mp4	0.0	146.69466018676758	
35	94.41559410095215	movie	1		301.0	33.0	2.5	/experiments/knapen_aot/oldvideos/S_yt-Ozx_f0a0ZDI_32.mp4	0.0	146.7028350830078	2.508362054824829
35	96.92395615577698	fix_post	2		12.0	33.0	2.5	/experiments/knapen_aot/oldvideos/S_yt-Ozx_f0a0ZDI_32.mp4	0.0	149.21119713783264	0.09999704360961914
36	97.0239531993866	fix_pre	0		5.0	34.0	2.5	blank	1.0	149.31119418144226	0.041647911071777344
36	97.0574061870575	response	0	2		34.0	2.5	blank	1.0	149.34464716911316	
36	97.06560111045837	movie	1		301.0	34.0	2.5	blank	1.0	149.35284209251404	2.5082600116729736
36	99.41566705703735	response	1	2		34.0	2.5	blank	1.0	151.70290803909302	
36	99.57386112213135	fix_post	2		12.0	34.0	2.5	blank	1.0	151.861102104187	0.10011506080627441
37	99.67397618293762	fix_pre	0		58.0	35.0	2.5	/experiments/knapen_aot/oldvideos/S_Pz_NXxhQCJc_70.mp4	0.0	151.9612171649933	0.4842188358306885
37	100.14900422096252	response	0	2		35.0	2.5	/experiments/knapen_aot/oldvideos/S_Pz_NXxhQCJc_70.mp4	0.0	152.4362452030182	
37	100.15819501876831	movie	1		301.0	35.0	2.5	/experiments/knapen_aot/oldvideos/S_Pz_NXxhQCJc_70.mp4	0.0	152.44543600082397	2.5076231956481934
37	102.6658182144165	fix_post	2		12.0	35.0	2.5	/experiments/knapen_aot/oldvideos/S_Pz_NXxhQCJc_70.mp4	0.0	154.95305919647217	0.09987497329711914
37	102.71567511558533	response	2	4		35.0	2.5	/experiments/knapen_aot/oldvideos/S_Pz_NXxhQCJc_70.mp4	0.0	155.002916097641	
38	102.76569318771362	fix_pre	0		15.0	36.0	2.5	/experiments/knapen_aot/oldvideos/R_S_yt-TBY8F6UMnJQ_51.mp4	0.0	155.0529341697693	0.1248469352722168
38	102.88230299949646	response	0	2		36.0	2.5	/experiments/knapen_aot/oldvideos/R_S_yt-TBY8F6UMnJQ_51.mp4	0.0	155.16954398155212	
38	102.89054012298584	movie	1		301.0	36.0	2.5	/experiments/knapen_aot/oldvideos/R_S_yt-TBY8F6UMnJQ_51.mp4	0.0	155.1777811050415	2.508316993713379
38	103.03323912620544	response	1	4		36.0	2.5	/experiments/knapen_aot/oldvideos/R_S_yt-TBY8F6UMnJQ_51.mp4	0.0	155.3204801082611	
38	103.06797313690186	response	1	2		36.0	2.5	/experiments/knapen_aot/oldvideos/R_S_yt-TBY8F6UMnJQ_51.mp4	0.0	155.35521411895752	
38	103.2105360031128	response	1	2		36.0	2.5	/experiments/knapen_aot/oldvideos/R_S_yt-TBY8F6UMnJQ_51.mp4	0.0	155.49777698516846	
38	105.39885711669922	fix_post	2		12.0	36.0	2.5	/experiments/knapen_aot/oldvideos/R_S_yt-TBY8F6UMnJQ_51.mp4	0.0	157.68609809875488	0.10006499290466309
39	105.49892210960388	fix_pre	0		14.0	37.0	2.5	/experiments/knapen_aot/oldvideos/S_bing-www_nbcnews_com_storyline_isis-terror_fall-isis-stronghold-raqqa-will-change-war-extremists-not-end-n808621_86.mp4	0.0	157.78616309165955	0.11749887466430664
39	105.59972310066223	response	0	4		37.0	2.5	/experiments/knapen_aot/oldvideos/S_bing-www_nbcnews_com_storyline_isis-terror_fall-isis-stronghold-raqqa-will-change-war-extremists-not-end-n808621_86.mp4	0.0	157.8869640827179	
39	105.61642098426819	movie	1		161.0	37.0	2.5	/experiments/knapen_aot/oldvideos/S_bing-www_nbcnews_com_storyline_isis-terror_fall-isis-stronghold-raqqa-will-change-war-extremists-not-end-n808621_86.mp4	0.0	157.90366196632385	2.507550001144409
39	105.83238005638123	response	1	2		37.0	2.5	/experiments/knapen_aot/oldvideos/S_bing-www_nbcnews_com_storyline_isis-terror_fall-isis-stronghold-raqqa-will-change-war-extremists-not-end-n808621_86.mp4	0.0	158.1196210384369	
39	108.1239709854126	fix_post	2		12.0	37.0	2.5	/experiments/knapen_aot/oldvideos/S_bing-www_nbcnews_com_storyline_isis-terror_fall-isis-stronghold-raqqa-will-change-war-extremists-not-end-n808621_86.mp4	0.0	160.41121196746826	0.09990811347961426
40	108.22387909889221	fix_pre	0		7.0	38.0	2.5	/experiments/knapen_aot/oldvideos/R_S_yt-dQRqGgpS9mE_288.mp4	0.0	160.51112008094788	0.059159040451049805
40	108.26648116111755	response	0	2		38.0	2.5	/experiments/knapen_aot/oldvideos/R_S_yt-dQRqGgpS9mE_288.mp4	0.0	160.55372214317322	
40	108.28303813934326	movie	1		301.0	38.0	2.5	/experiments/knapen_aot/oldvideos/R_S_yt-dQRqGgpS9mE_288.mp4	0.0	160.57027912139893	2.507443904876709
40	108.28445816040039	response	1	4		38.0	2.5	/experiments/knapen_aot/oldvideos/R_S_yt-dQRqGgpS9mE_288.mp4	0.0	160.57169914245605	
40	110.79048204421997	fix_post	2		12.0	38.0	2.5	/experiments/knapen_aot/oldvideos/R_S_yt-dQRqGgpS9mE_288.mp4	0.0	163.07772302627563	0.10006308555603027
41	110.890545129776	fix_pre	0		12.0	39.0	2.5	/experiments/knapen_aot/oldvideos/R_S_yt-VinOD6g7xEc_135.mp4	0.0	163.17778611183167	0.10082197189331055
41	110.98230409622192	response	0	2		39.0	2.5	/experiments/knapen_aot/oldvideos/R_S_yt-VinOD6g7xEc_135.mp4	0.0	163.2695450782776	
41	110.99136710166931	movie	1		301.0	39.0	2.5	/experiments/knapen_aot/oldvideos/R_S_yt-VinOD6g7xEc_135.mp4	0.0	163.27860808372498	2.507524013519287
41	110.99934506416321	response	1	4		39.0	2.5	/experiments/knapen_aot/oldvideos/R_S_yt-VinOD6g7xEc_135.mp4	0.0	163.28658604621887	
41	113.4988911151886	fix_post	2		12.0	39.0	2.5	/experiments/knapen_aot/oldvideos/R_S_yt-VinOD6g7xEc_135.mp4	0.0	165.78613209724426	0.09993410110473633
42	113.59882521629333	fix_pre	0		20.0	40.0	2.5	/experiments/knapen_aot/oldvideos/S_yt-VinOD6g7xEc_135.mp4	0.0	165.886066198349	0.16668081283569336
42	113.75731611251831	response	0	4		40.0	2.5	/experiments/knapen_aot/oldvideos/S_yt-VinOD6g7xEc_135.mp4	0.0	166.04455709457397	
42	113.76550602912903	movie	1		301.0	40.0	2.5	/experiments/knapen_aot/oldvideos/S_yt-VinOD6g7xEc_135.mp4	0.0	166.0527470111847	2.5083541870117188
42	113.75914406776428	response	1	2		40.0	2.5	/experiments/knapen_aot/oldvideos/S_yt-VinOD6g7xEc_135.mp4	0.0	166.04638504981995	
42	116.27386021614075	fix_post	2		12.0	40.0	2.5	/experiments/knapen_aot/oldvideos/S_yt-VinOD6g7xEc_135.mp4	0.0	168.5611011981964	0.10001683235168457
43	116.37387704849243	fix_pre	0		7.0	41.0	2.5	/experiments/knapen_aot/oldvideos/R_S_ILSVRC2015_train_00569004.mp4	0.0	168.6611180305481	0.058357954025268555
43	116.42395901679993	response	0	4		41.0	2.5	/experiments/knapen_aot/oldvideos/R_S_ILSVRC2015_train_00569004.mp4	0.0	168.7111999988556	
43	116.4322350025177	movie	1		301.0	41.0	2.5	/experiments/knapen_aot/oldvideos/R_S_ILSVRC2015_train_00569004.mp4	0.0	168.71947598457336	2.508296012878418
43	116.45102405548096	response	1	2		41.0	2.5	/experiments/knapen_aot/oldvideos/R_S_ILSVRC2015_train_00569004.mp4	0.0	168.73826503753662	
43	118.94053101539612	fix_post	2		12.0	41.0	2.5	/experiments/knapen_aot/oldvideos/R_S_ILSVRC2015_train_00569004.mp4	0.0	171.22777199745178	0.09998011589050293
43	118.94225907325745	response	2	2		41.0	2.5	/experiments/knapen_aot/oldvideos/R_S_ILSVRC2015_train_00569004.mp4	0.0	171.2295000553131	
44	119.04051113128662	fix_pre	0		13.0	42.0	2.5	blank	1.0	171.32775211334229	0.10821294784545898
44	119.1405520439148	response	0	2		42.0	2.5	blank	1.0	171.42779302597046	
44	119.14872407913208	movie	1		301.0	42.0	2.5	blank	1.0	171.43596506118774	2.5083250999450684
44	121.65704917907715	fix_post	2		12.0	42.0	2.5	blank	1.0	173.9442901611328	0.10011601448059082
45	121.75716519355774	fix_pre	0		25.0	43.0	2.5	/experiments/knapen_aot/oldvideos/R_S_yt-uWeU2s6JYyk_10.mp4	0.0	174.0444061756134	0.20840096473693848
45	121.95723509788513	response	0	2		43.0	2.5	/experiments/knapen_aot/oldvideos/R_S_yt-uWeU2s6JYyk_10.mp4	0.0	174.2444760799408	
45	121.96556615829468	movie	1		301.0	43.0	2.5	/experiments/knapen_aot/oldvideos/R_S_yt-uWeU2s6JYyk_10.mp4	0.0	174.25280714035034	2.5083019733428955
45	124.47386813163757	fix_post	2		12.0	43.0	2.5	/experiments/knapen_aot/oldvideos/R_S_yt-uWeU2s6JYyk_10.mp4	0.0	176.76110911369324	0.09996390342712402
46	124.5738320350647	fix_pre	0		7.0	44.0	2.5	/experiments/knapen_aot/oldvideos/S_yt-xrPrnzvWUkY_7.mp4	0.0	176.86107301712036	0.058259010314941406
46	124.61638402938843	response	0	2		44.0	2.5	/experiments/knapen_aot/oldvideos/S_yt-xrPrnzvWUkY_7.mp4	0.0	176.9036250114441	
46	124.63209104537964	movie	1		301.0	44.0	2.5	/experiments/knapen_aot/oldvideos/S_yt-xrPrnzvWUkY_7.mp4	0.0	176.9193320274353	2.5084221363067627
46	126.47745609283447	response	1	2		44.0	2.5	/experiments/knapen_aot/oldvideos/S_yt-xrPrnzvWUkY_7.mp4	0.0	178.76469707489014	
46	126.75730013847351	response	1	2		44.0	2.5	/experiments/knapen_aot/oldvideos/S_yt-xrPrnzvWUkY_7.mp4	0.0	179.04454112052917	
46	127.00722002983093	response	1	2		44.0	2.5	/experiments/knapen_aot/oldvideos/S_yt-xrPrnzvWUkY_7.mp4	0.0	179.2944610118866	
46	127.1405131816864	fix_post	2		12.0	44.0	2.5	/experiments/knapen_aot/oldvideos/S_yt-xrPrnzvWUkY_7.mp4	0.0	179.42775416374207	0.10037398338317871
46	127.165607213974	response	2	2		44.0	2.5	/experiments/knapen_aot/oldvideos/S_yt-xrPrnzvWUkY_7.mp4	0.0	179.45284819602966	
47	127.24088716506958	fix_pre	0		56.0	45.0	2.5	/experiments/knapen_aot/oldvideos/R_S_yt-QiJyOUkuo38_6.mp4	0.0	179.52812814712524	0.4662778377532959
47	127.6989221572876	response	0	2		45.0	2.5	/experiments/knapen_aot/oldvideos/R_S_yt-QiJyOUkuo38_6.mp4	0.0	179.98616313934326	
47	127.70716500282288	movie	1		301.0	45.0	2.5	/experiments/knapen_aot/oldvideos/R_S_yt-QiJyOUkuo38_6.mp4	0.0	179.99440598487854	2.5082690715789795
47	130.21543407440186	fix_post	2		12.0	45.0	2.5	/experiments/knapen_aot/oldvideos/R_S_yt-QiJyOUkuo38_6.mp4	0.0	182.50267505645752	0.10004496574401855
48	130.31547904014587	fix_pre	0		13.0	46.0	2.5	/experiments/knapen_aot/oldvideos/S_yt-kINZMjys3O4_112.mp4	0.0	182.60272002220154	0.10833406448364258
48	130.41557216644287	response	0	2		46.0	2.5	/experiments/knapen_aot/oldvideos/S_yt-kINZMjys3O4_112.mp4	0.0	182.70281314849854	
48	130.42381310462952	movie	1		301.0	46.0	2.5	/experiments/knapen_aot/oldvideos/S_yt-kINZMjys3O4_112.mp4	0.0	182.71105408668518	2.5083229541778564
48	132.93213605880737	fix_post	2		12.0	46.0	2.5	/experiments/knapen_aot/oldvideos/S_yt-kINZMjys3O4_112.mp4	0.0	185.21937704086304	0.09996700286865234
49	133.03210306167603	fix_pre	0		8.0	47.0	2.5	/experiments/knapen_aot/oldvideos/S_yt-TNtO8RPd3iE_25.mp4	0.0	185.3193440437317	0.06665897369384766
49	133.0905420780182	response	0	2		47.0	2.5	/experiments/knapen_aot/oldvideos/S_yt-TNtO8RPd3iE_25.mp4	0.0	185.37778306007385	
49	133.09876203536987	movie	1		301.0	47.0	2.5	/experiments/knapen_aot/oldvideos/S_yt-TNtO8RPd3iE_25.mp4	0.0	185.38600301742554	2.5083460807800293
49	133.29887199401855	response	1	2		47.0	2.5	/experiments/knapen_aot/oldvideos/S_yt-TNtO8RPd3iE_25.mp4	0.0	185.58611297607422	
49	135.46552515029907	response	1	2		47.0	2.5	/experiments/knapen_aot/oldvideos/S_yt-TNtO8RPd3iE_25.mp4	0.0	187.75276613235474	
49	135.6071081161499	fix_post	2		12.0	47.0	2.5	/experiments/knapen_aot/oldvideos/S_yt-TNtO8RPd3iE_25.mp4	0.0	187.89434909820557	0.09999608993530273
49	135.640527009964	response	2	2		47.0	2.5	/experiments/knapen_aot/oldvideos/S_yt-TNtO8RPd3iE_25.mp4	0.0	187.92776799201965	
50	135.7071042060852	fix_pre	0		17.0	48.0	2.5	/experiments/knapen_aot/oldvideos/S_yt-cokedWwwYYs_136.mp4	0.0	187.99434518814087	0.14164996147155762
50	135.8405020236969	response	0	2		48.0	2.5	/experiments/knapen_aot/oldvideos/S_yt-cokedWwwYYs_136.mp4	0.0	188.12774300575256	
50	135.84875416755676	movie	1		301.0	48.0	2.5	/experiments/knapen_aot/oldvideos/S_yt-cokedWwwYYs_136.mp4	0.0	188.13599514961243	2.5083539485931396
50	138.3571081161499	fix_post	2		11.0	48.0	2.5	/experiments/knapen_aot/oldvideos/S_yt-cokedWwwYYs_136.mp4	0.0	190.64434909820557	0.09231305122375488
50	138.44050002098083	response	2	2		48.0	2.5	/experiments/knapen_aot/oldvideos/S_yt-cokedWwwYYs_136.mp4	0.0	190.7277410030365	
51	138.44942116737366	fix_pre	0		28.0	49.0	2.5	blank	1.0	190.73666214942932	0.23266386985778809
51	138.6738600730896	response	0	2		49.0	2.5	blank	1.0	190.96110105514526	
51	138.68208503723145	movie	1		301.0	49.0	2.5	blank	1.0	190.9693260192871	2.5083200931549072
51	138.84046912193298	response	1	2		49.0	2.5	blank	1.0	191.12771010398865	
51	139.0571219921112	response	1	2		49.0	2.5	blank	1.0	191.34436297416687	
51	139.24874210357666	response	1	2		49.0	2.5	blank	1.0	191.53598308563232	
51	141.19040513038635	fix_post	2		12.0	49.0	2.5	blank	1.0	193.47764611244202	0.10001301765441895
52	141.29041814804077	fix_pre	0		12.0	50.0	2.5	/experiments/knapen_aot/oldvideos/R_S_PA_A001_C007_SDR_20190717_SDR_2K_AVC.mp4	0.0	193.57765913009644	0.09998393058776855
52	141.38219618797302	response	0	2		50.0	2.5	/experiments/knapen_aot/oldvideos/R_S_PA_A001_C007_SDR_20190717_SDR_2K_AVC.mp4	0.0	193.6694371700287	
52	141.39040207862854	movie	1		164.0	50.0	2.5	/experiments/knapen_aot/oldvideos/R_S_PA_A001_C007_SDR_20190717_SDR_2K_AVC.mp4	0.0	193.6776430606842	2.508413076400757
52	143.8988151550293	fix_post	2		12.0	50.0	2.5	/experiments/knapen_aot/oldvideos/R_S_PA_A001_C007_SDR_20190717_SDR_2K_AVC.mp4	0.0	196.18605613708496	0.09993886947631836
53	143.99875402450562	fix_pre	0		19.0	51.0	2.5	/experiments/knapen_aot/oldvideos/S_ILSVRC2015_train_00756000.mp4	0.0	196.28599500656128	0.1589679718017578
53	144.14887499809265	response	0	2		51.0	2.5	/experiments/knapen_aot/oldvideos/S_ILSVRC2015_train_00756000.mp4	0.0	196.43611598014832	
53	144.15772199630737	movie	1		301.0	51.0	2.5	/experiments/knapen_aot/oldvideos/S_ILSVRC2015_train_00756000.mp4	0.0	196.44496297836304	2.5077130794525146
53	146.6654350757599	fix_post	2		12.0	51.0	2.5	/experiments/knapen_aot/oldvideos/S_ILSVRC2015_train_00756000.mp4	0.0	198.95267605781555	0.09991812705993652
54	146.76535320281982	fix_pre	0		29.0	52.0	2.5	/experiments/knapen_aot/oldvideos/S_yt-W00vtWnXgIk_73.mp4	0.0	199.0525941848755	0.24169492721557617
54	146.9988350868225	response	0	2		52.0	2.5	/experiments/knapen_aot/oldvideos/S_yt-W00vtWnXgIk_73.mp4	0.0	199.28607606887817	
54	147.0070481300354	movie	1		301.0	52.0	2.5	/experiments/knapen_aot/oldvideos/S_yt-W00vtWnXgIk_73.mp4	0.0	199.29428911209106	2.508375883102417
54	149.51542401313782	fix_post	2		12.0	52.0	2.5	/experiments/knapen_aot/oldvideos/S_yt-W00vtWnXgIk_73.mp4	0.0	201.80266499519348	0.100006103515625
55	149.61543011665344	fix_pre	0		12.0	53.0	2.5	/experiments/knapen_aot/oldvideos/R_S_G010_C026_UHD_SDR_v02_2K_AVC.mp4	0.0	201.9026710987091	0.09994888305664062
55	149.70721912384033	response	0	2		53.0	2.5	/experiments/knapen_aot/oldvideos/R_S_G010_C026_UHD_SDR_v02_2K_AVC.mp4	0.0	201.994460105896	
55	149.71537899971008	movie	1		173.0	53.0	2.5	/experiments/knapen_aot/oldvideos/R_S_G010_C026_UHD_SDR_v02_2K_AVC.mp4	0.0	202.00261998176575	2.508409023284912
55	152.223788022995	fix_post	2		12.0	53.0	2.5	/experiments/knapen_aot/oldvideos/R_S_G010_C026_UHD_SDR_v02_2K_AVC.mp4	0.0	204.51102900505066	0.1005849838256836
55	152.29048609733582	response	2	2		53.0	2.5	/experiments/knapen_aot/oldvideos/R_S_G010_C026_UHD_SDR_v02_2K_AVC.mp4	0.0	204.57772707939148	
56	152.32437300682068	fix_pre	0		46.0	54.0	2.5	/experiments/knapen_aot/oldvideos/R_S_yt-qurTr1BJMec_244.mp4	0.0	204.61161398887634	0.3826010227203369
56	152.6988000869751	response	0	2		54.0	2.5	/experiments/knapen_aot/oldvideos/R_S_yt-qurTr1BJMec_244.mp4	0.0	204.98604106903076	
56	152.70697402954102	movie	1		301.0	54.0	2.5	/experiments/knapen_aot/oldvideos/R_S_yt-qurTr1BJMec_244.mp4	0.0	204.99421501159668	2.5084080696105957
56	155.2153820991516	fix_post	2		12.0	54.0	2.5	/experiments/knapen_aot/oldvideos/R_S_yt-qurTr1BJMec_244.mp4	0.0	207.50262308120728	0.10001802444458008
57	155.3154001235962	fix_pre	0		30.0	55.0	2.5	/experiments/knapen_aot/oldvideos/R_S_yt-ak01CHYgEOs_1383.mp4	0.0	207.60264110565186	0.24995708465576172
57	155.5496871471405	response	0	2		55.0	2.5	/experiments/knapen_aot/oldvideos/R_S_yt-ak01CHYgEOs_1383.mp4	0.0	207.83692812919617	
57	155.56535720825195	movie	1		300.0	55.0	2.5	/experiments/knapen_aot/oldvideos/R_S_yt-ak01CHYgEOs_1383.mp4	0.0	207.85259819030762	2.4999477863311768
57	158.05703902244568	response	1	2		55.0	2.5	/experiments/knapen_aot/oldvideos/R_S_yt-ak01CHYgEOs_1383.mp4	0.0	210.34428000450134	
57	158.06530499458313	fix_post	2		13.0	55.0	2.5	/experiments/knapen_aot/oldvideos/R_S_yt-ak01CHYgEOs_1383.mp4	0.0	210.3525459766388	0.10848212242126465
58	158.1737871170044	fix_pre	0		18.0	56.0	2.5	blank	1.0	210.46102809906006	0.1505589485168457
58	158.31534504890442	response	0	2		56.0	2.5	blank	1.0	210.60258603096008	
58	158.32434606552124	movie	1		301.0	56.0	2.5	blank	1.0	210.6115870475769	2.507686138153076
58	160.83203220367432	fix_post	2		12.0	56.0	2.5	blank	1.0	213.11927318572998	0.10004591941833496
59	160.93207812309265	fix_pre	0		32.0	57.0	2.5	/experiments/knapen_aot/oldvideos/R_S_yt-OLDm2slgfA4_3.mp4	0.0	213.21931910514832	0.267132043838501
59	161.1903359889984	response	0	2		57.0	2.5	/experiments/knapen_aot/oldvideos/R_S_yt-OLDm2slgfA4_3.mp4	0.0	213.47757697105408	
59	161.19921016693115	movie	1		301.0	57.0	2.5	/experiments/knapen_aot/oldvideos/R_S_yt-OLDm2slgfA4_3.mp4	0.0	213.48645114898682	2.507776975631714
59	163.70698714256287	fix_post	2		12.0	57.0	2.5	/experiments/knapen_aot/oldvideos/R_S_yt-OLDm2slgfA4_3.mp4	0.0	215.99422812461853	0.10000491142272949
60	163.8069920539856	fix_pre	0		215.0	58.0	2.5	/experiments/knapen_aot/oldvideos/S_P007_C027_UHD_SDR_2K_AVC.mp4	0.0	216.09423303604126	1.7916309833526611
60	165.59041714668274	response	0	2		58.0	2.5	/experiments/knapen_aot/oldvideos/S_P007_C027_UHD_SDR_2K_AVC.mp4	0.0	217.8776581287384	
60	165.59862303733826	movie	1		171.0	58.0	2.5	/experiments/knapen_aot/oldvideos/S_P007_C027_UHD_SDR_2K_AVC.mp4	0.0	217.88586401939392	2.50858998298645
60	168.1072130203247	fix_post	2		12.0	58.0	2.5	/experiments/knapen_aot/oldvideos/S_P007_C027_UHD_SDR_2K_AVC.mp4	0.0	220.39445400238037	0.09981513023376465
61	168.20702815055847	fix_pre	0		13.0	59.0	2.5	/experiments/knapen_aot/oldvideos/S_comp_GMT329_113NC_396B_1105_ITALY_v03_SDR_FINAL_20180706_SDR_2K_AVC.mp4	0.0	220.49426913261414	0.10831403732299805
61	168.3071630001068	response	0	2		59.0	2.5	/experiments/knapen_aot/oldvideos/S_comp_GMT329_113NC_396B_1105_ITALY_v03_SDR_FINAL_20180706_SDR_2K_AVC.mp4	0.0	220.59440398216248	
61	168.31534218788147	movie	1		170.0	59.0	2.5	/experiments/knapen_aot/oldvideos/S_comp_GMT329_113NC_396B_1105_ITALY_v03_SDR_FINAL_20180706_SDR_2K_AVC.mp4	0.0	220.60258316993713	2.5083370208740234
61	170.8236792087555	fix_post	2		12.0	59.0	2.5	/experiments/knapen_aot/oldvideos/S_comp_GMT329_113NC_396B_1105_ITALY_v03_SDR_FINAL_20180706_SDR_2K_AVC.mp4	0.0	223.11092019081116	0.09996891021728516
62	170.92364811897278	fix_pre	0		4.0	60.0	2.5	/experiments/knapen_aot/oldvideos/R_S_yt-gOoDjhfSPj0_162.mp4	0.0	223.21088910102844	0.03335309028625488
62	170.94962215423584	response	0	2		60.0	2.5	/experiments/knapen_aot/oldvideos/R_S_yt-gOoDjhfSPj0_162.mp4	0.0	223.2368631362915	
62	170.95700120925903	movie	1		301.0	60.0	2.5	/experiments/knapen_aot/oldvideos/R_S_yt-gOoDjhfSPj0_162.mp4	0.0	223.2442421913147	2.5083467960357666
62	173.2443380355835	response	1	2		60.0	2.5	/experiments/knapen_aot/oldvideos/R_S_yt-gOoDjhfSPj0_162.mp4	0.0	225.53157901763916	
62	173.4653480052948	fix_post	2		12.0	60.0	2.5	/experiments/knapen_aot/oldvideos/R_S_yt-gOoDjhfSPj0_162.mp4	0.0	225.75258898735046	0.09996318817138672
62	173.47377920150757	response	2	2		60.0	2.5	/experiments/knapen_aot/oldvideos/R_S_yt-gOoDjhfSPj0_162.mp4	0.0	225.76102018356323	
63	173.5653111934662	fix_pre	0		26.0	61.0	2.5	/experiments/knapen_aot/oldvideos/R_S_yt-IlW1U39Dga4_5.mp4	0.0	225.85255217552185	0.2172238826751709
63	173.77372312545776	response	0	2		61.0	2.5	/experiments/knapen_aot/oldvideos/R_S_yt-IlW1U39Dga4_5.mp4	0.0	226.06096410751343	
63	173.78253507614136	movie	1		301.0	61.0	2.5	/experiments/knapen_aot/oldvideos/R_S_yt-IlW1U39Dga4_5.mp4	0.0	226.06977605819702	2.5077860355377197
63	175.42380118370056	response	1	2		61.0	2.5	/experiments/knapen_aot/oldvideos/R_S_yt-IlW1U39Dga4_5.mp4	0.0	227.71104216575623	
63	175.6653790473938	response	1	2		61.0	2.5	/experiments/knapen_aot/oldvideos/R_S_yt-IlW1U39Dga4_5.mp4	0.0	227.95262002944946	
63	175.84052300453186	response	1	2		61.0	2.5	/experiments/knapen_aot/oldvideos/R_S_yt-IlW1U39Dga4_5.mp4	0.0	228.12776398658752	
63	176.06038999557495	response	1	2		61.0	2.5	/experiments/knapen_aot/oldvideos/R_S_yt-IlW1U39Dga4_5.mp4	0.0	228.34763097763062	
63	176.29032111167908	fix_post	2		12.0	61.0	2.5	/experiments/knapen_aot/oldvideos/R_S_yt-IlW1U39Dga4_5.mp4	0.0	228.57756209373474	0.10002589225769043
64	176.39034700393677	fix_pre	0		10.0	62.0	2.5	blank	1.0	228.67758798599243	0.0834050178527832
64	176.457857131958	response	0	2		62.0	2.5	blank	1.0	228.74509811401367	
64	176.47375202178955	movie	1		301.0	62.0	2.5	blank	1.0	228.76099300384521	2.50811505317688
64	176.6820352077484	response	1	2		62.0	2.5	blank	1.0	228.96927618980408	
64	176.87365221977234	response	1	2		62.0	2.5	blank	1.0	229.160893201828	
64	178.98186707496643	fix_post	2		12.0	62.0	2.5	blank	1.0	231.2691080570221	0.10016894340515137
65	179.08203601837158	fix_pre	0		23.0	63.0	2.5	/experiments/knapen_aot/oldvideos/S_yt-z16pdVTZK1o_3.mp4	0.0	231.36927700042725	0.19150519371032715
65	179.257719039917	response	0	2		63.0	2.5	/experiments/knapen_aot/oldvideos/S_yt-z16pdVTZK1o_3.mp4	0.0	231.54496002197266	
65	179.2735412120819	movie	1		301.0	63.0	2.5	/experiments/knapen_aot/oldvideos/S_yt-z16pdVTZK1o_3.mp4	0.0	231.56078219413757	2.5084447860717773
65	181.7819859981537	fix_post	2		12.0	63.0	2.5	/experiments/knapen_aot/oldvideos/S_yt-z16pdVTZK1o_3.mp4	0.0	234.06922698020935	0.09998106956481934
66	181.8819670677185	fix_pre	0		10.0	64.0	2.5	/experiments/knapen_aot/oldvideos/R_S_yt--vHa85DHvLU_31.mp4	0.0	234.16920804977417	0.08328795433044434
66	181.94948720932007	response	0	2		64.0	2.5	/experiments/knapen_aot/oldvideos/R_S_yt--vHa85DHvLU_31.mp4	0.0	234.23672819137573	
66	181.96525502204895	movie	1		301.0	64.0	2.5	/experiments/knapen_aot/oldvideos/R_S_yt--vHa85DHvLU_31.mp4	0.0	234.25249600410461	2.508331060409546
66	184.4735860824585	fix_post	2		12.0	64.0	2.5	/experiments/knapen_aot/oldvideos/R_S_yt--vHa85DHvLU_31.mp4	0.0	236.76082706451416	0.10041308403015137
67	184.57399916648865	fix_pre	0		18.0	65.0	2.5	/experiments/knapen_aot/oldvideos/R_S_yt-hvuC_2YXsTQ_159.mp4	0.0	236.8612401485443	0.14954590797424316
67	184.71529507637024	response	0	2		65.0	2.5	/experiments/knapen_aot/oldvideos/R_S_yt-hvuC_2YXsTQ_159.mp4	0.0	237.0025360584259	
67	184.7235450744629	movie	1		301.0	65.0	2.5	/experiments/knapen_aot/oldvideos/R_S_yt-hvuC_2YXsTQ_159.mp4	0.0	237.01078605651855	2.5083930492401123
67	187.231938123703	fix_post	2		11.0	65.0	2.5	/experiments/knapen_aot/oldvideos/R_S_yt-hvuC_2YXsTQ_159.mp4	0.0	239.51917910575867	0.09208297729492188
67	187.31530809402466	response	2	2		65.0	2.5	/experiments/knapen_aot/oldvideos/R_S_yt-hvuC_2YXsTQ_159.mp4	0.0	239.60254907608032	
68	187.32402110099792	fix_pre	0		45.0	66.0	2.5	/experiments/knapen_aot/oldvideos/S_yt-VfASxEzDrvc_145.mp4	0.0	239.6112620830536	0.3749349117279053
68	187.69034218788147	response	0	2		66.0	2.5	/experiments/knapen_aot/oldvideos/S_yt-VfASxEzDrvc_145.mp4	0.0	239.97758316993713	
68	187.69895601272583	movie	1		301.0	66.0	2.5	/experiments/knapen_aot/oldvideos/S_yt-VfASxEzDrvc_145.mp4	0.0	239.9861969947815	2.507970094680786
68	189.9653091430664	response	1	2		66.0	2.5	/experiments/knapen_aot/oldvideos/S_yt-VfASxEzDrvc_145.mp4	0.0	242.25255012512207	
68	190.20692610740662	fix_post	2		12.0	66.0	2.5	/experiments/knapen_aot/oldvideos/S_yt-VfASxEzDrvc_145.mp4	0.0	242.49416708946228	0.0999441146850586
68	190.20962119102478	response	2	2		66.0	2.5	/experiments/knapen_aot/oldvideos/S_yt-VfASxEzDrvc_145.mp4	0.0	242.49686217308044	
69	190.30687022209167	fix_pre	0		9.0	67.0	2.5	/experiments/knapen_aot/oldvideos/S_yt-2lnxIdOTxog_157.mp4	0.0	242.59411120414734	0.07495784759521484
69	190.37361407279968	response	0	2		67.0	2.5	/experiments/knapen_aot/oldvideos/S_yt-2lnxIdOTxog_157.mp4	0.0	242.66085505485535	
69	190.3818280696869	movie	1		301.0	67.0	2.5	/experiments/knapen_aot/oldvideos/S_yt-2lnxIdOTxog_157.mp4	0.0	242.66906905174255	2.5083820819854736
69	192.80696201324463	response	1	2		67.0	2.5	/experiments/knapen_aot/oldvideos/S_yt-2lnxIdOTxog_157.mp4	0.0	245.0942029953003	
69	192.89021015167236	fix_post	2		12.0	67.0	2.5	/experiments/knapen_aot/oldvideos/S_yt-2lnxIdOTxog_157.mp4	0.0	245.17745113372803	0.09997987747192383
70	192.9901900291443	fix_pre	0		5.0	68.0	2.5	/experiments/knapen_aot/oldvideos/S_yt-bD1U6bo-6bE_465.mp4	0.0	245.27743101119995	0.042057037353515625
70	193.0235950946808	response	0	2		68.0	2.5	/experiments/knapen_aot/oldvideos/S_yt-bD1U6bo-6bE_465.mp4	0.0	245.31083607673645	
70	193.0322470664978	movie	1		301.0	68.0	2.5	/experiments/knapen_aot/oldvideos/S_yt-bD1U6bo-6bE_465.mp4	0.0	245.31948804855347	2.5080599784851074
70	193.2152922153473	response	1	2		68.0	2.5	/experiments/knapen_aot/oldvideos/S_yt-bD1U6bo-6bE_465.mp4	0.0	245.50253319740295	
70	193.640300989151	response	1	2		68.0	2.5	/experiments/knapen_aot/oldvideos/S_yt-bD1U6bo-6bE_465.mp4	0.0	245.92754197120667	
70	195.5403070449829	fix_post	2		12.0	68.0	2.5	/experiments/knapen_aot/oldvideos/S_yt-bD1U6bo-6bE_465.mp4	0.0	247.82754802703857	0.09989595413208008
71	195.640202999115	fix_pre	0		7.0	69.0	2.5	/experiments/knapen_aot/oldvideos/R_S_yt-XY1n_Oze1kQ_9.mp4	0.0	247.92744398117065	0.05876421928405762
71	195.68274021148682	response	0	2		69.0	2.5	/experiments/knapen_aot/oldvideos/R_S_yt-XY1n_Oze1kQ_9.mp4	0.0	247.96998119354248	
71	195.69896721839905	movie	1		301.0	69.0	2.5	/experiments/knapen_aot/oldvideos/R_S_yt-XY1n_Oze1kQ_9.mp4	0.0	247.9862082004547	2.5078988075256348
71	195.8935031890869	response	1	2		69.0	2.5	/experiments/knapen_aot/oldvideos/R_S_yt-XY1n_Oze1kQ_9.mp4	0.0	248.18074417114258	
71	198.20686602592468	fix_post	2		12.0	69.0	2.5	/experiments/knapen_aot/oldvideos/R_S_yt-XY1n_Oze1kQ_9.mp4	0.0	250.49410700798035	0.10002613067626953
72	198.30689215660095	fix_pre	0		55.0	70.0	2.5	blank	1.0	250.59413313865662	0.45836687088012695
72	198.75693702697754	response	0	2		70.0	2.5	blank	1.0	251.0441780090332	
72	198.76525902748108	movie	1		301.0	70.0	2.5	blank	1.0	251.05250000953674	2.5082831382751465
72	199.1568341255188	response	1	2		70.0	2.5	blank	1.0	251.44407510757446	
72	201.27354216575623	fix_post	2		12.0	70.0	2.5	blank	1.0	253.5607831478119	0.10002899169921875
72	201.34861421585083	response	2	2		70.0	2.5	blank	1.0	253.6358551979065	
73	201.37357115745544	fix_pre	0		139.0	71.0	2.5	/experiments/knapen_aot/oldvideos/S_yt-9mWz93En7Gw_97.mp4	0.0	253.6608121395111	1.1585969924926758
73	202.52353405952454	response	0	2		71.0	2.5	/experiments/knapen_aot/oldvideos/S_yt-9mWz93En7Gw_97.mp4	0.0	254.8107750415802	
73	202.53216814994812	movie	1		301.0	71.0	2.5	/experiments/knapen_aot/oldvideos/S_yt-9mWz93En7Gw_97.mp4	0.0	254.81940913200378	2.5080480575561523
73	205.04021620750427	fix_post	2		12.0	71.0	2.5	/experiments/knapen_aot/oldvideos/S_yt-9mWz93En7Gw_97.mp4	0.0	257.32745718955994	0.10008096694946289
74	205.14029717445374	fix_pre	0		13.0	72.0	2.5	/experiments/knapen_aot/oldvideos/S_ILSVRC2015_train_00405000.mp4	0.0	257.4275381565094	0.10822391510009766
74	205.24021911621094	response	0	2		72.0	2.5	/experiments/knapen_aot/oldvideos/S_ILSVRC2015_train_00405000.mp4	0.0	257.5274600982666	
74	205.24852108955383	movie	1		301.0	72.0	2.5	/experiments/knapen_aot/oldvideos/S_ILSVRC2015_train_00405000.mp4	0.0	257.5357620716095	2.5084071159362793
74	207.7569282054901	fix_post	2		12.0	72.0	2.5	/experiments/knapen_aot/oldvideos/S_ILSVRC2015_train_00405000.mp4	0.0	260.0441691875458	0.09994792938232422
75	207.85687613487244	fix_pre	0		18.0	73.0	2.5	/experiments/knapen_aot/oldvideos/S_yt-LdHRVIb4nIE_6.mp4	0.0	260.1441171169281	0.14990997314453125
75	207.99865913391113	response	0	2		73.0	2.5	/experiments/knapen_aot/oldvideos/S_yt-LdHRVIb4nIE_6.mp4	0.0	260.2859001159668	
75	208.00678610801697	movie	1		301.0	73.0	2.5	/experiments/knapen_aot/oldvideos/S_yt-LdHRVIb4nIE_6.mp4	0.0	260.29402709007263	2.508368968963623
75	210.5151550769806	fix_post	2		12.0	73.0	2.5	/experiments/knapen_aot/oldvideos/S_yt-LdHRVIb4nIE_6.mp4	0.0	262.80239605903625	0.1000070571899414
76	210.61516213417053	fix_pre	0		22.0	74.0	2.5	/experiments/knapen_aot/oldvideos/S_WCwb-DeQOSg_85.mp4	0.0	262.9024031162262	0.18328094482421875
76	210.79019403457642	response	0	2		74.0	2.5	/experiments/knapen_aot/oldvideos/S_WCwb-DeQOSg_85.mp4	0.0	263.0774350166321	
76	210.79844307899475	movie	1		301.0	74.0	2.5	/experiments/knapen_aot/oldvideos/S_WCwb-DeQOSg_85.mp4	0.0	263.0856840610504	2.508371114730835
76	213.3068141937256	fix_post	2		12.0	74.0	2.5	/experiments/knapen_aot/oldvideos/S_WCwb-DeQOSg_85.mp4	0.0	265.59405517578125	0.10003089904785156
77	213.40684509277344	fix_pre	0		19.0	75.0	2.5	/experiments/knapen_aot/oldvideos/R_S_b8-2.mp4	0.0	265.6940860748291	0.15825390815734863
77	213.5569450855255	response	0	2		75.0	2.5	/experiments/knapen_aot/oldvideos/R_S_b8-2.mp4	0.0	265.8441860675812	
77	213.5650990009308	movie	1		170.0	75.0	2.5	/experiments/knapen_aot/oldvideos/R_S_b8-2.mp4	0.0	265.85233998298645	2.5083611011505127
77	216.0734601020813	fix_post	2		12.0	75.0	2.5	/experiments/knapen_aot/oldvideos/R_S_b8-2.mp4	0.0	268.36070108413696	0.1000220775604248
78	216.17348217964172	fix_pre	0		14.0	76.0	2.5	/experiments/knapen_aot/oldvideos/R_S_yt-Co4dzHwupRM_18.mp4	0.0	268.4607231616974	0.11675381660461426
78	216.27430415153503	response	0	2		76.0	2.5	/experiments/knapen_aot/oldvideos/R_S_yt-Co4dzHwupRM_18.mp4	0.0	268.5615451335907	
78	216.29023599624634	movie	1		301.0	76.0	2.5	/experiments/knapen_aot/oldvideos/R_S_yt-Co4dzHwupRM_18.mp4	0.0	268.577476978302	2.508200168609619
78	218.7402081489563	response	1	2		76.0	2.5	/experiments/knapen_aot/oldvideos/R_S_yt-Co4dzHwupRM_18.mp4	0.0	271.02744913101196	
78	218.79843616485596	fix_post	2		12.0	76.0	2.5	/experiments/knapen_aot/oldvideos/R_S_yt-Co4dzHwupRM_18.mp4	0.0	271.0856771469116	0.10165095329284668
79	218.9000871181488	fix_pre	0		6.0	77.0	2.5	blank	1.0	271.18732810020447	0.04866194725036621
79	218.94018721580505	response	0	2		77.0	2.5	blank	1.0	271.2274281978607	
79	218.94874906539917	movie	1		301.0	77.0	2.5	blank	1.0	271.23599004745483	2.5080559253692627
79	219.1068251132965	response	1	2		77.0	2.5	blank	1.0	271.3940660953522	
79	219.26516604423523	response	1	2		77.0	2.5	blank	1.0	271.5524070262909	
79	219.48176503181458	response	1	2		77.0	2.5	blank	1.0	271.76900601387024	
79	221.45680499076843	fix_post	2		12.0	77.0	2.5	blank	1.0	273.7440459728241	0.0999600887298584
80	221.5567650794983	fix_pre	0		20.0	78.0	2.5	/experiments/knapen_aot/oldvideos/R_S_yt-GBt59U0KUR0_6.mp4	0.0	273.84400606155396	0.1666409969329834
80	221.71510004997253	response	0	2		78.0	2.5	/experiments/knapen_aot/oldvideos/R_S_yt-GBt59U0KUR0_6.mp4	0.0	274.0023410320282	
80	221.72340607643127	movie	1		300.0	78.0	2.5	/experiments/knapen_aot/oldvideos/R_S_yt-GBt59U0KUR0_6.mp4	0.0	274.01064705848694	2.508384943008423
80	221.93493509292603	response	1	2		78.0	2.5	/experiments/knapen_aot/oldvideos/R_S_yt-GBt59U0KUR0_6.mp4	0.0	274.2221760749817	
80	222.0818691253662	response	1	2		78.0	2.5	/experiments/knapen_aot/oldvideos/R_S_yt-GBt59U0KUR0_6.mp4	0.0	274.3691101074219	
80	222.2600200176239	response	1	2		78.0	2.5	/experiments/knapen_aot/oldvideos/R_S_yt-GBt59U0KUR0_6.mp4	0.0	274.54726099967957	
80	222.44182705879211	response	1	2		78.0	2.5	/experiments/knapen_aot/oldvideos/R_S_yt-GBt59U0KUR0_6.mp4	0.0	274.7290680408478	
80	222.59343600273132	response	1	2		78.0	2.5	/experiments/knapen_aot/oldvideos/R_S_yt-GBt59U0KUR0_6.mp4	0.0	274.880676984787	
80	224.2317910194397	fix_post	2		12.0	78.0	2.5	/experiments/knapen_aot/oldvideos/R_S_yt-GBt59U0KUR0_6.mp4	0.0	276.51903200149536	0.10003113746643066
81	224.33182215690613	fix_pre	0		2.0	79.0	2.5	/experiments/knapen_aot/oldvideos/R_S_ILSVRC2015_train_00074011.mp4	0.0	276.6190631389618	0.01664900779724121
81	224.3402361869812	response	0	2		79.0	2.5	/experiments/knapen_aot/oldvideos/R_S_ILSVRC2015_train_00074011.mp4	0.0	276.62747716903687	
81	224.34847116470337	movie	1		301.0	79.0	2.5	/experiments/knapen_aot/oldvideos/R_S_ILSVRC2015_train_00074011.mp4	0.0	276.63571214675903	2.508323907852173
81	226.85679507255554	fix_post	2		12.0	79.0	2.5	/experiments/knapen_aot/oldvideos/R_S_ILSVRC2015_train_00074011.mp4	0.0	279.1440360546112	0.09993505477905273
81	226.9154441356659	response	2	2		79.0	2.5	/experiments/knapen_aot/oldvideos/R_S_ILSVRC2015_train_00074011.mp4	0.0	279.20268511772156	
82	226.9567301273346	fix_pre	0		69.0	80.0	2.5	/experiments/knapen_aot/oldvideos/S_yt-R5wOWRtRmrI_36.mp4	0.0	279.24397110939026	0.5752029418945312
82	227.52358508110046	response	0	2		80.0	2.5	/experiments/knapen_aot/oldvideos/S_yt-R5wOWRtRmrI_36.mp4	0.0	279.8108260631561	
82	227.53193306922913	movie	1		301.0	80.0	2.5	/experiments/knapen_aot/oldvideos/S_yt-R5wOWRtRmrI_36.mp4	0.0	279.8191740512848	2.5081870555877686
82	230.0401201248169	fix_post	2		12.0	80.0	2.5	/experiments/knapen_aot/oldvideos/S_yt-R5wOWRtRmrI_36.mp4	0.0	282.32736110687256	0.09998488426208496
82	230.11522817611694	response	2	2		80.0	2.5	/experiments/knapen_aot/oldvideos/S_yt-R5wOWRtRmrI_36.mp4	0.0	282.4024691581726	
83	230.14010500907898	fix_pre	0		26.0	81.0	2.5	/experiments/knapen_aot/oldvideos/S_video_inspire_texas_pecos_foggy-landscape_00018.1080-h264.mp4	0.0	282.42734599113464	0.2166430950164795
83	230.34848308563232	response	0	2		81.0	2.5	/experiments/knapen_aot/oldvideos/S_video_inspire_texas_pecos_foggy-landscape_00018.1080-h264.mp4	0.0	282.635724067688	
83	230.35674810409546	movie	1		166.0	81.0	2.5	/experiments/knapen_aot/oldvideos/S_video_inspire_texas_pecos_foggy-landscape_00018.1080-h264.mp4	0.0	282.6439890861511	2.508575916290283
83	232.86532402038574	fix_post	2		12.0	81.0	2.5	/experiments/knapen_aot/oldvideos/S_video_inspire_texas_pecos_foggy-landscape_00018.1080-h264.mp4	0.0	285.1525650024414	0.09978699684143066
84	232.96511101722717	fix_pre	0		7.0	82.0	2.5	/experiments/knapen_aot/oldvideos/S_pexels-pavel-danilyuk-8626652.mp4	0.0	285.25235199928284	0.05826115608215332
84	233.01521015167236	response	0	2		82.0	2.5	/experiments/knapen_aot/oldvideos/S_pexels-pavel-danilyuk-8626652.mp4	0.0	285.302451133728	
84	233.02337217330933	movie	1		169.0	82.0	2.5	/experiments/knapen_aot/oldvideos/S_pexels-pavel-danilyuk-8626652.mp4	0.0	285.310613155365	2.508859872817993
84	235.53223204612732	fix_post	2		12.0	82.0	2.5	/experiments/knapen_aot/oldvideos/S_pexels-pavel-danilyuk-8626652.mp4	0.0	287.819473028183	0.09950494766235352
85	235.63173699378967	fix_pre	0		11.0	83.0	2.5	blank	1.0	287.91897797584534	0.09168100357055664
85	235.71513509750366	response	0	2		83.0	2.5	blank	1.0	288.0023760795593	
85	235.72341799736023	movie	1		301.0	83.0	2.5	blank	1.0	288.0106589794159	2.5083072185516357
85	238.1068000793457	response	1	2		83.0	2.5	blank	1.0	290.39404106140137	
85	238.23172521591187	fix_post	2		12.0	83.0	2.5	blank	1.0	290.51896619796753	0.10001182556152344
87	238.3317370414734	stim	0		715.0					290.61897802352905	5.958317041397095
87	238.34011721611023	response	0	2						290.6273581981659	
87	244.28523516654968	response	0	space						296.57247614860535	
