trial_nr	onset	event_type	phase	response	nr_frames	movie_index	movie_duration	movie_file	blank	onset_abs	duration
0	0.13197803497314453	stim	0		42.0					120.61318707466125	0.34838390350341797
0	0.4723629951477051	response	0	space						120.95357203483582	
1	0.4803619384765625	stim	0		121.0					120.96157097816467	1.007875919342041
1	1.3218169212341309	response	0	space						121.80302596092224	
1	1.4882378578186035	stim	1		120.0					121.96944689750671	0.9999802112579346
1	1.638258934020996	response	1	space						122.1194679737091	
2	2.488218069076538	fix_pre	0		43.0	0.0	2.5	/experiments/knapen_aot/videos/R_S_pexels-ron-lach-8071987.mp4	0.0	122.96942710876465	0.3586108684539795
2	2.8383848667144775	response	0	space		0.0	2.5	/experiments/knapen_aot/videos/R_S_pexels-ron-lach-8071987.mp4	0.0	123.31959390640259	
2	2.8468289375305176	movie	1		207.0	0.0	2.5	/experiments/knapen_aot/videos/R_S_pexels-ron-lach-8071987.mp4	0.0	123.32803797721863	2.5080740451812744
2	5.354902982711792	fix_post	2		12.0	0.0	2.5	/experiments/knapen_aot/videos/R_S_pexels-ron-lach-8071987.mp4	0.0	125.8361120223999	0.10001897811889648
3	5.4549219608306885	fix_pre	0		1.0	1.0	2.5	/experiments/knapen_aot/videos/R_S_yt-fP2JRJAFGZ4_25.mp4	0.0	125.9361310005188	0.009984970092773438
3	5.459539890289307	response	0	2		1.0	2.5	/experiments/knapen_aot/videos/R_S_yt-fP2JRJAFGZ4_25.mp4	0.0	125.94074892997742	
3	5.464906930923462	movie	1		300.0	1.0	2.5	/experiments/knapen_aot/videos/R_S_yt-fP2JRJAFGZ4_25.mp4	0.0	125.94611597061157	2.5066781044006348
3	7.971585035324097	fix_post	2		12.0	1.0	2.5	/experiments/knapen_aot/videos/R_S_yt-fP2JRJAFGZ4_25.mp4	0.0	128.4527940750122	0.10002994537353516
4	8.071614980697632	fix_pre	0		48.0	2.0	2.5	/experiments/knapen_aot/videos/S_yt-hvuC_2YXsTQ_159.mp4	0.0	128.55282402038574	0.40021800994873047
4	8.463495969772339	response	0	2		2.0	2.5	/experiments/knapen_aot/videos/S_yt-hvuC_2YXsTQ_159.mp4	0.0	128.94470500946045	
4	8.471832990646362	movie	1		301.0	2.0	2.5	/experiments/knapen_aot/videos/S_yt-hvuC_2YXsTQ_159.mp4	0.0	128.95304203033447	2.5080459117889404
4	10.979878902435303	fix_post	2		12.0	2.0	2.5	/experiments/knapen_aot/videos/S_yt-hvuC_2YXsTQ_159.mp4	0.0	131.4610879421234	0.10002613067626953
5	11.079905033111572	fix_pre	0		47.0	3.0	2.5	/experiments/knapen_aot/videos/S_yt-V_2XgfjJfeQ_67.mp4	0.0	131.56111407279968	0.3919098377227783
5	11.463366031646729	response	0	2		3.0	2.5	/experiments/knapen_aot/videos/S_yt-V_2XgfjJfeQ_67.mp4	0.0	131.94457507133484	
5	11.47181487083435	movie	1		301.0	3.0	2.5	/experiments/knapen_aot/videos/S_yt-V_2XgfjJfeQ_67.mp4	0.0	131.95302391052246	2.508100986480713
5	13.979915857315063	fix_post	2		12.0	3.0	2.5	/experiments/knapen_aot/videos/S_yt-V_2XgfjJfeQ_67.mp4	0.0	134.46112489700317	0.09998202323913574
6	14.0798978805542	fix_pre	0		18.0	4.0	2.5	/experiments/knapen_aot/videos/S_yt-AjyR9--Mx3A_44.mp4	0.0	134.5611069202423	0.1499650478363037
6	14.221637964248657	response	0	2		4.0	2.5	/experiments/knapen_aot/videos/S_yt-AjyR9--Mx3A_44.mp4	0.0	134.70284700393677	
6	14.229862928390503	movie	1		301.0	4.0	2.5	/experiments/knapen_aot/videos/S_yt-AjyR9--Mx3A_44.mp4	0.0	134.7110719680786	2.508319139480591
6	16.738182067871094	fix_post	2		12.0	4.0	2.5	/experiments/knapen_aot/videos/S_yt-AjyR9--Mx3A_44.mp4	0.0	137.2193911075592	0.10001087188720703
7	16.8381929397583	fix_pre	0		29.0	5.0	2.5	/experiments/knapen_aot/videos/R_S_wc-WgOBK5IL7vex_4.mp4	0.0	137.3194019794464	0.24158906936645508
7	17.071593046188354	response	0	2		5.0	2.5	/experiments/knapen_aot/videos/R_S_wc-WgOBK5IL7vex_4.mp4	0.0	137.55280208587646	
7	17.079782009124756	movie	1		164.0	5.0	2.5	/experiments/knapen_aot/videos/R_S_wc-WgOBK5IL7vex_4.mp4	0.0	137.56099104881287	2.508578062057495
7	19.58836007118225	fix_post	2		12.0	5.0	2.5	/experiments/knapen_aot/videos/R_S_wc-WgOBK5IL7vex_4.mp4	0.0	140.06956911087036	0.09980487823486328
8	19.688164949417114	fix_pre	0		49.0	6.0	2.5	/experiments/knapen_aot/videos/S_b3TCugtX0h0_108.mp4	0.0	140.16937398910522	0.4086289405822754
8	20.088254928588867	response	0	2		6.0	2.5	/experiments/knapen_aot/videos/S_b3TCugtX0h0_108.mp4	0.0	140.56946396827698	
8	20.09679388999939	movie	1		301.0	6.0	2.5	/experiments/knapen_aot/videos/S_b3TCugtX0h0_108.mp4	0.0	140.5780029296875	2.5081160068511963
8	22.604909896850586	fix_post	2		12.0	6.0	2.5	/experiments/knapen_aot/videos/S_b3TCugtX0h0_108.mp4	0.0	143.0861189365387	0.10011005401611328
9	22.7050199508667	fix_pre	0		66.0	7.0	2.5	blank	1.0	143.1862289905548	0.5497300624847412
9	23.24660301208496	response	0	2		7.0	2.5	blank	1.0	143.72781205177307	
9	23.25475001335144	movie	1		301.0	7.0	2.5	blank	1.0	143.73595905303955	2.5087618827819824
9	25.763511896133423	fix_post	2		12.0	7.0	2.5	blank	1.0	146.24472093582153	0.09961915016174316
10	25.863131046295166	fix_pre	0		15.0	8.0	2.5	/experiments/knapen_aot/videos/R_S_yt-b7bIulV49DQ_81.mp4	0.0	146.34434008598328	0.12505793571472168
10	25.979920864105225	response	0	2		8.0	2.5	/experiments/knapen_aot/videos/R_S_yt-b7bIulV49DQ_81.mp4	0.0	146.46112990379333	
10	25.988188982009888	movie	1		301.0	8.0	2.5	/experiments/knapen_aot/videos/R_S_yt-b7bIulV49DQ_81.mp4	0.0	146.469398021698	2.508302927017212
10	28.4964919090271	fix_post	2		12.0	8.0	2.5	/experiments/knapen_aot/videos/R_S_yt-b7bIulV49DQ_81.mp4	0.0	148.9777009487152	0.10024309158325195
11	28.59673500061035	fix_pre	0		36.0	9.0	2.5	/experiments/knapen_aot/videos/R_S_ILSVRC2015_train_00411001.mp4	0.0	149.07794404029846	0.2997100353240967
11	28.888274908065796	response	0	2		9.0	2.5	/experiments/knapen_aot/videos/R_S_ILSVRC2015_train_00411001.mp4	0.0	149.3694839477539	
11	28.89644503593445	movie	1		301.0	9.0	2.5	/experiments/knapen_aot/videos/R_S_ILSVRC2015_train_00411001.mp4	0.0	149.37765407562256	2.5082619190216064
11	31.404706954956055	fix_post	2		12.0	9.0	2.5	/experiments/knapen_aot/videos/R_S_ILSVRC2015_train_00411001.mp4	0.0	151.88591599464417	0.10011005401611328
12	31.504817008972168	fix_pre	0		31.0	10.0	2.5	/experiments/knapen_aot/videos/R_S_yt-N7ztk2fa3Ls_137.mp4	0.0	151.98602604866028	0.2584400177001953
12	31.75482201576233	response	0	2		10.0	2.5	/experiments/knapen_aot/videos/R_S_yt-N7ztk2fa3Ls_137.mp4	0.0	152.23603105545044	
12	31.763257026672363	movie	1		301.0	10.0	2.5	/experiments/knapen_aot/videos/R_S_yt-N7ztk2fa3Ls_137.mp4	0.0	152.24446606636047	2.5083210468292236
12	34.27157807350159	fix_post	2		12.0	10.0	2.5	/experiments/knapen_aot/videos/R_S_yt-N7ztk2fa3Ls_137.mp4	0.0	154.7527871131897	0.09985089302062988
13	34.37142896652222	fix_pre	0		24.0	11.0	2.5	/experiments/knapen_aot/videos/S_yt-PvWkOmfZuSY_4.mp4	0.0	154.85263800621033	0.19998788833618164
13	34.56321907043457	response	0	2		11.0	2.5	/experiments/knapen_aot/videos/S_yt-PvWkOmfZuSY_4.mp4	0.0	155.04442811012268	
13	34.5714168548584	movie	1		301.0	11.0	2.5	/experiments/knapen_aot/videos/S_yt-PvWkOmfZuSY_4.mp4	0.0	155.0526258945465	2.508341073989868
13	37.07975792884827	fix_post	2		12.0	11.0	2.5	/experiments/knapen_aot/videos/S_yt-PvWkOmfZuSY_4.mp4	0.0	157.56096696853638	0.10020208358764648
14	37.17996001243591	fix_pre	0		57.0	12.0	2.5	/experiments/knapen_aot/videos/S_yt-NuJbedGLcQY_112.mp4	0.0	157.66116905212402	0.47473788261413574
14	37.64654588699341	response	0	2		12.0	2.5	/experiments/knapen_aot/videos/S_yt-NuJbedGLcQY_112.mp4	0.0	158.12775492668152	
14	37.65469789505005	movie	1		301.0	12.0	2.5	/experiments/knapen_aot/videos/S_yt-NuJbedGLcQY_112.mp4	0.0	158.13590693473816	2.508376121520996
14	40.163074016571045	fix_post	2		12.0	12.0	2.5	/experiments/knapen_aot/videos/S_yt-NuJbedGLcQY_112.mp4	0.0	160.64428305625916	0.10024285316467285
15	40.26331686973572	fix_pre	0		295.0	13.0	2.5	blank	1.0	160.74452590942383	2.4581921100616455
15	42.713176012039185	response	0	2		13.0	2.5	blank	1.0	163.1943850517273	
15	42.72150897979736	movie	1		301.0	13.0	2.5	blank	1.0	163.20271801948547	2.50819993019104
15	45.2297089099884	fix_post	2		12.0	13.0	2.5	blank	1.0	165.7109179496765	0.10004305839538574
16	45.32975196838379	fix_pre	0		33.0	14.0	2.5	/experiments/knapen_aot/videos/S_yt-HMAa2QbfFPI_216.mp4	0.0	165.8109610080719	0.2749500274658203
16	45.58892798423767	response	0	2		14.0	2.5	/experiments/knapen_aot/videos/S_yt-HMAa2QbfFPI_216.mp4	0.0	166.07013702392578	
16	45.60470199584961	movie	1		301.0	14.0	2.5	/experiments/knapen_aot/videos/S_yt-HMAa2QbfFPI_216.mp4	0.0	166.08591103553772	2.5084328651428223
16	48.11313486099243	fix_post	2		12.0	14.0	2.5	/experiments/knapen_aot/videos/S_yt-HMAa2QbfFPI_216.mp4	0.0	168.59434390068054	0.09990406036376953
17	48.2130389213562	fix_pre	0		37.0	15.0	2.5	/experiments/knapen_aot/videos/R_S_yt-kxWtOXNIsRA_329.mp4	0.0	168.6942479610443	0.30827903747558594
17	48.51316785812378	response	0	2		15.0	2.5	/experiments/knapen_aot/videos/R_S_yt-kxWtOXNIsRA_329.mp4	0.0	168.9943768978119	
17	48.52131795883179	movie	1		301.0	15.0	2.5	/experiments/knapen_aot/videos/R_S_yt-kxWtOXNIsRA_329.mp4	0.0	169.0025269985199	2.5083999633789062
17	51.02971792221069	fix_post	2		12.0	15.0	2.5	/experiments/knapen_aot/videos/R_S_yt-kxWtOXNIsRA_329.mp4	0.0	171.5109269618988	0.10010600090026855
18	51.12982392311096	fix_pre	0		72.0	16.0	2.5	/experiments/knapen_aot/videos/S_yt-RXqc3JAmmPM_72.mp4	0.0	171.61103296279907	0.599822998046875
18	51.72159385681152	response	0	2		16.0	2.5	/experiments/knapen_aot/videos/S_yt-RXqc3JAmmPM_72.mp4	0.0	172.20280289649963	
18	51.72964692115784	movie	1		301.0	16.0	2.5	/experiments/knapen_aot/videos/S_yt-RXqc3JAmmPM_72.mp4	0.0	172.21085596084595	2.508334159851074
18	54.23798108100891	fix_post	2		12.0	16.0	2.5	/experiments/knapen_aot/videos/S_yt-RXqc3JAmmPM_72.mp4	0.0	174.71919012069702	0.10003399848937988
19	54.33801507949829	fix_pre	0		25.0	17.0	2.5	/experiments/knapen_aot/videos/S_yt-PreGL81PEP4_61.mp4	0.0	174.8192241191864	0.20835089683532715
19	54.538166999816895	response	0	2		17.0	2.5	/experiments/knapen_aot/videos/S_yt-PreGL81PEP4_61.mp4	0.0	175.019376039505	
19	54.54636597633362	movie	1		301.0	17.0	2.5	/experiments/knapen_aot/videos/S_yt-PreGL81PEP4_61.mp4	0.0	175.02757501602173	2.5084290504455566
19	57.054795026779175	fix_post	2		12.0	17.0	2.5	/experiments/knapen_aot/videos/S_yt-PreGL81PEP4_61.mp4	0.0	177.53600406646729	0.09988594055175781
20	57.15468096733093	fix_pre	0		27.0	18.0	2.5	/experiments/knapen_aot/videos/S_yt-F3hhts3bwWg_25.mp4	0.0	177.63589000701904	0.22497010231018066
20	57.36404299736023	response	0	2		18.0	2.5	/experiments/knapen_aot/videos/S_yt-F3hhts3bwWg_25.mp4	0.0	177.84525203704834	
20	57.37965106964111	movie	1		301.0	18.0	2.5	/experiments/knapen_aot/videos/S_yt-F3hhts3bwWg_25.mp4	0.0	177.86086010932922	2.5084660053253174
20	59.88811707496643	fix_post	2		12.0	18.0	2.5	/experiments/knapen_aot/videos/S_yt-F3hhts3bwWg_25.mp4	0.0	180.36932611465454	0.09986996650695801
21	59.98798704147339	fix_pre	0		34.0	19.0	2.5	blank	1.0	180.4691960811615	0.2833089828491211
21	60.263094902038574	response	0	2		19.0	2.5	blank	1.0	180.74430394172668	
21	60.27129602432251	movie	1		301.0	19.0	2.5	blank	1.0	180.75250506401062	2.508357048034668
21	62.77965307235718	fix_post	2		12.0	19.0	2.5	blank	1.0	183.2608621120453	0.10003781318664551
22	62.87969088554382	fix_pre	0		25.0	20.0	2.5	/experiments/knapen_aot/videos/R_S_yt-Q9fI2ar05IE_77.mp4	0.0	183.36089992523193	0.20824909210205078
22	63.07977294921875	response	0	2		20.0	2.5	/experiments/knapen_aot/videos/R_S_yt-Q9fI2ar05IE_77.mp4	0.0	183.56098198890686	
22	63.087939977645874	movie	1		300.0	20.0	2.5	/experiments/knapen_aot/videos/R_S_yt-Q9fI2ar05IE_77.mp4	0.0	183.56914901733398	2.50839900970459
22	65.59633898735046	fix_post	2		12.0	20.0	2.5	/experiments/knapen_aot/videos/R_S_yt-Q9fI2ar05IE_77.mp4	0.0	186.07754802703857	0.09993195533752441
23	65.69627094268799	fix_pre	0		33.0	21.0	2.5	/experiments/knapen_aot/videos/R_S_yt-Dj42sI_Z-kQ_38.mp4	0.0	186.1774799823761	0.2750530242919922
23	65.96304106712341	response	0	2		21.0	2.5	/experiments/knapen_aot/videos/R_S_yt-Dj42sI_Z-kQ_38.mp4	0.0	186.44425010681152	
23	65.97132396697998	movie	1		301.0	21.0	2.5	/experiments/knapen_aot/videos/R_S_yt-Dj42sI_Z-kQ_38.mp4	0.0	186.4525330066681	2.508305072784424
23	67.5412449836731	response	1	2		21.0	2.5	/experiments/knapen_aot/videos/R_S_yt-Dj42sI_Z-kQ_38.mp4	0.0	188.0224540233612	
23	68.4796290397644	fix_post	2		12.0	21.0	2.5	/experiments/knapen_aot/videos/R_S_yt-Dj42sI_Z-kQ_38.mp4	0.0	188.96083807945251	0.10002303123474121
24	68.57965207099915	fix_pre	0		21.0	22.0	2.5	/experiments/knapen_aot/videos/S_yt-kawmL3oVw8c_2.mp4	0.0	189.06086111068726	0.17497682571411133
24	68.74642586708069	response	0	2		22.0	2.5	/experiments/knapen_aot/videos/S_yt-kawmL3oVw8c_2.mp4	0.0	189.2276349067688	
24	68.75462889671326	movie	1		301.0	22.0	2.5	/experiments/knapen_aot/videos/S_yt-kawmL3oVw8c_2.mp4	0.0	189.23583793640137	2.5083720684051514
24	71.26300096511841	fix_post	2		12.0	22.0	2.5	/experiments/knapen_aot/videos/S_yt-kawmL3oVw8c_2.mp4	0.0	191.74421000480652	0.10020208358764648
25	71.36320304870605	fix_pre	0		40.0	23.0	2.5	/experiments/knapen_aot/videos/S_yt-NuJbedGLcQY_112.mp4	0.0	191.84441208839417	0.3331010341644287
25	71.6880898475647	response	0	2		23.0	2.5	/experiments/knapen_aot/videos/S_yt-NuJbedGLcQY_112.mp4	0.0	192.1692988872528	
25	71.69630408287048	movie	1		301.0	23.0	2.5	/experiments/knapen_aot/videos/S_yt-NuJbedGLcQY_112.mp4	0.0	192.1775131225586	2.508340835571289
25	74.20464491844177	fix_post	2		12.0	23.0	2.5	/experiments/knapen_aot/videos/S_yt-NuJbedGLcQY_112.mp4	0.0	194.68585395812988	0.09995102882385254
25	74.22966384887695	response	2	2		23.0	2.5	/experiments/knapen_aot/videos/S_yt-NuJbedGLcQY_112.mp4	0.0	194.71087288856506	
26	74.30459594726562	fix_pre	0		397.0	24.0	2.5	/experiments/knapen_aot/videos/R_S_comp_A050_C004_1027V8_v16_SDR_FINAL_20180706_SDR_2K_AVC.mp4	0.0	194.78580498695374	3.3082869052886963
26	77.60468888282776	response	0	2		24.0	2.5	/experiments/knapen_aot/videos/R_S_comp_A050_C004_1027V8_v16_SDR_FINAL_20180706_SDR_2K_AVC.mp4	0.0	198.08589792251587	
26	77.61288285255432	movie	1		170.0	24.0	2.5	/experiments/knapen_aot/videos/R_S_comp_A050_C004_1027V8_v16_SDR_FINAL_20180706_SDR_2K_AVC.mp4	0.0	198.09409189224243	2.5084421634674072
26	80.12132501602173	fix_post	2		12.0	24.0	2.5	/experiments/knapen_aot/videos/R_S_comp_A050_C004_1027V8_v16_SDR_FINAL_20180706_SDR_2K_AVC.mp4	0.0	200.60253405570984	0.09997701644897461
27	80.2213020324707	fix_pre	0		26.0	25.0	2.5	/experiments/knapen_aot/videos/S_Ds4EKTLx_RI_51.mp4	0.0	200.7025110721588	0.21663784980773926
27	80.42971587181091	response	0	2		25.0	2.5	/experiments/knapen_aot/videos/S_Ds4EKTLx_RI_51.mp4	0.0	200.91092491149902	
27	80.43793988227844	movie	1		301.0	25.0	2.5	/experiments/knapen_aot/videos/S_Ds4EKTLx_RI_51.mp4	0.0	200.91914892196655	2.5083601474761963
27	82.94630002975464	fix_post	2		12.0	25.0	2.5	/experiments/knapen_aot/videos/S_Ds4EKTLx_RI_51.mp4	0.0	203.42750906944275	0.09996700286865234
28	83.04626703262329	fix_pre	0		38.0	26.0	2.5	/experiments/knapen_aot/videos/R_S_ILSVRC2015_train_00369002.mp4	0.0	203.5274760723114	0.3166968822479248
28	83.3546838760376	response	0	2		26.0	2.5	/experiments/knapen_aot/videos/R_S_ILSVRC2015_train_00369002.mp4	0.0	203.8358929157257	
28	83.36296391487122	movie	1		301.0	26.0	2.5	/experiments/knapen_aot/videos/R_S_ILSVRC2015_train_00369002.mp4	0.0	203.84417295455933	2.508254051208496
28	85.47145795822144	response	1	2		26.0	2.5	/experiments/knapen_aot/videos/R_S_ILSVRC2015_train_00369002.mp4	0.0	205.95266699790955	
28	85.87121796607971	fix_post	2		12.0	26.0	2.5	/experiments/knapen_aot/videos/R_S_ILSVRC2015_train_00369002.mp4	0.0	206.35242700576782	0.10005402565002441
29	85.97127199172974	fix_pre	0		45.0	27.0	2.5	/experiments/knapen_aot/videos/R_S_yt-RWN5qOIgqec_25.mp4	0.0	206.45248103141785	0.3749699592590332
29	86.33810901641846	response	0	2		27.0	2.5	/experiments/knapen_aot/videos/R_S_yt-RWN5qOIgqec_25.mp4	0.0	206.81931805610657	
29	86.34624195098877	movie	1		301.0	27.0	2.5	/experiments/knapen_aot/videos/R_S_yt-RWN5qOIgqec_25.mp4	0.0	206.82745099067688	2.50833797454834
29	88.18324995040894	response	1	2		27.0	2.5	/experiments/knapen_aot/videos/R_S_yt-RWN5qOIgqec_25.mp4	0.0	208.66445899009705	
29	88.85457992553711	fix_post	2		12.0	27.0	2.5	/experiments/knapen_aot/videos/R_S_yt-RWN5qOIgqec_25.mp4	0.0	209.33578896522522	0.10021495819091797
30	88.95479488372803	fix_pre	0		53.0	28.0	2.5	blank	1.0	209.43600392341614	0.44139814376831055
30	89.38802289962769	response	0	2		28.0	2.5	blank	1.0	209.8692319393158	
30	89.39619302749634	movie	1		301.0	28.0	2.5	blank	1.0	209.87740206718445	2.5083320140838623
30	91.19626808166504	response	1	2		28.0	2.5	blank	1.0	211.67747712135315	
30	91.9045250415802	fix_post	2		12.0	28.0	2.5	blank	1.0	212.3857340812683	0.10002303123474121
31	92.00454807281494	fix_pre	0		39.0	29.0	2.5	/experiments/knapen_aot/videos/R_S_yt-OEY9O2MglQM_7.mp4	0.0	212.48575711250305	0.32494187355041504
31	92.32130408287048	response	0	2		29.0	2.5	/experiments/knapen_aot/videos/R_S_yt-OEY9O2MglQM_7.mp4	0.0	212.8025131225586	
31	92.32948994636536	movie	1		301.0	29.0	2.5	/experiments/knapen_aot/videos/R_S_yt-OEY9O2MglQM_7.mp4	0.0	212.81069898605347	2.5083999633789062
31	94.77127504348755	response	1	2		29.0	2.5	/experiments/knapen_aot/videos/R_S_yt-OEY9O2MglQM_7.mp4	0.0	215.25248408317566	
31	94.83788990974426	fix_post	2		12.0	29.0	2.5	/experiments/knapen_aot/videos/R_S_yt-OEY9O2MglQM_7.mp4	0.0	215.31909894943237	0.09996294975280762
32	94.93785285949707	fix_pre	0		131.0	30.0	2.5	/experiments/knapen_aot/videos/R_S_yt-fLNDhX22diw_98.mp4	0.0	215.41906189918518	1.0916671752929688
32	96.02127504348755	response	0	2		30.0	2.5	/experiments/knapen_aot/videos/R_S_yt-fLNDhX22diw_98.mp4	0.0	216.50248408317566	
32	96.02952003479004	movie	1		301.0	30.0	2.5	/experiments/knapen_aot/videos/R_S_yt-fLNDhX22diw_98.mp4	0.0	216.51072907447815	2.508296012878418
32	98.12391304969788	response	1	2		30.0	2.5	/experiments/knapen_aot/videos/R_S_yt-fLNDhX22diw_98.mp4	0.0	218.605122089386	
32	98.53781604766846	fix_post	2		12.0	30.0	2.5	/experiments/knapen_aot/videos/R_S_yt-fLNDhX22diw_98.mp4	0.0	219.01902508735657	0.09997391700744629
33	98.6377899646759	fix_pre	0		133.0	31.0	2.5	/experiments/knapen_aot/videos/S_yt-XA6RBioito4_18.mp4	0.0	219.118999004364	1.1083459854125977
33	99.73794603347778	response	0	2		31.0	2.5	/experiments/knapen_aot/videos/S_yt-XA6RBioito4_18.mp4	0.0	220.2191550731659	
33	99.7461359500885	movie	1		301.0	31.0	2.5	/experiments/knapen_aot/videos/S_yt-XA6RBioito4_18.mp4	0.0	220.2273449897766	2.5083749294281006
33	102.2545108795166	fix_post	2		12.0	31.0	2.5	/experiments/knapen_aot/videos/S_yt-XA6RBioito4_18.mp4	0.0	222.7357199192047	0.10022401809692383
34	102.35473489761353	fix_pre	0		89.0	32.0	2.5	/experiments/knapen_aot/videos/R_S_yt-kawmL3oVw8c_2.mp4	0.0	222.83594393730164	0.7414071559906006
34	103.08798885345459	response	0	2		32.0	2.5	/experiments/knapen_aot/videos/R_S_yt-kawmL3oVw8c_2.mp4	0.0	223.5691978931427	
34	103.09614205360413	movie	1		301.0	32.0	2.5	/experiments/knapen_aot/videos/R_S_yt-kawmL3oVw8c_2.mp4	0.0	223.57735109329224	2.5084378719329834
34	105.60457992553711	fix_post	2		12.0	32.0	2.5	/experiments/knapen_aot/videos/R_S_yt-kawmL3oVw8c_2.mp4	0.0	226.08578896522522	0.09995603561401367
35	105.70453596115112	fix_pre	0		83.0	33.0	2.5	blank	1.0	226.18574500083923	0.6915650367736816
35	106.38790798187256	response	0	2		33.0	2.5	blank	1.0	226.86911702156067	
35	106.3961009979248	movie	1		301.0	33.0	2.5	blank	1.0	226.87731003761292	2.5083889961242676
35	108.90448999404907	fix_post	2		12.0	33.0	2.5	blank	1.0	229.38569903373718	0.10025501251220703
36	109.00474500656128	fix_pre	0		46.0	34.0	2.5	/experiments/knapen_aot/videos/S_yt-xCh0LI9VKeI_28.mp4	0.0	229.4859540462494	0.38309597969055176
36	109.37952995300293	response	0	2		34.0	2.5	/experiments/knapen_aot/videos/S_yt-xCh0LI9VKeI_28.mp4	0.0	229.86073899269104	
36	109.38784098625183	movie	1		301.0	34.0	2.5	/experiments/knapen_aot/videos/S_yt-xCh0LI9VKeI_28.mp4	0.0	229.86905002593994	2.5083189010620117
36	111.89615988731384	fix_post	2		12.0	34.0	2.5	/experiments/knapen_aot/videos/S_yt-xCh0LI9VKeI_28.mp4	0.0	232.37736892700195	0.0999460220336914
37	111.99610590934753	fix_pre	0		61.0	35.0	2.5	/experiments/knapen_aot/videos/S_yt-44ip3uFe4YM_30.mp4	0.0	232.47731494903564	0.5094211101531982
37	112.49621891975403	response	0	2		35.0	2.5	/experiments/knapen_aot/videos/S_yt-44ip3uFe4YM_30.mp4	0.0	232.97742795944214	
37	112.50552701950073	movie	1		301.0	35.0	2.5	/experiments/knapen_aot/videos/S_yt-44ip3uFe4YM_30.mp4	0.0	232.98673605918884	2.5072438716888428
37	115.01277089118958	fix_post	2		12.0	35.0	2.5	/experiments/knapen_aot/videos/S_yt-44ip3uFe4YM_30.mp4	0.0	235.49397993087769	0.09998703002929688
38	115.11275792121887	fix_pre	0		126.0	36.0	2.5	/experiments/knapen_aot/videos/S_yt-zhQ32_OayBQ_39.mp4	0.0	235.59396696090698	1.0499999523162842
38	116.15456485748291	response	0	2		36.0	2.5	/experiments/knapen_aot/videos/S_yt-zhQ32_OayBQ_39.mp4	0.0	236.63577389717102	
38	116.16275787353516	movie	1		301.0	36.0	2.5	/experiments/knapen_aot/videos/S_yt-zhQ32_OayBQ_39.mp4	0.0	236.64396691322327	2.5084760189056396
38	118.6712338924408	fix_post	2		12.0	36.0	2.5	/experiments/knapen_aot/videos/S_yt-zhQ32_OayBQ_39.mp4	0.0	239.1524429321289	0.09978699684143066
39	118.77102088928223	fix_pre	0		139.0	37.0	2.5	/experiments/knapen_aot/videos/R_S_yt-IC62JSYpq9w_71.mp4	0.0	239.25222992897034	1.158346176147461
39	119.92125105857849	response	0	2		37.0	2.5	/experiments/knapen_aot/videos/R_S_yt-IC62JSYpq9w_71.mp4	0.0	240.4024600982666	
39	119.92936706542969	movie	1		301.0	37.0	2.5	/experiments/knapen_aot/videos/R_S_yt-IC62JSYpq9w_71.mp4	0.0	240.4105761051178	2.508327007293701
39	122.43769407272339	fix_post	2		12.0	37.0	2.5	/experiments/knapen_aot/videos/R_S_yt-IC62JSYpq9w_71.mp4	0.0	242.9189031124115	0.10003185272216797
40	122.53772592544556	fix_pre	0		75.0	38.0	2.5	/experiments/knapen_aot/videos/R_S_yt-HMAa2QbfFPI_216.mp4	0.0	243.01893496513367	0.6249959468841553
40	123.15450096130371	response	0	2		38.0	2.5	/experiments/knapen_aot/videos/R_S_yt-HMAa2QbfFPI_216.mp4	0.0	243.63571000099182	
40	123.16272187232971	movie	1		301.0	38.0	2.5	/experiments/knapen_aot/videos/R_S_yt-HMAa2QbfFPI_216.mp4	0.0	243.64393091201782	2.508364200592041
40	125.67108607292175	fix_post	2		12.0	38.0	2.5	/experiments/knapen_aot/videos/R_S_yt-HMAa2QbfFPI_216.mp4	0.0	246.15229511260986	0.09996795654296875
41	125.77105402946472	fix_pre	0		331.0	39.0	2.5	/experiments/knapen_aot/videos/S_video_inspire_uk_edinburgh_arthursseat_010.1080-h264.mp4	0.0	246.25226306915283	2.7583060264587402
41	128.5211958885193	response	0	2		39.0	2.5	/experiments/knapen_aot/videos/S_video_inspire_uk_edinburgh_arthursseat_010.1080-h264.mp4	0.0	249.0024049282074	
41	128.52936005592346	movie	1		169.0	39.0	2.5	/experiments/knapen_aot/videos/S_video_inspire_uk_edinburgh_arthursseat_010.1080-h264.mp4	0.0	249.01056909561157	2.50833797454834
41	131.0376980304718	fix_post	2		12.0	39.0	2.5	/experiments/knapen_aot/videos/S_video_inspire_uk_edinburgh_arthursseat_010.1080-h264.mp4	0.0	251.5189070701599	0.1000678539276123
42	131.1377658843994	fix_pre	0		507.0	40.0	2.5	/experiments/knapen_aot/videos/R_S_flickr-slruok-8006772217_6.mp4	0.0	251.61897492408752	4.224867105484009
42	135.35444498062134	response	0	2		40.0	2.5	/experiments/knapen_aot/videos/R_S_flickr-slruok-8006772217_6.mp4	0.0	255.83565402030945	
42	135.36263298988342	movie	1		301.0	40.0	2.5	/experiments/knapen_aot/videos/R_S_flickr-slruok-8006772217_6.mp4	0.0	255.84384202957153	2.5083608627319336
42	137.87099385261536	fix_post	2		12.0	40.0	2.5	/experiments/knapen_aot/videos/R_S_flickr-slruok-8006772217_6.mp4	0.0	258.35220289230347	0.10002017021179199
43	137.97101402282715	fix_pre	0		32.0	41.0	2.5	/experiments/knapen_aot/videos/R_S_yt-cgYmOmMzn98_103.mp4	0.0	258.45222306251526	0.2666358947753906
43	138.22942185401917	response	0	2		41.0	2.5	/experiments/knapen_aot/videos/R_S_yt-cgYmOmMzn98_103.mp4	0.0	258.7106308937073	
43	138.23764991760254	movie	1		301.0	41.0	2.5	/experiments/knapen_aot/videos/R_S_yt-cgYmOmMzn98_103.mp4	0.0	258.71885895729065	2.5084409713745117
43	140.74609088897705	fix_post	2		12.0	41.0	2.5	/experiments/knapen_aot/videos/R_S_yt-cgYmOmMzn98_103.mp4	0.0	261.22729992866516	0.09991216659545898
44	140.8460030555725	fix_pre	0		153.0	42.0	2.5	blank	1.0	261.3272120952606	1.2749478816986084
44	142.112802028656	response	0	2		42.0	2.5	blank	1.0	262.5940110683441	
44	142.12095093727112	movie	1		301.0	42.0	2.5	blank	1.0	262.60215997695923	2.508316993713379
44	144.6292679309845	fix_post	2		12.0	42.0	2.5	blank	1.0	265.1104769706726	0.10013914108276367
45	144.72940707206726	fix_pre	0		31.0	43.0	2.5	/experiments/knapen_aot/videos/S_pexels-cottonbro-6789228.mp4	0.0	265.21061611175537	0.2582128047943115
45	144.97944498062134	response	0	2		43.0	2.5	/experiments/knapen_aot/videos/S_pexels-cottonbro-6789228.mp4	0.0	265.46065402030945	
45	144.98761987686157	movie	1		187.0	43.0	2.5	/experiments/knapen_aot/videos/S_pexels-cottonbro-6789228.mp4	0.0	265.4688289165497	2.5084071159362793
45	147.49602699279785	fix_post	2		12.0	43.0	2.5	/experiments/knapen_aot/videos/S_pexels-cottonbro-6789228.mp4	0.0	267.97723603248596	0.09998297691345215
46	147.5960099697113	fix_pre	0		26.0	44.0	2.5	/experiments/knapen_aot/videos/R_S_TYs22gin-EU_57.mp4	0.0	268.0772190093994	0.21659088134765625
46	147.80432987213135	response	0	2		44.0	2.5	/experiments/knapen_aot/videos/R_S_TYs22gin-EU_57.mp4	0.0	268.28553891181946	
46	147.81260085105896	movie	1		301.0	44.0	2.5	/experiments/knapen_aot/videos/R_S_TYs22gin-EU_57.mp4	0.0	268.29380989074707	2.5083889961242676
46	150.32098984718323	fix_post	2		12.0	44.0	2.5	/experiments/knapen_aot/videos/R_S_TYs22gin-EU_57.mp4	0.0	270.80219888687134	0.099945068359375
47	150.4209349155426	fix_pre	0		132.0	45.0	2.5	/experiments/knapen_aot/videos/S_yt-fP2JRJAFGZ4_25.mp4	0.0	270.9021439552307	1.099938154220581
47	151.51274394989014	response	0	2		45.0	2.5	/experiments/knapen_aot/videos/S_yt-fP2JRJAFGZ4_25.mp4	0.0	271.99395298957825	
47	151.52087306976318	movie	1		301.0	45.0	2.5	/experiments/knapen_aot/videos/S_yt-fP2JRJAFGZ4_25.mp4	0.0	272.0020821094513	2.5083940029144287
47	154.0292670726776	fix_post	2		12.0	45.0	2.5	/experiments/knapen_aot/videos/S_yt-fP2JRJAFGZ4_25.mp4	0.0	274.5104761123657	0.1000068187713623
48	154.12927389144897	fix_pre	0		66.0	46.0	2.5	/experiments/knapen_aot/videos/S_yt-zlbtESb7Fcw_28.mp4	0.0	274.6104829311371	0.5499961376190186
48	154.67106795310974	response	0	2		46.0	2.5	/experiments/knapen_aot/videos/S_yt-zlbtESb7Fcw_28.mp4	0.0	275.15227699279785	
48	154.679270029068	movie	1		301.0	46.0	2.5	/experiments/knapen_aot/videos/S_yt-zlbtESb7Fcw_28.mp4	0.0	275.1604790687561	2.5083539485931396
48	157.18762397766113	fix_post	2		12.0	46.0	2.5	/experiments/knapen_aot/videos/S_yt-zlbtESb7Fcw_28.mp4	0.0	277.66883301734924	0.1000669002532959
49	157.28769087791443	fix_pre	0		144.0	47.0	2.5	blank	1.0	277.76889991760254	1.1998381614685059
49	158.4794659614563	response	0	2		47.0	2.5	blank	1.0	278.9606750011444	
49	158.48752903938293	movie	1		301.0	47.0	2.5	blank	1.0	278.96873807907104	2.508309841156006
49	160.99583888053894	fix_post	2		12.0	47.0	2.5	blank	1.0	281.47704792022705	0.10013413429260254
50	161.09597301483154	fix_pre	0		33.0	48.0	2.5	/experiments/knapen_aot/videos/R_S_fHdEaNT0gA0_35.mp4	0.0	281.57718205451965	0.27489495277404785
50	161.36264896392822	response	0	2		48.0	2.5	/experiments/knapen_aot/videos/R_S_fHdEaNT0gA0_35.mp4	0.0	281.84385800361633	
50	161.3708679676056	movie	1		301.0	48.0	2.5	/experiments/knapen_aot/videos/R_S_fHdEaNT0gA0_35.mp4	0.0	281.8520770072937	2.5084290504455566
50	163.87929701805115	fix_post	2		12.0	48.0	2.5	/experiments/knapen_aot/videos/R_S_fHdEaNT0gA0_35.mp4	0.0	284.36050605773926	0.09992790222167969
51	163.97922492027283	fix_pre	0		418.0	49.0	2.5	/experiments/knapen_aot/videos/R_S_RS_A008_C010_SDR_20191218_SDR_2K_AVC.mp4	0.0	284.46043395996094	3.4841129779815674
51	167.45428800582886	response	0	2		49.0	2.5	/experiments/knapen_aot/videos/R_S_RS_A008_C010_SDR_20191218_SDR_2K_AVC.mp4	0.0	287.93549704551697	
51	167.4633378982544	movie	1		175.0	49.0	2.5	/experiments/knapen_aot/videos/R_S_RS_A008_C010_SDR_20191218_SDR_2K_AVC.mp4	0.0	287.9445469379425	2.5075430870056152
51	169.97088098526	fix_post	2		12.0	49.0	2.5	/experiments/knapen_aot/videos/R_S_RS_A008_C010_SDR_20191218_SDR_2K_AVC.mp4	0.0	290.4520900249481	0.10001206398010254
52	170.0708930492401	fix_pre	0		45.0	50.0	2.5	/experiments/knapen_aot/videos/R_S_comp_HK_B005_C011_PSNK_v16_SDR_PS_20180914_SDR_2K_AVC.mp4	0.0	290.5521020889282	0.3749258518218994
52	170.4376130104065	response	0	2		50.0	2.5	/experiments/knapen_aot/videos/R_S_comp_HK_B005_C011_PSNK_v16_SDR_PS_20180914_SDR_2K_AVC.mp4	0.0	290.9188220500946	
52	170.445818901062	movie	1		164.0	50.0	2.5	/experiments/knapen_aot/videos/R_S_comp_HK_B005_C011_PSNK_v16_SDR_PS_20180914_SDR_2K_AVC.mp4	0.0	290.9270279407501	2.508380174636841
52	172.95419907569885	fix_post	2		12.0	50.0	2.5	/experiments/knapen_aot/videos/R_S_comp_HK_B005_C011_PSNK_v16_SDR_PS_20180914_SDR_2K_AVC.mp4	0.0	293.43540811538696	0.09993791580200195
53	173.05413699150085	fix_pre	0		85.0	51.0	2.5	/experiments/knapen_aot/videos/R_S_b3TCugtX0h0_108.mp4	0.0	293.53534603118896	0.7083718776702881
53	173.74686408042908	response	0	2		51.0	2.5	/experiments/knapen_aot/videos/R_S_b3TCugtX0h0_108.mp4	0.0	294.2280731201172	
53	173.76250886917114	movie	1		301.0	51.0	2.5	/experiments/knapen_aot/videos/R_S_b3TCugtX0h0_108.mp4	0.0	294.24371790885925	2.5083580017089844
53	176.27086687088013	fix_post	2		12.0	51.0	2.5	/experiments/knapen_aot/videos/R_S_b3TCugtX0h0_108.mp4	0.0	296.75207591056824	0.10007715225219727
54	176.37094402313232	fix_pre	0		272.0	52.0	2.5	/experiments/knapen_aot/videos/S_pexels-cottonbro-9063801_1.mp4	0.0	296.85215306282043	2.266547918319702
54	178.62932801246643	response	0	2		52.0	2.5	/experiments/knapen_aot/videos/S_pexels-cottonbro-9063801_1.mp4	0.0	299.11053705215454	
54	178.63749194145203	movie	1		198.0	52.0	2.5	/experiments/knapen_aot/videos/S_pexels-cottonbro-9063801_1.mp4	0.0	299.11870098114014	2.5083670616149902
54	181.14585900306702	fix_post	2		12.0	52.0	2.5	/experiments/knapen_aot/videos/S_pexels-cottonbro-9063801_1.mp4	0.0	301.6270680427551	0.09992194175720215
55	181.24578094482422	fix_pre	0		30.0	53.0	2.5	/experiments/knapen_aot/videos/R_S_yt-nMWqezngycw_10.mp4	0.0	301.72698998451233	0.2503929138183594
55	181.4876320362091	response	0	2		53.0	2.5	/experiments/knapen_aot/videos/R_S_yt-nMWqezngycw_10.mp4	0.0	301.9688410758972	
55	181.49617385864258	movie	1		301.0	53.0	2.5	/experiments/knapen_aot/videos/R_S_yt-nMWqezngycw_10.mp4	0.0	301.9773828983307	2.507981061935425
55	184.004154920578	fix_post	2		12.0	53.0	2.5	/experiments/knapen_aot/videos/R_S_yt-nMWqezngycw_10.mp4	0.0	304.4853639602661	0.09994792938232422
56	184.10410284996033	fix_pre	0		172.0	54.0	2.5	/experiments/knapen_aot/videos/S_comp_A103_C002_0205DG_v12_SDR_FINAL_20180706_SDR_2K_AVC.mp4	0.0	304.58531188964844	1.433373212814331
56	185.5292739868164	response	0	2		54.0	2.5	/experiments/knapen_aot/videos/S_comp_A103_C002_0205DG_v12_SDR_FINAL_20180706_SDR_2K_AVC.mp4	0.0	306.0104830265045	
56	185.53747606277466	movie	1		165.0	54.0	2.5	/experiments/knapen_aot/videos/S_comp_A103_C002_0205DG_v12_SDR_FINAL_20180706_SDR_2K_AVC.mp4	0.0	306.01868510246277	2.5085489749908447
56	188.0460250377655	fix_post	2		12.0	54.0	2.5	/experiments/knapen_aot/videos/S_comp_A103_C002_0205DG_v12_SDR_FINAL_20180706_SDR_2K_AVC.mp4	0.0	308.5272340774536	0.09984993934631348
57	188.14587497711182	fix_pre	0		72.0	55.0	2.5	blank	1.0	308.6270840167999	0.599951982498169
57	188.73143005371094	response	0	2		55.0	2.5	blank	1.0	309.21263909339905	
57	188.74582695960999	movie	1		301.0	55.0	2.5	blank	1.0	309.2270359992981	2.5083110332489014
57	191.2541379928589	fix_post	2		12.0	55.0	2.5	blank	1.0	311.735347032547	0.09997200965881348
58	191.3541100025177	fix_pre	0		27.0	56.0	2.5	/experiments/knapen_aot/videos/S_comp_N008_C003_PS_v01_SDR_PS_20180925_SDR_2K_AVC.mp4	0.0	311.8353190422058	0.22491192817687988
58	191.56342792510986	response	0	2		56.0	2.5	/experiments/knapen_aot/videos/S_comp_N008_C003_PS_v01_SDR_PS_20180925_SDR_2K_AVC.mp4	0.0	312.044636964798	
58	191.57902193069458	movie	1		165.0	56.0	2.5	/experiments/knapen_aot/videos/S_comp_N008_C003_PS_v01_SDR_PS_20180925_SDR_2K_AVC.mp4	0.0	312.0602309703827	2.5084941387176514
58	194.08751606941223	fix_post	2		12.0	56.0	2.5	/experiments/knapen_aot/videos/S_comp_N008_C003_PS_v01_SDR_PS_20180925_SDR_2K_AVC.mp4	0.0	314.56872510910034	0.09994983673095703
59	194.1874659061432	fix_pre	0		27.0	57.0	2.5	/experiments/knapen_aot/videos/R_S_yt-zhQ32_OayBQ_39.mp4	0.0	314.6686749458313	0.22497916221618652
59	194.40416288375854	response	0	2		57.0	2.5	/experiments/knapen_aot/videos/R_S_yt-zhQ32_OayBQ_39.mp4	0.0	314.88537192344666	
59	194.41244506835938	movie	1		301.0	57.0	2.5	/experiments/knapen_aot/videos/R_S_yt-zhQ32_OayBQ_39.mp4	0.0	314.8936541080475	2.5085058212280273
59	196.9209508895874	fix_post	2		12.0	57.0	2.5	/experiments/knapen_aot/videos/R_S_yt-zhQ32_OayBQ_39.mp4	0.0	317.4021599292755	0.09981298446655273
60	197.02076387405396	fix_pre	0		190.0	58.0	2.5	/experiments/knapen_aot/videos/S_yt-Wr5vs_0Iypw_161.mp4	0.0	317.50197291374207	1.5832910537719727
60	198.59590101242065	response	0	2		58.0	2.5	/experiments/knapen_aot/videos/S_yt-Wr5vs_0Iypw_161.mp4	0.0	319.07711005210876	
60	198.60405492782593	movie	1		301.0	58.0	2.5	/experiments/knapen_aot/videos/S_yt-Wr5vs_0Iypw_161.mp4	0.0	319.08526396751404	2.508389949798584
60	201.1124448776245	fix_post	2		12.0	58.0	2.5	/experiments/knapen_aot/videos/S_yt-Wr5vs_0Iypw_161.mp4	0.0	321.5936539173126	0.1000370979309082
61	201.21248197555542	fix_pre	0		29.0	59.0	2.5	/experiments/knapen_aot/videos/S_yt-Q9fI2ar05IE_77.mp4	0.0	321.69369101524353	0.24152302742004395
61	201.44588804244995	response	0	2		59.0	2.5	/experiments/knapen_aot/videos/S_yt-Q9fI2ar05IE_77.mp4	0.0	321.92709708213806	
61	201.45400500297546	movie	1		301.0	59.0	2.5	/experiments/knapen_aot/videos/S_yt-Q9fI2ar05IE_77.mp4	0.0	321.9352140426636	2.5084080696105957
61	203.96241307258606	fix_post	2		12.0	59.0	2.5	/experiments/knapen_aot/videos/S_yt-Q9fI2ar05IE_77.mp4	0.0	324.44362211227417	0.09998178482055664
62	204.06239485740662	fix_pre	0		33.0	60.0	2.5	/experiments/knapen_aot/videos/R_S_yt-uY5xsUKn8zU_17.mp4	0.0	324.5436038970947	0.27575206756591797
62	204.32915902137756	response	0	2		60.0	2.5	/experiments/knapen_aot/videos/R_S_yt-uY5xsUKn8zU_17.mp4	0.0	324.8103680610657	
62	204.33814692497253	movie	1		301.0	60.0	2.5	/experiments/knapen_aot/videos/R_S_yt-uY5xsUKn8zU_17.mp4	0.0	324.81935596466064	2.507638931274414
62	206.84578585624695	fix_post	2		12.0	60.0	2.5	/experiments/knapen_aot/videos/R_S_yt-uY5xsUKn8zU_17.mp4	0.0	327.32699489593506	0.09999799728393555
63	206.94578385353088	fix_pre	0		31.0	61.0	2.5	blank	1.0	327.426992893219	0.2582111358642578
63	207.19584798812866	response	0	2		61.0	2.5	blank	1.0	327.6770570278168	
63	207.20399498939514	movie	1		301.0	61.0	2.5	blank	1.0	327.68520402908325	2.5083160400390625
63	209.7123110294342	fix_post	2		12.0	61.0	2.5	blank	1.0	330.1935200691223	0.10023784637451172
64	209.81254887580872	fix_pre	0		236.0	62.0	2.5	/experiments/knapen_aot/videos/R_S_yt-1n1jTroiwJs_163.mp4	0.0	330.2937579154968	1.9665231704711914
64	211.77083587646484	response	0	2		62.0	2.5	/experiments/knapen_aot/videos/R_S_yt-1n1jTroiwJs_163.mp4	0.0	332.25204491615295	
64	211.7790720462799	movie	1		301.0	62.0	2.5	/experiments/knapen_aot/videos/R_S_yt-1n1jTroiwJs_163.mp4	0.0	332.260281085968	2.5084469318389893
64	214.2875189781189	fix_post	2		12.0	62.0	2.5	/experiments/knapen_aot/videos/R_S_yt-1n1jTroiwJs_163.mp4	0.0	334.768728017807	0.09984493255615234
65	214.38736391067505	fix_pre	0		35.0	63.0	2.5	/experiments/knapen_aot/videos/R_S_wc-PsidKmkEV7Km_14.mp4	0.0	334.86857295036316	0.29166412353515625
65	214.67090392112732	response	0	2		63.0	2.5	/experiments/knapen_aot/videos/R_S_wc-PsidKmkEV7Km_14.mp4	0.0	335.15211296081543	
65	214.6790280342102	movie	1		168.0	63.0	2.5	/experiments/knapen_aot/videos/R_S_wc-PsidKmkEV7Km_14.mp4	0.0	335.1602370738983	2.5083529949188232
65	217.18738102912903	fix_post	2		12.0	63.0	2.5	/experiments/knapen_aot/videos/R_S_wc-PsidKmkEV7Km_14.mp4	0.0	337.66859006881714	0.10000085830688477
66	217.2873818874359	fix_pre	0		75.0	64.0	2.5	/experiments/knapen_aot/videos/S_yt-kINZMjys3O4_112.mp4	0.0	337.768590927124	0.6249701976776123
66	217.9040448665619	response	0	2		64.0	2.5	/experiments/knapen_aot/videos/S_yt-kINZMjys3O4_112.mp4	0.0	338.38525390625	
66	217.91235208511353	movie	1		301.0	64.0	2.5	/experiments/knapen_aot/videos/S_yt-kINZMjys3O4_112.mp4	0.0	338.39356112480164	2.5083208084106445
66	220.42067289352417	fix_post	2		12.0	64.0	2.5	/experiments/knapen_aot/videos/S_yt-kINZMjys3O4_112.mp4	0.0	340.9018819332123	0.09996700286865234
67	220.52063989639282	fix_pre	0		114.0	65.0	2.5	/experiments/knapen_aot/videos/R_S_ILSVRC2015_train_00219004.mp4	0.0	341.00184893608093	0.9501190185546875
67	221.4625129699707	response	0	2		65.0	2.5	/experiments/knapen_aot/videos/R_S_ILSVRC2015_train_00219004.mp4	0.0	341.9437220096588	
67	221.4707589149475	movie	1		301.0	65.0	2.5	/experiments/knapen_aot/videos/R_S_ILSVRC2015_train_00219004.mp4	0.0	341.9519679546356	2.5082521438598633
67	223.97901105880737	fix_post	2		12.0	65.0	2.5	/experiments/knapen_aot/videos/R_S_ILSVRC2015_train_00219004.mp4	0.0	344.4602200984955	0.09998583793640137
68	224.07899689674377	fix_pre	0		153.0	66.0	2.5	/experiments/knapen_aot/videos/S_yt-tOOaOzYvtKE_79.mp4	0.0	344.5602059364319	1.2749950885772705
68	225.345782995224	response	0	2		66.0	2.5	/experiments/knapen_aot/videos/S_yt-tOOaOzYvtKE_79.mp4	0.0	345.8269920349121	
68	225.35399198532104	movie	1		301.0	66.0	2.5	/experiments/knapen_aot/videos/S_yt-tOOaOzYvtKE_79.mp4	0.0	345.83520102500916	2.508347988128662
68	227.8623399734497	fix_post	2		12.0	66.0	2.5	/experiments/knapen_aot/videos/S_yt-tOOaOzYvtKE_79.mp4	0.0	348.3435490131378	0.09993100166320801
69	227.96227097511292	fix_pre	0		41.0	67.0	2.5	/experiments/knapen_aot/videos/R_S_yt-GBt59U0KUR0_6.mp4	0.0	348.443480014801	0.34163999557495117
69	228.29578495025635	response	0	2		67.0	2.5	/experiments/knapen_aot/videos/R_S_yt-GBt59U0KUR0_6.mp4	0.0	348.77699398994446	
69	228.30391097068787	movie	1		301.0	67.0	2.5	/experiments/knapen_aot/videos/R_S_yt-GBt59U0KUR0_6.mp4	0.0	348.785120010376	2.508636951446533
69	230.8125479221344	fix_post	2		12.0	67.0	2.5	/experiments/knapen_aot/videos/R_S_yt-GBt59U0KUR0_6.mp4	0.0	351.2937569618225	0.09968805313110352
70	230.9122359752655	fix_pre	0		55.0	68.0	2.5	/experiments/knapen_aot/videos/R_S_ILSVRC2015_train_00042003.mp4	0.0	351.3934450149536	0.45833802223205566
70	231.36248993873596	response	0	2		68.0	2.5	/experiments/knapen_aot/videos/R_S_ILSVRC2015_train_00042003.mp4	0.0	351.8436989784241	
70	231.37057399749756	movie	1		301.0	68.0	2.5	/experiments/knapen_aot/videos/R_S_ILSVRC2015_train_00042003.mp4	0.0	351.85178303718567	2.5084118843078613
70	233.87898588180542	fix_post	2		12.0	68.0	2.5	/experiments/knapen_aot/videos/R_S_ILSVRC2015_train_00042003.mp4	0.0	354.36019492149353	0.09998297691345215
71	233.97896885871887	fix_pre	0		61.0	69.0	2.5	blank	1.0	354.460177898407	0.5083131790161133
71	234.4716510772705	response	0	2		69.0	2.5	blank	1.0	354.9528601169586	
71	234.48728203773499	movie	1		301.0	69.0	2.5	blank	1.0	354.9684910774231	2.508272886276245
71	236.99555492401123	fix_post	2		12.0	69.0	2.5	blank	1.0	357.47676396369934	0.10026192665100098
72	237.09581685066223	fix_pre	0		65.0	70.0	2.5	/experiments/knapen_aot/videos/S_yt-R5wOWRtRmrI_36.mp4	0.0	357.57702589035034	0.541417121887207
72	237.62904596328735	response	0	2		70.0	2.5	/experiments/knapen_aot/videos/S_yt-R5wOWRtRmrI_36.mp4	0.0	358.11025500297546	
72	237.63723397254944	movie	1		301.0	70.0	2.5	/experiments/knapen_aot/videos/S_yt-R5wOWRtRmrI_36.mp4	0.0	358.11844301223755	2.508578062057495
72	240.14581203460693	fix_post	2		12.0	70.0	2.5	/experiments/knapen_aot/videos/S_yt-R5wOWRtRmrI_36.mp4	0.0	360.62702107429504	0.09987282752990723
73	240.24568486213684	fix_pre	0		23.0	71.0	2.5	/experiments/knapen_aot/videos/S_yt-fk-z6WCvjjA_3.mp4	0.0	360.72689390182495	0.19155621528625488
73	240.42904806137085	response	0	2		71.0	2.5	/experiments/knapen_aot/videos/S_yt-fk-z6WCvjjA_3.mp4	0.0	360.91025710105896	
73	240.4372410774231	movie	1		301.0	71.0	2.5	/experiments/knapen_aot/videos/S_yt-fk-z6WCvjjA_3.mp4	0.0	360.9184501171112	2.508391857147217
73	242.30746388435364	response	1	2		71.0	2.5	/experiments/knapen_aot/videos/S_yt-fk-z6WCvjjA_3.mp4	0.0	362.78867292404175	
73	242.9456329345703	fix_post	2		12.0	71.0	2.5	/experiments/knapen_aot/videos/S_yt-fk-z6WCvjjA_3.mp4	0.0	363.4268419742584	0.09998512268066406
74	243.04561805725098	fix_pre	0		36.0	72.0	2.5	/experiments/knapen_aot/videos/R_S_yt-fGN7sGPy8BA_13.mp4	0.0	363.5268270969391	0.29995298385620117
74	243.32991194725037	response	0	2		72.0	2.5	/experiments/knapen_aot/videos/R_S_yt-fGN7sGPy8BA_13.mp4	0.0	363.8111209869385	
74	243.34557104110718	movie	1		301.0	72.0	2.5	/experiments/knapen_aot/videos/R_S_yt-fGN7sGPy8BA_13.mp4	0.0	363.8267800807953	2.508347988128662
74	245.85391902923584	fix_post	2		12.0	72.0	2.5	/experiments/knapen_aot/videos/R_S_yt-fGN7sGPy8BA_13.mp4	0.0	366.33512806892395	0.09999299049377441
75	245.95391201972961	fix_pre	0		73.0	73.0	2.5	/experiments/knapen_aot/videos/S_yt-hvuC_2YXsTQ_159.mp4	0.0	366.4351210594177	0.6082689762115479
75	246.54642486572266	response	0	2		73.0	2.5	/experiments/knapen_aot/videos/S_yt-hvuC_2YXsTQ_159.mp4	0.0	367.02763390541077	
75	246.56218099594116	movie	1		301.0	73.0	2.5	/experiments/knapen_aot/videos/S_yt-hvuC_2YXsTQ_159.mp4	0.0	367.0433900356293	2.5084409713745117
75	249.07062196731567	fix_post	2		12.0	73.0	2.5	/experiments/knapen_aot/videos/S_yt-hvuC_2YXsTQ_159.mp4	0.0	369.5518310070038	0.10001206398010254
76	249.17063403129578	fix_pre	0		270.0	74.0	2.5	/experiments/knapen_aot/videos/S_yt-b7bIulV49DQ_81.mp4	0.0	369.6518430709839	2.2503600120544434
76	251.41236186027527	response	0	2		74.0	2.5	/experiments/knapen_aot/videos/S_yt-b7bIulV49DQ_81.mp4	0.0	371.8935708999634	
76	251.42099404335022	movie	1		301.0	74.0	2.5	/experiments/knapen_aot/videos/S_yt-b7bIulV49DQ_81.mp4	0.0	371.90220308303833	2.507930040359497
76	253.92892408370972	fix_post	2		12.0	74.0	2.5	/experiments/knapen_aot/videos/S_yt-b7bIulV49DQ_81.mp4	0.0	374.4101331233978	0.10002589225769043
77	254.0289499759674	fix_pre	0		28.0	75.0	2.5	/experiments/knapen_aot/videos/R_S_yt-4Qz0m5IYh10_167.mp4	0.0	374.5101590156555	0.23341894149780273
77	254.25407004356384	response	0	2		75.0	2.5	/experiments/knapen_aot/videos/R_S_yt-4Qz0m5IYh10_167.mp4	0.0	374.73527908325195	
77	254.2623689174652	movie	1		301.0	75.0	2.5	/experiments/knapen_aot/videos/R_S_yt-4Qz0m5IYh10_167.mp4	0.0	374.7435779571533	2.5082480907440186
77	256.77061700820923	fix_post	2		12.0	75.0	2.5	/experiments/knapen_aot/videos/R_S_yt-4Qz0m5IYh10_167.mp4	0.0	377.25182604789734	0.09992599487304688
78	256.8705430030823	fix_pre	0		18.0	76.0	2.5	blank	1.0	377.3517520427704	0.1500258445739746
78	257.01238489151	response	0	2		76.0	2.5	blank	1.0	377.4935939311981	
78	257.02056884765625	movie	1		301.0	76.0	2.5	blank	1.0	377.50177788734436	2.5082921981811523
78	259.5288610458374	fix_post	2		12.0	76.0	2.5	blank	1.0	380.0100700855255	0.10002899169921875
79	259.6288900375366	fix_pre	0		20.0	77.0	2.5	/experiments/knapen_aot/videos/R_S_pexels-ron-lach-8071987.mp4	0.0	380.11009907722473	0.16699481010437012
79	259.7873020172119	response	0	2		77.0	2.5	/experiments/knapen_aot/videos/R_S_pexels-ron-lach-8071987.mp4	0.0	380.2685110569	
79	259.795884847641	movie	1		203.0	77.0	2.5	/experiments/knapen_aot/videos/R_S_pexels-ron-lach-8071987.mp4	0.0	380.2770938873291	2.5080440044403076
79	262.3039288520813	fix_post	2		12.0	77.0	2.5	/experiments/knapen_aot/videos/R_S_pexels-ron-lach-8071987.mp4	0.0	382.7851378917694	0.10003018379211426
79	262.370591878891	response	2	2		77.0	2.5	/experiments/knapen_aot/videos/R_S_pexels-ron-lach-8071987.mp4	0.0	382.8518009185791	
80	262.4039590358734	fix_pre	0		141.0	78.0	2.5	/experiments/knapen_aot/videos/R_S_pexels-roman-odintsov-8232443.mp4	0.0	382.8851680755615	1.174793004989624
80	263.57061791419983	response	0	2		78.0	2.5	/experiments/knapen_aot/videos/R_S_pexels-roman-odintsov-8232443.mp4	0.0	384.05182695388794	
80	263.57875204086304	movie	1		201.0	78.0	2.5	/experiments/knapen_aot/videos/R_S_pexels-roman-odintsov-8232443.mp4	0.0	384.05996108055115	2.5087008476257324
80	266.08745288848877	fix_post	2		12.0	78.0	2.5	/experiments/knapen_aot/videos/R_S_pexels-roman-odintsov-8232443.mp4	0.0	386.5686619281769	0.09981203079223633
81	266.187264919281	fix_pre	0		30.0	79.0	2.5	/experiments/knapen_aot/videos/R_S_wc-ZGCMbPfXQ71L_31.mp4	0.0	386.6684739589691	0.2498941421508789
81	266.42891907691956	response	0	2		79.0	2.5	/experiments/knapen_aot/videos/R_S_wc-ZGCMbPfXQ71L_31.mp4	0.0	386.91012811660767	
81	266.4371590614319	movie	1		177.0	79.0	2.5	/experiments/knapen_aot/videos/R_S_wc-ZGCMbPfXQ71L_31.mp4	0.0	386.91836810112	2.5083107948303223
81	268.9454698562622	fix_post	2		12.0	79.0	2.5	/experiments/knapen_aot/videos/R_S_wc-ZGCMbPfXQ71L_31.mp4	0.0	389.4266788959503	0.10039806365966797
82	269.0458679199219	fix_pre	0		36.0	80.0	2.5	/experiments/knapen_aot/videos/R_S_yt-mWlx1SIXl5M_850.mp4	0.0	389.52707695961	0.2995870113372803
82	269.33727288246155	response	0	2		80.0	2.5	/experiments/knapen_aot/videos/R_S_yt-mWlx1SIXl5M_850.mp4	0.0	389.81848192214966	
82	269.34545493125916	movie	1		301.0	80.0	2.5	/experiments/knapen_aot/videos/R_S_yt-mWlx1SIXl5M_850.mp4	0.0	389.82666397094727	2.5083489418029785
82	271.565486907959	response	1	2		80.0	2.5	/experiments/knapen_aot/videos/R_S_yt-mWlx1SIXl5M_850.mp4	0.0	392.0466959476471	
82	271.85380387306213	fix_post	2		12.0	80.0	2.5	/experiments/knapen_aot/videos/R_S_yt-mWlx1SIXl5M_850.mp4	0.0	392.33501291275024	0.10009908676147461
83	271.9539029598236	fix_pre	0		230.0	81.0	2.5	/experiments/knapen_aot/videos/R_S_ILSVRC2015_train_00708000.mp4	0.0	392.4351119995117	1.9165139198303223
83	273.8623549938202	response	0	2		81.0	2.5	/experiments/knapen_aot/videos/R_S_ILSVRC2015_train_00708000.mp4	0.0	394.3435640335083	
83	273.87041687965393	movie	1		301.0	81.0	2.5	/experiments/knapen_aot/videos/R_S_ILSVRC2015_train_00708000.mp4	0.0	394.35162591934204	2.508404016494751
83	276.3788208961487	fix_post	2		12.0	81.0	2.5	/experiments/knapen_aot/videos/R_S_ILSVRC2015_train_00708000.mp4	0.0	396.8600299358368	0.10021209716796875
84	276.47903299331665	fix_pre	0		125.0	82.0	2.5	blank	1.0	396.96024203300476	1.0414130687713623
84	277.51218485832214	response	0	2		82.0	2.5	blank	1.0	397.99339389801025	
84	277.520446062088	movie	1		301.0	82.0	2.5	blank	1.0	398.0016551017761	2.5084798336029053
84	279.5372018814087	response	1	2		82.0	2.5	blank	1.0	400.0184109210968	
84	280.0289258956909	fix_post	2		12.0	82.0	2.5	blank	1.0	400.510134935379	0.1001579761505127
85	280.12908387184143	fix_pre	0		30.0	83.0	2.5	/experiments/knapen_aot/videos/S_yt--_ZMybcaUOw_254.mp4	0.0	400.61029291152954	0.24989104270935059
85	280.3704550266266	response	0	2		83.0	2.5	/experiments/knapen_aot/videos/S_yt--_ZMybcaUOw_254.mp4	0.0	400.8516640663147	
85	280.3789749145508	movie	1		301.0	83.0	2.5	/experiments/knapen_aot/videos/S_yt--_ZMybcaUOw_254.mp4	0.0	400.8601839542389	2.508125066757202
85	282.887099981308	fix_post	2		12.0	83.0	2.5	/experiments/knapen_aot/videos/S_yt--_ZMybcaUOw_254.mp4	0.0	403.3683090209961	0.09998703002929688
87	282.9870870113373	stim	0		141.0					403.4682960510254	1.1766698360443115
87	283.3038718700409	response	0	2						403.785080909729	
87	284.15734791755676	response	0	space						404.6385569572449	
