trial_nr	onset	event_type	phase	response	nr_frames	movie_index	movie_duration	movie_file	blank	onset_abs	duration
0	0.14961695671081543	stim	0		38.0					59.423534870147705	0.3169748783111572
0	0.45117902755737305	response	0	space						59.72509694099426	
1	0.46659183502197266	stim	0		121.0					59.74050974845886	1.0084969997406006
1	0.9333319664001465	response	0	space						60.207249879837036	
1	1.2417168617248535	response	0	space						60.51563477516174	
1	1.4750888347625732	stim	1		120.0					60.74900674819946	0.9996240139007568
1	1.574765920639038	response	1	space						60.84868383407593	
1	1.867163896560669	response	1	space						61.14108180999756	
1	2.1830170154571533	response	1	space						61.45693492889404	
1	2.4580078125	response	1	space						61.73192572593689	
2	2.47471284866333	fix_pre	0		30.0	0.0	2.5	/experiments/knapen_aot/oldvideos/S_yt-hvuC_2YXsTQ_159.mp4	0.0	61.74863076210022	0.2512211799621582
2	2.7163050174713135	response	0	space		0.0	2.5	/experiments/knapen_aot/oldvideos/S_yt-hvuC_2YXsTQ_159.mp4	0.0	61.9902229309082	
2	2.7259340286254883	movie	1		301.0	0.0	2.5	/experiments/knapen_aot/oldvideos/S_yt-hvuC_2YXsTQ_159.mp4	0.0	61.99985194206238	2.506992816925049
2	5.232926845550537	fix_post	2		12.0	0.0	2.5	/experiments/knapen_aot/oldvideos/S_yt-hvuC_2YXsTQ_159.mp4	0.0	64.50684475898743	0.10005903244018555
3	5.332985877990723	fix_pre	0		48.0	1.0	2.5	/experiments/knapen_aot/oldvideos/R_S_yt-7Fyu2vr7zbA_31.mp4	0.0	64.60690379142761	0.3999519348144531
3	5.729261875152588	response	0	4		1.0	2.5	/experiments/knapen_aot/oldvideos/R_S_yt-7Fyu2vr7zbA_31.mp4	0.0	65.00317978858948	
3	5.732937812805176	movie	1		301.0	1.0	2.5	/experiments/knapen_aot/oldvideos/R_S_yt-7Fyu2vr7zbA_31.mp4	0.0	65.00685572624207	2.5083060264587402
3	8.241243839263916	fix_post	2		12.0	1.0	2.5	/experiments/knapen_aot/oldvideos/R_S_yt-7Fyu2vr7zbA_31.mp4	0.0	67.5151617527008	0.10002517700195312
4	8.34126901626587	fix_pre	0		25.0	2.0	2.5	/experiments/knapen_aot/oldvideos/R_S_ILSVRC2015_train_00545000.mp4	0.0	67.61518692970276	0.2083117961883545
4	8.541379928588867	response	0	4		2.0	2.5	/experiments/knapen_aot/oldvideos/R_S_ILSVRC2015_train_00545000.mp4	0.0	67.81529784202576	
4	8.549580812454224	movie	1		301.0	2.0	2.5	/experiments/knapen_aot/oldvideos/R_S_ILSVRC2015_train_00545000.mp4	0.0	67.82349872589111	2.5087130069732666
4	11.05829381942749	fix_post	2		12.0	2.0	2.5	/experiments/knapen_aot/oldvideos/R_S_ILSVRC2015_train_00545000.mp4	0.0	70.33221173286438	0.09957218170166016
5	11.15786600112915	fix_pre	0		23.0	3.0	2.5	/experiments/knapen_aot/oldvideos/S_yt-w_e3sxIzepA_115.mp4	0.0	70.43178391456604	0.19166803359985352
5	11.33383584022522	response	0	4		3.0	2.5	/experiments/knapen_aot/oldvideos/S_yt-w_e3sxIzepA_115.mp4	0.0	70.60775375366211	
5	11.349534034729004	movie	1		301.0	3.0	2.5	/experiments/knapen_aot/oldvideos/S_yt-w_e3sxIzepA_115.mp4	0.0	70.6234519481659	2.508375883102417
5	13.857909917831421	fix_post	2		12.0	3.0	2.5	/experiments/knapen_aot/oldvideos/S_yt-w_e3sxIzepA_115.mp4	0.0	73.13182783126831	0.09998393058776855
6	13.95789384841919	fix_pre	0		29.0	4.0	2.5	/experiments/knapen_aot/oldvideos/R_S_yt-yJmHtBFyhH4_15.mp4	0.0	73.23181176185608	0.24166607856750488
6	14.19132685661316	response	0	4		4.0	2.5	/experiments/knapen_aot/oldvideos/R_S_yt-yJmHtBFyhH4_15.mp4	0.0	73.46524477005005	
6	14.199559926986694	movie	1		301.0	4.0	2.5	/experiments/knapen_aot/oldvideos/R_S_yt-yJmHtBFyhH4_15.mp4	0.0	73.47347784042358	2.508410930633545
6	16.70797085762024	fix_post	2		12.0	4.0	2.5	/experiments/knapen_aot/oldvideos/R_S_yt-yJmHtBFyhH4_15.mp4	0.0	75.98188877105713	0.09995317459106445
7	16.807924032211304	fix_pre	0		30.0	5.0	2.5	/experiments/knapen_aot/oldvideos/R_S_yt-BFA07F4L4S0_22.mp4	0.0	76.0818419456482	0.24999499320983887
7	17.049667835235596	response	0	4		5.0	2.5	/experiments/knapen_aot/oldvideos/R_S_yt-BFA07F4L4S0_22.mp4	0.0	76.32358574867249	
7	17.057919025421143	movie	1		301.0	5.0	2.5	/experiments/knapen_aot/oldvideos/R_S_yt-BFA07F4L4S0_22.mp4	0.0	76.33183693885803	2.508302927017212
7	19.566221952438354	fix_post	2		12.0	5.0	2.5	/experiments/knapen_aot/oldvideos/R_S_yt-BFA07F4L4S0_22.mp4	0.0	78.84013986587524	0.09996700286865234
8	19.666188955307007	fix_pre	0		24.0	6.0	2.5	blank	1.0	78.9401068687439	0.2000279426574707
8	19.857951879501343	response	0	4		6.0	2.5	blank	1.0	79.13186979293823	
8	19.866216897964478	movie	1		301.0	6.0	2.5	blank	1.0	79.14013481140137	2.5083539485931396
8	22.374570846557617	fix_post	2		12.0	6.0	2.5	blank	1.0	81.6484887599945	0.09990215301513672
9	22.474472999572754	fix_pre	0		35.0	7.0	2.5	/experiments/knapen_aot/oldvideos/R_S_yt-_68FWLGgPYE_25.mp4	0.0	81.74839091300964	0.29294300079345703
9	22.75796389579773	response	0	4		7.0	2.5	/experiments/knapen_aot/oldvideos/R_S_yt-_68FWLGgPYE_25.mp4	0.0	82.03188180923462	
9	22.76741600036621	movie	1		301.0	7.0	2.5	/experiments/knapen_aot/oldvideos/R_S_yt-_68FWLGgPYE_25.mp4	0.0	82.0413339138031	2.5070998668670654
9	25.274515867233276	fix_post	2		12.0	7.0	2.5	/experiments/knapen_aot/oldvideos/R_S_yt-_68FWLGgPYE_25.mp4	0.0	84.54843378067017	0.10001516342163086
10	25.374531030654907	fix_pre	0		32.0	8.0	2.5	/experiments/knapen_aot/oldvideos/R_S_yt-_Hnr82bYGEQ_103.mp4	0.0	84.6484489440918	0.2665529251098633
10	25.625375986099243	response	0	4		8.0	2.5	/experiments/knapen_aot/oldvideos/R_S_yt-_Hnr82bYGEQ_103.mp4	0.0	84.89929389953613	
10	25.64108395576477	movie	1		301.0	8.0	2.5	/experiments/knapen_aot/oldvideos/R_S_yt-_Hnr82bYGEQ_103.mp4	0.0	84.91500186920166	2.5085110664367676
10	28.149595022201538	fix_post	2		12.0	8.0	2.5	/experiments/knapen_aot/oldvideos/R_S_yt-_Hnr82bYGEQ_103.mp4	0.0	87.42351293563843	0.10000181198120117
11	28.24959683418274	fix_pre	0		24.0	9.0	2.5	/experiments/knapen_aot/oldvideos/S_yt-fGN7sGPy8BA_13.mp4	0.0	87.52351474761963	0.19990301132202148
11	28.4413800239563	response	0	4		9.0	2.5	/experiments/knapen_aot/oldvideos/S_yt-fGN7sGPy8BA_13.mp4	0.0	87.71529793739319	
11	28.44949984550476	movie	1		301.0	9.0	2.5	/experiments/knapen_aot/oldvideos/S_yt-fGN7sGPy8BA_13.mp4	0.0	87.72341775894165	2.508263111114502
11	30.957762956619263	fix_post	2		12.0	9.0	2.5	/experiments/knapen_aot/oldvideos/S_yt-fGN7sGPy8BA_13.mp4	0.0	90.23168087005615	0.10007691383361816
12	31.05783987045288	fix_pre	0		20.0	10.0	2.5	/experiments/knapen_aot/oldvideos/S_yt-JtR6WZXT2kU_8.mp4	0.0	90.33175778388977	0.16791796684265137
12	31.216270923614502	response	0	4		10.0	2.5	/experiments/knapen_aot/oldvideos/S_yt-JtR6WZXT2kU_8.mp4	0.0	90.49018883705139	
12	31.225757837295532	movie	1		301.0	10.0	2.5	/experiments/knapen_aot/oldvideos/S_yt-JtR6WZXT2kU_8.mp4	0.0	90.49967575073242	2.507078170776367
12	33.7328360080719	fix_post	2		12.0	10.0	2.5	/experiments/knapen_aot/oldvideos/S_yt-JtR6WZXT2kU_8.mp4	0.0	93.00675392150879	0.1000058650970459
13	33.832841873168945	fix_pre	0		218.0	11.0	2.5	/experiments/knapen_aot/oldvideos/S_pexels-koolshooters-7327405.mp4	0.0	93.10675978660583	1.8165760040283203
13	35.64130091667175	response	0	4		11.0	2.5	/experiments/knapen_aot/oldvideos/S_pexels-koolshooters-7327405.mp4	0.0	94.91521883010864	
13	35.649417877197266	movie	1		181.0	11.0	2.5	/experiments/knapen_aot/oldvideos/S_pexels-koolshooters-7327405.mp4	0.0	94.92333579063416	2.5084731578826904
13	38.157891035079956	fix_post	2		12.0	11.0	2.5	/experiments/knapen_aot/oldvideos/S_pexels-koolshooters-7327405.mp4	0.0	97.43180894851685	0.0999748706817627
14	38.25786590576172	fix_pre	0		35.0	12.0	2.5	blank	1.0	97.53178381919861	0.2916378974914551
14	38.54132699966431	response	0	4		12.0	2.5	blank	1.0	97.8152449131012	
14	38.549503803253174	movie	1		301.0	12.0	2.5	blank	1.0	97.82342171669006	2.5082859992980957
14	41.05778980255127	fix_post	2		12.0	12.0	2.5	blank	1.0	100.33170771598816	0.10002923011779785
15	41.15781903266907	fix_pre	0		24.0	13.0	2.5	/experiments/knapen_aot/oldvideos/R_S_ILSVRC2015_train_00569007.mp4	0.0	100.43173694610596	0.1999828815460205
15	41.34953784942627	response	0	4		13.0	2.5	/experiments/knapen_aot/oldvideos/R_S_ILSVRC2015_train_00569007.mp4	0.0	100.62345576286316	
15	41.35780191421509	movie	1		301.0	13.0	2.5	/experiments/knapen_aot/oldvideos/R_S_ILSVRC2015_train_00569007.mp4	0.0	100.63171982765198	2.5083229541778564
15	43.866124868392944	fix_post	2		12.0	13.0	2.5	/experiments/knapen_aot/oldvideos/R_S_ILSVRC2015_train_00569007.mp4	0.0	103.14004278182983	0.09998011589050293
16	43.96610498428345	fix_pre	0		62.0	14.0	2.5	/experiments/knapen_aot/oldvideos/R_S_production_ID_3967181.mp4	0.0	103.24002289772034	0.5166089534759521
16	44.47466588020325	response	0	4		14.0	2.5	/experiments/knapen_aot/oldvideos/R_S_production_ID_3967181.mp4	0.0	103.74858379364014	
16	44.4827139377594	movie	1		186.0	14.0	2.5	/experiments/knapen_aot/oldvideos/R_S_production_ID_3967181.mp4	0.0	103.75663185119629	2.5083839893341064
16	46.991097927093506	fix_post	2		12.0	14.0	2.5	/experiments/knapen_aot/oldvideos/R_S_production_ID_3967181.mp4	0.0	106.2650158405304	0.10002398490905762
17	47.09112191200256	fix_pre	0		55.0	15.0	2.5	/experiments/knapen_aot/oldvideos/R_S_production_ID_3967181.mp4	0.0	106.36503982543945	0.458251953125
17	47.541183948516846	response	0	4		15.0	2.5	/experiments/knapen_aot/oldvideos/R_S_production_ID_3967181.mp4	0.0	106.81510186195374	
17	47.54937386512756	movie	1		198.0	15.0	2.5	/experiments/knapen_aot/oldvideos/R_S_production_ID_3967181.mp4	0.0	106.82329177856445	2.5084290504455566
17	50.05780291557312	fix_post	2		12.0	15.0	2.5	/experiments/knapen_aot/oldvideos/R_S_production_ID_3967181.mp4	0.0	109.33172082901001	0.10000896453857422
18	50.157811880111694	fix_pre	0		237.0	16.0	2.5	/experiments/knapen_aot/oldvideos/S_yt-D_f3_HIXG2g_87.mp4	0.0	109.43172979354858	1.9749290943145752
18	52.124584913253784	response	0	4		16.0	2.5	/experiments/knapen_aot/oldvideos/S_yt-D_f3_HIXG2g_87.mp4	0.0	111.39850282669067	
18	52.13274097442627	movie	1		301.0	16.0	2.5	/experiments/knapen_aot/oldvideos/S_yt-D_f3_HIXG2g_87.mp4	0.0	111.40665888786316	2.508316993713379
18	54.64105796813965	fix_post	2		12.0	16.0	2.5	/experiments/knapen_aot/oldvideos/S_yt-D_f3_HIXG2g_87.mp4	0.0	113.91497588157654	0.0999760627746582
19	54.74103403091431	fix_pre	0		48.0	17.0	2.5	/experiments/knapen_aot/oldvideos/S_nvbAwZOKBS8_23.mp4	0.0	114.0149519443512	0.40108299255371094
19	55.132983922958374	response	0	4		17.0	2.5	/experiments/knapen_aot/oldvideos/S_nvbAwZOKBS8_23.mp4	0.0	114.40690183639526	
19	55.14211702346802	movie	1		301.0	17.0	2.5	/experiments/knapen_aot/oldvideos/S_nvbAwZOKBS8_23.mp4	0.0	114.41603493690491	2.5072078704833984
19	57.649324893951416	fix_post	2		12.0	17.0	2.5	/experiments/knapen_aot/oldvideos/S_nvbAwZOKBS8_23.mp4	0.0	116.9232428073883	0.10005903244018555
20	57.7493839263916	fix_pre	0		20.0	18.0	2.5	/experiments/knapen_aot/oldvideos/R_S_yt-H45g6700wbc_159.mp4	0.0	117.02330183982849	0.16660094261169434
20	57.90784788131714	response	0	4		18.0	2.5	/experiments/knapen_aot/oldvideos/R_S_yt-H45g6700wbc_159.mp4	0.0	117.18176579475403	
20	57.915984869003296	movie	1		301.0	18.0	2.5	/experiments/knapen_aot/oldvideos/R_S_yt-H45g6700wbc_159.mp4	0.0	117.18990278244019	2.508388042449951
20	60.42437291145325	fix_post	2		12.0	18.0	2.5	/experiments/knapen_aot/oldvideos/R_S_yt-H45g6700wbc_159.mp4	0.0	119.69829082489014	0.09993696212768555
21	60.52430987358093	fix_pre	0		40.0	19.0	2.5	/experiments/knapen_aot/oldvideos/R_S_pexels-rodnae-productions-5544703.mp4	0.0	119.79822778701782	0.33332109451293945
21	60.8494668006897	response	0	4		19.0	2.5	/experiments/knapen_aot/oldvideos/R_S_pexels-rodnae-productions-5544703.mp4	0.0	120.12338471412659	
21	60.85763096809387	movie	1		165.0	19.0	2.5	/experiments/knapen_aot/oldvideos/R_S_pexels-rodnae-productions-5544703.mp4	0.0	120.13154888153076	2.508415937423706
21	63.36604690551758	fix_post	2		12.0	19.0	2.5	/experiments/knapen_aot/oldvideos/R_S_pexels-rodnae-productions-5544703.mp4	0.0	122.63996481895447	0.09999299049377441
22	63.46603989601135	fix_pre	0		47.0	20.0	2.5	/experiments/knapen_aot/oldvideos/S_yt-rlVzHENWufE_61.mp4	0.0	122.73995780944824	0.3915989398956299
22	63.849469900131226	response	0	4		20.0	2.5	/experiments/knapen_aot/oldvideos/S_yt-rlVzHENWufE_61.mp4	0.0	123.12338781356812	
22	63.85763883590698	movie	1		301.0	20.0	2.5	/experiments/knapen_aot/oldvideos/S_yt-rlVzHENWufE_61.mp4	0.0	123.13155674934387	2.508352041244507
22	66.36599087715149	fix_post	2		12.0	20.0	2.5	/experiments/knapen_aot/oldvideos/S_yt-rlVzHENWufE_61.mp4	0.0	125.63990879058838	0.09999299049377441
23	66.46598386764526	fix_pre	0		104.0	21.0	2.5	blank	1.0	125.73990178108215	0.8666300773620605
23	67.32443380355835	response	0	4		21.0	2.5	blank	1.0	126.59835171699524	
23	67.33261394500732	movie	1		301.0	21.0	2.5	blank	1.0	126.60653185844421	2.508410930633545
23	69.84102487564087	fix_post	2		12.0	21.0	2.5	blank	1.0	129.11494278907776	0.09996604919433594
24	69.9409909248352	fix_pre	0		18.0	22.0	2.5	/experiments/knapen_aot/oldvideos/S_yt-YyKEeu2gLrI_158.mp4	0.0	129.2149088382721	0.15832996368408203
24	70.08270597457886	response	0	4		22.0	2.5	/experiments/knapen_aot/oldvideos/S_yt-YyKEeu2gLrI_158.mp4	0.0	129.35662388801575	
24	70.09932088851929	movie	1		300.0	22.0	2.5	/experiments/knapen_aot/oldvideos/S_yt-YyKEeu2gLrI_158.mp4	0.0	129.37323880195618	2.5003819465637207
24	72.59970283508301	fix_post	2		12.0	22.0	2.5	/experiments/knapen_aot/oldvideos/S_yt-YyKEeu2gLrI_158.mp4	0.0	131.8736207485199	0.09966111183166504
25	72.69936394691467	fix_pre	0		102.0	23.0	2.5	/experiments/knapen_aot/oldvideos/S_yt-JQOHHL30Y54_101.mp4	0.0	131.97328186035156	0.8499569892883301
25	73.54109001159668	response	0	4		23.0	2.5	/experiments/knapen_aot/oldvideos/S_yt-JQOHHL30Y54_101.mp4	0.0	132.81500792503357	
25	73.549320936203	movie	1		301.0	23.0	2.5	/experiments/knapen_aot/oldvideos/S_yt-JQOHHL30Y54_101.mp4	0.0	132.8232388496399	2.508305072784424
25	76.05762600898743	fix_post	2		12.0	23.0	2.5	/experiments/knapen_aot/oldvideos/S_yt-JQOHHL30Y54_101.mp4	0.0	135.33154392242432	0.10002779960632324
26	76.15765380859375	fix_pre	0		18.0	24.0	2.5	/experiments/knapen_aot/oldvideos/R_S_ILSVRC2015_train_00572000.mp4	0.0	135.43157172203064	0.15088415145874023
26	76.29944682121277	response	0	4		24.0	2.5	/experiments/knapen_aot/oldvideos/R_S_ILSVRC2015_train_00572000.mp4	0.0	135.57336473464966	
26	76.30853796005249	movie	1		301.0	24.0	2.5	/experiments/knapen_aot/oldvideos/R_S_ILSVRC2015_train_00572000.mp4	0.0	135.58245587348938	2.507405996322632
26	78.81594395637512	fix_post	2		12.0	24.0	2.5	/experiments/knapen_aot/oldvideos/R_S_ILSVRC2015_train_00572000.mp4	0.0	138.089861869812	0.10002493858337402
27	78.9159688949585	fix_pre	0		285.0	25.0	2.5	/experiments/knapen_aot/oldvideos/S_yt-28ODBE9bVh0_44.mp4	0.0	138.18988680839539	2.374917984008789
27	81.28264689445496	response	0	4		25.0	2.5	/experiments/knapen_aot/oldvideos/S_yt-28ODBE9bVh0_44.mp4	0.0	140.55656480789185	
27	81.29088687896729	movie	1		301.0	25.0	2.5	/experiments/knapen_aot/oldvideos/S_yt-28ODBE9bVh0_44.mp4	0.0	140.56480479240417	2.508561134338379
27	83.79944801330566	fix_post	2		12.0	25.0	2.5	/experiments/knapen_aot/oldvideos/S_yt-28ODBE9bVh0_44.mp4	0.0	143.07336592674255	0.0998528003692627
28	83.89930081367493	fix_pre	0		15.0	26.0	2.5	/experiments/knapen_aot/oldvideos/S_zAKvYNtmhuc_772.mp4	0.0	143.17321872711182	0.12506914138793945
28	84.01602697372437	response	0	4		26.0	2.5	/experiments/knapen_aot/oldvideos/S_zAKvYNtmhuc_772.mp4	0.0	143.28994488716125	
28	84.02436995506287	movie	1		301.0	26.0	2.5	/experiments/knapen_aot/oldvideos/S_zAKvYNtmhuc_772.mp4	0.0	143.29828786849976	2.5082359313964844
28	86.53260588645935	fix_post	2		12.0	26.0	2.5	/experiments/knapen_aot/oldvideos/S_zAKvYNtmhuc_772.mp4	0.0	145.80652379989624	0.1000680923461914
29	86.63267397880554	fix_pre	0		14.0	27.0	2.5	/experiments/knapen_aot/oldvideos/R_S_wc-AyT9mzwZsu0T_14.mp4	0.0	145.90659189224243	0.11654901504516602
29	86.74102401733398	response	0	4		27.0	2.5	/experiments/knapen_aot/oldvideos/R_S_wc-AyT9mzwZsu0T_14.mp4	0.0	146.01494193077087	
29	86.74922299385071	movie	1		172.0	27.0	2.5	/experiments/knapen_aot/oldvideos/R_S_wc-AyT9mzwZsu0T_14.mp4	0.0	146.0231409072876	2.5083529949188232
29	89.25757598876953	fix_post	2		12.0	27.0	2.5	/experiments/knapen_aot/oldvideos/R_S_wc-AyT9mzwZsu0T_14.mp4	0.0	148.53149390220642	0.10003089904785156
30	89.35760688781738	fix_pre	0		9.0	28.0	2.5	blank	1.0	148.63152480125427	0.07496500015258789
30	89.42436003684998	response	0	4		28.0	2.5	blank	1.0	148.69827795028687	
30	89.43257188796997	movie	1		301.0	28.0	2.5	blank	1.0	148.70648980140686	2.5083529949188232
30	91.9409248828888	fix_post	2		12.0	28.0	2.5	blank	1.0	151.21484279632568	0.09999704360961914
31	92.04092192649841	fix_pre	0		14.0	29.0	2.5	/experiments/knapen_aot/oldvideos/R_S_wc-lItGMdwvEd_l_7.mp4	0.0	151.3148398399353	0.11659693717956543
31	92.14934587478638	response	0	4		29.0	2.5	/experiments/knapen_aot/oldvideos/R_S_wc-lItGMdwvEd_l_7.mp4	0.0	151.42326378822327	
31	92.15751886367798	movie	1		165.0	29.0	2.5	/experiments/knapen_aot/oldvideos/R_S_wc-lItGMdwvEd_l_7.mp4	0.0	151.43143677711487	2.508449077606201
31	94.66596794128418	fix_post	2		12.0	29.0	2.5	/experiments/knapen_aot/oldvideos/R_S_wc-lItGMdwvEd_l_7.mp4	0.0	153.93988585472107	0.09997200965881348
32	94.765939950943	fix_pre	0		23.0	30.0	2.5	/experiments/knapen_aot/oldvideos/R_S_yt-xgqx7tH92-c_6.mp4	0.0	154.03985786437988	0.19162487983703613
32	94.94936990737915	response	0	4		30.0	2.5	/experiments/knapen_aot/oldvideos/R_S_yt-xgqx7tH92-c_6.mp4	0.0	154.22328782081604	
32	94.95756483078003	movie	1		301.0	30.0	2.5	/experiments/knapen_aot/oldvideos/R_S_yt-xgqx7tH92-c_6.mp4	0.0	154.23148274421692	2.508380174636841
32	97.46594500541687	fix_post	2		12.0	30.0	2.5	/experiments/knapen_aot/oldvideos/R_S_yt-xgqx7tH92-c_6.mp4	0.0	156.73986291885376	0.09998083114624023
33	97.56592583656311	fix_pre	0		14.0	31.0	2.5	/experiments/knapen_aot/oldvideos/S_bing-www_nytimes_com_video_dining_1247468118505_grilled-chicken-breasts-with-herb-butter_html_132.mp4	0.0	156.83984375	0.1174781322479248
33	97.67436194419861	response	0	4		31.0	2.5	/experiments/knapen_aot/oldvideos/S_bing-www_nytimes_com_video_dining_1247468118505_grilled-chicken-breasts-with-herb-butter_html_132.mp4	0.0	156.9482798576355	
33	97.68340396881104	movie	1		164.0	31.0	2.5	/experiments/knapen_aot/oldvideos/S_bing-www_nytimes_com_video_dining_1247468118505_grilled-chicken-breasts-with-herb-butter_html_132.mp4	0.0	156.95732188224792	2.5075578689575195
33	100.19096183776855	fix_post	2		12.0	31.0	2.5	/experiments/knapen_aot/oldvideos/S_bing-www_nytimes_com_video_dining_1247468118505_grilled-chicken-breasts-with-herb-butter_html_132.mp4	0.0	159.46487975120544	0.09995007514953613
34	100.29091191291809	fix_pre	0		16.0	32.0	2.5	/experiments/knapen_aot/oldvideos/R_S_yt-IX6uxR5DSKk_2.mp4	0.0	159.56482982635498	0.13331389427185059
34	100.41597080230713	response	0	4		32.0	2.5	/experiments/knapen_aot/oldvideos/R_S_yt-IX6uxR5DSKk_2.mp4	0.0	159.68988871574402	
34	100.42422580718994	movie	1		301.0	32.0	2.5	/experiments/knapen_aot/oldvideos/R_S_yt-IX6uxR5DSKk_2.mp4	0.0	159.69814372062683	2.5083651542663574
34	102.9325909614563	fix_post	2		12.0	32.0	2.5	/experiments/knapen_aot/oldvideos/R_S_yt-IX6uxR5DSKk_2.mp4	0.0	162.2065088748932	0.09997296333312988
35	103.03256392478943	fix_pre	0		32.0	33.0	2.5	/experiments/knapen_aot/oldvideos/R_S_ILSVRC2015_train_00682007.mp4	0.0	162.30648183822632	0.266664981842041
35	103.29106092453003	response	0	4		33.0	2.5	/experiments/knapen_aot/oldvideos/R_S_ILSVRC2015_train_00682007.mp4	0.0	162.56497883796692	
35	103.29922890663147	movie	1		301.0	33.0	2.5	/experiments/knapen_aot/oldvideos/R_S_ILSVRC2015_train_00682007.mp4	0.0	162.57314682006836	2.5083940029144287
35	105.8076229095459	fix_post	2		12.0	33.0	2.5	/experiments/knapen_aot/oldvideos/R_S_ILSVRC2015_train_00682007.mp4	0.0	165.0815408229828	0.0998830795288086
36	105.9075059890747	fix_pre	0		12.0	34.0	2.5	/experiments/knapen_aot/oldvideos/R_S_comp_L004_C011_PS_v01_SDR_PS_20180925_SDR_2K_AVC.mp4	0.0	165.1814239025116	0.10001492500305176
36	105.99929594993591	response	0	4		34.0	2.5	/experiments/knapen_aot/oldvideos/R_S_comp_L004_C011_PS_v01_SDR_PS_20180925_SDR_2K_AVC.mp4	0.0	165.2732138633728	
36	106.00752091407776	movie	1		167.0	34.0	2.5	/experiments/knapen_aot/oldvideos/R_S_comp_L004_C011_PS_v01_SDR_PS_20180925_SDR_2K_AVC.mp4	0.0	165.28143882751465	2.508234977722168
36	108.51575589179993	fix_post	2		12.0	34.0	2.5	/experiments/knapen_aot/oldvideos/R_S_comp_L004_C011_PS_v01_SDR_PS_20180925_SDR_2K_AVC.mp4	0.0	167.78967380523682	0.10014200210571289
37	108.61589789390564	fix_pre	0		3.0	35.0	2.5	blank	1.0	167.88981580734253	0.025995969772338867
37	108.63259196281433	response	0	4		35.0	2.5	blank	1.0	167.90650987625122	
37	108.64189386367798	movie	1		301.0	35.0	2.5	blank	1.0	167.91581177711487	2.5072901248931885
37	111.14918398857117	fix_post	2		12.0	35.0	2.5	blank	1.0	170.42310190200806	0.09998297691345215
38	111.24916696548462	fix_pre	0		22.0	36.0	2.5	/experiments/knapen_aot/oldvideos/R_S_ILSVRC2015_train_00469000.mp4	0.0	170.5230848789215	0.18416690826416016
38	111.42444396018982	response	0	4		36.0	2.5	/experiments/knapen_aot/oldvideos/R_S_ILSVRC2015_train_00469000.mp4	0.0	170.6983618736267	
38	111.43333387374878	movie	1		301.0	36.0	2.5	/experiments/knapen_aot/oldvideos/R_S_ILSVRC2015_train_00469000.mp4	0.0	170.70725178718567	2.5076589584350586
38	113.94099283218384	fix_post	2		12.0	36.0	2.5	/experiments/knapen_aot/oldvideos/R_S_ILSVRC2015_train_00469000.mp4	0.0	173.21491074562073	0.09979701042175293
39	114.04078984260559	fix_pre	0		11.0	37.0	2.5	/experiments/knapen_aot/oldvideos/S_yt-XbigWWtnGL4_75.mp4	0.0	173.31470775604248	0.09167218208312988
39	114.12410593032837	response	0	4		37.0	2.5	/experiments/knapen_aot/oldvideos/S_yt-XbigWWtnGL4_75.mp4	0.0	173.39802384376526	
39	114.13246202468872	movie	1		301.0	37.0	2.5	/experiments/knapen_aot/oldvideos/S_yt-XbigWWtnGL4_75.mp4	0.0	173.4063799381256	2.5083818435668945
39	116.64084386825562	fix_post	2		12.0	37.0	2.5	/experiments/knapen_aot/oldvideos/S_yt-XbigWWtnGL4_75.mp4	0.0	175.9147617816925	0.09995293617248535
40	116.7407968044281	fix_pre	0		23.0	38.0	2.5	/experiments/knapen_aot/oldvideos/R_S_video_inspire_oregon_lone-ranch-beach_00001.1080-h264.mp4	0.0	176.014714717865	0.1924271583557129
40	116.9167549610138	response	0	4		38.0	2.5	/experiments/knapen_aot/oldvideos/R_S_video_inspire_oregon_lone-ranch-beach_00001.1080-h264.mp4	0.0	176.19067287445068	
40	116.93322396278381	movie	1		166.0	38.0	2.5	/experiments/knapen_aot/oldvideos/R_S_video_inspire_oregon_lone-ranch-beach_00001.1080-h264.mp4	0.0	176.2071418762207	2.5076608657836914
40	119.4408848285675	fix_post	2		12.0	38.0	2.5	/experiments/knapen_aot/oldvideos/R_S_video_inspire_oregon_lone-ranch-beach_00001.1080-h264.mp4	0.0	178.7148027420044	0.09995317459106445
41	119.54083800315857	fix_pre	0		23.0	39.0	2.5	/experiments/knapen_aot/oldvideos/S_S005_C015_SDR_2K_AVC.mp4	0.0	178.81475591659546	0.1916208267211914
41	119.72427892684937	response	0	4		39.0	2.5	/experiments/knapen_aot/oldvideos/S_S005_C015_SDR_2K_AVC.mp4	0.0	178.99819684028625	
41	119.73245882987976	movie	1		168.0	39.0	2.5	/experiments/knapen_aot/oldvideos/S_S005_C015_SDR_2K_AVC.mp4	0.0	179.00637674331665	2.5083580017089844
41	122.24081683158875	fix_post	2		12.0	39.0	2.5	/experiments/knapen_aot/oldvideos/S_S005_C015_SDR_2K_AVC.mp4	0.0	181.51473474502563	0.0999460220336914
42	122.34076285362244	fix_pre	0		16.0	40.0	2.5	/experiments/knapen_aot/oldvideos/R_S_yt-25xuzTBhwPk_109.mp4	0.0	181.61468076705933	0.1341691017150879
42	122.46589088439941	response	0	4		40.0	2.5	/experiments/knapen_aot/oldvideos/R_S_yt-25xuzTBhwPk_109.mp4	0.0	181.7398087978363	
42	122.47493195533752	movie	1		301.0	40.0	2.5	/experiments/knapen_aot/oldvideos/R_S_yt-25xuzTBhwPk_109.mp4	0.0	181.7488498687744	2.507520914077759
42	124.98245286941528	fix_post	2		12.0	40.0	2.5	/experiments/knapen_aot/oldvideos/R_S_yt-25xuzTBhwPk_109.mp4	0.0	184.25637078285217	0.09998202323913574
43	125.08243489265442	fix_pre	0		20.0	41.0	2.5	/experiments/knapen_aot/oldvideos/R_S_yt-zgimmOcW5Mc_127.mp4	0.0	184.3563528060913	0.16663408279418945
43	125.24087691307068	response	0	4		41.0	2.5	/experiments/knapen_aot/oldvideos/R_S_yt-zgimmOcW5Mc_127.mp4	0.0	184.51479482650757	
43	125.24906897544861	movie	1		301.0	41.0	2.5	/experiments/knapen_aot/oldvideos/R_S_yt-zgimmOcW5Mc_127.mp4	0.0	184.5229868888855	2.508288860321045
43	127.75735783576965	fix_post	2		12.0	41.0	2.5	/experiments/knapen_aot/oldvideos/R_S_yt-zgimmOcW5Mc_127.mp4	0.0	187.03127574920654	0.10006308555603027
44	127.85742092132568	fix_pre	0		46.0	42.0	2.5	blank	1.0	187.13133883476257	0.38326501846313477
44	128.23244881629944	response	0	4		42.0	2.5	blank	1.0	187.50636672973633	
44	128.24068593978882	movie	1		301.0	42.0	2.5	blank	1.0	187.5146038532257	2.508336067199707
44	130.74902200698853	fix_post	2		12.0	42.0	2.5	blank	1.0	190.02293992042542	0.09996986389160156
45	130.84899187088013	fix_pre	0		23.0	43.0	2.5	/experiments/knapen_aot/oldvideos/R_S_yt-QD74nNliDvI_10.mp4	0.0	190.12290978431702	0.1918189525604248
45	131.02510690689087	response	0	4		43.0	2.5	/experiments/knapen_aot/oldvideos/R_S_yt-QD74nNliDvI_10.mp4	0.0	190.29902482032776	
45	131.04081082344055	movie	1		301.0	43.0	2.5	/experiments/knapen_aot/oldvideos/R_S_yt-QD74nNliDvI_10.mp4	0.0	190.31472873687744	2.50828218460083
45	133.54909300804138	fix_post	2		12.0	43.0	2.5	/experiments/knapen_aot/oldvideos/R_S_yt-QD74nNliDvI_10.mp4	0.0	192.82301092147827	0.09995889663696289
46	133.64905190467834	fix_pre	0		19.0	44.0	2.5	/experiments/knapen_aot/oldvideos/R_S_yt-fGN7sGPy8BA_13.mp4	0.0	192.92296981811523	0.1589040756225586
46	133.79915285110474	response	0	4		44.0	2.5	/experiments/knapen_aot/oldvideos/R_S_yt-fGN7sGPy8BA_13.mp4	0.0	193.07307076454163	
46	133.8079559803009	movie	1		301.0	44.0	2.5	/experiments/knapen_aot/oldvideos/R_S_yt-fGN7sGPy8BA_13.mp4	0.0	193.0818738937378	2.507812976837158
46	136.31576895713806	fix_post	2		12.0	44.0	2.5	/experiments/knapen_aot/oldvideos/R_S_yt-fGN7sGPy8BA_13.mp4	0.0	195.58968687057495	0.10000205039978027
47	136.41577100753784	fix_pre	0		241.0	45.0	2.5	/experiments/knapen_aot/oldvideos/S_yt-Kwfwhd07dVo_2.mp4	0.0	195.68968892097473	2.0082809925079346
47	138.415846824646	response	0	4		45.0	2.5	/experiments/knapen_aot/oldvideos/S_yt-Kwfwhd07dVo_2.mp4	0.0	197.68976473808289	
47	138.42405200004578	movie	1		301.0	45.0	2.5	/experiments/knapen_aot/oldvideos/S_yt-Kwfwhd07dVo_2.mp4	0.0	197.69796991348267	2.508373975753784
47	140.93242597579956	fix_post	2		12.0	45.0	2.5	/experiments/knapen_aot/oldvideos/S_yt-Kwfwhd07dVo_2.mp4	0.0	200.20634388923645	0.09998703002929688
48	141.03241300582886	fix_pre	0		34.0	46.0	2.5	/experiments/knapen_aot/oldvideos/S_yt-nlfwzxlwRfk_12.mp4	0.0	200.30633091926575	0.28328800201416016
48	141.30763483047485	response	0	4		46.0	2.5	/experiments/knapen_aot/oldvideos/S_yt-nlfwzxlwRfk_12.mp4	0.0	200.58155274391174	
48	141.31570100784302	movie	1		301.0	46.0	2.5	/experiments/knapen_aot/oldvideos/S_yt-nlfwzxlwRfk_12.mp4	0.0	200.5896189212799	2.5084547996520996
48	143.82415580749512	fix_post	2		12.0	46.0	2.5	/experiments/knapen_aot/oldvideos/S_yt-nlfwzxlwRfk_12.mp4	0.0	203.098073720932	0.09991908073425293
49	143.92407488822937	fix_pre	0		31.0	47.0	2.5	/experiments/knapen_aot/oldvideos/S_production_ID_3735542.mp4	0.0	203.19799280166626	0.25890493392944336
49	144.17416095733643	response	0	4		47.0	2.5	/experiments/knapen_aot/oldvideos/S_production_ID_3735542.mp4	0.0	203.44807887077332	
49	144.1829798221588	movie	1		162.0	47.0	2.5	/experiments/knapen_aot/oldvideos/S_production_ID_3735542.mp4	0.0	203.4568977355957	2.5077240467071533
49	146.69070386886597	fix_post	2		12.0	47.0	2.5	/experiments/knapen_aot/oldvideos/S_production_ID_3735542.mp4	0.0	205.96462178230286	0.10004496574401855
50	146.79074883460999	fix_pre	0		74.0	48.0	2.5	blank	1.0	206.06466674804688	0.6166610717773438
50	147.39915585517883	response	0	4		48.0	2.5	blank	1.0	206.67307376861572	
50	147.40740990638733	movie	1		301.0	48.0	2.5	blank	1.0	206.68132781982422	2.5082929134368896
50	149.91570281982422	fix_post	2		12.0	48.0	2.5	blank	1.0	209.1896207332611	0.10019302368164062
51	150.01589584350586	fix_pre	0		27.0	49.0	2.5	/experiments/knapen_aot/oldvideos/R_S_yt-1CV2cYtUlxE_57.mp4	0.0	209.28981375694275	0.22477316856384277
51	150.2325258255005	response	0	4		49.0	2.5	/experiments/knapen_aot/oldvideos/R_S_yt-1CV2cYtUlxE_57.mp4	0.0	209.50644373893738	
51	150.2406690120697	movie	1		301.0	49.0	2.5	/experiments/knapen_aot/oldvideos/R_S_yt-1CV2cYtUlxE_57.mp4	0.0	209.5145869255066	2.508504867553711
51	152.7491738796234	fix_post	2		12.0	49.0	2.5	/experiments/knapen_aot/oldvideos/R_S_yt-1CV2cYtUlxE_57.mp4	0.0	212.0230917930603	0.10004496574401855
52	152.84921884536743	fix_pre	0		12.0	50.0	2.5	/experiments/knapen_aot/oldvideos/R_S_yt-osz-TXlRdXs_2.mp4	0.0	212.12313675880432	0.0997459888458252
52	152.9407958984375	response	0	4		50.0	2.5	/experiments/knapen_aot/oldvideos/R_S_yt-osz-TXlRdXs_2.mp4	0.0	212.2147138118744	
52	152.94896483421326	movie	1		301.0	50.0	2.5	/experiments/knapen_aot/oldvideos/R_S_yt-osz-TXlRdXs_2.mp4	0.0	212.22288274765015	2.5083529949188232
52	155.45731782913208	fix_post	2		12.0	50.0	2.5	/experiments/knapen_aot/oldvideos/R_S_yt-osz-TXlRdXs_2.mp4	0.0	214.73123574256897	0.10004401206970215
53	155.55736184120178	fix_pre	0		27.0	51.0	2.5	/experiments/knapen_aot/oldvideos/S_ILSVRC2015_train_00507000.mp4	0.0	214.83127975463867	0.2249460220336914
53	155.77414393424988	response	0	4		51.0	2.5	/experiments/knapen_aot/oldvideos/S_ILSVRC2015_train_00507000.mp4	0.0	215.04806184768677	
53	155.78230786323547	movie	1		301.0	51.0	2.5	/experiments/knapen_aot/oldvideos/S_ILSVRC2015_train_00507000.mp4	0.0	215.05622577667236	2.5085699558258057
53	158.29087781906128	fix_post	2		12.0	51.0	2.5	/experiments/knapen_aot/oldvideos/S_ILSVRC2015_train_00507000.mp4	0.0	217.56479573249817	0.10033106803894043
54	158.39120888710022	fix_pre	0		14.0	52.0	2.5	/experiments/knapen_aot/oldvideos/R_S_yt-JDHApyT5ngs_128.mp4	0.0	217.6651268005371	0.1160590648651123
54	158.49160885810852	response	0	4		52.0	2.5	/experiments/knapen_aot/oldvideos/R_S_yt-JDHApyT5ngs_128.mp4	0.0	217.7655267715454	
54	158.50726795196533	movie	1		301.0	52.0	2.5	/experiments/knapen_aot/oldvideos/R_S_yt-JDHApyT5ngs_128.mp4	0.0	217.78118586540222	2.5084540843963623
54	161.0157220363617	fix_post	2		12.0	52.0	2.5	/experiments/knapen_aot/oldvideos/R_S_yt-JDHApyT5ngs_128.mp4	0.0	220.28963994979858	0.09988188743591309
55	161.1156039237976	fix_pre	0		173.0	53.0	2.5	/experiments/knapen_aot/oldvideos/S_wc-jujp1kJRHrkJ_54.mp4	0.0	220.3895218372345	1.4421629905700684
55	162.54912781715393	response	0	4		53.0	2.5	/experiments/knapen_aot/oldvideos/S_wc-jujp1kJRHrkJ_54.mp4	0.0	221.82304573059082	
55	162.55776691436768	movie	1		301.0	53.0	2.5	/experiments/knapen_aot/oldvideos/S_wc-jujp1kJRHrkJ_54.mp4	0.0	221.83168482780457	2.5078630447387695
55	165.06562995910645	fix_post	2		12.0	53.0	2.5	/experiments/knapen_aot/oldvideos/S_wc-jujp1kJRHrkJ_54.mp4	0.0	224.33954787254333	0.09994888305664062
56	165.1655788421631	fix_pre	0		29.0	54.0	2.5	/experiments/knapen_aot/oldvideos/S_yt-JTuopUgmg1w_101.mp4	0.0	224.43949675559998	0.2416989803314209
56	165.39906191825867	response	0	4		54.0	2.5	/experiments/knapen_aot/oldvideos/S_yt-JTuopUgmg1w_101.mp4	0.0	224.67297983169556	
56	165.4072778224945	movie	1		301.0	54.0	2.5	/experiments/knapen_aot/oldvideos/S_yt-JTuopUgmg1w_101.mp4	0.0	224.6811957359314	2.5084052085876465
56	167.91568303108215	fix_post	2		12.0	54.0	2.5	/experiments/knapen_aot/oldvideos/S_yt-JTuopUgmg1w_101.mp4	0.0	227.18960094451904	0.09995698928833008
57	168.01564002037048	fix_pre	0		195.0	55.0	2.5	/experiments/knapen_aot/oldvideos/S_bing-www_nytimes_com_video_dining_1247468118505_grilled-chicken-breasts-with-herb-butter_html_132.mp4	0.0	227.28955793380737	1.6253819465637207
57	169.63245582580566	response	0	4		55.0	2.5	/experiments/knapen_aot/oldvideos/S_bing-www_nytimes_com_video_dining_1247468118505_grilled-chicken-breasts-with-herb-butter_html_132.mp4	0.0	228.90637373924255	
57	169.6410219669342	movie	1		171.0	55.0	2.5	/experiments/knapen_aot/oldvideos/S_bing-www_nytimes_com_video_dining_1247468118505_grilled-chicken-breasts-with-herb-butter_html_132.mp4	0.0	228.9149398803711	2.507905960083008
57	172.1489279270172	fix_post	2		12.0	55.0	2.5	/experiments/knapen_aot/oldvideos/S_bing-www_nytimes_com_video_dining_1247468118505_grilled-chicken-breasts-with-herb-butter_html_132.mp4	0.0	231.4228458404541	0.10005402565002441
58	172.24898195266724	fix_pre	0		35.0	56.0	2.5	blank	1.0	231.52289986610413	0.29161500930786133
58	172.52487897872925	response	0	4		56.0	2.5	blank	1.0	231.79879689216614	
58	172.5405969619751	movie	1		301.0	56.0	2.5	blank	1.0	231.814514875412	2.5083329677581787
58	175.04892992973328	fix_post	2		12.0	56.0	2.5	blank	1.0	234.32284784317017	0.09999799728393555
59	175.1489279270172	fix_pre	0		236.0	57.0	2.5	/experiments/knapen_aot/oldvideos/S_yt-I9uf7kAccFA_229.mp4	0.0	234.4228458404541	1.9666469097137451
59	177.1073718070984	response	0	4		57.0	2.5	/experiments/knapen_aot/oldvideos/S_yt-I9uf7kAccFA_229.mp4	0.0	236.38128972053528	
59	177.11557483673096	movie	1		301.0	57.0	2.5	/experiments/knapen_aot/oldvideos/S_yt-I9uf7kAccFA_229.mp4	0.0	236.38949275016785	2.5083200931549072
59	179.62389492988586	fix_post	2		12.0	57.0	2.5	/experiments/knapen_aot/oldvideos/S_yt-I9uf7kAccFA_229.mp4	0.0	238.89781284332275	0.10002493858337402
60	179.72391986846924	fix_pre	0		54.0	58.0	2.5	/experiments/knapen_aot/oldvideos/R_S_yt-SjPYdaUBi7A_37.mp4	0.0	238.99783778190613	0.44993114471435547
60	180.16564989089966	response	0	4		58.0	2.5	/experiments/knapen_aot/oldvideos/R_S_yt-SjPYdaUBi7A_37.mp4	0.0	239.43956780433655	
60	180.1738510131836	movie	1		301.0	58.0	2.5	/experiments/knapen_aot/oldvideos/R_S_yt-SjPYdaUBi7A_37.mp4	0.0	239.44776892662048	2.5084519386291504
60	182.68230295181274	fix_post	2		12.0	58.0	2.5	/experiments/knapen_aot/oldvideos/R_S_yt-SjPYdaUBi7A_37.mp4	0.0	241.95622086524963	0.09992098808288574
61	182.78222393989563	fix_pre	0		27.0	59.0	2.5	/experiments/knapen_aot/oldvideos/S_pexels-mart-production-8435081.mp4	0.0	242.05614185333252	0.2248830795288086
61	182.99896788597107	response	0	4		59.0	2.5	/experiments/knapen_aot/oldvideos/S_pexels-mart-production-8435081.mp4	0.0	242.27288579940796	
61	183.00710701942444	movie	1		197.0	59.0	2.5	/experiments/knapen_aot/oldvideos/S_pexels-mart-production-8435081.mp4	0.0	242.28102493286133	2.508430004119873
61	185.5155370235443	fix_post	2		12.0	59.0	2.5	/experiments/knapen_aot/oldvideos/S_pexels-mart-production-8435081.mp4	0.0	244.7894549369812	0.10008478164672852
61	185.5822880268097	response	2	4		59.0	2.5	/experiments/knapen_aot/oldvideos/S_pexels-mart-production-8435081.mp4	0.0	244.85620594024658	
62	185.61562180519104	fix_pre	0		141.0	60.0	2.5	/experiments/knapen_aot/oldvideos/S_9smWynsk6sI_158.mp4	0.0	244.88953971862793	1.1748340129852295
62	186.78225803375244	response	0	4		60.0	2.5	/experiments/knapen_aot/oldvideos/S_9smWynsk6sI_158.mp4	0.0	246.05617594718933	
62	186.79045581817627	movie	1		301.0	60.0	2.5	/experiments/knapen_aot/oldvideos/S_9smWynsk6sI_158.mp4	0.0	246.06437373161316	2.5084102153778076
62	188.89902997016907	response	1	2		60.0	2.5	/experiments/knapen_aot/oldvideos/S_9smWynsk6sI_158.mp4	0.0	248.17294788360596	
62	189.29886603355408	fix_post	2		12.0	60.0	2.5	/experiments/knapen_aot/oldvideos/S_9smWynsk6sI_158.mp4	0.0	248.57278394699097	0.09996390342712402
63	189.3988299369812	fix_pre	0		54.0	61.0	2.5	blank	1.0	248.6727478504181	0.45033693313598633
63	189.8405659198761	response	0	2		61.0	2.5	blank	1.0	249.114483833313	
63	189.8491668701172	movie	1		301.0	61.0	2.5	blank	1.0	249.12308478355408	2.508018970489502
63	192.3571858406067	fix_post	2		12.0	61.0	2.5	blank	1.0	251.63110375404358	0.10000896453857422
64	192.45719480514526	fix_pre	0		66.0	62.0	2.5	/experiments/knapen_aot/oldvideos/R_S_yt-JGKdBO2Ldzo_93.mp4	0.0	251.73111271858215	0.5499300956726074
64	192.9989128112793	response	0	2		62.0	2.5	/experiments/knapen_aot/oldvideos/R_S_yt-JGKdBO2Ldzo_93.mp4	0.0	252.2728307247162	
64	193.00712490081787	movie	1		301.0	62.0	2.5	/experiments/knapen_aot/oldvideos/R_S_yt-JGKdBO2Ldzo_93.mp4	0.0	252.28104281425476	2.508358955383301
64	195.51548385620117	fix_post	2		12.0	62.0	2.5	/experiments/knapen_aot/oldvideos/R_S_yt-JGKdBO2Ldzo_93.mp4	0.0	254.78940176963806	0.0999901294708252
65	195.615473985672	fix_pre	0		21.0	63.0	2.5	/experiments/knapen_aot/oldvideos/R_S_comp_L004_C011_PS_v01_SDR_PS_20180925_SDR_2K_AVC.mp4	0.0	254.8893918991089	0.1749589443206787
65	195.78223395347595	response	0	2		63.0	2.5	/experiments/knapen_aot/oldvideos/R_S_comp_L004_C011_PS_v01_SDR_PS_20180925_SDR_2K_AVC.mp4	0.0	255.05615186691284	
65	195.79043292999268	movie	1		168.0	63.0	2.5	/experiments/knapen_aot/oldvideos/R_S_comp_L004_C011_PS_v01_SDR_PS_20180925_SDR_2K_AVC.mp4	0.0	255.06435084342957	2.508404016494751
65	198.29883694648743	fix_post	2		12.0	63.0	2.5	/experiments/knapen_aot/oldvideos/R_S_comp_L004_C011_PS_v01_SDR_PS_20180925_SDR_2K_AVC.mp4	0.0	257.5727548599243	0.09998893737792969
66	198.39882588386536	fix_pre	0		11.0	64.0	2.5	/experiments/knapen_aot/oldvideos/R_S_yt--Ra34zJ69AU_68.mp4	0.0	257.67274379730225	0.09161710739135742
66	198.48228788375854	response	0	2		64.0	2.5	/experiments/knapen_aot/oldvideos/R_S_yt--Ra34zJ69AU_68.mp4	0.0	257.75620579719543	
66	198.4904429912567	movie	1		301.0	64.0	2.5	/experiments/knapen_aot/oldvideos/R_S_yt--Ra34zJ69AU_68.mp4	0.0	257.7643609046936	2.5083508491516113
66	200.99879384040833	fix_post	2		12.0	64.0	2.5	/experiments/knapen_aot/oldvideos/R_S_yt--Ra34zJ69AU_68.mp4	0.0	260.2727117538452	0.1003730297088623
67	201.0991668701172	fix_pre	0		26.0	65.0	2.5	/experiments/knapen_aot/oldvideos/R_S_-vPHq-7BJ70_15.mp4	0.0	260.3730847835541	0.21628308296203613
67	201.30727291107178	response	0	2		65.0	2.5	/experiments/knapen_aot/oldvideos/R_S_-vPHq-7BJ70_15.mp4	0.0	260.58119082450867	
67	201.31544995307922	movie	1		301.0	65.0	2.5	/experiments/knapen_aot/oldvideos/R_S_-vPHq-7BJ70_15.mp4	0.0	260.5893678665161	2.508358955383301
67	203.82380890846252	fix_post	2		12.0	65.0	2.5	/experiments/knapen_aot/oldvideos/R_S_-vPHq-7BJ70_15.mp4	0.0	263.0977268218994	0.10010004043579102
68	203.92390894889832	fix_pre	0		23.0	66.0	2.5	/experiments/knapen_aot/oldvideos/R_S_9smWynsk6sI_158.mp4	0.0	263.1978268623352	0.19153594970703125
68	204.10722398757935	response	0	2		66.0	2.5	/experiments/knapen_aot/oldvideos/R_S_9smWynsk6sI_158.mp4	0.0	263.38114190101624	
68	204.11544489860535	movie	1		301.0	66.0	2.5	/experiments/knapen_aot/oldvideos/R_S_9smWynsk6sI_158.mp4	0.0	263.38936281204224	2.508312940597534
68	206.62375783920288	fix_post	2		12.0	66.0	2.5	/experiments/knapen_aot/oldvideos/R_S_9smWynsk6sI_158.mp4	0.0	265.89767575263977	0.10036015510559082
69	206.72411799430847	fix_pre	0		37.0	67.0	2.5	/experiments/knapen_aot/oldvideos/S_yt-pKl8nduxfTI_798.mp4	0.0	265.99803590774536	0.3079860210418701
69	207.02390098571777	response	0	2		67.0	2.5	/experiments/knapen_aot/oldvideos/S_yt-pKl8nduxfTI_798.mp4	0.0	266.29781889915466	
69	207.03210401535034	movie	1		301.0	67.0	2.5	/experiments/knapen_aot/oldvideos/S_yt-pKl8nduxfTI_798.mp4	0.0	266.30602192878723	2.508358955383301
69	209.54046297073364	fix_post	2		12.0	67.0	2.5	/experiments/knapen_aot/oldvideos/S_yt-pKl8nduxfTI_798.mp4	0.0	268.81438088417053	0.10027790069580078
70	209.64074087142944	fix_pre	0		73.0	68.0	2.5	/experiments/knapen_aot/oldvideos/S_yt-B7ZRYVhfW2U_52.mp4	0.0	268.91465878486633	0.6080050468444824
70	210.2405858039856	response	0	2		68.0	2.5	/experiments/knapen_aot/oldvideos/S_yt-B7ZRYVhfW2U_52.mp4	0.0	269.5145037174225	
70	210.24874591827393	movie	1		301.0	68.0	2.5	/experiments/knapen_aot/oldvideos/S_yt-B7ZRYVhfW2U_52.mp4	0.0	269.5226638317108	2.508347988128662
70	212.7570939064026	fix_post	2		12.0	68.0	2.5	/experiments/knapen_aot/oldvideos/S_yt-B7ZRYVhfW2U_52.mp4	0.0	272.0310118198395	0.10001802444458008
71	212.85711193084717	fix_pre	0		19.0	69.0	2.5	/experiments/knapen_aot/oldvideos/R_S_yt-5hgLXyLw82w_23.mp4	0.0	272.13102984428406	0.15844392776489258
71	212.99967098236084	response	0	2		69.0	2.5	/experiments/knapen_aot/oldvideos/R_S_yt-5hgLXyLw82w_23.mp4	0.0	272.27358889579773	
71	213.01555585861206	movie	1		301.0	69.0	2.5	/experiments/knapen_aot/oldvideos/R_S_yt-5hgLXyLw82w_23.mp4	0.0	272.28947377204895	2.5081939697265625
71	215.52374982833862	fix_post	2		12.0	69.0	2.5	/experiments/knapen_aot/oldvideos/R_S_yt-5hgLXyLw82w_23.mp4	0.0	274.7976677417755	0.10029220581054688
72	215.62404203414917	fix_pre	0		24.0	70.0	2.5	blank	1.0	274.89795994758606	0.19976377487182617
72	215.81551885604858	response	0	2		70.0	2.5	blank	1.0	275.0894367694855	
72	215.823805809021	movie	1		301.0	70.0	2.5	blank	1.0	275.0977237224579	2.5082900524139404
72	218.33209586143494	fix_post	2		12.0	70.0	2.5	blank	1.0	277.6060137748718	0.10024094581604004
73	218.43233680725098	fix_pre	0		34.0	71.0	2.5	/experiments/knapen_aot/oldvideos/S_yt--v_iMUMMX6g_39.mp4	0.0	277.70625472068787	0.28304505348205566
73	218.70717000961304	response	0	2		71.0	2.5	/experiments/knapen_aot/oldvideos/S_yt--v_iMUMMX6g_39.mp4	0.0	277.9810879230499	
73	218.71538186073303	movie	1		301.0	71.0	2.5	/experiments/knapen_aot/oldvideos/S_yt--v_iMUMMX6g_39.mp4	0.0	277.9892997741699	2.508784055709839
73	221.22416591644287	fix_post	2		12.0	71.0	2.5	/experiments/knapen_aot/oldvideos/S_yt--v_iMUMMX6g_39.mp4	0.0	280.49808382987976	0.09958600997924805
74	221.32375192642212	fix_pre	0		47.0	72.0	2.5	/experiments/knapen_aot/oldvideos/S_yt-xgqx7tH92-c_6.mp4	0.0	280.597669839859	0.3916170597076416
74	221.70719695091248	response	0	2		72.0	2.5	/experiments/knapen_aot/oldvideos/S_yt-xgqx7tH92-c_6.mp4	0.0	280.98111486434937	
74	221.71536898612976	movie	1		301.0	72.0	2.5	/experiments/knapen_aot/oldvideos/S_yt-xgqx7tH92-c_6.mp4	0.0	280.98928689956665	2.5085599422454834
74	224.22392892837524	fix_post	2		12.0	72.0	2.5	/experiments/knapen_aot/oldvideos/S_yt-xgqx7tH92-c_6.mp4	0.0	283.49784684181213	0.09986710548400879
75	224.32379603385925	fix_pre	0		107.0	73.0	2.5	/experiments/knapen_aot/oldvideos/R_S_ILSVRC2015_train_00001011.mp4	0.0	283.59771394729614	0.8915767669677734
75	225.2071828842163	response	0	2		73.0	2.5	/experiments/knapen_aot/oldvideos/R_S_ILSVRC2015_train_00001011.mp4	0.0	284.4811007976532	
75	225.21537280082703	movie	1		301.0	73.0	2.5	/experiments/knapen_aot/oldvideos/R_S_ILSVRC2015_train_00001011.mp4	0.0	284.4892907142639	2.508477210998535
75	227.72385001182556	fix_post	2		12.0	73.0	2.5	/experiments/knapen_aot/oldvideos/R_S_ILSVRC2015_train_00001011.mp4	0.0	286.99776792526245	0.09986591339111328
76	227.82371592521667	fix_pre	0		14.0	74.0	2.5	/experiments/knapen_aot/oldvideos/S_video_inspire_oregon_lone-ranch-beach_00001.1080-h264.mp4	0.0	287.09763383865356	0.1165928840637207
76	227.9321630001068	response	0	2		74.0	2.5	/experiments/knapen_aot/oldvideos/S_video_inspire_oregon_lone-ranch-beach_00001.1080-h264.mp4	0.0	287.2060809135437	
76	227.9403088092804	movie	1		165.0	74.0	2.5	/experiments/knapen_aot/oldvideos/S_video_inspire_oregon_lone-ranch-beach_00001.1080-h264.mp4	0.0	287.2142267227173	2.5084731578826904
76	230.4487819671631	fix_post	2		12.0	74.0	2.5	/experiments/knapen_aot/oldvideos/S_video_inspire_oregon_lone-ranch-beach_00001.1080-h264.mp4	0.0	289.7226998806	0.09987783432006836
77	230.54865980148315	fix_pre	0		13.0	75.0	2.5	/experiments/knapen_aot/oldvideos/R_S_yt-oT4Bq8zYN4E_42.mp4	0.0	289.82257771492004	0.10832715034484863
77	230.64873600006104	response	0	2		75.0	2.5	/experiments/knapen_aot/oldvideos/R_S_yt-oT4Bq8zYN4E_42.mp4	0.0	289.9226539134979	
77	230.656986951828	movie	1		301.0	75.0	2.5	/experiments/knapen_aot/oldvideos/R_S_yt-oT4Bq8zYN4E_42.mp4	0.0	289.9309048652649	2.5083160400390625
77	233.16530299186707	fix_post	2		12.0	75.0	2.5	/experiments/knapen_aot/oldvideos/R_S_yt-oT4Bq8zYN4E_42.mp4	0.0	292.43922090530396	0.1001429557800293
78	233.2654459476471	fix_pre	0		21.0	76.0	2.5	/experiments/knapen_aot/oldvideos/R_S_production_ID_4101244.mp4	0.0	292.539363861084	0.1748659610748291
78	233.43211388587952	response	0	2		76.0	2.5	/experiments/knapen_aot/oldvideos/R_S_production_ID_4101244.mp4	0.0	292.7060317993164	
78	233.44031190872192	movie	1		196.0	76.0	2.5	/experiments/knapen_aot/oldvideos/R_S_production_ID_4101244.mp4	0.0	292.7142298221588	2.5083320140838623
78	235.9486439228058	fix_post	2		12.0	76.0	2.5	/experiments/knapen_aot/oldvideos/R_S_production_ID_4101244.mp4	0.0	295.2225618362427	0.09997105598449707
79	236.04861497879028	fix_pre	0		206.0	77.0	2.5	blank	1.0	295.3225328922272	1.7167789936065674
79	237.75708985328674	response	0	2		77.0	2.5	blank	1.0	297.03100776672363	
79	237.76539397239685	movie	1		301.0	77.0	2.5	blank	1.0	297.03931188583374	2.5084609985351562
79	240.273854970932	fix_post	2		12.0	77.0	2.5	blank	1.0	299.5477728843689	0.09986186027526855
80	240.37371683120728	fix_pre	0		27.0	78.0	2.5	/experiments/knapen_aot/oldvideos/R_S_comp_LW_L001_C006_PSNK_DENOISE_v02_SDR_PS_FINAL_20180709_SDR_2K_AVC.mp4	0.0	299.64763474464417	0.22495102882385254
80	240.59029698371887	response	0	2		78.0	2.5	/experiments/knapen_aot/oldvideos/R_S_comp_LW_L001_C006_PSNK_DENOISE_v02_SDR_PS_FINAL_20180709_SDR_2K_AVC.mp4	0.0	299.86421489715576	
80	240.59866786003113	movie	1		168.0	78.0	2.5	/experiments/knapen_aot/oldvideos/R_S_comp_LW_L001_C006_PSNK_DENOISE_v02_SDR_PS_FINAL_20180709_SDR_2K_AVC.mp4	0.0	299.872585773468	2.508294105529785
80	243.1069619655609	fix_post	2		12.0	78.0	2.5	/experiments/knapen_aot/oldvideos/R_S_comp_LW_L001_C006_PSNK_DENOISE_v02_SDR_PS_FINAL_20180709_SDR_2K_AVC.mp4	0.0	302.3808798789978	0.10040092468261719
81	243.20736289024353	fix_pre	0		14.0	79.0	2.5	/experiments/knapen_aot/oldvideos/S_P005_C002_UHD_SDR_2K_AVC.mp4	0.0	302.4812808036804	0.11617708206176758
81	243.31535696983337	response	0	2		79.0	2.5	/experiments/knapen_aot/oldvideos/S_P005_C002_UHD_SDR_2K_AVC.mp4	0.0	302.58927488327026	
81	243.3235399723053	movie	1		167.0	79.0	2.5	/experiments/knapen_aot/oldvideos/S_P005_C002_UHD_SDR_2K_AVC.mp4	0.0	302.5974578857422	2.5083959102630615
81	245.83193588256836	fix_post	2		12.0	79.0	2.5	/experiments/knapen_aot/oldvideos/S_P005_C002_UHD_SDR_2K_AVC.mp4	0.0	305.10585379600525	0.10006904602050781
82	245.93200492858887	fix_pre	0		9.0	80.0	2.5	/experiments/knapen_aot/oldvideos/S_ILSVRC2015_train_00292006.mp4	0.0	305.20592284202576	0.07490110397338867
82	245.99860000610352	response	0	2		80.0	2.5	/experiments/knapen_aot/oldvideos/S_ILSVRC2015_train_00292006.mp4	0.0	305.2725179195404	
82	246.00690603256226	movie	1		301.0	80.0	2.5	/experiments/knapen_aot/oldvideos/S_ILSVRC2015_train_00292006.mp4	0.0	305.28082394599915	2.5084478855133057
82	248.51535391807556	fix_post	2		12.0	80.0	2.5	/experiments/knapen_aot/oldvideos/S_ILSVRC2015_train_00292006.mp4	0.0	307.78927183151245	0.09992098808288574
83	248.61527490615845	fix_pre	0		7.0	81.0	2.5	/experiments/knapen_aot/oldvideos/R_S_yt-WpLgDX6Yw_s_20.mp4	0.0	307.88919281959534	0.058279991149902344
83	248.66538286209106	response	0	2		81.0	2.5	/experiments/knapen_aot/oldvideos/R_S_yt-WpLgDX6Yw_s_20.mp4	0.0	307.93930077552795	
83	248.67355489730835	movie	1		301.0	81.0	2.5	/experiments/knapen_aot/oldvideos/R_S_yt-WpLgDX6Yw_s_20.mp4	0.0	307.94747281074524	2.508362054824829
83	251.18191695213318	fix_post	2		12.0	81.0	2.5	/experiments/knapen_aot/oldvideos/R_S_yt-WpLgDX6Yw_s_20.mp4	0.0	310.45583486557007	0.10001587867736816
84	251.28193283081055	fix_pre	0		24.0	82.0	2.5	/experiments/knapen_aot/oldvideos/S_yt-Pinnv3-3GFU_452.mp4	0.0	310.55585074424744	0.19995903968811035
84	251.47365999221802	response	0	2		82.0	2.5	/experiments/knapen_aot/oldvideos/S_yt-Pinnv3-3GFU_452.mp4	0.0	310.7475779056549	
84	251.48189187049866	movie	1		301.0	82.0	2.5	/experiments/knapen_aot/oldvideos/S_yt-Pinnv3-3GFU_452.mp4	0.0	310.75580978393555	2.508618116378784
84	253.99050998687744	fix_post	2		12.0	82.0	2.5	/experiments/knapen_aot/oldvideos/S_yt-Pinnv3-3GFU_452.mp4	0.0	313.26442790031433	0.09984302520751953
85	254.09035301208496	fix_pre	0		48.0	83.0	2.5	blank	1.0	313.36427092552185	0.3998739719390869
85	254.48208093643188	response	0	2		83.0	2.5	blank	1.0	313.7559988498688	
85	254.49022698402405	movie	1		301.0	83.0	2.5	blank	1.0	313.76414489746094	2.5083389282226562
85	256.9985659122467	fix_post	2		12.0	83.0	2.5	blank	1.0	316.2724838256836	0.10014700889587402
87	257.0987129211426	stim	0		350.0					316.37263083457947	2.9164741039276123
87	260.011825799942	response	0	space						319.2857437133789	
