trial_nr	onset	event_type	phase	response	nr_frames	movie_index	movie_duration	movie_file	blank	onset_abs	duration
0	0.14185309410095215	stim	0		24.0					112.05705499649048	0.19981002807617188
0	0.3336451053619385	response	0	space						112.24884700775146	
1	0.341663122177124	stim	0		121.0					112.25686502456665	1.0083279609680176
1	1.3499910831451416	stim	1		120.0					113.26519298553467	0.9996728897094727
1	1.7252399921417236	response	1	space						113.64044189453125	
1	2.1081490516662598	response	1	space						114.02335095405579	
2	2.3496639728546143	fix_pre	0		36.0	0.0	2.5	/experiments/knapen_aot/videos/R_S_yt-PRqnM7xDsus_24.mp4	0.0	114.26486587524414	0.3000190258026123
2	2.641435146331787	response	0	space		0.0	2.5	/experiments/knapen_aot/videos/R_S_yt-PRqnM7xDsus_24.mp4	0.0	114.55663704872131	
2	2.6496829986572266	movie	1		300.0	0.0	2.5	/experiments/knapen_aot/videos/R_S_yt-PRqnM7xDsus_24.mp4	0.0	114.56488490104675	2.508419990539551
2	5.158102989196777	fix_post	2		12.0	0.0	2.5	/experiments/knapen_aot/videos/R_S_yt-PRqnM7xDsus_24.mp4	0.0	117.0733048915863	0.09990811347961426
2	5.229602098464966	response	2	2		0.0	2.5	/experiments/knapen_aot/videos/R_S_yt-PRqnM7xDsus_24.mp4	0.0	117.14480400085449	
3	5.258011102676392	fix_pre	0		30.0	1.0	2.5	/experiments/knapen_aot/videos/S_yt-CRw9-cCQqbg_332.mp4	0.0	117.17321300506592	0.24998998641967773
3	5.499665975570679	response	0	2		1.0	2.5	/experiments/knapen_aot/videos/S_yt-CRw9-cCQqbg_332.mp4	0.0	117.4148678779602	
3	5.508001089096069	movie	1		301.0	1.0	2.5	/experiments/knapen_aot/videos/S_yt-CRw9-cCQqbg_332.mp4	0.0	117.4232029914856	2.5083870887756348
3	8.016388177871704	fix_post	2		12.0	1.0	2.5	/experiments/knapen_aot/videos/S_yt-CRw9-cCQqbg_332.mp4	0.0	119.93159008026123	0.1000678539276123
4	8.116456031799316	fix_pre	0		27.0	2.0	2.5	/experiments/knapen_aot/videos/S_comp_GMT110_112NC_364D_1054_AURORA_ANTARTICA__COMP_FINAL_v34_PS_SDR_20181107_SDR_2K_AVC.mp4	0.0	120.03165793418884	0.22492003440856934
4	8.333240985870361	response	0	2		2.0	2.5	/experiments/knapen_aot/videos/S_comp_GMT110_112NC_364D_1054_AURORA_ANTARTICA__COMP_FINAL_v34_PS_SDR_20181107_SDR_2K_AVC.mp4	0.0	120.24844288825989	
4	8.341376066207886	movie	1		164.0	2.0	2.5	/experiments/knapen_aot/videos/S_comp_GMT110_112NC_364D_1054_AURORA_ANTARTICA__COMP_FINAL_v34_PS_SDR_20181107_SDR_2K_AVC.mp4	0.0	120.25657796859741	2.508233070373535
4	10.849609136581421	fix_post	2		12.0	2.0	2.5	/experiments/knapen_aot/videos/S_comp_GMT110_112NC_364D_1054_AURORA_ANTARTICA__COMP_FINAL_v34_PS_SDR_20181107_SDR_2K_AVC.mp4	0.0	122.76481103897095	0.10013794898986816
5	10.949747085571289	fix_pre	0		17.0	3.0	2.5	/experiments/knapen_aot/videos/R_S_yt-e9AZJKNv9ow_359.mp4	0.0	122.86494898796082	0.14153504371643066
5	11.08313512802124	response	0	2		3.0	2.5	/experiments/knapen_aot/videos/R_S_yt-e9AZJKNv9ow_359.mp4	0.0	122.99833703041077	
5	11.09128212928772	movie	1		298.0	3.0	2.5	/experiments/knapen_aot/videos/R_S_yt-e9AZJKNv9ow_359.mp4	0.0	123.00648403167725	2.5084409713745117
5	13.599723100662231	fix_post	2		12.0	3.0	2.5	/experiments/knapen_aot/videos/R_S_yt-e9AZJKNv9ow_359.mp4	0.0	125.51492500305176	0.10001301765441895
6	13.69973611831665	fix_pre	0		5.0	4.0	2.5	/experiments/knapen_aot/videos/R_S_yt-4GDusA21cEA_170.mp4	0.0	125.61493802070618	0.041687965393066406
6	13.73317813873291	response	0	2		4.0	2.5	/experiments/knapen_aot/videos/R_S_yt-4GDusA21cEA_170.mp4	0.0	125.64838004112244	
6	13.741424083709717	movie	1		301.0	4.0	2.5	/experiments/knapen_aot/videos/R_S_yt-4GDusA21cEA_170.mp4	0.0	125.65662598609924	2.5082569122314453
6	16.249680995941162	fix_post	2		12.0	4.0	2.5	/experiments/knapen_aot/videos/R_S_yt-4GDusA21cEA_170.mp4	0.0	128.1648828983307	0.099945068359375
7	16.349626064300537	fix_pre	0		13.0	5.0	2.5	blank	1.0	128.26482796669006	0.10834002494812012
7	16.449822187423706	response	0	2		5.0	2.5	blank	1.0	128.36502408981323	
7	16.457966089248657	movie	1		301.0	5.0	2.5	blank	1.0	128.37316799163818	2.5083460807800293
7	18.966312170028687	fix_post	2		12.0	5.0	2.5	blank	1.0	130.8815140724182	0.10004496574401855
8	19.066357135772705	fix_pre	0		26.0	6.0	2.5	/experiments/knapen_aot/videos/R_S_yt-4NjyKFnwHBo_13.mp4	0.0	130.98155903816223	0.21660494804382324
8	19.274773120880127	response	0	2		6.0	2.5	/experiments/knapen_aot/videos/R_S_yt-4NjyKFnwHBo_13.mp4	0.0	131.18997502326965	
8	19.28296208381653	movie	1		301.0	6.0	2.5	/experiments/knapen_aot/videos/R_S_yt-4NjyKFnwHBo_13.mp4	0.0	131.19816398620605	2.5083699226379395
8	21.791332006454468	fix_post	2		12.0	6.0	2.5	/experiments/knapen_aot/videos/R_S_yt-4NjyKFnwHBo_13.mp4	0.0	133.706533908844	0.10003399848937988
9	21.891366004943848	fix_pre	0		15.0	7.0	2.5	/experiments/knapen_aot/videos/R_S_pexels-mikhail-nilov-8410063_1.mp4	0.0	133.80656790733337	0.12493419647216797
9	22.00827717781067	response	0	2		7.0	2.5	/experiments/knapen_aot/videos/R_S_pexels-mikhail-nilov-8410063_1.mp4	0.0	133.9234790802002	
9	22.016300201416016	movie	1		167.0	7.0	2.5	/experiments/knapen_aot/videos/R_S_pexels-mikhail-nilov-8410063_1.mp4	0.0	133.93150210380554	2.508347988128662
9	24.524648189544678	fix_post	2		12.0	7.0	2.5	/experiments/knapen_aot/videos/R_S_pexels-mikhail-nilov-8410063_1.mp4	0.0	136.4398500919342	0.1000819206237793
10	24.624730110168457	fix_pre	0		12.0	8.0	2.5	/experiments/knapen_aot/videos/S_pexels-koolshooters-7327412.mp4	0.0	136.53993201255798	0.09989786148071289
10	24.716442108154297	response	0	2		8.0	2.5	/experiments/knapen_aot/videos/S_pexels-koolshooters-7327412.mp4	0.0	136.63164401054382	
10	24.72462797164917	movie	1		165.0	8.0	2.5	/experiments/knapen_aot/videos/S_pexels-koolshooters-7327412.mp4	0.0	136.6398298740387	2.5082991123199463
10	27.232927083969116	fix_post	2		12.0	8.0	2.5	/experiments/knapen_aot/videos/S_pexels-koolshooters-7327412.mp4	0.0	139.14812898635864	0.10003304481506348
11	27.33296012878418	fix_pre	0		12.0	9.0	2.5	/experiments/knapen_aot/videos/R_S_9smWynsk6sI_158.mp4	0.0	139.2481620311737	0.09995388984680176
11	27.424795150756836	response	0	2		9.0	2.5	/experiments/knapen_aot/videos/R_S_9smWynsk6sI_158.mp4	0.0	139.33999705314636	
11	27.43291401863098	movie	1		301.0	9.0	2.5	/experiments/knapen_aot/videos/R_S_9smWynsk6sI_158.mp4	0.0	139.3481159210205	2.50833797454834
11	29.94125199317932	fix_post	2		12.0	9.0	2.5	/experiments/knapen_aot/videos/R_S_9smWynsk6sI_158.mp4	0.0	141.85645389556885	0.10006499290466309
12	30.041316986083984	fix_pre	0		26.0	10.0	2.5	/experiments/knapen_aot/videos/R_S_wc-hmW1OnCPF_xn_37.mp4	0.0	141.9565188884735	0.216569185256958
12	30.24966597557068	response	0	2		10.0	2.5	/experiments/knapen_aot/videos/R_S_wc-hmW1OnCPF_xn_37.mp4	0.0	142.1648678779602	
12	30.257886171340942	movie	1		169.0	10.0	2.5	/experiments/knapen_aot/videos/R_S_wc-hmW1OnCPF_xn_37.mp4	0.0	142.17308807373047	2.5082969665527344
12	32.76618313789368	fix_post	2		12.0	10.0	2.5	/experiments/knapen_aot/videos/R_S_wc-hmW1OnCPF_xn_37.mp4	0.0	144.6813850402832	0.1000828742980957
12	32.833083152770996	response	2	2		10.0	2.5	/experiments/knapen_aot/videos/R_S_wc-hmW1OnCPF_xn_37.mp4	0.0	144.74828505516052	
13	32.86626601219177	fix_pre	0		60.0	11.0	2.5	/experiments/knapen_aot/videos/S_ILSVRC2015_train_00251005.mp4	0.0	144.7814679145813	0.4999520778656006
13	33.35944199562073	response	0	2		11.0	2.5	/experiments/knapen_aot/videos/S_ILSVRC2015_train_00251005.mp4	0.0	145.27464389801025	
13	33.36621809005737	movie	1		301.0	11.0	2.5	/experiments/knapen_aot/videos/S_ILSVRC2015_train_00251005.mp4	0.0	145.2814199924469	2.5082950592041016
13	35.874513149261475	fix_post	2		12.0	11.0	2.5	/experiments/knapen_aot/videos/S_ILSVRC2015_train_00251005.mp4	0.0	147.789715051651	0.0999908447265625
14	35.97450399398804	fix_pre	0		23.0	12.0	2.5	blank	1.0	147.88970589637756	0.19176411628723145
14	36.1580650806427	response	0	2		12.0	2.5	blank	1.0	148.07326698303223	
14	36.16626811027527	movie	1		301.0	12.0	2.5	blank	1.0	148.0814700126648	2.5082590579986572
14	38.674527168273926	fix_post	2		12.0	12.0	2.5	blank	1.0	150.58972907066345	0.10129785537719727
15	38.77582502365112	fix_pre	0		24.0	13.0	2.5	/experiments/knapen_aot/videos/R_S_yt-nlfwzxlwRfk_12.mp4	0.0	150.69102692604065	0.1986541748046875
15	38.966334104537964	response	0	2		13.0	2.5	/experiments/knapen_aot/videos/R_S_yt-nlfwzxlwRfk_12.mp4	0.0	150.8815360069275	
15	38.97447919845581	movie	1		301.0	13.0	2.5	/experiments/knapen_aot/videos/R_S_yt-nlfwzxlwRfk_12.mp4	0.0	150.88968110084534	2.508347988128662
15	41.48282718658447	fix_post	2		12.0	13.0	2.5	/experiments/knapen_aot/videos/R_S_yt-nlfwzxlwRfk_12.mp4	0.0	153.398029088974	0.1000518798828125
16	41.582879066467285	fix_pre	0		18.0	14.0	2.5	/experiments/knapen_aot/videos/R_S_yt-wUqpCtBOFBA_89.mp4	0.0	153.4980809688568	0.15129899978637695
16	41.72467112541199	response	0	2		14.0	2.5	/experiments/knapen_aot/videos/R_S_yt-wUqpCtBOFBA_89.mp4	0.0	153.6398730278015	
16	41.73417806625366	movie	1		301.0	14.0	2.5	/experiments/knapen_aot/videos/R_S_yt-wUqpCtBOFBA_89.mp4	0.0	153.6493799686432	2.506995916366577
16	44.24117398262024	fix_post	2		12.0	14.0	2.5	/experiments/knapen_aot/videos/R_S_yt-wUqpCtBOFBA_89.mp4	0.0	156.15637588500977	0.09998106956481934
17	44.34115505218506	fix_pre	0		22.0	15.0	2.5	/experiments/knapen_aot/videos/S_yt-vjed5qyKqZw_1.mp4	0.0	156.25635695457458	0.18460297584533691
17	44.51632118225098	response	0	2		15.0	2.5	/experiments/knapen_aot/videos/S_yt-vjed5qyKqZw_1.mp4	0.0	156.4315230846405	
17	44.525758028030396	movie	1		301.0	15.0	2.5	/experiments/knapen_aot/videos/S_yt-vjed5qyKqZw_1.mp4	0.0	156.44095993041992	2.5071489810943604
17	47.032907009124756	fix_post	2		12.0	15.0	2.5	/experiments/knapen_aot/videos/S_yt-vjed5qyKqZw_1.mp4	0.0	158.94810891151428	0.10005497932434082
18	47.1329619884491	fix_pre	0		6.0	16.0	2.5	/experiments/knapen_aot/videos/S_yt-7NjoFHBdP7c_102.mp4	0.0	159.04816389083862	0.04987907409667969
18	47.17459416389465	response	0	2		16.0	2.5	/experiments/knapen_aot/videos/S_yt-7NjoFHBdP7c_102.mp4	0.0	159.08979606628418	
18	47.182841062545776	movie	1		301.0	16.0	2.5	/experiments/knapen_aot/videos/S_yt-7NjoFHBdP7c_102.mp4	0.0	159.0980429649353	2.508270025253296
18	49.69111108779907	fix_post	2		12.0	16.0	2.5	/experiments/knapen_aot/videos/S_yt-7NjoFHBdP7c_102.mp4	0.0	161.6063129901886	0.09998798370361328
19	49.791099071502686	fix_pre	0		25.0	17.0	2.5	/experiments/knapen_aot/videos/S_yt-738MRS0yI6g_177.mp4	0.0	161.7063009738922	0.20836400985717773
19	49.991310119628906	response	0	2		17.0	2.5	/experiments/knapen_aot/videos/S_yt-738MRS0yI6g_177.mp4	0.0	161.90651202201843	
19	49.99946308135986	movie	1		300.0	17.0	2.5	/experiments/knapen_aot/videos/S_yt-738MRS0yI6g_177.mp4	0.0	161.9146649837494	2.5083670616149902
19	52.50783014297485	fix_post	2		12.0	17.0	2.5	/experiments/knapen_aot/videos/S_yt-738MRS0yI6g_177.mp4	0.0	164.42303204536438	0.1000058650970459
20	52.6078360080719	fix_pre	0		10.0	18.0	2.5	/experiments/knapen_aot/videos/S_yt-j3Sk8ZnAiEA_32.mp4	0.0	164.52303791046143	0.08453011512756348
20	52.67543816566467	response	0	2		18.0	2.5	/experiments/knapen_aot/videos/S_yt-j3Sk8ZnAiEA_32.mp4	0.0	164.5906400680542	
20	52.69236612319946	movie	1		301.0	18.0	2.5	/experiments/knapen_aot/videos/S_yt-j3Sk8ZnAiEA_32.mp4	0.0	164.607568025589	2.5071499347686768
20	55.19951605796814	fix_post	2		12.0	18.0	2.5	/experiments/knapen_aot/videos/S_yt-j3Sk8ZnAiEA_32.mp4	0.0	167.11471796035767	0.09996294975280762
21	55.29947900772095	fix_pre	0		55.0	19.0	2.5	/experiments/knapen_aot/videos/S_yt-CINajD_PVjQ_494.mp4	0.0	167.21468091011047	0.45830416679382324
21	55.74206614494324	response	0	2		19.0	2.5	/experiments/knapen_aot/videos/S_yt-CINajD_PVjQ_494.mp4	0.0	167.65726804733276	
21	55.75778317451477	movie	1		301.0	19.0	2.5	/experiments/knapen_aot/videos/S_yt-CINajD_PVjQ_494.mp4	0.0	167.6729850769043	2.5082499980926514
21	58.26603317260742	fix_post	2		12.0	19.0	2.5	/experiments/knapen_aot/videos/S_yt-CINajD_PVjQ_494.mp4	0.0	170.18123507499695	0.10009980201721191
22	58.366132974624634	fix_pre	0		34.0	20.0	2.5	blank	1.0	170.28133487701416	0.28327512741088867
22	58.64124798774719	response	0	2		20.0	2.5	blank	1.0	170.55644989013672	
22	58.64940810203552	movie	1		301.0	20.0	2.5	blank	1.0	170.56461000442505	2.5083460807800293
22	61.15775418281555	fix_post	2		12.0	20.0	2.5	blank	1.0	173.07295608520508	0.09999990463256836
23	61.25775408744812	fix_pre	0		17.0	21.0	2.5	/experiments/knapen_aot/videos/R_S_yt-YTQXM5ZjRgg_116.mp4	0.0	173.17295598983765	0.14280295372009277
23	61.39116597175598	response	0	2		21.0	2.5	/experiments/knapen_aot/videos/R_S_yt-YTQXM5ZjRgg_116.mp4	0.0	173.3063678741455	
23	61.40055704116821	movie	1		301.0	21.0	2.5	/experiments/knapen_aot/videos/R_S_yt-YTQXM5ZjRgg_116.mp4	0.0	173.31575894355774	2.5072250366210938
23	63.90778207778931	fix_post	2		12.0	21.0	2.5	/experiments/knapen_aot/videos/R_S_yt-YTQXM5ZjRgg_116.mp4	0.0	175.82298398017883	0.1000359058380127
24	64.00781798362732	fix_pre	0		21.0	22.0	2.5	/experiments/knapen_aot/videos/S_Xq0a2BWE3zA_53.mp4	0.0	175.92301988601685	0.18332314491271973
24	64.17462301254272	response	0	2		22.0	2.5	/experiments/knapen_aot/videos/S_Xq0a2BWE3zA_53.mp4	0.0	176.08982491493225	
24	64.19114112854004	movie	1		300.0	22.0	2.5	/experiments/knapen_aot/videos/S_Xq0a2BWE3zA_53.mp4	0.0	176.10634303092957	2.499980926513672
24	66.63291001319885	response	1	2		22.0	2.5	/experiments/knapen_aot/videos/S_Xq0a2BWE3zA_53.mp4	0.0	178.54811191558838	
24	66.69112205505371	fix_post	2		12.0	22.0	2.5	/experiments/knapen_aot/videos/S_Xq0a2BWE3zA_53.mp4	0.0	178.60632395744324	0.10002398490905762
25	66.79114603996277	fix_pre	0		29.0	23.0	2.5	/experiments/knapen_aot/videos/R_S_yt-FzMLLmcD1mE_19.mp4	0.0	178.7063479423523	0.24162507057189941
25	67.02461814880371	response	0	2		23.0	2.5	/experiments/knapen_aot/videos/R_S_yt-FzMLLmcD1mE_19.mp4	0.0	178.93982005119324	
25	67.03277111053467	movie	1		301.0	23.0	2.5	/experiments/knapen_aot/videos/R_S_yt-FzMLLmcD1mE_19.mp4	0.0	178.9479730129242	2.5083529949188232
25	69.54112410545349	fix_post	2		12.0	23.0	2.5	/experiments/knapen_aot/videos/R_S_yt-FzMLLmcD1mE_19.mp4	0.0	181.45632600784302	0.09997010231018066
26	69.64109420776367	fix_pre	0		35.0	24.0	2.5	/experiments/knapen_aot/videos/S_pexels-roman-odintsov-8231493.mp4	0.0	181.5562961101532	0.29169678688049316
26	69.91697406768799	response	0	2		24.0	2.5	/experiments/knapen_aot/videos/S_pexels-roman-odintsov-8231493.mp4	0.0	181.83217597007751	
26	69.93279099464417	movie	1		206.0	24.0	2.5	/experiments/knapen_aot/videos/S_pexels-roman-odintsov-8231493.mp4	0.0	181.8479928970337	2.5083460807800293
26	72.4411370754242	fix_post	2		12.0	24.0	2.5	/experiments/knapen_aot/videos/S_pexels-roman-odintsov-8231493.mp4	0.0	184.35633897781372	0.10000491142272949
27	72.54114198684692	fix_pre	0		22.0	25.0	2.5	/experiments/knapen_aot/videos/R_S_production_ID_3761571.mp4	0.0	184.45634388923645	0.18329620361328125
27	72.708731174469	response	0	2		25.0	2.5	/experiments/knapen_aot/videos/R_S_production_ID_3761571.mp4	0.0	184.62393307685852	
27	72.7244381904602	movie	1		163.0	25.0	2.5	/experiments/knapen_aot/videos/R_S_production_ID_3761571.mp4	0.0	184.63964009284973	2.508234977722168
27	75.23267316818237	fix_post	2		12.0	25.0	2.5	/experiments/knapen_aot/videos/R_S_production_ID_3761571.mp4	0.0	187.1478750705719	0.10005688667297363
28	75.33273005485535	fix_pre	0		19.0	26.0	2.5	blank	1.0	187.24793195724487	0.158311128616333
28	75.48282718658447	response	0	2		26.0	2.5	blank	1.0	187.398029088974	
28	75.49104118347168	movie	1		301.0	26.0	2.5	blank	1.0	187.4062430858612	2.5083417892456055
28	77.99938297271729	fix_post	2		12.0	26.0	2.5	blank	1.0	189.9145848751068	0.09992718696594238
29	78.09931015968323	fix_pre	0		35.0	27.0	2.5	/experiments/knapen_aot/videos/S_yt-9Z9-RT-ysEE_85.mp4	0.0	190.01451206207275	0.2917368412017822
29	78.38272213935852	response	0	2		27.0	2.5	/experiments/knapen_aot/videos/S_yt-9Z9-RT-ysEE_85.mp4	0.0	190.29792404174805	
29	78.39104700088501	movie	1		301.0	27.0	2.5	/experiments/knapen_aot/videos/S_yt-9Z9-RT-ysEE_85.mp4	0.0	190.30624890327454	2.5083281993865967
29	80.8993752002716	fix_post	2		12.0	27.0	2.5	/experiments/knapen_aot/videos/S_yt-9Z9-RT-ysEE_85.mp4	0.0	192.81457710266113	0.1000218391418457
30	80.99939703941345	fix_pre	0		20.0	28.0	2.5	/experiments/knapen_aot/videos/R_S_yt-xNITUMXoU0g_9.mp4	0.0	192.91459894180298	0.16660714149475098
30	81.15783214569092	response	0	2		28.0	2.5	/experiments/knapen_aot/videos/R_S_yt-xNITUMXoU0g_9.mp4	0.0	193.07303404808044	
30	81.1660041809082	movie	1		301.0	28.0	2.5	/experiments/knapen_aot/videos/R_S_yt-xNITUMXoU0g_9.mp4	0.0	193.08120608329773	2.508363962173462
30	83.67436814308167	fix_post	2		12.0	28.0	2.5	/experiments/knapen_aot/videos/R_S_yt-xNITUMXoU0g_9.mp4	0.0	195.5895700454712	0.10000205039978027
31	83.77437019348145	fix_pre	0		27.0	29.0	2.5	/experiments/knapen_aot/videos/R_S_comp_L010_C006_PS_v01_SDR_PS_20180925_SDR_2K_AVC.mp4	0.0	195.68957209587097	0.22498679161071777
31	83.99108910560608	response	0	2		29.0	2.5	/experiments/knapen_aot/videos/R_S_comp_L010_C006_PS_v01_SDR_PS_20180925_SDR_2K_AVC.mp4	0.0	195.9062910079956	
31	83.99935698509216	movie	1		167.0	29.0	2.5	/experiments/knapen_aot/videos/R_S_comp_L010_C006_PS_v01_SDR_PS_20180925_SDR_2K_AVC.mp4	0.0	195.9145588874817	2.5082521438598633
31	86.50760912895203	fix_post	2		12.0	29.0	2.5	/experiments/knapen_aot/videos/R_S_comp_L010_C006_PS_v01_SDR_PS_20180925_SDR_2K_AVC.mp4	0.0	198.42281103134155	0.1000678539276123
32	86.60767698287964	fix_pre	0		7.0	30.0	2.5	/experiments/knapen_aot/videos/S_Pexels_Videos_2791797.mp4	0.0	198.52287888526917	0.05829215049743652
32	86.65785002708435	response	0	2		30.0	2.5	/experiments/knapen_aot/videos/S_Pexels_Videos_2791797.mp4	0.0	198.57305192947388	
32	86.66596913337708	movie	1		171.0	30.0	2.5	/experiments/knapen_aot/videos/S_Pexels_Videos_2791797.mp4	0.0	198.5811710357666	2.5083539485931396
32	89.17432308197021	fix_post	2		12.0	30.0	2.5	/experiments/knapen_aot/videos/S_Pexels_Videos_2791797.mp4	0.0	201.08952498435974	0.10100603103637695
33	89.27532911300659	fix_pre	0		12.0	31.0	2.5	/experiments/knapen_aot/videos/S_yt-qYuLW5vSotM_160.mp4	0.0	201.19053101539612	0.0989680290222168
33	89.36610102653503	response	0	2		31.0	2.5	/experiments/knapen_aot/videos/S_yt-qYuLW5vSotM_160.mp4	0.0	201.28130292892456	
33	89.37429714202881	movie	1		299.0	31.0	2.5	/experiments/knapen_aot/videos/S_yt-qYuLW5vSotM_160.mp4	0.0	201.28949904441833	2.5083260536193848
33	91.8826231956482	fix_post	2		12.0	31.0	2.5	/experiments/knapen_aot/videos/S_yt-qYuLW5vSotM_160.mp4	0.0	203.79782509803772	0.09997391700744629
34	91.98259711265564	fix_pre	0		4.0	32.0	2.5	/experiments/knapen_aot/videos/S_yt-gPhlnZG-pRY_4.mp4	0.0	203.89779901504517	0.033444881439208984
34	92.00768899917603	response	0	2		32.0	2.5	/experiments/knapen_aot/videos/S_yt-gPhlnZG-pRY_4.mp4	0.0	203.92289090156555	
34	92.01604199409485	movie	1		301.0	32.0	2.5	/experiments/knapen_aot/videos/S_yt-gPhlnZG-pRY_4.mp4	0.0	203.93124389648438	2.5082600116729736
34	94.52430200576782	fix_post	2		12.0	32.0	2.5	/experiments/knapen_aot/videos/S_yt-gPhlnZG-pRY_4.mp4	0.0	206.43950390815735	0.09995412826538086
34	94.54945111274719	response	2	2		32.0	2.5	/experiments/knapen_aot/videos/S_yt-gPhlnZG-pRY_4.mp4	0.0	206.46465301513672	
35	94.6242561340332	fix_pre	0		36.0	33.0	2.5	/experiments/knapen_aot/videos/R_S_yt-j3Sk8ZnAiEA_32.mp4	0.0	206.53945803642273	0.30000901222229004
35	94.91598200798035	response	0	2		33.0	2.5	/experiments/knapen_aot/videos/R_S_yt-j3Sk8ZnAiEA_32.mp4	0.0	206.83118391036987	
35	94.9242651462555	movie	1		301.0	33.0	2.5	/experiments/knapen_aot/videos/R_S_yt-j3Sk8ZnAiEA_32.mp4	0.0	206.83946704864502	2.5083839893341064
35	97.4326491355896	fix_post	2		12.0	33.0	2.5	/experiments/knapen_aot/videos/R_S_yt-j3Sk8ZnAiEA_32.mp4	0.0	209.34785103797913	0.09995388984680176
36	97.5326030254364	fix_pre	0		23.0	34.0	2.5	blank	1.0	209.44780492782593	0.19163894653320312
36	97.71606516838074	response	0	2		34.0	2.5	blank	1.0	209.63126707077026	
36	97.7242419719696	movie	1		301.0	34.0	2.5	blank	1.0	209.63944387435913	2.508310079574585
36	100.23255205154419	fix_post	2		12.0	34.0	2.5	blank	1.0	212.14775395393372	0.1001131534576416
37	100.33266520500183	fix_pre	0		25.0	35.0	2.5	/experiments/knapen_aot/videos/S_comp_A008_C007_011550_CC_v01_SDR_PS_FINAL_20180709_SDR_2K_AVC.mp4	0.0	212.24786710739136	0.20821595191955566
37	100.53272914886475	response	0	2		35.0	2.5	/experiments/knapen_aot/videos/S_comp_A008_C007_011550_CC_v01_SDR_PS_FINAL_20180709_SDR_2K_AVC.mp4	0.0	212.44793105125427	
37	100.54088115692139	movie	1		164.0	35.0	2.5	/experiments/knapen_aot/videos/S_comp_A008_C007_011550_CC_v01_SDR_PS_FINAL_20180709_SDR_2K_AVC.mp4	0.0	212.4560830593109	2.508405923843384
37	103.04928708076477	fix_post	2		12.0	35.0	2.5	/experiments/knapen_aot/videos/S_comp_A008_C007_011550_CC_v01_SDR_PS_FINAL_20180709_SDR_2K_AVC.mp4	0.0	214.9644889831543	0.10000801086425781
38	103.14929509162903	fix_pre	0		32.0	36.0	2.5	/experiments/knapen_aot/videos/R_S_yt-QFGyhhr1KSQ_9.mp4	0.0	215.06449699401855	0.2832980155944824
38	103.42445397377014	response	0	2		36.0	2.5	/experiments/knapen_aot/videos/R_S_yt-QFGyhhr1KSQ_9.mp4	0.0	215.33965587615967	
38	103.43259310722351	movie	1		301.0	36.0	2.5	/experiments/knapen_aot/videos/R_S_yt-QFGyhhr1KSQ_9.mp4	0.0	215.34779500961304	2.50832200050354
38	105.94091510772705	fix_post	2		12.0	36.0	2.5	/experiments/knapen_aot/videos/R_S_yt-QFGyhhr1KSQ_9.mp4	0.0	217.85611701011658	0.09993195533752441
39	106.04084706306458	fix_pre	0		10.0	37.0	2.5	/experiments/knapen_aot/videos/S_yt-N7ztk2fa3Ls_137.mp4	0.0	217.9560489654541	0.08336591720581055
39	106.11603808403015	response	0	2		37.0	2.5	/experiments/knapen_aot/videos/S_yt-N7ztk2fa3Ls_137.mp4	0.0	218.03123998641968	
39	106.12421298027039	movie	1		301.0	37.0	2.5	/experiments/knapen_aot/videos/S_yt-N7ztk2fa3Ls_137.mp4	0.0	218.0394148826599	2.508334159851074
39	108.29941415786743	response	1	2		37.0	2.5	/experiments/knapen_aot/videos/S_yt-N7ztk2fa3Ls_137.mp4	0.0	220.21461606025696	
39	108.63254714012146	fix_post	2		12.0	37.0	2.5	/experiments/knapen_aot/videos/S_yt-N7ztk2fa3Ls_137.mp4	0.0	220.547749042511	0.09995698928833008
39	108.63449811935425	response	2	2		37.0	2.5	/experiments/knapen_aot/videos/S_yt-N7ztk2fa3Ls_137.mp4	0.0	220.54970002174377	
40	108.73250412940979	fix_pre	0		21.0	38.0	2.5	/experiments/knapen_aot/videos/R_S_yt-nn-8LZcafGs_35.mp4	0.0	220.64770603179932	0.17504191398620605
40	108.89927911758423	response	0	2		38.0	2.5	/experiments/knapen_aot/videos/R_S_yt-nn-8LZcafGs_35.mp4	0.0	220.81448101997375	
40	108.907546043396	movie	1		301.0	38.0	2.5	/experiments/knapen_aot/videos/R_S_yt-nn-8LZcafGs_35.mp4	0.0	220.82274794578552	2.508324146270752
40	109.04939007759094	response	1	2		38.0	2.5	/experiments/knapen_aot/videos/R_S_yt-nn-8LZcafGs_35.mp4	0.0	220.96459197998047	
40	111.41587018966675	fix_post	2		12.0	38.0	2.5	/experiments/knapen_aot/videos/R_S_yt-nn-8LZcafGs_35.mp4	0.0	223.33107209205627	0.10006284713745117
41	111.5159330368042	fix_pre	0		17.0	39.0	2.5	/experiments/knapen_aot/videos/S_comp_L010_C006_PS_v01_SDR_PS_20180925_SDR_2K_AVC.mp4	0.0	223.43113493919373	0.14158010482788086
41	111.64934206008911	response	0	2		39.0	2.5	/experiments/knapen_aot/videos/S_comp_L010_C006_PS_v01_SDR_PS_20180925_SDR_2K_AVC.mp4	0.0	223.56454396247864	
41	111.65751314163208	movie	1		169.0	39.0	2.5	/experiments/knapen_aot/videos/S_comp_L010_C006_PS_v01_SDR_PS_20180925_SDR_2K_AVC.mp4	0.0	223.5727150440216	2.5084049701690674
41	114.16591811180115	fix_post	2		12.0	39.0	2.5	/experiments/knapen_aot/videos/S_comp_L010_C006_PS_v01_SDR_PS_20180925_SDR_2K_AVC.mp4	0.0	226.08112001419067	0.10000991821289062
41	114.23268818855286	response	2	2		39.0	2.5	/experiments/knapen_aot/videos/S_comp_L010_C006_PS_v01_SDR_PS_20180925_SDR_2K_AVC.mp4	0.0	226.14789009094238	
42	114.26592803001404	fix_pre	0		38.0	40.0	2.5	blank	1.0	226.18112993240356	0.3166029453277588
42	114.5667941570282	response	0	2		40.0	2.5	blank	1.0	226.48199605941772	
42	114.5825309753418	movie	1		301.0	40.0	2.5	blank	1.0	226.49773287773132	2.5082590579986572
42	117.09079003334045	fix_post	2		12.0	40.0	2.5	blank	1.0	229.00599193572998	0.10013914108276367
43	117.19092917442322	fix_pre	0		29.0	41.0	2.5	/experiments/knapen_aot/videos/R_S_yt-YLcmfyfIokU_64.mp4	0.0	229.10613107681274	0.24164199829101562
43	117.42434597015381	response	0	2		41.0	2.5	/experiments/knapen_aot/videos/R_S_yt-YLcmfyfIokU_64.mp4	0.0	229.33954787254333	
43	117.43257117271423	movie	1		301.0	41.0	2.5	/experiments/knapen_aot/videos/R_S_yt-YLcmfyfIokU_64.mp4	0.0	229.34777307510376	2.508354902267456
43	119.94092607498169	fix_post	2		12.0	41.0	2.5	/experiments/knapen_aot/videos/R_S_yt-YLcmfyfIokU_64.mp4	0.0	231.85612797737122	0.09996199607849121
44	120.04088807106018	fix_pre	0		10.0	42.0	2.5	/experiments/knapen_aot/videos/S_Y011_C008_SDR_2K_AVC.mp4	0.0	231.9560899734497	0.08333396911621094
44	120.11602401733398	response	0	2		42.0	2.5	/experiments/knapen_aot/videos/S_Y011_C008_SDR_2K_AVC.mp4	0.0	232.0312259197235	
44	120.12422204017639	movie	1		171.0	42.0	2.5	/experiments/knapen_aot/videos/S_Y011_C008_SDR_2K_AVC.mp4	0.0	232.03942394256592	2.50832200050354
44	122.63254404067993	fix_post	2		12.0	42.0	2.5	/experiments/knapen_aot/videos/S_Y011_C008_SDR_2K_AVC.mp4	0.0	234.54774594306946	0.09998798370361328
45	122.73253202438354	fix_pre	0		13.0	43.0	2.5	/experiments/knapen_aot/videos/R_S_yt-y6JsUW0eSW8_32.mp4	0.0	234.64773392677307	0.10829496383666992
45	122.83273100852966	response	0	2		43.0	2.5	/experiments/knapen_aot/videos/R_S_yt-y6JsUW0eSW8_32.mp4	0.0	234.7479329109192	
45	122.84082698822021	movie	1		299.0	43.0	2.5	/experiments/knapen_aot/videos/R_S_yt-y6JsUW0eSW8_32.mp4	0.0	234.75602889060974	2.5083980560302734
45	125.34922504425049	fix_post	2		12.0	43.0	2.5	/experiments/knapen_aot/videos/R_S_yt-y6JsUW0eSW8_32.mp4	0.0	237.26442694664001	0.09994792938232422
46	125.44917297363281	fix_pre	0		32.0	44.0	2.5	/experiments/knapen_aot/videos/R_S_yt-mHLTJkMrkZI_143.mp4	0.0	237.36437487602234	0.26662516593933105
46	125.70761704444885	response	0	2		44.0	2.5	/experiments/knapen_aot/videos/R_S_yt-mHLTJkMrkZI_143.mp4	0.0	237.62281894683838	
46	125.71579813957214	movie	1		301.0	44.0	2.5	/experiments/knapen_aot/videos/R_S_yt-mHLTJkMrkZI_143.mp4	0.0	237.63100004196167	2.5084078311920166
46	128.22420597076416	fix_post	2		12.0	44.0	2.5	/experiments/knapen_aot/videos/R_S_yt-mHLTJkMrkZI_143.mp4	0.0	240.1394078731537	0.10000205039978027
47	128.32420802116394	fix_pre	0		13.0	45.0	2.5	/experiments/knapen_aot/videos/S_yt-M_ApPnq00iE_67.mp4	0.0	240.23940992355347	0.10829710960388184
47	128.42439198493958	response	0	2		45.0	2.5	/experiments/knapen_aot/videos/S_yt-M_ApPnq00iE_67.mp4	0.0	240.3395938873291	
47	128.43250513076782	movie	1		301.0	45.0	2.5	/experiments/knapen_aot/videos/S_yt-M_ApPnq00iE_67.mp4	0.0	240.34770703315735	2.5082409381866455
47	130.94074606895447	fix_post	2		12.0	45.0	2.5	/experiments/knapen_aot/videos/S_yt-M_ApPnq00iE_67.mp4	0.0	242.855947971344	0.1000969409942627
48	131.04084300994873	fix_pre	0		28.0	46.0	2.5	/experiments/knapen_aot/videos/S_yt-LhP0mZ6xxIg_111.mp4	0.0	242.95604491233826	0.2340831756591797
48	131.2659649848938	response	0	2		46.0	2.5	/experiments/knapen_aot/videos/S_yt-LhP0mZ6xxIg_111.mp4	0.0	243.18116688728333	
48	131.2749261856079	movie	1		301.0	46.0	2.5	/experiments/knapen_aot/videos/S_yt-LhP0mZ6xxIg_111.mp4	0.0	243.19012808799744	2.5075809955596924
48	133.7825071811676	fix_post	2		12.0	46.0	2.5	/experiments/knapen_aot/videos/S_yt-LhP0mZ6xxIg_111.mp4	0.0	245.69770908355713	0.09995388984680176
49	133.8824610710144	fix_pre	0		10.0	47.0	2.5	blank	1.0	245.79766297340393	0.08333110809326172
49	133.95758605003357	response	0	2		47.0	2.5	blank	1.0	245.8727879524231	
49	133.96579217910767	movie	1		301.0	47.0	2.5	blank	1.0	245.8809940814972	2.508354902267456
49	136.47414708137512	fix_post	2		12.0	47.0	2.5	blank	1.0	248.38934898376465	0.10002303123474121
50	136.57417011260986	fix_pre	0		37.0	48.0	2.5	/experiments/knapen_aot/videos/R_S_yt-mDil5vGZb14_4049.mp4	0.0	248.4893720149994	0.30831098556518555
50	136.8742551803589	response	0	2		48.0	2.5	/experiments/knapen_aot/videos/R_S_yt-mDil5vGZb14_4049.mp4	0.0	248.7894570827484	
50	136.88248109817505	movie	1		301.0	48.0	2.5	/experiments/knapen_aot/videos/R_S_yt-mDil5vGZb14_4049.mp4	0.0	248.79768300056458	2.508331060409546
50	139.3908121585846	fix_post	2		12.0	48.0	2.5	/experiments/knapen_aot/videos/R_S_yt-mDil5vGZb14_4049.mp4	0.0	251.30601406097412	0.09999203681945801
51	139.49080419540405	fix_pre	0		25.0	49.0	2.5	/experiments/knapen_aot/videos/S_yt-nlfwzxlwRfk_12.mp4	0.0	251.40600609779358	0.20828986167907715
51	139.6909420490265	response	0	2		49.0	2.5	/experiments/knapen_aot/videos/S_yt-nlfwzxlwRfk_12.mp4	0.0	251.60614395141602	
51	139.69909405708313	movie	1		301.0	49.0	2.5	/experiments/knapen_aot/videos/S_yt-nlfwzxlwRfk_12.mp4	0.0	251.61429595947266	2.508481025695801
51	142.20757508277893	fix_post	2		12.0	49.0	2.5	/experiments/knapen_aot/videos/S_yt-nlfwzxlwRfk_12.mp4	0.0	254.12277698516846	0.09990501403808594
52	142.30748009681702	fix_pre	0		36.0	50.0	2.5	/experiments/knapen_aot/videos/R_S_yt-K-iCphzt_RE_17.mp4	0.0	254.22268199920654	0.3007209300994873
52	142.59176206588745	response	0	2		50.0	2.5	/experiments/knapen_aot/videos/R_S_yt-K-iCphzt_RE_17.mp4	0.0	254.50696396827698	
52	142.6082010269165	movie	1		301.0	50.0	2.5	/experiments/knapen_aot/videos/R_S_yt-K-iCphzt_RE_17.mp4	0.0	254.52340292930603	2.5075981616973877
52	145.1157991886139	fix_post	2		12.0	50.0	2.5	/experiments/knapen_aot/videos/R_S_yt-K-iCphzt_RE_17.mp4	0.0	257.0310010910034	0.09998178482055664
53	145.21578097343445	fix_pre	0		20.0	51.0	2.5	/experiments/knapen_aot/videos/R_S_pexels-koolshooters-7327412.mp4	0.0	257.130982875824	0.1666550636291504
53	145.37425017356873	response	0	2		51.0	2.5	/experiments/knapen_aot/videos/R_S_pexels-koolshooters-7327412.mp4	0.0	257.28945207595825	
53	145.3824360370636	movie	1		166.0	51.0	2.5	/experiments/knapen_aot/videos/R_S_pexels-koolshooters-7327412.mp4	0.0	257.2976379394531	2.508204936981201
53	147.8906409740448	fix_post	2		12.0	51.0	2.5	/experiments/knapen_aot/videos/R_S_pexels-koolshooters-7327412.mp4	0.0	259.8058428764343	0.1001131534576416
54	147.99075412750244	fix_pre	0		16.0	52.0	2.5	/experiments/knapen_aot/videos/S_yt-R-SETZtYWaA_336.mp4	0.0	259.90595602989197	0.13331389427185059
54	148.11584210395813	response	0	2		52.0	2.5	/experiments/knapen_aot/videos/S_yt-R-SETZtYWaA_336.mp4	0.0	260.03104400634766	
54	148.1240680217743	movie	1		301.0	52.0	2.5	/experiments/knapen_aot/videos/S_yt-R-SETZtYWaA_336.mp4	0.0	260.0392699241638	2.508378028869629
54	150.63244605064392	fix_post	2		12.0	52.0	2.5	/experiments/knapen_aot/videos/S_yt-R-SETZtYWaA_336.mp4	0.0	262.54764795303345	0.09996199607849121
55	150.7324080467224	fix_pre	0		8.0	53.0	2.5	/experiments/knapen_aot/videos/R_S_yt-9Ow95khYa_M_91.mp4	0.0	262.64760994911194	0.06667304039001465
55	150.79091215133667	response	0	2		53.0	2.5	/experiments/knapen_aot/videos/R_S_yt-9Ow95khYa_M_91.mp4	0.0	262.7061140537262	
55	150.79908108711243	movie	1		301.0	53.0	2.5	/experiments/knapen_aot/videos/R_S_yt-9Ow95khYa_M_91.mp4	0.0	262.71428298950195	2.5082790851593018
55	153.30736017227173	fix_post	2		12.0	53.0	2.5	/experiments/knapen_aot/videos/R_S_yt-9Ow95khYa_M_91.mp4	0.0	265.22256207466125	0.09994983673095703
56	153.40731000900269	fix_pre	0		20.0	54.0	2.5	/experiments/knapen_aot/videos/S_pexels-cottonbro-10640532.mp4	0.0	265.3225119113922	0.16670513153076172
56	153.56582713127136	response	0	2		54.0	2.5	/experiments/knapen_aot/videos/S_pexels-cottonbro-10640532.mp4	0.0	265.4810290336609	
56	153.57401514053345	movie	1		207.0	54.0	2.5	/experiments/knapen_aot/videos/S_pexels-cottonbro-10640532.mp4	0.0	265.489217042923	2.5083248615264893
56	156.08234000205994	fix_post	2		12.0	54.0	2.5	/experiments/knapen_aot/videos/S_pexels-cottonbro-10640532.mp4	0.0	267.99754190444946	0.10000205039978027
57	156.18234205245972	fix_pre	0		34.0	55.0	2.5	/experiments/knapen_aot/videos/S_yt-aqrdb6BiFx4_12.mp4	0.0	268.09754395484924	0.2833290100097656
57	156.45750212669373	response	0	2		55.0	2.5	/experiments/knapen_aot/videos/S_yt-aqrdb6BiFx4_12.mp4	0.0	268.37270402908325	
57	156.46567106246948	movie	1		300.0	55.0	2.5	/experiments/knapen_aot/videos/S_yt-aqrdb6BiFx4_12.mp4	0.0	268.380872964859	2.5084550380706787
57	158.97412610054016	fix_post	2		12.0	55.0	2.5	/experiments/knapen_aot/videos/S_yt-aqrdb6BiFx4_12.mp4	0.0	270.8893280029297	0.09996604919433594
58	159.0740921497345	fix_pre	0		32.0	56.0	2.5	blank	1.0	270.989294052124	0.2666459083557129
58	159.33254504203796	response	0	2		56.0	2.5	blank	1.0	271.2477469444275	
58	159.3407380580902	movie	1		301.0	56.0	2.5	blank	1.0	271.25593996047974	2.5083110332489014
58	161.8490490913391	fix_post	2		12.0	56.0	2.5	blank	1.0	273.76425099372864	0.09999990463256836
59	161.94904899597168	fix_pre	0		122.0	57.0	2.5	/experiments/knapen_aot/videos/R_S_ILSVRC2015_train_00725000.mp4	0.0	273.8642508983612	1.0167310237884521
59	162.95753812789917	response	0	2		57.0	2.5	/experiments/knapen_aot/videos/R_S_ILSVRC2015_train_00725000.mp4	0.0	274.8727400302887	
59	162.96578001976013	movie	1		301.0	57.0	2.5	/experiments/knapen_aot/videos/R_S_ILSVRC2015_train_00725000.mp4	0.0	274.88098192214966	2.5082931518554688
59	165.4740731716156	fix_post	2		12.0	57.0	2.5	/experiments/knapen_aot/videos/R_S_ILSVRC2015_train_00725000.mp4	0.0	277.3892750740051	0.0999608039855957
60	165.5740339756012	fix_pre	0		27.0	58.0	2.5	/experiments/knapen_aot/videos/R_S_yt-GFcuvjHJmS4_86.mp4	0.0	277.4892358779907	0.22496414184570312
60	165.79081106185913	response	0	2		58.0	2.5	/experiments/knapen_aot/videos/R_S_yt-GFcuvjHJmS4_86.mp4	0.0	277.70601296424866	
60	165.7989981174469	movie	1		301.0	58.0	2.5	/experiments/knapen_aot/videos/R_S_yt-GFcuvjHJmS4_86.mp4	0.0	277.7142000198364	2.5083060264587402
60	168.30730414390564	fix_post	2		12.0	58.0	2.5	/experiments/knapen_aot/videos/R_S_yt-GFcuvjHJmS4_86.mp4	0.0	280.22250604629517	0.10005497932434082
61	168.40735912322998	fix_pre	0		28.0	59.0	2.5	/experiments/knapen_aot/videos/S_yt-738MRS0yI6g_177.mp4	0.0	280.3225610256195	0.2333390712738037
61	168.63250207901	response	0	2		59.0	2.5	/experiments/knapen_aot/videos/S_yt-738MRS0yI6g_177.mp4	0.0	280.54770398139954	
61	168.64069819450378	movie	1		301.0	59.0	2.5	/experiments/knapen_aot/videos/S_yt-738MRS0yI6g_177.mp4	0.0	280.5559000968933	2.5083138942718506
61	171.14901208877563	fix_post	2		12.0	59.0	2.5	/experiments/knapen_aot/videos/S_yt-738MRS0yI6g_177.mp4	0.0	283.06421399116516	0.1000220775604248
62	171.24903416633606	fix_pre	0		18.0	60.0	2.5	/experiments/knapen_aot/videos/R_S_yt-aqrdb6BiFx4_12.mp4	0.0	283.1642360687256	0.15055584907531738
62	171.39084911346436	response	0	2		60.0	2.5	/experiments/knapen_aot/videos/R_S_yt-aqrdb6BiFx4_12.mp4	0.0	283.3060510158539	
62	171.39959001541138	movie	1		300.0	60.0	2.5	/experiments/knapen_aot/videos/R_S_yt-aqrdb6BiFx4_12.mp4	0.0	283.3147919178009	2.507730007171631
62	173.907320022583	fix_post	2		12.0	60.0	2.5	/experiments/knapen_aot/videos/R_S_yt-aqrdb6BiFx4_12.mp4	0.0	285.82252192497253	0.10001802444458008
63	174.0073380470276	fix_pre	0		26.0	61.0	2.5	/experiments/knapen_aot/videos/R_S_ILSVRC2015_train_00450001.mp4	0.0	285.9225399494171	0.2166600227355957
63	174.21585702896118	response	0	2		61.0	2.5	/experiments/knapen_aot/videos/R_S_ILSVRC2015_train_00450001.mp4	0.0	286.1310589313507	
63	174.22399806976318	movie	1		301.0	61.0	2.5	/experiments/knapen_aot/videos/R_S_ILSVRC2015_train_00450001.mp4	0.0	286.1391999721527	2.5083489418029785
63	176.73234701156616	fix_post	2		12.0	61.0	2.5	/experiments/knapen_aot/videos/R_S_ILSVRC2015_train_00450001.mp4	0.0	288.6475489139557	0.09996509552001953
64	176.83231210708618	fix_pre	0		15.0	62.0	2.5	/experiments/knapen_aot/videos/R_S_yt-hOtj2y9VWrc_354.mp4	0.0	288.7475140094757	0.1250019073486328
64	176.9490430355072	response	0	2		62.0	2.5	/experiments/knapen_aot/videos/R_S_yt-hOtj2y9VWrc_354.mp4	0.0	288.86424493789673	
64	176.95731401443481	movie	1		301.0	62.0	2.5	/experiments/knapen_aot/videos/R_S_yt-hOtj2y9VWrc_354.mp4	0.0	288.87251591682434	2.5082621574401855
64	179.465576171875	fix_post	2		12.0	62.0	2.5	/experiments/knapen_aot/videos/R_S_yt-hOtj2y9VWrc_354.mp4	0.0	291.3807780742645	0.09993696212768555
65	179.56551313400269	fix_pre	0		9.0	63.0	2.5	blank	1.0	291.4807150363922	0.07500290870666504
65	179.6324281692505	response	0	2		63.0	2.5	blank	1.0	291.54763007164	
65	179.64051604270935	movie	1		301.0	63.0	2.5	blank	1.0	291.5557179450989	2.5083401203155518
65	182.1488561630249	fix_post	2		12.0	63.0	2.5	blank	1.0	294.06405806541443	0.1000509262084961
66	182.2489070892334	fix_pre	0		32.0	64.0	2.5	/experiments/knapen_aot/videos/R_S_yt-PltpRRYmQQk_62.mp4	0.0	294.1641089916229	0.2666769027709961
66	182.50739312171936	response	0	2		64.0	2.5	/experiments/knapen_aot/videos/R_S_yt-PltpRRYmQQk_62.mp4	0.0	294.4225950241089	
66	182.5155839920044	movie	1		301.0	64.0	2.5	/experiments/knapen_aot/videos/R_S_yt-PltpRRYmQQk_62.mp4	0.0	294.4307858943939	2.5082671642303467
66	185.02385115623474	fix_post	2		12.0	64.0	2.5	/experiments/knapen_aot/videos/R_S_yt-PltpRRYmQQk_62.mp4	0.0	296.93905305862427	0.10007381439208984
67	185.12392497062683	fix_pre	0		16.0	65.0	2.5	/experiments/knapen_aot/videos/R_S_yt--jzScB82vKI_212.mp4	0.0	297.03912687301636	0.13329505920410156
67	185.2490701675415	response	0	2		65.0	2.5	/experiments/knapen_aot/videos/R_S_yt--jzScB82vKI_212.mp4	0.0	297.16427206993103	
67	185.25722002983093	movie	1		301.0	65.0	2.5	/experiments/knapen_aot/videos/R_S_yt--jzScB82vKI_212.mp4	0.0	297.17242193222046	2.5083391666412354
67	187.76555919647217	fix_post	2		12.0	65.0	2.5	/experiments/knapen_aot/videos/R_S_yt--jzScB82vKI_212.mp4	0.0	299.6807610988617	0.09998798370361328
68	187.86554718017578	fix_pre	0		3.0	66.0	2.5	/experiments/knapen_aot/videos/R_S_pexels-mikhail-nilov-8410063.mp4	0.0	299.7807490825653	0.02503800392150879
68	187.8823401927948	response	0	2		66.0	2.5	/experiments/knapen_aot/videos/R_S_pexels-mikhail-nilov-8410063.mp4	0.0	299.7975420951843	
68	187.8905851840973	movie	1		167.0	66.0	2.5	/experiments/knapen_aot/videos/R_S_pexels-mikhail-nilov-8410063.mp4	0.0	299.8057870864868	2.508288860321045
68	190.39887404441833	fix_post	2		11.0	66.0	2.5	/experiments/knapen_aot/videos/R_S_pexels-mikhail-nilov-8410063.mp4	0.0	302.31407594680786	0.09168505668640137
68	190.48238515853882	response	2	2		66.0	2.5	/experiments/knapen_aot/videos/R_S_pexels-mikhail-nilov-8410063.mp4	0.0	302.39758706092834	
69	190.49055910110474	fix_pre	0		47.0	67.0	2.5	/experiments/knapen_aot/videos/S_comp_LA_A009_C009_PSNK_v02_SDR_PS_FINAL_20180709_SDR_2K_AVC.mp4	0.0	302.40576100349426	0.3916289806365967
69	190.87397408485413	response	0	2		67.0	2.5	/experiments/knapen_aot/videos/S_comp_LA_A009_C009_PSNK_v02_SDR_PS_FINAL_20180709_SDR_2K_AVC.mp4	0.0	302.78917598724365	
69	190.88218808174133	movie	1		167.0	67.0	2.5	/experiments/knapen_aot/videos/S_comp_LA_A009_C009_PSNK_v02_SDR_PS_FINAL_20180709_SDR_2K_AVC.mp4	0.0	302.79738998413086	2.5083489418029785
69	193.3905370235443	fix_post	2		12.0	67.0	2.5	/experiments/knapen_aot/videos/S_comp_LA_A009_C009_PSNK_v02_SDR_PS_FINAL_20180709_SDR_2K_AVC.mp4	0.0	305.30573892593384	0.09998798370361328
70	193.49052500724792	fix_pre	0		18.0	68.0	2.5	/experiments/knapen_aot/videos/R_S_yt-KM_SJx8CMGc_10.mp4	0.0	305.40572690963745	0.15000700950622559
70	193.63234400749207	response	0	2		68.0	2.5	/experiments/knapen_aot/videos/R_S_yt-KM_SJx8CMGc_10.mp4	0.0	305.5475459098816	
70	193.64053201675415	movie	1		301.0	68.0	2.5	/experiments/knapen_aot/videos/R_S_yt-KM_SJx8CMGc_10.mp4	0.0	305.5557339191437	2.508385181427002
70	196.14891719818115	fix_post	2		12.0	68.0	2.5	/experiments/knapen_aot/videos/R_S_yt-KM_SJx8CMGc_10.mp4	0.0	308.0641191005707	0.10002899169921875
71	196.24894618988037	fix_pre	0		9.0	69.0	2.5	/experiments/knapen_aot/videos/R_S_yt-GFcuvjHJmS4_86.mp4	0.0	308.1641480922699	0.07492780685424805
71	196.31560611724854	response	0	2		69.0	2.5	/experiments/knapen_aot/videos/R_S_yt-GFcuvjHJmS4_86.mp4	0.0	308.23080801963806	
71	196.32387399673462	movie	1		301.0	69.0	2.5	/experiments/knapen_aot/videos/R_S_yt-GFcuvjHJmS4_86.mp4	0.0	308.23907589912415	2.508301019668579
71	198.8321750164032	fix_post	2		12.0	69.0	2.5	/experiments/knapen_aot/videos/R_S_yt-GFcuvjHJmS4_86.mp4	0.0	310.7473769187927	0.10008811950683594
72	198.93226313591003	fix_pre	0		13.0	70.0	2.5	blank	1.0	310.84746503829956	0.10823202133178711
72	199.03229808807373	response	0	2		70.0	2.5	blank	1.0	310.94749999046326	
72	199.04049515724182	movie	1		301.0	70.0	2.5	blank	1.0	310.95569705963135	2.5083558559417725
72	201.5488510131836	fix_post	2		12.0	70.0	2.5	blank	1.0	313.4640529155731	0.10001301765441895
73	201.648864030838	fix_pre	0		31.0	71.0	2.5	/experiments/knapen_aot/videos/R_S_comp_A105_C002_v06_SDR_FINAL_25062018_SDR_2K_AVC.mp4	0.0	313.56406593322754	0.2582390308380127
73	201.89895820617676	response	0	2		71.0	2.5	/experiments/knapen_aot/videos/R_S_comp_A105_C002_v06_SDR_FINAL_25062018_SDR_2K_AVC.mp4	0.0	313.8141601085663	
73	201.90710306167603	movie	1		168.0	71.0	2.5	/experiments/knapen_aot/videos/R_S_comp_A105_C002_v06_SDR_FINAL_25062018_SDR_2K_AVC.mp4	0.0	313.82230496406555	2.5083770751953125
73	204.41548013687134	fix_post	2		12.0	71.0	2.5	/experiments/knapen_aot/videos/R_S_comp_A105_C002_v06_SDR_FINAL_25062018_SDR_2K_AVC.mp4	0.0	316.33068203926086	0.10004401206970215
74	204.51552414894104	fix_pre	0		8.0	72.0	2.5	/experiments/knapen_aot/videos/R_S_yt-LsCCAQ8BRO8_7.mp4	0.0	316.43072605133057	0.06670403480529785
74	204.56765913963318	response	0	2		72.0	2.5	/experiments/knapen_aot/videos/R_S_yt-LsCCAQ8BRO8_7.mp4	0.0	316.4828610420227	
74	204.58222818374634	movie	1		301.0	72.0	2.5	/experiments/knapen_aot/videos/R_S_yt-LsCCAQ8BRO8_7.mp4	0.0	316.49743008613586	2.508251905441284
74	207.09048008918762	fix_post	2		12.0	72.0	2.5	/experiments/knapen_aot/videos/R_S_yt-LsCCAQ8BRO8_7.mp4	0.0	319.00568199157715	0.10002398490905762
75	207.19050407409668	fix_pre	0		23.0	73.0	2.5	/experiments/knapen_aot/videos/R_S_yt-YeT4acsbqok_210.mp4	0.0	319.1057059764862	0.19162797927856445
75	207.37403202056885	response	0	2		73.0	2.5	/experiments/knapen_aot/videos/R_S_yt-YeT4acsbqok_210.mp4	0.0	319.2892339229584	
75	207.38213205337524	movie	1		301.0	73.0	2.5	/experiments/knapen_aot/videos/R_S_yt-YeT4acsbqok_210.mp4	0.0	319.29733395576477	2.508327007293701
75	209.89045906066895	fix_post	2		12.0	73.0	2.5	/experiments/knapen_aot/videos/R_S_yt-YeT4acsbqok_210.mp4	0.0	321.8056609630585	0.1000220775604248
76	209.99048113822937	fix_pre	0		2.0	74.0	2.5	/experiments/knapen_aot/videos/R_S_yt-hekMMCluhnU_18.mp4	0.0	321.9056830406189	0.016798019409179688
76	209.99894618988037	response	0	2		74.0	2.5	/experiments/knapen_aot/videos/R_S_yt-hekMMCluhnU_18.mp4	0.0	321.9141480922699	
76	210.00727915763855	movie	1		301.0	74.0	2.5	/experiments/knapen_aot/videos/R_S_yt-hekMMCluhnU_18.mp4	0.0	321.9224810600281	2.5080859661102295
76	210.25721716880798	response	1	2		74.0	2.5	/experiments/knapen_aot/videos/R_S_yt-hekMMCluhnU_18.mp4	0.0	322.1724190711975	
76	212.51536512374878	fix_post	2		12.0	74.0	2.5	/experiments/knapen_aot/videos/R_S_yt-hekMMCluhnU_18.mp4	0.0	324.4305670261383	0.10011601448059082
77	212.61548113822937	fix_pre	0		20.0	75.0	2.5	blank	1.0	324.5306830406189	0.16680097579956055
77	212.7739531993866	response	0	2		75.0	2.5	blank	1.0	324.6891551017761	
77	212.78228211402893	movie	1		301.0	75.0	2.5	blank	1.0	324.69748401641846	2.5081849098205566
77	215.2904670238495	fix_post	2		12.0	75.0	2.5	blank	1.0	327.205668926239	0.0999460220336914
78	215.39041304588318	fix_pre	0		49.0	76.0	2.5	/experiments/knapen_aot/videos/R_S_pexels-roman-odintsov-8231493.mp4	0.0	327.3056149482727	0.40830302238464355
78	215.7905731201172	response	0	2		76.0	2.5	/experiments/knapen_aot/videos/R_S_pexels-roman-odintsov-8231493.mp4	0.0	327.7057750225067	
78	215.79871606826782	movie	1		203.0	76.0	2.5	/experiments/knapen_aot/videos/R_S_pexels-roman-odintsov-8231493.mp4	0.0	327.71391797065735	2.5083749294281006
78	218.30709099769592	fix_post	2		12.0	76.0	2.5	/experiments/knapen_aot/videos/R_S_pexels-roman-odintsov-8231493.mp4	0.0	330.22229290008545	0.10025405883789062
79	218.4073450565338	fix_pre	0		19.0	77.0	2.5	/experiments/knapen_aot/videos/R_S_yt-28ODBE9bVh0_44.mp4	0.0	330.32254695892334	0.15845513343811035
79	218.55724000930786	response	0	2		77.0	2.5	/experiments/knapen_aot/videos/R_S_yt-28ODBE9bVh0_44.mp4	0.0	330.4724419116974	
79	218.56580018997192	movie	1		301.0	77.0	2.5	/experiments/knapen_aot/videos/R_S_yt-28ODBE9bVh0_44.mp4	0.0	330.48100209236145	2.507929801940918
79	221.07372999191284	fix_post	2		12.0	77.0	2.5	/experiments/knapen_aot/videos/R_S_yt-28ODBE9bVh0_44.mp4	0.0	332.98893189430237	0.10003519058227539
80	221.17376518249512	fix_pre	0		29.0	78.0	2.5	/experiments/knapen_aot/videos/R_S_yt-v8e_DlCsP4w_10.mp4	0.0	333.08896708488464	0.24161791801452637
80	221.40722107887268	response	0	2		78.0	2.5	/experiments/knapen_aot/videos/R_S_yt-v8e_DlCsP4w_10.mp4	0.0	333.3224229812622	
80	221.41538310050964	movie	1		301.0	78.0	2.5	/experiments/knapen_aot/videos/R_S_yt-v8e_DlCsP4w_10.mp4	0.0	333.33058500289917	2.5083730220794678
80	223.9237561225891	fix_post	2		12.0	78.0	2.5	/experiments/knapen_aot/videos/R_S_yt-v8e_DlCsP4w_10.mp4	0.0	335.83895802497864	0.10031986236572266
81	224.02407598495483	fix_pre	0		9.0	79.0	2.5	/experiments/knapen_aot/videos/S_yt-nlfwzxlwRfk_12.mp4	0.0	335.93927788734436	0.0746312141418457
81	224.09049606323242	response	0	2		79.0	2.5	/experiments/knapen_aot/videos/S_yt-nlfwzxlwRfk_12.mp4	0.0	336.00569796562195	
81	224.09870719909668	movie	1		301.0	79.0	2.5	/experiments/knapen_aot/videos/S_yt-nlfwzxlwRfk_12.mp4	0.0	336.0139091014862	2.508328914642334
81	226.607036113739	fix_post	2		12.0	79.0	2.5	/experiments/knapen_aot/videos/S_yt-nlfwzxlwRfk_12.mp4	0.0	338.52223801612854	0.0999748706817627
82	226.70701098442078	fix_pre	0		29.0	80.0	2.5	/experiments/knapen_aot/videos/S_yt-oPq1uvbw-lQ_62.mp4	0.0	338.6222128868103	0.24163222312927246
82	226.94054913520813	response	0	2		80.0	2.5	/experiments/knapen_aot/videos/S_yt-oPq1uvbw-lQ_62.mp4	0.0	338.85575103759766	
82	226.94864320755005	movie	1		301.0	80.0	2.5	/experiments/knapen_aot/videos/S_yt-oPq1uvbw-lQ_62.mp4	0.0	338.8638451099396	2.5083539485931396
82	229.4569971561432	fix_post	2		12.0	80.0	2.5	/experiments/knapen_aot/videos/S_yt-oPq1uvbw-lQ_62.mp4	0.0	341.3721990585327	0.10000395774841309
83	229.5570011138916	fix_pre	0		25.0	81.0	2.5	/experiments/knapen_aot/videos/S_comp_H007_C003_PS_v01_SDR_PS_20180925_SDR_2K_AVC.mp4	0.0	341.4722030162811	0.20834589004516602
83	229.75720810890198	response	0	2		81.0	2.5	/experiments/knapen_aot/videos/S_comp_H007_C003_PS_v01_SDR_PS_20180925_SDR_2K_AVC.mp4	0.0	341.6724100112915	
83	229.76534700393677	movie	1		172.0	81.0	2.5	/experiments/knapen_aot/videos/S_comp_H007_C003_PS_v01_SDR_PS_20180925_SDR_2K_AVC.mp4	0.0	341.6805489063263	2.5083811283111572
83	232.27372813224792	fix_post	2		12.0	81.0	2.5	/experiments/knapen_aot/videos/S_comp_H007_C003_PS_v01_SDR_PS_20180925_SDR_2K_AVC.mp4	0.0	344.18893003463745	0.09989500045776367
84	232.3736231327057	fix_pre	0		2.0	82.0	2.5	/experiments/knapen_aot/videos/S_yt-xQPKYWDRy2A_491.mp4	0.0	344.2888250350952	0.01697397232055664
84	232.38212203979492	response	0	2		82.0	2.5	/experiments/knapen_aot/videos/S_yt-xQPKYWDRy2A_491.mp4	0.0	344.29732394218445	
84	232.39059710502625	movie	1		301.0	82.0	2.5	/experiments/knapen_aot/videos/S_yt-xQPKYWDRy2A_491.mp4	0.0	344.30579900741577	2.5080649852752686
84	234.8986620903015	fix_post	2		12.0	82.0	2.5	/experiments/knapen_aot/videos/S_yt-xQPKYWDRy2A_491.mp4	0.0	346.81386399269104	0.10001397132873535
85	234.99867606163025	fix_pre	0		16.0	83.0	2.5	blank	1.0	346.9138779640198	0.13342595100402832
85	235.12384009361267	response	0	2		83.0	2.5	blank	1.0	347.0390419960022	
85	235.13210201263428	movie	1		301.0	83.0	2.5	blank	1.0	347.0473039150238	2.5083701610565186
85	237.6404721736908	fix_post	2		12.0	83.0	2.5	blank	1.0	349.5556740760803	0.09986400604248047
87	237.74033617973328	stim	0		165.0					349.6555380821228	1.3750038146972656
87	238.05714917182922	response	0	2						349.97235107421875	
87	239.10992097854614	response	0	space						351.02512288093567	
