trial_nr	onset	event_type	phase	response	nr_frames	movie_index	movie_duration	movie_file	blank	onset_abs	duration
0	0.12677788734436035	stim	0		67.0					81.14190697669983	0.5564761161804199
0	0.6757819652557373	response	0	space						81.6909110546112	
1	0.6832540035247803	stim	0		121.0					81.69838309288025	1.0080859661102295
1	1.6913399696350098	stim	1		120.0					82.70646905899048	0.9999399185180664
2	2.691279888153076	fix_pre	0		31.0	0.0	2.5	/experiments/knapen_aot/videos/S_yt-nlfwzxlwRfk_12.mp4	0.0	83.70640897750854	0.25827717781066895
2	2.941472053527832	response	0	space		0.0	2.5	/experiments/knapen_aot/videos/S_yt-nlfwzxlwRfk_12.mp4	0.0	83.9566011428833	
2	2.949557065963745	movie	1		300.0	0.0	2.5	/experiments/knapen_aot/videos/S_yt-nlfwzxlwRfk_12.mp4	0.0	83.96468615531921	2.508349895477295
2	5.45790696144104	fix_post	2		12.0	0.0	2.5	/experiments/knapen_aot/videos/S_yt-nlfwzxlwRfk_12.mp4	0.0	86.47303605079651	0.10004997253417969
3	5.55795693397522	fix_pre	0		9.0	1.0	2.5	/experiments/knapen_aot/videos/S_yt-PRqnM7xDsus_24.mp4	0.0	86.57308602333069	0.0754539966583252
3	5.629178047180176	response	0	2		1.0	2.5	/experiments/knapen_aot/videos/S_yt-PRqnM7xDsus_24.mp4	0.0	86.64430713653564	
3	5.633410930633545	movie	1		295.0	1.0	2.5	/experiments/knapen_aot/videos/S_yt-PRqnM7xDsus_24.mp4	0.0	86.64854001998901	2.5078649520874023
3	8.141275882720947	fix_post	2		12.0	1.0	2.5	/experiments/knapen_aot/videos/S_yt-PRqnM7xDsus_24.mp4	0.0	89.15640497207642	0.09995508193969727
4	8.241230964660645	fix_pre	0		22.0	2.0	2.5	/experiments/knapen_aot/videos/S_wc-NVeGRb_y_y_5_36.mp4	0.0	89.25636005401611	0.18382501602172852
4	8.416324853897095	response	0	2		2.0	2.5	/experiments/knapen_aot/videos/S_wc-NVeGRb_y_y_5_36.mp4	0.0	89.43145394325256	
4	8.425055980682373	movie	1		163.0	2.0	2.5	/experiments/knapen_aot/videos/S_wc-NVeGRb_y_y_5_36.mp4	0.0	89.44018507003784	2.507917881011963
4	10.932973861694336	fix_post	2		12.0	2.0	2.5	/experiments/knapen_aot/videos/S_wc-NVeGRb_y_y_5_36.mp4	0.0	91.9481029510498	0.09990119934082031
5	11.032875061035156	fix_pre	0		8.0	3.0	2.5	/experiments/knapen_aot/videos/R_S_yt-ZE8Af60eNsI_15.mp4	0.0	92.04800415039062	0.06673502922058105
5	11.091732025146484	response	0	2		3.0	2.5	/experiments/knapen_aot/videos/R_S_yt-ZE8Af60eNsI_15.mp4	0.0	92.10686111450195	
5	11.099610090255737	movie	1		301.0	3.0	2.5	/experiments/knapen_aot/videos/R_S_yt-ZE8Af60eNsI_15.mp4	0.0	92.1147391796112	2.5082387924194336
5	13.607848882675171	fix_post	2		12.0	3.0	2.5	/experiments/knapen_aot/videos/R_S_yt-ZE8Af60eNsI_15.mp4	0.0	94.62297797203064	0.10004615783691406
6	13.707895040512085	fix_pre	0		18.0	4.0	2.5	/experiments/knapen_aot/videos/R_S_yt-E8EDQCPbBeI_196.mp4	0.0	94.72302412986755	0.14995598793029785
6	13.84964108467102	response	0	2		4.0	2.5	/experiments/knapen_aot/videos/R_S_yt-E8EDQCPbBeI_196.mp4	0.0	94.86477017402649	
6	13.857851028442383	movie	1		301.0	4.0	2.5	/experiments/knapen_aot/videos/R_S_yt-E8EDQCPbBeI_196.mp4	0.0	94.87298011779785	2.508344888687134
6	16.366195917129517	fix_post	2		12.0	4.0	2.5	/experiments/knapen_aot/videos/R_S_yt-E8EDQCPbBeI_196.mp4	0.0	97.38132500648499	0.09993910789489746
7	16.466135025024414	fix_pre	0		56.0	5.0	2.5	blank	1.0	97.48126411437988	0.46671485900878906
7	16.924628019332886	response	0	2		5.0	2.5	blank	1.0	97.93975710868835	
7	16.932849884033203	movie	1		301.0	5.0	2.5	blank	1.0	97.94797897338867	2.5083000659942627
7	19.441149950027466	fix_post	2		12.0	5.0	2.5	blank	1.0	100.45627903938293	0.09997892379760742
8	19.541128873825073	fix_pre	0		68.0	6.0	2.5	/experiments/knapen_aot/videos/S_yt-Ud9uqaeHtY4_302.mp4	0.0	100.55625796318054	0.5666801929473877
8	20.099650859832764	response	0	2		6.0	2.5	/experiments/knapen_aot/videos/S_yt-Ud9uqaeHtY4_302.mp4	0.0	101.11477994918823	
8	20.10780906677246	movie	1		300.0	6.0	2.5	/experiments/knapen_aot/videos/S_yt-Ud9uqaeHtY4_302.mp4	0.0	101.12293815612793	2.5084569454193115
8	22.616266012191772	fix_post	2		12.0	6.0	2.5	/experiments/knapen_aot/videos/S_yt-Ud9uqaeHtY4_302.mp4	0.0	103.63139510154724	0.09994888305664062
9	22.716214895248413	fix_pre	0		34.0	7.0	2.5	/experiments/knapen_aot/videos/S_yt-nlfwzxlwRfk_12.mp4	0.0	103.73134398460388	0.28334617614746094
9	22.991358995437622	response	0	2		7.0	2.5	/experiments/knapen_aot/videos/S_yt-nlfwzxlwRfk_12.mp4	0.0	104.00648808479309	
9	22.999561071395874	movie	1		301.0	7.0	2.5	/experiments/knapen_aot/videos/S_yt-nlfwzxlwRfk_12.mp4	0.0	104.01469016075134	2.5082828998565674
9	25.50784397125244	fix_post	2		12.0	7.0	2.5	/experiments/knapen_aot/videos/S_yt-nlfwzxlwRfk_12.mp4	0.0	106.52297306060791	0.09997105598449707
10	25.60781502723694	fix_pre	0		47.0	8.0	2.5	/experiments/knapen_aot/videos/R_S_yt-VTNBCfQxnsk_59.mp4	0.0	106.62294411659241	0.3916778564453125
10	25.991277933120728	response	0	2		8.0	2.5	/experiments/knapen_aot/videos/R_S_yt-VTNBCfQxnsk_59.mp4	0.0	107.0064070224762	
10	25.99949288368225	movie	1		298.0	8.0	2.5	/experiments/knapen_aot/videos/R_S_yt-VTNBCfQxnsk_59.mp4	0.0	107.01462197303772	2.5083811283111572
10	28.507874011993408	fix_post	2		12.0	8.0	2.5	/experiments/knapen_aot/videos/R_S_yt-VTNBCfQxnsk_59.mp4	0.0	109.52300310134888	0.09997296333312988
11	28.607846975326538	fix_pre	0		53.0	9.0	2.5	/experiments/knapen_aot/videos/R_S_comp_A103_C002_0205DG_v12_SDR_FINAL_20180706_SDR_2K_AVC.mp4	0.0	109.622976064682	0.4419898986816406
11	29.04129195213318	response	0	2		9.0	2.5	/experiments/knapen_aot/videos/R_S_comp_A103_C002_0205DG_v12_SDR_FINAL_20180706_SDR_2K_AVC.mp4	0.0	110.05642104148865	
11	29.04983687400818	movie	1		168.0	9.0	2.5	/experiments/knapen_aot/videos/R_S_comp_A103_C002_0205DG_v12_SDR_FINAL_20180706_SDR_2K_AVC.mp4	0.0	110.06496596336365	2.5080220699310303
11	31.55785894393921	fix_post	2		12.0	9.0	2.5	/experiments/knapen_aot/videos/R_S_comp_A103_C002_0205DG_v12_SDR_FINAL_20180706_SDR_2K_AVC.mp4	0.0	112.57298803329468	0.09994792938232422
12	31.657806873321533	fix_pre	0		35.0	10.0	2.5	/experiments/knapen_aot/videos/R_S_production_ID_5199636.mp4	0.0	112.672935962677	0.29157304763793945
12	31.94126296043396	response	0	2		10.0	2.5	/experiments/knapen_aot/videos/R_S_production_ID_5199636.mp4	0.0	112.95639204978943	
12	31.949379920959473	movie	1		166.0	10.0	2.5	/experiments/knapen_aot/videos/R_S_production_ID_5199636.mp4	0.0	112.96450901031494	2.5084190368652344
12	34.45779895782471	fix_post	2		12.0	10.0	2.5	/experiments/knapen_aot/videos/R_S_production_ID_5199636.mp4	0.0	115.47292804718018	0.0999901294708252
13	34.55778908729553	fix_pre	0		34.0	11.0	2.5	/experiments/knapen_aot/videos/S_pexels-cottonbro-10640532.mp4	0.0	115.572918176651	0.28376197814941406
13	34.832906007766724	response	0	2		11.0	2.5	/experiments/knapen_aot/videos/S_pexels-cottonbro-10640532.mp4	0.0	115.84803509712219	
13	34.841551065444946	movie	1		198.0	11.0	2.5	/experiments/knapen_aot/videos/S_pexels-cottonbro-10640532.mp4	0.0	115.85668015480042	2.507924795150757
13	37.3494758605957	fix_post	2		12.0	11.0	2.5	/experiments/knapen_aot/videos/S_pexels-cottonbro-10640532.mp4	0.0	118.36460494995117	0.09998106956481934
14	37.44945693016052	fix_pre	0		36.0	12.0	2.5	/experiments/knapen_aot/videos/S_yt-eLQydFSMGCU_75.mp4	0.0	118.46458601951599	0.29999804496765137
14	37.74127388000488	response	0	2		12.0	2.5	/experiments/knapen_aot/videos/S_yt-eLQydFSMGCU_75.mp4	0.0	118.75640296936035	
14	37.749454975128174	movie	1		301.0	12.0	2.5	/experiments/knapen_aot/videos/S_yt-eLQydFSMGCU_75.mp4	0.0	118.76458406448364	2.5082859992980957
14	40.25774097442627	fix_post	2		12.0	12.0	2.5	/experiments/knapen_aot/videos/S_yt-eLQydFSMGCU_75.mp4	0.0	121.27287006378174	0.09998607635498047
15	40.35772705078125	fix_pre	0		55.0	13.0	2.5	/experiments/knapen_aot/videos/R_S_yt-RKo978aBdzw_173.mp4	0.0	121.37285614013672	0.4583549499511719
15	40.80793285369873	response	0	2		13.0	2.5	/experiments/knapen_aot/videos/R_S_yt-RKo978aBdzw_173.mp4	0.0	121.8230619430542	
15	40.81608200073242	movie	1		301.0	13.0	2.5	/experiments/knapen_aot/videos/R_S_yt-RKo978aBdzw_173.mp4	0.0	121.83121109008789	2.5083999633789062
15	43.32448196411133	fix_post	2		12.0	13.0	2.5	/experiments/knapen_aot/videos/R_S_yt-RKo978aBdzw_173.mp4	0.0	124.3396110534668	0.1002509593963623
16	43.42473292350769	fix_pre	0		26.0	14.0	2.5	blank	1.0	124.43986201286316	0.21642112731933594
16	43.6329460144043	response	0	2		14.0	2.5	blank	1.0	124.64807510375977	
16	43.641154050827026	movie	1		301.0	14.0	2.5	blank	1.0	124.6562831401825	2.5082569122314453
16	46.14941096305847	fix_post	2		12.0	14.0	2.5	blank	1.0	127.16454005241394	0.1000370979309082
17	46.24944806098938	fix_pre	0		69.0	15.0	2.5	/experiments/knapen_aot/videos/S_ILSVRC2015_train_00303008.mp4	0.0	127.26457715034485	0.574944019317627
17	46.81612586975098	response	0	2		15.0	2.5	/experiments/knapen_aot/videos/S_ILSVRC2015_train_00303008.mp4	0.0	127.83125495910645	
17	46.82439208030701	movie	1		301.0	15.0	2.5	/experiments/knapen_aot/videos/S_ILSVRC2015_train_00303008.mp4	0.0	127.83952116966248	2.50833797454834
17	49.33273005485535	fix_post	2		12.0	15.0	2.5	/experiments/knapen_aot/videos/S_ILSVRC2015_train_00303008.mp4	0.0	130.34785914421082	0.09995889663696289
18	49.43268895149231	fix_pre	0		31.0	16.0	2.5	/experiments/knapen_aot/videos/R_S_yt-szXWk_X_67Q_10.mp4	0.0	130.44781804084778	0.25835299491882324
18	49.682899951934814	response	0	2		16.0	2.5	/experiments/knapen_aot/videos/R_S_yt-szXWk_X_67Q_10.mp4	0.0	130.69802904129028	
18	49.69104194641113	movie	1		300.0	16.0	2.5	/experiments/knapen_aot/videos/R_S_yt-szXWk_X_67Q_10.mp4	0.0	130.7061710357666	2.508409023284912
18	52.199450969696045	fix_post	2		12.0	16.0	2.5	/experiments/knapen_aot/videos/R_S_yt-szXWk_X_67Q_10.mp4	0.0	133.2145800590515	0.10020899772644043
19	52.299659967422485	fix_pre	0		15.0	17.0	2.5	/experiments/knapen_aot/videos/R_S_yt-JGKdBO2Ldzo_93.mp4	0.0	133.31478905677795	0.12489604949951172
19	52.41620898246765	response	0	2		17.0	2.5	/experiments/knapen_aot/videos/R_S_yt-JGKdBO2Ldzo_93.mp4	0.0	133.43133807182312	
19	52.424556016922	movie	1		301.0	17.0	2.5	/experiments/knapen_aot/videos/R_S_yt-JGKdBO2Ldzo_93.mp4	0.0	133.43968510627747	2.50805401802063
19	54.93261003494263	fix_post	2		12.0	17.0	2.5	/experiments/knapen_aot/videos/R_S_yt-JGKdBO2Ldzo_93.mp4	0.0	135.9477391242981	0.10007500648498535
20	55.03268504142761	fix_pre	0		31.0	18.0	2.5	/experiments/knapen_aot/videos/S_yt-YeT4acsbqok_210.mp4	0.0	136.04781413078308	0.25838398933410645
20	55.28279495239258	response	0	2		18.0	2.5	/experiments/knapen_aot/videos/S_yt-YeT4acsbqok_210.mp4	0.0	136.29792404174805	
20	55.29106903076172	movie	1		301.0	18.0	2.5	/experiments/knapen_aot/videos/S_yt-YeT4acsbqok_210.mp4	0.0	136.3061981201172	2.508539915084839
20	57.79960894584656	fix_post	2		12.0	18.0	2.5	/experiments/knapen_aot/videos/S_yt-YeT4acsbqok_210.mp4	0.0	138.81473803520203	0.0997929573059082
21	57.899401903152466	fix_pre	0		35.0	19.0	2.5	blank	1.0	138.91453099250793	0.2915961742401123
21	58.17521691322327	response	0	2		19.0	2.5	blank	1.0	139.19034600257874	
21	58.19099807739258	movie	1		301.0	19.0	2.5	blank	1.0	139.20612716674805	2.5083539485931396
21	60.69935202598572	fix_post	2		12.0	19.0	2.5	blank	1.0	141.7144811153412	0.10025501251220703
22	60.799607038497925	fix_pre	0		62.0	20.0	2.5	/experiments/knapen_aot/videos/S_yt-sWJc_Do8EaI_32.mp4	0.0	141.8147361278534	0.5164079666137695
22	61.30781698226929	response	0	2		20.0	2.5	/experiments/knapen_aot/videos/S_yt-sWJc_Do8EaI_32.mp4	0.0	142.32294607162476	
22	61.316015005111694	movie	1		301.0	20.0	2.5	/experiments/knapen_aot/videos/S_yt-sWJc_Do8EaI_32.mp4	0.0	142.33114409446716	2.50833797454834
22	63.824352979660034	fix_post	2		12.0	20.0	2.5	/experiments/knapen_aot/videos/S_yt-sWJc_Do8EaI_32.mp4	0.0	144.8394820690155	0.10017991065979004
23	63.924532890319824	fix_pre	0		21.0	21.0	2.5	/experiments/knapen_aot/videos/S_yt-fryIS5Itzig_124.mp4	0.0	144.9396619796753	0.1748180389404297
23	64.09100604057312	response	0	2		21.0	2.5	/experiments/knapen_aot/videos/S_yt-fryIS5Itzig_124.mp4	0.0	145.1061351299286	
23	64.09935092926025	movie	1		301.0	21.0	2.5	/experiments/knapen_aot/videos/S_yt-fryIS5Itzig_124.mp4	0.0	145.11448001861572	2.508350133895874
23	66.60770106315613	fix_post	2		12.0	21.0	2.5	/experiments/knapen_aot/videos/S_yt-fryIS5Itzig_124.mp4	0.0	147.6228301525116	0.09996199607849121
24	66.70766305923462	fix_pre	0		46.0	22.0	2.5	/experiments/knapen_aot/videos/S_yt-kawmL3oVw8c_2.mp4	0.0	147.7227921485901	0.3834269046783447
24	67.08281087875366	response	0	2		22.0	2.5	/experiments/knapen_aot/videos/S_yt-kawmL3oVw8c_2.mp4	0.0	148.09793996810913	
24	67.09108996391296	movie	1		301.0	22.0	2.5	/experiments/knapen_aot/videos/S_yt-kawmL3oVw8c_2.mp4	0.0	148.10621905326843	2.508202075958252
24	69.59929203987122	fix_post	2		12.0	22.0	2.5	/experiments/knapen_aot/videos/S_yt-kawmL3oVw8c_2.mp4	0.0	150.61442112922668	0.10003185272216797
25	69.69932389259338	fix_pre	0		35.0	23.0	2.5	/experiments/knapen_aot/videos/R_S_comp_A001_C004_1207W5_v23_SDR_FINAL_20180706_SDR_2K_AVC.mp4	0.0	150.71445298194885	0.29162096977233887
25	69.98273396492004	response	0	2		23.0	2.5	/experiments/knapen_aot/videos/R_S_comp_A001_C004_1207W5_v23_SDR_FINAL_20180706_SDR_2K_AVC.mp4	0.0	150.9978630542755	
25	69.99094486236572	movie	1		167.0	23.0	2.5	/experiments/knapen_aot/videos/R_S_comp_A001_C004_1207W5_v23_SDR_FINAL_20180706_SDR_2K_AVC.mp4	0.0	151.0060739517212	2.5083742141723633
25	72.49931907653809	fix_post	2		12.0	23.0	2.5	/experiments/knapen_aot/videos/R_S_comp_A001_C004_1207W5_v23_SDR_FINAL_20180706_SDR_2K_AVC.mp4	0.0	153.51444816589355	0.10004186630249023
26	72.59936094284058	fix_pre	0		23.0	24.0	2.5	/experiments/knapen_aot/videos/R_S_yt-sWJc_Do8EaI_32.mp4	0.0	153.61449003219604	0.19160914421081543
26	72.78281593322754	response	0	2		24.0	2.5	/experiments/knapen_aot/videos/R_S_yt-sWJc_Do8EaI_32.mp4	0.0	153.797945022583	
26	72.79097008705139	movie	1		301.0	24.0	2.5	/experiments/knapen_aot/videos/R_S_yt-sWJc_Do8EaI_32.mp4	0.0	153.80609917640686	2.508450984954834
26	75.29942107200623	fix_post	2		12.0	24.0	2.5	/experiments/knapen_aot/videos/R_S_yt-sWJc_Do8EaI_32.mp4	0.0	156.3145501613617	0.09991097450256348
27	75.39933204650879	fix_pre	0		29.0	25.0	2.5	/experiments/knapen_aot/videos/R_S_yt-ieA3XwoSko4_98.mp4	0.0	156.41446113586426	0.2416379451751709
27	75.63271594047546	response	0	2		25.0	2.5	/experiments/knapen_aot/videos/R_S_yt-ieA3XwoSko4_98.mp4	0.0	156.64784502983093	
27	75.64096999168396	movie	1		301.0	25.0	2.5	/experiments/knapen_aot/videos/R_S_yt-ieA3XwoSko4_98.mp4	0.0	156.65609908103943	2.5082950592041016
27	78.14926505088806	fix_post	2		12.0	25.0	2.5	/experiments/knapen_aot/videos/R_S_yt-ieA3XwoSko4_98.mp4	0.0	159.16439414024353	0.09998393058776855
28	78.24924898147583	fix_pre	0		11.0	26.0	2.5	/experiments/knapen_aot/videos/S_yt-ujdFTAUE8rc_34.mp4	0.0	159.2643780708313	0.09180903434753418
28	78.32517600059509	response	0	2		26.0	2.5	/experiments/knapen_aot/videos/S_yt-ujdFTAUE8rc_34.mp4	0.0	159.34030508995056	
28	78.34105801582336	movie	1		300.0	26.0	2.5	/experiments/knapen_aot/videos/S_yt-ujdFTAUE8rc_34.mp4	0.0	159.35618710517883	2.508249044418335
28	80.8493070602417	fix_post	2		12.0	26.0	2.5	/experiments/knapen_aot/videos/S_yt-ujdFTAUE8rc_34.mp4	0.0	161.86443614959717	0.09997797012329102
29	80.94928503036499	fix_pre	0		43.0	27.0	2.5	blank	1.0	161.96441411972046	0.358273983001709
29	81.29944586753845	response	0	2		27.0	2.5	blank	1.0	162.31457495689392	
29	81.3075590133667	movie	1		301.0	27.0	2.5	blank	1.0	162.32268810272217	2.508430004119873
29	83.81598901748657	fix_post	2		12.0	27.0	2.5	blank	1.0	164.83111810684204	0.09998106956481934
30	83.91597008705139	fix_pre	0		52.0	28.0	2.5	/experiments/knapen_aot/videos/R_S_yt-ak01CHYgEOs_1383.mp4	0.0	164.93109917640686	0.4332609176635742
30	84.33355808258057	response	0	2		28.0	2.5	/experiments/knapen_aot/videos/R_S_yt-ak01CHYgEOs_1383.mp4	0.0	165.34868717193604	
30	84.34923100471497	movie	1		298.0	28.0	2.5	/experiments/knapen_aot/videos/R_S_yt-ak01CHYgEOs_1383.mp4	0.0	165.36436009407043	2.508310079574585
30	86.85754108428955	fix_post	2		12.0	28.0	2.5	/experiments/knapen_aot/videos/R_S_yt-ak01CHYgEOs_1383.mp4	0.0	167.87267017364502	0.10010290145874023
31	86.95764398574829	fix_pre	0		26.0	29.0	2.5	/experiments/knapen_aot/videos/S_yt-iO0efV_PV-k_102.mp4	0.0	167.97277307510376	0.21666502952575684
31	87.16605186462402	response	0	2		29.0	2.5	/experiments/knapen_aot/videos/S_yt-iO0efV_PV-k_102.mp4	0.0	168.1811809539795	
31	87.17430901527405	movie	1		301.0	29.0	2.5	/experiments/knapen_aot/videos/S_yt-iO0efV_PV-k_102.mp4	0.0	168.18943810462952	2.508302927017212
31	89.68261194229126	fix_post	2		12.0	29.0	2.5	/experiments/knapen_aot/videos/S_yt-iO0efV_PV-k_102.mp4	0.0	170.69774103164673	0.10000801086425781
32	89.78261995315552	fix_pre	0		23.0	30.0	2.5	/experiments/knapen_aot/videos/R_S_yt-YTQXM5ZjRgg_116.mp4	0.0	170.797749042511	0.19160199165344238
32	89.95842695236206	response	0	2		30.0	2.5	/experiments/knapen_aot/videos/R_S_yt-YTQXM5ZjRgg_116.mp4	0.0	170.97355604171753	
32	89.97422194480896	movie	1		301.0	30.0	2.5	/experiments/knapen_aot/videos/R_S_yt-YTQXM5ZjRgg_116.mp4	0.0	170.98935103416443	2.508297920227051
32	92.48251986503601	fix_post	2		12.0	30.0	2.5	/experiments/knapen_aot/videos/R_S_yt-YTQXM5ZjRgg_116.mp4	0.0	173.49764895439148	0.10003018379211426
33	92.58255004882812	fix_pre	0		31.0	31.0	2.5	/experiments/knapen_aot/videos/S_AK_A004_C012_SDR_20191217_SDR_2K_AVC.mp4	0.0	173.5976791381836	0.2583749294281006
33	92.8326199054718	response	0	2		31.0	2.5	/experiments/knapen_aot/videos/S_AK_A004_C012_SDR_20191217_SDR_2K_AVC.mp4	0.0	173.84774899482727	
33	92.84092497825623	movie	1		163.0	31.0	2.5	/experiments/knapen_aot/videos/S_AK_A004_C012_SDR_20191217_SDR_2K_AVC.mp4	0.0	173.8560540676117	2.5082650184631348
33	95.34918999671936	fix_post	2		12.0	31.0	2.5	/experiments/knapen_aot/videos/S_AK_A004_C012_SDR_20191217_SDR_2K_AVC.mp4	0.0	176.36431908607483	0.10002708435058594
34	95.44921708106995	fix_pre	0		29.0	32.0	2.5	/experiments/knapen_aot/videos/S_comp_HK_H004_C013_t9_6M_HB_tag0.mp4	0.0	176.46434617042542	0.2416079044342041
34	95.6827380657196	response	0	2		32.0	2.5	/experiments/knapen_aot/videos/S_comp_HK_H004_C013_t9_6M_HB_tag0.mp4	0.0	176.69786715507507	
34	95.69082498550415	movie	1		172.0	32.0	2.5	/experiments/knapen_aot/videos/S_comp_HK_H004_C013_t9_6M_HB_tag0.mp4	0.0	176.70595407485962	2.5083799362182617
34	98.19920492172241	fix_post	2		12.0	32.0	2.5	/experiments/knapen_aot/videos/S_comp_HK_H004_C013_t9_6M_HB_tag0.mp4	0.0	179.21433401107788	0.0999441146850586
35	98.29914903640747	fix_pre	0		26.0	33.0	2.5	/experiments/knapen_aot/videos/R_S_yt--5ls65Ue1RA_52.mp4	0.0	179.31427812576294	0.2166609764099121
35	98.50768208503723	response	0	2		33.0	2.5	/experiments/knapen_aot/videos/R_S_yt--5ls65Ue1RA_52.mp4	0.0	179.5228111743927	
35	98.51581001281738	movie	1		301.0	33.0	2.5	/experiments/knapen_aot/videos/R_S_yt--5ls65Ue1RA_52.mp4	0.0	179.53093910217285	2.5083818435668945
35	101.02419185638428	fix_post	2		12.0	33.0	2.5	/experiments/knapen_aot/videos/R_S_yt--5ls65Ue1RA_52.mp4	0.0	182.03932094573975	0.10004210472106934
36	101.12423396110535	fix_pre	0		18.0	34.0	2.5	blank	1.0	182.13936305046082	0.14993810653686523
36	101.265958070755	response	0	2		34.0	2.5	blank	1.0	182.28108716011047	
36	101.27417206764221	movie	1		301.0	34.0	2.5	blank	1.0	182.28930115699768	2.508305788040161
36	103.78247785568237	fix_post	2		12.0	34.0	2.5	blank	1.0	184.79760694503784	0.10004019737243652
37	103.88251805305481	fix_pre	0		71.0	35.0	2.5	/experiments/knapen_aot/videos/S_yt-_7HJhRPVmHw_255.mp4	0.0	184.89764714241028	0.5915918350219727
37	104.46598696708679	response	0	2		35.0	2.5	/experiments/knapen_aot/videos/S_yt-_7HJhRPVmHw_255.mp4	0.0	185.48111605644226	
37	104.47410988807678	movie	1		301.0	35.0	2.5	/experiments/knapen_aot/videos/S_yt-_7HJhRPVmHw_255.mp4	0.0	185.48923897743225	2.5083301067352295
37	106.98243999481201	fix_post	2		12.0	35.0	2.5	/experiments/knapen_aot/videos/S_yt-_7HJhRPVmHw_255.mp4	0.0	187.99756908416748	0.10006499290466309
38	107.08250498771667	fix_pre	0		26.0	36.0	2.5	/experiments/knapen_aot/videos/S_pexels-cottonbro-10640532.mp4	0.0	188.09763407707214	0.21665501594543457
38	107.29091596603394	response	0	2		36.0	2.5	/experiments/knapen_aot/videos/S_pexels-cottonbro-10640532.mp4	0.0	188.3060450553894	
38	107.29916000366211	movie	1		215.0	36.0	2.5	/experiments/knapen_aot/videos/S_pexels-cottonbro-10640532.mp4	0.0	188.31428909301758	2.5083260536193848
38	109.8074860572815	fix_post	2		12.0	36.0	2.5	/experiments/knapen_aot/videos/S_pexels-cottonbro-10640532.mp4	0.0	190.82261514663696	0.0999917984008789
39	109.90747785568237	fix_pre	0		24.0	37.0	2.5	/experiments/knapen_aot/videos/S_pexels-koolshooters-7327401_1.mp4	0.0	190.92260694503784	0.20001912117004395
39	110.099200963974	response	0	2		37.0	2.5	/experiments/knapen_aot/videos/S_pexels-koolshooters-7327401_1.mp4	0.0	191.11433005332947	
39	110.10749697685242	movie	1		166.0	37.0	2.5	/experiments/knapen_aot/videos/S_pexels-koolshooters-7327401_1.mp4	0.0	191.12262606620789	2.508358955383301
39	112.61585593223572	fix_post	2		12.0	37.0	2.5	/experiments/knapen_aot/videos/S_pexels-koolshooters-7327401_1.mp4	0.0	193.6309850215912	0.09998703002929688
40	112.71584296226501	fix_pre	0		23.0	38.0	2.5	/experiments/knapen_aot/videos/R_S_yt-uE9XoCLZlFo_1.mp4	0.0	193.73097205162048	0.19164490699768066
40	112.8993148803711	response	0	2		38.0	2.5	/experiments/knapen_aot/videos/R_S_yt-uE9XoCLZlFo_1.mp4	0.0	193.91444396972656	
40	112.9074878692627	movie	1		301.0	38.0	2.5	/experiments/knapen_aot/videos/R_S_yt-uE9XoCLZlFo_1.mp4	0.0	193.92261695861816	2.5083181858062744
40	115.41580605506897	fix_post	2		12.0	38.0	2.5	/experiments/knapen_aot/videos/R_S_yt-uE9XoCLZlFo_1.mp4	0.0	196.43093514442444	0.09995603561401367
41	115.51576209068298	fix_pre	0		31.0	39.0	2.5	/experiments/knapen_aot/videos/S_ILSVRC2015_train_00379000.mp4	0.0	196.53089118003845	0.2583329677581787
41	115.76590394973755	response	0	2		39.0	2.5	/experiments/knapen_aot/videos/S_ILSVRC2015_train_00379000.mp4	0.0	196.78103303909302	
41	115.77409505844116	movie	1		301.0	39.0	2.5	/experiments/knapen_aot/videos/S_ILSVRC2015_train_00379000.mp4	0.0	196.78922414779663	2.508394956588745
41	118.28249001502991	fix_post	2		12.0	39.0	2.5	/experiments/knapen_aot/videos/S_ILSVRC2015_train_00379000.mp4	0.0	199.29761910438538	0.10002899169921875
42	118.38251900672913	fix_pre	0		21.0	40.0	2.5	/experiments/knapen_aot/videos/R_S_yt-Ja7d2a6e5xE_279.mp4	0.0	199.3976480960846	0.17489290237426758
42	118.5416030883789	response	0	2		40.0	2.5	/experiments/knapen_aot/videos/R_S_yt-Ja7d2a6e5xE_279.mp4	0.0	199.55673217773438	
42	118.5574119091034	movie	1		300.0	40.0	2.5	/experiments/knapen_aot/videos/R_S_yt-Ja7d2a6e5xE_279.mp4	0.0	199.57254099845886	2.50833797454834
42	118.91725897789001	response	1	2		40.0	2.5	/experiments/knapen_aot/videos/R_S_yt-Ja7d2a6e5xE_279.mp4	0.0	199.93238806724548	
42	121.06574988365173	fix_post	2		12.0	40.0	2.5	/experiments/knapen_aot/videos/R_S_yt-Ja7d2a6e5xE_279.mp4	0.0	202.0808789730072	0.10002398490905762
43	121.16577386856079	fix_pre	0		36.0	41.0	2.5	blank	1.0	202.18090295791626	0.2999720573425293
43	121.45756697654724	response	0	2		41.0	2.5	blank	1.0	202.4726960659027	
43	121.46574592590332	movie	1		301.0	41.0	2.5	blank	1.0	202.4808750152588	2.5083529949188232
43	123.97409892082214	fix_post	2		12.0	41.0	2.5	blank	1.0	204.9892280101776	0.09998106956481934
44	124.07407999038696	fix_pre	0		50.0	42.0	2.5	/experiments/knapen_aot/videos/S_I005_C008_CROP_SDR_2K_AVC.mp4	0.0	205.08920907974243	0.4165949821472168
44	124.48259401321411	response	0	2		42.0	2.5	/experiments/knapen_aot/videos/S_I005_C008_CROP_SDR_2K_AVC.mp4	0.0	205.49772310256958	
44	124.49067497253418	movie	1		174.0	42.0	2.5	/experiments/knapen_aot/videos/S_I005_C008_CROP_SDR_2K_AVC.mp4	0.0	205.50580406188965	2.5083799362182617
44	126.99905490875244	fix_post	2		12.0	42.0	2.5	/experiments/knapen_aot/videos/S_I005_C008_CROP_SDR_2K_AVC.mp4	0.0	208.0141839981079	0.09997916221618652
45	127.09903407096863	fix_pre	0		13.0	43.0	2.5	/experiments/knapen_aot/videos/R_S_yt-wEbfIR14zZ8_7.mp4	0.0	208.1141631603241	0.10836386680603027
45	127.19920086860657	response	0	2		43.0	2.5	/experiments/knapen_aot/videos/R_S_yt-wEbfIR14zZ8_7.mp4	0.0	208.21432995796204	
45	127.20739793777466	movie	1		301.0	43.0	2.5	/experiments/knapen_aot/videos/R_S_yt-wEbfIR14zZ8_7.mp4	0.0	208.22252702713013	2.508324146270752
45	129.7157220840454	fix_post	2		12.0	43.0	2.5	/experiments/knapen_aot/videos/R_S_yt-wEbfIR14zZ8_7.mp4	0.0	210.73085117340088	0.10002589225769043
46	129.8157479763031	fix_pre	0		2.0	44.0	2.5	/experiments/knapen_aot/videos/S_video_inspire_uk_edinburgh_arthursseat_010.1080-h264.mp4	0.0	210.83087706565857	0.01789999008178711
46	129.82422399520874	response	0	2		44.0	2.5	/experiments/knapen_aot/videos/S_video_inspire_uk_edinburgh_arthursseat_010.1080-h264.mp4	0.0	210.8393530845642	
46	129.8336479663849	movie	1		169.0	44.0	2.5	/experiments/knapen_aot/videos/S_video_inspire_uk_edinburgh_arthursseat_010.1080-h264.mp4	0.0	210.84877705574036	2.507028102874756
46	132.34067606925964	fix_post	2		12.0	44.0	2.5	/experiments/knapen_aot/videos/S_video_inspire_uk_edinburgh_arthursseat_010.1080-h264.mp4	0.0	213.3558051586151	0.10002398490905762
46	132.40751385688782	response	2	2		44.0	2.5	/experiments/knapen_aot/videos/S_video_inspire_uk_edinburgh_arthursseat_010.1080-h264.mp4	0.0	213.4226429462433	
47	132.4407000541687	fix_pre	0		47.0	45.0	2.5	/experiments/knapen_aot/videos/S_yt-9CY7rDYBYUI_40.mp4	0.0	213.45582914352417	0.3917198181152344
47	132.824147939682	response	0	2		45.0	2.5	/experiments/knapen_aot/videos/S_yt-9CY7rDYBYUI_40.mp4	0.0	213.83927702903748	
47	132.83241987228394	movie	1		301.0	45.0	2.5	/experiments/knapen_aot/videos/S_yt-9CY7rDYBYUI_40.mp4	0.0	213.8475489616394	2.5082740783691406
47	135.34069395065308	fix_post	2		12.0	45.0	2.5	/experiments/knapen_aot/videos/S_yt-9CY7rDYBYUI_40.mp4	0.0	216.35582304000854	0.10006093978881836
48	135.4407548904419	fix_pre	0		17.0	46.0	2.5	/experiments/knapen_aot/videos/S_yt-MSdNCUWOp4o_4.mp4	0.0	216.45588397979736	0.1428241729736328
48	135.57413005828857	response	0	2		46.0	2.5	/experiments/knapen_aot/videos/S_yt-MSdNCUWOp4o_4.mp4	0.0	216.58925914764404	
48	135.58357906341553	movie	1		301.0	46.0	2.5	/experiments/knapen_aot/videos/S_yt-MSdNCUWOp4o_4.mp4	0.0	216.598708152771	2.5071358680725098
48	138.09071493148804	fix_post	2		12.0	46.0	2.5	/experiments/knapen_aot/videos/S_yt-MSdNCUWOp4o_4.mp4	0.0	219.1058440208435	0.09999704360961914
49	138.19071197509766	fix_pre	0		31.0	47.0	2.5	/experiments/knapen_aot/videos/S_yt-8aJDzfAaArQ_75.mp4	0.0	219.20584106445312	0.2583730220794678
49	138.44084286689758	response	0	2		47.0	2.5	/experiments/knapen_aot/videos/S_yt-8aJDzfAaArQ_75.mp4	0.0	219.45597195625305	
49	138.44908499717712	movie	1		300.0	47.0	2.5	/experiments/knapen_aot/videos/S_yt-8aJDzfAaArQ_75.mp4	0.0	219.4642140865326	2.5083260536193848
49	140.9574110507965	fix_post	2		12.0	47.0	2.5	/experiments/knapen_aot/videos/S_yt-8aJDzfAaArQ_75.mp4	0.0	221.97254014015198	0.09996795654296875
50	141.05737900733948	fix_pre	0		17.0	48.0	2.5	/experiments/knapen_aot/videos/R_S_yt-gPhlnZG-pRY_4.mp4	0.0	222.07250809669495	0.1416020393371582
50	141.1907730102539	response	0	2		48.0	2.5	/experiments/knapen_aot/videos/R_S_yt-gPhlnZG-pRY_4.mp4	0.0	222.20590209960938	
50	141.19898104667664	movie	1		301.0	48.0	2.5	/experiments/knapen_aot/videos/R_S_yt-gPhlnZG-pRY_4.mp4	0.0	222.2141101360321	2.508419990539551
50	143.7074010372162	fix_post	2		12.0	48.0	2.5	/experiments/knapen_aot/videos/R_S_yt-gPhlnZG-pRY_4.mp4	0.0	224.72253012657166	0.10001301765441895
51	143.8074140548706	fix_pre	0		28.0	49.0	2.5	blank	1.0	224.82254314422607	0.2333219051361084
51	144.03253602981567	response	0	2		49.0	2.5	blank	1.0	225.04766511917114	
51	144.0407359600067	movie	1		301.0	49.0	2.5	blank	1.0	225.05586504936218	2.5083460807800293
51	146.54908204078674	fix_post	2		12.0	49.0	2.5	blank	1.0	227.5642111301422	0.09998393058776855
52	146.6490659713745	fix_pre	0		44.0	50.0	2.5	/experiments/knapen_aot/videos/S_yt-iO0efV_PV-k_102.mp4	0.0	227.66419506072998	0.3666720390319824
52	147.00752305984497	response	0	2		50.0	2.5	/experiments/knapen_aot/videos/S_yt-iO0efV_PV-k_102.mp4	0.0	228.02265214920044	
52	147.0157380104065	movie	1		301.0	50.0	2.5	/experiments/knapen_aot/videos/S_yt-iO0efV_PV-k_102.mp4	0.0	228.03086709976196	2.5083189010620117
52	149.5240569114685	fix_post	2		11.0	50.0	2.5	/experiments/knapen_aot/videos/S_yt-iO0efV_PV-k_102.mp4	0.0	230.53918600082397	0.09995794296264648
53	149.62401485443115	fix_pre	0		25.0	51.0	2.5	/experiments/knapen_aot/videos/R_S_ILSVRC2015_train_00479001.mp4	0.0	230.63914394378662	0.20941519737243652
53	149.82411885261536	response	0	2		51.0	2.5	/experiments/knapen_aot/videos/R_S_ILSVRC2015_train_00479001.mp4	0.0	230.83924794197083	
53	149.8334300518036	movie	1		301.0	51.0	2.5	/experiments/knapen_aot/videos/R_S_ILSVRC2015_train_00479001.mp4	0.0	230.84855914115906	2.5071890354156494
53	152.34061908721924	fix_post	2		12.0	51.0	2.5	/experiments/knapen_aot/videos/R_S_ILSVRC2015_train_00479001.mp4	0.0	233.3557481765747	0.10002279281616211
54	152.4406418800354	fix_pre	0		29.0	52.0	2.5	/experiments/knapen_aot/videos/S_yt-Q5wYs9vSzlA_30.mp4	0.0	233.45577096939087	0.2416670322418213
54	152.6741418838501	response	0	2		52.0	2.5	/experiments/knapen_aot/videos/S_yt-Q5wYs9vSzlA_30.mp4	0.0	233.68927097320557	
54	152.68230891227722	movie	1		299.0	52.0	2.5	/experiments/knapen_aot/videos/S_yt-Q5wYs9vSzlA_30.mp4	0.0	233.6974380016327	2.508392095565796
54	155.19070100784302	fix_post	2		12.0	52.0	2.5	/experiments/knapen_aot/videos/S_yt-Q5wYs9vSzlA_30.mp4	0.0	236.2058300971985	0.10003805160522461
55	155.29073905944824	fix_pre	0		46.0	53.0	2.5	/experiments/knapen_aot/videos/R_S_yt-V_2XgfjJfeQ_67.mp4	0.0	236.3058681488037	0.3832828998565674
55	155.66582894325256	response	0	2		53.0	2.5	/experiments/knapen_aot/videos/R_S_yt-V_2XgfjJfeQ_67.mp4	0.0	236.68095803260803	
55	155.6740219593048	movie	1		301.0	53.0	2.5	/experiments/knapen_aot/videos/R_S_yt-V_2XgfjJfeQ_67.mp4	0.0	236.68915104866028	2.5083160400390625
55	158.18233799934387	fix_post	2		12.0	53.0	2.5	/experiments/knapen_aot/videos/R_S_yt-V_2XgfjJfeQ_67.mp4	0.0	239.19746708869934	0.10002303123474121
56	158.2823610305786	fix_pre	0		39.0	54.0	2.5	/experiments/knapen_aot/videos/S_ILSVRC2015_train_00165011.mp4	0.0	239.29749011993408	0.32494401931762695
56	158.59911799430847	response	0	2		54.0	2.5	/experiments/knapen_aot/videos/S_ILSVRC2015_train_00165011.mp4	0.0	239.61424708366394	
56	158.60730504989624	movie	1		301.0	54.0	2.5	/experiments/knapen_aot/videos/S_ILSVRC2015_train_00165011.mp4	0.0	239.6224341392517	2.50834584236145
56	161.1156508922577	fix_post	2		12.0	54.0	2.5	/experiments/knapen_aot/videos/S_ILSVRC2015_train_00165011.mp4	0.0	242.13077998161316	0.10001301765441895
57	161.2156639099121	fix_pre	0		20.0	55.0	2.5	blank	1.0	242.23079299926758	0.16668701171875
57	161.3740360736847	response	0	2		55.0	2.5	blank	1.0	242.38916516304016	
57	161.38235092163086	movie	1		301.0	55.0	2.5	blank	1.0	242.39748001098633	2.508307933807373
57	163.89065885543823	fix_post	2		12.0	55.0	2.5	blank	1.0	244.9057879447937	0.09999918937683105
58	163.99065804481506	fix_pre	0		22.0	56.0	2.5	/experiments/knapen_aot/videos/R_S_yt-XF0fyyFEgWo_280.mp4	0.0	245.00578713417053	0.18327689170837402
58	164.1657910346985	response	0	2		56.0	2.5	/experiments/knapen_aot/videos/R_S_yt-XF0fyyFEgWo_280.mp4	0.0	245.18092012405396	
58	164.17393493652344	movie	1		301.0	56.0	2.5	/experiments/knapen_aot/videos/R_S_yt-XF0fyyFEgWo_280.mp4	0.0	245.1890640258789	2.508362054824829
58	166.68229699134827	fix_post	2		12.0	56.0	2.5	/experiments/knapen_aot/videos/R_S_yt-XF0fyyFEgWo_280.mp4	0.0	247.69742608070374	0.10002493858337402
59	166.78232192993164	fix_pre	0		26.0	57.0	2.5	/experiments/knapen_aot/videos/S_yt-PreGL81PEP4_61.mp4	0.0	247.7974510192871	0.21761012077331543
59	166.9907419681549	response	0	2		57.0	2.5	/experiments/knapen_aot/videos/S_yt-PreGL81PEP4_61.mp4	0.0	248.00587105751038	
59	166.99993205070496	movie	1		301.0	57.0	2.5	/experiments/knapen_aot/videos/S_yt-PreGL81PEP4_61.mp4	0.0	248.01506114006042	2.507390022277832
59	169.5073220729828	fix_post	2		12.0	57.0	2.5	/experiments/knapen_aot/videos/S_yt-PreGL81PEP4_61.mp4	0.0	250.52245116233826	0.09996294975280762
60	169.6072850227356	fix_pre	0		23.0	58.0	2.5	/experiments/knapen_aot/videos/R_S_Y011_C008_SDR_2K_AVC.mp4	0.0	250.62241411209106	0.1916658878326416
60	169.79077696800232	response	0	2		58.0	2.5	/experiments/knapen_aot/videos/R_S_Y011_C008_SDR_2K_AVC.mp4	0.0	250.8059060573578	
60	169.79895091056824	movie	1		175.0	58.0	2.5	/experiments/knapen_aot/videos/R_S_Y011_C008_SDR_2K_AVC.mp4	0.0	250.8140799999237	2.508265972137451
60	172.3072168827057	fix_post	2		12.0	58.0	2.5	/experiments/knapen_aot/videos/R_S_Y011_C008_SDR_2K_AVC.mp4	0.0	253.32234597206116	0.09997105598449707
60	172.34078288078308	response	2	2		58.0	2.5	/experiments/knapen_aot/videos/R_S_Y011_C008_SDR_2K_AVC.mp4	0.0	253.35591197013855	
61	172.40718793869019	fix_pre	0		31.0	59.0	2.5	/experiments/knapen_aot/videos/S_comp_1223LV_FLARE_v21_SDR_PS_FINAL_20180709_F0F5700_SDR_2K_AVC.mp4	0.0	253.42231702804565	0.2593660354614258
61	172.6573760509491	response	0	2		59.0	2.5	/experiments/knapen_aot/videos/S_comp_1223LV_FLARE_v21_SDR_PS_FINAL_20180709_F0F5700_SDR_2K_AVC.mp4	0.0	253.67250514030457	
61	172.6665539741516	movie	1		165.0	59.0	2.5	/experiments/knapen_aot/videos/S_comp_1223LV_FLARE_v21_SDR_PS_FINAL_20180709_F0F5700_SDR_2K_AVC.mp4	0.0	253.68168306350708	2.5072929859161377
61	175.17384696006775	fix_post	2		12.0	59.0	2.5	/experiments/knapen_aot/videos/S_comp_1223LV_FLARE_v21_SDR_PS_FINAL_20180709_F0F5700_SDR_2K_AVC.mp4	0.0	256.1889760494232	0.10002803802490234
62	175.27387499809265	fix_pre	0		25.0	60.0	2.5	/experiments/knapen_aot/videos/R_S_yt-vQGD-rJyMw4_166.mp4	0.0	256.2890040874481	0.20830798149108887
62	175.47399806976318	response	0	2		60.0	2.5	/experiments/knapen_aot/videos/R_S_yt-vQGD-rJyMw4_166.mp4	0.0	256.48912715911865	
62	175.48218297958374	movie	1		301.0	60.0	2.5	/experiments/knapen_aot/videos/R_S_yt-vQGD-rJyMw4_166.mp4	0.0	256.4973120689392	2.5083630084991455
62	177.99054598808289	fix_post	2		12.0	60.0	2.5	/experiments/knapen_aot/videos/R_S_yt-vQGD-rJyMw4_166.mp4	0.0	259.00567507743835	0.09999203681945801
63	178.09053802490234	fix_pre	0		25.0	61.0	2.5	/experiments/knapen_aot/videos/R_S_pexels-mikhail-nilov-8410063.mp4	0.0	259.1056671142578	0.20830702781677246
63	178.29072785377502	response	0	2		61.0	2.5	/experiments/knapen_aot/videos/R_S_pexels-mikhail-nilov-8410063.mp4	0.0	259.3058569431305	
63	178.29884505271912	movie	1		165.0	61.0	2.5	/experiments/knapen_aot/videos/R_S_pexels-mikhail-nilov-8410063.mp4	0.0	259.3139741420746	2.508368968963623
63	180.80721402168274	fix_post	2		12.0	61.0	2.5	/experiments/knapen_aot/videos/R_S_pexels-mikhail-nilov-8410063.mp4	0.0	261.8223431110382	0.09998202323913574
64	180.90719604492188	fix_pre	0		21.0	62.0	2.5	blank	1.0	261.92232513427734	0.17497992515563965
64	181.07395887374878	response	0	2		62.0	2.5	blank	1.0	262.08908796310425	
64	181.08217597007751	movie	1		301.0	62.0	2.5	blank	1.0	262.097305059433	2.5083510875701904
64	183.5905270576477	fix_post	2		12.0	62.0	2.5	blank	1.0	264.6056561470032	0.09999680519104004
65	183.69052386283875	fix_pre	0		48.0	63.0	2.5	/experiments/knapen_aot/videos/S_yt-7Z6Kmp0n7L8_145.mp4	0.0	264.7056529521942	0.39995622634887695
65	184.0822949409485	response	0	2		63.0	2.5	/experiments/knapen_aot/videos/S_yt-7Z6Kmp0n7L8_145.mp4	0.0	265.09742403030396	
65	184.09048008918762	movie	1		300.0	63.0	2.5	/experiments/knapen_aot/videos/S_yt-7Z6Kmp0n7L8_145.mp4	0.0	265.1056091785431	2.5083718299865723
65	186.5988519191742	fix_post	2		12.0	63.0	2.5	/experiments/knapen_aot/videos/S_yt-7Z6Kmp0n7L8_145.mp4	0.0	267.61398100852966	0.0999910831451416
66	186.69884300231934	fix_pre	0		36.0	64.0	2.5	/experiments/knapen_aot/videos/R_S_m-aeoYPMqfg_185.mp4	0.0	267.7139720916748	0.3009219169616699
66	186.99065685272217	response	0	2		64.0	2.5	/experiments/knapen_aot/videos/R_S_m-aeoYPMqfg_185.mp4	0.0	268.00578594207764	
66	186.999764919281	movie	1		301.0	64.0	2.5	/experiments/knapen_aot/videos/R_S_m-aeoYPMqfg_185.mp4	0.0	268.0148940086365	2.5074269771575928
66	189.5071918964386	fix_post	2		12.0	64.0	2.5	/experiments/knapen_aot/videos/R_S_m-aeoYPMqfg_185.mp4	0.0	270.52232098579407	0.10001397132873535
67	189.60720586776733	fix_pre	0		11.0	65.0	2.5	/experiments/knapen_aot/videos/R_S_production_ID_3709168.mp4	0.0	270.6223349571228	0.09154105186462402
67	189.690612077713	response	0	2		65.0	2.5	/experiments/knapen_aot/videos/R_S_production_ID_3709168.mp4	0.0	270.7057411670685	
67	189.69874691963196	movie	1		195.0	65.0	2.5	/experiments/knapen_aot/videos/R_S_production_ID_3709168.mp4	0.0	270.7138760089874	2.508415937423706
67	192.20716285705566	fix_post	2		12.0	65.0	2.5	/experiments/knapen_aot/videos/R_S_production_ID_3709168.mp4	0.0	273.22229194641113	0.10004520416259766
68	192.30720806121826	fix_pre	0		9.0	66.0	2.5	/experiments/knapen_aot/videos/S_yt-lazG9z4VQAw_99.mp4	0.0	273.32233715057373	0.07495880126953125
68	192.36637496948242	response	0	2		66.0	2.5	/experiments/knapen_aot/videos/S_yt-lazG9z4VQAw_99.mp4	0.0	273.3815040588379	
68	192.3821668624878	movie	1		301.0	66.0	2.5	/experiments/knapen_aot/videos/S_yt-lazG9z4VQAw_99.mp4	0.0	273.39729595184326	2.5082712173461914
68	194.89043807983398	fix_post	2		12.0	66.0	2.5	/experiments/knapen_aot/videos/S_yt-lazG9z4VQAw_99.mp4	0.0	275.90556716918945	0.10004782676696777
69	194.99048590660095	fix_pre	0		48.0	67.0	2.5	/experiments/knapen_aot/videos/S_yt-aSEKRE_FNaI_62.mp4	0.0	276.0056149959564	0.3999600410461426
69	195.38227605819702	response	0	2		67.0	2.5	/experiments/knapen_aot/videos/S_yt-aSEKRE_FNaI_62.mp4	0.0	276.3974051475525	
69	195.3904459476471	movie	1		301.0	67.0	2.5	/experiments/knapen_aot/videos/S_yt-aSEKRE_FNaI_62.mp4	0.0	276.40557503700256	2.508307933807373
69	197.89875388145447	fix_post	2		12.0	67.0	2.5	/experiments/knapen_aot/videos/S_yt-aSEKRE_FNaI_62.mp4	0.0	278.91388297080994	0.09995412826538086
70	197.99870800971985	fix_pre	0		23.0	68.0	2.5	/experiments/knapen_aot/videos/S_yt-JGKdBO2Ldzo_93.mp4	0.0	279.0138370990753	0.19172000885009766
70	198.18217587471008	response	0	2		68.0	2.5	/experiments/knapen_aot/videos/S_yt-JGKdBO2Ldzo_93.mp4	0.0	279.19730496406555	
70	198.19042801856995	movie	1		301.0	68.0	2.5	/experiments/knapen_aot/videos/S_yt-JGKdBO2Ldzo_93.mp4	0.0	279.2055571079254	2.508363962173462
70	200.6987919807434	fix_post	2		12.0	68.0	2.5	/experiments/knapen_aot/videos/S_yt-JGKdBO2Ldzo_93.mp4	0.0	281.7139210700989	0.09993600845336914
71	200.79872798919678	fix_pre	0		24.0	69.0	2.5	/experiments/knapen_aot/videos/S_yt-i4kSCZ8rNC0_11.mp4	0.0	281.81385707855225	0.20099687576293945
71	200.99055790901184	response	0	2		69.0	2.5	/experiments/knapen_aot/videos/S_yt-i4kSCZ8rNC0_11.mp4	0.0	282.0056869983673	
71	200.99972486495972	movie	1		301.0	69.0	2.5	/experiments/knapen_aot/videos/S_yt-i4kSCZ8rNC0_11.mp4	0.0	282.0148539543152	2.5074729919433594
71	203.50719785690308	fix_post	2		12.0	69.0	2.5	/experiments/knapen_aot/videos/S_yt-i4kSCZ8rNC0_11.mp4	0.0	284.52232694625854	0.09993720054626465
72	203.60713505744934	fix_pre	0		37.0	70.0	2.5	blank	1.0	284.6222641468048	0.3092329502105713
72	203.90731501579285	response	0	2		70.0	2.5	blank	1.0	284.9224441051483	
72	203.9163680076599	movie	1		301.0	70.0	2.5	blank	1.0	284.9314970970154	2.507446050643921
72	206.42381405830383	fix_post	2		12.0	70.0	2.5	blank	1.0	287.4389431476593	0.10001492500305176
73	206.52382898330688	fix_pre	0		46.0	71.0	2.5	/experiments/knapen_aot/videos/R_S_yt-kkbtZP78JxQ_96.mp4	0.0	287.53895807266235	0.38321590423583984
73	206.89886093139648	response	0	2		71.0	2.5	/experiments/knapen_aot/videos/R_S_yt-kkbtZP78JxQ_96.mp4	0.0	287.91399002075195	
73	206.90704488754272	movie	1		300.0	71.0	2.5	/experiments/knapen_aot/videos/R_S_yt-kkbtZP78JxQ_96.mp4	0.0	287.9221739768982	2.5083820819854736
73	209.4154269695282	fix_post	2		12.0	71.0	2.5	/experiments/knapen_aot/videos/R_S_yt-kkbtZP78JxQ_96.mp4	0.0	290.43055605888367	0.1001749038696289
74	209.51560187339783	fix_pre	0		3.0	72.0	2.5	/experiments/knapen_aot/videos/S_yt-vQGD-rJyMw4_166.mp4	0.0	290.5307309627533	0.026076078414916992
74	209.52475094795227	response	0	2		72.0	2.5	/experiments/knapen_aot/videos/S_yt-vQGD-rJyMw4_166.mp4	0.0	290.53988003730774	
74	209.54167795181274	movie	1		301.0	72.0	2.5	/experiments/knapen_aot/videos/S_yt-vQGD-rJyMw4_166.mp4	0.0	290.5568070411682	2.507098913192749
74	212.0487768650055	fix_post	2		12.0	72.0	2.5	/experiments/knapen_aot/videos/S_yt-vQGD-rJyMw4_166.mp4	0.0	293.06390595436096	0.10000300407409668
75	212.1487798690796	fix_pre	0		10.0	73.0	2.5	/experiments/knapen_aot/videos/S_wc-ZZxbTv7oc5DQ_10.mp4	0.0	293.16390895843506	0.08330512046813965
75	212.22391486167908	response	0	2		73.0	2.5	/experiments/knapen_aot/videos/S_wc-ZZxbTv7oc5DQ_10.mp4	0.0	293.23904395103455	
75	212.23208498954773	movie	1		164.0	73.0	2.5	/experiments/knapen_aot/videos/S_wc-ZZxbTv7oc5DQ_10.mp4	0.0	293.2472140789032	2.5084149837493896
75	214.74049997329712	fix_post	2		12.0	73.0	2.5	/experiments/knapen_aot/videos/S_wc-ZZxbTv7oc5DQ_10.mp4	0.0	295.7556290626526	0.09997200965881348
76	214.84047198295593	fix_pre	0		23.0	74.0	2.5	/experiments/knapen_aot/videos/S_yt-etF_WUW5D68_3.mp4	0.0	295.8556010723114	0.19164299964904785
76	215.02387404441833	response	0	2		74.0	2.5	/experiments/knapen_aot/videos/S_yt-etF_WUW5D68_3.mp4	0.0	296.0390031337738	
76	215.03211498260498	movie	1		298.0	74.0	2.5	/experiments/knapen_aot/videos/S_yt-etF_WUW5D68_3.mp4	0.0	296.04724407196045	2.5083200931549072
76	217.5404350757599	fix_post	2		12.0	74.0	2.5	/experiments/knapen_aot/videos/S_yt-etF_WUW5D68_3.mp4	0.0	298.55556416511536	0.09988093376159668
77	217.64031600952148	fix_pre	0		34.0	75.0	2.5	/experiments/knapen_aot/videos/S_yt-hHdxZ26SImA_17.mp4	0.0	298.65544509887695	0.2833518981933594
77	217.91551995277405	response	0	2		75.0	2.5	/experiments/knapen_aot/videos/S_yt-hHdxZ26SImA_17.mp4	0.0	298.9306490421295	
77	217.92366790771484	movie	1		301.0	75.0	2.5	/experiments/knapen_aot/videos/S_yt-hHdxZ26SImA_17.mp4	0.0	298.9387969970703	2.5083930492401123
77	220.43206095695496	fix_post	2		12.0	75.0	2.5	/experiments/knapen_aot/videos/S_yt-hHdxZ26SImA_17.mp4	0.0	301.4471900463104	0.10002899169921875
78	220.53208994865417	fix_pre	0		20.0	76.0	2.5	/experiments/knapen_aot/videos/S_production_ID_5144823.mp4	0.0	301.54721903800964	0.16655397415161133
78	220.69052505493164	response	0	2		76.0	2.5	/experiments/knapen_aot/videos/S_production_ID_5144823.mp4	0.0	301.7056541442871	
78	220.6986439228058	movie	1		164.0	76.0	2.5	/experiments/knapen_aot/videos/S_production_ID_5144823.mp4	0.0	301.71377301216125	2.5083529949188232
78	223.2069969177246	fix_post	2		12.0	76.0	2.5	/experiments/knapen_aot/videos/S_production_ID_5144823.mp4	0.0	304.2221260070801	0.09996509552001953
79	223.30696201324463	fix_pre	0		34.0	77.0	2.5	blank	1.0	304.3220911026001	0.2834360599517822
79	223.58208298683167	response	0	2		77.0	2.5	blank	1.0	304.59721207618713	
79	223.5903980731964	movie	1		301.0	77.0	2.5	blank	1.0	304.6055271625519	2.5082828998565674
79	226.09868097305298	fix_post	2		12.0	77.0	2.5	blank	1.0	307.11381006240845	0.1000819206237793
80	226.19876289367676	fix_pre	0		58.0	78.0	2.5	/experiments/knapen_aot/videos/R_S_yt-_68FWLGgPYE_25.mp4	0.0	307.2138919830322	0.48320698738098145
80	226.67383694648743	response	0	2		78.0	2.5	/experiments/knapen_aot/videos/R_S_yt-_68FWLGgPYE_25.mp4	0.0	307.6889660358429	
80	226.68196988105774	movie	1		301.0	78.0	2.5	/experiments/knapen_aot/videos/R_S_yt-_68FWLGgPYE_25.mp4	0.0	307.6970989704132	2.5083651542663574
80	229.1903350353241	fix_post	2		12.0	78.0	2.5	/experiments/knapen_aot/videos/R_S_yt-_68FWLGgPYE_25.mp4	0.0	310.20546412467957	0.1000068187713623
81	229.29034185409546	fix_pre	0		24.0	79.0	2.5	/experiments/knapen_aot/videos/R_S_production_ID_4820868.mp4	0.0	310.3054709434509	0.1999502182006836
81	229.48214507102966	response	0	2		79.0	2.5	/experiments/knapen_aot/videos/R_S_production_ID_4820868.mp4	0.0	310.49727416038513	
81	229.49029207229614	movie	1		171.0	79.0	2.5	/experiments/knapen_aot/videos/R_S_production_ID_4820868.mp4	0.0	310.5054211616516	2.5083329677581787
81	231.99862504005432	fix_post	2		12.0	79.0	2.5	/experiments/knapen_aot/videos/R_S_production_ID_4820868.mp4	0.0	313.0137541294098	0.10010981559753418
82	232.09873485565186	fix_pre	0		13.0	80.0	2.5	/experiments/knapen_aot/videos/S_yt-Dlk44AGz-xM_37.mp4	0.0	313.1138639450073	0.10894513130187988
82	232.1986939907074	response	0	2		80.0	2.5	/experiments/knapen_aot/videos/S_yt-Dlk44AGz-xM_37.mp4	0.0	313.21382308006287	
82	232.20767998695374	movie	1		301.0	80.0	2.5	/experiments/knapen_aot/videos/S_yt-Dlk44AGz-xM_37.mp4	0.0	313.2228090763092	2.5076189041137695
82	234.7152988910675	fix_post	2		12.0	80.0	2.5	/experiments/knapen_aot/videos/S_yt-Dlk44AGz-xM_37.mp4	0.0	315.730427980423	0.09992814064025879
83	234.81522703170776	fix_pre	0		30.0	81.0	2.5	/experiments/knapen_aot/videos/R_S_yt-8aJDzfAaArQ_75.mp4	0.0	315.83035612106323	0.25011491775512695
83	235.05717301368713	response	0	2		81.0	2.5	/experiments/knapen_aot/videos/R_S_yt-8aJDzfAaArQ_75.mp4	0.0	316.0723021030426	
83	235.0653419494629	movie	1		301.0	81.0	2.5	/experiments/knapen_aot/videos/R_S_yt-8aJDzfAaArQ_75.mp4	0.0	316.08047103881836	2.508316993713379
83	237.2070689201355	response	1	2		81.0	2.5	/experiments/knapen_aot/videos/R_S_yt-8aJDzfAaArQ_75.mp4	0.0	318.22219800949097	
83	237.57365894317627	fix_post	2		12.0	81.0	2.5	/experiments/knapen_aot/videos/R_S_yt-8aJDzfAaArQ_75.mp4	0.0	318.58878803253174	0.09994912147521973
84	237.6736080646515	fix_pre	0		22.0	82.0	2.5	/experiments/knapen_aot/videos/R_S_Y005_C003_SDR_2K_AVC.mp4	0.0	318.68873715400696	0.18329691886901855
84	237.8487570285797	response	0	2		82.0	2.5	/experiments/knapen_aot/videos/R_S_Y005_C003_SDR_2K_AVC.mp4	0.0	318.8638861179352	
84	237.8569049835205	movie	1		169.0	82.0	2.5	/experiments/knapen_aot/videos/R_S_Y005_C003_SDR_2K_AVC.mp4	0.0	318.872034072876	2.508388042449951
84	240.36529302597046	fix_post	2		12.0	82.0	2.5	/experiments/knapen_aot/videos/R_S_Y005_C003_SDR_2K_AVC.mp4	0.0	321.3804221153259	0.10001683235168457
85	240.46530985832214	fix_pre	0		26.0	83.0	2.5	blank	1.0	321.4804389476776	0.21658706665039062
85	240.67371797561646	response	0	2		83.0	2.5	blank	1.0	321.6888470649719	
85	240.68189692497253	movie	1		301.0	83.0	2.5	blank	1.0	321.697026014328	2.5083670616149902
85	243.19026398658752	fix_post	2		12.0	83.0	2.5	blank	1.0	324.205393075943	0.1006779670715332
87	243.29094195365906	stim	0		187.0					324.3060710430145	1.5576660633087158
87	243.4819779396057	response	0	2						324.4971070289612	
87	244.8429470062256	response	0	space						325.85807609558105	
