trial_nr	onset	event_type	phase	response	nr_frames	movie_index	movie_duration	movie_file	blank	onset_abs	duration
0	0.15957903861999512	stim	0		47.0					108.62103414535522	0.4095728397369385
0	0.5571110248565674	response	0	space						109.0185661315918	
1	0.5691518783569336	stim	0		121.0					109.03060698509216	1.0040271282196045
1	1.016221046447754	response	0	space						109.47767615318298	
1	1.573179006576538	stim	1		120.0					110.03463411331177	1.0000278949737549
1	1.5741150379180908	response	1	space						110.03557014465332	
1	1.8899519443511963	response	1	space						110.35140705108643	
1	2.4241158962249756	response	1	space						110.8855710029602	
2	2.573206901550293	fix_pre	0		22.0	0.0	2.5	/experiments/knapen_aot/oldvideos/S_yt-9pUeQix6EW8_7.mp4	0.0	111.03466200828552	0.1832871437072754
2	2.74824595451355	response	0	space		0.0	2.5	/experiments/knapen_aot/oldvideos/S_yt-9pUeQix6EW8_7.mp4	0.0	111.20970106124878	
2	2.7564940452575684	movie	1		298.0	0.0	2.5	/experiments/knapen_aot/oldvideos/S_yt-9pUeQix6EW8_7.mp4	0.0	111.2179491519928	2.5083258152008057
2	2.904025077819824	response	1	2		0.0	2.5	/experiments/knapen_aot/oldvideos/S_yt-9pUeQix6EW8_7.mp4	0.0	111.36548018455505	
2	5.264819860458374	fix_post	2		12.0	0.0	2.5	/experiments/knapen_aot/oldvideos/S_yt-9pUeQix6EW8_7.mp4	0.0	113.7262749671936	0.09998917579650879
3	5.364809036254883	fix_pre	0		6.0	1.0	2.5	/experiments/knapen_aot/oldvideos/R_S_ILSVRC2015_train_00042002.mp4	0.0	113.82626414299011	0.051260948181152344
3	5.406632900238037	response	0	2		1.0	2.5	/experiments/knapen_aot/oldvideos/R_S_ILSVRC2015_train_00042002.mp4	0.0	113.86808800697327	
3	5.416069984436035	movie	1		301.0	1.0	2.5	/experiments/knapen_aot/oldvideos/R_S_ILSVRC2015_train_00042002.mp4	0.0	113.87752509117126	2.5071229934692383
3	7.923192977905273	fix_post	2		12.0	1.0	2.5	/experiments/knapen_aot/oldvideos/R_S_ILSVRC2015_train_00042002.mp4	0.0	116.3846480846405	0.09989404678344727
4	8.02308702468872	fix_pre	0		35.0	2.0	2.5	/experiments/knapen_aot/oldvideos/S_comp_A007_C017_01156B_v02_SDR_PS_20180925_SDR_2K_AVC.mp4	0.0	116.48454213142395	0.2917330265045166
4	8.306627035140991	response	0	2		2.0	2.5	/experiments/knapen_aot/oldvideos/S_comp_A007_C017_01156B_v02_SDR_PS_20180925_SDR_2K_AVC.mp4	0.0	116.76808214187622	
4	8.314820051193237	movie	1		161.0	2.0	2.5	/experiments/knapen_aot/oldvideos/S_comp_A007_C017_01156B_v02_SDR_PS_20180925_SDR_2K_AVC.mp4	0.0	116.77627515792847	2.5083158016204834
4	10.82313585281372	fix_post	2		12.0	2.0	2.5	/experiments/knapen_aot/oldvideos/S_comp_A007_C017_01156B_v02_SDR_PS_20180925_SDR_2K_AVC.mp4	0.0	119.28459095954895	0.10004711151123047
5	10.923182964324951	fix_pre	0		10.0	3.0	2.5	/experiments/knapen_aot/oldvideos/S_yt-cgwHIb9LAFc_336.mp4	0.0	119.38463807106018	0.08327388763427734
5	10.998229026794434	response	0	2		3.0	2.5	/experiments/knapen_aot/oldvideos/S_yt-cgwHIb9LAFc_336.mp4	0.0	119.45968413352966	
5	11.006456851959229	movie	1		301.0	3.0	2.5	/experiments/knapen_aot/oldvideos/S_yt-cgwHIb9LAFc_336.mp4	0.0	119.46791195869446	2.5082950592041016
5	13.51475191116333	fix_post	2		12.0	3.0	2.5	/experiments/knapen_aot/oldvideos/S_yt-cgwHIb9LAFc_336.mp4	0.0	121.97620701789856	0.10004210472106934
5	13.598182916641235	response	2	2		3.0	2.5	/experiments/knapen_aot/oldvideos/S_yt-cgwHIb9LAFc_336.mp4	0.0	122.05963802337646	
6	13.6147940158844	fix_pre	0		50.0	4.0	2.5	/experiments/knapen_aot/oldvideos/R_S_yt-BiBS8EO5GPc_4.mp4	0.0	122.07624912261963	0.4167299270629883
6	14.023202896118164	response	0	2		4.0	2.5	/experiments/knapen_aot/oldvideos/R_S_yt-BiBS8EO5GPc_4.mp4	0.0	122.4846580028534	
6	14.031523942947388	movie	1		301.0	4.0	2.5	/experiments/knapen_aot/oldvideos/R_S_yt-BiBS8EO5GPc_4.mp4	0.0	122.49297904968262	2.508242130279541
6	16.53976607322693	fix_post	2		12.0	4.0	2.5	/experiments/knapen_aot/oldvideos/R_S_yt-BiBS8EO5GPc_4.mp4	0.0	125.00122117996216	0.09994792938232422
7	16.639714002609253	fix_pre	0		13.0	5.0	2.5	/experiments/knapen_aot/oldvideos/R_S_DV6V38rplag_215.mp4	0.0	125.10116910934448	0.10950493812561035
7	16.739842891693115	response	0	4		5.0	2.5	/experiments/knapen_aot/oldvideos/R_S_DV6V38rplag_215.mp4	0.0	125.20129799842834	
7	16.749218940734863	movie	1		301.0	5.0	2.5	/experiments/knapen_aot/oldvideos/R_S_DV6V38rplag_215.mp4	0.0	125.21067404747009	2.5071380138397217
7	19.256356954574585	fix_post	2		12.0	5.0	2.5	/experiments/knapen_aot/oldvideos/R_S_DV6V38rplag_215.mp4	0.0	127.71781206130981	0.10007500648498535
8	19.35643196105957	fix_pre	0		46.0	6.0	2.5	blank	1.0	127.8178870677948	0.38333892822265625
8	19.72402596473694	response	0	4		6.0	2.5	blank	1.0	128.18548107147217	
8	19.739770889282227	movie	1		301.0	6.0	2.5	blank	1.0	128.20122599601746	2.508424997329712
8	22.24819588661194	fix_post	2		12.0	6.0	2.5	blank	1.0	130.70965099334717	0.09986209869384766
9	22.348057985305786	fix_pre	0		18.0	7.0	2.5	/experiments/knapen_aot/oldvideos/R_S_ILSVRC2015_train_00569004.mp4	0.0	130.80951309204102	0.15108609199523926
9	22.489893913269043	response	0	4		7.0	2.5	/experiments/knapen_aot/oldvideos/R_S_ILSVRC2015_train_00569004.mp4	0.0	130.95134902000427	
9	22.499144077301025	movie	1		301.0	7.0	2.5	/experiments/knapen_aot/oldvideos/R_S_ILSVRC2015_train_00569004.mp4	0.0	130.96059918403625	2.5072059631347656
9	25.00635004043579	fix_post	2		12.0	7.0	2.5	/experiments/knapen_aot/oldvideos/R_S_ILSVRC2015_train_00569004.mp4	0.0	133.46780514717102	0.10002398490905762
10	25.10637402534485	fix_pre	0		16.0	8.0	2.5	/experiments/knapen_aot/oldvideos/R_S_yt-8LO59eN9om4_16.mp4	0.0	133.56782913208008	0.13334202766418457
10	25.231488943099976	response	0	4		8.0	2.5	/experiments/knapen_aot/oldvideos/R_S_yt-8LO59eN9om4_16.mp4	0.0	133.6929440498352	
10	25.239716053009033	movie	1		301.0	8.0	2.5	/experiments/knapen_aot/oldvideos/R_S_yt-8LO59eN9om4_16.mp4	0.0	133.70117115974426	2.508509874343872
10	27.748225927352905	fix_post	2		12.0	8.0	2.5	/experiments/knapen_aot/oldvideos/R_S_yt-8LO59eN9om4_16.mp4	0.0	136.20968103408813	0.09991002082824707
11	27.848135948181152	fix_pre	0		17.0	9.0	2.5	/experiments/knapen_aot/oldvideos/S_g201_WH_D004_L014_SDR_20191031_SDR_2K_AVC.mp4	0.0	136.30959105491638	0.14153003692626953
11	27.98151397705078	response	0	4		9.0	2.5	/experiments/knapen_aot/oldvideos/S_g201_WH_D004_L014_SDR_20191031_SDR_2K_AVC.mp4	0.0	136.442969083786	
11	27.989665985107422	movie	1		181.0	9.0	2.5	/experiments/knapen_aot/oldvideos/S_g201_WH_D004_L014_SDR_20191031_SDR_2K_AVC.mp4	0.0	136.45112109184265	2.5083298683166504
11	30.497995853424072	fix_post	2		12.0	9.0	2.5	/experiments/knapen_aot/oldvideos/S_g201_WH_D004_L014_SDR_20191031_SDR_2K_AVC.mp4	0.0	138.9594509601593	0.09996700286865234
12	30.597962856292725	fix_pre	0		13.0	10.0	2.5	/experiments/knapen_aot/oldvideos/R_S_yt-LB9LoYfH_EA_15.mp4	0.0	139.05941796302795	0.1094660758972168
12	30.698118925094604	response	0	4		10.0	2.5	/experiments/knapen_aot/oldvideos/R_S_yt-LB9LoYfH_EA_15.mp4	0.0	139.15957403182983	
12	30.70742893218994	movie	1		301.0	10.0	2.5	/experiments/knapen_aot/oldvideos/R_S_yt-LB9LoYfH_EA_15.mp4	0.0	139.16888403892517	2.507206916809082
12	33.21463584899902	fix_post	2		12.0	10.0	2.5	/experiments/knapen_aot/oldvideos/R_S_yt-LB9LoYfH_EA_15.mp4	0.0	141.67609095573425	0.10011601448059082
13	33.314751863479614	fix_pre	0		6.0	11.0	2.5	/experiments/knapen_aot/oldvideos/S_ILSVRC2015_train_00074011.mp4	0.0	141.77620697021484	0.04986000061035156
13	33.35651206970215	response	0	4		11.0	2.5	/experiments/knapen_aot/oldvideos/S_ILSVRC2015_train_00074011.mp4	0.0	141.81796717643738	
13	33.364611864089966	movie	1		301.0	11.0	2.5	/experiments/knapen_aot/oldvideos/S_ILSVRC2015_train_00074011.mp4	0.0	141.8260669708252	2.50835919380188
13	35.872971057891846	fix_post	2		12.0	11.0	2.5	/experiments/knapen_aot/oldvideos/S_ILSVRC2015_train_00074011.mp4	0.0	144.33442616462708	0.1000359058380127
14	35.97300696372986	fix_pre	0		29.0	12.0	2.5	/experiments/knapen_aot/oldvideos/S_yt-cokedWwwYYs_136.mp4	0.0	144.4344620704651	0.24164700508117676
14	36.20638084411621	response	0	4		12.0	2.5	/experiments/knapen_aot/oldvideos/S_yt-cokedWwwYYs_136.mp4	0.0	144.66783595085144	
14	36.214653968811035	movie	1		301.0	12.0	2.5	/experiments/knapen_aot/oldvideos/S_yt-cokedWwwYYs_136.mp4	0.0	144.67610907554626	2.508342981338501
14	38.722996950149536	fix_post	2		12.0	12.0	2.5	/experiments/knapen_aot/oldvideos/S_yt-cokedWwwYYs_136.mp4	0.0	147.18445205688477	0.09990096092224121
15	38.82289791107178	fix_pre	0		15.0	13.0	2.5	blank	1.0	147.284353017807	0.12508010864257812
15	38.93208694458008	response	0	4		13.0	2.5	blank	1.0	147.3935420513153	
15	38.947978019714355	movie	1		301.0	13.0	2.5	blank	1.0	147.40943312644958	2.5083329677581787
15	41.456310987472534	fix_post	2		12.0	13.0	2.5	blank	1.0	149.91776609420776	0.10000085830688477
16	41.55631184577942	fix_pre	0		18.0	14.0	2.5	/experiments/knapen_aot/oldvideos/R_S_yt-xNKgc8sFYvU_35.mp4	0.0	150.01776695251465	0.15106511116027832
16	41.69796395301819	response	0	4		14.0	2.5	/experiments/knapen_aot/oldvideos/R_S_yt-xNKgc8sFYvU_35.mp4	0.0	150.15941905975342	
16	41.7073769569397	movie	1		301.0	14.0	2.5	/experiments/knapen_aot/oldvideos/R_S_yt-xNKgc8sFYvU_35.mp4	0.0	150.16883206367493	2.5071909427642822
16	44.21456789970398	fix_post	2		12.0	14.0	2.5	/experiments/knapen_aot/oldvideos/R_S_yt-xNKgc8sFYvU_35.mp4	0.0	152.6760230064392	0.1000220775604248
17	44.314589977264404	fix_pre	0		10.0	15.0	2.5	/experiments/knapen_aot/oldvideos/S_yt-M8wvzt_BMXM_173.mp4	0.0	152.77604508399963	0.08330202102661133
17	44.3896279335022	response	0	4		15.0	2.5	/experiments/knapen_aot/oldvideos/S_yt-M8wvzt_BMXM_173.mp4	0.0	152.85108304023743	
17	44.397891998291016	movie	1		301.0	15.0	2.5	/experiments/knapen_aot/oldvideos/S_yt-M8wvzt_BMXM_173.mp4	0.0	152.85934710502625	2.508470058441162
17	46.90636205673218	fix_post	2		12.0	15.0	2.5	/experiments/knapen_aot/oldvideos/S_yt-M8wvzt_BMXM_173.mp4	0.0	155.3678171634674	0.09985589981079102
18	47.00621795654297	fix_pre	0		16.0	16.0	2.5	/experiments/knapen_aot/oldvideos/R_S_bing-www_yahoo_com_entertainment_anastasia-karanikolaou-chantel-jeffries-discuss-182400502_html_9.mp4	0.0	155.4676730632782	0.13338398933410645
18	47.131381034851074	response	0	4		16.0	2.5	/experiments/knapen_aot/oldvideos/R_S_bing-www_yahoo_com_entertainment_anastasia-karanikolaou-chantel-jeffries-discuss-182400502_html_9.mp4	0.0	155.5928361415863	
18	47.139601945877075	movie	1		162.0	16.0	2.5	/experiments/knapen_aot/oldvideos/R_S_bing-www_yahoo_com_entertainment_anastasia-karanikolaou-chantel-jeffries-discuss-182400502_html_9.mp4	0.0	155.6010570526123	2.508373975753784
18	49.64797592163086	fix_post	2		12.0	16.0	2.5	/experiments/knapen_aot/oldvideos/R_S_bing-www_yahoo_com_entertainment_anastasia-karanikolaou-chantel-jeffries-discuss-182400502_html_9.mp4	0.0	158.1094310283661	0.09985995292663574
19	49.747835874557495	fix_pre	0		1.0	17.0	2.5	/experiments/knapen_aot/oldvideos/S_yt-f9iXELY0EJ0_344.mp4	0.0	158.20929098129272	0.008399009704589844
19	49.749552965164185	response	0	4		17.0	2.5	/experiments/knapen_aot/oldvideos/S_yt-f9iXELY0EJ0_344.mp4	0.0	158.2110080718994	
19	49.756234884262085	movie	1		301.0	17.0	2.5	/experiments/knapen_aot/oldvideos/S_yt-f9iXELY0EJ0_344.mp4	0.0	158.21768999099731	2.5083630084991455
19	52.26459789276123	fix_post	2		12.0	17.0	2.5	/experiments/knapen_aot/oldvideos/S_yt-f9iXELY0EJ0_344.mp4	0.0	160.72605299949646	0.09997701644897461
20	52.364574909210205	fix_pre	0		9.0	18.0	2.5	/experiments/knapen_aot/oldvideos/S_wc-b4Oquu3WQPRz_45.mp4	0.0	160.82603001594543	0.0748910903930664
20	52.4238018989563	response	0	4		18.0	2.5	/experiments/knapen_aot/oldvideos/S_wc-b4Oquu3WQPRz_45.mp4	0.0	160.88525700569153	
20	52.43946599960327	movie	1		164.0	18.0	2.5	/experiments/knapen_aot/oldvideos/S_wc-b4Oquu3WQPRz_45.mp4	0.0	160.9009211063385	2.5084428787231445
20	54.947908878326416	fix_post	2		12.0	18.0	2.5	/experiments/knapen_aot/oldvideos/S_wc-b4Oquu3WQPRz_45.mp4	0.0	163.40936398506165	0.09998416900634766
21	55.047893047332764	fix_pre	0		3.0	19.0	2.5	/experiments/knapen_aot/oldvideos/R_S_Pz_NXxhQCJc_70.mp4	0.0	163.509348154068	0.02496480941772461
21	55.06467795372009	response	0	4		19.0	2.5	/experiments/knapen_aot/oldvideos/R_S_Pz_NXxhQCJc_70.mp4	0.0	163.52613306045532	
21	55.07285785675049	movie	1		301.0	19.0	2.5	/experiments/knapen_aot/oldvideos/R_S_Pz_NXxhQCJc_70.mp4	0.0	163.53431296348572	2.508327007293701
21	57.58118486404419	fix_post	2		12.0	19.0	2.5	/experiments/knapen_aot/oldvideos/R_S_Pz_NXxhQCJc_70.mp4	0.0	166.04263997077942	0.09998512268066406
22	57.68116998672485	fix_pre	0		9.0	20.0	2.5	blank	1.0	166.14262509346008	0.07502293586730957
22	57.74793601036072	response	0	4		20.0	2.5	blank	1.0	166.20939111709595	
22	57.75619292259216	movie	1		301.0	20.0	2.5	blank	1.0	166.2176480293274	2.5084140300750732
22	60.264606952667236	fix_post	2		12.0	20.0	2.5	blank	1.0	168.72606205940247	0.0999300479888916
23	60.36453700065613	fix_pre	0		16.0	21.0	2.5	/experiments/knapen_aot/oldvideos/S_yt-R9Iabv0XgOQ_80.mp4	0.0	168.82599210739136	0.134307861328125
23	60.48959493637085	response	0	4		21.0	2.5	/experiments/knapen_aot/oldvideos/S_yt-R9Iabv0XgOQ_80.mp4	0.0	168.95105004310608	
23	60.49884486198425	movie	1		301.0	21.0	2.5	/experiments/knapen_aot/oldvideos/S_yt-R9Iabv0XgOQ_80.mp4	0.0	168.96029996871948	2.5073511600494385
23	63.00619602203369	fix_post	2		12.0	21.0	2.5	/experiments/knapen_aot/oldvideos/S_yt-R9Iabv0XgOQ_80.mp4	0.0	171.46765112876892	0.10006499290466309
24	63.106261014938354	fix_pre	0		11.0	22.0	2.5	/experiments/knapen_aot/oldvideos/S_yt-y3tyx6cZjmA_412.mp4	0.0	171.56771612167358	0.09994387626647949
24	63.189614057540894	response	0	2		22.0	2.5	/experiments/knapen_aot/oldvideos/S_yt-y3tyx6cZjmA_412.mp4	0.0	171.65106916427612	
24	63.206204891204834	movie	1		300.0	22.0	2.5	/experiments/knapen_aot/oldvideos/S_yt-y3tyx6cZjmA_412.mp4	0.0	171.66765999794006	2.499927043914795
24	65.70613193511963	fix_post	2		12.0	22.0	2.5	/experiments/knapen_aot/oldvideos/S_yt-y3tyx6cZjmA_412.mp4	0.0	174.16758704185486	0.09997892379760742
25	65.80611085891724	fix_pre	0		19.0	23.0	2.5	/experiments/knapen_aot/oldvideos/R_S_yt-MhW2fU45JK8_544.mp4	0.0	174.26756596565247	0.15829706192016602
25	65.95623898506165	response	0	2		23.0	2.5	/experiments/knapen_aot/oldvideos/R_S_yt-MhW2fU45JK8_544.mp4	0.0	174.41769409179688	
25	65.9644079208374	movie	1		301.0	23.0	2.5	/experiments/knapen_aot/oldvideos/R_S_yt-MhW2fU45JK8_544.mp4	0.0	174.42586302757263	2.508345127105713
25	68.47275304794312	fix_post	2		12.0	23.0	2.5	/experiments/knapen_aot/oldvideos/R_S_yt-MhW2fU45JK8_544.mp4	0.0	176.93420815467834	0.09999799728393555
26	68.57275104522705	fix_pre	0		9.0	24.0	2.5	/experiments/knapen_aot/oldvideos/R_S_yt-9mWz93En7Gw_97.mp4	0.0	177.03420615196228	0.07500791549682617
26	68.63962697982788	response	0	2		24.0	2.5	/experiments/knapen_aot/oldvideos/R_S_yt-9mWz93En7Gw_97.mp4	0.0	177.1010820865631	
26	68.64775896072388	movie	1		301.0	24.0	2.5	/experiments/knapen_aot/oldvideos/R_S_yt-9mWz93En7Gw_97.mp4	0.0	177.1092140674591	2.508378028869629
26	71.1561369895935	fix_post	2		12.0	24.0	2.5	/experiments/knapen_aot/oldvideos/R_S_yt-9mWz93En7Gw_97.mp4	0.0	179.61759209632874	0.0999150276184082
27	71.25605201721191	fix_pre	0		17.0	25.0	2.5	/experiments/knapen_aot/oldvideos/R_S_yt-dQRqGgpS9mE_288.mp4	0.0	179.71750712394714	0.14168691635131836
27	71.3896689414978	response	0	2		25.0	2.5	/experiments/knapen_aot/oldvideos/R_S_yt-dQRqGgpS9mE_288.mp4	0.0	179.85112404823303	
27	71.39773893356323	movie	1		301.0	25.0	2.5	/experiments/knapen_aot/oldvideos/R_S_yt-dQRqGgpS9mE_288.mp4	0.0	179.85919404029846	2.5083389282226562
27	73.90607786178589	fix_post	2		12.0	25.0	2.5	/experiments/knapen_aot/oldvideos/R_S_yt-dQRqGgpS9mE_288.mp4	0.0	182.36753296852112	0.09995102882385254
28	74.00602889060974	fix_pre	0		18.0	26.0	2.5	/experiments/knapen_aot/oldvideos/S_wc-b4Oquu3WQPRz_45.mp4	0.0	182.46748399734497	0.14997410774230957
28	74.14786887168884	response	0	2		26.0	2.5	/experiments/knapen_aot/oldvideos/S_wc-b4Oquu3WQPRz_45.mp4	0.0	182.60932397842407	
28	74.15600299835205	movie	1		160.0	26.0	2.5	/experiments/knapen_aot/oldvideos/S_wc-b4Oquu3WQPRz_45.mp4	0.0	182.61745810508728	2.508368968963623
28	76.66437196731567	fix_post	2		12.0	26.0	2.5	/experiments/knapen_aot/oldvideos/S_wc-b4Oquu3WQPRz_45.mp4	0.0	185.1258270740509	0.10005497932434082
29	76.76442694664001	fix_pre	0		20.0	27.0	2.5	/experiments/knapen_aot/oldvideos/S_production_ID_4510883.mp4	0.0	185.22588205337524	0.16660189628601074
29	76.92280697822571	response	0	2		27.0	2.5	/experiments/knapen_aot/oldvideos/S_production_ID_4510883.mp4	0.0	185.38426208496094	
29	76.93102884292603	movie	1		163.0	27.0	2.5	/experiments/knapen_aot/oldvideos/S_production_ID_4510883.mp4	0.0	185.39248394966125	2.50835919380188
29	79.4393880367279	fix_post	2		12.0	27.0	2.5	/experiments/knapen_aot/oldvideos/S_production_ID_4510883.mp4	0.0	187.90084314346313	0.09997701644897461
30	79.53936505317688	fix_pre	0		27.0	28.0	2.5	blank	1.0	188.0008201599121	0.22501301765441895
30	79.75614285469055	response	0	2		28.0	2.5	blank	1.0	188.21759796142578	
30	79.7643780708313	movie	1		301.0	28.0	2.5	blank	1.0	188.22583317756653	2.5082578659057617
30	82.27263593673706	fix_post	2		12.0	28.0	2.5	blank	1.0	190.7340910434723	0.10088491439819336
31	82.37352085113525	fix_pre	0		22.0	29.0	2.5	/experiments/knapen_aot/oldvideos/R_S_yt-GLK6LniTOK0_69.mp4	0.0	190.83497595787048	0.18245601654052734
31	82.5402410030365	response	0	2		29.0	2.5	/experiments/knapen_aot/oldvideos/R_S_yt-GLK6LniTOK0_69.mp4	0.0	191.00169610977173	
31	82.55597686767578	movie	1		301.0	29.0	2.5	/experiments/knapen_aot/oldvideos/R_S_yt-GLK6LniTOK0_69.mp4	0.0	191.017431974411	2.5082380771636963
31	85.06421494483948	fix_post	2		12.0	29.0	2.5	/experiments/knapen_aot/oldvideos/R_S_yt-GLK6LniTOK0_69.mp4	0.0	193.5256700515747	0.10011601448059082
32	85.16433095932007	fix_pre	0		23.0	30.0	2.5	/experiments/knapen_aot/oldvideos/S_bing-www_nbcnews_com_storyline_isis-terror_fall-isis-stronghold-raqqa-will-change-war-extremists-not-end-n808621_86.mp4	0.0	193.6257860660553	0.19156408309936523
32	85.34770798683167	response	0	2		30.0	2.5	/experiments/knapen_aot/oldvideos/S_bing-www_nbcnews_com_storyline_isis-terror_fall-isis-stronghold-raqqa-will-change-war-extremists-not-end-n808621_86.mp4	0.0	193.8091630935669	
32	85.35589504241943	movie	1		162.0	30.0	2.5	/experiments/knapen_aot/oldvideos/S_bing-www_nbcnews_com_storyline_isis-terror_fall-isis-stronghold-raqqa-will-change-war-extremists-not-end-n808621_86.mp4	0.0	193.81735014915466	2.508448839187622
32	87.86434388160706	fix_post	2		12.0	30.0	2.5	/experiments/knapen_aot/oldvideos/S_bing-www_nbcnews_com_storyline_isis-terror_fall-isis-stronghold-raqqa-will-change-war-extremists-not-end-n808621_86.mp4	0.0	196.32579898834229	0.10001516342163086
33	87.96435904502869	fix_pre	0		11.0	31.0	2.5	/experiments/knapen_aot/oldvideos/R_S_pexels-cottonbro-9063801_1.mp4	0.0	196.42581415176392	0.09156990051269531
33	88.04776191711426	response	0	2		31.0	2.5	/experiments/knapen_aot/oldvideos/R_S_pexels-cottonbro-9063801_1.mp4	0.0	196.5092170238495	
33	88.05592894554138	movie	1		201.0	31.0	2.5	/experiments/knapen_aot/oldvideos/R_S_pexels-cottonbro-9063801_1.mp4	0.0	196.5173840522766	2.5083489418029785
33	90.56427788734436	fix_post	2		12.0	31.0	2.5	/experiments/knapen_aot/oldvideos/R_S_pexels-cottonbro-9063801_1.mp4	0.0	199.0257329940796	0.10000801086425781
34	90.66428589820862	fix_pre	0		4.0	32.0	2.5	/experiments/knapen_aot/oldvideos/R_S_yt-BqJHT4K7Qf8_127.mp4	0.0	199.12574100494385	0.0332951545715332
34	90.68243503570557	response	0	2		32.0	2.5	/experiments/knapen_aot/oldvideos/R_S_yt-BqJHT4K7Qf8_127.mp4	0.0	199.1438901424408	
34	90.69758105278015	movie	1		301.0	32.0	2.5	/experiments/knapen_aot/oldvideos/R_S_yt-BqJHT4K7Qf8_127.mp4	0.0	199.15903615951538	2.5083889961242676
34	93.20597004890442	fix_post	2		12.0	32.0	2.5	/experiments/knapen_aot/oldvideos/R_S_yt-BqJHT4K7Qf8_127.mp4	0.0	201.66742515563965	0.09996700286865234
35	93.30593705177307	fix_pre	0		11.0	33.0	2.5	blank	1.0	201.7673921585083	0.09168100357055664
35	93.38930296897888	response	0	2		33.0	2.5	blank	1.0	201.8507580757141	
35	93.39761805534363	movie	1		301.0	33.0	2.5	blank	1.0	201.85907316207886	2.508358955383301
35	95.90597701072693	fix_post	2		12.0	33.0	2.5	blank	1.0	204.36743211746216	0.09996986389160156
36	96.00594687461853	fix_pre	0		23.0	34.0	2.5	/experiments/knapen_aot/oldvideos/R_S_production_ID_4510883.mp4	0.0	204.46740198135376	0.19163107872009277
36	96.18934488296509	response	0	2		34.0	2.5	/experiments/knapen_aot/oldvideos/R_S_production_ID_4510883.mp4	0.0	204.65079998970032	
36	96.19757795333862	movie	1		175.0	34.0	2.5	/experiments/knapen_aot/oldvideos/R_S_production_ID_4510883.mp4	0.0	204.65903306007385	2.508347988128662
36	98.70592594146729	fix_post	2		12.0	34.0	2.5	/experiments/knapen_aot/oldvideos/R_S_production_ID_4510883.mp4	0.0	207.16738104820251	0.10001611709594727
37	98.80594205856323	fix_pre	0		17.0	35.0	2.5	/experiments/knapen_aot/oldvideos/S_yt-cgwHIb9LAFc_336.mp4	0.0	207.26739716529846	0.14160799980163574
37	98.93936491012573	response	0	2		35.0	2.5	/experiments/knapen_aot/oldvideos/S_yt-cgwHIb9LAFc_336.mp4	0.0	207.40082001686096	
37	98.94755005836487	movie	1		301.0	35.0	2.5	/experiments/knapen_aot/oldvideos/S_yt-cgwHIb9LAFc_336.mp4	0.0	207.4090051651001	2.508253812789917
37	101.45580387115479	fix_post	2		12.0	35.0	2.5	/experiments/knapen_aot/oldvideos/S_yt-cgwHIb9LAFc_336.mp4	0.0	209.91725897789001	0.10013103485107422
38	101.55593490600586	fix_pre	0		5.0	36.0	2.5	/experiments/knapen_aot/oldvideos/S_yt-LYnwnfi1JJ4_120.mp4	0.0	210.0173900127411	0.041732072830200195
38	101.58941197395325	response	0	2		36.0	2.5	/experiments/knapen_aot/oldvideos/S_yt-LYnwnfi1JJ4_120.mp4	0.0	210.05086708068848	
38	101.59766697883606	movie	1		301.0	36.0	2.5	/experiments/knapen_aot/oldvideos/S_yt-LYnwnfi1JJ4_120.mp4	0.0	210.0591220855713	2.508246898651123
38	104.10591387748718	fix_post	2		12.0	36.0	2.5	/experiments/knapen_aot/oldvideos/S_yt-LYnwnfi1JJ4_120.mp4	0.0	212.5673689842224	0.1000370979309082
39	104.20595097541809	fix_pre	0		4.0	37.0	2.5	/experiments/knapen_aot/oldvideos/R_S_ILSVRC2015_train_00411001.mp4	0.0	212.66740608215332	0.033286094665527344
39	104.23106002807617	response	0	2		37.0	2.5	/experiments/knapen_aot/oldvideos/R_S_ILSVRC2015_train_00411001.mp4	0.0	212.6925151348114	
39	104.23923707008362	movie	1		301.0	37.0	2.5	/experiments/knapen_aot/oldvideos/R_S_ILSVRC2015_train_00411001.mp4	0.0	212.70069217681885	2.5083038806915283
39	106.74754095077515	fix_post	2		12.0	37.0	2.5	/experiments/knapen_aot/oldvideos/R_S_ILSVRC2015_train_00411001.mp4	0.0	215.20899605751038	0.09994196891784668
40	106.847482919693	fix_pre	0		5.0	38.0	2.5	/experiments/knapen_aot/oldvideos/S_yt-i4kSCZ8rNC0_11.mp4	0.0	215.30893802642822	0.04172396659851074
40	106.88105893135071	response	0	2		38.0	2.5	/experiments/knapen_aot/oldvideos/S_yt-i4kSCZ8rNC0_11.mp4	0.0	215.34251403808594	
40	106.8892068862915	movie	1		301.0	38.0	2.5	/experiments/knapen_aot/oldvideos/S_yt-i4kSCZ8rNC0_11.mp4	0.0	215.35066199302673	2.5083401203155518
40	109.39754700660706	fix_post	2		12.0	38.0	2.5	/experiments/knapen_aot/oldvideos/S_yt-i4kSCZ8rNC0_11.mp4	0.0	217.85900211334229	0.10065197944641113
41	109.49819898605347	fix_pre	0		7.0	39.0	2.5	/experiments/knapen_aot/oldvideos/S_Pz_NXxhQCJc_70.mp4	0.0	217.9596540927887	0.05758094787597656
41	109.54763388633728	response	0	2		39.0	2.5	/experiments/knapen_aot/oldvideos/S_Pz_NXxhQCJc_70.mp4	0.0	218.0090889930725	
41	109.55577993392944	movie	1		301.0	39.0	2.5	/experiments/knapen_aot/oldvideos/S_Pz_NXxhQCJc_70.mp4	0.0	218.01723504066467	2.5083611011505127
41	112.06414103507996	fix_post	2		12.0	39.0	2.5	/experiments/knapen_aot/oldvideos/S_Pz_NXxhQCJc_70.mp4	0.0	220.52559614181519	0.09997200965881348
42	112.16411304473877	fix_pre	0		6.0	40.0	2.5	blank	1.0	220.625568151474	0.04997992515563965
42	112.20592784881592	response	0	2		40.0	2.5	blank	1.0	220.66738295555115	
42	112.21409296989441	movie	1		301.0	40.0	2.5	blank	1.0	220.67554807662964	2.508344888687134
42	114.72243785858154	fix_post	2		12.0	40.0	2.5	blank	1.0	223.18389296531677	0.10000300407409668
43	114.82244086265564	fix_pre	0		20.0	41.0	2.5	/experiments/knapen_aot/oldvideos/S_yt-W00vtWnXgIk_73.mp4	0.0	223.28389596939087	0.1666731834411621
43	114.98080897331238	response	0	2		41.0	2.5	/experiments/knapen_aot/oldvideos/S_yt-W00vtWnXgIk_73.mp4	0.0	223.4422640800476	
43	114.9891140460968	movie	1		301.0	41.0	2.5	/experiments/knapen_aot/oldvideos/S_yt-W00vtWnXgIk_73.mp4	0.0	223.45056915283203	2.5083060264587402
43	117.49742007255554	fix_post	2		12.0	41.0	2.5	/experiments/knapen_aot/oldvideos/S_yt-W00vtWnXgIk_73.mp4	0.0	225.95887517929077	0.1000359058380127
44	117.59745597839355	fix_pre	0		12.0	42.0	2.5	/experiments/knapen_aot/oldvideos/R_S_video_inspire_texas_pecos_foggy-landscape_00018.1080-h264.mp4	0.0	226.05891108512878	0.09990906715393066
44	117.68167495727539	response	0	2		42.0	2.5	/experiments/knapen_aot/oldvideos/R_S_video_inspire_texas_pecos_foggy-landscape_00018.1080-h264.mp4	0.0	226.14313006401062	
44	117.69736504554749	movie	1		173.0	42.0	2.5	/experiments/knapen_aot/oldvideos/R_S_video_inspire_texas_pecos_foggy-landscape_00018.1080-h264.mp4	0.0	226.15882015228271	2.5082919597625732
44	120.20565700531006	fix_post	2		12.0	42.0	2.5	/experiments/knapen_aot/oldvideos/R_S_video_inspire_texas_pecos_foggy-landscape_00018.1080-h264.mp4	0.0	228.6671121120453	0.1000678539276123
45	120.30572485923767	fix_pre	0		8.0	43.0	2.5	/experiments/knapen_aot/oldvideos/S_yt-STL3ejY9u_Q_73.mp4	0.0	228.7671799659729	0.06726908683776855
45	120.36423587799072	response	0	2		43.0	2.5	/experiments/knapen_aot/oldvideos/S_yt-STL3ejY9u_Q_73.mp4	0.0	228.82569098472595	
45	120.37299394607544	movie	1		301.0	43.0	2.5	/experiments/knapen_aot/oldvideos/S_yt-STL3ejY9u_Q_73.mp4	0.0	228.83444905281067	2.5076661109924316
45	122.88066005706787	fix_post	2		12.0	43.0	2.5	/experiments/knapen_aot/oldvideos/S_yt-STL3ejY9u_Q_73.mp4	0.0	231.3421151638031	0.10003995895385742
46	122.98070001602173	fix_pre	0		28.0	44.0	2.5	/experiments/knapen_aot/oldvideos/S_ILSVRC2015_train_00524001.mp4	0.0	231.44215512275696	0.23332691192626953
46	123.20583391189575	response	0	2		44.0	2.5	/experiments/knapen_aot/oldvideos/S_ILSVRC2015_train_00524001.mp4	0.0	231.66728901863098	
46	123.214026927948	movie	1		301.0	44.0	2.5	/experiments/knapen_aot/oldvideos/S_ILSVRC2015_train_00524001.mp4	0.0	231.67548203468323	2.5082991123199463
46	125.72232604026794	fix_post	2		12.0	44.0	2.5	/experiments/knapen_aot/oldvideos/S_ILSVRC2015_train_00524001.mp4	0.0	234.18378114700317	0.10003399848937988
47	125.82236003875732	fix_pre	0		30.0	45.0	2.5	/experiments/knapen_aot/oldvideos/S_yt-b7bIulV49DQ_81.mp4	0.0	234.28381514549255	0.25000786781311035
47	126.0566520690918	response	0	2		45.0	2.5	/experiments/knapen_aot/oldvideos/S_yt-b7bIulV49DQ_81.mp4	0.0	234.51810717582703	
47	126.07236790657043	movie	1		301.0	45.0	2.5	/experiments/knapen_aot/oldvideos/S_yt-b7bIulV49DQ_81.mp4	0.0	234.53382301330566	2.5083110332489014
47	128.58067893981934	fix_post	2		12.0	45.0	2.5	/experiments/knapen_aot/oldvideos/S_yt-b7bIulV49DQ_81.mp4	0.0	237.04213404655457	0.09996795654296875
48	128.6806468963623	fix_pre	0		22.0	46.0	2.5	/experiments/knapen_aot/oldvideos/S_MEX_A006_C008_SDR_20190923_SDR_2K_AVC.mp4	0.0	237.14210200309753	0.18332815170288086
48	128.8557789325714	response	0	2		46.0	2.5	/experiments/knapen_aot/oldvideos/S_MEX_A006_C008_SDR_20190923_SDR_2K_AVC.mp4	0.0	237.31723403930664	
48	128.86397504806519	movie	1		168.0	46.0	2.5	/experiments/knapen_aot/oldvideos/S_MEX_A006_C008_SDR_20190923_SDR_2K_AVC.mp4	0.0	237.32543015480042	2.5083467960357666
48	131.37232184410095	fix_post	2		12.0	46.0	2.5	/experiments/knapen_aot/oldvideos/S_MEX_A006_C008_SDR_20190923_SDR_2K_AVC.mp4	0.0	239.83377695083618	0.10002708435058594
49	131.47234892845154	fix_pre	0		6.0	47.0	2.5	/experiments/knapen_aot/oldvideos/S_yt-fk-z6WCvjjA_3.mp4	0.0	239.93380403518677	0.04995012283325195
49	131.51406407356262	response	0	2		47.0	2.5	/experiments/knapen_aot/oldvideos/S_yt-fk-z6WCvjjA_3.mp4	0.0	239.97551918029785	
49	131.5222990512848	movie	1		301.0	47.0	2.5	/experiments/knapen_aot/oldvideos/S_yt-fk-z6WCvjjA_3.mp4	0.0	239.98375415802002	2.5083088874816895
49	134.03060793876648	fix_post	2		12.0	47.0	2.5	/experiments/knapen_aot/oldvideos/S_yt-fk-z6WCvjjA_3.mp4	0.0	242.4920630455017	0.10001492500305176
50	134.13062286376953	fix_pre	0		18.0	48.0	2.5	blank	1.0	242.59207797050476	0.14991402626037598
50	134.27233695983887	response	0	2		48.0	2.5	blank	1.0	242.7337920665741	
50	134.2805368900299	movie	1		301.0	48.0	2.5	blank	1.0	242.74199199676514	2.5084290504455566
50	136.78896594047546	fix_post	2		12.0	48.0	2.5	blank	1.0	245.2504210472107	0.09996891021728516
51	136.88893485069275	fix_pre	0		25.0	49.0	2.5	/experiments/knapen_aot/oldvideos/R_S_ILSVRC2015_train_00697001.mp4	0.0	245.35038995742798	0.20831918716430664
51	137.08904695510864	response	0	2		49.0	2.5	/experiments/knapen_aot/oldvideos/R_S_ILSVRC2015_train_00697001.mp4	0.0	245.55050206184387	
51	137.09725403785706	movie	1		301.0	49.0	2.5	/experiments/knapen_aot/oldvideos/R_S_ILSVRC2015_train_00697001.mp4	0.0	245.55870914459229	2.508384943008423
51	139.60563898086548	fix_post	2		12.0	49.0	2.5	/experiments/knapen_aot/oldvideos/R_S_ILSVRC2015_train_00697001.mp4	0.0	248.0670940876007	0.1005399227142334
52	139.7061789035797	fix_pre	0		7.0	50.0	2.5	/experiments/knapen_aot/oldvideos/S_ILSVRC2015_train_00521000.mp4	0.0	248.16763401031494	0.057749032974243164
52	139.75583386421204	response	0	2		50.0	2.5	/experiments/knapen_aot/oldvideos/S_ILSVRC2015_train_00521000.mp4	0.0	248.21728897094727	
52	139.76392793655396	movie	1		301.0	50.0	2.5	/experiments/knapen_aot/oldvideos/S_ILSVRC2015_train_00521000.mp4	0.0	248.22538304328918	2.5083439350128174
52	142.27227187156677	fix_post	2		12.0	50.0	2.5	/experiments/knapen_aot/oldvideos/S_ILSVRC2015_train_00521000.mp4	0.0	250.733726978302	0.10003519058227539
53	142.37230706214905	fix_pre	0		23.0	51.0	2.5	/experiments/knapen_aot/oldvideos/S_yt-g_CLzrCYHoc_7.mp4	0.0	250.83376216888428	0.19157886505126953
53	142.5557460784912	response	0	2		51.0	2.5	/experiments/knapen_aot/oldvideos/S_yt-g_CLzrCYHoc_7.mp4	0.0	251.01720118522644	
53	142.56388592720032	movie	1		301.0	51.0	2.5	/experiments/knapen_aot/oldvideos/S_yt-g_CLzrCYHoc_7.mp4	0.0	251.02534103393555	2.508355140686035
53	145.07224106788635	fix_post	2		12.0	51.0	2.5	/experiments/knapen_aot/oldvideos/S_yt-g_CLzrCYHoc_7.mp4	0.0	253.53369617462158	0.10001182556152344
54	145.17225289344788	fix_pre	0		19.0	52.0	2.5	/experiments/knapen_aot/oldvideos/S_ILSVRC2015_train_00323000.mp4	0.0	253.6337080001831	0.15885210037231445
54	145.32240104675293	response	0	2		52.0	2.5	/experiments/knapen_aot/oldvideos/S_ILSVRC2015_train_00323000.mp4	0.0	253.78385615348816	
54	145.3311049938202	movie	1		301.0	52.0	2.5	/experiments/knapen_aot/oldvideos/S_ILSVRC2015_train_00323000.mp4	0.0	253.79256010055542	2.5077550411224365
54	147.83886003494263	fix_post	2		12.0	52.0	2.5	/experiments/knapen_aot/oldvideos/S_ILSVRC2015_train_00323000.mp4	0.0	256.30031514167786	0.10004782676696777
55	147.9389078617096	fix_pre	0		27.0	53.0	2.5	/experiments/knapen_aot/oldvideos/S_yt-7K5X1G7Cpls_965.mp4	0.0	256.4003629684448	0.22557520866394043
55	148.15566396713257	response	0	2		53.0	2.5	/experiments/knapen_aot/oldvideos/S_yt-7K5X1G7Cpls_965.mp4	0.0	256.6171190738678	
55	148.16448307037354	movie	1		301.0	53.0	2.5	/experiments/knapen_aot/oldvideos/S_yt-7K5X1G7Cpls_965.mp4	0.0	256.62593817710876	2.5077438354492188
55	150.67222690582275	fix_post	2		12.0	53.0	2.5	/experiments/knapen_aot/oldvideos/S_yt-7K5X1G7Cpls_965.mp4	0.0	259.133682012558	0.09997105598449707
56	150.77219796180725	fix_pre	0		16.0	54.0	2.5	/experiments/knapen_aot/oldvideos/R_S_yt-VfASxEzDrvc_145.mp4	0.0	259.2336530685425	0.13333392143249512
56	150.8973569869995	response	0	2		54.0	2.5	/experiments/knapen_aot/oldvideos/R_S_yt-VfASxEzDrvc_145.mp4	0.0	259.35881209373474	
56	150.90553188323975	movie	1		301.0	54.0	2.5	/experiments/knapen_aot/oldvideos/R_S_yt-VfASxEzDrvc_145.mp4	0.0	259.366986989975	2.5083351135253906
56	153.41386699676514	fix_post	2		12.0	54.0	2.5	/experiments/knapen_aot/oldvideos/R_S_yt-VfASxEzDrvc_145.mp4	0.0	261.87532210350037	0.10001087188720703
57	153.51387786865234	fix_pre	0		16.0	55.0	2.5	/experiments/knapen_aot/oldvideos/R_S_yt-Ja7d2a6e5xE_279.mp4	0.0	261.9753329753876	0.13332319259643555
57	153.6390459537506	response	0	2		55.0	2.5	/experiments/knapen_aot/oldvideos/R_S_yt-Ja7d2a6e5xE_279.mp4	0.0	262.10050106048584	
57	153.64720106124878	movie	1		301.0	55.0	2.5	/experiments/knapen_aot/oldvideos/R_S_yt-Ja7d2a6e5xE_279.mp4	0.0	262.108656167984	2.508392810821533
57	156.1555938720703	fix_post	2		12.0	55.0	2.5	/experiments/knapen_aot/oldvideos/R_S_yt-Ja7d2a6e5xE_279.mp4	0.0	264.61704897880554	0.0999441146850586
58	156.25553798675537	fix_pre	0		5.0	56.0	2.5	blank	1.0	264.7169930934906	0.04165291786193848
58	156.2889358997345	response	0	2		56.0	2.5	blank	1.0	264.7503910064697	
58	156.2971909046173	movie	1		301.0	56.0	2.5	blank	1.0	264.75864601135254	2.50829815864563
58	158.80548906326294	fix_post	2		12.0	56.0	2.5	blank	1.0	267.26694416999817	0.10000896453857422
59	158.9054980278015	fix_pre	0		32.0	57.0	2.5	/experiments/knapen_aot/oldvideos/S_yt-BiBS8EO5GPc_4.mp4	0.0	267.36695313453674	0.2666318416595459
59	159.16403603553772	response	0	2		57.0	2.5	/experiments/knapen_aot/oldvideos/S_yt-BiBS8EO5GPc_4.mp4	0.0	267.62549114227295	
59	159.17212986946106	movie	1		301.0	57.0	2.5	/experiments/knapen_aot/oldvideos/S_yt-BiBS8EO5GPc_4.mp4	0.0	267.6335849761963	2.508303165435791
59	161.68043303489685	fix_post	2		12.0	57.0	2.5	/experiments/knapen_aot/oldvideos/S_yt-BiBS8EO5GPc_4.mp4	0.0	270.1418881416321	0.10000395774841309
60	161.78043699264526	fix_pre	0		3.0	58.0	2.5	/experiments/knapen_aot/oldvideos/S_yt-XRQ_LSGGr3Y_712.mp4	0.0	270.2418920993805	0.02497386932373047
60	161.7973129749298	response	0	2		58.0	2.5	/experiments/knapen_aot/oldvideos/S_yt-XRQ_LSGGr3Y_712.mp4	0.0	270.25876808166504	
60	161.805410861969	movie	1		301.0	58.0	2.5	/experiments/knapen_aot/oldvideos/S_yt-XRQ_LSGGr3Y_712.mp4	0.0	270.2668659687042	2.5082809925079346
60	164.31369185447693	fix_post	2		11.0	58.0	2.5	/experiments/knapen_aot/oldvideos/S_yt-XRQ_LSGGr3Y_712.mp4	0.0	272.77514696121216	0.09373211860656738
60	164.39723992347717	response	2	2		58.0	2.5	/experiments/knapen_aot/oldvideos/S_yt-XRQ_LSGGr3Y_712.mp4	0.0	272.8586950302124	
61	164.4074239730835	fix_pre	0		52.0	59.0	2.5	/experiments/knapen_aot/oldvideos/R_S_flickr-lamujuri-10653517683_4.mp4	0.0	272.8688790798187	0.43129897117614746
61	164.8304660320282	response	0	2		59.0	2.5	/experiments/knapen_aot/oldvideos/R_S_flickr-lamujuri-10653517683_4.mp4	0.0	273.2919211387634	
61	164.83872294425964	movie	1		185.0	59.0	2.5	/experiments/knapen_aot/oldvideos/R_S_flickr-lamujuri-10653517683_4.mp4	0.0	273.3001780509949	2.508392095565796
61	167.34711503982544	fix_post	2		12.0	59.0	2.5	/experiments/knapen_aot/oldvideos/R_S_flickr-lamujuri-10653517683_4.mp4	0.0	275.80857014656067	0.09997987747192383
61	167.37225699424744	response	2	2		59.0	2.5	/experiments/knapen_aot/oldvideos/R_S_flickr-lamujuri-10653517683_4.mp4	0.0	275.83371210098267	
62	167.44709491729736	fix_pre	0		35.0	60.0	2.5	/experiments/knapen_aot/oldvideos/R_S_yt-83nimFMNhrM_131.mp4	0.0	275.9085500240326	0.2916269302368164
62	167.7305200099945	response	0	2		60.0	2.5	/experiments/knapen_aot/oldvideos/R_S_yt-83nimFMNhrM_131.mp4	0.0	276.19197511672974	
62	167.73872184753418	movie	1		301.0	60.0	2.5	/experiments/knapen_aot/oldvideos/R_S_yt-83nimFMNhrM_131.mp4	0.0	276.2001769542694	2.508333206176758
62	170.24705505371094	fix_post	2		12.0	60.0	2.5	/experiments/knapen_aot/oldvideos/R_S_yt-83nimFMNhrM_131.mp4	0.0	278.70851016044617	0.09996795654296875
63	170.3470230102539	fix_pre	0		14.0	61.0	2.5	/experiments/knapen_aot/oldvideos/S_yt-OrTpetjDNKs_31.mp4	0.0	278.80847811698914	0.11668705940246582
63	170.45543599128723	response	0	2		61.0	2.5	/experiments/knapen_aot/oldvideos/S_yt-OrTpetjDNKs_31.mp4	0.0	278.91689109802246	
63	170.46371006965637	movie	1		301.0	61.0	2.5	/experiments/knapen_aot/oldvideos/S_yt-OrTpetjDNKs_31.mp4	0.0	278.9251651763916	2.5083658695220947
63	172.97207593917847	fix_post	2		12.0	61.0	2.5	/experiments/knapen_aot/oldvideos/S_yt-OrTpetjDNKs_31.mp4	0.0	281.4335310459137	0.09995198249816895
64	173.07202792167664	fix_pre	0		15.0	62.0	2.5	/experiments/knapen_aot/oldvideos/S_production_ID_4154238.mp4	0.0	281.53348302841187	0.12500500679016113
64	173.18882989883423	response	0	2		62.0	2.5	/experiments/knapen_aot/oldvideos/S_production_ID_4154238.mp4	0.0	281.65028500556946	
64	173.1970329284668	movie	1		200.0	62.0	2.5	/experiments/knapen_aot/oldvideos/S_production_ID_4154238.mp4	0.0	281.658488035202	2.508307933807373
64	175.70534086227417	fix_post	2		12.0	62.0	2.5	/experiments/knapen_aot/oldvideos/S_production_ID_4154238.mp4	0.0	284.1667959690094	0.10001301765441895
65	175.8053538799286	fix_pre	0		804.0	63.0	2.5	blank	1.0	284.2668089866638	6.699902057647705
65	182.49715089797974	response	0	2		63.0	2.5	blank	1.0	290.95860600471497	
65	182.5052559375763	movie	1		301.0	63.0	2.5	blank	1.0	290.9667110443115	2.508342981338501
65	185.0135989189148	fix_post	2		12.0	63.0	2.5	blank	1.0	293.47505402565	0.1000051498413086
66	185.1136040687561	fix_pre	0		25.0	64.0	2.5	/experiments/knapen_aot/oldvideos/R_S_yt-savE5_jePKQ_25.mp4	0.0	293.57505917549133	0.2083299160003662
66	185.31366991996765	response	0	2		64.0	2.5	/experiments/knapen_aot/oldvideos/R_S_yt-savE5_jePKQ_25.mp4	0.0	293.7751250267029	
66	185.32193398475647	movie	1		301.0	64.0	2.5	/experiments/knapen_aot/oldvideos/R_S_yt-savE5_jePKQ_25.mp4	0.0	293.7833890914917	2.508336067199707
66	187.26374101638794	response	1	2		64.0	2.5	/experiments/knapen_aot/oldvideos/R_S_yt-savE5_jePKQ_25.mp4	0.0	295.72519612312317	
66	187.58067393302917	response	1	2		64.0	2.5	/experiments/knapen_aot/oldvideos/R_S_yt-savE5_jePKQ_25.mp4	0.0	296.0421290397644	
66	187.83027005195618	fix_post	2		12.0	64.0	2.5	/experiments/knapen_aot/oldvideos/R_S_yt-savE5_jePKQ_25.mp4	0.0	296.2917251586914	0.09998297691345215
67	187.93025302886963	fix_pre	0		26.0	65.0	2.5	/experiments/knapen_aot/oldvideos/R_S_SE_A016_C009_SDR_20190717_SDR_2K_AVC.mp4	0.0	296.39170813560486	0.21663594245910645
67	188.13870191574097	response	0	2		65.0	2.5	/experiments/knapen_aot/oldvideos/R_S_SE_A016_C009_SDR_20190717_SDR_2K_AVC.mp4	0.0	296.6001570224762	
67	188.14688897132874	movie	1		173.0	65.0	2.5	/experiments/knapen_aot/oldvideos/R_S_SE_A016_C009_SDR_20190717_SDR_2K_AVC.mp4	0.0	296.60834407806396	2.508281946182251
67	190.655170917511	fix_post	2		12.0	65.0	2.5	/experiments/knapen_aot/oldvideos/R_S_SE_A016_C009_SDR_20190717_SDR_2K_AVC.mp4	0.0	299.1166260242462	0.10005712509155273
68	190.75522804260254	fix_pre	0		11.0	66.0	2.5	/experiments/knapen_aot/oldvideos/S_comp_H005_C012_PS_v01_SDR_PS_20180925_SDR_2K_AVC.mp4	0.0	299.21668314933777	0.09163689613342285
68	190.8386709690094	response	0	2		66.0	2.5	/experiments/knapen_aot/oldvideos/S_comp_H005_C012_PS_v01_SDR_PS_20180925_SDR_2K_AVC.mp4	0.0	299.30012607574463	
68	190.84686493873596	movie	1		180.0	66.0	2.5	/experiments/knapen_aot/oldvideos/S_comp_H005_C012_PS_v01_SDR_PS_20180925_SDR_2K_AVC.mp4	0.0	299.3083200454712	2.5083720684051514
68	193.3552370071411	fix_post	2		11.0	66.0	2.5	/experiments/knapen_aot/oldvideos/S_comp_H005_C012_PS_v01_SDR_PS_20180925_SDR_2K_AVC.mp4	0.0	301.81669211387634	0.0933539867401123
68	193.43883800506592	response	2	2		66.0	2.5	/experiments/knapen_aot/oldvideos/S_comp_H005_C012_PS_v01_SDR_PS_20180925_SDR_2K_AVC.mp4	0.0	301.90029311180115	
69	193.44859099388123	fix_pre	0		63.0	67.0	2.5	/experiments/knapen_aot/oldvideos/S_pexels-koolshooters-7327401_1.mp4	0.0	301.91004610061646	0.5232908725738525
69	193.96502590179443	response	0	2		67.0	2.5	/experiments/knapen_aot/oldvideos/S_pexels-koolshooters-7327401_1.mp4	0.0	302.42648100852966	
69	193.97188186645508	movie	1		164.0	67.0	2.5	/experiments/knapen_aot/oldvideos/S_pexels-koolshooters-7327401_1.mp4	0.0	302.4333369731903	2.5083401203155518
69	196.48022198677063	fix_post	2		12.0	67.0	2.5	/experiments/knapen_aot/oldvideos/S_pexels-koolshooters-7327401_1.mp4	0.0	304.94167709350586	0.10021805763244629
70	196.58044004440308	fix_pre	0		2.0	68.0	2.5	/experiments/knapen_aot/oldvideos/R_S_ILSVRC2015_train_00418001.mp4	0.0	305.0418951511383	0.016435861587524414
70	196.58867502212524	response	0	2		68.0	2.5	/experiments/knapen_aot/oldvideos/R_S_ILSVRC2015_train_00418001.mp4	0.0	305.0501301288605	
70	196.5968759059906	movie	1		301.0	68.0	2.5	/experiments/knapen_aot/oldvideos/R_S_ILSVRC2015_train_00418001.mp4	0.0	305.05833101272583	2.508366107940674
70	199.10524201393127	fix_post	2		12.0	68.0	2.5	/experiments/knapen_aot/oldvideos/R_S_ILSVRC2015_train_00418001.mp4	0.0	307.5666971206665	0.1002039909362793
71	199.20544600486755	fix_pre	0		8.0	69.0	2.5	blank	1.0	307.6669011116028	0.06643795967102051
71	199.26354694366455	response	0	2		69.0	2.5	blank	1.0	307.7250020503998	
71	199.27188396453857	movie	1		301.0	69.0	2.5	blank	1.0	307.7333390712738	2.5082859992980957
71	201.78016996383667	fix_post	2		12.0	69.0	2.5	blank	1.0	310.2416250705719	0.10000801086425781
72	201.88017797470093	fix_pre	0		23.0	70.0	2.5	/experiments/knapen_aot/oldvideos/S_yt-XYULt48onn4_6.mp4	0.0	310.34163308143616	0.19159603118896484
72	202.06360602378845	response	0	2		70.0	2.5	/experiments/knapen_aot/oldvideos/S_yt-XYULt48onn4_6.mp4	0.0	310.5250611305237	
72	202.0717740058899	movie	1		301.0	70.0	2.5	/experiments/knapen_aot/oldvideos/S_yt-XYULt48onn4_6.mp4	0.0	310.5332291126251	2.5083959102630615
72	204.58016991615295	fix_post	2		12.0	70.0	2.5	/experiments/knapen_aot/oldvideos/S_yt-XYULt48onn4_6.mp4	0.0	313.0416250228882	0.09994316101074219
73	204.6801130771637	fix_pre	0		16.0	71.0	2.5	/experiments/knapen_aot/oldvideos/S_yt-dQRqGgpS9mE_288.mp4	0.0	313.1415681838989	0.13337182998657227
73	204.80527806282043	response	0	2		71.0	2.5	/experiments/knapen_aot/oldvideos/S_yt-dQRqGgpS9mE_288.mp4	0.0	313.26673316955566	
73	204.81348490715027	movie	1		301.0	71.0	2.5	/experiments/knapen_aot/oldvideos/S_yt-dQRqGgpS9mE_288.mp4	0.0	313.2749400138855	2.5083200931549072
73	207.32180500030518	fix_post	2		12.0	71.0	2.5	/experiments/knapen_aot/oldvideos/S_yt-dQRqGgpS9mE_288.mp4	0.0	315.7832601070404	0.10002589225769043
74	207.42183089256287	fix_pre	0		21.0	72.0	2.5	/experiments/knapen_aot/oldvideos/R_S_yt-ycfVJyrFgB4_15.mp4	0.0	315.8832859992981	0.1749250888824463
74	207.58862495422363	response	0	2		72.0	2.5	/experiments/knapen_aot/oldvideos/R_S_yt-ycfVJyrFgB4_15.mp4	0.0	316.05008006095886	
74	207.5967559814453	movie	1		301.0	72.0	2.5	/experiments/knapen_aot/oldvideos/R_S_yt-ycfVJyrFgB4_15.mp4	0.0	316.05821108818054	2.511414051055908
74	210.10817003250122	fix_post	2		12.0	72.0	2.5	/experiments/knapen_aot/oldvideos/R_S_yt-ycfVJyrFgB4_15.mp4	0.0	318.56962513923645	0.0971529483795166
75	210.20532298088074	fix_pre	0		24.0	73.0	2.5	/experiments/knapen_aot/oldvideos/R_S_yt-d5jBQ-LOW2I_17.mp4	0.0	318.66677808761597	0.19977188110351562
75	210.39685106277466	response	0	2		73.0	2.5	/experiments/knapen_aot/oldvideos/R_S_yt-d5jBQ-LOW2I_17.mp4	0.0	318.8583061695099	
75	210.40509486198425	movie	1		301.0	73.0	2.5	/experiments/knapen_aot/oldvideos/R_S_yt-d5jBQ-LOW2I_17.mp4	0.0	318.8665499687195	2.5086870193481445
75	212.9137818813324	fix_post	2		12.0	73.0	2.5	/experiments/knapen_aot/oldvideos/R_S_yt-d5jBQ-LOW2I_17.mp4	0.0	321.3752369880676	0.09972310066223145
76	213.01350498199463	fix_pre	0		17.0	74.0	2.5	/experiments/knapen_aot/oldvideos/S_ILSVRC2015_train_00584001.mp4	0.0	321.47496008872986	0.14158296585083008
76	213.1468369960785	response	0	2		74.0	2.5	/experiments/knapen_aot/oldvideos/S_ILSVRC2015_train_00584001.mp4	0.0	321.6082921028137	
76	213.15508794784546	movie	1		301.0	74.0	2.5	/experiments/knapen_aot/oldvideos/S_ILSVRC2015_train_00584001.mp4	0.0	321.6165430545807	2.5085740089416504
76	215.6636619567871	fix_post	2		12.0	74.0	2.5	/experiments/knapen_aot/oldvideos/S_ILSVRC2015_train_00584001.mp4	0.0	324.12511706352234	0.09979891777038574
77	215.7634608745575	fix_pre	0		13.0	75.0	2.5	/experiments/knapen_aot/oldvideos/R_S_ILSVRC2015_train_00469000.mp4	0.0	324.2249159812927	0.10847020149230957
77	215.86359095573425	response	0	2		75.0	2.5	/experiments/knapen_aot/oldvideos/R_S_ILSVRC2015_train_00469000.mp4	0.0	324.3250460624695	
77	215.8719310760498	movie	1		301.0	75.0	2.5	/experiments/knapen_aot/oldvideos/R_S_ILSVRC2015_train_00469000.mp4	0.0	324.33338618278503	2.5082309246063232
77	218.38016200065613	fix_post	2		12.0	75.0	2.5	/experiments/knapen_aot/oldvideos/R_S_ILSVRC2015_train_00469000.mp4	0.0	326.84161710739136	0.09993386268615723
78	218.48009586334229	fix_pre	0		35.0	76.0	2.5	blank	1.0	326.9415509700775	0.2915470600128174
78	218.76371884346008	response	0	2		76.0	2.5	blank	1.0	327.2251739501953	
78	218.7716429233551	movie	1		301.0	76.0	2.5	blank	1.0	327.23309803009033	2.5084609985351562
78	221.28010392189026	fix_post	2		12.0	76.0	2.5	blank	1.0	329.7415590286255	0.1000051498413086
79	221.38010907173157	fix_pre	0		153.0	77.0	2.5	/experiments/knapen_aot/oldvideos/R_S_yt-bD1U6bo-6bE_465.mp4	0.0	329.8415641784668	1.2750318050384521
79	222.6468620300293	response	0	2		77.0	2.5	/experiments/knapen_aot/oldvideos/R_S_yt-bD1U6bo-6bE_465.mp4	0.0	331.1083171367645	
79	222.65514087677002	movie	1		301.0	77.0	2.5	/experiments/knapen_aot/oldvideos/R_S_yt-bD1U6bo-6bE_465.mp4	0.0	331.11659598350525	2.508450984954834
79	225.16359186172485	fix_post	2		12.0	77.0	2.5	/experiments/knapen_aot/oldvideos/R_S_yt-bD1U6bo-6bE_465.mp4	0.0	333.6250469684601	0.09978318214416504
80	225.26337504386902	fix_pre	0		28.0	78.0	2.5	/experiments/knapen_aot/oldvideos/S_yt-QD74nNliDvI_10.mp4	0.0	333.72483015060425	0.23341989517211914
80	225.488529920578	response	0	2		78.0	2.5	/experiments/knapen_aot/oldvideos/S_yt-QD74nNliDvI_10.mp4	0.0	333.94998502731323	
80	225.49679493904114	movie	1		301.0	78.0	2.5	/experiments/knapen_aot/oldvideos/S_yt-QD74nNliDvI_10.mp4	0.0	333.95825004577637	2.5084359645843506
80	228.0052309036255	fix_post	2		12.0	78.0	2.5	/experiments/knapen_aot/oldvideos/S_yt-QD74nNliDvI_10.mp4	0.0	336.4666860103607	0.09987306594848633
81	228.10510396957397	fix_pre	0		19.0	79.0	2.5	/experiments/knapen_aot/oldvideos/S_yt-y6JsUW0eSW8_32.mp4	0.0	336.5665590763092	0.15821599960327148
81	228.25510001182556	response	0	2		79.0	2.5	/experiments/knapen_aot/oldvideos/S_yt-y6JsUW0eSW8_32.mp4	0.0	336.7165551185608	
81	228.26331996917725	movie	1		301.0	79.0	2.5	/experiments/knapen_aot/oldvideos/S_yt-y6JsUW0eSW8_32.mp4	0.0	336.7247750759125	2.5083611011505127
81	230.77168107032776	fix_post	2		12.0	79.0	2.5	/experiments/knapen_aot/oldvideos/S_yt-y6JsUW0eSW8_32.mp4	0.0	339.233136177063	0.09999990463256836
82	230.87168097496033	fix_pre	0		16.0	80.0	2.5	/experiments/knapen_aot/oldvideos/S_yt-TBY8F6UMnJQ_51.mp4	0.0	339.33313608169556	0.13328194618225098
82	230.99679493904114	response	0	2		80.0	2.5	/experiments/knapen_aot/oldvideos/S_yt-TBY8F6UMnJQ_51.mp4	0.0	339.45825004577637	
82	231.00496292114258	movie	1		301.0	80.0	2.5	/experiments/knapen_aot/oldvideos/S_yt-TBY8F6UMnJQ_51.mp4	0.0	339.4664180278778	2.5084400177001953
82	233.51340293884277	fix_post	2		12.0	80.0	2.5	/experiments/knapen_aot/oldvideos/S_yt-TBY8F6UMnJQ_51.mp4	0.0	341.974858045578	0.09996414184570312
83	233.61336708068848	fix_pre	0		16.0	81.0	2.5	/experiments/knapen_aot/oldvideos/S_DV6V38rplag_215.mp4	0.0	342.0748221874237	0.1332859992980957
83	233.73845291137695	response	0	2		81.0	2.5	/experiments/knapen_aot/oldvideos/S_DV6V38rplag_215.mp4	0.0	342.1999080181122	
83	233.74665307998657	movie	1		301.0	81.0	2.5	/experiments/knapen_aot/oldvideos/S_DV6V38rplag_215.mp4	0.0	342.2081081867218	2.50833797454834
83	236.2549910545349	fix_post	2		12.0	81.0	2.5	/experiments/knapen_aot/oldvideos/S_DV6V38rplag_215.mp4	0.0	344.71644616127014	0.10023784637451172
84	236.35522890090942	fix_pre	0		12.0	82.0	2.5	/experiments/knapen_aot/oldvideos/R_S_video_inspire_texas_pecos_foggy-landscape_00018.1080-h264.mp4	0.0	344.81668400764465	0.0997781753540039
84	236.44679594039917	response	0	2		82.0	2.5	/experiments/knapen_aot/oldvideos/R_S_video_inspire_texas_pecos_foggy-landscape_00018.1080-h264.mp4	0.0	344.9082510471344	
84	236.45500707626343	movie	1		167.0	82.0	2.5	/experiments/knapen_aot/oldvideos/R_S_video_inspire_texas_pecos_foggy-landscape_00018.1080-h264.mp4	0.0	344.91646218299866	2.5082969665527344
84	238.96330404281616	fix_post	2		12.0	82.0	2.5	/experiments/knapen_aot/oldvideos/R_S_video_inspire_texas_pecos_foggy-landscape_00018.1080-h264.mp4	0.0	347.4247591495514	0.09999895095825195
84	239.02173805236816	response	2	2		82.0	2.5	/experiments/knapen_aot/oldvideos/R_S_video_inspire_texas_pecos_foggy-landscape_00018.1080-h264.mp4	0.0	347.4831931591034	
85	239.0633029937744	fix_pre	0		36.0	83.0	2.5	blank	1.0	347.52475810050964	0.29999208450317383
85	239.35503792762756	response	0	2		83.0	2.5	blank	1.0	347.8164930343628	
85	239.3632950782776	movie	1		301.0	83.0	2.5	blank	1.0	347.8247501850128	2.5083718299865723
85	241.87166690826416	fix_post	2		12.0	83.0	2.5	blank	1.0	350.3331220149994	0.10006403923034668
87	241.9717309474945	stim	0		166.0					350.43318605422974	1.385972023010254
87	242.17170405387878	response	0	2						350.633159160614	
87	243.3516550064087	response	0	space						351.8131101131439	
