trial_nr	onset	event_type	phase	response	nr_frames	movie_index	movie_duration	movie_file	blank	onset_abs	duration
0	0.15829801559448242	stim	0		19.0					61.158220052719116	0.1583569049835205
0	0.30924391746520996	response	0	space						61.309165954589844	
1	0.31665492057800293	stim	0		121.0					61.31657695770264	1.0080251693725586
1	1.3246800899505615	stim	1		120.0					62.324602127075195	0.9999809265136719
1	1.6830980777740479	response	1	space						62.68302011489868	
1	2.2746639251708984	response	1	space						63.27458596229553	
2	2.3246610164642334	fix_pre	0		89.0	0.0	2.5	/experiments/knapen_aot/videos/S_yt--I4Ggi6-QOE_23.mp4	0.0	63.32458305358887	0.741487979888916
2	3.058018922805786	response	0	space		0.0	2.5	/experiments/knapen_aot/videos/S_yt--I4Ggi6-QOE_23.mp4	0.0	64.05794095993042	
2	3.0661489963531494	movie	1		300.0	0.0	2.5	/experiments/knapen_aot/videos/S_yt--I4Ggi6-QOE_23.mp4	0.0	64.06607103347778	2.5083999633789062
2	5.574548959732056	fix_post	2		12.0	0.0	2.5	/experiments/knapen_aot/videos/S_yt--I4Ggi6-QOE_23.mp4	0.0	66.57447099685669	0.1000220775604248
3	5.6745710372924805	fix_pre	0		102.0	1.0	2.5	/experiments/knapen_aot/videos/S_ILSVRC2015_train_00415007.mp4	0.0	66.67449307441711	0.8499588966369629
3	6.520677089691162	response	0	2		1.0	2.5	/experiments/knapen_aot/videos/S_ILSVRC2015_train_00415007.mp4	0.0	67.5205991268158	
3	6.524529933929443	movie	1		298.0	1.0	2.5	/experiments/knapen_aot/videos/S_ILSVRC2015_train_00415007.mp4	0.0	67.52445197105408	2.5083401203155518
3	9.032870054244995	fix_post	2		12.0	1.0	2.5	/experiments/knapen_aot/videos/S_ILSVRC2015_train_00415007.mp4	0.0	70.03279209136963	0.09998393058776855
4	9.132853984832764	fix_pre	0		43.0	2.0	2.5	/experiments/knapen_aot/videos/S_yt-HwGg4-zeWi8_364.mp4	0.0	70.1327760219574	0.3583250045776367
4	9.483000993728638	response	0	2		2.0	2.5	/experiments/knapen_aot/videos/S_yt-HwGg4-zeWi8_364.mp4	0.0	70.48292303085327	
4	9.4911789894104	movie	1		301.0	2.0	2.5	/experiments/knapen_aot/videos/S_yt-HwGg4-zeWi8_364.mp4	0.0	70.49110102653503	2.5084829330444336
4	11.999661922454834	fix_post	2		12.0	2.0	2.5	/experiments/knapen_aot/videos/S_yt-HwGg4-zeWi8_364.mp4	0.0	72.99958395957947	0.09987497329711914
5	12.099536895751953	fix_pre	0		40.0	3.0	2.5	/experiments/knapen_aot/videos/S_pexels-mikhail-nilov-8410063_1.mp4	0.0	73.09945893287659	0.3341481685638428
5	12.42455506324768	response	0	2		3.0	2.5	/experiments/knapen_aot/videos/S_pexels-mikhail-nilov-8410063_1.mp4	0.0	73.42447710037231	
5	12.433685064315796	movie	1		167.0	3.0	2.5	/experiments/knapen_aot/videos/S_pexels-mikhail-nilov-8410063_1.mp4	0.0	73.43360710144043	2.5076839923858643
5	14.94136905670166	fix_post	2		12.0	3.0	2.5	/experiments/knapen_aot/videos/S_pexels-mikhail-nilov-8410063_1.mp4	0.0	75.9412910938263	0.09989094734191895
6	15.041260004043579	fix_pre	0		35.0	4.0	2.5	/experiments/knapen_aot/videos/R_S_yt-b29VtKvlnWE_430.mp4	0.0	76.04118204116821	0.29157400131225586
6	15.324640989303589	response	0	2		4.0	2.5	/experiments/knapen_aot/videos/R_S_yt-b29VtKvlnWE_430.mp4	0.0	76.32456302642822	
6	15.332834005355835	movie	1		301.0	4.0	2.5	/experiments/knapen_aot/videos/R_S_yt-b29VtKvlnWE_430.mp4	0.0	76.33275604248047	2.508358955383301
6	17.841192960739136	fix_post	2		12.0	4.0	2.5	/experiments/knapen_aot/videos/R_S_yt-b29VtKvlnWE_430.mp4	0.0	78.84111499786377	0.09990215301513672
7	17.941095113754272	fix_pre	0		32.0	5.0	2.5	/experiments/knapen_aot/videos/R_S_yt-PcOWc5EJbVo_39.mp4	0.0	78.9410171508789	0.26667189598083496
7	18.199601888656616	response	0	2		5.0	2.5	/experiments/knapen_aot/videos/R_S_yt-PcOWc5EJbVo_39.mp4	0.0	79.19952392578125	
7	18.207767009735107	movie	1		301.0	5.0	2.5	/experiments/knapen_aot/videos/R_S_yt-PcOWc5EJbVo_39.mp4	0.0	79.20768904685974	2.508405923843384
7	20.71617293357849	fix_post	2		12.0	5.0	2.5	/experiments/knapen_aot/videos/R_S_yt-PcOWc5EJbVo_39.mp4	0.0	81.71609497070312	0.100006103515625
8	20.816179037094116	fix_pre	0		21.0	6.0	2.5	/experiments/knapen_aot/videos/R_S_yt-b29VtKvlnWE_430.mp4	0.0	81.81610107421875	0.17495298385620117
8	20.982834100723267	response	0	2		6.0	2.5	/experiments/knapen_aot/videos/R_S_yt-b29VtKvlnWE_430.mp4	0.0	81.9827561378479	
8	20.991132020950317	movie	1		301.0	6.0	2.5	/experiments/knapen_aot/videos/R_S_yt-b29VtKvlnWE_430.mp4	0.0	81.99105405807495	2.5084729194641113
8	23.49960494041443	fix_post	2		12.0	6.0	2.5	/experiments/knapen_aot/videos/R_S_yt-b29VtKvlnWE_430.mp4	0.0	84.49952697753906	0.09996795654296875
9	23.599572896957397	fix_pre	0		29.0	7.0	2.5	blank	1.0	84.59949493408203	0.24147605895996094
9	23.83291506767273	response	0	2		7.0	2.5	blank	1.0	84.83283710479736	
9	23.84104895591736	movie	1		301.0	7.0	2.5	blank	1.0	84.84097099304199	2.5083601474761963
9	26.349409103393555	fix_post	2		12.0	7.0	2.5	blank	1.0	87.34933114051819	0.10004901885986328
10	26.449458122253418	fix_pre	0		46.0	8.0	2.5	/experiments/knapen_aot/videos/S_comp_A006_C003_1219EE_CC_v01_SDR_PS_FINAL_20180709_SDR_2K_AVC.mp4	0.0	87.44938015937805	0.38332080841064453
10	26.824527978897095	response	0	2		8.0	2.5	/experiments/knapen_aot/videos/S_comp_A006_C003_1219EE_CC_v01_SDR_PS_FINAL_20180709_SDR_2K_AVC.mp4	0.0	87.82445001602173	
10	26.832778930664062	movie	1		173.0	8.0	2.5	/experiments/knapen_aot/videos/S_comp_A006_C003_1219EE_CC_v01_SDR_PS_FINAL_20180709_SDR_2K_AVC.mp4	0.0	87.8327009677887	2.508303165435791
10	29.341082096099854	fix_post	2		12.0	8.0	2.5	/experiments/knapen_aot/videos/S_comp_A006_C003_1219EE_CC_v01_SDR_PS_FINAL_20180709_SDR_2K_AVC.mp4	0.0	90.34100413322449	0.10004687309265137
11	29.441128969192505	fix_pre	0		27.0	9.0	2.5	/experiments/knapen_aot/videos/R_S_wc-Mf8SQpviaD6D_17.mp4	0.0	90.44105100631714	0.22495698928833008
11	29.657898902893066	response	0	2		9.0	2.5	/experiments/knapen_aot/videos/R_S_wc-Mf8SQpviaD6D_17.mp4	0.0	90.6578209400177	
11	29.666085958480835	movie	1		171.0	9.0	2.5	/experiments/knapen_aot/videos/R_S_wc-Mf8SQpviaD6D_17.mp4	0.0	90.66600799560547	2.50838303565979
11	32.174468994140625	fix_post	2		12.0	9.0	2.5	/experiments/knapen_aot/videos/R_S_wc-Mf8SQpviaD6D_17.mp4	0.0	93.17439103126526	0.09994006156921387
12	32.27440905570984	fix_pre	0		29.0	10.0	2.5	/experiments/knapen_aot/videos/S_yt-qxtmtMnUfD0_124.mp4	0.0	93.27433109283447	0.24236583709716797
12	32.507843017578125	response	0	2		10.0	2.5	/experiments/knapen_aot/videos/S_yt-qxtmtMnUfD0_124.mp4	0.0	93.50776505470276	
12	32.51677489280701	movie	1		301.0	10.0	2.5	/experiments/knapen_aot/videos/S_yt-qxtmtMnUfD0_124.mp4	0.0	93.51669692993164	2.5076820850372314
12	35.02445697784424	fix_post	2		12.0	10.0	2.5	/experiments/knapen_aot/videos/S_yt-qxtmtMnUfD0_124.mp4	0.0	96.02437901496887	0.10000300407409668
13	35.124459981918335	fix_pre	0		49.0	11.0	2.5	/experiments/knapen_aot/videos/S_yt-zam74qlzGtQ_122.mp4	0.0	96.12438201904297	0.4083220958709717
13	35.52455496788025	response	0	2		11.0	2.5	/experiments/knapen_aot/videos/S_yt-zam74qlzGtQ_122.mp4	0.0	96.52447700500488	
13	35.53278207778931	movie	1		301.0	11.0	2.5	/experiments/knapen_aot/videos/S_yt-zam74qlzGtQ_122.mp4	0.0	96.53270411491394	2.5083680152893066
13	38.04115009307861	fix_post	2		12.0	11.0	2.5	/experiments/knapen_aot/videos/S_yt-zam74qlzGtQ_122.mp4	0.0	99.04107213020325	0.10080480575561523
14	38.14195489883423	fix_pre	0		31.0	12.0	2.5	/experiments/knapen_aot/videos/S_b3TCugtX0h0_108.mp4	0.0	99.14187693595886	0.25743818283081055
14	38.391237020492554	response	0	2		12.0	2.5	/experiments/knapen_aot/videos/S_b3TCugtX0h0_108.mp4	0.0	99.39115905761719	
14	38.39939308166504	movie	1		301.0	12.0	2.5	/experiments/knapen_aot/videos/S_b3TCugtX0h0_108.mp4	0.0	99.39931511878967	2.50833797454834
14	40.90773105621338	fix_post	2		12.0	12.0	2.5	/experiments/knapen_aot/videos/S_b3TCugtX0h0_108.mp4	0.0	101.90765309333801	0.1000058650970459
15	41.007736921310425	fix_pre	0		10.0	13.0	2.5	/experiments/knapen_aot/videos/R_S_yt-xgqx7tH92-c_6.mp4	0.0	102.00765895843506	0.08332109451293945
15	41.08285188674927	response	0	2		13.0	2.5	/experiments/knapen_aot/videos/R_S_yt-xgqx7tH92-c_6.mp4	0.0	102.0827739238739	
15	41.091058015823364	movie	1		301.0	13.0	2.5	/experiments/knapen_aot/videos/R_S_yt-xgqx7tH92-c_6.mp4	0.0	102.090980052948	2.508323907852173
15	43.59938192367554	fix_post	2		12.0	13.0	2.5	/experiments/knapen_aot/videos/R_S_yt-xgqx7tH92-c_6.mp4	0.0	104.59930396080017	0.10001206398010254
16	43.69939398765564	fix_pre	0		19.0	14.0	2.5	blank	1.0	104.69931602478027	0.15829896926879883
16	43.8494770526886	response	0	2		14.0	2.5	blank	1.0	104.84939908981323	
16	43.85769295692444	movie	1		301.0	14.0	2.5	blank	1.0	104.85761499404907	2.508424997329712
16	46.36611795425415	fix_post	2		12.0	14.0	2.5	blank	1.0	107.36603999137878	0.10004997253417969
17	46.46616792678833	fix_pre	0		28.0	15.0	2.5	/experiments/knapen_aot/videos/R_S_yt-BqJHT4K7Qf8_127.mp4	0.0	107.46608996391296	0.23322200775146484
17	46.691112995147705	response	0	2		15.0	2.5	/experiments/knapen_aot/videos/R_S_yt-BqJHT4K7Qf8_127.mp4	0.0	107.69103503227234	
17	46.699389934539795	movie	1		301.0	15.0	2.5	/experiments/knapen_aot/videos/R_S_yt-BqJHT4K7Qf8_127.mp4	0.0	107.69931197166443	2.5084919929504395
17	49.207881927490234	fix_post	2		12.0	15.0	2.5	/experiments/knapen_aot/videos/R_S_yt-BqJHT4K7Qf8_127.mp4	0.0	110.20780396461487	0.09984397888183594
18	49.30772590637207	fix_pre	0		21.0	16.0	2.5	/experiments/knapen_aot/videos/R_S_pexels-c-technical-6491262.mp4	0.0	110.3076479434967	0.17496609687805176
18	49.474486112594604	response	0	2		16.0	2.5	/experiments/knapen_aot/videos/R_S_pexels-c-technical-6491262.mp4	0.0	110.47440814971924	
18	49.48269200325012	movie	1		189.0	16.0	2.5	/experiments/knapen_aot/videos/R_S_pexels-c-technical-6491262.mp4	0.0	110.48261404037476	2.5083770751953125
18	51.991069078445435	fix_post	2		12.0	16.0	2.5	/experiments/knapen_aot/videos/R_S_pexels-c-technical-6491262.mp4	0.0	112.99099111557007	0.09994888305664062
19	52.091017961502075	fix_pre	0		12.0	17.0	2.5	/experiments/knapen_aot/videos/R_S_yt-K_gHa2x2OQA_319.mp4	0.0	113.09093999862671	0.09996509552001953
19	52.1828989982605	response	0	2		17.0	2.5	/experiments/knapen_aot/videos/R_S_yt-K_gHa2x2OQA_319.mp4	0.0	113.18282103538513	
19	52.190983057022095	movie	1		301.0	17.0	2.5	/experiments/knapen_aot/videos/R_S_yt-K_gHa2x2OQA_319.mp4	0.0	113.19090509414673	2.508553981781006
19	54.6995370388031	fix_post	2		12.0	17.0	2.5	/experiments/knapen_aot/videos/R_S_yt-K_gHa2x2OQA_319.mp4	0.0	115.69945907592773	0.09984302520751953
20	54.79938006401062	fix_pre	0		29.0	18.0	2.5	/experiments/knapen_aot/videos/S_yt-SS7pSyb0_d0_32.mp4	0.0	115.79930210113525	0.24169683456420898
20	55.03284502029419	response	0	2		18.0	2.5	/experiments/knapen_aot/videos/S_yt-SS7pSyb0_d0_32.mp4	0.0	116.03276705741882	
20	55.04107689857483	movie	1		301.0	18.0	2.5	/experiments/knapen_aot/videos/S_yt-SS7pSyb0_d0_32.mp4	0.0	116.04099893569946	2.5082480907440186
20	57.54932498931885	fix_post	2		12.0	18.0	2.5	/experiments/knapen_aot/videos/S_yt-SS7pSyb0_d0_32.mp4	0.0	118.54924702644348	0.10000991821289062
21	57.64933490753174	fix_pre	0		27.0	19.0	2.5	/experiments/knapen_aot/videos/S_yt-4BAsE47kJNk_88.mp4	0.0	118.64925694465637	0.22495317459106445
21	57.86606407165527	response	0	2		19.0	2.5	/experiments/knapen_aot/videos/S_yt-4BAsE47kJNk_88.mp4	0.0	118.86598610877991	
21	57.8742880821228	movie	1		301.0	19.0	2.5	/experiments/knapen_aot/videos/S_yt-4BAsE47kJNk_88.mp4	0.0	118.87421011924744	2.5084989070892334
21	60.382786989212036	fix_post	2		12.0	19.0	2.5	/experiments/knapen_aot/videos/S_yt-4BAsE47kJNk_88.mp4	0.0	121.38270902633667	0.09992599487304688
22	60.48271298408508	fix_pre	0		28.0	20.0	2.5	/experiments/knapen_aot/videos/R_S_pexels-mikhail-nilov-8410063_1.mp4	0.0	121.48263502120972	0.23331904411315918
22	60.7002489566803	response	0	2		20.0	2.5	/experiments/knapen_aot/videos/R_S_pexels-mikhail-nilov-8410063_1.mp4	0.0	121.70017099380493	
22	60.71603202819824	movie	1		164.0	20.0	2.5	/experiments/knapen_aot/videos/R_S_pexels-mikhail-nilov-8410063_1.mp4	0.0	121.71595406532288	2.508409023284912
22	63.224441051483154	fix_post	2		12.0	20.0	2.5	/experiments/knapen_aot/videos/R_S_pexels-mikhail-nilov-8410063_1.mp4	0.0	124.22436308860779	0.09988784790039062
23	63.324328899383545	fix_pre	0		27.0	21.0	2.5	blank	1.0	124.32425093650818	0.22492718696594238
23	63.54105591773987	response	0	2		21.0	2.5	blank	1.0	124.5409779548645	
23	63.54925608634949	movie	1		301.0	21.0	2.5	blank	1.0	124.54917812347412	2.5083320140838623
23	66.05758810043335	fix_post	2		12.0	21.0	2.5	blank	1.0	127.05751013755798	0.10003995895385742
24	66.1576280593872	fix_pre	0		30.0	22.0	2.5	/experiments/knapen_aot/videos/R_S_yt-IigHVUksnw8_7.mp4	0.0	127.15755009651184	0.24991583824157715
24	66.39940309524536	response	0	2		22.0	2.5	/experiments/knapen_aot/videos/R_S_yt-IigHVUksnw8_7.mp4	0.0	127.39932513237	
24	66.40754389762878	movie	1		301.0	22.0	2.5	/experiments/knapen_aot/videos/R_S_yt-IigHVUksnw8_7.mp4	0.0	127.40746593475342	2.5084750652313232
24	68.91601896286011	fix_post	2		12.0	22.0	2.5	/experiments/knapen_aot/videos/R_S_yt-IigHVUksnw8_7.mp4	0.0	129.91594099998474	0.10043096542358398
25	69.01644992828369	fix_pre	0		39.0	23.0	2.5	/experiments/knapen_aot/videos/R_S_wc-eJe3wXMgTLRV_20.mp4	0.0	130.01637196540833	0.3244919776916504
25	69.33277201652527	response	0	2		23.0	2.5	/experiments/knapen_aot/videos/R_S_wc-eJe3wXMgTLRV_20.mp4	0.0	130.3326940536499	
25	69.34094190597534	movie	1		166.0	23.0	2.5	/experiments/knapen_aot/videos/R_S_wc-eJe3wXMgTLRV_20.mp4	0.0	130.34086394309998	2.5083930492401123
25	71.84933495521545	fix_post	2		12.0	23.0	2.5	/experiments/knapen_aot/videos/R_S_wc-eJe3wXMgTLRV_20.mp4	0.0	132.8492569923401	0.09993505477905273
26	71.9492700099945	fix_pre	0		28.0	24.0	2.5	/experiments/knapen_aot/videos/R_S_yt-j-ifVbxZePQ_70.mp4	0.0	132.94919204711914	0.2338259220123291
26	72.17441606521606	response	0	2		24.0	2.5	/experiments/knapen_aot/videos/R_S_yt-j-ifVbxZePQ_70.mp4	0.0	133.1743381023407	
26	72.18309593200684	movie	1		301.0	24.0	2.5	/experiments/knapen_aot/videos/R_S_yt-j-ifVbxZePQ_70.mp4	0.0	133.18301796913147	2.5079030990600586
26	74.6909990310669	fix_post	2		12.0	24.0	2.5	/experiments/knapen_aot/videos/R_S_yt-j-ifVbxZePQ_70.mp4	0.0	135.69092106819153	0.1001288890838623
27	74.79112792015076	fix_pre	0		76.0	25.0	2.5	/experiments/knapen_aot/videos/R_S_yt-D6fhzH21T_E_26.mp4	0.0	135.7910499572754	0.6331369876861572
27	75.40855407714844	response	0	2		25.0	2.5	/experiments/knapen_aot/videos/R_S_yt-D6fhzH21T_E_26.mp4	0.0	136.40847611427307	
27	75.42426490783691	movie	1		301.0	25.0	2.5	/experiments/knapen_aot/videos/R_S_yt-D6fhzH21T_E_26.mp4	0.0	136.42418694496155	2.5083231925964355
27	77.93258810043335	fix_post	2		12.0	25.0	2.5	/experiments/knapen_aot/videos/R_S_yt-D6fhzH21T_E_26.mp4	0.0	138.93251013755798	0.1000509262084961
28	78.03263902664185	fix_pre	0		76.0	26.0	2.5	/experiments/knapen_aot/videos/S_yt-kP7VNn9QIo4_53.mp4	0.0	139.03256106376648	0.6332809925079346
28	78.65777111053467	response	0	2		26.0	2.5	/experiments/knapen_aot/videos/S_yt-kP7VNn9QIo4_53.mp4	0.0	139.6576931476593	
28	78.66592001914978	movie	1		301.0	26.0	2.5	/experiments/knapen_aot/videos/S_yt-kP7VNn9QIo4_53.mp4	0.0	139.6658420562744	2.5084590911865234
28	81.1743791103363	fix_post	2		12.0	26.0	2.5	/experiments/knapen_aot/videos/S_yt-kP7VNn9QIo4_53.mp4	0.0	142.17430114746094	0.09987688064575195
29	81.27425599098206	fix_pre	0		31.0	27.0	2.5	blank	1.0	142.2741780281067	0.25835204124450684
29	81.52437710762024	response	0	2		27.0	2.5	blank	1.0	142.52429914474487	
29	81.53260803222656	movie	1		301.0	27.0	2.5	blank	1.0	142.5325300693512	2.5083210468292236
29	84.04092907905579	fix_post	2		12.0	27.0	2.5	blank	1.0	145.04085111618042	0.09996390342712402
30	84.14089298248291	fix_pre	0		37.0	28.0	2.5	/experiments/knapen_aot/videos/R_S_yt-BLmwmX-mni8_56.mp4	0.0	145.14081501960754	0.30834102630615234
30	84.44102811813354	response	0	2		28.0	2.5	/experiments/knapen_aot/videos/R_S_yt-BLmwmX-mni8_56.mp4	0.0	145.44095015525818	
30	84.44923400878906	movie	1		301.0	28.0	2.5	/experiments/knapen_aot/videos/R_S_yt-BLmwmX-mni8_56.mp4	0.0	145.4491560459137	2.5083000659942627
30	86.95753407478333	fix_post	2		12.0	28.0	2.5	/experiments/knapen_aot/videos/R_S_yt-BLmwmX-mni8_56.mp4	0.0	147.95745611190796	0.10003781318664551
31	87.05757188796997	fix_pre	0		29.0	29.0	2.5	/experiments/knapen_aot/videos/S_P006_C002_UHD_SDR_2K_AVC.mp4	0.0	148.0574939250946	0.24158406257629395
31	87.29090189933777	response	0	2		29.0	2.5	/experiments/knapen_aot/videos/S_P006_C002_UHD_SDR_2K_AVC.mp4	0.0	148.2908239364624	
31	87.29915595054626	movie	1		166.0	29.0	2.5	/experiments/knapen_aot/videos/S_P006_C002_UHD_SDR_2K_AVC.mp4	0.0	148.2990779876709	2.5084540843963623
31	89.80761003494263	fix_post	2		12.0	29.0	2.5	/experiments/knapen_aot/videos/S_P006_C002_UHD_SDR_2K_AVC.mp4	0.0	150.80753207206726	0.0998849868774414
32	89.90749502182007	fix_pre	0		46.0	30.0	2.5	/experiments/knapen_aot/videos/S_yt-ObT9gF8E_tU_250.mp4	0.0	150.9074170589447	0.3833498954772949
32	90.28260898590088	response	0	2		30.0	2.5	/experiments/knapen_aot/videos/S_yt-ObT9gF8E_tU_250.mp4	0.0	151.2825310230255	
32	90.29084491729736	movie	1		301.0	30.0	2.5	/experiments/knapen_aot/videos/S_yt-ObT9gF8E_tU_250.mp4	0.0	151.290766954422	2.508319139480591
32	92.79916405677795	fix_post	2		12.0	30.0	2.5	/experiments/knapen_aot/videos/S_yt-ObT9gF8E_tU_250.mp4	0.0	153.7990860939026	0.10001897811889648
33	92.89918303489685	fix_pre	0		18.0	31.0	2.5	/experiments/knapen_aot/videos/S_yt-4wYTkhggZNM_90.mp4	0.0	153.89910507202148	0.1499929428100586
33	93.04098200798035	response	0	2		31.0	2.5	/experiments/knapen_aot/videos/S_yt-4wYTkhggZNM_90.mp4	0.0	154.04090404510498	
33	93.04917597770691	movie	1		301.0	31.0	2.5	/experiments/knapen_aot/videos/S_yt-4wYTkhggZNM_90.mp4	0.0	154.04909801483154	2.5083110332489014
33	95.55748701095581	fix_post	2		12.0	31.0	2.5	/experiments/knapen_aot/videos/S_yt-4wYTkhggZNM_90.mp4	0.0	156.55740904808044	0.100006103515625
34	95.65749311447144	fix_pre	0		33.0	32.0	2.5	/experiments/knapen_aot/videos/R_S_yt-D6fhzH21T_E_26.mp4	0.0	156.65741515159607	0.2754979133605957
34	95.92429494857788	response	0	2		32.0	2.5	/experiments/knapen_aot/videos/R_S_yt-D6fhzH21T_E_26.mp4	0.0	156.92421698570251	
34	95.93299102783203	movie	1		301.0	32.0	2.5	/experiments/knapen_aot/videos/R_S_yt-D6fhzH21T_E_26.mp4	0.0	156.93291306495667	2.5078248977661133
34	98.44081592559814	fix_post	2		12.0	32.0	2.5	/experiments/knapen_aot/videos/R_S_yt-D6fhzH21T_E_26.mp4	0.0	159.44073796272278	0.09998703002929688
35	98.54080295562744	fix_pre	0		25.0	33.0	2.5	blank	1.0	159.54072499275208	0.20829010009765625
35	98.74096894264221	response	0	2		33.0	2.5	blank	1.0	159.74089097976685	
35	98.7490930557251	movie	1		301.0	33.0	2.5	blank	1.0	159.74901509284973	2.508375883102417
35	101.25746893882751	fix_post	2		12.0	33.0	2.5	blank	1.0	162.25739097595215	0.10018706321716309
36	101.35765600204468	fix_pre	0		22.0	34.0	2.5	/experiments/knapen_aot/videos/R_S_yt-kP7VNn9QIo4_53.mp4	0.0	162.3575780391693	0.18313097953796387
36	101.53259897232056	response	0	2		34.0	2.5	/experiments/knapen_aot/videos/R_S_yt-kP7VNn9QIo4_53.mp4	0.0	162.5325210094452	
36	101.54078698158264	movie	1		301.0	34.0	2.5	/experiments/knapen_aot/videos/R_S_yt-kP7VNn9QIo4_53.mp4	0.0	162.54070901870728	2.508458137512207
36	104.04924511909485	fix_post	2		12.0	34.0	2.5	/experiments/knapen_aot/videos/R_S_yt-kP7VNn9QIo4_53.mp4	0.0	165.04916715621948	0.09989094734191895
37	104.14913606643677	fix_pre	0		22.0	35.0	2.5	/experiments/knapen_aot/videos/R_S_production_ID_4122384.mp4	0.0	165.1490581035614	0.1833019256591797
37	104.32425689697266	response	0	2		35.0	2.5	/experiments/knapen_aot/videos/R_S_production_ID_4122384.mp4	0.0	165.3241789340973	
37	104.33243799209595	movie	1		174.0	35.0	2.5	/experiments/knapen_aot/videos/R_S_production_ID_4122384.mp4	0.0	165.33236002922058	2.508357048034668
37	106.84079504013062	fix_post	2		12.0	35.0	2.5	/experiments/knapen_aot/videos/R_S_production_ID_4122384.mp4	0.0	167.84071707725525	0.09996891021728516
38	106.9407639503479	fix_pre	0		35.0	36.0	2.5	/experiments/knapen_aot/videos/S_comp_GMT026_363A_103NC_E1027_KOREA_JAPAN_NIGHT_v18_SDR_PS_20180907_SDR_2K_AVC.mp4	0.0	167.94068598747253	0.2916581630706787
38	107.22422003746033	response	0	2		36.0	2.5	/experiments/knapen_aot/videos/S_comp_GMT026_363A_103NC_E1027_KOREA_JAPAN_NIGHT_v18_SDR_PS_20180907_SDR_2K_AVC.mp4	0.0	168.22414207458496	
38	107.23242211341858	movie	1		171.0	36.0	2.5	/experiments/knapen_aot/videos/S_comp_GMT026_363A_103NC_E1027_KOREA_JAPAN_NIGHT_v18_SDR_PS_20180907_SDR_2K_AVC.mp4	0.0	168.2323441505432	2.508307933807373
38	109.74073004722595	fix_post	2		12.0	36.0	2.5	/experiments/knapen_aot/videos/S_comp_GMT026_363A_103NC_E1027_KOREA_JAPAN_NIGHT_v18_SDR_PS_20180907_SDR_2K_AVC.mp4	0.0	170.7406520843506	0.1000218391418457
39	109.8407518863678	fix_pre	0		43.0	37.0	2.5	/experiments/knapen_aot/videos/S_yt-BDCyXL5e9S4_223.mp4	0.0	170.84067392349243	0.3582761287689209
39	110.19086289405823	response	0	2		37.0	2.5	/experiments/knapen_aot/videos/S_yt-BDCyXL5e9S4_223.mp4	0.0	171.19078493118286	
39	110.19902801513672	movie	1		301.0	37.0	2.5	/experiments/knapen_aot/videos/S_yt-BDCyXL5e9S4_223.mp4	0.0	171.19895005226135	2.5083398818969727
39	112.70736789703369	fix_post	2		12.0	37.0	2.5	/experiments/knapen_aot/videos/S_yt-BDCyXL5e9S4_223.mp4	0.0	173.70728993415833	0.10008621215820312
40	112.8074541091919	fix_pre	0		58.0	38.0	2.5	/experiments/knapen_aot/videos/R_S_yt-Tn563IPZfg4_55.mp4	0.0	173.80737614631653	0.4834568500518799
40	113.28254890441895	response	0	2		38.0	2.5	/experiments/knapen_aot/videos/R_S_yt-Tn563IPZfg4_55.mp4	0.0	174.28247094154358	
40	113.29091095924377	movie	1		301.0	38.0	2.5	/experiments/knapen_aot/videos/R_S_yt-Tn563IPZfg4_55.mp4	0.0	174.2908329963684	2.508165121078491
40	115.79907608032227	fix_post	2		12.0	38.0	2.5	/experiments/knapen_aot/videos/R_S_yt-Tn563IPZfg4_55.mp4	0.0	176.7989981174469	0.1000208854675293
41	115.8990969657898	fix_pre	0		59.0	39.0	2.5	/experiments/knapen_aot/videos/S_production_ID_4122384.mp4	0.0	176.89901900291443	0.4918539524078369
41	116.38254690170288	response	0	2		39.0	2.5	/experiments/knapen_aot/videos/S_production_ID_4122384.mp4	0.0	177.38246893882751	
41	116.39095091819763	movie	1		168.0	39.0	2.5	/experiments/knapen_aot/videos/S_production_ID_4122384.mp4	0.0	177.39087295532227	2.508045196533203
41	118.89899611473083	fix_post	2		12.0	39.0	2.5	/experiments/knapen_aot/videos/S_production_ID_4122384.mp4	0.0	179.89891815185547	0.10009098052978516
42	118.99908709526062	fix_pre	0		22.0	40.0	2.5	/experiments/knapen_aot/videos/S_bing-www_break_com_video_like-a-cat-catching-a-fly-3131008_12.mp4	0.0	179.99900913238525	0.1835029125213623
42	119.17410898208618	response	0	2		40.0	2.5	/experiments/knapen_aot/videos/S_bing-www_break_com_video_like-a-cat-catching-a-fly-3131008_12.mp4	0.0	180.17403101921082	
42	119.18259000778198	movie	1		301.0	40.0	2.5	/experiments/knapen_aot/videos/S_bing-www_break_com_video_like-a-cat-catching-a-fly-3131008_12.mp4	0.0	180.18251204490662	2.508151054382324
42	121.6907410621643	fix_post	2		12.0	40.0	2.5	/experiments/knapen_aot/videos/S_bing-www_break_com_video_like-a-cat-catching-a-fly-3131008_12.mp4	0.0	182.69066309928894	0.10003495216369629
43	121.790776014328	fix_pre	0		39.0	41.0	2.5	/experiments/knapen_aot/videos/R_S_yt-r7PeFd-hIp0_378.mp4	0.0	182.79069805145264	0.32486701011657715
43	122.10747694969177	response	0	2		41.0	2.5	/experiments/knapen_aot/videos/R_S_yt-r7PeFd-hIp0_378.mp4	0.0	183.1073989868164	
43	122.11564302444458	movie	1		301.0	41.0	2.5	/experiments/knapen_aot/videos/R_S_yt-r7PeFd-hIp0_378.mp4	0.0	183.1155650615692	2.5085999965667725
43	124.62424302101135	fix_post	2		12.0	41.0	2.5	/experiments/knapen_aot/videos/R_S_yt-r7PeFd-hIp0_378.mp4	0.0	185.624165058136	0.10013890266418457
44	124.72438192367554	fix_pre	0		37.0	42.0	2.5	blank	1.0	185.72430396080017	0.30799412727355957
44	125.02407789230347	response	0	2		42.0	2.5	blank	1.0	186.0239999294281	
44	125.0323760509491	movie	1		301.0	42.0	2.5	blank	1.0	186.03229808807373	2.5083038806915283
44	127.54067993164062	fix_post	2		12.0	42.0	2.5	blank	1.0	188.54060196876526	0.10021209716796875
45	127.6408920288086	fix_pre	0		54.0	43.0	2.5	/experiments/knapen_aot/videos/R_S_yt-W00vtWnXgIk_73.mp4	0.0	188.64081406593323	0.4497640132904053
45	128.08250308036804	response	0	2		43.0	2.5	/experiments/knapen_aot/videos/R_S_yt-W00vtWnXgIk_73.mp4	0.0	189.08242511749268	
45	128.090656042099	movie	1		301.0	43.0	2.5	/experiments/knapen_aot/videos/R_S_yt-W00vtWnXgIk_73.mp4	0.0	189.09057807922363	2.508575916290283
45	130.59923195838928	fix_post	2		12.0	43.0	2.5	/experiments/knapen_aot/videos/R_S_yt-W00vtWnXgIk_73.mp4	0.0	191.59915399551392	0.10013794898986816
46	130.69936990737915	fix_pre	0		42.0	44.0	2.5	/experiments/knapen_aot/videos/S_wc-WgOBK5IL7vex_4.mp4	0.0	191.69929194450378	0.3495922088623047
46	131.04078698158264	response	0	2		44.0	2.5	/experiments/knapen_aot/videos/S_wc-WgOBK5IL7vex_4.mp4	0.0	192.04070901870728	
46	131.04896211624146	movie	1		166.0	44.0	2.5	/experiments/knapen_aot/videos/S_wc-WgOBK5IL7vex_4.mp4	0.0	192.0488841533661	2.508809804916382
46	133.55777192115784	fix_post	2		12.0	44.0	2.5	/experiments/knapen_aot/videos/S_wc-WgOBK5IL7vex_4.mp4	0.0	194.55769395828247	0.09960603713989258
47	133.65737795829773	fix_pre	0		66.0	45.0	2.5	/experiments/knapen_aot/videos/S_wc-DgBY_btLlgBC_19.mp4	0.0	194.65729999542236	0.5499050617218018
47	134.19914889335632	response	0	2		45.0	2.5	/experiments/knapen_aot/videos/S_wc-DgBY_btLlgBC_19.mp4	0.0	195.19907093048096	
47	134.20728302001953	movie	1		164.0	45.0	2.5	/experiments/knapen_aot/videos/S_wc-DgBY_btLlgBC_19.mp4	0.0	195.20720505714417	2.508362054824829
47	136.71564507484436	fix_post	2		12.0	45.0	2.5	/experiments/knapen_aot/videos/S_wc-DgBY_btLlgBC_19.mp4	0.0	197.715567111969	0.09999704360961914
48	136.81564211845398	fix_pre	0		34.0	46.0	2.5	/experiments/knapen_aot/videos/S_yt-IT741UWKVzg_34.mp4	0.0	197.8155641555786	0.2834329605102539
48	137.0907859802246	response	0	2		46.0	2.5	/experiments/knapen_aot/videos/S_yt-IT741UWKVzg_34.mp4	0.0	198.09070801734924	
48	137.09907507896423	movie	1		301.0	46.0	2.5	/experiments/knapen_aot/videos/S_yt-IT741UWKVzg_34.mp4	0.0	198.09899711608887	2.508262872695923
48	139.60733795166016	fix_post	2		12.0	46.0	2.5	/experiments/knapen_aot/videos/S_yt-IT741UWKVzg_34.mp4	0.0	200.6072599887848	0.09998893737792969
49	139.7073268890381	fix_pre	0		51.0	47.0	2.5	blank	1.0	200.70724892616272	0.42498111724853516
49	140.12399697303772	response	0	2		47.0	2.5	blank	1.0	201.12391901016235	
49	140.13230800628662	movie	1		301.0	47.0	2.5	blank	1.0	201.13223004341125	2.508591890335083
49	142.6408998966217	fix_post	2		12.0	47.0	2.5	blank	1.0	203.64082193374634	0.09972214698791504
50	142.74062204360962	fix_pre	0		83.0	48.0	2.5	/experiments/knapen_aot/videos/R_S_yt-11S5tcT2Tm0_254.mp4	0.0	203.74054408073425	0.6916990280151367
50	143.42406797409058	response	0	2		48.0	2.5	/experiments/knapen_aot/videos/R_S_yt-11S5tcT2Tm0_254.mp4	0.0	204.4239900112152	
50	143.43232107162476	movie	1		301.0	48.0	2.5	/experiments/knapen_aot/videos/R_S_yt-11S5tcT2Tm0_254.mp4	0.0	204.4322431087494	2.5082478523254395
50	145.9405689239502	fix_post	2		12.0	48.0	2.5	/experiments/knapen_aot/videos/R_S_yt-11S5tcT2Tm0_254.mp4	0.0	206.94049096107483	0.1000511646270752
51	146.04062008857727	fix_pre	0		31.0	49.0	2.5	/experiments/knapen_aot/videos/R_S_ILSVRC2015_train_00411000.mp4	0.0	207.0405421257019	0.2583019733428955
51	146.29070711135864	response	0	2		49.0	2.5	/experiments/knapen_aot/videos/R_S_ILSVRC2015_train_00411000.mp4	0.0	207.29062914848328	
51	146.29892206192017	movie	1		301.0	49.0	2.5	/experiments/knapen_aot/videos/R_S_ILSVRC2015_train_00411000.mp4	0.0	207.2988440990448	2.5084569454193115
51	148.80737900733948	fix_post	2		12.0	49.0	2.5	/experiments/knapen_aot/videos/R_S_ILSVRC2015_train_00411000.mp4	0.0	209.8073010444641	0.09991097450256348
52	148.90728998184204	fix_pre	0		36.0	50.0	2.5	/experiments/knapen_aot/videos/S_yt--v_iMUMMX6g_39.mp4	0.0	209.90721201896667	0.29991602897644043
52	149.19912910461426	response	0	2		50.0	2.5	/experiments/knapen_aot/videos/S_yt--v_iMUMMX6g_39.mp4	0.0	210.1990511417389	
52	149.20720601081848	movie	1		301.0	50.0	2.5	/experiments/knapen_aot/videos/S_yt--v_iMUMMX6g_39.mp4	0.0	210.20712804794312	2.508375883102417
52	151.7155818939209	fix_post	2		12.0	50.0	2.5	/experiments/knapen_aot/videos/S_yt--v_iMUMMX6g_39.mp4	0.0	212.71550393104553	0.10000205039978027
53	151.81558394432068	fix_pre	0		21.0	51.0	2.5	/experiments/knapen_aot/videos/R_S_yt-1sn8u-rQRas_7.mp4	0.0	212.8155059814453	0.17498207092285156
53	151.98238110542297	response	0	2		51.0	2.5	/experiments/knapen_aot/videos/R_S_yt-1sn8u-rQRas_7.mp4	0.0	212.9823031425476	
53	151.99056601524353	movie	1		301.0	51.0	2.5	/experiments/knapen_aot/videos/R_S_yt-1sn8u-rQRas_7.mp4	0.0	212.99048805236816	2.5082340240478516
53	154.49880003929138	fix_post	2		12.0	51.0	2.5	/experiments/knapen_aot/videos/R_S_yt-1sn8u-rQRas_7.mp4	0.0	215.49872207641602	0.10020208358764648
54	154.59900212287903	fix_pre	0		40.0	52.0	2.5	/experiments/knapen_aot/videos/S_yt-11S5tcT2Tm0_254.mp4	0.0	215.59892416000366	0.33324599266052246
54	154.92400789260864	response	0	2		52.0	2.5	/experiments/knapen_aot/videos/S_yt-11S5tcT2Tm0_254.mp4	0.0	215.92392992973328	
54	154.93224811553955	movie	1		301.0	52.0	2.5	/experiments/knapen_aot/videos/S_yt-11S5tcT2Tm0_254.mp4	0.0	215.93217015266418	2.5083718299865723
54	157.44061994552612	fix_post	2		12.0	52.0	2.5	/experiments/knapen_aot/videos/S_yt-11S5tcT2Tm0_254.mp4	0.0	218.44054198265076	0.10006904602050781
55	157.54068899154663	fix_pre	0		34.0	53.0	2.5	/experiments/knapen_aot/videos/S_Pexels_Videos_2795737.mp4	0.0	218.54061102867126	0.28315210342407227
55	157.81572103500366	response	0	2		53.0	2.5	/experiments/knapen_aot/videos/S_Pexels_Videos_2795737.mp4	0.0	218.8156430721283	
55	157.8238410949707	movie	1		164.0	53.0	2.5	/experiments/knapen_aot/videos/S_Pexels_Videos_2795737.mp4	0.0	218.82376313209534	2.5083959102630615
55	160.33223700523376	fix_post	2		12.0	53.0	2.5	/experiments/knapen_aot/videos/S_Pexels_Videos_2795737.mp4	0.0	221.3321590423584	0.10004901885986328
56	160.43228602409363	fix_pre	0		44.0	54.0	2.5	blank	1.0	221.43220806121826	0.36658692359924316
56	160.79068803787231	response	0	2		54.0	2.5	blank	1.0	221.79061007499695	
56	160.79887294769287	movie	1		301.0	54.0	2.5	blank	1.0	221.7987949848175	2.5083651542663574
56	163.30723810195923	fix_post	2		12.0	54.0	2.5	blank	1.0	224.30716013908386	0.09997296333312988
57	163.40721106529236	fix_pre	0		54.0	55.0	2.5	/experiments/knapen_aot/videos/R_S_yt-BLmwmX-mni8_56.mp4	0.0	224.407133102417	0.4499518871307373
57	163.84139394760132	response	0	2		55.0	2.5	/experiments/knapen_aot/videos/R_S_yt-BLmwmX-mni8_56.mp4	0.0	224.84131598472595	
57	163.8571629524231	movie	1		301.0	55.0	2.5	/experiments/knapen_aot/videos/R_S_yt-BLmwmX-mni8_56.mp4	0.0	224.85708498954773	2.508492946624756
57	166.36565589904785	fix_post	2		12.0	55.0	2.5	/experiments/knapen_aot/videos/R_S_yt-BLmwmX-mni8_56.mp4	0.0	227.36557793617249	0.09991002082824707
58	166.4655659198761	fix_pre	0		23.0	56.0	2.5	/experiments/knapen_aot/videos/R_S_yt-oPq1uvbw-lQ_62.mp4	0.0	227.46548795700073	0.19162797927856445
58	166.64897203445435	response	0	2		56.0	2.5	/experiments/knapen_aot/videos/R_S_yt-oPq1uvbw-lQ_62.mp4	0.0	227.64889407157898	
58	166.65719389915466	movie	1		301.0	56.0	2.5	/experiments/knapen_aot/videos/R_S_yt-oPq1uvbw-lQ_62.mp4	0.0	227.6571159362793	2.5083742141723633
58	169.16556811332703	fix_post	2		12.0	56.0	2.5	/experiments/knapen_aot/videos/R_S_yt-oPq1uvbw-lQ_62.mp4	0.0	230.16549015045166	0.10005593299865723
59	169.26562404632568	fix_pre	0		40.0	57.0	2.5	/experiments/knapen_aot/videos/S_bing-www_break_com_video_like-a-cat-catching-a-fly-3131008_12.mp4	0.0	230.26554608345032	0.33310985565185547
59	169.5906538963318	response	0	2		57.0	2.5	/experiments/knapen_aot/videos/S_bing-www_break_com_video_like-a-cat-catching-a-fly-3131008_12.mp4	0.0	230.59057593345642	
59	169.59873390197754	movie	1		301.0	57.0	2.5	/experiments/knapen_aot/videos/S_bing-www_break_com_video_like-a-cat-catching-a-fly-3131008_12.mp4	0.0	230.59865593910217	2.5084681510925293
59	172.10720205307007	fix_post	2		12.0	57.0	2.5	/experiments/knapen_aot/videos/S_bing-www_break_com_video_like-a-cat-catching-a-fly-3131008_12.mp4	0.0	233.1071240901947	0.10001301765441895
60	172.2072150707245	fix_pre	0		24.0	58.0	2.5	/experiments/knapen_aot/videos/S_ILSVRC2015_train_00559000.mp4	0.0	233.20713710784912	0.19994282722473145
60	172.3989679813385	response	0	2		58.0	2.5	/experiments/knapen_aot/videos/S_ILSVRC2015_train_00559000.mp4	0.0	233.39889001846313	
60	172.40715789794922	movie	1		301.0	58.0	2.5	/experiments/knapen_aot/videos/S_ILSVRC2015_train_00559000.mp4	0.0	233.40707993507385	2.5083742141723633
60	174.91553211212158	fix_post	2		12.0	58.0	2.5	/experiments/knapen_aot/videos/S_ILSVRC2015_train_00559000.mp4	0.0	235.91545414924622	0.1001129150390625
61	175.01564502716064	fix_pre	0		22.0	59.0	2.5	/experiments/knapen_aot/videos/S_yt-eF5J5Kjt6oY_23.mp4	0.0	236.01556706428528	0.18316292762756348
61	175.1830759048462	response	0	2		59.0	2.5	/experiments/knapen_aot/videos/S_yt-eF5J5Kjt6oY_23.mp4	0.0	236.18299794197083	
61	175.1988079547882	movie	1		301.0	59.0	2.5	/experiments/knapen_aot/videos/S_yt-eF5J5Kjt6oY_23.mp4	0.0	236.19872999191284	2.5084381103515625
61	177.70724606513977	fix_post	2		12.0	59.0	2.5	/experiments/knapen_aot/videos/S_yt-eF5J5Kjt6oY_23.mp4	0.0	238.7071681022644	0.09984993934631348
62	177.80709600448608	fix_pre	0		50.0	60.0	2.5	/experiments/knapen_aot/videos/S_yt-2i53vKte7SA_117.mp4	0.0	238.80701804161072	0.41676998138427734
62	178.21553993225098	response	0	2		60.0	2.5	/experiments/knapen_aot/videos/S_yt-2i53vKte7SA_117.mp4	0.0	239.2154619693756	
62	178.22386598587036	movie	1		301.0	60.0	2.5	/experiments/knapen_aot/videos/S_yt-2i53vKte7SA_117.mp4	0.0	239.223788022995	2.508280038833618
62	180.73214602470398	fix_post	2		12.0	60.0	2.5	/experiments/knapen_aot/videos/S_yt-2i53vKte7SA_117.mp4	0.0	241.7320680618286	0.09999990463256836
63	180.83214592933655	fix_pre	0		38.0	61.0	2.5	blank	1.0	241.83206796646118	0.31658005714416504
63	181.14054203033447	response	0	2		61.0	2.5	blank	1.0	242.1404640674591	
63	181.1487259864807	movie	1		301.0	61.0	2.5	blank	1.0	242.14864802360535	2.5084140300750732
63	183.6571400165558	fix_post	2		12.0	61.0	2.5	blank	1.0	244.65706205368042	0.10001087188720703
64	183.757150888443	fix_pre	0		86.0	62.0	2.5	/experiments/knapen_aot/videos/S_yt-W00vtWnXgIk_73.mp4	0.0	244.75707292556763	0.7165441513061523
64	184.46552896499634	response	0	2		62.0	2.5	/experiments/knapen_aot/videos/S_yt-W00vtWnXgIk_73.mp4	0.0	245.46545100212097	
64	184.47369503974915	movie	1		301.0	62.0	2.5	/experiments/knapen_aot/videos/S_yt-W00vtWnXgIk_73.mp4	0.0	245.47361707687378	2.5084500312805176
64	186.98214507102966	fix_post	2		12.0	62.0	2.5	/experiments/knapen_aot/videos/S_yt-W00vtWnXgIk_73.mp4	0.0	247.9820671081543	0.1000368595123291
65	187.082181930542	fix_pre	0		27.0	63.0	2.5	/experiments/knapen_aot/videos/S_ILSVRC2015_train_00219003.mp4	0.0	248.08210396766663	0.22489619255065918
65	187.29883098602295	response	0	2		63.0	2.5	/experiments/knapen_aot/videos/S_ILSVRC2015_train_00219003.mp4	0.0	248.29875302314758	
65	187.30707812309265	movie	1		301.0	63.0	2.5	/experiments/knapen_aot/videos/S_ILSVRC2015_train_00219003.mp4	0.0	248.30700016021729	2.508391857147217
65	189.81546998023987	fix_post	2		12.0	63.0	2.5	/experiments/knapen_aot/videos/S_ILSVRC2015_train_00219003.mp4	0.0	250.8153920173645	0.0999290943145752
66	189.91539907455444	fix_pre	0		17.0	64.0	2.5	/experiments/knapen_aot/videos/S_ILSVRC2015_train_00371012.mp4	0.0	250.91532111167908	0.14166498184204102
66	190.04888796806335	response	0	2		64.0	2.5	/experiments/knapen_aot/videos/S_ILSVRC2015_train_00371012.mp4	0.0	251.048810005188	
66	190.05706405639648	movie	1		301.0	64.0	2.5	/experiments/knapen_aot/videos/S_ILSVRC2015_train_00371012.mp4	0.0	251.05698609352112	2.5083470344543457
66	192.56541109085083	fix_post	2		12.0	64.0	2.5	/experiments/knapen_aot/videos/S_ILSVRC2015_train_00371012.mp4	0.0	253.56533312797546	0.09993290901184082
67	192.66534399986267	fix_pre	0		16.0	65.0	2.5	/experiments/knapen_aot/videos/R_S_yt-KVB49z48sZU_55.mp4	0.0	253.6652660369873	0.1333460807800293
67	192.79048204421997	response	0	2		65.0	2.5	/experiments/knapen_aot/videos/R_S_yt-KVB49z48sZU_55.mp4	0.0	253.7904040813446	
67	192.7986900806427	movie	1		301.0	65.0	2.5	/experiments/knapen_aot/videos/R_S_yt-KVB49z48sZU_55.mp4	0.0	253.79861211776733	2.5084049701690674
67	195.30709505081177	fix_post	2		12.0	65.0	2.5	/experiments/knapen_aot/videos/R_S_yt-KVB49z48sZU_55.mp4	0.0	256.3070170879364	0.10005307197570801
68	195.40714812278748	fix_pre	0		88.0	66.0	2.5	/experiments/knapen_aot/videos/R_S_yt-waWM9vAfsIw_116.mp4	0.0	256.4070701599121	0.7331748008728027
68	196.1321620941162	response	0	2		66.0	2.5	/experiments/knapen_aot/videos/R_S_yt-waWM9vAfsIw_116.mp4	0.0	257.13208413124084	
68	196.14032292366028	movie	1		301.0	66.0	2.5	/experiments/knapen_aot/videos/R_S_yt-waWM9vAfsIw_116.mp4	0.0	257.1402449607849	2.508366107940674
68	198.64868903160095	fix_post	2		12.0	66.0	2.5	/experiments/knapen_aot/videos/R_S_yt-waWM9vAfsIw_116.mp4	0.0	259.6486110687256	0.09996700286865234
69	198.7486560344696	fix_pre	0		28.0	67.0	2.5	/experiments/knapen_aot/videos/S_yt-rbJOb1spY9M_16.mp4	0.0	259.74857807159424	0.23339390754699707
69	198.97379994392395	response	0	2		67.0	2.5	/experiments/knapen_aot/videos/S_yt-rbJOb1spY9M_16.mp4	0.0	259.9737219810486	
69	198.9820499420166	movie	1		301.0	67.0	2.5	/experiments/knapen_aot/videos/S_yt-rbJOb1spY9M_16.mp4	0.0	259.98197197914124	2.5083229541778564
69	201.49037289619446	fix_post	2		12.0	67.0	2.5	/experiments/knapen_aot/videos/S_yt-rbJOb1spY9M_16.mp4	0.0	262.4902949333191	0.10006308555603027
70	201.5904359817505	fix_pre	0		15.0	68.0	2.5	/experiments/knapen_aot/videos/R_S_ILSVRC2015_train_00219003.mp4	0.0	262.5903580188751	0.12634491920471191
70	201.70713305473328	response	0	2		68.0	2.5	/experiments/knapen_aot/videos/R_S_ILSVRC2015_train_00219003.mp4	0.0	262.7070550918579	
70	201.7167809009552	movie	1		301.0	68.0	2.5	/experiments/knapen_aot/videos/R_S_ILSVRC2015_train_00219003.mp4	0.0	262.71670293807983	2.5068881511688232
70	204.22366905212402	fix_post	2		12.0	68.0	2.5	/experiments/knapen_aot/videos/R_S_ILSVRC2015_train_00219003.mp4	0.0	265.22359108924866	0.1000218391418457
71	204.32369089126587	fix_pre	0		30.0	69.0	2.5	/experiments/knapen_aot/videos/R_S_production_ID_3943965.mp4	0.0	265.3236129283905	0.2500040531158447
71	204.56547904014587	response	0	2		69.0	2.5	/experiments/knapen_aot/videos/R_S_production_ID_3943965.mp4	0.0	265.5654010772705	
71	204.5736949443817	movie	1		197.0	69.0	2.5	/experiments/knapen_aot/videos/R_S_production_ID_3943965.mp4	0.0	265.57361698150635	2.508239984512329
71	207.08193492889404	fix_post	2		12.0	69.0	2.5	/experiments/knapen_aot/videos/R_S_production_ID_3943965.mp4	0.0	268.0818569660187	0.10006999969482422
72	207.18200492858887	fix_pre	0		28.0	70.0	2.5	blank	1.0	268.1819269657135	0.23328113555908203
72	207.4070589542389	response	0	2		70.0	2.5	blank	1.0	268.4069809913635	
72	207.41528606414795	movie	1		301.0	70.0	2.5	blank	1.0	268.4152081012726	2.508309841156006
72	209.92359590530396	fix_post	2		12.0	70.0	2.5	blank	1.0	270.9235179424286	0.10005307197570801
73	210.02364897727966	fix_pre	0		68.0	71.0	2.5	/experiments/knapen_aot/videos/R_S_yt-MEfljVFL0xw_375.mp4	0.0	271.0235710144043	0.5666530132293701
73	210.5820291042328	response	0	2		71.0	2.5	/experiments/knapen_aot/videos/R_S_yt-MEfljVFL0xw_375.mp4	0.0	271.5819511413574	
73	210.59030199050903	movie	1		301.0	71.0	2.5	/experiments/knapen_aot/videos/R_S_yt-MEfljVFL0xw_375.mp4	0.0	271.59022402763367	2.508384943008423
73	213.09868693351746	fix_post	2		12.0	71.0	2.5	/experiments/knapen_aot/videos/R_S_yt-MEfljVFL0xw_375.mp4	0.0	274.0986089706421	0.10000801086425781
74	213.1986949443817	fix_pre	0		29.0	72.0	2.5	/experiments/knapen_aot/videos/S_yt-cjndulbUtRc_51.mp4	0.0	274.19861698150635	0.2415940761566162
74	213.43217706680298	response	0	2		72.0	2.5	/experiments/knapen_aot/videos/S_yt-cjndulbUtRc_51.mp4	0.0	274.4320991039276	
74	213.44028902053833	movie	1		301.0	72.0	2.5	/experiments/knapen_aot/videos/S_yt-cjndulbUtRc_51.mp4	0.0	274.44021105766296	2.508481979370117
74	215.94877099990845	fix_post	2		12.0	72.0	2.5	/experiments/knapen_aot/videos/S_yt-cjndulbUtRc_51.mp4	0.0	276.9486930370331	0.09986209869384766
75	216.0486330986023	fix_pre	0		33.0	73.0	2.5	/experiments/knapen_aot/videos/S_yt-2cwARrUMj40_67.mp4	0.0	277.04855513572693	0.27498793601989746
75	216.3078110218048	response	0	2		73.0	2.5	/experiments/knapen_aot/videos/S_yt-2cwARrUMj40_67.mp4	0.0	277.30773305892944	
75	216.3236210346222	movie	1		301.0	73.0	2.5	/experiments/knapen_aot/videos/S_yt-2cwARrUMj40_67.mp4	0.0	277.3235430717468	2.50833797454834
75	218.83195900917053	fix_post	2		12.0	73.0	2.5	/experiments/knapen_aot/videos/S_yt-2cwARrUMj40_67.mp4	0.0	279.83188104629517	0.09999394416809082
76	218.93195295333862	fix_pre	0		29.0	74.0	2.5	/experiments/knapen_aot/videos/S_ILSVRC2015_train_00743002.mp4	0.0	279.93187499046326	0.24172115325927734
76	219.15786504745483	response	0	2		74.0	2.5	/experiments/knapen_aot/videos/S_ILSVRC2015_train_00743002.mp4	0.0	280.15778708457947	
76	219.1736741065979	movie	1		301.0	74.0	2.5	/experiments/knapen_aot/videos/S_ILSVRC2015_train_00743002.mp4	0.0	280.17359614372253	2.5083367824554443
76	221.68201088905334	fix_post	2		12.0	74.0	2.5	/experiments/knapen_aot/videos/S_ILSVRC2015_train_00743002.mp4	0.0	282.681932926178	0.09992814064025879
77	221.7819390296936	fix_pre	0		26.0	75.0	2.5	/experiments/knapen_aot/videos/R_S_yt-QJHe-CoK4iI_170.mp4	0.0	282.78186106681824	0.2166459560394287
77	221.99037408828735	response	0	2		75.0	2.5	/experiments/knapen_aot/videos/R_S_yt-QJHe-CoK4iI_170.mp4	0.0	282.990296125412	
77	221.99858498573303	movie	1		301.0	75.0	2.5	/experiments/knapen_aot/videos/R_S_yt-QJHe-CoK4iI_170.mp4	0.0	282.99850702285767	2.5083041191101074
77	224.50688910484314	fix_post	2		12.0	75.0	2.5	/experiments/knapen_aot/videos/R_S_yt-QJHe-CoK4iI_170.mp4	0.0	285.5068111419678	0.10009479522705078
78	224.6069839000702	fix_pre	0		40.0	76.0	2.5	blank	1.0	285.6069059371948	0.3332071304321289
78	224.93207812309265	response	0	2		76.0	2.5	blank	1.0	285.9320001602173	
78	224.94019103050232	movie	1		301.0	76.0	2.5	blank	1.0	285.94011306762695	2.508384943008423
78	227.44857597351074	fix_post	2		12.0	76.0	2.5	blank	1.0	288.4484980106354	0.10003495216369629
79	227.54861092567444	fix_pre	0		166.0	77.0	2.5	/experiments/knapen_aot/videos/R_S_yt-2i53vKte7SA_117.mp4	0.0	288.5485329627991	1.3832969665527344
79	228.91618394851685	response	0	2		77.0	2.5	/experiments/knapen_aot/videos/R_S_yt-2i53vKte7SA_117.mp4	0.0	289.9161059856415	
79	228.93190789222717	movie	1		301.0	77.0	2.5	/experiments/knapen_aot/videos/R_S_yt-2i53vKte7SA_117.mp4	0.0	289.9318299293518	2.50842022895813
79	231.4403281211853	fix_post	2		12.0	77.0	2.5	/experiments/knapen_aot/videos/R_S_yt-2i53vKte7SA_117.mp4	0.0	292.44025015830994	0.09986591339111328
80	231.54019403457642	fix_pre	0		31.0	78.0	2.5	/experiments/knapen_aot/videos/S_yt-gC3my54_ChQ_58.mp4	0.0	292.54011607170105	0.2593810558319092
80	231.79037308692932	response	0	2		78.0	2.5	/experiments/knapen_aot/videos/S_yt-gC3my54_ChQ_58.mp4	0.0	292.79029512405396	
80	231.79957509040833	movie	1		301.0	78.0	2.5	/experiments/knapen_aot/videos/S_yt-gC3my54_ChQ_58.mp4	0.0	292.79949712753296	2.5072379112243652
80	234.3068130016327	fix_post	2		12.0	78.0	2.5	/experiments/knapen_aot/videos/S_yt-gC3my54_ChQ_58.mp4	0.0	295.3067350387573	0.10009288787841797
81	234.4069058895111	fix_pre	0		76.0	79.0	2.5	/experiments/knapen_aot/videos/S_yt-w_e3sxIzepA_115.mp4	0.0	295.40682792663574	0.6333420276641846
81	235.0320019721985	response	0	2		79.0	2.5	/experiments/knapen_aot/videos/S_yt-w_e3sxIzepA_115.mp4	0.0	296.0319240093231	
81	235.0402479171753	movie	1		301.0	79.0	2.5	/experiments/knapen_aot/videos/S_yt-w_e3sxIzepA_115.mp4	0.0	296.0401699542999	2.508270025253296
81	237.5485179424286	fix_post	2		12.0	79.0	2.5	/experiments/knapen_aot/videos/S_yt-w_e3sxIzepA_115.mp4	0.0	298.5484399795532	0.1000361442565918
82	237.64855408668518	fix_pre	0		48.0	80.0	2.5	/experiments/knapen_aot/videos/R_S_wc-__wCAtivIDG3_93.mp4	0.0	298.6484761238098	0.40108180046081543
82	238.040354013443	response	0	2		80.0	2.5	/experiments/knapen_aot/videos/R_S_wc-__wCAtivIDG3_93.mp4	0.0	299.0402760505676	
82	238.049635887146	movie	1		168.0	80.0	2.5	/experiments/knapen_aot/videos/R_S_wc-__wCAtivIDG3_93.mp4	0.0	299.04955792427063	2.507235050201416
82	240.5568709373474	fix_post	2		12.0	80.0	2.5	/experiments/knapen_aot/videos/R_S_wc-__wCAtivIDG3_93.mp4	0.0	301.55679297447205	0.10004496574401855
83	240.65691590309143	fix_pre	0		47.0	81.0	2.5	/experiments/knapen_aot/videos/R_S_yt-oT4Bq8zYN4E_42.mp4	0.0	301.65683794021606	0.392625093460083
83	241.04031109809875	response	0	2		81.0	2.5	/experiments/knapen_aot/videos/R_S_yt-oT4Bq8zYN4E_42.mp4	0.0	302.0402331352234	
83	241.0495409965515	movie	1		301.0	81.0	2.5	/experiments/knapen_aot/videos/R_S_yt-oT4Bq8zYN4E_42.mp4	0.0	302.04946303367615	2.5072619915008545
83	243.55680298805237	fix_post	2		12.0	81.0	2.5	/experiments/knapen_aot/videos/R_S_yt-oT4Bq8zYN4E_42.mp4	0.0	304.556725025177	0.10001611709594727
84	243.65681910514832	fix_pre	0		37.0	82.0	2.5	/experiments/knapen_aot/videos/R_S_comp_GMT314_139M_170NC_NORTH_AMERICA_AURORA__COMP_v22_SDR_20181206_v12CC_SDR_2K_AVC.mp4	0.0	304.65674114227295	0.3093149662017822
84	243.95701003074646	response	0	2		82.0	2.5	/experiments/knapen_aot/videos/R_S_comp_GMT314_139M_170NC_NORTH_AMERICA_AURORA__COMP_v22_SDR_20181206_v12CC_SDR_2K_AVC.mp4	0.0	304.9569320678711	
84	243.9661340713501	movie	1		167.0	82.0	2.5	/experiments/knapen_aot/videos/R_S_comp_GMT314_139M_170NC_NORTH_AMERICA_AURORA__COMP_v22_SDR_20181206_v12CC_SDR_2K_AVC.mp4	0.0	304.96605610847473	2.5077109336853027
84	246.4738450050354	fix_post	2		12.0	82.0	2.5	/experiments/knapen_aot/videos/R_S_comp_GMT314_139M_170NC_NORTH_AMERICA_AURORA__COMP_v22_SDR_20181206_v12CC_SDR_2K_AVC.mp4	0.0	307.47376704216003	0.09972405433654785
85	246.57356905937195	fix_pre	0		42.0	83.0	2.5	blank	1.0	307.5734910964966	0.34993600845336914
85	246.91524600982666	response	0	2		83.0	2.5	blank	1.0	307.9151680469513	
85	246.92350506782532	movie	1		301.0	83.0	2.5	blank	1.0	307.92342710494995	2.5083439350128174
85	249.43184900283813	fix_post	2		12.0	83.0	2.5	blank	1.0	310.43177103996277	0.09993195533752441
87	249.53178095817566	stim	0		332.0					310.5317029953003	2.767573118209839
87	252.292799949646	response	0	space						313.29272198677063	
