trial_nr	onset	event_type	phase	response	nr_frames	movie_index	movie_duration	movie_file	blank	onset_abs	duration
0	0.129472017288208	stim	0		35.0					85.19029903411865	0.2979588508605957
0	0.4167509078979492	response	0	space						85.4775779247284	
1	0.4274308681488037	stim	0		121.0					85.48825788497925	1.0059771537780762
1	1.4334080219268799	stim	1		120.0					86.49423503875732	0.999582052230835
1	1.5003628730773926	response	1	space						86.56118988990784	
1	2.2497918605804443	response	1	space						87.31061887741089	
2	2.432990074157715	fix_pre	0		34.0	0.0	2.5	/experiments/knapen_aot/videos/S_yt-v8e_DlCsP4w_10.mp4	0.0	87.49381709098816	0.28339195251464844
2	2.708087921142578	response	0	space		0.0	2.5	/experiments/knapen_aot/videos/S_yt-v8e_DlCsP4w_10.mp4	0.0	87.76891493797302	
2	2.7163820266723633	movie	1		300.0	0.0	2.5	/experiments/knapen_aot/videos/S_yt-v8e_DlCsP4w_10.mp4	0.0	87.77720904350281	2.5084500312805176
2	5.224832057952881	fix_post	2		12.0	0.0	2.5	/experiments/knapen_aot/videos/S_yt-v8e_DlCsP4w_10.mp4	0.0	90.28565907478333	0.1001729965209961
3	5.325005054473877	fix_pre	0		25.0	1.0	2.5	/experiments/knapen_aot/videos/R_S_yt-xrPrnzvWUkY_7.mp4	0.0	90.38583207130432	0.21343994140625
3	5.529918909072876	response	0	2		1.0	2.5	/experiments/knapen_aot/videos/R_S_yt-xrPrnzvWUkY_7.mp4	0.0	90.59074592590332	
3	5.538444995880127	movie	1		297.0	1.0	2.5	/experiments/knapen_aot/videos/R_S_yt-xrPrnzvWUkY_7.mp4	0.0	90.59927201271057	2.502894878387451
3	8.041339874267578	fix_post	2		12.0	1.0	2.5	/experiments/knapen_aot/videos/R_S_yt-xrPrnzvWUkY_7.mp4	0.0	93.10216689109802	0.10001397132873535
4	8.141353845596313	fix_pre	0		16.0	2.0	2.5	/experiments/knapen_aot/videos/S_yt-aiDGx4AN8J0_9.mp4	0.0	93.20218086242676	0.13326311111450195
4	8.266484022140503	response	0	2		2.0	2.5	/experiments/knapen_aot/videos/S_yt-aiDGx4AN8J0_9.mp4	0.0	93.32731103897095	
4	8.274616956710815	movie	1		301.0	2.0	2.5	/experiments/knapen_aot/videos/S_yt-aiDGx4AN8J0_9.mp4	0.0	93.33544397354126	2.508380889892578
4	10.782997846603394	fix_post	2		12.0	2.0	2.5	/experiments/knapen_aot/videos/S_yt-aiDGx4AN8J0_9.mp4	0.0	95.84382486343384	0.10000109672546387
5	10.882998943328857	fix_pre	0		5.0	3.0	2.5	/experiments/knapen_aot/videos/S_yt-3NMDWrZr1Z4_255.mp4	0.0	95.9438259601593	0.041639089584350586
5	10.916404962539673	response	0	2		3.0	2.5	/experiments/knapen_aot/videos/S_yt-3NMDWrZr1Z4_255.mp4	0.0	95.97723197937012	
5	10.924638032913208	movie	1		301.0	3.0	2.5	/experiments/knapen_aot/videos/S_yt-3NMDWrZr1Z4_255.mp4	0.0	95.98546504974365	2.5083258152008057
5	13.432963848114014	fix_post	2		12.0	3.0	2.5	/experiments/knapen_aot/videos/S_yt-3NMDWrZr1Z4_255.mp4	0.0	98.49379086494446	0.10002708435058594
6	13.5329909324646	fix_pre	0		12.0	4.0	2.5	/experiments/knapen_aot/videos/S_production_ID_3943334.mp4	0.0	98.59381794929504	0.10009312629699707
6	13.624754905700684	response	0	2		4.0	2.5	/experiments/knapen_aot/videos/S_production_ID_3943334.mp4	0.0	98.68558192253113	
6	13.633084058761597	movie	1		206.0	4.0	2.5	/experiments/knapen_aot/videos/S_production_ID_3943334.mp4	0.0	98.69391107559204	2.5082499980926514
6	16.141334056854248	fix_post	2		12.0	4.0	2.5	/experiments/knapen_aot/videos/S_production_ID_3943334.mp4	0.0	101.20216107368469	0.10005497932434082
7	16.24138903617859	fix_pre	0		22.0	5.0	2.5	blank	1.0	101.30221605300903	0.18325185775756836
7	16.408949851989746	response	0	2		5.0	2.5	blank	1.0	101.46977686882019	
7	16.424640893936157	movie	1		301.0	5.0	2.5	blank	1.0	101.4854679107666	2.5083250999450684
7	18.932965993881226	fix_post	2		12.0	5.0	2.5	blank	1.0	103.99379301071167	0.09999799728393555
8	19.03296399116516	fix_pre	0		38.0	6.0	2.5	/experiments/knapen_aot/videos/R_S_pexels-c-technical-6753390.mp4	0.0	104.0937910079956	0.31661486625671387
8	19.333833932876587	response	0	2		6.0	2.5	/experiments/knapen_aot/videos/R_S_pexels-c-technical-6753390.mp4	0.0	104.39466094970703	
8	19.349578857421875	movie	1		199.0	6.0	2.5	/experiments/knapen_aot/videos/R_S_pexels-c-technical-6753390.mp4	0.0	104.41040587425232	2.5083141326904297
8	21.857892990112305	fix_post	2		12.0	6.0	2.5	/experiments/knapen_aot/videos/R_S_pexels-c-technical-6753390.mp4	0.0	106.91872000694275	0.10008692741394043
9	21.957979917526245	fix_pre	0		11.0	7.0	2.5	/experiments/knapen_aot/videos/S_yt-SS7pSyb0_d0_32.mp4	0.0	107.01880693435669	0.09163212776184082
9	22.041374921798706	response	0	2		7.0	2.5	/experiments/knapen_aot/videos/S_yt-SS7pSyb0_d0_32.mp4	0.0	107.10220193862915	
9	22.049612045288086	movie	1		301.0	7.0	2.5	/experiments/knapen_aot/videos/S_yt-SS7pSyb0_d0_32.mp4	0.0	107.11043906211853	2.508389949798584
9	24.55800199508667	fix_post	2		12.0	7.0	2.5	/experiments/knapen_aot/videos/S_yt-SS7pSyb0_d0_32.mp4	0.0	109.61882901191711	0.09987401962280273
10	24.657876014709473	fix_pre	0		28.0	8.0	2.5	/experiments/knapen_aot/videos/S_yt-wVMhACNFF-M_154.mp4	0.0	109.71870303153992	0.2345879077911377
10	24.88301992416382	response	0	2		8.0	2.5	/experiments/knapen_aot/videos/S_yt-wVMhACNFF-M_154.mp4	0.0	109.94384694099426	
10	24.89246392250061	movie	1		301.0	8.0	2.5	/experiments/knapen_aot/videos/S_yt-wVMhACNFF-M_154.mp4	0.0	109.95329093933105	2.5071699619293213
10	27.39963388442993	fix_post	2		12.0	8.0	2.5	/experiments/knapen_aot/videos/S_yt-wVMhACNFF-M_154.mp4	0.0	112.46046090126038	0.0999751091003418
11	27.499608993530273	fix_pre	0		27.0	9.0	2.5	/experiments/knapen_aot/videos/R_S_yt-xQPKYWDRy2A_491.mp4	0.0	112.56043601036072	0.22614789009094238
11	27.71636986732483	response	0	2		9.0	2.5	/experiments/knapen_aot/videos/R_S_yt-xQPKYWDRy2A_491.mp4	0.0	112.77719688415527	
11	27.725756883621216	movie	1		301.0	9.0	2.5	/experiments/knapen_aot/videos/R_S_yt-xQPKYWDRy2A_491.mp4	0.0	112.78658390045166	2.50716495513916
11	30.232921838760376	fix_post	2		12.0	9.0	2.5	/experiments/knapen_aot/videos/R_S_yt-xQPKYWDRy2A_491.mp4	0.0	115.29374885559082	0.10002303123474121
12	30.332944869995117	fix_pre	0		17.0	10.0	2.5	/experiments/knapen_aot/videos/R_S_wc-1MzpHfRq1MUK_32.mp4	0.0	115.39377188682556	0.14163804054260254
12	30.46635389328003	response	0	2		10.0	2.5	/experiments/knapen_aot/videos/R_S_wc-1MzpHfRq1MUK_32.mp4	0.0	115.52718091011047	
12	30.47458291053772	movie	1		301.0	10.0	2.5	/experiments/knapen_aot/videos/R_S_wc-1MzpHfRq1MUK_32.mp4	0.0	115.53540992736816	2.508307933807373
12	32.98289084434509	fix_post	2		12.0	10.0	2.5	/experiments/knapen_aot/videos/R_S_wc-1MzpHfRq1MUK_32.mp4	0.0	118.04371786117554	0.10004711151123047
13	33.08293795585632	fix_pre	0		26.0	11.0	2.5	/experiments/knapen_aot/videos/S_yt-c6kLumgTX54_7.mp4	0.0	118.14376497268677	0.2165970802307129
13	33.29135203361511	response	0	2		11.0	2.5	/experiments/knapen_aot/videos/S_yt-c6kLumgTX54_7.mp4	0.0	118.35217905044556	
13	33.299535036087036	movie	1		301.0	11.0	2.5	/experiments/knapen_aot/videos/S_yt-c6kLumgTX54_7.mp4	0.0	118.36036205291748	2.508765935897827
13	35.80830097198486	fix_post	2		12.0	11.0	2.5	/experiments/knapen_aot/videos/S_yt-c6kLumgTX54_7.mp4	0.0	120.86912798881531	0.09953498840332031
14	35.907835960388184	fix_pre	0		17.0	12.0	2.5	/experiments/knapen_aot/videos/S_yt-WCT9dyz0-gQ_36.mp4	0.0	120.96866297721863	0.14168405532836914
14	36.033931016922	response	0	2		12.0	2.5	/experiments/knapen_aot/videos/S_yt-WCT9dyz0-gQ_36.mp4	0.0	121.09475803375244	
14	36.04952001571655	movie	1		301.0	12.0	2.5	/experiments/knapen_aot/videos/S_yt-WCT9dyz0-gQ_36.mp4	0.0	121.110347032547	2.5084049701690674
14	38.55792498588562	fix_post	2		12.0	12.0	2.5	/experiments/knapen_aot/videos/S_yt-WCT9dyz0-gQ_36.mp4	0.0	123.61875200271606	0.0999760627746582
14	38.57464599609375	response	2	2		12.0	2.5	/experiments/knapen_aot/videos/S_yt-WCT9dyz0-gQ_36.mp4	0.0	123.6354730129242	
15	38.65790104866028	fix_pre	0		29.0	13.0	2.5	/experiments/knapen_aot/videos/R_S_yt-fCjjH_4i8Fg_115.mp4	0.0	123.71872806549072	0.24172401428222656
15	38.891217947006226	response	0	2		13.0	2.5	/experiments/knapen_aot/videos/R_S_yt-fCjjH_4i8Fg_115.mp4	0.0	123.95204496383667	
15	38.899625062942505	movie	1		301.0	13.0	2.5	/experiments/knapen_aot/videos/R_S_yt-fCjjH_4i8Fg_115.mp4	0.0	123.96045207977295	2.508286952972412
15	41.40791201591492	fix_post	2		12.0	13.0	2.5	/experiments/knapen_aot/videos/R_S_yt-fCjjH_4i8Fg_115.mp4	0.0	126.46873903274536	0.09996199607849121
16	41.50787401199341	fix_pre	0		18.0	14.0	2.5	blank	1.0	126.56870102882385	0.14996099472045898
16	41.64960289001465	response	0	2		14.0	2.5	blank	1.0	126.71042990684509	
16	41.65783500671387	movie	1		301.0	14.0	2.5	blank	1.0	126.71866202354431	2.5082390308380127
16	44.16607403755188	fix_post	2		12.0	14.0	2.5	blank	1.0	129.22690105438232	0.10010695457458496
17	44.266180992126465	fix_pre	0		19.0	15.0	2.5	/experiments/knapen_aot/videos/S_comp_CH_C007_C011_PSNK_v02_SDR_PS_FINAL_20180709_SDR_2K_AVC.mp4	0.0	129.3270080089569	0.1582949161529541
17	44.41623902320862	response	0	2		15.0	2.5	/experiments/knapen_aot/videos/S_comp_CH_C007_C011_PSNK_v02_SDR_PS_FINAL_20180709_SDR_2K_AVC.mp4	0.0	129.47706604003906	
17	44.42447590827942	movie	1		169.0	15.0	2.5	/experiments/knapen_aot/videos/S_comp_CH_C007_C011_PSNK_v02_SDR_PS_FINAL_20180709_SDR_2K_AVC.mp4	0.0	129.48530292510986	2.508481979370117
17	46.932957887649536	fix_post	2		12.0	15.0	2.5	/experiments/knapen_aot/videos/S_comp_CH_C007_C011_PSNK_v02_SDR_PS_FINAL_20180709_SDR_2K_AVC.mp4	0.0	131.99378490447998	0.1000220775604248
18	47.03297996520996	fix_pre	0		9.0	16.0	2.5	/experiments/knapen_aot/videos/R_S_yt-mJzkLd3Mr_c_35.mp4	0.0	132.0938069820404	0.07489705085754395
18	47.09972596168518	response	0	2		16.0	2.5	/experiments/knapen_aot/videos/R_S_yt-mJzkLd3Mr_c_35.mp4	0.0	132.16055297851562	
18	47.107877016067505	movie	1		301.0	16.0	2.5	/experiments/knapen_aot/videos/R_S_yt-mJzkLd3Mr_c_35.mp4	0.0	132.16870403289795	2.508357048034668
18	49.033084869384766	response	1	2		16.0	2.5	/experiments/knapen_aot/videos/R_S_yt-mJzkLd3Mr_c_35.mp4	0.0	134.0939118862152	
18	49.51744890213013	response	1	2		16.0	2.5	/experiments/knapen_aot/videos/R_S_yt-mJzkLd3Mr_c_35.mp4	0.0	134.57827591896057	
18	49.61623406410217	fix_post	2		12.0	16.0	2.5	/experiments/knapen_aot/videos/R_S_yt-mJzkLd3Mr_c_35.mp4	0.0	134.67706108093262	0.09999895095825195
19	49.716233015060425	fix_pre	0		29.0	17.0	2.5	/experiments/knapen_aot/videos/S_dwi2oPzQ1Wo_48.mp4	0.0	134.77706003189087	0.2416088581085205
19	49.94966197013855	response	0	2		17.0	2.5	/experiments/knapen_aot/videos/S_dwi2oPzQ1Wo_48.mp4	0.0	135.010488986969	
19	49.957841873168945	movie	1		301.0	17.0	2.5	/experiments/knapen_aot/videos/S_dwi2oPzQ1Wo_48.mp4	0.0	135.0186688899994	2.5083839893341064
19	52.46622586250305	fix_post	2		12.0	17.0	2.5	/experiments/knapen_aot/videos/S_dwi2oPzQ1Wo_48.mp4	0.0	137.5270528793335	0.0999300479888916
20	52.56615591049194	fix_pre	0		13.0	18.0	2.5	/experiments/knapen_aot/videos/S_yt-VTNBCfQxnsk_59.mp4	0.0	137.6269829273224	0.10830807685852051
20	52.666236877441406	response	0	2		18.0	2.5	/experiments/knapen_aot/videos/S_yt-VTNBCfQxnsk_59.mp4	0.0	137.72706389427185	
20	52.674463987350464	movie	1		301.0	18.0	2.5	/experiments/knapen_aot/videos/S_yt-VTNBCfQxnsk_59.mp4	0.0	137.7352910041809	2.5084049701690674
20	55.18286895751953	fix_post	2		12.0	18.0	2.5	/experiments/knapen_aot/videos/S_yt-VTNBCfQxnsk_59.mp4	0.0	140.24369597434998	0.09994292259216309
21	55.282811880111694	fix_pre	0		42.0	19.0	2.5	/experiments/knapen_aot/videos/R_S_yt-IX6uxR5DSKk_2.mp4	0.0	140.34363889694214	0.3499741554260254
21	55.62455487251282	response	0	2		19.0	2.5	/experiments/knapen_aot/videos/R_S_yt-IX6uxR5DSKk_2.mp4	0.0	140.68538188934326	
21	55.63278603553772	movie	1		301.0	19.0	2.5	/experiments/knapen_aot/videos/R_S_yt-IX6uxR5DSKk_2.mp4	0.0	140.69361305236816	2.508391857147217
21	57.97559094429016	response	1	2		19.0	2.5	/experiments/knapen_aot/videos/R_S_yt-IX6uxR5DSKk_2.mp4	0.0	143.0364179611206	
21	58.14117789268494	fix_post	2		12.0	19.0	2.5	/experiments/knapen_aot/videos/R_S_yt-IX6uxR5DSKk_2.mp4	0.0	143.20200490951538	0.09987902641296387
22	58.2410569190979	fix_pre	0		26.0	20.0	2.5	blank	1.0	143.30188393592834	0.21677803993225098
22	58.449557065963745	response	0	2		20.0	2.5	blank	1.0	143.5103840827942	
22	58.45783495903015	movie	1		301.0	20.0	2.5	blank	1.0	143.5186619758606	2.5083060264587402
22	60.96614098548889	fix_post	2		12.0	20.0	2.5	blank	1.0	146.02696800231934	0.09996891021728516
23	61.06610989570618	fix_pre	0		19.0	21.0	2.5	/experiments/knapen_aot/videos/R_S_yt-mdLT282PVbE_6.mp4	0.0	146.12693691253662	0.1593630313873291
23	61.208678007125854	response	0	2		21.0	2.5	/experiments/knapen_aot/videos/R_S_yt-mdLT282PVbE_6.mp4	0.0	146.2695050239563	
23	61.225472927093506	movie	1		300.0	21.0	2.5	/experiments/knapen_aot/videos/R_S_yt-mdLT282PVbE_6.mp4	0.0	146.28629994392395	2.5072460174560547
23	63.73271894454956	fix_post	2		12.0	21.0	2.5	/experiments/knapen_aot/videos/R_S_yt-mdLT282PVbE_6.mp4	0.0	148.79354596138	0.10007095336914062
24	63.8327898979187	fix_pre	0		23.0	22.0	2.5	/experiments/knapen_aot/videos/R_S_video_inspire_alabama_montgomery_countryside_00007.1080-h264.mp4	0.0	148.89361691474915	0.19165706634521484
24	64.01620388031006	response	0	2		22.0	2.5	/experiments/knapen_aot/videos/R_S_video_inspire_alabama_montgomery_countryside_00007.1080-h264.mp4	0.0	149.0770308971405	
24	64.02444696426392	movie	1		167.0	22.0	2.5	/experiments/knapen_aot/videos/R_S_video_inspire_alabama_montgomery_countryside_00007.1080-h264.mp4	0.0	149.08527398109436	2.5083470344543457
24	66.53279399871826	fix_post	2		12.0	22.0	2.5	/experiments/knapen_aot/videos/R_S_video_inspire_alabama_montgomery_countryside_00007.1080-h264.mp4	0.0	151.5936210155487	0.10001397132873535
25	66.632807970047	fix_pre	0		11.0	23.0	2.5	/experiments/knapen_aot/videos/S_yt-NLfzvAJgyJ4_120.mp4	0.0	151.69363498687744	0.09260201454162598
25	66.71621584892273	response	0	2		23.0	2.5	/experiments/knapen_aot/videos/S_yt-NLfzvAJgyJ4_120.mp4	0.0	151.77704286575317	
25	66.72540998458862	movie	1		301.0	23.0	2.5	/experiments/knapen_aot/videos/S_yt-NLfzvAJgyJ4_120.mp4	0.0	151.78623700141907	2.5073680877685547
25	69.23277807235718	fix_post	2		12.0	23.0	2.5	/experiments/knapen_aot/videos/S_yt-NLfzvAJgyJ4_120.mp4	0.0	154.29360508918762	0.09999394416809082
26	69.33277201652527	fix_pre	0		19.0	24.0	2.5	/experiments/knapen_aot/videos/R_S_yt-_HuBzj8EPBc_62.mp4	0.0	154.3935990333557	0.15828204154968262
26	69.4828360080719	response	0	2		24.0	2.5	/experiments/knapen_aot/videos/R_S_yt-_HuBzj8EPBc_62.mp4	0.0	154.54366302490234	
26	69.49105405807495	movie	1		301.0	24.0	2.5	/experiments/knapen_aot/videos/R_S_yt-_HuBzj8EPBc_62.mp4	0.0	154.5518810749054	2.5083858966827393
26	71.99943995475769	fix_post	2		12.0	24.0	2.5	/experiments/knapen_aot/videos/R_S_yt-_HuBzj8EPBc_62.mp4	0.0	157.06026697158813	0.0999898910522461
27	72.09942984580994	fix_pre	0		16.0	25.0	2.5	/experiments/knapen_aot/videos/R_S_yt-l_pvPAznG1A_20.mp4	0.0	157.16025686264038	0.13325214385986328
27	72.22452688217163	response	0	2		25.0	2.5	/experiments/knapen_aot/videos/R_S_yt-l_pvPAznG1A_20.mp4	0.0	157.28535389900208	
27	72.2326819896698	movie	1		301.0	25.0	2.5	/experiments/knapen_aot/videos/R_S_yt-l_pvPAznG1A_20.mp4	0.0	157.29350900650024	2.508401870727539
27	74.74108386039734	fix_post	2		12.0	25.0	2.5	/experiments/knapen_aot/videos/R_S_yt-l_pvPAznG1A_20.mp4	0.0	159.80191087722778	0.09995508193969727
28	74.84103894233704	fix_pre	0		16.0	26.0	2.5	/experiments/knapen_aot/videos/R_S_ILSVRC2015_train_00303005.mp4	0.0	159.90186595916748	0.13433098793029785
28	74.96614193916321	response	0	2		26.0	2.5	/experiments/knapen_aot/videos/R_S_ILSVRC2015_train_00303005.mp4	0.0	160.02696895599365	
28	74.97536993026733	movie	1		301.0	26.0	2.5	/experiments/knapen_aot/videos/R_S_ILSVRC2015_train_00303005.mp4	0.0	160.03619694709778	2.5073130130767822
28	77.48268294334412	fix_post	2		12.0	26.0	2.5	/experiments/knapen_aot/videos/R_S_ILSVRC2015_train_00303005.mp4	0.0	162.54350996017456	0.10009002685546875
29	77.58277297019958	fix_pre	0		26.0	27.0	2.5	/experiments/knapen_aot/videos/R_S_RS_A008_C010_SDR_20191218_SDR_2K_AVC.mp4	0.0	162.64359998703003	0.21660804748535156
29	77.79118800163269	response	0	2		27.0	2.5	/experiments/knapen_aot/videos/R_S_RS_A008_C010_SDR_20191218_SDR_2K_AVC.mp4	0.0	162.85201501846313	
29	77.79938101768494	movie	1		179.0	27.0	2.5	/experiments/knapen_aot/videos/R_S_RS_A008_C010_SDR_20191218_SDR_2K_AVC.mp4	0.0	162.86020803451538	2.5083539485931396
29	80.30773496627808	fix_post	2		12.0	27.0	2.5	/experiments/knapen_aot/videos/R_S_RS_A008_C010_SDR_20191218_SDR_2K_AVC.mp4	0.0	165.36856198310852	0.09999489784240723
30	80.40772986412048	fix_pre	0		10.0	28.0	2.5	blank	1.0	165.46855688095093	0.08330607414245605
30	80.48277688026428	response	0	2		28.0	2.5	blank	1.0	165.54360389709473	
30	80.49103593826294	movie	1		301.0	28.0	2.5	blank	1.0	165.55186295509338	2.5083000659942627
30	82.9993360042572	fix_post	2		12.0	28.0	2.5	blank	1.0	168.06016302108765	0.10005593299865723
31	83.09939193725586	fix_pre	0		41.0	29.0	2.5	/experiments/knapen_aot/videos/R_S_pexels-cottonbro-6844209.mp4	0.0	168.1602189540863	0.3416450023651123
31	83.43277096748352	response	0	2		29.0	2.5	/experiments/knapen_aot/videos/R_S_pexels-cottonbro-6844209.mp4	0.0	168.49359798431396	
31	83.44103693962097	movie	1		198.0	29.0	2.5	/experiments/knapen_aot/videos/R_S_pexels-cottonbro-6844209.mp4	0.0	168.50186395645142	2.5083539485931396
31	85.94939088821411	fix_post	2		12.0	29.0	2.5	/experiments/knapen_aot/videos/R_S_pexels-cottonbro-6844209.mp4	0.0	171.01021790504456	0.09997296333312988
32	86.04936385154724	fix_pre	0		17.0	30.0	2.5	/experiments/knapen_aot/videos/R_S_yt-9pYW_TqVpU4_43.mp4	0.0	171.11019086837769	0.14160919189453125
32	86.18289995193481	response	0	2		30.0	2.5	/experiments/knapen_aot/videos/R_S_yt-9pYW_TqVpU4_43.mp4	0.0	171.24372696876526	
32	86.19097304344177	movie	1		301.0	30.0	2.5	/experiments/knapen_aot/videos/R_S_yt-9pYW_TqVpU4_43.mp4	0.0	171.25180006027222	2.5084078311920166
32	88.69938087463379	fix_post	2		12.0	30.0	2.5	/experiments/knapen_aot/videos/R_S_yt-9pYW_TqVpU4_43.mp4	0.0	173.76020789146423	0.09997200965881348
33	88.7993528842926	fix_pre	0		26.0	31.0	2.5	/experiments/knapen_aot/videos/R_S_wc-Mf8SQpviaD6D_17.mp4	0.0	173.86017990112305	0.21750402450561523
33	89.00767087936401	response	0	2		31.0	2.5	/experiments/knapen_aot/videos/R_S_wc-Mf8SQpviaD6D_17.mp4	0.0	174.06849789619446	
33	89.01685690879822	movie	1		169.0	31.0	2.5	/experiments/knapen_aot/videos/R_S_wc-Mf8SQpviaD6D_17.mp4	0.0	174.07768392562866	2.507467031478882
33	91.5243239402771	fix_post	2		12.0	31.0	2.5	/experiments/knapen_aot/videos/R_S_wc-Mf8SQpviaD6D_17.mp4	0.0	176.58515095710754	0.10000395774841309
34	91.62432789802551	fix_pre	0		20.0	32.0	2.5	/experiments/knapen_aot/videos/R_S_PA_A010_C007_SDR_20190717_SDR_2K_AVC.mp4	0.0	176.68515491485596	0.16671299934387207
34	91.78279089927673	response	0	2		32.0	2.5	/experiments/knapen_aot/videos/R_S_PA_A010_C007_SDR_20190717_SDR_2K_AVC.mp4	0.0	176.84361791610718	
34	91.79104089736938	movie	1		166.0	32.0	2.5	/experiments/knapen_aot/videos/R_S_PA_A010_C007_SDR_20190717_SDR_2K_AVC.mp4	0.0	176.85186791419983	2.5083420276641846
34	94.29938292503357	fix_post	2		12.0	32.0	2.5	/experiments/knapen_aot/videos/R_S_PA_A010_C007_SDR_20190717_SDR_2K_AVC.mp4	0.0	179.360209941864	0.09987902641296387
35	94.39926195144653	fix_pre	0		16.0	33.0	2.5	/experiments/knapen_aot/videos/R_S_yt-GWgG8PVM1iw_34.mp4	0.0	179.46008896827698	0.13335490226745605
35	94.52448391914368	response	0	2		33.0	2.5	/experiments/knapen_aot/videos/R_S_yt-GWgG8PVM1iw_34.mp4	0.0	179.58531093597412	
35	94.53261685371399	movie	1		301.0	33.0	2.5	/experiments/knapen_aot/videos/R_S_yt-GWgG8PVM1iw_34.mp4	0.0	179.59344387054443	2.5083980560302734
35	97.04101490974426	fix_post	2		12.0	33.0	2.5	/experiments/knapen_aot/videos/R_S_yt-GWgG8PVM1iw_34.mp4	0.0	182.1018419265747	0.09999799728393555
36	97.1410129070282	fix_pre	0		17.0	34.0	2.5	/experiments/knapen_aot/videos/R_S_ILSVRC2015_train_00743001.mp4	0.0	182.20183992385864	0.14165902137756348
36	97.27443790435791	response	0	2		34.0	2.5	/experiments/knapen_aot/videos/R_S_ILSVRC2015_train_00743001.mp4	0.0	182.33526492118835	
36	97.28267192840576	movie	1		301.0	34.0	2.5	/experiments/knapen_aot/videos/R_S_ILSVRC2015_train_00743001.mp4	0.0	182.3434989452362	2.508333921432495
36	99.79100584983826	fix_post	2		12.0	34.0	2.5	/experiments/knapen_aot/videos/R_S_ILSVRC2015_train_00743001.mp4	0.0	184.8518328666687	0.099945068359375
37	99.89095091819763	fix_pre	0		37.0	35.0	2.5	blank	1.0	184.95177793502808	0.3084099292755127
37	100.19113492965698	response	0	2		35.0	2.5	blank	1.0	185.25196194648743	
37	100.19936084747314	movie	1		301.0	35.0	2.5	blank	1.0	185.2601878643036	2.508294105529785
37	102.70765495300293	fix_post	2		12.0	35.0	2.5	blank	1.0	187.76848196983337	0.10000491142272949
38	102.80765986442566	fix_pre	0		26.0	36.0	2.5	/experiments/knapen_aot/videos/R_S_comp_A103_C002_0205DG_v12_SDR_FINAL_20180706_SDR_2K_AVC.mp4	0.0	187.8684868812561	0.21661901473999023
38	103.0160620212555	response	0	2		36.0	2.5	/experiments/knapen_aot/videos/R_S_comp_A103_C002_0205DG_v12_SDR_FINAL_20180706_SDR_2K_AVC.mp4	0.0	188.07688903808594	
38	103.02427887916565	movie	1		166.0	36.0	2.5	/experiments/knapen_aot/videos/R_S_comp_A103_C002_0205DG_v12_SDR_FINAL_20180706_SDR_2K_AVC.mp4	0.0	188.0851058959961	2.5082991123199463
38	105.5325779914856	fix_post	2		12.0	36.0	2.5	/experiments/knapen_aot/videos/R_S_comp_A103_C002_0205DG_v12_SDR_FINAL_20180706_SDR_2K_AVC.mp4	0.0	190.59340500831604	0.10001087188720703
39	105.6325888633728	fix_pre	0		23.0	37.0	2.5	/experiments/knapen_aot/videos/S_yt-IX6uxR5DSKk_2.mp4	0.0	190.69341588020325	0.1916210651397705
39	105.80856585502625	response	0	2		37.0	2.5	/experiments/knapen_aot/videos/S_yt-IX6uxR5DSKk_2.mp4	0.0	190.8693928718567	
39	105.82420992851257	movie	1		301.0	37.0	2.5	/experiments/knapen_aot/videos/S_yt-IX6uxR5DSKk_2.mp4	0.0	190.88503694534302	2.508527994155884
39	108.33273792266846	fix_post	2		12.0	37.0	2.5	/experiments/knapen_aot/videos/S_yt-IX6uxR5DSKk_2.mp4	0.0	193.3935649394989	0.09986615180969238
40	108.43260407447815	fix_pre	0		32.0	38.0	2.5	/experiments/knapen_aot/videos/S_pexels-anthony-shkraba-production-8135459.mp4	0.0	193.4934310913086	0.26665592193603516
40	108.69105696678162	response	0	2		38.0	2.5	/experiments/knapen_aot/videos/S_pexels-anthony-shkraba-production-8135459.mp4	0.0	193.75188398361206	
40	108.69925999641418	movie	1		163.0	38.0	2.5	/experiments/knapen_aot/videos/S_pexels-anthony-shkraba-production-8135459.mp4	0.0	193.76008701324463	2.508542060852051
40	111.20780205726624	fix_post	2		12.0	38.0	2.5	/experiments/knapen_aot/videos/S_pexels-anthony-shkraba-production-8135459.mp4	0.0	196.26862907409668	0.099700927734375
40	111.28262090682983	response	2	2		38.0	2.5	/experiments/knapen_aot/videos/S_pexels-anthony-shkraba-production-8135459.mp4	0.0	196.34344792366028	
41	111.30750298500061	fix_pre	0		49.0	39.0	2.5	/experiments/knapen_aot/videos/S_wc-AyT9mzwZsu0T_14.mp4	0.0	196.36833000183105	0.40841197967529297
41	111.70756983757019	response	0	2		39.0	2.5	/experiments/knapen_aot/videos/S_wc-AyT9mzwZsu0T_14.mp4	0.0	196.76839685440063	
41	111.7159149646759	movie	1		162.0	39.0	2.5	/experiments/knapen_aot/videos/S_wc-AyT9mzwZsu0T_14.mp4	0.0	196.77674198150635	2.508310079574585
41	114.22422504425049	fix_post	2		12.0	39.0	2.5	/experiments/knapen_aot/videos/S_wc-AyT9mzwZsu0T_14.mp4	0.0	199.28505206108093	0.10000085830688477
42	114.32422590255737	fix_pre	0		26.0	40.0	2.5	blank	1.0	199.38505291938782	0.2166900634765625
42	114.53263306617737	response	0	2		40.0	2.5	blank	1.0	199.5934600830078	
42	114.54091596603394	movie	1		301.0	40.0	2.5	blank	1.0	199.60174298286438	2.5083138942718506
42	117.04922986030579	fix_post	2		12.0	40.0	2.5	blank	1.0	202.11005687713623	0.09998703002929688
43	117.14921689033508	fix_pre	0		33.0	41.0	2.5	/experiments/knapen_aot/videos/R_S_yt--koo4FOfZE0_86.mp4	0.0	202.21004390716553	0.27494215965270996
43	117.41601300239563	response	0	2		41.0	2.5	/experiments/knapen_aot/videos/R_S_yt--koo4FOfZE0_86.mp4	0.0	202.47684001922607	
43	117.4241590499878	movie	1		301.0	41.0	2.5	/experiments/knapen_aot/videos/R_S_yt--koo4FOfZE0_86.mp4	0.0	202.48498606681824	2.508575916290283
43	119.93273496627808	fix_post	2		12.0	41.0	2.5	/experiments/knapen_aot/videos/R_S_yt--koo4FOfZE0_86.mp4	0.0	204.99356198310852	0.09981608390808105
44	120.03255105018616	fix_pre	0		2.0	42.0	2.5	/experiments/knapen_aot/videos/R_S_pexels-roman-odintsov-8232443_1.mp4	0.0	205.0933780670166	0.016666889190673828
44	120.04101705551147	response	0	2		42.0	2.5	/experiments/knapen_aot/videos/R_S_pexels-roman-odintsov-8232443_1.mp4	0.0	205.10184407234192	
44	120.04921793937683	movie	1		204.0	42.0	2.5	/experiments/knapen_aot/videos/R_S_pexels-roman-odintsov-8232443_1.mp4	0.0	205.11004495620728	2.508449077606201
44	122.55766701698303	fix_post	2		12.0	42.0	2.5	/experiments/knapen_aot/videos/R_S_pexels-roman-odintsov-8232443_1.mp4	0.0	207.61849403381348	0.09984588623046875
45	122.6575129032135	fix_pre	0		31.0	43.0	2.5	/experiments/knapen_aot/videos/R_S_yt-3roniRu6w58_10.mp4	0.0	207.71833992004395	0.2583141326904297
45	122.9075698852539	response	0	2		43.0	2.5	/experiments/knapen_aot/videos/R_S_yt-3roniRu6w58_10.mp4	0.0	207.96839690208435	
45	122.91582703590393	movie	1		301.0	43.0	2.5	/experiments/knapen_aot/videos/R_S_yt-3roniRu6w58_10.mp4	0.0	207.97665405273438	2.5084078311920166
45	125.42423486709595	fix_post	2		12.0	43.0	2.5	/experiments/knapen_aot/videos/R_S_yt-3roniRu6w58_10.mp4	0.0	210.4850618839264	0.09993505477905273
46	125.524169921875	fix_pre	0		15.0	44.0	2.5	/experiments/knapen_aot/videos/S_ILSVRC2015_train_00723001.mp4	0.0	210.58499693870544	0.12501311302185059
46	125.64091897010803	response	0	2		44.0	2.5	/experiments/knapen_aot/videos/S_ILSVRC2015_train_00723001.mp4	0.0	210.70174598693848	
46	125.64918303489685	movie	1		301.0	44.0	2.5	/experiments/knapen_aot/videos/S_ILSVRC2015_train_00723001.mp4	0.0	210.7100100517273	2.508316993713379
46	128.15750002861023	fix_post	2		12.0	44.0	2.5	/experiments/knapen_aot/videos/S_ILSVRC2015_train_00723001.mp4	0.0	213.21832704544067	0.1000218391418457
47	128.25752186775208	fix_pre	0		30.0	45.0	2.5	/experiments/knapen_aot/videos/R_S_yt-NLfzvAJgyJ4_120.mp4	0.0	213.31834888458252	0.24997901916503906
47	128.4992220401764	response	0	2		45.0	2.5	/experiments/knapen_aot/videos/R_S_yt-NLfzvAJgyJ4_120.mp4	0.0	213.56004905700684	
47	128.50750088691711	movie	1		301.0	45.0	2.5	/experiments/knapen_aot/videos/R_S_yt-NLfzvAJgyJ4_120.mp4	0.0	213.56832790374756	2.508512020111084
47	131.0160129070282	fix_post	2		12.0	45.0	2.5	/experiments/knapen_aot/videos/R_S_yt-NLfzvAJgyJ4_120.mp4	0.0	216.07683992385864	0.09983110427856445
48	131.11584401130676	fix_pre	0		17.0	46.0	2.5	/experiments/knapen_aot/videos/S_ILSVRC2015_train_00682007.mp4	0.0	216.1766710281372	0.14164996147155762
48	131.24925589561462	response	0	2		46.0	2.5	/experiments/knapen_aot/videos/S_ILSVRC2015_train_00682007.mp4	0.0	216.31008291244507	
48	131.25749397277832	movie	1		301.0	46.0	2.5	/experiments/knapen_aot/videos/S_ILSVRC2015_train_00682007.mp4	0.0	216.31832098960876	2.508310079574585
48	133.7658040523529	fix_post	2		12.0	46.0	2.5	/experiments/knapen_aot/videos/S_ILSVRC2015_train_00682007.mp4	0.0	218.82663106918335	0.09996795654296875
49	133.86577200889587	fix_pre	0		12.0	47.0	2.5	blank	1.0	218.92659902572632	0.10006093978881836
49	133.95750498771667	response	0	2		47.0	2.5	blank	1.0	219.01833200454712	
49	133.9658329486847	movie	1		301.0	47.0	2.5	blank	1.0	219.02665996551514	2.508402109146118
49	136.4742350578308	fix_post	2		12.0	47.0	2.5	blank	1.0	221.53506207466125	0.10003280639648438
50	136.5742678642273	fix_pre	0		28.0	48.0	2.5	/experiments/knapen_aot/videos/R_S_pexels-rodnae-productions-5993654.mp4	0.0	221.63509488105774	0.2337641716003418
50	136.79925894737244	response	0	2		48.0	2.5	/experiments/knapen_aot/videos/R_S_pexels-rodnae-productions-5993654.mp4	0.0	221.86008596420288	
50	136.80803203582764	movie	1		161.0	48.0	2.5	/experiments/knapen_aot/videos/R_S_pexels-rodnae-productions-5993654.mp4	0.0	221.86885905265808	2.507740020751953
50	139.3157720565796	fix_post	2		12.0	48.0	2.5	/experiments/knapen_aot/videos/R_S_pexels-rodnae-productions-5993654.mp4	0.0	224.37659907341003	0.10002589225769043
51	139.41579794883728	fix_pre	0		16.0	49.0	2.5	/experiments/knapen_aot/videos/S_yt-YMI27rk5qUQ_117.mp4	0.0	224.47662496566772	0.13327789306640625
51	139.5408399105072	response	0	2		49.0	2.5	/experiments/knapen_aot/videos/S_yt-YMI27rk5qUQ_117.mp4	0.0	224.60166692733765	
51	139.5490758419037	movie	1		301.0	49.0	2.5	/experiments/knapen_aot/videos/S_yt-YMI27rk5qUQ_117.mp4	0.0	224.60990285873413	2.508364200592041
51	142.05744004249573	fix_post	2		12.0	49.0	2.5	/experiments/knapen_aot/videos/S_yt-YMI27rk5qUQ_117.mp4	0.0	227.11826705932617	0.10001587867736816
52	142.1574559211731	fix_pre	0		37.0	50.0	2.5	/experiments/knapen_aot/videos/R_S_yt-mmvWYAttrIw_2.mp4	0.0	227.21828293800354	0.308258056640625
52	142.45761489868164	response	0	2		50.0	2.5	/experiments/knapen_aot/videos/R_S_yt-mmvWYAttrIw_2.mp4	0.0	227.51844191551208	
52	142.46571397781372	movie	1		301.0	50.0	2.5	/experiments/knapen_aot/videos/R_S_yt-mmvWYAttrIw_2.mp4	0.0	227.52654099464417	2.5084519386291504
52	144.97416591644287	fix_post	2		12.0	50.0	2.5	/experiments/knapen_aot/videos/R_S_yt-mmvWYAttrIw_2.mp4	0.0	230.03499293327332	0.0999140739440918
53	145.07407999038696	fix_pre	0		27.0	51.0	2.5	/experiments/knapen_aot/videos/S_yt-dO0OuozAgt0_225.mp4	0.0	230.1349070072174	0.22504687309265137
53	145.29089093208313	response	0	2		51.0	2.5	/experiments/knapen_aot/videos/S_yt-dO0OuozAgt0_225.mp4	0.0	230.35171794891357	
53	145.29912686347961	movie	1		301.0	51.0	2.5	/experiments/knapen_aot/videos/S_yt-dO0OuozAgt0_225.mp4	0.0	230.35995388031006	2.508341073989868
53	147.80746793746948	fix_post	2		12.0	51.0	2.5	/experiments/knapen_aot/videos/S_yt-dO0OuozAgt0_225.mp4	0.0	232.86829495429993	0.09996891021728516
54	147.90743684768677	fix_pre	0		21.0	52.0	2.5	/experiments/knapen_aot/videos/S_yt-BG-G7m5wLZ4_94.mp4	0.0	232.9682638645172	0.17496919631958008
54	148.07416892051697	response	0	2		52.0	2.5	/experiments/knapen_aot/videos/S_yt-BG-G7m5wLZ4_94.mp4	0.0	233.1349959373474	
54	148.08240604400635	movie	1		301.0	52.0	2.5	/experiments/knapen_aot/videos/S_yt-BG-G7m5wLZ4_94.mp4	0.0	233.1432330608368	2.508749008178711
54	150.59115505218506	fix_post	2		12.0	52.0	2.5	/experiments/knapen_aot/videos/S_yt-BG-G7m5wLZ4_94.mp4	0.0	235.6519820690155	0.09965300559997559
55	150.69080805778503	fix_pre	0		51.0	53.0	2.5	/experiments/knapen_aot/videos/R_S_yt-ycfVJyrFgB4_15.mp4	0.0	235.75163507461548	0.42487192153930664
55	151.10752892494202	response	0	2		53.0	2.5	/experiments/knapen_aot/videos/R_S_yt-ycfVJyrFgB4_15.mp4	0.0	236.16835594177246	
55	151.11567997932434	movie	1		301.0	53.0	2.5	/experiments/knapen_aot/videos/R_S_yt-ycfVJyrFgB4_15.mp4	0.0	236.17650699615479	2.5084080696105957
55	153.62408804893494	fix_post	2		12.0	53.0	2.5	/experiments/knapen_aot/videos/R_S_yt-ycfVJyrFgB4_15.mp4	0.0	238.68491506576538	0.09996891021728516
56	153.72405695915222	fix_pre	0		29.0	54.0	2.5	blank	1.0	238.78488397598267	0.24163508415222168
56	153.9575378894806	response	0	2		54.0	2.5	blank	1.0	239.01836490631104	
56	153.96569204330444	movie	1		301.0	54.0	2.5	blank	1.0	239.0265190601349	2.508327007293701
56	156.47401905059814	fix_post	2		12.0	54.0	2.5	blank	1.0	241.5348460674286	0.1000828742980957
57	156.57410192489624	fix_pre	0		48.0	55.0	2.5	/experiments/knapen_aot/videos/R_S_yt-O6W6CZPXvlA_15.mp4	0.0	241.63492894172668	0.4005250930786133
57	156.96581602096558	response	0	2		55.0	2.5	/experiments/knapen_aot/videos/R_S_yt-O6W6CZPXvlA_15.mp4	0.0	242.02664303779602	
57	156.97462701797485	movie	1		301.0	55.0	2.5	/experiments/knapen_aot/videos/R_S_yt-O6W6CZPXvlA_15.mp4	0.0	242.0354540348053	2.507783889770508
57	159.48241090774536	fix_post	2		12.0	55.0	2.5	/experiments/knapen_aot/videos/R_S_yt-O6W6CZPXvlA_15.mp4	0.0	244.5432379245758	0.10009193420410156
58	159.58250284194946	fix_pre	0		31.0	56.0	2.5	/experiments/knapen_aot/videos/S_I003_C004_SDR_2K_AVC.mp4	0.0	244.6433298587799	0.2581970691680908
58	159.8324580192566	response	0	2		56.0	2.5	/experiments/knapen_aot/videos/S_I003_C004_SDR_2K_AVC.mp4	0.0	244.89328503608704	
58	159.84069991111755	movie	1		166.0	56.0	2.5	/experiments/knapen_aot/videos/S_I003_C004_SDR_2K_AVC.mp4	0.0	244.901526927948	2.508371114730835
58	162.3490710258484	fix_post	2		12.0	56.0	2.5	/experiments/knapen_aot/videos/S_I003_C004_SDR_2K_AVC.mp4	0.0	247.40989804267883	0.09988689422607422
59	162.44895792007446	fix_pre	0		10.0	57.0	2.5	/experiments/knapen_aot/videos/S_m-aeoYPMqfg_185.mp4	0.0	247.5097849369049	0.08347296714782715
59	162.52407884597778	response	0	2		57.0	2.5	/experiments/knapen_aot/videos/S_m-aeoYPMqfg_185.mp4	0.0	247.58490586280823	
59	162.5324308872223	movie	1		301.0	57.0	2.5	/experiments/knapen_aot/videos/S_m-aeoYPMqfg_185.mp4	0.0	247.59325790405273	2.5083320140838623
59	165.04076290130615	fix_post	2		12.0	57.0	2.5	/experiments/knapen_aot/videos/S_m-aeoYPMqfg_185.mp4	0.0	250.1015899181366	0.10020303726196289
60	165.14096593856812	fix_pre	0		28.0	58.0	2.5	/experiments/knapen_aot/videos/R_S_yt-UPgF4YAHBQY_33.mp4	0.0	250.20179295539856	0.23304104804992676
60	165.3582420349121	response	0	2		58.0	2.5	/experiments/knapen_aot/videos/R_S_yt-UPgF4YAHBQY_33.mp4	0.0	250.41906905174255	
60	165.37400698661804	movie	1		301.0	58.0	2.5	/experiments/knapen_aot/videos/R_S_yt-UPgF4YAHBQY_33.mp4	0.0	250.4348340034485	2.5083470344543457
60	167.8823540210724	fix_post	2		12.0	58.0	2.5	/experiments/knapen_aot/videos/R_S_yt-UPgF4YAHBQY_33.mp4	0.0	252.94318103790283	0.09998202323913574
61	167.98233604431152	fix_pre	0		34.0	59.0	2.5	/experiments/knapen_aot/videos/R_S_yt-OTNdgakSIJE_97.mp4	0.0	253.04316306114197	0.2837038040161133
61	168.24990892410278	response	0	2		59.0	2.5	/experiments/knapen_aot/videos/R_S_yt-OTNdgakSIJE_97.mp4	0.0	253.31073594093323	
61	168.26603984832764	movie	1		301.0	59.0	2.5	/experiments/knapen_aot/videos/R_S_yt-OTNdgakSIJE_97.mp4	0.0	253.32686686515808	2.507965087890625
61	170.77400493621826	fix_post	2		12.0	59.0	2.5	/experiments/knapen_aot/videos/R_S_yt-OTNdgakSIJE_97.mp4	0.0	255.8348319530487	0.09994912147521973
62	170.87395405769348	fix_pre	0		15.0	60.0	2.5	/experiments/knapen_aot/videos/R_S_CR_A009_C007_SDR_20191113_SDR_2K_AVC.mp4	0.0	255.93478107452393	0.12504100799560547
62	170.99074387550354	response	0	2		60.0	2.5	/experiments/knapen_aot/videos/R_S_CR_A009_C007_SDR_20191113_SDR_2K_AVC.mp4	0.0	256.051570892334	
62	170.9989950656891	movie	1		164.0	60.0	2.5	/experiments/knapen_aot/videos/R_S_CR_A009_C007_SDR_20191113_SDR_2K_AVC.mp4	0.0	256.05982208251953	2.5083439350128174
62	173.5073390007019	fix_post	2		12.0	60.0	2.5	/experiments/knapen_aot/videos/R_S_CR_A009_C007_SDR_20191113_SDR_2K_AVC.mp4	0.0	258.56816601753235	0.09991192817687988
63	173.60725092887878	fix_pre	0		11.0	61.0	2.5	/experiments/knapen_aot/videos/S_yt-3E02UEHdoZ4_752.mp4	0.0	258.66807794570923	0.09167313575744629
63	173.69079089164734	response	0	2		61.0	2.5	/experiments/knapen_aot/videos/S_yt-3E02UEHdoZ4_752.mp4	0.0	258.7516179084778	
63	173.69892406463623	movie	1		301.0	61.0	2.5	/experiments/knapen_aot/videos/S_yt-3E02UEHdoZ4_752.mp4	0.0	258.7597510814667	2.5084660053253174
63	176.20739006996155	fix_post	2		12.0	61.0	2.5	/experiments/knapen_aot/videos/S_yt-3E02UEHdoZ4_752.mp4	0.0	261.268217086792	0.10036087036132812
64	176.30775094032288	fix_pre	0		42.0	62.0	2.5	blank	1.0	261.3685779571533	0.3496360778808594
64	176.64901304244995	response	0	2		62.0	2.5	blank	1.0	261.7098400592804	
64	176.65738701820374	movie	1		301.0	62.0	2.5	blank	1.0	261.7182140350342	2.508244037628174
64	179.1656310558319	fix_post	2		12.0	62.0	2.5	blank	1.0	264.22645807266235	0.10040879249572754
65	179.26603984832764	fix_pre	0		45.0	63.0	2.5	/experiments/knapen_aot/videos/S_ILSVRC2015_train_00434000.mp4	0.0	264.3268668651581	0.37491607666015625
65	179.63237404823303	response	0	2		63.0	2.5	/experiments/knapen_aot/videos/S_ILSVRC2015_train_00434000.mp4	0.0	264.6932010650635	
65	179.6409559249878	movie	1		301.0	63.0	2.5	/experiments/knapen_aot/videos/S_ILSVRC2015_train_00434000.mp4	0.0	264.70178294181824	2.5079920291900635
65	182.14894795417786	fix_post	2		12.0	63.0	2.5	/experiments/knapen_aot/videos/S_ILSVRC2015_train_00434000.mp4	0.0	267.2097749710083	0.1000370979309082
66	182.24898505210876	fix_pre	0		32.0	64.0	2.5	/experiments/knapen_aot/videos/R_S_ILSVRC2015_train_00473000.mp4	0.0	267.3098120689392	0.2669658660888672
66	182.50751090049744	response	0	2		64.0	2.5	/experiments/knapen_aot/videos/R_S_ILSVRC2015_train_00473000.mp4	0.0	267.5683379173279	
66	182.51595091819763	movie	1		301.0	64.0	2.5	/experiments/knapen_aot/videos/R_S_ILSVRC2015_train_00473000.mp4	0.0	267.5767779350281	2.507966995239258
66	185.0239179134369	fix_post	2		12.0	64.0	2.5	/experiments/knapen_aot/videos/R_S_ILSVRC2015_train_00473000.mp4	0.0	270.08474493026733	0.10001397132873535
67	185.12393188476562	fix_pre	0		43.0	65.0	2.5	/experiments/knapen_aot/videos/R_S_yt-CH4HfNRC1hY_40.mp4	0.0	270.18475890159607	0.3582770824432373
67	185.4740059375763	response	0	2		65.0	2.5	/experiments/knapen_aot/videos/R_S_yt-CH4HfNRC1hY_40.mp4	0.0	270.53483295440674	
67	185.48220896720886	movie	1		301.0	65.0	2.5	/experiments/knapen_aot/videos/R_S_yt-CH4HfNRC1hY_40.mp4	0.0	270.5430359840393	2.50839900970459
67	187.99060797691345	fix_post	2		12.0	65.0	2.5	/experiments/knapen_aot/videos/R_S_yt-CH4HfNRC1hY_40.mp4	0.0	273.0514349937439	0.09997797012329102
68	188.09058594703674	fix_pre	0		21.0	66.0	2.5	/experiments/knapen_aot/videos/R_S_yt-TZ107yBhXoA_1.mp4	0.0	273.1514129638672	0.17532992362976074
68	188.2573800086975	response	0	2		66.0	2.5	/experiments/knapen_aot/videos/R_S_yt-TZ107yBhXoA_1.mp4	0.0	273.31820702552795	
68	188.2659158706665	movie	1		301.0	66.0	2.5	/experiments/knapen_aot/videos/R_S_yt-TZ107yBhXoA_1.mp4	0.0	273.32674288749695	2.507974147796631
68	190.77389001846313	fix_post	2		12.0	66.0	2.5	/experiments/knapen_aot/videos/R_S_yt-TZ107yBhXoA_1.mp4	0.0	275.8347170352936	0.10012483596801758
69	190.87401485443115	fix_pre	0		28.0	67.0	2.5	/experiments/knapen_aot/videos/S_yt-FzMLLmcD1mE_19.mp4	0.0	275.9348418712616	0.23319721221923828
69	191.09899997711182	response	0	2		67.0	2.5	/experiments/knapen_aot/videos/S_yt-FzMLLmcD1mE_19.mp4	0.0	276.15982699394226	
69	191.1072120666504	movie	1		301.0	67.0	2.5	/experiments/knapen_aot/videos/S_yt-FzMLLmcD1mE_19.mp4	0.0	276.16803908348083	2.50834584236145
69	193.61555790901184	fix_post	2		12.0	67.0	2.5	/experiments/knapen_aot/videos/S_yt-FzMLLmcD1mE_19.mp4	0.0	278.6763849258423	0.10003495216369629
70	193.71559286117554	fix_pre	0		35.0	68.0	2.5	/experiments/knapen_aot/videos/R_S_yt-Ilr77XzakaY_95.mp4	0.0	278.776419878006	0.29158520698547363
70	193.99893188476562	response	0	2		68.0	2.5	/experiments/knapen_aot/videos/R_S_yt-Ilr77XzakaY_95.mp4	0.0	279.05975890159607	
70	194.007178068161	movie	1		301.0	68.0	2.5	/experiments/knapen_aot/videos/R_S_yt-Ilr77XzakaY_95.mp4	0.0	279.06800508499146	2.5085787773132324
70	196.51575684547424	fix_post	2		12.0	68.0	2.5	/experiments/knapen_aot/videos/R_S_yt-Ilr77XzakaY_95.mp4	0.0	281.5765838623047	0.09985208511352539
71	196.61560893058777	fix_pre	0		11.0	69.0	2.5	/experiments/knapen_aot/videos/R_S_yt-WhQMF3WM0Ig_29.mp4	0.0	281.6764359474182	0.09155011177062988
71	196.69895696640015	response	0	2		69.0	2.5	/experiments/knapen_aot/videos/R_S_yt-WhQMF3WM0Ig_29.mp4	0.0	281.7597839832306	
71	196.7071590423584	movie	1		301.0	69.0	2.5	/experiments/knapen_aot/videos/R_S_yt-WhQMF3WM0Ig_29.mp4	0.0	281.76798605918884	2.5083179473876953
71	199.2154769897461	fix_post	2		12.0	69.0	2.5	/experiments/knapen_aot/videos/R_S_yt-WhQMF3WM0Ig_29.mp4	0.0	284.27630400657654	0.10008502006530762
72	199.3155620098114	fix_pre	0		29.0	70.0	2.5	blank	1.0	284.37638902664185	0.24218106269836426
72	199.54899501800537	response	0	2		70.0	2.5	blank	1.0	284.6098220348358	
72	199.55774307250977	movie	1		301.0	70.0	2.5	blank	1.0	284.6185700893402	2.5079259872436523
72	202.06566905975342	fix_post	2		12.0	70.0	2.5	blank	1.0	287.12649607658386	0.0998528003692627
73	202.16552186012268	fix_pre	0		68.0	71.0	2.5	/experiments/knapen_aot/videos/S_yt-Fm97IY0Z2LU_110.mp4	0.0	287.2263488769531	0.5665609836578369
73	202.72393488883972	response	0	2		71.0	2.5	/experiments/knapen_aot/videos/S_yt-Fm97IY0Z2LU_110.mp4	0.0	287.78476190567017	
73	202.73208284378052	movie	1		301.0	71.0	2.5	/experiments/knapen_aot/videos/S_yt-Fm97IY0Z2LU_110.mp4	0.0	287.79290986061096	2.5085010528564453
73	205.24058389663696	fix_post	2		12.0	71.0	2.5	/experiments/knapen_aot/videos/S_yt-Fm97IY0Z2LU_110.mp4	0.0	290.3014109134674	0.09987616539001465
74	205.34046006202698	fix_pre	0		32.0	72.0	2.5	/experiments/knapen_aot/videos/R_S_yt-VrEuTDQxtD0_226.mp4	0.0	290.4012870788574	0.26666784286499023
74	205.59890985488892	response	0	2		72.0	2.5	/experiments/knapen_aot/videos/R_S_yt-VrEuTDQxtD0_226.mp4	0.0	290.65973687171936	
74	205.60712790489197	movie	1		301.0	72.0	2.5	/experiments/knapen_aot/videos/R_S_yt-VrEuTDQxtD0_226.mp4	0.0	290.6679549217224	2.508404016494751
74	208.11553192138672	fix_post	2		12.0	72.0	2.5	/experiments/knapen_aot/videos/R_S_yt-VrEuTDQxtD0_226.mp4	0.0	293.17635893821716	0.10005807876586914
75	208.2155900001526	fix_pre	0		48.0	73.0	2.5	/experiments/knapen_aot/videos/S_yt-yPl8LcgSMjo_32.mp4	0.0	293.27641701698303	0.3998289108276367
75	208.60731601715088	response	0	2		73.0	2.5	/experiments/knapen_aot/videos/S_yt-yPl8LcgSMjo_32.mp4	0.0	293.6681430339813	
75	208.61541891098022	movie	1		301.0	73.0	2.5	/experiments/knapen_aot/videos/S_yt-yPl8LcgSMjo_32.mp4	0.0	293.67624592781067	2.508445978164673
75	211.1238648891449	fix_post	2		12.0	73.0	2.5	/experiments/knapen_aot/videos/S_yt-yPl8LcgSMjo_32.mp4	0.0	296.18469190597534	0.10016202926635742
76	211.22402691841125	fix_pre	0		24.0	74.0	2.5	/experiments/knapen_aot/videos/S_yt-a5TGHnldsKg_102.mp4	0.0	296.2848539352417	0.19976806640625
76	211.41562390327454	response	0	2		74.0	2.5	/experiments/knapen_aot/videos/S_yt-a5TGHnldsKg_102.mp4	0.0	296.476450920105	
76	211.4237949848175	movie	1		301.0	74.0	2.5	/experiments/knapen_aot/videos/S_yt-a5TGHnldsKg_102.mp4	0.0	296.48462200164795	2.5090038776397705
76	213.93279886245728	fix_post	2		12.0	74.0	2.5	/experiments/knapen_aot/videos/S_yt-a5TGHnldsKg_102.mp4	0.0	298.9936258792877	0.09934401512145996
77	214.03214287757874	fix_pre	0		36.0	75.0	2.5	/experiments/knapen_aot/videos/R_S_SE_A016_C009_SDR_20190717_SDR_2K_AVC.mp4	0.0	299.0929698944092	0.29995203018188477
77	214.32397294044495	response	0	2		75.0	2.5	/experiments/knapen_aot/videos/R_S_SE_A016_C009_SDR_20190717_SDR_2K_AVC.mp4	0.0	299.3847999572754	
77	214.33209490776062	movie	1		163.0	75.0	2.5	/experiments/knapen_aot/videos/R_S_SE_A016_C009_SDR_20190717_SDR_2K_AVC.mp4	0.0	299.39292192459106	2.5083329677581787
77	216.8404278755188	fix_post	2		12.0	75.0	2.5	/experiments/knapen_aot/videos/R_S_SE_A016_C009_SDR_20190717_SDR_2K_AVC.mp4	0.0	301.90125489234924	0.10014200210571289
78	216.9405698776245	fix_pre	0		8.0	76.0	2.5	/experiments/knapen_aot/videos/S_ILSVRC2015_train_00368000.mp4	0.0	302.00139689445496	0.06645798683166504
78	216.99888706207275	response	0	2		76.0	2.5	/experiments/knapen_aot/videos/S_ILSVRC2015_train_00368000.mp4	0.0	302.0597140789032	
78	217.00702786445618	movie	1		301.0	76.0	2.5	/experiments/knapen_aot/videos/S_ILSVRC2015_train_00368000.mp4	0.0	302.0678548812866	2.5086281299591064
78	219.51565599441528	fix_post	2		12.0	76.0	2.5	/experiments/knapen_aot/videos/S_ILSVRC2015_train_00368000.mp4	0.0	304.5764830112457	0.09994697570800781
79	219.6156029701233	fix_pre	0		72.0	77.0	2.5	blank	1.0	304.67642998695374	0.5999109745025635
79	220.20731496810913	response	0	2		77.0	2.5	blank	1.0	305.2681419849396	
79	220.21551394462585	movie	1		301.0	77.0	2.5	blank	1.0	305.2763409614563	2.508486032485962
79	222.72399997711182	fix_post	2		12.0	77.0	2.5	blank	1.0	307.78482699394226	0.09981298446655273
80	222.82381296157837	fix_pre	0		33.0	78.0	2.5	/experiments/knapen_aot/videos/S_ILSVRC2015_train_00697001.mp4	0.0	307.8846399784088	0.2751619815826416
80	223.0830979347229	response	0	2		78.0	2.5	/experiments/knapen_aot/videos/S_ILSVRC2015_train_00697001.mp4	0.0	308.14392495155334	
80	223.098974943161	movie	1		301.0	78.0	2.5	/experiments/knapen_aot/videos/S_ILSVRC2015_train_00697001.mp4	0.0	308.15980195999146	2.508513927459717
80	225.60748887062073	fix_post	2		12.0	78.0	2.5	/experiments/knapen_aot/videos/S_ILSVRC2015_train_00697001.mp4	0.0	310.6683158874512	0.09983706474304199
81	225.70732593536377	fix_pre	0		22.0	79.0	2.5	/experiments/knapen_aot/videos/S_yt-9pYW_TqVpU4_43.mp4	0.0	310.7681529521942	0.18319392204284668
81	225.88218188285828	response	0	2		79.0	2.5	/experiments/knapen_aot/videos/S_yt-9pYW_TqVpU4_43.mp4	0.0	310.9430088996887	
81	225.89051985740662	movie	1		301.0	79.0	2.5	/experiments/knapen_aot/videos/S_yt-9pYW_TqVpU4_43.mp4	0.0	310.95134687423706	2.508247137069702
81	228.39876699447632	fix_post	2		12.0	79.0	2.5	/experiments/knapen_aot/videos/S_yt-9pYW_TqVpU4_43.mp4	0.0	313.45959401130676	0.10001301765441895
82	228.49878001213074	fix_pre	0		18.0	80.0	2.5	/experiments/knapen_aot/videos/R_S_yt-PK-Eip9wFr0_24.mp4	0.0	313.5596070289612	0.1500568389892578
82	228.64052391052246	response	0	2		80.0	2.5	/experiments/knapen_aot/videos/R_S_yt-PK-Eip9wFr0_24.mp4	0.0	313.7013509273529	
82	228.64883685112	movie	1		301.0	80.0	2.5	/experiments/knapen_aot/videos/R_S_yt-PK-Eip9wFr0_24.mp4	0.0	313.70966386795044	2.508261203765869
82	231.15709805488586	fix_post	2		12.0	80.0	2.5	/experiments/knapen_aot/videos/R_S_yt-PK-Eip9wFr0_24.mp4	0.0	316.2179250717163	0.10000085830688477
83	231.25709891319275	fix_pre	0		13.0	81.0	2.5	/experiments/knapen_aot/videos/S_P005_C002_UHD_SDR_2K_AVC.mp4	0.0	316.3179259300232	0.1082921028137207
83	231.3571639060974	response	0	2		81.0	2.5	/experiments/knapen_aot/videos/S_P005_C002_UHD_SDR_2K_AVC.mp4	0.0	316.41799092292786	
83	231.36539101600647	movie	1		168.0	81.0	2.5	/experiments/knapen_aot/videos/S_P005_C002_UHD_SDR_2K_AVC.mp4	0.0	316.4262180328369	2.5084190368652344
83	233.8738100528717	fix_post	2		12.0	81.0	2.5	/experiments/knapen_aot/videos/S_P005_C002_UHD_SDR_2K_AVC.mp4	0.0	318.93463706970215	0.10015392303466797
84	233.97396397590637	fix_pre	0		15.0	82.0	2.5	/experiments/knapen_aot/videos/R_S_yt-3DM_SqT4RII_10.mp4	0.0	319.0347909927368	0.1248788833618164
84	234.09056305885315	response	0	2		82.0	2.5	/experiments/knapen_aot/videos/R_S_yt-3DM_SqT4RII_10.mp4	0.0	319.1513900756836	
84	234.0988428592682	movie	1		301.0	82.0	2.5	/experiments/knapen_aot/videos/R_S_yt-3DM_SqT4RII_10.mp4	0.0	319.15966987609863	2.508338212966919
84	236.6071810722351	fix_post	2		12.0	82.0	2.5	/experiments/knapen_aot/videos/R_S_yt-3DM_SqT4RII_10.mp4	0.0	321.66800808906555	0.09993577003479004
85	236.7071168422699	fix_pre	0		19.0	83.0	2.5	blank	1.0	321.76794385910034	0.15830421447753906
85	236.8572199344635	response	0	2		83.0	2.5	blank	1.0	321.91804695129395	
85	236.86542105674744	movie	1		301.0	83.0	2.5	blank	1.0	321.9262480735779	2.5083489418029785
85	239.37376999855042	fix_post	2		12.0	83.0	2.5	blank	1.0	324.43459701538086	0.10022687911987305
87	239.4739968776703	stim	0		243.0					324.53482389450073	2.0275001525878906
87	239.68216800689697	response	0	2						324.7429950237274	
87	241.49417901039124	response	0	space						326.5550060272217	
