trial_nr	onset	event_type	phase	response	nr_frames	movie_index	movie_duration	movie_file	blank	onset_abs	duration
0	0.13268518447875977	stim	0		59.0					65.07337021827698	0.49228787422180176
0	0.6155071258544922	response	0	space						65.55619215965271	
1	0.6249730587005615	stim	0		121.0					65.56565809249878	1.0070021152496338
1	1.6319751739501953	stim	1		120.0					66.57266020774841	0.9996650218963623
1	2.123566150665283	response	1	space						67.0642511844635	
2	2.6316401958465576	fix_pre	0		47.0	0.0	2.5	/experiments/knapen_aot/videos/R_S_ILSVRC2015_train_00165013.mp4	0.0	67.57232522964478	0.3916330337524414
2	3.007688045501709	response	0	space		0.0	2.5	/experiments/knapen_aot/videos/R_S_ILSVRC2015_train_00165013.mp4	0.0	67.94837307929993	
2	3.023273229598999	movie	1		301.0	0.0	2.5	/experiments/knapen_aot/videos/R_S_ILSVRC2015_train_00165013.mp4	0.0	67.96395826339722	2.5084068775177
2	5.531680107116699	fix_post	2		12.0	0.0	2.5	/experiments/knapen_aot/videos/R_S_ILSVRC2015_train_00165013.mp4	0.0	70.47236514091492	0.0999901294708252
3	5.631670236587524	fix_pre	0		69.0	1.0	2.5	/experiments/knapen_aot/videos/R_S_yt-Ek1jcvett9E_33.mp4	0.0	70.57235527038574	0.5762817859649658
3	6.203221082687378	response	0	2		1.0	2.5	/experiments/knapen_aot/videos/R_S_yt-Ek1jcvett9E_33.mp4	0.0	71.1439061164856	
3	6.20795202255249	movie	1		297.0	1.0	2.5	/experiments/knapen_aot/videos/R_S_yt-Ek1jcvett9E_33.mp4	0.0	71.14863705635071	2.5070769786834717
3	8.715029001235962	fix_post	2		12.0	1.0	2.5	/experiments/knapen_aot/videos/R_S_yt-Ek1jcvett9E_33.mp4	0.0	73.65571403503418	0.09996223449707031
4	8.814991235733032	fix_pre	0		2.0	2.0	2.5	/experiments/knapen_aot/videos/S_yt-hRAqAwRhmwE_58.mp4	0.0	73.75567626953125	0.018005847930908203
4	8.823530197143555	response	0	2		2.0	2.5	/experiments/knapen_aot/videos/S_yt-hRAqAwRhmwE_58.mp4	0.0	73.76421523094177	
4	8.83299708366394	movie	1		300.0	2.0	2.5	/experiments/knapen_aot/videos/S_yt-hRAqAwRhmwE_58.mp4	0.0	73.77368211746216	2.506969928741455
4	11.339967012405396	fix_post	2		12.0	2.0	2.5	/experiments/knapen_aot/videos/S_yt-hRAqAwRhmwE_58.mp4	0.0	76.28065204620361	0.09993410110473633
5	11.439901113510132	fix_pre	0		7.0	3.0	2.5	/experiments/knapen_aot/videos/R_S_yt-mL3MuCfKtdY_79.mp4	0.0	76.38058614730835	0.05960702896118164
5	11.482562065124512	response	0	2		3.0	2.5	/experiments/knapen_aot/videos/R_S_yt-mL3MuCfKtdY_79.mp4	0.0	76.42324709892273	
5	11.499508142471313	movie	1		301.0	3.0	2.5	/experiments/knapen_aot/videos/R_S_yt-mL3MuCfKtdY_79.mp4	0.0	76.44019317626953	2.5071370601654053
5	14.006645202636719	fix_post	2		12.0	3.0	2.5	/experiments/knapen_aot/videos/R_S_yt-mL3MuCfKtdY_79.mp4	0.0	78.94733023643494	0.10002589225769043
6	14.10667109489441	fix_pre	0		1.0	4.0	2.5	/experiments/knapen_aot/videos/R_S_yt-EuyfT0PuOoQ_91.mp4	0.0	79.04735612869263	0.010931968688964844
6	14.108333110809326	response	0	2		4.0	2.5	/experiments/knapen_aot/videos/R_S_yt-EuyfT0PuOoQ_91.mp4	0.0	79.04901814460754	
6	14.117603063583374	movie	1		301.0	4.0	2.5	/experiments/knapen_aot/videos/R_S_yt-EuyfT0PuOoQ_91.mp4	0.0	79.05828809738159	2.5056731700897217
6	16.541211128234863	response	1	2		4.0	2.5	/experiments/knapen_aot/videos/R_S_yt-EuyfT0PuOoQ_91.mp4	0.0	81.48189616203308	
6	16.623276233673096	fix_post	2		12.0	4.0	2.5	/experiments/knapen_aot/videos/R_S_yt-EuyfT0PuOoQ_91.mp4	0.0	81.56396126747131	0.0999748706817627
7	16.72325110435486	fix_pre	0		19.0	5.0	2.5	blank	1.0	81.66393613815308	0.15833091735839844
7	16.873412132263184	response	0	2		5.0	2.5	blank	1.0	81.8140971660614	
7	16.881582021713257	movie	1		301.0	5.0	2.5	blank	1.0	81.82226705551147	2.508333206176758
7	19.389915227890015	fix_post	2		12.0	5.0	2.5	blank	1.0	84.33060026168823	0.09996390342712402
8	19.48987913131714	fix_pre	0		15.0	6.0	2.5	/experiments/knapen_aot/videos/R_S_yt-tNCrkObhB6c_17.mp4	0.0	84.43056416511536	0.1249840259552002
8	19.606654167175293	response	0	2		6.0	2.5	/experiments/knapen_aot/videos/R_S_yt-tNCrkObhB6c_17.mp4	0.0	84.54733920097351	
8	19.61486315727234	movie	1		301.0	6.0	2.5	/experiments/knapen_aot/videos/R_S_yt-tNCrkObhB6c_17.mp4	0.0	84.55554819107056	2.5083720684051514
8	22.12323522567749	fix_post	2		12.0	6.0	2.5	/experiments/knapen_aot/videos/R_S_yt-tNCrkObhB6c_17.mp4	0.0	87.06392025947571	0.10007500648498535
8	22.140005111694336	response	2	2		6.0	2.5	/experiments/knapen_aot/videos/R_S_yt-tNCrkObhB6c_17.mp4	0.0	87.08069014549255	
9	22.223310232162476	fix_pre	0		31.0	7.0	2.5	/experiments/knapen_aot/videos/S_cST9H3zu3zQ_126.mp4	0.0	87.1639952659607	0.2582278251647949
9	22.473352193832397	response	0	2		7.0	2.5	/experiments/knapen_aot/videos/S_cST9H3zu3zQ_126.mp4	0.0	87.41403722763062	
9	22.48153805732727	movie	1		300.0	7.0	2.5	/experiments/knapen_aot/videos/S_cST9H3zu3zQ_126.mp4	0.0	87.42222309112549	2.5083200931549072
9	24.989858150482178	fix_post	2		12.0	7.0	2.5	/experiments/knapen_aot/videos/S_cST9H3zu3zQ_126.mp4	0.0	89.9305431842804	0.10004186630249023
10	25.089900016784668	fix_pre	0		5.0	8.0	2.5	/experiments/knapen_aot/videos/R_S_wc-PqINyFk_ku4u_18.mp4	0.0	90.03058505058289	0.041709184646606445
10	25.123353004455566	response	0	2		8.0	2.5	/experiments/knapen_aot/videos/R_S_wc-PqINyFk_ku4u_18.mp4	0.0	90.06403803825378	
10	25.131609201431274	movie	1		164.0	8.0	2.5	/experiments/knapen_aot/videos/R_S_wc-PqINyFk_ku4u_18.mp4	0.0	90.07229423522949	2.5082290172576904
10	27.639838218688965	fix_post	2		12.0	8.0	2.5	/experiments/knapen_aot/videos/R_S_wc-PqINyFk_ku4u_18.mp4	0.0	92.58052325248718	0.10000300407409668
11	27.73984122276306	fix_pre	0		9.0	9.0	2.5	/experiments/knapen_aot/videos/S_yt-fq7m668hqZo_39.mp4	0.0	92.68052625656128	0.07498478889465332
11	27.806639194488525	response	0	2		9.0	2.5	/experiments/knapen_aot/videos/S_yt-fq7m668hqZo_39.mp4	0.0	92.74732422828674	
11	27.814826011657715	movie	1		301.0	9.0	2.5	/experiments/knapen_aot/videos/S_yt-fq7m668hqZo_39.mp4	0.0	92.75551104545593	2.5085501670837402
11	30.323376178741455	fix_post	2		12.0	9.0	2.5	/experiments/knapen_aot/videos/S_yt-fq7m668hqZo_39.mp4	0.0	95.26406121253967	0.09984588623046875
12	30.423222064971924	fix_pre	0		6.0	10.0	2.5	/experiments/knapen_aot/videos/S_yt-Faxdis4m3Fw_9.mp4	0.0	95.36390709877014	0.049935102462768555
12	30.457709074020386	response	0	2		10.0	2.5	/experiments/knapen_aot/videos/S_yt-Faxdis4m3Fw_9.mp4	0.0	95.3983941078186	
12	30.473157167434692	movie	1		301.0	10.0	2.5	/experiments/knapen_aot/videos/S_yt-Faxdis4m3Fw_9.mp4	0.0	95.41384220123291	2.50827693939209
12	32.98143410682678	fix_post	2		12.0	10.0	2.5	/experiments/knapen_aot/videos/S_yt-Faxdis4m3Fw_9.mp4	0.0	97.922119140625	0.10004806518554688
13	33.08148217201233	fix_pre	0		5.0	11.0	2.5	/experiments/knapen_aot/videos/S_bing-www_cnet_com_videos_amazon-wants-to-put-alexa-on-your-pc__50.mp4	0.0	98.02216720581055	0.043025970458984375
13	33.11500406265259	response	0	2		11.0	2.5	/experiments/knapen_aot/videos/S_bing-www_cnet_com_videos_amazon-wants-to-put-alexa-on-your-pc__50.mp4	0.0	98.0556890964508	
13	33.12450814247131	movie	1		165.0	11.0	2.5	/experiments/knapen_aot/videos/S_bing-www_cnet_com_videos_amazon-wants-to-put-alexa-on-your-pc__50.mp4	0.0	98.06519317626953	2.5070440769195557
13	35.63155221939087	fix_post	2		12.0	11.0	2.5	/experiments/knapen_aot/videos/S_bing-www_cnet_com_videos_amazon-wants-to-put-alexa-on-your-pc__50.mp4	0.0	100.57223725318909	0.09998679161071777
14	35.73153901100159	fix_pre	0		6.0	12.0	2.5	/experiments/knapen_aot/videos/S_yt-Ndwek2tpIOA_169.mp4	0.0	100.6722240447998	0.05010414123535156
14	35.766592025756836	response	0	2		12.0	2.5	/experiments/knapen_aot/videos/S_yt-Ndwek2tpIOA_169.mp4	0.0	100.70727705955505	
14	35.78164315223694	movie	1		301.0	12.0	2.5	/experiments/knapen_aot/videos/S_yt-Ndwek2tpIOA_169.mp4	0.0	100.72232818603516	2.5082240104675293
14	38.28986716270447	fix_post	2		12.0	12.0	2.5	/experiments/knapen_aot/videos/S_yt-Ndwek2tpIOA_169.mp4	0.0	103.23055219650269	0.09995198249816895
15	38.38981914520264	fix_pre	0		8.0	13.0	2.5	/experiments/knapen_aot/videos/R_S_Ds4EKTLx_RI_51.mp4	0.0	103.33050417900085	0.06775808334350586
15	38.44830918312073	response	0	2		13.0	2.5	/experiments/knapen_aot/videos/R_S_Ds4EKTLx_RI_51.mp4	0.0	103.38899421691895	
15	38.45757722854614	movie	1		301.0	13.0	2.5	/experiments/knapen_aot/videos/R_S_Ds4EKTLx_RI_51.mp4	0.0	103.39826226234436	2.5072498321533203
15	40.96482706069946	fix_post	2		12.0	13.0	2.5	/experiments/knapen_aot/videos/R_S_Ds4EKTLx_RI_51.mp4	0.0	105.90551209449768	0.09995007514953613
16	41.064777135849	fix_pre	0		10.0	14.0	2.5	blank	1.0	106.00546216964722	0.0833430290222168
16	41.139873027801514	response	0	2		14.0	2.5	blank	1.0	106.08055806159973	
16	41.148120164871216	movie	1		301.0	14.0	2.5	blank	1.0	106.08880519866943	2.5083839893341064
16	43.65650415420532	fix_post	2		12.0	14.0	2.5	blank	1.0	108.59718918800354	0.10000395774841309
17	43.756508111953735	fix_pre	0		4.0	15.0	2.5	/experiments/knapen_aot/videos/S_yt-zSSnQYeO_DE_338.mp4	0.0	108.69719314575195	0.03439688682556152
17	43.781578063964844	response	0	2		15.0	2.5	/experiments/knapen_aot/videos/S_yt-zSSnQYeO_DE_338.mp4	0.0	108.72226309776306	
17	43.7909049987793	movie	1		301.0	15.0	2.5	/experiments/knapen_aot/videos/S_yt-zSSnQYeO_DE_338.mp4	0.0	108.73159003257751	2.5072021484375
17	46.2981071472168	fix_post	2		12.0	15.0	2.5	/experiments/knapen_aot/videos/S_yt-zSSnQYeO_DE_338.mp4	0.0	111.23879218101501	0.09991598129272461
18	46.39802312850952	fix_pre	0		8.0	16.0	2.5	/experiments/knapen_aot/videos/S_yt-qazCIJqjxUU_3.mp4	0.0	111.33870816230774	0.06677699089050293
18	46.45677614212036	response	0	2		16.0	2.5	/experiments/knapen_aot/videos/S_yt-qazCIJqjxUU_3.mp4	0.0	111.39746117591858	
18	46.464800119400024	movie	1		301.0	16.0	2.5	/experiments/knapen_aot/videos/S_yt-qazCIJqjxUU_3.mp4	0.0	111.40548515319824	2.5082950592041016
18	48.973095178604126	fix_post	2		12.0	16.0	2.5	/experiments/knapen_aot/videos/S_yt-qazCIJqjxUU_3.mp4	0.0	113.91378021240234	0.09995698928833008
19	49.073052167892456	fix_pre	0		9.0	17.0	2.5	/experiments/knapen_aot/videos/R_S_yt-K-iCphzt_RE_17.mp4	0.0	114.01373720169067	0.07520794868469238
19	49.14007616043091	response	0	2		17.0	2.5	/experiments/knapen_aot/videos/R_S_yt-K-iCphzt_RE_17.mp4	0.0	114.08076119422913	
19	49.14826011657715	movie	1		301.0	17.0	2.5	/experiments/knapen_aot/videos/R_S_yt-K-iCphzt_RE_17.mp4	0.0	114.08894515037537	2.5081629753112793
19	51.65642309188843	fix_post	2		12.0	17.0	2.5	/experiments/knapen_aot/videos/R_S_yt-K-iCphzt_RE_17.mp4	0.0	116.59710812568665	0.09995913505554199
20	51.75638222694397	fix_pre	0		11.0	18.0	2.5	/experiments/knapen_aot/videos/R_S_yt-oVrkSsEpuvk_118.mp4	0.0	116.69706726074219	0.09172677993774414
20	51.832388162612915	response	0	2		18.0	2.5	/experiments/knapen_aot/videos/R_S_yt-oVrkSsEpuvk_118.mp4	0.0	116.77307319641113	
20	51.848109006881714	movie	1		301.0	18.0	2.5	/experiments/knapen_aot/videos/R_S_yt-oVrkSsEpuvk_118.mp4	0.0	116.78879404067993	2.5082740783691406
20	54.356383085250854	fix_post	2		12.0	18.0	2.5	/experiments/knapen_aot/videos/R_S_yt-oVrkSsEpuvk_118.mp4	0.0	119.29706811904907	0.10000395774841309
21	54.45638704299927	fix_pre	0		38.0	19.0	2.5	blank	1.0	119.39707207679749	0.3166379928588867
21	54.764891147613525	response	0	2		19.0	2.5	blank	1.0	119.70557618141174	
21	54.773025035858154	movie	1		301.0	19.0	2.5	blank	1.0	119.71371006965637	2.5082881450653076
21	57.28131318092346	fix_post	2		12.0	19.0	2.5	blank	1.0	122.22199821472168	0.10008597373962402
22	57.381399154663086	fix_pre	0		111.0	20.0	2.5	/experiments/knapen_aot/videos/R_S_comp_LA_A005_C009_PSNK_ALT_v09_SDR_PS_201809134_SDR_2K_AVC.mp4	0.0	122.3220841884613	0.9249379634857178
22	58.2982280254364	response	0	2		20.0	2.5	/experiments/knapen_aot/videos/R_S_comp_LA_A005_C009_PSNK_ALT_v09_SDR_PS_201809134_SDR_2K_AVC.mp4	0.0	123.23891305923462	
22	58.306337118148804	movie	1		188.0	20.0	2.5	/experiments/knapen_aot/videos/R_S_comp_LA_A005_C009_PSNK_ALT_v09_SDR_PS_201809134_SDR_2K_AVC.mp4	0.0	123.24702215194702	2.508466958999634
22	60.81480407714844	fix_post	2		12.0	20.0	2.5	/experiments/knapen_aot/videos/R_S_comp_LA_A005_C009_PSNK_ALT_v09_SDR_PS_201809134_SDR_2K_AVC.mp4	0.0	125.75548911094666	0.09989595413208008
23	60.91470003128052	fix_pre	0		32.0	21.0	2.5	/experiments/knapen_aot/videos/S_b3TCugtX0h0_108.mp4	0.0	125.85538506507874	0.2666640281677246
23	61.173198223114014	response	0	2		21.0	2.5	/experiments/knapen_aot/videos/S_b3TCugtX0h0_108.mp4	0.0	126.11388325691223	
23	61.18136405944824	movie	1		300.0	21.0	2.5	/experiments/knapen_aot/videos/S_b3TCugtX0h0_108.mp4	0.0	126.12204909324646	2.5083460807800293
23	63.68971014022827	fix_post	2		12.0	21.0	2.5	/experiments/knapen_aot/videos/S_b3TCugtX0h0_108.mp4	0.0	128.6303951740265	0.10000205039978027
24	63.78971219062805	fix_pre	0		19.0	22.0	2.5	/experiments/knapen_aot/videos/S_yt-Fm97IY0Z2LU_79.mp4	0.0	128.73039722442627	0.15828585624694824
24	63.93981218338013	response	0	2		22.0	2.5	/experiments/knapen_aot/videos/S_yt-Fm97IY0Z2LU_79.mp4	0.0	128.88049721717834	
24	63.947998046875	movie	1		301.0	22.0	2.5	/experiments/knapen_aot/videos/S_yt-Fm97IY0Z2LU_79.mp4	0.0	128.88868308067322	2.508371114730835
24	66.45636916160583	fix_post	2		12.0	22.0	2.5	/experiments/knapen_aot/videos/S_yt-Fm97IY0Z2LU_79.mp4	0.0	131.39705419540405	0.09997797012329102
25	66.55634713172913	fix_pre	0		21.0	23.0	2.5	/experiments/knapen_aot/videos/S_ILSVRC2015_train_00559000.mp4	0.0	131.49703216552734	0.17505407333374023
25	66.72319507598877	response	0	2		23.0	2.5	/experiments/knapen_aot/videos/S_ILSVRC2015_train_00559000.mp4	0.0	131.663880109787	
25	66.73140120506287	movie	1		301.0	23.0	2.5	/experiments/knapen_aot/videos/S_ILSVRC2015_train_00559000.mp4	0.0	131.67208623886108	2.508236885070801
25	69.23963809013367	fix_post	2		12.0	23.0	2.5	/experiments/knapen_aot/videos/S_ILSVRC2015_train_00559000.mp4	0.0	134.18032312393188	0.09994196891784668
25	69.31482005119324	response	2	2		23.0	2.5	/experiments/knapen_aot/videos/S_ILSVRC2015_train_00559000.mp4	0.0	134.25550508499146	
26	69.33958005905151	fix_pre	0		35.0	24.0	2.5	/experiments/knapen_aot/videos/R_S_yt--WPE_4bqQXc_26.mp4	0.0	134.28026509284973	0.29172611236572266
26	69.62313413619995	response	0	2		24.0	2.5	/experiments/knapen_aot/videos/R_S_yt--WPE_4bqQXc_26.mp4	0.0	134.56381916999817	
26	69.63130617141724	movie	1		298.0	24.0	2.5	/experiments/knapen_aot/videos/R_S_yt--WPE_4bqQXc_26.mp4	0.0	134.57199120521545	2.5083749294281006
26	72.13968110084534	fix_post	2		12.0	24.0	2.5	/experiments/knapen_aot/videos/R_S_yt--WPE_4bqQXc_26.mp4	0.0	137.08036613464355	0.10000300407409668
27	72.23968410491943	fix_pre	0		13.0	25.0	2.5	/experiments/knapen_aot/videos/R_S_yt-mDil5vGZb14_4049.mp4	0.0	137.18036913871765	0.1083071231842041
27	72.33977317810059	response	0	2		25.0	2.5	/experiments/knapen_aot/videos/R_S_yt-mDil5vGZb14_4049.mp4	0.0	137.2804582118988	
27	72.34799122810364	movie	1		301.0	25.0	2.5	/experiments/knapen_aot/videos/R_S_yt-mDil5vGZb14_4049.mp4	0.0	137.28867626190186	2.508344888687134
27	74.85633611679077	fix_post	2		12.0	25.0	2.5	/experiments/knapen_aot/videos/R_S_yt-mDil5vGZb14_4049.mp4	0.0	139.797021150589	0.09998297691345215
28	74.95631909370422	fix_pre	0		50.0	26.0	2.5	/experiments/knapen_aot/videos/R_S_yt-ZTAaH5XbtfE_3.mp4	0.0	139.89700412750244	0.4175550937652588
28	75.364737033844	response	0	2		26.0	2.5	/experiments/knapen_aot/videos/R_S_yt-ZTAaH5XbtfE_3.mp4	0.0	140.3054220676422	
28	75.37387418746948	movie	1		301.0	26.0	2.5	/experiments/knapen_aot/videos/R_S_yt-ZTAaH5XbtfE_3.mp4	0.0	140.3145592212677	2.50744891166687
28	77.88132309913635	fix_post	2		12.0	26.0	2.5	/experiments/knapen_aot/videos/R_S_yt-ZTAaH5XbtfE_3.mp4	0.0	142.82200813293457	0.10000300407409668
29	77.98132610321045	fix_pre	0		16.0	27.0	2.5	/experiments/knapen_aot/videos/S_pexels-mikhail-nilov-8410088.mp4	0.0	142.92201113700867	0.1332840919494629
29	78.10645008087158	response	0	2		27.0	2.5	/experiments/knapen_aot/videos/S_pexels-mikhail-nilov-8410088.mp4	0.0	143.0471351146698	
29	78.11461019515991	movie	1		165.0	27.0	2.5	/experiments/knapen_aot/videos/S_pexels-mikhail-nilov-8410088.mp4	0.0	143.05529522895813	2.5083718299865723
29	80.62298202514648	fix_post	2		12.0	27.0	2.5	/experiments/knapen_aot/videos/S_pexels-mikhail-nilov-8410088.mp4	0.0	145.5636670589447	0.09994816780090332
30	80.72293019294739	fix_pre	0		24.0	28.0	2.5	blank	1.0	145.6636152267456	0.20007801055908203
30	80.91476321220398	response	0	2		28.0	2.5	blank	1.0	145.8554482460022	
30	80.92300820350647	movie	1		301.0	28.0	2.5	blank	1.0	145.8636932373047	2.50826096534729
30	83.43126916885376	fix_post	2		12.0	28.0	2.5	blank	1.0	148.37195420265198	0.1000070571899414
31	83.5312762260437	fix_pre	0		31.0	29.0	2.5	/experiments/knapen_aot/videos/S_yt--OkafQ5VFHs_51.mp4	0.0	148.47196125984192	0.25919079780578613
31	83.78143000602722	response	0	2		29.0	2.5	/experiments/knapen_aot/videos/S_yt--OkafQ5VFHs_51.mp4	0.0	148.72211503982544	
31	83.79046702384949	movie	1		301.0	29.0	2.5	/experiments/knapen_aot/videos/S_yt--OkafQ5VFHs_51.mp4	0.0	148.7311520576477	2.507458209991455
31	86.29792523384094	fix_post	2		12.0	29.0	2.5	/experiments/knapen_aot/videos/S_yt--OkafQ5VFHs_51.mp4	0.0	151.23861026763916	0.0999457836151123
32	86.39787101745605	fix_pre	0		9.0	30.0	2.5	/experiments/knapen_aot/videos/R_S_yt-7e6Z9QQieAk_183.mp4	0.0	151.33855605125427	0.07502102851867676
32	86.46475219726562	response	0	2		30.0	2.5	/experiments/knapen_aot/videos/R_S_yt-7e6Z9QQieAk_183.mp4	0.0	151.40543723106384	
32	86.47289204597473	movie	1		301.0	30.0	2.5	/experiments/knapen_aot/videos/R_S_yt-7e6Z9QQieAk_183.mp4	0.0	151.41357707977295	2.508315086364746
32	88.98120713233948	fix_post	2		12.0	30.0	2.5	/experiments/knapen_aot/videos/R_S_yt-7e6Z9QQieAk_183.mp4	0.0	153.9218921661377	0.1000509262084961
33	89.08125805854797	fix_pre	0		15.0	31.0	2.5	/experiments/knapen_aot/videos/S_yt-r7brAHgxZSU_248.mp4	0.0	154.0219430923462	0.12578201293945312
33	89.1979501247406	response	0	2		31.0	2.5	/experiments/knapen_aot/videos/S_yt-r7brAHgxZSU_248.mp4	0.0	154.13863515853882	
33	89.20704007148743	movie	1		301.0	31.0	2.5	/experiments/knapen_aot/videos/S_yt-r7brAHgxZSU_248.mp4	0.0	154.14772510528564	2.5075790882110596
33	91.71461915969849	fix_post	2		12.0	31.0	2.5	/experiments/knapen_aot/videos/S_yt-r7brAHgxZSU_248.mp4	0.0	156.6553041934967	0.09994888305664062
34	91.81456804275513	fix_pre	0		10.0	32.0	2.5	/experiments/knapen_aot/videos/S_yt-VfASxEzDrvc_145.mp4	0.0	156.75525307655334	0.08336114883422852
34	91.88969206809998	response	0	2		32.0	2.5	/experiments/knapen_aot/videos/S_yt-VfASxEzDrvc_145.mp4	0.0	156.8303771018982	
34	91.89792919158936	movie	1		301.0	32.0	2.5	/experiments/knapen_aot/videos/S_yt-VfASxEzDrvc_145.mp4	0.0	156.83861422538757	2.5083179473876953
34	94.40624713897705	fix_post	2		12.0	32.0	2.5	/experiments/knapen_aot/videos/S_yt-VfASxEzDrvc_145.mp4	0.0	159.34693217277527	0.0999460220336914
35	94.50619316101074	fix_pre	0		17.0	33.0	2.5	/experiments/knapen_aot/videos/R_S_yt-r7brAHgxZSU_248.mp4	0.0	159.44687819480896	0.14168000221252441
35	94.63964009284973	response	0	2		33.0	2.5	/experiments/knapen_aot/videos/R_S_yt-r7brAHgxZSU_248.mp4	0.0	159.58032512664795	
35	94.64787316322327	movie	1		301.0	33.0	2.5	/experiments/knapen_aot/videos/R_S_yt-r7brAHgxZSU_248.mp4	0.0	159.58855819702148	2.5082919597625732
35	97.15616512298584	fix_post	2		12.0	33.0	2.5	/experiments/knapen_aot/videos/R_S_yt-r7brAHgxZSU_248.mp4	0.0	162.09685015678406	0.10010290145874023
36	97.25626802444458	fix_pre	0		10.0	34.0	2.5	blank	1.0	162.1969530582428	0.08330917358398438
36	97.33133602142334	response	0	2		34.0	2.5	blank	1.0	162.27202105522156	
36	97.33957719802856	movie	1		301.0	34.0	2.5	blank	1.0	162.28026223182678	2.508319854736328
36	99.84789705276489	fix_post	2		12.0	34.0	2.5	blank	1.0	164.7885820865631	0.1000211238861084
37	99.947918176651	fix_pre	0		17.0	35.0	2.5	/experiments/knapen_aot/videos/R_S_comp_DB_D011_D009_SIGNCMP_v15_6Mbps.mp4	0.0	164.88860321044922	0.14162087440490723
37	100.08129000663757	response	0	2		35.0	2.5	/experiments/knapen_aot/videos/R_S_comp_DB_D011_D009_SIGNCMP_v15_6Mbps.mp4	0.0	165.0219750404358	
37	100.08953905105591	movie	1		169.0	35.0	2.5	/experiments/knapen_aot/videos/R_S_comp_DB_D011_D009_SIGNCMP_v15_6Mbps.mp4	0.0	165.03022408485413	2.5083391666412354
37	102.59787821769714	fix_post	2		12.0	35.0	2.5	/experiments/knapen_aot/videos/R_S_comp_DB_D011_D009_SIGNCMP_v15_6Mbps.mp4	0.0	167.53856325149536	0.10001587867736816
37	102.67296504974365	response	2	2		35.0	2.5	/experiments/knapen_aot/videos/R_S_comp_DB_D011_D009_SIGNCMP_v15_6Mbps.mp4	0.0	167.61365008354187	
38	102.69789409637451	fix_pre	0		34.0	36.0	2.5	/experiments/knapen_aot/videos/R_S_yt-vQ-rd-1gwH4_238.mp4	0.0	167.63857913017273	0.2832949161529541
38	102.97301506996155	response	0	2		36.0	2.5	/experiments/knapen_aot/videos/R_S_yt-vQ-rd-1gwH4_238.mp4	0.0	167.91370010375977	
38	102.98118901252747	movie	1		301.0	36.0	2.5	/experiments/knapen_aot/videos/R_S_yt-vQ-rd-1gwH4_238.mp4	0.0	167.92187404632568	2.508316993713379
38	105.48950600624084	fix_post	2		12.0	36.0	2.5	/experiments/knapen_aot/videos/R_S_yt-vQ-rd-1gwH4_238.mp4	0.0	170.43019104003906	0.10007715225219727
39	105.58958315849304	fix_pre	0		35.0	37.0	2.5	/experiments/knapen_aot/videos/S_yt-IyxCMODHSSE_29.mp4	0.0	170.53026819229126	0.29160284996032715
39	105.87297916412354	response	0	2		37.0	2.5	/experiments/knapen_aot/videos/S_yt-IyxCMODHSSE_29.mp4	0.0	170.81366419792175	
39	105.88118600845337	movie	1		301.0	37.0	2.5	/experiments/knapen_aot/videos/S_yt-IyxCMODHSSE_29.mp4	0.0	170.8218710422516	2.5083200931549072
39	108.38950610160828	fix_post	2		12.0	37.0	2.5	/experiments/knapen_aot/videos/S_yt-IyxCMODHSSE_29.mp4	0.0	173.3301911354065	0.09997296333312988
40	108.4894790649414	fix_pre	0		23.0	38.0	2.5	/experiments/knapen_aot/videos/S_ILSVRC2015_train_00574004.mp4	0.0	173.43016409873962	0.19163894653320312
40	108.6729531288147	response	0	2		38.0	2.5	/experiments/knapen_aot/videos/S_ILSVRC2015_train_00574004.mp4	0.0	173.61363816261292	
40	108.68111801147461	movie	1		301.0	38.0	2.5	/experiments/knapen_aot/videos/S_ILSVRC2015_train_00574004.mp4	0.0	173.62180304527283	2.508331060409546
40	111.18944907188416	fix_post	2		12.0	38.0	2.5	/experiments/knapen_aot/videos/S_ILSVRC2015_train_00574004.mp4	0.0	176.13013410568237	0.1000220775604248
41	111.28947114944458	fix_pre	0		15.0	39.0	2.5	/experiments/knapen_aot/videos/R_S_yt-VfASxEzDrvc_145.mp4	0.0	176.2301561832428	0.12569093704223633
41	111.40629410743713	response	0	2		39.0	2.5	/experiments/knapen_aot/videos/R_S_yt-VfASxEzDrvc_145.mp4	0.0	176.34697914123535	
41	111.41516208648682	movie	1		301.0	39.0	2.5	/experiments/knapen_aot/videos/R_S_yt-VfASxEzDrvc_145.mp4	0.0	176.35584712028503	2.5076451301574707
41	113.92280721664429	fix_post	2		12.0	39.0	2.5	/experiments/knapen_aot/videos/R_S_yt-VfASxEzDrvc_145.mp4	0.0	178.8634922504425	0.09989595413208008
42	114.02270317077637	fix_pre	0		15.0	40.0	2.5	/experiments/knapen_aot/videos/R_S_yt-nMWqezngycw_10.mp4	0.0	178.96338820457458	0.1250770092010498
42	114.13955116271973	response	0	2		40.0	2.5	/experiments/knapen_aot/videos/R_S_yt-nMWqezngycw_10.mp4	0.0	179.08023619651794	
42	114.14778017997742	movie	1		301.0	40.0	2.5	/experiments/knapen_aot/videos/R_S_yt-nMWqezngycw_10.mp4	0.0	179.08846521377563	2.5083608627319336
42	116.65614104270935	fix_post	2		12.0	40.0	2.5	/experiments/knapen_aot/videos/R_S_yt-nMWqezngycw_10.mp4	0.0	181.59682607650757	0.10003113746643066
43	116.75617218017578	fix_pre	0		12.0	41.0	2.5	/experiments/knapen_aot/videos/R_S_b3TCugtX0h0_108.mp4	0.0	181.696857213974	0.09994387626647949
43	116.8479151725769	response	0	2		41.0	2.5	/experiments/knapen_aot/videos/R_S_b3TCugtX0h0_108.mp4	0.0	181.78860020637512	
43	116.85611605644226	movie	1		301.0	41.0	2.5	/experiments/knapen_aot/videos/R_S_b3TCugtX0h0_108.mp4	0.0	181.79680109024048	2.5083420276641846
43	119.36445808410645	fix_post	2		12.0	41.0	2.5	/experiments/knapen_aot/videos/R_S_b3TCugtX0h0_108.mp4	0.0	184.30514311790466	0.09996604919433594
44	119.46442413330078	fix_pre	0		19.0	42.0	2.5	blank	1.0	184.405109167099	0.1590120792388916
44	119.61448812484741	response	0	2		42.0	2.5	blank	1.0	184.55517315864563	
44	119.62343621253967	movie	1		301.0	42.0	2.5	blank	1.0	184.5641212463379	2.507603883743286
44	122.13104009628296	fix_post	2		12.0	42.0	2.5	blank	1.0	187.07172513008118	0.09996390342712402
45	122.23100399971008	fix_pre	0		29.0	43.0	2.5	/experiments/knapen_aot/videos/S_yt-kawmL3oVw8c_2.mp4	0.0	187.1716890335083	0.24171805381774902
45	122.46448802947998	response	0	2		43.0	2.5	/experiments/knapen_aot/videos/S_yt-kawmL3oVw8c_2.mp4	0.0	187.4051730632782	
45	122.47272205352783	movie	1		301.0	43.0	2.5	/experiments/knapen_aot/videos/S_yt-kawmL3oVw8c_2.mp4	0.0	187.41340708732605	2.5082831382751465
45	124.98100519180298	fix_post	2		12.0	43.0	2.5	/experiments/knapen_aot/videos/S_yt-kawmL3oVw8c_2.mp4	0.0	189.9216902256012	0.10005593299865723
46	125.08106112480164	fix_pre	0		17.0	44.0	2.5	/experiments/knapen_aot/videos/R_S_yt-3V8US8ZD3NU_229.mp4	0.0	190.02174615859985	0.14174294471740723
46	125.20711517333984	response	0	2		44.0	2.5	/experiments/knapen_aot/videos/R_S_yt-3V8US8ZD3NU_229.mp4	0.0	190.14780020713806	
46	125.22280406951904	movie	1		301.0	44.0	2.5	/experiments/knapen_aot/videos/R_S_yt-3V8US8ZD3NU_229.mp4	0.0	190.16348910331726	2.508223056793213
46	127.73102712631226	fix_post	2		12.0	44.0	2.5	/experiments/knapen_aot/videos/R_S_yt-3V8US8ZD3NU_229.mp4	0.0	192.67171216011047	0.10000109672546387
47	127.83102822303772	fix_pre	0		34.0	45.0	2.5	/experiments/knapen_aot/videos/R_S_yt-bmGWhOCsvJo_128.mp4	0.0	192.77171325683594	0.283369779586792
47	128.10613203048706	response	0	2		45.0	2.5	/experiments/knapen_aot/videos/R_S_yt-bmGWhOCsvJo_128.mp4	0.0	193.04681706428528	
47	128.1143980026245	movie	1		301.0	45.0	2.5	/experiments/knapen_aot/videos/R_S_yt-bmGWhOCsvJo_128.mp4	0.0	193.05508303642273	2.508247137069702
47	130.6226451396942	fix_post	2		11.0	45.0	2.5	/experiments/knapen_aot/videos/R_S_yt-bmGWhOCsvJo_128.mp4	0.0	195.56333017349243	0.10004806518554688
48	130.72269320487976	fix_pre	0		11.0	46.0	2.5	/experiments/knapen_aot/videos/R_S_yt-QxNuo4ojvz4_420.mp4	0.0	195.66337823867798	0.09168791770935059
48	130.79870510101318	response	0	2		46.0	2.5	/experiments/knapen_aot/videos/R_S_yt-QxNuo4ojvz4_420.mp4	0.0	195.7393901348114	
48	130.8143811225891	movie	1		301.0	46.0	2.5	/experiments/knapen_aot/videos/R_S_yt-QxNuo4ojvz4_420.mp4	0.0	195.75506615638733	2.5082919597625732
48	133.32267308235168	fix_post	2		12.0	46.0	2.5	/experiments/knapen_aot/videos/R_S_yt-QxNuo4ojvz4_420.mp4	0.0	198.2633581161499	0.09997391700744629
49	133.42264699935913	fix_pre	0		15.0	47.0	2.5	/experiments/knapen_aot/videos/S_yt-1ruRqcfBMw0_21.mp4	0.0	198.36333203315735	0.12504911422729492
49	133.53947710990906	response	0	2		47.0	2.5	/experiments/knapen_aot/videos/S_yt-1ruRqcfBMw0_21.mp4	0.0	198.48016214370728	
49	133.54769611358643	movie	1		301.0	47.0	2.5	/experiments/knapen_aot/videos/S_yt-1ruRqcfBMw0_21.mp4	0.0	198.48838114738464	2.508359909057617
49	136.05605602264404	fix_post	2		12.0	47.0	2.5	/experiments/knapen_aot/videos/S_yt-1ruRqcfBMw0_21.mp4	0.0	200.99674105644226	0.09998202323913574
50	136.15603804588318	fix_pre	0		22.0	48.0	2.5	blank	1.0	201.0967230796814	0.18335795402526855
50	136.33121919631958	response	0	2		48.0	2.5	blank	1.0	201.2719042301178	
50	136.33939599990845	movie	1		301.0	48.0	2.5	blank	1.0	201.28008103370667	2.5083231925964355
50	138.84771919250488	fix_post	2		12.0	48.0	2.5	blank	1.0	203.7884042263031	0.10008382797241211
51	138.9478030204773	fix_pre	0		32.0	49.0	2.5	/experiments/knapen_aot/videos/R_S_yt-Faxdis4m3Fw_9.mp4	0.0	203.8884880542755	0.26656103134155273
51	139.20612621307373	response	0	2		49.0	2.5	/experiments/knapen_aot/videos/R_S_yt-Faxdis4m3Fw_9.mp4	0.0	204.14681124687195	
51	139.21436405181885	movie	1		301.0	49.0	2.5	/experiments/knapen_aot/videos/R_S_yt-Faxdis4m3Fw_9.mp4	0.0	204.15504908561707	2.50828218460083
51	141.72264623641968	fix_post	2		12.0	49.0	2.5	/experiments/knapen_aot/videos/R_S_yt-Faxdis4m3Fw_9.mp4	0.0	206.6633312702179	0.0999748706817627
52	141.82262110710144	fix_pre	0		1.0	50.0	2.5	/experiments/knapen_aot/videos/R_S_yt-SkIJvj6KNOo_33.mp4	0.0	206.76330614089966	0.008954048156738281
52	141.8242461681366	response	0	2		50.0	2.5	/experiments/knapen_aot/videos/R_S_yt-SkIJvj6KNOo_33.mp4	0.0	206.76493120193481	
52	141.83157515525818	movie	1		300.0	50.0	2.5	/experiments/knapen_aot/videos/R_S_yt-SkIJvj6KNOo_33.mp4	0.0	206.7722601890564	2.5077688694000244
52	144.3393440246582	fix_post	2		12.0	50.0	2.5	/experiments/knapen_aot/videos/R_S_yt-SkIJvj6KNOo_33.mp4	0.0	209.28002905845642	0.09999513626098633
52	144.43113017082214	response	2	2		50.0	2.5	/experiments/knapen_aot/videos/R_S_yt-SkIJvj6KNOo_33.mp4	0.0	209.37181520462036	
53	144.4393391609192	fix_pre	0		47.0	51.0	2.5	/experiments/knapen_aot/videos/R_S_yt-2pRKCSgdXXU_30.mp4	0.0	209.3800241947174	0.39219093322753906
53	144.8227322101593	response	0	2		51.0	2.5	/experiments/knapen_aot/videos/R_S_yt-2pRKCSgdXXU_30.mp4	0.0	209.76341724395752	
53	144.83153009414673	movie	1		301.0	51.0	2.5	/experiments/knapen_aot/videos/R_S_yt-2pRKCSgdXXU_30.mp4	0.0	209.77221512794495	2.507812023162842
53	147.33934211730957	fix_post	2		12.0	51.0	2.5	/experiments/knapen_aot/videos/R_S_yt-2pRKCSgdXXU_30.mp4	0.0	212.2800271511078	0.09992194175720215
54	147.43926405906677	fix_pre	0		24.0	52.0	2.5	/experiments/knapen_aot/videos/R_S_ILSVRC2015_train_00495000.mp4	0.0	212.379949092865	0.20003914833068848
54	147.6236011981964	response	0	2		52.0	2.5	/experiments/knapen_aot/videos/R_S_ILSVRC2015_train_00495000.mp4	0.0	212.56428623199463	
54	147.63930320739746	movie	1		301.0	52.0	2.5	/experiments/knapen_aot/videos/R_S_ILSVRC2015_train_00495000.mp4	0.0	212.57998824119568	2.5084259510040283
54	150.1477291584015	fix_post	2		12.0	52.0	2.5	/experiments/knapen_aot/videos/R_S_ILSVRC2015_train_00495000.mp4	0.0	215.0884141921997	0.09991097450256348
55	150.24764013290405	fix_pre	0		8.0	53.0	2.5	/experiments/knapen_aot/videos/S_ILSVRC2015_train_00628000.mp4	0.0	215.18832516670227	0.06663799285888672
55	150.2986650466919	response	0	2		53.0	2.5	/experiments/knapen_aot/videos/S_ILSVRC2015_train_00628000.mp4	0.0	215.2393500804901	
55	150.31427812576294	movie	1		301.0	53.0	2.5	/experiments/knapen_aot/videos/S_ILSVRC2015_train_00628000.mp4	0.0	215.25496315956116	2.5083529949188232
55	152.82263112068176	fix_post	2		12.0	53.0	2.5	/experiments/knapen_aot/videos/S_ILSVRC2015_train_00628000.mp4	0.0	217.76331615447998	0.09999203681945801
56	152.92262315750122	fix_pre	0		20.0	54.0	2.5	/experiments/knapen_aot/videos/R_S_wc-lItGMdwvEd_l_7.mp4	0.0	217.86330819129944	0.16664886474609375
56	153.0810022354126	response	0	2		54.0	2.5	/experiments/knapen_aot/videos/R_S_wc-lItGMdwvEd_l_7.mp4	0.0	218.02168726921082	
56	153.08927202224731	movie	1		165.0	54.0	2.5	/experiments/knapen_aot/videos/R_S_wc-lItGMdwvEd_l_7.mp4	0.0	218.02995705604553	2.508385181427002
56	155.59765720367432	fix_post	2		12.0	54.0	2.5	/experiments/knapen_aot/videos/R_S_wc-lItGMdwvEd_l_7.mp4	0.0	220.53834223747253	0.09998202323913574
57	155.69763922691345	fix_pre	0		7.0	55.0	2.5	/experiments/knapen_aot/videos/R_S_ILSVRC2015_train_00559000.mp4	0.0	220.63832426071167	0.058345794677734375
57	155.74776315689087	response	0	2		55.0	2.5	/experiments/knapen_aot/videos/R_S_ILSVRC2015_train_00559000.mp4	0.0	220.6884481906891	
57	155.7559850215912	movie	1		301.0	55.0	2.5	/experiments/knapen_aot/videos/R_S_ILSVRC2015_train_00559000.mp4	0.0	220.6966700553894	2.50828218460083
57	158.26426720619202	fix_post	2		12.0	55.0	2.5	/experiments/knapen_aot/videos/R_S_ILSVRC2015_train_00559000.mp4	0.0	223.20495223999023	0.09996199607849121
58	158.3642292022705	fix_pre	0		8.0	56.0	2.5	blank	1.0	223.30491423606873	0.06672000885009766
58	158.4227511882782	response	0	2		56.0	2.5	blank	1.0	223.36343622207642	
58	158.4309492111206	movie	1		301.0	56.0	2.5	blank	1.0	223.37163424491882	2.508356809616089
58	160.9393060207367	fix_post	2		12.0	56.0	2.5	blank	1.0	225.8799910545349	0.10042405128479004
59	161.03973007202148	fix_pre	0		17.0	57.0	2.5	/experiments/knapen_aot/videos/S_yt-NqyG4Ar2JWo_10.mp4	0.0	225.9804151058197	0.14120006561279297
59	161.17264223098755	response	0	2		57.0	2.5	/experiments/knapen_aot/videos/S_yt-NqyG4Ar2JWo_10.mp4	0.0	226.11332726478577	
59	161.18093013763428	movie	1		301.0	57.0	2.5	/experiments/knapen_aot/videos/S_yt-NqyG4Ar2JWo_10.mp4	0.0	226.1216151714325	2.5083649158477783
59	163.68929505348206	fix_post	2		12.0	57.0	2.5	/experiments/knapen_aot/videos/S_yt-NqyG4Ar2JWo_10.mp4	0.0	228.62998008728027	0.0999290943145752
60	163.78922414779663	fix_pre	0		15.0	58.0	2.5	/experiments/knapen_aot/videos/S_yt-bmGWhOCsvJo_128.mp4	0.0	228.72990918159485	0.12553787231445312
60	163.9060502052307	response	0	2		58.0	2.5	/experiments/knapen_aot/videos/S_yt-bmGWhOCsvJo_128.mp4	0.0	228.84673523902893	
60	163.91476202011108	movie	1		299.0	58.0	2.5	/experiments/knapen_aot/videos/S_yt-bmGWhOCsvJo_128.mp4	0.0	228.8554470539093	2.5078020095825195
60	166.4225640296936	fix_post	2		12.0	58.0	2.5	/experiments/knapen_aot/videos/S_yt-bmGWhOCsvJo_128.mp4	0.0	231.36324906349182	0.10001397132873535
61	166.52257800102234	fix_pre	0		9.0	59.0	2.5	/experiments/knapen_aot/videos/S_yt-y6zr69M0yHI_76.mp4	0.0	231.46326303482056	0.07499003410339355
61	166.58925104141235	response	0	2		59.0	2.5	/experiments/knapen_aot/videos/S_yt-y6zr69M0yHI_76.mp4	0.0	231.52993607521057	
61	166.59756803512573	movie	1		301.0	59.0	2.5	/experiments/knapen_aot/videos/S_yt-y6zr69M0yHI_76.mp4	0.0	231.53825306892395	2.5083601474761963
61	169.10592818260193	fix_post	2		12.0	59.0	2.5	/experiments/knapen_aot/videos/S_yt-y6zr69M0yHI_76.mp4	0.0	234.04661321640015	0.09996795654296875
62	169.2058961391449	fix_pre	0		15.0	60.0	2.5	/experiments/knapen_aot/videos/R_S_yt-Dwgpjoikt84_122.mp4	0.0	234.14658117294312	0.12537789344787598
62	169.32263612747192	response	0	2		60.0	2.5	/experiments/knapen_aot/videos/R_S_yt-Dwgpjoikt84_122.mp4	0.0	234.26332116127014	
62	169.33127403259277	movie	1		301.0	60.0	2.5	/experiments/knapen_aot/videos/R_S_yt-Dwgpjoikt84_122.mp4	0.0	234.271959066391	2.507948160171509
62	171.83922219276428	fix_post	2		12.0	60.0	2.5	/experiments/knapen_aot/videos/R_S_yt-Dwgpjoikt84_122.mp4	0.0	236.7799072265625	0.09987998008728027
63	171.93910217285156	fix_pre	0		22.0	61.0	2.5	blank	1.0	236.87978720664978	0.18381690979003906
63	172.1067910194397	response	0	2		61.0	2.5	blank	1.0	237.04747605323792	
63	172.1229190826416	movie	1		301.0	61.0	2.5	blank	1.0	237.06360411643982	2.5079591274261475
63	174.63087821006775	fix_post	2		12.0	61.0	2.5	blank	1.0	239.57156324386597	0.09992694854736328
64	174.7308051586151	fix_pre	0		22.0	62.0	2.5	/experiments/knapen_aot/videos/R_S_cST9H3zu3zQ_126.mp4	0.0	239.67149019241333	0.18373894691467285
64	174.90603017807007	response	0	2		62.0	2.5	/experiments/knapen_aot/videos/R_S_cST9H3zu3zQ_126.mp4	0.0	239.8467152118683	
64	174.91454410552979	movie	1		301.0	62.0	2.5	/experiments/knapen_aot/videos/R_S_cST9H3zu3zQ_126.mp4	0.0	239.855229139328	2.507941961288452
64	177.42248606681824	fix_post	2		12.0	62.0	2.5	/experiments/knapen_aot/videos/R_S_cST9H3zu3zQ_126.mp4	0.0	242.36317110061646	0.10004806518554688
65	177.52253413200378	fix_pre	0		15.0	63.0	2.5	/experiments/knapen_aot/videos/S_comp_GMT060_117NC_363D_1034_AUSTRALIA_v35_SDR_PS_FINAL_20180731_SDR_2K_AVC.mp4	0.0	242.463219165802	0.12502288818359375
65	177.6392970085144	response	0	2		63.0	2.5	/experiments/knapen_aot/videos/S_comp_GMT060_117NC_363D_1034_AUSTRALIA_v35_SDR_PS_FINAL_20180731_SDR_2K_AVC.mp4	0.0	242.57998204231262	
65	177.64755702018738	movie	1		166.0	63.0	2.5	/experiments/knapen_aot/videos/S_comp_GMT060_117NC_363D_1034_AUSTRALIA_v35_SDR_PS_FINAL_20180731_SDR_2K_AVC.mp4	0.0	242.5882420539856	2.508294105529785
65	180.15585112571716	fix_post	2		12.0	63.0	2.5	/experiments/knapen_aot/videos/S_comp_GMT060_117NC_363D_1034_AUSTRALIA_v35_SDR_PS_FINAL_20180731_SDR_2K_AVC.mp4	0.0	245.09653615951538	0.10016107559204102
66	180.2560122013092	fix_pre	0		22.0	64.0	2.5	/experiments/knapen_aot/videos/S_comp_GMT060_117NC_363D_1034_AUSTRALIA_v35_SDR_PS_FINAL_20180731_SDR_2K_AVC.mp4	0.0	245.19669723510742	0.1833198070526123
66	180.43097615242004	response	0	2		64.0	2.5	/experiments/knapen_aot/videos/S_comp_GMT060_117NC_363D_1034_AUSTRALIA_v35_SDR_PS_FINAL_20180731_SDR_2K_AVC.mp4	0.0	245.37166118621826	
66	180.43933200836182	movie	1		161.0	64.0	2.5	/experiments/knapen_aot/videos/S_comp_GMT060_117NC_363D_1034_AUSTRALIA_v35_SDR_PS_FINAL_20180731_SDR_2K_AVC.mp4	0.0	245.38001704216003	2.508197069168091
66	182.9475290775299	fix_post	2		12.0	64.0	2.5	/experiments/knapen_aot/videos/S_comp_GMT060_117NC_363D_1034_AUSTRALIA_v35_SDR_PS_FINAL_20180731_SDR_2K_AVC.mp4	0.0	247.88821411132812	0.09995508193969727
67	183.0474841594696	fix_pre	0		22.0	65.0	2.5	/experiments/knapen_aot/videos/R_S_production_ID_3927047.mp4	0.0	247.98816919326782	0.18333196640014648
67	183.22265315055847	response	0	2		65.0	2.5	/experiments/knapen_aot/videos/R_S_production_ID_3927047.mp4	0.0	248.1633381843567	
67	183.23081612586975	movie	1		174.0	65.0	2.5	/experiments/knapen_aot/videos/R_S_production_ID_3927047.mp4	0.0	248.17150115966797	2.508465051651001
67	185.73928117752075	fix_post	2		12.0	65.0	2.5	/experiments/knapen_aot/videos/R_S_production_ID_3927047.mp4	0.0	250.67996621131897	0.09991192817687988
68	185.83919310569763	fix_pre	0		22.0	66.0	2.5	/experiments/knapen_aot/videos/S_yt-bQRBtP9zkms_111.mp4	0.0	250.77987813949585	0.18330907821655273
68	186.01430916786194	response	0	2		66.0	2.5	/experiments/knapen_aot/videos/S_yt-bQRBtP9zkms_111.mp4	0.0	250.95499420166016	
68	186.02250218391418	movie	1		300.0	66.0	2.5	/experiments/knapen_aot/videos/S_yt-bQRBtP9zkms_111.mp4	0.0	250.9631872177124	2.508219003677368
68	188.53072118759155	fix_post	2		12.0	66.0	2.5	/experiments/knapen_aot/videos/S_yt-bQRBtP9zkms_111.mp4	0.0	253.47140622138977	0.1000978946685791
69	188.63081908226013	fix_pre	0		13.0	67.0	2.5	/experiments/knapen_aot/videos/S_yt-foGMTdxewBI_43.mp4	0.0	253.57150411605835	0.10828113555908203
69	188.7309091091156	response	0	2		67.0	2.5	/experiments/knapen_aot/videos/S_yt-foGMTdxewBI_43.mp4	0.0	253.67159414291382	
69	188.7391002178192	movie	1		301.0	67.0	2.5	/experiments/knapen_aot/videos/S_yt-foGMTdxewBI_43.mp4	0.0	253.67978525161743	2.5083649158477783
69	191.247465133667	fix_post	2		12.0	67.0	2.5	/experiments/knapen_aot/videos/S_yt-foGMTdxewBI_43.mp4	0.0	256.1881501674652	0.0999610424041748
70	191.34742617607117	fix_pre	0		34.0	68.0	2.5	/experiments/knapen_aot/videos/R_S_yt-D_f3_HIXG2g_87.mp4	0.0	256.2881112098694	0.28331899642944336
70	191.62260913848877	response	0	2		68.0	2.5	/experiments/knapen_aot/videos/R_S_yt-D_f3_HIXG2g_87.mp4	0.0	256.563294172287	
70	191.6307451725006	movie	1		301.0	68.0	2.5	/experiments/knapen_aot/videos/R_S_yt-D_f3_HIXG2g_87.mp4	0.0	256.5714302062988	2.5083019733428955
70	194.1390471458435	fix_post	2		12.0	68.0	2.5	/experiments/knapen_aot/videos/R_S_yt-D_f3_HIXG2g_87.mp4	0.0	259.0797321796417	0.1000359058380127
71	194.23908305168152	fix_pre	0		13.0	69.0	2.5	blank	1.0	259.17976808547974	0.10838508605957031
71	194.3392150402069	response	0	2		69.0	2.5	blank	1.0	259.2799000740051	
71	194.3474681377411	movie	1		301.0	69.0	2.5	blank	1.0	259.2881531715393	2.5082499980926514
71	196.85571813583374	fix_post	2		12.0	69.0	2.5	blank	1.0	261.79640316963196	0.10031604766845703
72	196.9560341835022	fix_pre	0		15.0	70.0	2.5	/experiments/knapen_aot/videos/S_wc-b4Oquu3WQPRz_45.mp4	0.0	261.8967192173004	0.12503290176391602
72	197.07257413864136	response	0	2		70.0	2.5	/experiments/knapen_aot/videos/S_wc-b4Oquu3WQPRz_45.mp4	0.0	262.0132591724396	
72	197.0810670852661	movie	1		166.0	70.0	2.5	/experiments/knapen_aot/videos/S_wc-b4Oquu3WQPRz_45.mp4	0.0	262.02175211906433	2.508013963699341
72	199.58908104896545	fix_post	2		12.0	70.0	2.5	/experiments/knapen_aot/videos/S_wc-b4Oquu3WQPRz_45.mp4	0.0	264.5297660827637	0.09989714622497559
73	199.68897819519043	fix_pre	0		12.0	71.0	2.5	/experiments/knapen_aot/videos/S_production_ID_3709168.mp4	0.0	264.62966322898865	0.10036301612854004
73	199.77335214614868	response	0	2		71.0	2.5	/experiments/knapen_aot/videos/S_production_ID_3709168.mp4	0.0	264.7140371799469	
73	199.78934121131897	movie	1		201.0	71.0	2.5	/experiments/knapen_aot/videos/S_production_ID_3709168.mp4	0.0	264.7300262451172	2.5080649852752686
73	202.29740619659424	fix_post	2		12.0	71.0	2.5	/experiments/knapen_aot/videos/S_production_ID_3709168.mp4	0.0	267.23809123039246	0.09999799728393555
74	202.39740419387817	fix_pre	0		8.0	72.0	2.5	/experiments/knapen_aot/videos/S_yt-a9bnYU0Gnxg_59.mp4	0.0	267.3380892276764	0.06685495376586914
74	202.45635509490967	response	0	2		72.0	2.5	/experiments/knapen_aot/videos/S_yt-a9bnYU0Gnxg_59.mp4	0.0	267.3970401287079	
74	202.46425914764404	movie	1		301.0	72.0	2.5	/experiments/knapen_aot/videos/S_yt-a9bnYU0Gnxg_59.mp4	0.0	267.40494418144226	2.508089065551758
74	204.9723482131958	fix_post	2		12.0	72.0	2.5	/experiments/knapen_aot/videos/S_yt-a9bnYU0Gnxg_59.mp4	0.0	269.913033246994	0.10004687309265137
75	205.07239508628845	fix_pre	0		13.0	73.0	2.5	/experiments/knapen_aot/videos/R_S_yt-JmmyeMOFpII_29.mp4	0.0	270.01308012008667	0.10828113555908203
75	205.17243599891663	response	0	2		73.0	2.5	/experiments/knapen_aot/videos/R_S_yt-JmmyeMOFpII_29.mp4	0.0	270.11312103271484	
75	205.18067622184753	movie	1		301.0	73.0	2.5	/experiments/knapen_aot/videos/R_S_yt-JmmyeMOFpII_29.mp4	0.0	270.12136125564575	2.5083258152008057
75	207.68900203704834	fix_post	2		12.0	73.0	2.5	/experiments/knapen_aot/videos/R_S_yt-JmmyeMOFpII_29.mp4	0.0	272.62968707084656	0.10027718544006348
76	207.7892792224884	fix_pre	0		11.0	74.0	2.5	/experiments/knapen_aot/videos/S_yt-fq7m668hqZo_39.mp4	0.0	272.7299642562866	0.09139299392700195
76	207.87253308296204	response	0	2		74.0	2.5	/experiments/knapen_aot/videos/S_yt-fq7m668hqZo_39.mp4	0.0	272.81321811676025	
76	207.8806722164154	movie	1		301.0	74.0	2.5	/experiments/knapen_aot/videos/S_yt-fq7m668hqZo_39.mp4	0.0	272.8213572502136	2.5083038806915283
76	210.38897609710693	fix_post	2		12.0	74.0	2.5	/experiments/knapen_aot/videos/S_yt-fq7m668hqZo_39.mp4	0.0	275.32966113090515	0.10002803802490234
77	210.48900413513184	fix_pre	0		27.0	75.0	2.5	/experiments/knapen_aot/videos/R_S_Pexels_Videos_2786546.mp4	0.0	275.42968916893005	0.22499704360961914
77	210.70585823059082	response	0	2		75.0	2.5	/experiments/knapen_aot/videos/R_S_Pexels_Videos_2786546.mp4	0.0	275.64654326438904	
77	210.71400117874146	movie	1		164.0	75.0	2.5	/experiments/knapen_aot/videos/R_S_Pexels_Videos_2786546.mp4	0.0	275.6546862125397	2.5083320140838623
77	213.22233319282532	fix_post	2		12.0	75.0	2.5	/experiments/knapen_aot/videos/R_S_Pexels_Videos_2786546.mp4	0.0	278.16301822662354	0.0999898910522461
78	213.32232308387756	fix_pre	0		8.0	76.0	2.5	/experiments/knapen_aot/videos/S_yt-tNCrkObhB6c_17.mp4	0.0	278.2630081176758	0.06665611267089844
78	213.38082218170166	response	0	2		76.0	2.5	/experiments/knapen_aot/videos/S_yt-tNCrkObhB6c_17.mp4	0.0	278.3215072154999	
78	213.38897919654846	movie	1		301.0	76.0	2.5	/experiments/knapen_aot/videos/S_yt-tNCrkObhB6c_17.mp4	0.0	278.3296642303467	2.5083470344543457
78	215.8973262310028	fix_post	2		12.0	76.0	2.5	/experiments/knapen_aot/videos/S_yt-tNCrkObhB6c_17.mp4	0.0	280.838011264801	0.10015583038330078
79	215.9974820613861	fix_pre	0		24.0	77.0	2.5	blank	1.0	280.9381670951843	0.19983196258544922
79	216.1817991733551	response	0	2		77.0	2.5	blank	1.0	281.1224842071533	
79	216.19731402397156	movie	1		301.0	77.0	2.5	blank	1.0	281.1379990577698	2.508589029312134
79	218.7059030532837	fix_post	2		12.0	77.0	2.5	blank	1.0	283.6465880870819	0.09973716735839844
80	218.8056402206421	fix_pre	0		25.0	78.0	2.5	/experiments/knapen_aot/videos/R_S_production_ID_4325591.mp4	0.0	283.7463252544403	0.20830988883972168
80	219.00576210021973	response	0	2		78.0	2.5	/experiments/knapen_aot/videos/R_S_production_ID_4325591.mp4	0.0	283.94644713401794	
80	219.0139501094818	movie	1		200.0	78.0	2.5	/experiments/knapen_aot/videos/R_S_production_ID_4325591.mp4	0.0	283.95463514328003	2.5083649158477783
80	221.5223150253296	fix_post	2		12.0	78.0	2.5	/experiments/knapen_aot/videos/R_S_production_ID_4325591.mp4	0.0	286.4630000591278	0.10011720657348633
80	221.5323841571808	response	2	2		78.0	2.5	/experiments/knapen_aot/videos/R_S_production_ID_4325591.mp4	0.0	286.473069190979	
81	221.62243223190308	fix_pre	0		36.0	79.0	2.5	/experiments/knapen_aot/videos/R_S_comp_N003_C006_PS_v01_SDR_PS_20180925_SDR_2K_AVC.mp4	0.0	286.5631172657013	0.2998228073120117
81	221.91404914855957	response	0	2		79.0	2.5	/experiments/knapen_aot/videos/R_S_comp_N003_C006_PS_v01_SDR_PS_20180925_SDR_2K_AVC.mp4	0.0	286.8547341823578	
81	221.9222550392151	movie	1		170.0	79.0	2.5	/experiments/knapen_aot/videos/R_S_comp_N003_C006_PS_v01_SDR_PS_20180925_SDR_2K_AVC.mp4	0.0	286.8629400730133	2.508371114730835
81	224.43062615394592	fix_post	2		12.0	79.0	2.5	/experiments/knapen_aot/videos/R_S_comp_N003_C006_PS_v01_SDR_PS_20180925_SDR_2K_AVC.mp4	0.0	289.37131118774414	0.10002803802490234
81	224.4724040031433	response	2	2		79.0	2.5	/experiments/knapen_aot/videos/R_S_comp_N003_C006_PS_v01_SDR_PS_20180925_SDR_2K_AVC.mp4	0.0	289.4130890369415	
82	224.53065419197083	fix_pre	0		49.0	80.0	2.5	/experiments/knapen_aot/videos/S_yt-VfASxEzDrvc_145.mp4	0.0	289.47133922576904	0.4082648754119873
82	224.93070721626282	response	0	2		80.0	2.5	/experiments/knapen_aot/videos/S_yt-VfASxEzDrvc_145.mp4	0.0	289.87139225006104	
82	224.9389190673828	movie	1		300.0	80.0	2.5	/experiments/knapen_aot/videos/S_yt-VfASxEzDrvc_145.mp4	0.0	289.87960410118103	2.5083420276641846
82	227.447261095047	fix_post	2		12.0	80.0	2.5	/experiments/knapen_aot/videos/S_yt-VfASxEzDrvc_145.mp4	0.0	292.3879461288452	0.10004591941833496
83	227.54730701446533	fix_pre	0		19.0	81.0	2.5	/experiments/knapen_aot/videos/S_-vPHq-7BJ70_15.mp4	0.0	292.48799204826355	0.15839505195617676
83	227.697368144989	response	0	2		81.0	2.5	/experiments/knapen_aot/videos/S_-vPHq-7BJ70_15.mp4	0.0	292.63805317878723	
83	227.7057020664215	movie	1		301.0	81.0	2.5	/experiments/knapen_aot/videos/S_-vPHq-7BJ70_15.mp4	0.0	292.6463871002197	2.5082249641418457
83	230.21392703056335	fix_post	2		12.0	81.0	2.5	/experiments/knapen_aot/videos/S_-vPHq-7BJ70_15.mp4	0.0	295.1546120643616	0.09993815422058105
84	230.31386518478394	fix_pre	0		11.0	82.0	2.5	blank	1.0	295.25455021858215	0.09164595603942871
84	230.3974950313568	response	0	2		82.0	2.5	blank	1.0	295.33818006515503	
84	230.40551114082336	movie	1		301.0	82.0	2.5	blank	1.0	295.3461961746216	2.5084290504455566
84	232.91394019126892	fix_post	2		12.0	82.0	2.5	blank	1.0	297.85462522506714	0.09996390342712402
85	233.01390409469604	fix_pre	0		22.0	83.0	2.5	/experiments/knapen_aot/videos/R_S_yt-O4wUEZwHLyI_114.mp4	0.0	297.95458912849426	0.18333005905151367
85	233.18894600868225	response	0	2		83.0	2.5	/experiments/knapen_aot/videos/R_S_yt-O4wUEZwHLyI_114.mp4	0.0	298.12963104248047	
85	233.19723415374756	movie	1		301.0	83.0	2.5	/experiments/knapen_aot/videos/R_S_yt-O4wUEZwHLyI_114.mp4	0.0	298.1379191875458	2.5084168910980225
85	235.70565104484558	fix_post	2		12.0	83.0	2.5	/experiments/knapen_aot/videos/R_S_yt-O4wUEZwHLyI_114.mp4	0.0	300.6463360786438	0.09992504119873047
87	235.8055760860443	stim	0		433.0					300.74626111984253	3.608444929122925
87	235.89744400978088	response	0	2						300.8381290435791	
87	239.40740513801575	response	0	space						304.34809017181396	
