trial_nr	onset	event_type	phase	response	nr_frames	movie_index	movie_duration	movie_file	blank	onset_abs	duration
0	0.15181303024291992	stim	0		57.0					103.61691498756409	0.47337985038757324
0	0.6173770427703857	response	0	space						104.08247900009155	
1	0.6251928806304932	stim	0		121.0					104.09029483795166	1.0082170963287354
1	1.6334099769592285	stim	1		120.0					105.0985119342804	0.9996340274810791
1	2.5581789016723633	response	1	space						106.02328085899353	
2	2.6330440044403076	fix_pre	0		102.0	0.0	2.5	/experiments/knapen_aot/videos/S_yt-3eQHOLBzOqA_100.mp4	0.0	106.09814596176147	0.8499419689178467
2	3.474820852279663	response	0	space		0.0	2.5	/experiments/knapen_aot/videos/S_yt-3eQHOLBzOqA_100.mp4	0.0	106.93992280960083	
2	3.4829859733581543	movie	1		300.0	0.0	2.5	/experiments/knapen_aot/videos/S_yt-3eQHOLBzOqA_100.mp4	0.0	106.94808793067932	2.5084080696105957
2	5.99139404296875	fix_post	2		12.0	0.0	2.5	/experiments/knapen_aot/videos/S_yt-3eQHOLBzOqA_100.mp4	0.0	109.45649600028992	0.09997677803039551
3	6.0913708209991455	fix_pre	0		3.0	1.0	2.5	/experiments/knapen_aot/videos/S_yt_R-SwXr0ScjD9o_20.mp4	0.0	109.55647277832031	0.025564193725585938
3	6.111871004104614	response	0	2		1.0	2.5	/experiments/knapen_aot/videos/S_yt_R-SwXr0ScjD9o_20.mp4	0.0	109.57697296142578	
3	6.1169350147247314	movie	1		294.0	1.0	2.5	/experiments/knapen_aot/videos/S_yt_R-SwXr0ScjD9o_20.mp4	0.0	109.5820369720459	2.5077619552612305
3	8.624696969985962	fix_post	2		12.0	1.0	2.5	/experiments/knapen_aot/videos/S_yt_R-SwXr0ScjD9o_20.mp4	0.0	112.08979892730713	0.10012602806091309
4	8.724822998046875	fix_pre	0		20.0	2.0	2.5	/experiments/knapen_aot/videos/S_yt-jcuaf9iSEkI_169.mp4	0.0	112.18992495536804	0.16649889945983887
4	8.883132934570312	response	0	2		2.0	2.5	/experiments/knapen_aot/videos/S_yt-jcuaf9iSEkI_169.mp4	0.0	112.34823489189148	
4	8.891321897506714	movie	1		301.0	2.0	2.5	/experiments/knapen_aot/videos/S_yt-jcuaf9iSEkI_169.mp4	0.0	112.35642385482788	2.508307933807373
4	11.399629831314087	fix_post	2		12.0	2.0	2.5	/experiments/knapen_aot/videos/S_yt-jcuaf9iSEkI_169.mp4	0.0	114.86473178863525	0.09997916221618652
5	11.499608993530273	fix_pre	0		54.0	3.0	2.5	/experiments/knapen_aot/videos/S_yt-78k6vUHDWAI_206.mp4	0.0	114.96471095085144	0.45043182373046875
5	11.941454887390137	response	0	2		3.0	2.5	/experiments/knapen_aot/videos/S_yt-78k6vUHDWAI_206.mp4	0.0	115.4065568447113	
5	11.950040817260742	movie	1		301.0	3.0	2.5	/experiments/knapen_aot/videos/S_yt-78k6vUHDWAI_206.mp4	0.0	115.41514277458191	2.508017063140869
5	14.458057880401611	fix_post	2		12.0	3.0	2.5	/experiments/knapen_aot/videos/S_yt-78k6vUHDWAI_206.mp4	0.0	117.92315983772278	0.09988713264465332
6	14.557945013046265	fix_pre	0		16.0	4.0	2.5	/experiments/knapen_aot/videos/S_yt-kXarkCFJLeg_46.mp4	0.0	118.02304697036743	0.13330793380737305
6	14.683078050613403	response	0	2		4.0	2.5	/experiments/knapen_aot/videos/S_yt-kXarkCFJLeg_46.mp4	0.0	118.14818000793457	
6	14.691252946853638	movie	1		301.0	4.0	2.5	/experiments/knapen_aot/videos/S_yt-kXarkCFJLeg_46.mp4	0.0	118.1563549041748	2.5083298683166504
6	17.199582815170288	fix_post	2		12.0	4.0	2.5	/experiments/knapen_aot/videos/S_yt-kXarkCFJLeg_46.mp4	0.0	120.66468477249146	0.10000801086425781
7	17.299590826034546	fix_pre	0		39.0	5.0	2.5	blank	1.0	120.76469278335571	0.3249959945678711
7	17.616420030593872	response	0	2		5.0	2.5	blank	1.0	121.08152198791504	
7	17.624586820602417	movie	1		301.0	5.0	2.5	blank	1.0	121.08968877792358	2.508362054824829
7	20.132948875427246	fix_post	2		12.0	5.0	2.5	blank	1.0	123.59805083274841	0.09990596771240234
8	20.23285484313965	fix_pre	0		31.0	6.0	2.5	/experiments/knapen_aot/videos/S_yt-OTNdgakSIJE_97.mp4	0.0	123.69795680046082	0.2587850093841553
8	20.483062982559204	response	0	2		6.0	2.5	/experiments/knapen_aot/videos/S_yt-OTNdgakSIJE_97.mp4	0.0	123.94816493988037	
8	20.491639852523804	movie	1		301.0	6.0	2.5	/experiments/knapen_aot/videos/S_yt-OTNdgakSIJE_97.mp4	0.0	123.95674180984497	2.507920980453491
8	22.999560832977295	fix_post	2		12.0	6.0	2.5	/experiments/knapen_aot/videos/S_yt-OTNdgakSIJE_97.mp4	0.0	126.46466279029846	0.10005521774291992
9	23.099616050720215	fix_pre	0		13.0	7.0	2.5	/experiments/knapen_aot/videos/S_yt-n6aLw10f2Yw_317.mp4	0.0	126.56471800804138	0.10832691192626953
9	23.199681997299194	response	0	2		7.0	2.5	/experiments/knapen_aot/videos/S_yt-n6aLw10f2Yw_317.mp4	0.0	126.66478395462036	
9	23.207942962646484	movie	1		301.0	7.0	2.5	/experiments/knapen_aot/videos/S_yt-n6aLw10f2Yw_317.mp4	0.0	126.67304491996765	2.508349895477295
9	25.71629285812378	fix_post	2		12.0	7.0	2.5	/experiments/knapen_aot/videos/S_yt-n6aLw10f2Yw_317.mp4	0.0	129.18139481544495	0.10000300407409668
10	25.816295862197876	fix_pre	0		14.0	8.0	2.5	/experiments/knapen_aot/videos/R_S_ILSVRC2015_train_00425000.mp4	0.0	129.28139781951904	0.11666512489318848
10	25.92492699623108	response	0	2		8.0	2.5	/experiments/knapen_aot/videos/R_S_ILSVRC2015_train_00425000.mp4	0.0	129.39002895355225	
10	25.932960987091064	movie	1		301.0	8.0	2.5	/experiments/knapen_aot/videos/R_S_ILSVRC2015_train_00425000.mp4	0.0	129.39806294441223	2.5082998275756836
10	28.441260814666748	fix_post	2		12.0	8.0	2.5	/experiments/knapen_aot/videos/R_S_ILSVRC2015_train_00425000.mp4	0.0	131.90636277198792	0.10003209114074707
11	28.541292905807495	fix_pre	0		18.0	9.0	2.5	/experiments/knapen_aot/videos/S_5Bc466bkeA0_35.mp4	0.0	132.00639486312866	0.14999699592590332
11	28.68311095237732	response	0	2		9.0	2.5	/experiments/knapen_aot/videos/S_5Bc466bkeA0_35.mp4	0.0	132.1482129096985	
11	28.6912899017334	movie	1		301.0	9.0	2.5	/experiments/knapen_aot/videos/S_5Bc466bkeA0_35.mp4	0.0	132.15639185905457	2.508636951446533
11	31.19992685317993	fix_post	2		12.0	9.0	2.5	/experiments/knapen_aot/videos/S_5Bc466bkeA0_35.mp4	0.0	134.6650288105011	0.09963202476501465
12	31.299558877944946	fix_pre	0		65.0	10.0	2.5	/experiments/knapen_aot/videos/S_yt-tneuR3EtSZE_72.mp4	0.0	134.7646608352661	0.5416929721832275
12	31.833093881607056	response	0	2		10.0	2.5	/experiments/knapen_aot/videos/S_yt-tneuR3EtSZE_72.mp4	0.0	135.29819583892822	
12	31.841251850128174	movie	1		301.0	10.0	2.5	/experiments/knapen_aot/videos/S_yt-tneuR3EtSZE_72.mp4	0.0	135.30635380744934	2.508342981338501
12	34.349594831466675	fix_post	2		12.0	10.0	2.5	/experiments/knapen_aot/videos/S_yt-tneuR3EtSZE_72.mp4	0.0	137.81469678878784	0.10024905204772949
13	34.449843883514404	fix_pre	0		27.0	11.0	2.5	/experiments/knapen_aot/videos/S_yt-JTuopUgmg1w_101.mp4	0.0	137.91494584083557	0.22471904754638672
13	34.666390895843506	response	0	2		11.0	2.5	/experiments/knapen_aot/videos/S_yt-JTuopUgmg1w_101.mp4	0.0	138.13149285316467	
13	34.67456293106079	movie	1		301.0	11.0	2.5	/experiments/knapen_aot/videos/S_yt-JTuopUgmg1w_101.mp4	0.0	138.13966488838196	2.5083389282226562
13	37.18290185928345	fix_post	2		12.0	11.0	2.5	/experiments/knapen_aot/videos/S_yt-JTuopUgmg1w_101.mp4	0.0	140.64800381660461	0.10022401809692383
14	37.28312587738037	fix_pre	0		15.0	12.0	2.5	blank	1.0	140.74822783470154	0.12498211860656738
14	37.39957284927368	response	0	2		12.0	2.5	blank	1.0	140.86467480659485	
14	37.40810799598694	movie	1		301.0	12.0	2.5	blank	1.0	140.8732099533081	2.50805401802063
14	39.91616201400757	fix_post	2		12.0	12.0	2.5	blank	1.0	143.38126397132874	0.10002398490905762
15	40.016185998916626	fix_pre	0		34.0	13.0	2.5	/experiments/knapen_aot/videos/S_yt-2IfvnrF3IV0_241.mp4	0.0	143.4812879562378	0.28330183029174805
15	40.28381299972534	response	0	2		13.0	2.5	/experiments/knapen_aot/videos/S_yt-2IfvnrF3IV0_241.mp4	0.0	143.7489149570465	
15	40.299487829208374	movie	1		300.0	13.0	2.5	/experiments/knapen_aot/videos/S_yt-2IfvnrF3IV0_241.mp4	0.0	143.76458978652954	2.5083301067352295
15	42.8078179359436	fix_post	2		12.0	13.0	2.5	/experiments/knapen_aot/videos/S_yt-2IfvnrF3IV0_241.mp4	0.0	146.27291989326477	0.10023689270019531
16	42.9080548286438	fix_pre	0		27.0	14.0	2.5	/experiments/knapen_aot/videos/S_bing-www_cnet_com_videos_amazon-wants-to-put-alexa-on-your-pc__50.mp4	0.0	146.37315678596497	0.2246720790863037
16	43.12462282180786	response	0	2		14.0	2.5	/experiments/knapen_aot/videos/S_bing-www_cnet_com_videos_amazon-wants-to-put-alexa-on-your-pc__50.mp4	0.0	146.58972477912903	
16	43.1327269077301	movie	1		175.0	14.0	2.5	/experiments/knapen_aot/videos/S_bing-www_cnet_com_videos_amazon-wants-to-put-alexa-on-your-pc__50.mp4	0.0	146.59782886505127	2.508523941040039
16	45.64125084877014	fix_post	2		12.0	14.0	2.5	/experiments/knapen_aot/videos/S_bing-www_cnet_com_videos_amazon-wants-to-put-alexa-on-your-pc__50.mp4	0.0	149.1063528060913	0.10010004043579102
17	45.74135088920593	fix_pre	0		38.0	15.0	2.5	/experiments/knapen_aot/videos/R_S_yt-FzMLLmcD1mE_19.mp4	0.0	149.2064528465271	0.3164219856262207
17	46.04952096939087	response	0	2		15.0	2.5	/experiments/knapen_aot/videos/R_S_yt-FzMLLmcD1mE_19.mp4	0.0	149.51462292671204	
17	46.05777287483215	movie	1		301.0	15.0	2.5	/experiments/knapen_aot/videos/R_S_yt-FzMLLmcD1mE_19.mp4	0.0	149.52287483215332	2.5083751678466797
17	48.56614804267883	fix_post	2		12.0	15.0	2.5	/experiments/knapen_aot/videos/R_S_yt-FzMLLmcD1mE_19.mp4	0.0	152.03125	0.10000395774841309
18	48.666152000427246	fix_pre	0		19.0	16.0	2.5	/experiments/knapen_aot/videos/R_S_yt-NuZy8Rjk4d0_156.mp4	0.0	152.1312539577484	0.15847301483154297
18	48.81618905067444	response	0	2		16.0	2.5	/experiments/knapen_aot/videos/R_S_yt-NuZy8Rjk4d0_156.mp4	0.0	152.2812910079956	
18	48.82462501525879	movie	1		301.0	16.0	2.5	/experiments/knapen_aot/videos/R_S_yt-NuZy8Rjk4d0_156.mp4	0.0	152.28972697257996	2.508133888244629
18	51.33275890350342	fix_post	2		12.0	16.0	2.5	/experiments/knapen_aot/videos/R_S_yt-NuZy8Rjk4d0_156.mp4	0.0	154.79786086082458	0.10001802444458008
19	51.432776927948	fix_pre	0		14.0	17.0	2.5	/experiments/knapen_aot/videos/S_ILSVRC2015_train_00425000.mp4	0.0	154.89787888526917	0.11663699150085449
19	51.54121804237366	response	0	2		17.0	2.5	/experiments/knapen_aot/videos/S_ILSVRC2015_train_00425000.mp4	0.0	155.00631999969482	
19	51.54941391944885	movie	1		301.0	17.0	2.5	/experiments/knapen_aot/videos/S_ILSVRC2015_train_00425000.mp4	0.0	155.01451587677002	2.508316993713379
19	54.05773091316223	fix_post	2		12.0	17.0	2.5	/experiments/knapen_aot/videos/S_ILSVRC2015_train_00425000.mp4	0.0	157.5228328704834	0.1002039909362793
20	54.15793490409851	fix_pre	0		24.0	18.0	2.5	/experiments/knapen_aot/videos/R_S_yt-bhiGMKSAz2g_370.mp4	0.0	157.62303686141968	0.1997849941253662
20	54.34954285621643	response	0	2		18.0	2.5	/experiments/knapen_aot/videos/R_S_yt-bhiGMKSAz2g_370.mp4	0.0	157.8146448135376	
20	54.35771989822388	movie	1		301.0	18.0	2.5	/experiments/knapen_aot/videos/R_S_yt-bhiGMKSAz2g_370.mp4	0.0	157.82282185554504	2.5085530281066895
20	56.866272926330566	fix_post	2		12.0	18.0	2.5	/experiments/knapen_aot/videos/R_S_yt-bhiGMKSAz2g_370.mp4	0.0	160.33137488365173	0.0998680591583252
21	56.96614098548889	fix_pre	0		25.0	19.0	2.5	/experiments/knapen_aot/videos/R_S_ILSVRC2015_train_00613000.mp4	0.0	160.43124294281006	0.20826983451843262
21	57.166213035583496	response	0	2		19.0	2.5	/experiments/knapen_aot/videos/R_S_ILSVRC2015_train_00613000.mp4	0.0	160.63131499290466	
21	57.174410820007324	movie	1		300.0	19.0	2.5	/experiments/knapen_aot/videos/R_S_ILSVRC2015_train_00613000.mp4	0.0	160.6395127773285	2.5082452297210693
21	59.682656049728394	fix_post	2		12.0	19.0	2.5	/experiments/knapen_aot/videos/R_S_ILSVRC2015_train_00613000.mp4	0.0	163.14775800704956	0.1002509593963623
22	59.782907009124756	fix_pre	0		24.0	20.0	2.5	/experiments/knapen_aot/videos/R_S_BO_A012_C031_SDR_20190726_SDR_2K_AVC.mp4	0.0	163.24800896644592	0.19981884956359863
22	59.974509954452515	response	0	2		20.0	2.5	/experiments/knapen_aot/videos/R_S_BO_A012_C031_SDR_20190726_SDR_2K_AVC.mp4	0.0	163.43961191177368	
22	59.982725858688354	movie	1		175.0	20.0	2.5	/experiments/knapen_aot/videos/R_S_BO_A012_C031_SDR_20190726_SDR_2K_AVC.mp4	0.0	163.44782781600952	2.5084221363067627
22	62.49114799499512	fix_post	2		12.0	20.0	2.5	/experiments/knapen_aot/videos/R_S_BO_A012_C031_SDR_20190726_SDR_2K_AVC.mp4	0.0	165.95624995231628	0.09994387626647949
23	62.5910918712616	fix_pre	0		16.0	21.0	2.5	blank	1.0	166.05619382858276	0.13332605361938477
23	62.716200828552246	response	0	2		21.0	2.5	blank	1.0	166.1813027858734	
23	62.72441792488098	movie	1		301.0	21.0	2.5	blank	1.0	166.18951988220215	2.5084500312805176
23	65.2328679561615	fix_post	2		12.0	21.0	2.5	blank	1.0	168.69796991348267	0.09979891777038574
24	65.33266687393188	fix_pre	0		30.0	22.0	2.5	/experiments/knapen_aot/videos/S_video_inspire_california_big-sur_landscape_054.1080-h264.mp4	0.0	168.79776883125305	0.2500269412994385
24	65.57450294494629	response	0	2		22.0	2.5	/experiments/knapen_aot/videos/S_video_inspire_california_big-sur_landscape_054.1080-h264.mp4	0.0	169.03960490226746	
24	65.58269381523132	movie	1		171.0	22.0	2.5	/experiments/knapen_aot/videos/S_video_inspire_california_big-sur_landscape_054.1080-h264.mp4	0.0	169.0477957725525	2.50834321975708
24	68.0910370349884	fix_post	2		12.0	22.0	2.5	/experiments/knapen_aot/videos/S_video_inspire_california_big-sur_landscape_054.1080-h264.mp4	0.0	171.55613899230957	0.09995388984680176
25	68.1909909248352	fix_pre	0		1.0	23.0	2.5	/experiments/knapen_aot/videos/R_S_yt-qsyDLtXcyHc_8.mp4	0.0	171.65609288215637	0.008445978164672852
25	68.1842839717865	response	0	2		23.0	2.5	/experiments/knapen_aot/videos/R_S_yt-qsyDLtXcyHc_8.mp4	0.0	171.64938592910767	
25	68.19943690299988	movie	1		301.0	23.0	2.5	/experiments/knapen_aot/videos/R_S_yt-qsyDLtXcyHc_8.mp4	0.0	171.66453886032104	2.508208990097046
25	70.70764589309692	fix_post	2		12.0	23.0	2.5	/experiments/knapen_aot/videos/R_S_yt-qsyDLtXcyHc_8.mp4	0.0	174.1727478504181	0.10001611709594727
26	70.80766201019287	fix_pre	0		1.0	24.0	2.5	/experiments/knapen_aot/videos/S_ILSVRC2015_train_00324001.mp4	0.0	174.27276396751404	0.009868860244750977
26	70.80930495262146	response	0	2		24.0	2.5	/experiments/knapen_aot/videos/S_ILSVRC2015_train_00324001.mp4	0.0	174.27440690994263	
26	70.81753087043762	movie	1		301.0	24.0	2.5	/experiments/knapen_aot/videos/S_ILSVRC2015_train_00324001.mp4	0.0	174.2826328277588	2.506890058517456
26	73.32442092895508	fix_post	2		12.0	24.0	2.5	/experiments/knapen_aot/videos/S_ILSVRC2015_train_00324001.mp4	0.0	176.78952288627625	0.0999300479888916
27	73.42435097694397	fix_pre	0		11.0	25.0	2.5	/experiments/knapen_aot/videos/S_yt-YLcmfyfIokU_64.mp4	0.0	176.88945293426514	0.09166193008422852
27	73.50805902481079	response	0	2		25.0	2.5	/experiments/knapen_aot/videos/S_yt-YLcmfyfIokU_64.mp4	0.0	176.97316098213196	
27	73.5160129070282	movie	1		301.0	25.0	2.5	/experiments/knapen_aot/videos/S_yt-YLcmfyfIokU_64.mp4	0.0	176.98111486434937	2.508359909057617
27	76.02437281608582	fix_post	2		12.0	25.0	2.5	/experiments/knapen_aot/videos/S_yt-YLcmfyfIokU_64.mp4	0.0	179.48947477340698	0.09994220733642578
28	76.12431502342224	fix_pre	0		4.0	26.0	2.5	blank	1.0	179.5894169807434	0.03353381156921387
28	76.14949297904968	response	0	2		26.0	2.5	blank	1.0	179.61459493637085	
28	76.15784883499146	movie	1		301.0	26.0	2.5	blank	1.0	179.62295079231262	2.5081419944763184
28	78.66599082946777	fix_post	2		12.0	26.0	2.5	blank	1.0	182.13109278678894	0.09994316101074219
29	78.76593399047852	fix_pre	0		26.0	27.0	2.5	/experiments/knapen_aot/videos/S_yt--Ou506YF3mY_106.mp4	0.0	182.23103594779968	0.21661901473999023
29	78.97447896003723	response	0	2		27.0	2.5	/experiments/knapen_aot/videos/S_yt--Ou506YF3mY_106.mp4	0.0	182.4395809173584	
29	78.9825530052185	movie	1		301.0	27.0	2.5	/experiments/knapen_aot/videos/S_yt--Ou506YF3mY_106.mp4	0.0	182.44765496253967	2.508404016494751
29	81.49095702171326	fix_post	2		12.0	27.0	2.5	/experiments/knapen_aot/videos/S_yt--Ou506YF3mY_106.mp4	0.0	184.95605897903442	0.10001993179321289
30	81.59097695350647	fix_pre	0		1.0	28.0	2.5	/experiments/knapen_aot/videos/R_S_yt-jQrMcUCmAaM_44.mp4	0.0	185.05607891082764	0.008316993713378906
30	81.59260296821594	response	0	2		28.0	2.5	/experiments/knapen_aot/videos/R_S_yt-jQrMcUCmAaM_44.mp4	0.0	185.0577049255371	
30	81.59929394721985	movie	1		301.0	28.0	2.5	/experiments/knapen_aot/videos/R_S_yt-jQrMcUCmAaM_44.mp4	0.0	185.06439590454102	2.508284091949463
30	84.10757803916931	fix_post	2		12.0	28.0	2.5	/experiments/knapen_aot/videos/R_S_yt-jQrMcUCmAaM_44.mp4	0.0	187.57267999649048	0.10010290145874023
30	84.18391299247742	response	2	2		28.0	2.5	/experiments/knapen_aot/videos/R_S_yt-jQrMcUCmAaM_44.mp4	0.0	187.64901494979858	
31	84.20768094062805	fix_pre	0		45.0	29.0	2.5	/experiments/knapen_aot/videos/S_yt-gDZnJCR2uXI_18.mp4	0.0	187.67278289794922	0.37497901916503906
31	84.5743579864502	response	0	2		29.0	2.5	/experiments/knapen_aot/videos/S_yt-gDZnJCR2uXI_18.mp4	0.0	188.03945994377136	
31	84.58265995979309	movie	1		301.0	29.0	2.5	/experiments/knapen_aot/videos/S_yt-gDZnJCR2uXI_18.mp4	0.0	188.04776191711426	2.5082590579986572
31	87.09091901779175	fix_post	2		12.0	29.0	2.5	/experiments/knapen_aot/videos/S_yt-gDZnJCR2uXI_18.mp4	0.0	190.55602097511292	0.0999460220336914
32	87.19086503982544	fix_pre	0		8.0	30.0	2.5	/experiments/knapen_aot/videos/S_yt-7W50lcw5FCo_37.mp4	0.0	190.6559669971466	0.06673979759216309
32	87.24936389923096	response	0	2		30.0	2.5	/experiments/knapen_aot/videos/S_yt-7W50lcw5FCo_37.mp4	0.0	190.71446585655212	
32	87.2576048374176	movie	1		301.0	30.0	2.5	/experiments/knapen_aot/videos/S_yt-7W50lcw5FCo_37.mp4	0.0	190.72270679473877	2.5083200931549072
32	89.76592493057251	fix_post	2		12.0	30.0	2.5	/experiments/knapen_aot/videos/S_yt-7W50lcw5FCo_37.mp4	0.0	193.23102688789368	0.09998703002929688
33	89.8659119606018	fix_pre	0		22.0	31.0	2.5	/experiments/knapen_aot/videos/R_S_yt-CJeyOFsd3lg_80.mp4	0.0	193.33101391792297	0.18332386016845703
33	90.0335738658905	response	0	2		31.0	2.5	/experiments/knapen_aot/videos/R_S_yt-CJeyOFsd3lg_80.mp4	0.0	193.49867582321167	
33	90.04923582077026	movie	1		300.0	31.0	2.5	/experiments/knapen_aot/videos/R_S_yt-CJeyOFsd3lg_80.mp4	0.0	193.51433777809143	2.50832200050354
33	92.5575578212738	fix_post	2		12.0	31.0	2.5	/experiments/knapen_aot/videos/R_S_yt-CJeyOFsd3lg_80.mp4	0.0	196.02265977859497	0.10002517700195312
34	92.65758299827576	fix_pre	0		18.0	32.0	2.5	/experiments/knapen_aot/videos/S_yt-mQRzWCcKOR8_28.mp4	0.0	196.12268495559692	0.149946928024292
34	92.79934000968933	response	0	2		32.0	2.5	/experiments/knapen_aot/videos/S_yt-mQRzWCcKOR8_28.mp4	0.0	196.2644419670105	
34	92.80752992630005	movie	1		301.0	32.0	2.5	/experiments/knapen_aot/videos/S_yt-mQRzWCcKOR8_28.mp4	0.0	196.27263188362122	2.5084009170532227
34	95.31593084335327	fix_post	2		12.0	32.0	2.5	/experiments/knapen_aot/videos/S_yt-mQRzWCcKOR8_28.mp4	0.0	198.78103280067444	0.10008001327514648
35	95.41601085662842	fix_pre	0		4.0	33.0	2.5	/experiments/knapen_aot/videos/R_S_4_D1iUb87uE_15.mp4	0.0	198.88111281394958	0.033271074295043945
35	95.44105291366577	response	0	2		33.0	2.5	/experiments/knapen_aot/videos/R_S_4_D1iUb87uE_15.mp4	0.0	198.90615487098694	
35	95.44928193092346	movie	1		300.0	33.0	2.5	/experiments/knapen_aot/videos/R_S_4_D1iUb87uE_15.mp4	0.0	198.91438388824463	2.5082740783691406
35	97.9575560092926	fix_post	2		12.0	33.0	2.5	/experiments/knapen_aot/videos/R_S_4_D1iUb87uE_15.mp4	0.0	201.42265796661377	0.09991192817687988
36	98.05746793746948	fix_pre	0		8.0	34.0	2.5	blank	1.0	201.52256989479065	0.06675195693969727
36	98.11606001853943	response	0	2		34.0	2.5	blank	1.0	201.5811619758606	
36	98.12421989440918	movie	1		301.0	34.0	2.5	blank	1.0	201.58932185173035	2.508289098739624
36	100.6325089931488	fix_post	2		12.0	34.0	2.5	blank	1.0	204.09761095046997	0.09993982315063477
36	100.62549591064453	response	2	2		34.0	2.5	blank	1.0	204.0905978679657	
37	100.73244881629944	fix_pre	0		30.0	35.0	2.5	/experiments/knapen_aot/videos/S_comp_A007_C017_01156B_v02_SDR_PS_20180925_SDR_2K_AVC.mp4	0.0	204.1975507736206	0.2500791549682617
37	100.97429895401001	response	0	2		35.0	2.5	/experiments/knapen_aot/videos/S_comp_A007_C017_01156B_v02_SDR_PS_20180925_SDR_2K_AVC.mp4	0.0	204.43940091133118	
37	100.9825279712677	movie	1		165.0	35.0	2.5	/experiments/knapen_aot/videos/S_comp_A007_C017_01156B_v02_SDR_PS_20180925_SDR_2K_AVC.mp4	0.0	204.44762992858887	2.508389949798584
37	103.49091792106628	fix_post	2		12.0	35.0	2.5	/experiments/knapen_aot/videos/S_comp_A007_C017_01156B_v02_SDR_PS_20180925_SDR_2K_AVC.mp4	0.0	206.95601987838745	0.0998830795288086
37	103.5660789012909	response	2	2		35.0	2.5	/experiments/knapen_aot/videos/S_comp_A007_C017_01156B_v02_SDR_PS_20180925_SDR_2K_AVC.mp4	0.0	207.03118085861206	
38	103.59080100059509	fix_pre	0		57.0	36.0	2.5	/experiments/knapen_aot/videos/R_S_yt-vacON8rxZaI_168.mp4	0.0	207.05590295791626	0.4763360023498535
38	104.05760598182678	response	0	2		36.0	2.5	/experiments/knapen_aot/videos/R_S_yt-vacON8rxZaI_168.mp4	0.0	207.52270793914795	
38	104.06713700294495	movie	1		301.0	36.0	2.5	/experiments/knapen_aot/videos/R_S_yt-vacON8rxZaI_168.mp4	0.0	207.5322389602661	2.5069990158081055
38	106.57413601875305	fix_post	2		12.0	36.0	2.5	/experiments/knapen_aot/videos/R_S_yt-vacON8rxZaI_168.mp4	0.0	210.03923797607422	0.10000181198120117
39	106.67413783073425	fix_pre	0		16.0	37.0	2.5	/experiments/knapen_aot/videos/R_S_ILSVRC2015_train_00165013.mp4	0.0	210.13923978805542	0.13335514068603516
39	106.7993278503418	response	0	2		37.0	2.5	/experiments/knapen_aot/videos/R_S_ILSVRC2015_train_00165013.mp4	0.0	210.26442980766296	
39	106.80749297142029	movie	1		301.0	37.0	2.5	/experiments/knapen_aot/videos/R_S_ILSVRC2015_train_00165013.mp4	0.0	210.27259492874146	2.50834584236145
39	109.31583881378174	fix_post	2		12.0	37.0	2.5	/experiments/knapen_aot/videos/R_S_ILSVRC2015_train_00165013.mp4	0.0	212.7809407711029	0.0999441146850586
40	109.4157829284668	fix_pre	0		4.0	38.0	2.5	/experiments/knapen_aot/videos/S_pexels-yaroslav-shuraev-8091356.mp4	0.0	212.88088488578796	0.03339505195617676
40	109.4333848953247	response	0	2		38.0	2.5	/experiments/knapen_aot/videos/S_pexels-yaroslav-shuraev-8091356.mp4	0.0	212.89848685264587	
40	109.44917798042297	movie	1		187.0	38.0	2.5	/experiments/knapen_aot/videos/S_pexels-yaroslav-shuraev-8091356.mp4	0.0	212.91427993774414	2.5083658695220947
40	111.95754384994507	fix_post	2		12.0	38.0	2.5	/experiments/knapen_aot/videos/S_pexels-yaroslav-shuraev-8091356.mp4	0.0	215.42264580726624	0.09992313385009766
41	112.05746698379517	fix_pre	0		27.0	39.0	2.5	/experiments/knapen_aot/videos/S_yt-mQRzWCcKOR8_28.mp4	0.0	215.52256894111633	0.2250080108642578
41	112.27421689033508	response	0	2		39.0	2.5	/experiments/knapen_aot/videos/S_yt-mQRzWCcKOR8_28.mp4	0.0	215.73931884765625	
41	112.28247499465942	movie	1		301.0	39.0	2.5	/experiments/knapen_aot/videos/S_yt-mQRzWCcKOR8_28.mp4	0.0	215.7475769519806	2.5083370208740234
41	114.79081201553345	fix_post	2		12.0	39.0	2.5	/experiments/knapen_aot/videos/S_yt-mQRzWCcKOR8_28.mp4	0.0	218.25591397285461	0.10002303123474121
42	114.89083504676819	fix_pre	0		17.0	40.0	2.5	/experiments/knapen_aot/videos/S_yt-fQGoTMausn8_88.mp4	0.0	218.35593700408936	0.14163780212402344
42	115.02434086799622	response	0	2		40.0	2.5	/experiments/knapen_aot/videos/S_yt-fQGoTMausn8_88.mp4	0.0	218.48944282531738	
42	115.03247284889221	movie	1		299.0	40.0	2.5	/experiments/knapen_aot/videos/S_yt-fQGoTMausn8_88.mp4	0.0	218.49757480621338	2.508341073989868
42	117.54081392288208	fix_post	2		12.0	40.0	2.5	/experiments/knapen_aot/videos/S_yt-fQGoTMausn8_88.mp4	0.0	221.00591588020325	0.09993910789489746
42	117.61588788032532	response	2	2		40.0	2.5	/experiments/knapen_aot/videos/S_yt-fQGoTMausn8_88.mp4	0.0	221.08098983764648	
43	117.64075303077698	fix_pre	0		54.0	41.0	2.5	/experiments/knapen_aot/videos/R_S_yt-FzMLLmcD1mE_19.mp4	0.0	221.10585498809814	0.4500579833984375
43	118.08247900009155	response	0	2		41.0	2.5	/experiments/knapen_aot/videos/R_S_yt-FzMLLmcD1mE_19.mp4	0.0	221.54758095741272	
43	118.09081101417542	movie	1		301.0	41.0	2.5	/experiments/knapen_aot/videos/R_S_yt-FzMLLmcD1mE_19.mp4	0.0	221.55591297149658	2.508328914642334
43	120.59913992881775	fix_post	2		12.0	41.0	2.5	/experiments/knapen_aot/videos/R_S_yt-FzMLLmcD1mE_19.mp4	0.0	224.06424188613892	0.10003900527954102
44	120.69917893409729	fix_pre	0		33.0	42.0	2.5	blank	1.0	224.16428089141846	0.27489399909973145
44	120.96591401100159	response	0	2		42.0	2.5	blank	1.0	224.43101596832275	
44	120.97407293319702	movie	1		301.0	42.0	2.5	blank	1.0	224.4391748905182	2.508413076400757
44	123.43246388435364	response	1	2		42.0	2.5	blank	1.0	226.8975658416748	
44	123.48248600959778	fix_post	2		12.0	42.0	2.5	blank	1.0	226.94758796691895	0.09993100166320801
45	123.58241701126099	fix_pre	0		25.0	43.0	2.5	/experiments/knapen_aot/videos/R_S_wc-_W9iefBXz8bi_23.mp4	0.0	227.04751896858215	0.20836591720581055
45	123.77490282058716	response	0	2		43.0	2.5	/experiments/knapen_aot/videos/R_S_wc-_W9iefBXz8bi_23.mp4	0.0	227.24000477790833	
45	123.7907829284668	movie	1		187.0	43.0	2.5	/experiments/knapen_aot/videos/R_S_wc-_W9iefBXz8bi_23.mp4	0.0	227.25588488578796	2.5083301067352295
45	126.29911303520203	fix_post	2		12.0	43.0	2.5	/experiments/knapen_aot/videos/R_S_wc-_W9iefBXz8bi_23.mp4	0.0	229.7642149925232	0.09995698928833008
46	126.39907002449036	fix_pre	0		20.0	44.0	2.5	/experiments/knapen_aot/videos/R_S_Ds4EKTLx_RI_51.mp4	0.0	229.86417198181152	0.1678178310394287
46	126.55750894546509	response	0	2		44.0	2.5	/experiments/knapen_aot/videos/R_S_Ds4EKTLx_RI_51.mp4	0.0	230.02261090278625	
46	126.56688785552979	movie	1		301.0	44.0	2.5	/experiments/knapen_aot/videos/R_S_Ds4EKTLx_RI_51.mp4	0.0	230.03198981285095	2.507232189178467
46	129.07412004470825	fix_post	2		12.0	44.0	2.5	/experiments/knapen_aot/videos/R_S_Ds4EKTLx_RI_51.mp4	0.0	232.53922200202942	0.09996390342712402
47	129.17408394813538	fix_pre	0		28.0	45.0	2.5	/experiments/knapen_aot/videos/R_S_pexels-mart-production-7698911.mp4	0.0	232.63918590545654	0.23331999778747559
47	129.39925694465637	response	0	2		45.0	2.5	/experiments/knapen_aot/videos/R_S_pexels-mart-production-7698911.mp4	0.0	232.86435890197754	
47	129.40740394592285	movie	1		199.0	45.0	2.5	/experiments/knapen_aot/videos/R_S_pexels-mart-production-7698911.mp4	0.0	232.87250590324402	2.5083680152893066
47	131.91577196121216	fix_post	2		12.0	45.0	2.5	/experiments/knapen_aot/videos/R_S_pexels-mart-production-7698911.mp4	0.0	235.38087391853333	0.10001397132873535
48	132.0157859325409	fix_pre	0		18.0	46.0	2.5	/experiments/knapen_aot/videos/S_wc-ZZxbTv7oc5DQ_10.mp4	0.0	235.48088788986206	0.14995408058166504
48	132.1574628353119	response	0	2		46.0	2.5	/experiments/knapen_aot/videos/S_wc-ZZxbTv7oc5DQ_10.mp4	0.0	235.62256479263306	
48	132.16574001312256	movie	1		166.0	46.0	2.5	/experiments/knapen_aot/videos/S_wc-ZZxbTv7oc5DQ_10.mp4	0.0	235.63084197044373	2.5083110332489014
48	134.67405104637146	fix_post	2		12.0	46.0	2.5	/experiments/knapen_aot/videos/S_wc-ZZxbTv7oc5DQ_10.mp4	0.0	238.13915300369263	0.10004591941833496
49	134.7740969657898	fix_pre	0		14.0	47.0	2.5	/experiments/knapen_aot/videos/S_yt-FzMLLmcD1mE_19.mp4	0.0	238.23919892311096	0.11656904220581055
49	134.88248085975647	response	0	2		47.0	2.5	/experiments/knapen_aot/videos/S_yt-FzMLLmcD1mE_19.mp4	0.0	238.34758281707764	
49	134.8906660079956	movie	1		301.0	47.0	2.5	/experiments/knapen_aot/videos/S_yt-FzMLLmcD1mE_19.mp4	0.0	238.35576796531677	2.5082600116729736
49	137.39892601966858	fix_post	2		12.0	47.0	2.5	/experiments/knapen_aot/videos/S_yt-FzMLLmcD1mE_19.mp4	0.0	240.86402797698975	0.1001279354095459
50	137.49905395507812	fix_pre	0		35.0	48.0	2.5	/experiments/knapen_aot/videos/R_S_production_ID_3943334.mp4	0.0	240.9641559123993	0.29160094261169434
50	137.78246998786926	response	0	2		48.0	2.5	/experiments/knapen_aot/videos/R_S_production_ID_3943334.mp4	0.0	241.24757194519043	
50	137.79065489768982	movie	1		201.0	48.0	2.5	/experiments/knapen_aot/videos/R_S_production_ID_3943334.mp4	0.0	241.255756855011	2.5083420276641846
50	140.298996925354	fix_post	2		12.0	48.0	2.5	/experiments/knapen_aot/videos/R_S_production_ID_3943334.mp4	0.0	243.76409888267517	0.1000220775604248
51	140.39901900291443	fix_pre	0		33.0	49.0	2.5	blank	1.0	243.8641209602356	0.2749509811401367
51	140.66580295562744	response	0	2		49.0	2.5	blank	1.0	244.1309049129486	
51	140.67396998405457	movie	1		301.0	49.0	2.5	blank	1.0	244.13907194137573	2.5083699226379395
51	143.1823399066925	fix_post	2		12.0	49.0	2.5	blank	1.0	246.64744186401367	0.09996795654296875
52	143.28230786323547	fix_pre	0		29.0	50.0	2.5	/experiments/knapen_aot/videos/R_S_pexels-cottonbro-10639398.mp4	0.0	246.74740982055664	0.24277997016906738
52	143.51579594612122	response	0	2		50.0	2.5	/experiments/knapen_aot/videos/R_S_pexels-cottonbro-10639398.mp4	0.0	246.98089790344238	
52	143.52508783340454	movie	1		195.0	50.0	2.5	/experiments/knapen_aot/videos/R_S_pexels-cottonbro-10639398.mp4	0.0	246.9901897907257	2.5072710514068604
52	146.0323588848114	fix_post	2		12.0	50.0	2.5	/experiments/knapen_aot/videos/R_S_pexels-cottonbro-10639398.mp4	0.0	249.49746084213257	0.09995603561401367
53	146.13231492042542	fix_pre	0		28.0	51.0	2.5	/experiments/knapen_aot/videos/R_S_yt-xKteiAi5h7Q_36.mp4	0.0	249.59741687774658	0.23325896263122559
53	146.3574788570404	response	0	2		51.0	2.5	/experiments/knapen_aot/videos/R_S_yt-xKteiAi5h7Q_36.mp4	0.0	249.82258081436157	
53	146.36557388305664	movie	1		301.0	51.0	2.5	/experiments/knapen_aot/videos/R_S_yt-xKteiAi5h7Q_36.mp4	0.0	249.8306758403778	2.508397102355957
53	148.8739709854126	fix_post	2		12.0	51.0	2.5	/experiments/knapen_aot/videos/R_S_yt-xKteiAi5h7Q_36.mp4	0.0	252.33907294273376	0.09998393058776855
54	148.97395491600037	fix_pre	0		23.0	52.0	2.5	/experiments/knapen_aot/videos/S_wc-_W9iefBXz8bi_23.mp4	0.0	252.43905687332153	0.19159698486328125
54	149.15742588043213	response	0	2		52.0	2.5	/experiments/knapen_aot/videos/S_wc-_W9iefBXz8bi_23.mp4	0.0	252.6225278377533	
54	149.16555190086365	movie	1		165.0	52.0	2.5	/experiments/knapen_aot/videos/S_wc-_W9iefBXz8bi_23.mp4	0.0	252.63065385818481	2.5085201263427734
54	151.67407202720642	fix_post	2		12.0	52.0	2.5	/experiments/knapen_aot/videos/S_wc-_W9iefBXz8bi_23.mp4	0.0	255.1391739845276	0.10095500946044922
55	151.77502703666687	fix_pre	0		45.0	53.0	2.5	/experiments/knapen_aot/videos/S_ILSVRC2015_train_00549000.mp4	0.0	255.24012899398804	0.37499189376831055
55	152.14077401161194	response	0	2		53.0	2.5	/experiments/knapen_aot/videos/S_ILSVRC2015_train_00549000.mp4	0.0	255.6058759689331	
55	152.15001893043518	movie	1		301.0	53.0	2.5	/experiments/knapen_aot/videos/S_ILSVRC2015_train_00549000.mp4	0.0	255.61512088775635	2.507323980331421
55	154.6573429107666	fix_post	2		12.0	53.0	2.5	/experiments/knapen_aot/videos/S_ILSVRC2015_train_00549000.mp4	0.0	258.12244486808777	0.09999608993530273
56	154.7573390007019	fix_pre	0		5.0	54.0	2.5	/experiments/knapen_aot/videos/S_ILSVRC2015_train_00743002.mp4	0.0	258.22244095802307	0.041645050048828125
56	154.79091787338257	response	0	2		54.0	2.5	/experiments/knapen_aot/videos/S_ILSVRC2015_train_00743002.mp4	0.0	258.25601983070374	
56	154.79898405075073	movie	1		300.0	54.0	2.5	/experiments/knapen_aot/videos/S_ILSVRC2015_train_00743002.mp4	0.0	258.2640860080719	2.5083038806915283
56	157.30728793144226	fix_post	2		12.0	54.0	2.5	/experiments/knapen_aot/videos/S_ILSVRC2015_train_00743002.mp4	0.0	260.7723898887634	0.09995603561401367
57	157.40724396705627	fix_pre	0		23.0	55.0	2.5	/experiments/knapen_aot/videos/R_S_production_ID_4997166.mp4	0.0	260.87234592437744	0.19167494773864746
57	157.59070992469788	response	0	2		55.0	2.5	/experiments/knapen_aot/videos/R_S_production_ID_4997166.mp4	0.0	261.05581188201904	
57	157.59891891479492	movie	1		169.0	55.0	2.5	/experiments/knapen_aot/videos/R_S_production_ID_4997166.mp4	0.0	261.0640208721161	2.508336067199707
57	160.10725498199463	fix_post	2		12.0	55.0	2.5	/experiments/knapen_aot/videos/R_S_production_ID_4997166.mp4	0.0	263.5723569393158	0.10000896453857422
58	160.2072639465332	fix_pre	0		7.0	56.0	2.5	blank	1.0	263.67236590385437	0.058316946029663086
58	160.25735092163086	response	0	2		56.0	2.5	blank	1.0	263.722452878952	
58	160.26558089256287	movie	1		301.0	56.0	2.5	blank	1.0	263.73068284988403	2.5083580017089844
58	162.77393889427185	fix_post	2		12.0	56.0	2.5	blank	1.0	266.239040851593	0.09997701644897461
59	162.87391591072083	fix_pre	0		24.0	57.0	2.5	/experiments/knapen_aot/videos/R_S_pexels-rodnae-productions-5544703.mp4	0.0	266.339017868042	0.19994091987609863
59	163.0656578540802	response	0	2		57.0	2.5	/experiments/knapen_aot/videos/R_S_pexels-rodnae-productions-5544703.mp4	0.0	266.53075981140137	
59	163.07385683059692	movie	1		178.0	57.0	2.5	/experiments/knapen_aot/videos/R_S_pexels-rodnae-productions-5544703.mp4	0.0	266.5389587879181	2.5083470344543457
59	165.58220386505127	fix_post	2		12.0	57.0	2.5	/experiments/knapen_aot/videos/R_S_pexels-rodnae-productions-5544703.mp4	0.0	269.04730582237244	0.10000300407409668
60	165.68220686912537	fix_pre	0		2.0	58.0	2.5	/experiments/knapen_aot/videos/S_production_ID_5182928.mp4	0.0	269.14730882644653	0.016666173934936523
60	165.69174885749817	response	0	2		58.0	2.5	/experiments/knapen_aot/videos/S_production_ID_5182928.mp4	0.0	269.15685081481934	
60	165.6988730430603	movie	1		172.0	58.0	2.5	/experiments/knapen_aot/videos/S_production_ID_5182928.mp4	0.0	269.16397500038147	2.5083329677581787
60	168.20720601081848	fix_post	2		12.0	58.0	2.5	/experiments/knapen_aot/videos/S_production_ID_5182928.mp4	0.0	271.67230796813965	0.10000896453857422
61	168.30721497535706	fix_pre	0		20.0	59.0	2.5	/experiments/knapen_aot/videos/R_S_I003_C008_SDR_2K_AVC.mp4	0.0	271.7723169326782	0.1666259765625
61	168.46558690071106	response	0	2		59.0	2.5	/experiments/knapen_aot/videos/R_S_I003_C008_SDR_2K_AVC.mp4	0.0	271.9306888580322	
61	168.47384095191956	movie	1		176.0	59.0	2.5	/experiments/knapen_aot/videos/R_S_I003_C008_SDR_2K_AVC.mp4	0.0	271.9389429092407	2.5082499980926514
61	170.9820909500122	fix_post	2		12.0	59.0	2.5	/experiments/knapen_aot/videos/R_S_I003_C008_SDR_2K_AVC.mp4	0.0	274.4471929073334	0.10011696815490723
62	171.08220791816711	fix_pre	0		7.0	60.0	2.5	/experiments/knapen_aot/videos/S__6qAy77ODUI_175.mp4	0.0	274.5473098754883	0.058344125747680664
62	171.1323380470276	response	0	2		60.0	2.5	/experiments/knapen_aot/videos/S__6qAy77ODUI_175.mp4	0.0	274.59744000434875	
62	171.1405520439148	movie	1		301.0	60.0	2.5	/experiments/knapen_aot/videos/S__6qAy77ODUI_175.mp4	0.0	274.60565400123596	2.5083258152008057
62	173.6488778591156	fix_post	2		12.0	60.0	2.5	/experiments/knapen_aot/videos/S__6qAy77ODUI_175.mp4	0.0	277.11397981643677	0.09993195533752441
63	173.74880981445312	fix_pre	0		31.0	61.0	2.5	/experiments/knapen_aot/videos/R_S_yt-xKteiAi5h7Q_36.mp4	0.0	277.2139117717743	0.2583770751953125
63	173.9915108680725	response	0	2		61.0	2.5	/experiments/knapen_aot/videos/R_S_yt-xKteiAi5h7Q_36.mp4	0.0	277.4566128253937	
63	174.00718688964844	movie	1		301.0	61.0	2.5	/experiments/knapen_aot/videos/R_S_yt-xKteiAi5h7Q_36.mp4	0.0	277.4722888469696	2.50827693939209
63	176.51546382904053	fix_post	2		12.0	61.0	2.5	/experiments/knapen_aot/videos/R_S_yt-xKteiAi5h7Q_36.mp4	0.0	279.9805657863617	0.10000109672546387
64	176.615464925766	fix_pre	0		18.0	62.0	2.5	/experiments/knapen_aot/videos/R_S_yt-zh2yLr-o_8A_953.mp4	0.0	280.08056688308716	0.1500840187072754
64	176.74969100952148	response	0	2		62.0	2.5	/experiments/knapen_aot/videos/R_S_yt-zh2yLr-o_8A_953.mp4	0.0	280.21479296684265	
64	176.76554894447327	movie	1		301.0	62.0	2.5	/experiments/knapen_aot/videos/R_S_yt-zh2yLr-o_8A_953.mp4	0.0	280.23065090179443	2.5083649158477783
64	179.27391386032104	fix_post	2		12.0	62.0	2.5	/experiments/knapen_aot/videos/R_S_yt-zh2yLr-o_8A_953.mp4	0.0	282.7390158176422	0.0999300479888916
65	179.37384390830994	fix_pre	0		19.0	63.0	2.5	blank	1.0	282.8389458656311	0.15833806991577148
65	179.52393889427185	response	0	2		63.0	2.5	blank	1.0	282.989040851593	
65	179.5321819782257	movie	1		301.0	63.0	2.5	blank	1.0	282.9972839355469	2.5082859992980957
65	182.03225088119507	response	1	2		63.0	2.5	blank	1.0	285.49735283851624	
65	182.0404679775238	fix_post	2		12.0	63.0	2.5	blank	1.0	285.50556993484497	0.10006189346313477
66	182.14052987098694	fix_pre	0		37.0	64.0	2.5	/experiments/knapen_aot/videos/R_S_yt-kiEFK7bDssE_14.mp4	0.0	285.6056318283081	0.3081979751586914
66	182.44057989120483	response	0	2		64.0	2.5	/experiments/knapen_aot/videos/R_S_yt-kiEFK7bDssE_14.mp4	0.0	285.905681848526	
66	182.44872784614563	movie	1		301.0	64.0	2.5	/experiments/knapen_aot/videos/R_S_yt-kiEFK7bDssE_14.mp4	0.0	285.9138298034668	2.508427143096924
66	184.95715498924255	fix_post	2		12.0	64.0	2.5	/experiments/knapen_aot/videos/R_S_yt-kiEFK7bDssE_14.mp4	0.0	288.4222569465637	0.10000205039978027
67	185.05715703964233	fix_pre	0		11.0	65.0	2.5	/experiments/knapen_aot/videos/R_S_pexels-cottonbro-9063801_1.mp4	0.0	288.5222589969635	0.09253191947937012
67	185.14063692092896	response	0	2		65.0	2.5	/experiments/knapen_aot/videos/R_S_pexels-cottonbro-9063801_1.mp4	0.0	288.6057388782501	
67	185.1496889591217	movie	1		194.0	65.0	2.5	/experiments/knapen_aot/videos/R_S_pexels-cottonbro-9063801_1.mp4	0.0	288.61479091644287	2.5073819160461426
67	187.65707087516785	fix_post	2		12.0	65.0	2.5	/experiments/knapen_aot/videos/R_S_pexels-cottonbro-9063801_1.mp4	0.0	291.122172832489	0.10004806518554688
68	187.7571189403534	fix_pre	0		17.0	66.0	2.5	/experiments/knapen_aot/videos/S_4_D1iUb87uE_15.mp4	0.0	291.22222089767456	0.14249396324157715
68	187.89055585861206	response	0	2		66.0	2.5	/experiments/knapen_aot/videos/S_4_D1iUb87uE_15.mp4	0.0	291.3556578159332	
68	187.89961290359497	movie	1		301.0	66.0	2.5	/experiments/knapen_aot/videos/S_4_D1iUb87uE_15.mp4	0.0	291.36471486091614	2.507504940032959
68	190.40711784362793	fix_post	2		12.0	66.0	2.5	/experiments/knapen_aot/videos/S_4_D1iUb87uE_15.mp4	0.0	293.8722198009491	0.10014200210571289
69	190.50725984573364	fix_pre	0		26.0	67.0	2.5	/experiments/knapen_aot/videos/R_S_yt-EApB0DJ3ECg_119.mp4	0.0	293.9723618030548	0.21652817726135254
69	190.71557593345642	response	0	2		67.0	2.5	/experiments/knapen_aot/videos/R_S_yt-EApB0DJ3ECg_119.mp4	0.0	294.1806778907776	
69	190.723788022995	movie	1		297.0	67.0	2.5	/experiments/knapen_aot/videos/R_S_yt-EApB0DJ3ECg_119.mp4	0.0	294.18888998031616	2.508330821990967
69	193.23211884498596	fix_post	2		12.0	67.0	2.5	/experiments/knapen_aot/videos/R_S_yt-EApB0DJ3ECg_119.mp4	0.0	296.69722080230713	0.09999608993530273
70	193.33211493492126	fix_pre	0		5.0	68.0	2.5	/experiments/knapen_aot/videos/S_yt-1UFhynm5g6Y_266.mp4	0.0	296.79721689224243	0.04158210754394531
70	193.358628988266	response	0	2		68.0	2.5	/experiments/knapen_aot/videos/S_yt-1UFhynm5g6Y_266.mp4	0.0	296.82373094558716	
70	193.3736970424652	movie	1		301.0	68.0	2.5	/experiments/knapen_aot/videos/S_yt-1UFhynm5g6Y_266.mp4	0.0	296.8387989997864	2.508342981338501
70	195.8820400238037	fix_post	2		12.0	68.0	2.5	/experiments/knapen_aot/videos/S_yt-1UFhynm5g6Y_266.mp4	0.0	299.3471419811249	0.10004997253417969
71	195.9820899963379	fix_pre	0		32.0	69.0	2.5	/experiments/knapen_aot/videos/S_yt-_7HJhRPVmHw_255.mp4	0.0	299.44719195365906	0.2665858268737793
71	196.24052691459656	response	0	2		69.0	2.5	/experiments/knapen_aot/videos/S_yt-_7HJhRPVmHw_255.mp4	0.0	299.7056288719177	
71	196.24867582321167	movie	1		298.0	69.0	2.5	/experiments/knapen_aot/videos/S_yt-_7HJhRPVmHw_255.mp4	0.0	299.71377778053284	2.5083611011505127
71	198.75703692436218	fix_post	2		12.0	69.0	2.5	/experiments/knapen_aot/videos/S_yt-_7HJhRPVmHw_255.mp4	0.0	302.22213888168335	0.10083603858947754
72	198.85787296295166	fix_pre	0		14.0	70.0	2.5	blank	1.0	302.3229749202728	0.11585402488708496
72	198.96554803848267	response	0	2		70.0	2.5	blank	1.0	302.43064999580383	
72	198.97372698783875	movie	1		301.0	70.0	2.5	blank	1.0	302.4388289451599	2.5083229541778564
72	201.4820499420166	fix_post	2		12.0	70.0	2.5	blank	1.0	304.94715189933777	0.09990406036376953
73	201.58195400238037	fix_pre	0		35.0	71.0	2.5	/experiments/knapen_aot/videos/R_S_production_ID_4835060.mp4	0.0	305.04705595970154	0.29169392585754395
73	201.86550402641296	response	0	2		71.0	2.5	/experiments/knapen_aot/videos/R_S_production_ID_4835060.mp4	0.0	305.33060598373413	
73	201.87364792823792	movie	1		170.0	71.0	2.5	/experiments/knapen_aot/videos/R_S_production_ID_4835060.mp4	0.0	305.3387498855591	2.499958038330078
73	204.36550092697144	response	1	2		71.0	2.5	/experiments/knapen_aot/videos/R_S_production_ID_4835060.mp4	0.0	307.8306028842926	
73	204.373605966568	fix_post	2		13.0	71.0	2.5	/experiments/knapen_aot/videos/R_S_production_ID_4835060.mp4	0.0	307.83870792388916	0.10834908485412598
74	204.48195505142212	fix_pre	0		21.0	72.0	2.5	/experiments/knapen_aot/videos/R_S_comp_L012_c002_PS_v01_SDR_PS_20180925_SDR_2K_AVC.mp4	0.0	307.9470570087433	0.17504382133483887
74	204.648756980896	response	0	2		72.0	2.5	/experiments/knapen_aot/videos/R_S_comp_L012_c002_PS_v01_SDR_PS_20180925_SDR_2K_AVC.mp4	0.0	308.11385893821716	
74	204.65699887275696	movie	1		173.0	72.0	2.5	/experiments/knapen_aot/videos/R_S_comp_L012_c002_PS_v01_SDR_PS_20180925_SDR_2K_AVC.mp4	0.0	308.1221008300781	2.5083539485931396
74	207.1653528213501	fix_post	2		12.0	72.0	2.5	/experiments/knapen_aot/videos/R_S_comp_L012_c002_PS_v01_SDR_PS_20180925_SDR_2K_AVC.mp4	0.0	310.63045477867126	0.10003399848937988
75	207.26538681983948	fix_pre	0		16.0	73.0	2.5	/experiments/knapen_aot/videos/R_S_yt-GFcuvjHJmS4_86.mp4	0.0	310.73048877716064	0.1340022087097168
75	207.3904800415039	response	0	2		73.0	2.5	/experiments/knapen_aot/videos/R_S_yt-GFcuvjHJmS4_86.mp4	0.0	310.8555819988251	
75	207.3993890285492	movie	1		301.0	73.0	2.5	/experiments/knapen_aot/videos/R_S_yt-GFcuvjHJmS4_86.mp4	0.0	310.86449098587036	2.507619857788086
75	209.90700888633728	fix_post	2		12.0	73.0	2.5	/experiments/knapen_aot/videos/R_S_yt-GFcuvjHJmS4_86.mp4	0.0	313.37211084365845	0.09998202323913574
76	210.00699090957642	fix_pre	0		22.0	74.0	2.5	/experiments/knapen_aot/videos/R_S_yt-uY5xsUKn8zU_17.mp4	0.0	313.4720928668976	0.18408799171447754
76	210.18206191062927	response	0	2		74.0	2.5	/experiments/knapen_aot/videos/R_S_yt-uY5xsUKn8zU_17.mp4	0.0	313.64716386795044	
76	210.1910789012909	movie	1		301.0	74.0	2.5	/experiments/knapen_aot/videos/R_S_yt-uY5xsUKn8zU_17.mp4	0.0	313.65618085861206	2.507589101791382
76	212.69866800308228	fix_post	2		12.0	74.0	2.5	/experiments/knapen_aot/videos/R_S_yt-uY5xsUKn8zU_17.mp4	0.0	316.16376996040344	0.09999299049377441
77	212.79866099357605	fix_pre	0		24.0	75.0	2.5	blank	1.0	316.2637629508972	0.19995689392089844
77	212.990483045578	response	0	2		75.0	2.5	blank	1.0	316.45558500289917	
77	212.99861788749695	movie	1		301.0	75.0	2.5	blank	1.0	316.4637198448181	2.5083510875701904
77	215.50696897506714	fix_post	2		12.0	75.0	2.5	blank	1.0	318.9720709323883	0.09993886947631836
77	215.51535487174988	response	2	2		75.0	2.5	blank	1.0	318.98045682907104	
78	215.60690784454346	fix_pre	0		110.0	76.0	2.5	/experiments/knapen_aot/videos/R_S_yt-1ruRqcfBMw0_21.mp4	0.0	319.0720098018646	0.9173870086669922
78	216.51539587974548	response	0	2		76.0	2.5	/experiments/knapen_aot/videos/R_S_yt-1ruRqcfBMw0_21.mp4	0.0	319.98049783706665	
78	216.52429485321045	movie	1		301.0	76.0	2.5	/experiments/knapen_aot/videos/R_S_yt-1ruRqcfBMw0_21.mp4	0.0	319.9893968105316	2.5077011585235596
78	219.031996011734	fix_post	2		12.0	76.0	2.5	/experiments/knapen_aot/videos/R_S_yt-1ruRqcfBMw0_21.mp4	0.0	322.4970979690552	0.09996390342712402
79	219.13195991516113	fix_pre	0		21.0	77.0	2.5	/experiments/knapen_aot/videos/R_S_yt-jQrMcUCmAaM_44.mp4	0.0	322.5970618724823	0.1750020980834961
79	219.29873394966125	response	0	2		77.0	2.5	/experiments/knapen_aot/videos/R_S_yt-jQrMcUCmAaM_44.mp4	0.0	322.7638359069824	
79	219.30696201324463	movie	1		300.0	77.0	2.5	/experiments/knapen_aot/videos/R_S_yt-jQrMcUCmAaM_44.mp4	0.0	322.7720639705658	2.5083298683166504
79	221.81529188156128	fix_post	2		12.0	77.0	2.5	/experiments/knapen_aot/videos/R_S_yt-jQrMcUCmAaM_44.mp4	0.0	325.28039383888245	0.09999895095825195
80	221.91529083251953	fix_pre	0		8.0	78.0	2.5	/experiments/knapen_aot/videos/S_yt-gzjV6YoK6X0_3.mp4	0.0	325.3803927898407	0.06739401817321777
80	221.97374486923218	response	0	2		78.0	2.5	/experiments/knapen_aot/videos/S_yt-gzjV6YoK6X0_3.mp4	0.0	325.43884682655334	
80	221.98268485069275	movie	1		301.0	78.0	2.5	/experiments/knapen_aot/videos/S_yt-gzjV6YoK6X0_3.mp4	0.0	325.4477868080139	2.5075361728668213
80	224.49022102355957	fix_post	2		12.0	78.0	2.5	/experiments/knapen_aot/videos/S_yt-gzjV6YoK6X0_3.mp4	0.0	327.95532298088074	0.10006380081176758
81	224.59028482437134	fix_pre	0		30.0	79.0	2.5	/experiments/knapen_aot/videos/S_yt-9pYW_TqVpU4_43.mp4	0.0	328.0553867816925	0.2500040531158447
81	224.83207201957703	response	0	2		79.0	2.5	/experiments/knapen_aot/videos/S_yt-9pYW_TqVpU4_43.mp4	0.0	328.2971739768982	
81	224.84028887748718	movie	1		300.0	79.0	2.5	/experiments/knapen_aot/videos/S_yt-9pYW_TqVpU4_43.mp4	0.0	328.30539083480835	2.508263111114502
81	227.34855198860168	fix_post	2		12.0	79.0	2.5	/experiments/knapen_aot/videos/S_yt-9pYW_TqVpU4_43.mp4	0.0	330.81365394592285	0.10001587867736816
82	227.44856786727905	fix_pre	0		10.0	80.0	2.5	/experiments/knapen_aot/videos/S_yt-xNITUMXoU0g_9.mp4	0.0	330.9136698246002	0.08333396911621094
82	227.5237329006195	response	0	2		80.0	2.5	/experiments/knapen_aot/videos/S_yt-xNITUMXoU0g_9.mp4	0.0	330.9888348579407	
82	227.53190183639526	movie	1		301.0	80.0	2.5	/experiments/knapen_aot/videos/S_yt-xNITUMXoU0g_9.mp4	0.0	330.99700379371643	2.5082991123199463
82	230.0402009487152	fix_post	2		12.0	80.0	2.5	/experiments/knapen_aot/videos/S_yt-xNITUMXoU0g_9.mp4	0.0	333.5053029060364	0.10005402565002441
83	230.14025497436523	fix_pre	0		16.0	81.0	2.5	/experiments/knapen_aot/videos/R_S_video-2_copy.mp4	0.0	333.6053569316864	0.13397884368896484
83	230.2653260231018	response	0	2		81.0	2.5	/experiments/knapen_aot/videos/R_S_video-2_copy.mp4	0.0	333.730427980423	
83	230.2742338180542	movie	1		163.0	81.0	2.5	/experiments/knapen_aot/videos/R_S_video-2_copy.mp4	0.0	333.73933577537537	2.5076510906219482
83	232.78188490867615	fix_post	2		12.0	81.0	2.5	/experiments/knapen_aot/videos/R_S_video-2_copy.mp4	0.0	336.2469868659973	0.09999394416809082
84	232.88187885284424	fix_pre	0		19.0	82.0	2.5	/experiments/knapen_aot/videos/S_yt-ycfVJyrFgB4_15.mp4	0.0	336.3469808101654	0.15833616256713867
84	233.03200888633728	response	0	2		82.0	2.5	/experiments/knapen_aot/videos/S_yt-ycfVJyrFgB4_15.mp4	0.0	336.49711084365845	
84	233.04021501541138	movie	1		301.0	82.0	2.5	/experiments/knapen_aot/videos/S_yt-ycfVJyrFgB4_15.mp4	0.0	336.50531697273254	2.5082778930664062
84	235.54849290847778	fix_post	2		12.0	82.0	2.5	/experiments/knapen_aot/videos/S_yt-ycfVJyrFgB4_15.mp4	0.0	339.01359486579895	0.10003805160522461
85	235.648530960083	fix_pre	0		38.0	83.0	2.5	blank	1.0	339.1136329174042	0.316633939743042
85	235.95699501037598	response	0	2		83.0	2.5	blank	1.0	339.42209696769714	
85	235.96516489982605	movie	1		301.0	83.0	2.5	blank	1.0	339.4302668571472	2.508358955383301
85	238.47352385520935	fix_post	2		12.0	83.0	2.5	blank	1.0	341.9386258125305	0.10002017021179199
87	238.57354402542114	stim	0		230.0					342.0386459827423	1.9166829586029053
87	238.78203797340393	response	0	2						342.2471399307251	
87	240.4871048927307	response	0	space						343.9522068500519	
