trial_nr	onset	event_type	phase	response	nr_frames	movie_index	movie_duration	movie_file	blank	onset_abs	duration
0	0.1527860164642334	stim	0		59.0					58.612964153289795	0.5416510105133057
0	0.6698369979858398	response	0	space						59.1300151348114	
1	0.6944370269775391	stim	0		121.0					59.1546151638031	1.0084559917449951
1	1.7028930187225342	stim	1		120.0					60.163071155548096	0.9995770454406738
1	2.3026089668273926	response	1	space						60.762787103652954	
2	2.702470064163208	fix_pre	0		5.0	0.0	2.5	/experiments/knapen_aot/videos/R_S_yt-hvuC_2YXsTQ_159.mp4	0.0	61.16264820098877	0.04157686233520508
2	2.735966920852661	response	0	space		0.0	2.5	/experiments/knapen_aot/videos/R_S_yt-hvuC_2YXsTQ_159.mp4	0.0	61.19614505767822	
2	2.744046926498413	movie	1		299.0	0.0	2.5	/experiments/knapen_aot/videos/R_S_yt-hvuC_2YXsTQ_159.mp4	0.0	61.204225063323975	2.5083401203155518
2	5.252387046813965	fix_post	2		12.0	0.0	2.5	/experiments/knapen_aot/videos/R_S_yt-hvuC_2YXsTQ_159.mp4	0.0	63.712565183639526	0.10006189346313477
3	5.3524489402771	fix_pre	0		26.0	1.0	2.5	/experiments/knapen_aot/videos/S_yt-WrwPgZYBXlA_34.mp4	0.0	63.81262707710266	0.22498106956481934
3	5.565880060195923	response	0	2		1.0	2.5	/experiments/knapen_aot/videos/S_yt-WrwPgZYBXlA_34.mp4	0.0	64.02605819702148	
3	5.577430009841919	movie	1		300.0	1.0	2.5	/experiments/knapen_aot/videos/S_yt-WrwPgZYBXlA_34.mp4	0.0	64.03760814666748	2.499908924102783
3	8.077338933944702	fix_post	2		12.0	1.0	2.5	/experiments/knapen_aot/videos/S_yt-WrwPgZYBXlA_34.mp4	0.0	66.53751707077026	0.10008096694946289
4	8.177419900894165	fix_pre	0		44.0	2.0	2.5	/experiments/knapen_aot/videos/R_S_pexels-tima-miroshnichenko-6077718.mp4	0.0	66.63759803771973	0.3666210174560547
4	8.535894870758057	response	0	2		2.0	2.5	/experiments/knapen_aot/videos/R_S_pexels-tima-miroshnichenko-6077718.mp4	0.0	66.99607300758362	
4	8.54404091835022	movie	1		164.0	2.0	2.5	/experiments/knapen_aot/videos/R_S_pexels-tima-miroshnichenko-6077718.mp4	0.0	67.00421905517578	2.5083680152893066
4	11.052408933639526	fix_post	2		12.0	2.0	2.5	/experiments/knapen_aot/videos/R_S_pexels-tima-miroshnichenko-6077718.mp4	0.0	69.51258707046509	0.10002493858337402
5	11.1524338722229	fix_pre	0		28.0	3.0	2.5	/experiments/knapen_aot/videos/S_flickr-51283549@N02-23064904264_16.mp4	0.0	69.61261200904846	0.23327898979187012
5	11.370061874389648	response	0	2		3.0	2.5	/experiments/knapen_aot/videos/S_flickr-51283549@N02-23064904264_16.mp4	0.0	69.83024001121521	
5	11.38571286201477	movie	1		162.0	3.0	2.5	/experiments/knapen_aot/videos/S_flickr-51283549@N02-23064904264_16.mp4	0.0	69.84589099884033	2.5083730220794678
5	13.894085884094238	fix_post	2		12.0	3.0	2.5	/experiments/knapen_aot/videos/S_flickr-51283549@N02-23064904264_16.mp4	0.0	72.3542640209198	0.10008406639099121
6	13.99416995048523	fix_pre	0		57.0	4.0	2.5	/experiments/knapen_aot/videos/S_yt-b0IfGcoHfD0_83.mp4	0.0	72.45434808731079	0.4748859405517578
6	14.460915088653564	response	0	2		4.0	2.5	/experiments/knapen_aot/videos/S_yt-b0IfGcoHfD0_83.mp4	0.0	72.92109322547913	
6	14.469055891036987	movie	1		301.0	4.0	2.5	/experiments/knapen_aot/videos/S_yt-b0IfGcoHfD0_83.mp4	0.0	72.92923402786255	2.50835919380188
6	16.977415084838867	fix_post	2		12.0	4.0	2.5	/experiments/knapen_aot/videos/S_yt-b0IfGcoHfD0_83.mp4	0.0	75.43759322166443	0.09996390342712402
7	17.07737898826599	fix_pre	0		42.0	5.0	2.5	/experiments/knapen_aot/videos/S_yt-Tn563IPZfg4_55.mp4	0.0	75.53755712509155	0.3499898910522461
7	17.419203996658325	response	0	2		5.0	2.5	/experiments/knapen_aot/videos/S_yt-Tn563IPZfg4_55.mp4	0.0	75.87938213348389	
7	17.427368879318237	movie	1		301.0	5.0	2.5	/experiments/knapen_aot/videos/S_yt-Tn563IPZfg4_55.mp4	0.0	75.8875470161438	2.5083611011505127
7	19.93572998046875	fix_post	2		12.0	5.0	2.5	/experiments/knapen_aot/videos/S_yt-Tn563IPZfg4_55.mp4	0.0	78.39590811729431	0.09998202323913574
8	20.035712003707886	fix_pre	0		37.0	6.0	2.5	/experiments/knapen_aot/videos/S_yt-xlHdGsXVZFU_83.mp4	0.0	78.49589014053345	0.3083229064941406
8	20.33580493927002	response	0	2		6.0	2.5	/experiments/knapen_aot/videos/S_yt-xlHdGsXVZFU_83.mp4	0.0	78.79598307609558	
8	20.344034910202026	movie	1		301.0	6.0	2.5	/experiments/knapen_aot/videos/S_yt-xlHdGsXVZFU_83.mp4	0.0	78.80421304702759	2.508742094039917
8	22.852777004241943	fix_post	2		12.0	6.0	2.5	/experiments/knapen_aot/videos/S_yt-xlHdGsXVZFU_83.mp4	0.0	81.3129551410675	0.09952402114868164
9	22.952301025390625	fix_pre	0		60.0	7.0	2.5	blank	1.0	81.41247916221619	0.5000219345092773
9	23.444067001342773	response	0	2		7.0	2.5	blank	1.0	81.90424513816833	
9	23.452322959899902	movie	1		301.0	7.0	2.5	blank	1.0	81.91250109672546	2.5083320140838623
9	25.960654973983765	fix_post	2		12.0	7.0	2.5	blank	1.0	84.42083311080933	0.10010099411010742
10	26.060755968093872	fix_pre	0		30.0	8.0	2.5	/experiments/knapen_aot/videos/S_yt-N1DlS9B00G0_23.mp4	0.0	84.52093410491943	0.25116395950317383
10	26.30248188972473	response	0	2		8.0	2.5	/experiments/knapen_aot/videos/S_yt-N1DlS9B00G0_23.mp4	0.0	84.7626600265503	
10	26.311919927597046	movie	1		301.0	8.0	2.5	/experiments/knapen_aot/videos/S_yt-N1DlS9B00G0_23.mp4	0.0	84.77209806442261	2.5071980953216553
10	28.8191180229187	fix_post	2		12.0	8.0	2.5	/experiments/knapen_aot/videos/S_yt-N1DlS9B00G0_23.mp4	0.0	87.27929615974426	0.0999000072479248
11	28.919018030166626	fix_pre	0		61.0	9.0	2.5	/experiments/knapen_aot/videos/R_S_ILSVRC2015_train_00324000.mp4	0.0	87.37919616699219	0.5082759857177734
11	29.41901707649231	response	0	2		9.0	2.5	/experiments/knapen_aot/videos/R_S_ILSVRC2015_train_00324000.mp4	0.0	87.87919521331787	
11	29.4272940158844	movie	1		301.0	9.0	2.5	/experiments/knapen_aot/videos/R_S_ILSVRC2015_train_00324000.mp4	0.0	87.88747215270996	2.508354902267456
11	31.935648918151855	fix_post	2		12.0	9.0	2.5	/experiments/knapen_aot/videos/R_S_ILSVRC2015_train_00324000.mp4	0.0	90.39582705497742	0.1000981330871582
12	32.035747051239014	fix_pre	0		61.0	10.0	2.5	/experiments/knapen_aot/videos/S_ILSVRC2015_train_00444000.mp4	0.0	90.49592518806458	0.5081770420074463
12	32.53576898574829	response	0	2		10.0	2.5	/experiments/knapen_aot/videos/S_ILSVRC2015_train_00444000.mp4	0.0	90.99594712257385	
12	32.54392409324646	movie	1		301.0	10.0	2.5	/experiments/knapen_aot/videos/S_ILSVRC2015_train_00444000.mp4	0.0	91.00410223007202	2.508366823196411
12	35.05229091644287	fix_post	2		12.0	10.0	2.5	/experiments/knapen_aot/videos/S_ILSVRC2015_train_00444000.mp4	0.0	93.51246905326843	0.09998512268066406
13	35.152276039123535	fix_pre	0		47.0	11.0	2.5	/experiments/knapen_aot/videos/R_S_yt-Faxdis4m3Fw_9.mp4	0.0	93.6124541759491	0.39166998863220215
13	35.53566002845764	response	0	2		11.0	2.5	/experiments/knapen_aot/videos/R_S_yt-Faxdis4m3Fw_9.mp4	0.0	93.9958381652832	
13	35.54394602775574	movie	1		300.0	11.0	2.5	/experiments/knapen_aot/videos/R_S_yt-Faxdis4m3Fw_9.mp4	0.0	94.0041241645813	2.5083210468292236
13	38.05226707458496	fix_post	2		12.0	11.0	2.5	/experiments/knapen_aot/videos/R_S_yt-Faxdis4m3Fw_9.mp4	0.0	96.51244521141052	0.10003399848937988
14	38.15230107307434	fix_pre	0		56.0	12.0	2.5	blank	1.0	96.6124792098999	0.4665830135345459
14	38.61071586608887	response	0	2		12.0	2.5	blank	1.0	97.07089400291443	
14	38.61888408660889	movie	1		301.0	12.0	2.5	blank	1.0	97.07906222343445	2.508401870727539
14	41.127285957336426	fix_post	2		12.0	12.0	2.5	blank	1.0	99.58746409416199	0.10000991821289062
15	41.227295875549316	fix_pre	0		38.0	13.0	2.5	/experiments/knapen_aot/videos/S_yt-cjndulbUtRc_51.mp4	0.0	99.68747401237488	0.31658315658569336
15	41.53573393821716	response	0	2		13.0	2.5	/experiments/knapen_aot/videos/S_yt-cjndulbUtRc_51.mp4	0.0	99.99591207504272	
15	41.54387903213501	movie	1		301.0	13.0	2.5	/experiments/knapen_aot/videos/S_yt-cjndulbUtRc_51.mp4	0.0	100.00405716896057	2.508354902267456
15	44.052233934402466	fix_post	2		12.0	13.0	2.5	/experiments/knapen_aot/videos/S_yt-cjndulbUtRc_51.mp4	0.0	102.51241207122803	0.10011506080627441
16	44.15234899520874	fix_pre	0		82.0	14.0	2.5	/experiments/knapen_aot/videos/R_S_9smWynsk6sI_158.mp4	0.0	102.6125271320343	0.6831870079040527
16	44.827373027801514	response	0	2		14.0	2.5	/experiments/knapen_aot/videos/R_S_9smWynsk6sI_158.mp4	0.0	103.28755116462708	
16	44.83553600311279	movie	1		301.0	14.0	2.5	/experiments/knapen_aot/videos/R_S_9smWynsk6sI_158.mp4	0.0	103.29571413993835	2.5083138942718506
16	47.343849897384644	fix_post	2		12.0	14.0	2.5	/experiments/knapen_aot/videos/R_S_9smWynsk6sI_158.mp4	0.0	105.8040280342102	0.10007119178771973
17	47.44392108917236	fix_pre	0		61.0	15.0	2.5	/experiments/knapen_aot/videos/R_S_yt-Tn563IPZfg4_55.mp4	0.0	105.90409922599792	0.5082759857177734
17	47.94403886795044	response	0	2		15.0	2.5	/experiments/knapen_aot/videos/R_S_yt-Tn563IPZfg4_55.mp4	0.0	106.404217004776	
17	47.95219707489014	movie	1		301.0	15.0	2.5	/experiments/knapen_aot/videos/R_S_yt-Tn563IPZfg4_55.mp4	0.0	106.4123752117157	2.508384943008423
17	50.46058201789856	fix_post	2		12.0	15.0	2.5	/experiments/knapen_aot/videos/R_S_yt-Tn563IPZfg4_55.mp4	0.0	108.92076015472412	0.09995102882385254
18	50.56053304672241	fix_pre	0		54.0	16.0	2.5	/experiments/knapen_aot/videos/S_BO_A014_C023_SDR_20190717_F240F3709_SDR_2K_AVC.mp4	0.0	109.02071118354797	0.4499659538269043
18	51.002249002456665	response	0	2		16.0	2.5	/experiments/knapen_aot/videos/S_BO_A014_C023_SDR_20190717_F240F3709_SDR_2K_AVC.mp4	0.0	109.46242713928223	
18	51.010499000549316	movie	1		170.0	16.0	2.5	/experiments/knapen_aot/videos/S_BO_A014_C023_SDR_20190717_F240F3709_SDR_2K_AVC.mp4	0.0	109.47067713737488	2.5083580017089844
18	53.5188570022583	fix_post	2		12.0	16.0	2.5	/experiments/knapen_aot/videos/S_BO_A014_C023_SDR_20190717_F240F3709_SDR_2K_AVC.mp4	0.0	111.97903513908386	0.09997391700744629
19	53.61883091926575	fix_pre	0		95.0	17.0	2.5	/experiments/knapen_aot/videos/R_S_yt-gmiyqQDGN78_7.mp4	0.0	112.07900905609131	0.7916200160980225
19	54.402302980422974	response	0	2		17.0	2.5	/experiments/knapen_aot/videos/R_S_yt-gmiyqQDGN78_7.mp4	0.0	112.86248111724854	
19	54.41045093536377	movie	1		301.0	17.0	2.5	/experiments/knapen_aot/videos/R_S_yt-gmiyqQDGN78_7.mp4	0.0	112.87062907218933	2.508392095565796
19	56.918843030929565	fix_post	2		12.0	17.0	2.5	/experiments/knapen_aot/videos/R_S_yt-gmiyqQDGN78_7.mp4	0.0	115.37902116775513	0.09994888305664062
20	57.018791913986206	fix_pre	0		61.0	18.0	2.5	/experiments/knapen_aot/videos/S_yt-F3hhts3bwWg_25.mp4	0.0	115.47897005081177	0.5082869529724121
20	57.518977880477905	response	0	2		18.0	2.5	/experiments/knapen_aot/videos/S_yt-F3hhts3bwWg_25.mp4	0.0	115.97915601730347	
20	57.52707886695862	movie	1		299.0	18.0	2.5	/experiments/knapen_aot/videos/S_yt-F3hhts3bwWg_25.mp4	0.0	115.98725700378418	2.508402109146118
20	60.035480976104736	fix_post	2		12.0	18.0	2.5	/experiments/knapen_aot/videos/S_yt-F3hhts3bwWg_25.mp4	0.0	118.4956591129303	0.10007190704345703
21	60.13555288314819	fix_pre	0		52.0	19.0	2.5	blank	1.0	118.59573101997375	0.4333021640777588
21	60.56064701080322	response	0	2		19.0	2.5	blank	1.0	119.02082514762878	
21	60.56885504722595	movie	1		301.0	19.0	2.5	blank	1.0	119.02903318405151	2.5083389282226562
21	63.07719397544861	fix_post	2		12.0	19.0	2.5	blank	1.0	121.53737211227417	0.10015392303466797
22	63.177347898483276	fix_pre	0		29.0	20.0	2.5	/experiments/knapen_aot/videos/S_yt-o_CT2MjZ9fA_216.mp4	0.0	121.63752603530884	0.24149417877197266
22	63.410621881484985	response	0	2		20.0	2.5	/experiments/knapen_aot/videos/S_yt-o_CT2MjZ9fA_216.mp4	0.0	121.87080001831055	
22	63.41884207725525	movie	1		301.0	20.0	2.5	/experiments/knapen_aot/videos/S_yt-o_CT2MjZ9fA_216.mp4	0.0	121.87902021408081	2.508327007293701
22	65.92716908454895	fix_post	2		12.0	20.0	2.5	/experiments/knapen_aot/videos/S_yt-o_CT2MjZ9fA_216.mp4	0.0	124.38734722137451	0.10034394264221191
23	66.02751302719116	fix_pre	0		55.0	21.0	2.5	/experiments/knapen_aot/videos/S_yt-7Z6Kmp0n7L8_145.mp4	0.0	124.48769116401672	0.45796895027160645
23	66.47732090950012	response	0	2		21.0	2.5	/experiments/knapen_aot/videos/S_yt-7Z6Kmp0n7L8_145.mp4	0.0	124.93749904632568	
23	66.48548197746277	movie	1		301.0	21.0	2.5	/experiments/knapen_aot/videos/S_yt-7Z6Kmp0n7L8_145.mp4	0.0	124.94566011428833	2.5083489418029785
23	68.99383091926575	fix_post	2		12.0	21.0	2.5	/experiments/knapen_aot/videos/S_yt-7Z6Kmp0n7L8_145.mp4	0.0	127.45400905609131	0.10002493858337402
24	69.09385585784912	fix_pre	0		47.0	22.0	2.5	/experiments/knapen_aot/videos/R_S_production_ID_4707837.mp4	0.0	127.55403399467468	0.3915581703186035
24	69.4773108959198	response	0	2		22.0	2.5	/experiments/knapen_aot/videos/R_S_production_ID_4707837.mp4	0.0	127.93748903274536	
24	69.48541402816772	movie	1		168.0	22.0	2.5	/experiments/knapen_aot/videos/R_S_production_ID_4707837.mp4	0.0	127.94559216499329	2.508404016494751
24	71.99381804466248	fix_post	2		12.0	22.0	2.5	/experiments/knapen_aot/videos/R_S_production_ID_4707837.mp4	0.0	130.45399618148804	0.10002684593200684
25	72.09384489059448	fix_pre	0		30.0	23.0	2.5	/experiments/knapen_aot/videos/S_yt-IlW1U39Dga4_5.mp4	0.0	130.55402302742004	0.24994611740112305
25	72.3356020450592	response	0	2		23.0	2.5	/experiments/knapen_aot/videos/S_yt-IlW1U39Dga4_5.mp4	0.0	130.79578018188477	
25	72.3437910079956	movie	1		301.0	23.0	2.5	/experiments/knapen_aot/videos/S_yt-IlW1U39Dga4_5.mp4	0.0	130.80396914482117	2.5083189010620117
25	74.85210990905762	fix_post	2		12.0	23.0	2.5	/experiments/knapen_aot/videos/S_yt-IlW1U39Dga4_5.mp4	0.0	133.31228804588318	0.10004997253417969
26	74.9521598815918	fix_pre	0		70.0	24.0	2.5	/experiments/knapen_aot/videos/R_S_yt-PREz5XiiXg0_107.mp4	0.0	133.41233801841736	0.5832710266113281
26	75.52725005149841	response	0	2		24.0	2.5	/experiments/knapen_aot/videos/R_S_yt-PREz5XiiXg0_107.mp4	0.0	133.98742818832397	
26	75.53543090820312	movie	1		301.0	24.0	2.5	/experiments/knapen_aot/videos/R_S_yt-PREz5XiiXg0_107.mp4	0.0	133.9956090450287	2.5083770751953125
26	78.04380798339844	fix_post	2		12.0	24.0	2.5	/experiments/knapen_aot/videos/R_S_yt-PREz5XiiXg0_107.mp4	0.0	136.503986120224	0.10003399848937988
27	78.14384198188782	fix_pre	0		64.0	25.0	2.5	/experiments/knapen_aot/videos/R_S_yt-Uv0dt_-fWJU_40.mp4	0.0	136.60402011871338	0.5332040786743164
27	78.66892194747925	response	0	2		25.0	2.5	/experiments/knapen_aot/videos/R_S_yt-Uv0dt_-fWJU_40.mp4	0.0	137.1291000843048	
27	78.67704606056213	movie	1		301.0	25.0	2.5	/experiments/knapen_aot/videos/R_S_yt-Uv0dt_-fWJU_40.mp4	0.0	137.1372241973877	2.508354902267456
27	81.18540096282959	fix_post	2		12.0	25.0	2.5	/experiments/knapen_aot/videos/R_S_yt-Uv0dt_-fWJU_40.mp4	0.0	139.64557909965515	0.09998512268066406
28	81.28538608551025	fix_pre	0		44.0	26.0	2.5	/experiments/knapen_aot/videos/S_yt-8LO59eN9om4_16.mp4	0.0	139.74556422233582	0.36658382415771484
28	81.64383101463318	response	0	2		26.0	2.5	/experiments/knapen_aot/videos/S_yt-8LO59eN9om4_16.mp4	0.0	140.10400915145874	
28	81.65196990966797	movie	1		301.0	26.0	2.5	/experiments/knapen_aot/videos/S_yt-8LO59eN9om4_16.mp4	0.0	140.11214804649353	2.5083811283111572
28	84.16035103797913	fix_post	2		12.0	26.0	2.5	/experiments/knapen_aot/videos/S_yt-8LO59eN9om4_16.mp4	0.0	142.6205291748047	0.1001119613647461
29	84.26046299934387	fix_pre	0		61.0	27.0	2.5	/experiments/knapen_aot/videos/S_flickr-clarkstonscamp-4863427159_1.mp4	0.0	142.72064113616943	0.5091688632965088
29	84.760488986969	response	0	2		27.0	2.5	/experiments/knapen_aot/videos/S_flickr-clarkstonscamp-4863427159_1.mp4	0.0	143.22066712379456	
29	84.76963186264038	movie	1		301.0	27.0	2.5	/experiments/knapen_aot/videos/S_flickr-clarkstonscamp-4863427159_1.mp4	0.0	143.22980999946594	2.5073821544647217
29	87.2770140171051	fix_post	2		12.0	27.0	2.5	/experiments/knapen_aot/videos/S_flickr-clarkstonscamp-4863427159_1.mp4	0.0	145.73719215393066	0.1001899242401123
30	87.37720394134521	fix_pre	0		60.0	28.0	2.5	blank	1.0	145.83738207817078	0.4998610019683838
30	87.86886692047119	response	0	2		28.0	2.5	blank	1.0	146.32904505729675	
30	87.8770649433136	movie	1		301.0	28.0	2.5	blank	1.0	146.33724308013916	2.508225917816162
30	90.38529086112976	fix_post	2		12.0	28.0	2.5	blank	1.0	148.84546899795532	0.10008621215820312
31	90.48537707328796	fix_pre	0		63.0	29.0	2.5	/experiments/knapen_aot/videos/R_S_comp_LA_A011_C003_DGRN_LNFIX_STAB_v57_SDR_PS_20181002_SDR_2K_AVC.mp4	0.0	148.94555521011353	0.5249149799346924
31	91.00213098526001	response	0	2		29.0	2.5	/experiments/knapen_aot/videos/R_S_comp_LA_A011_C003_DGRN_LNFIX_STAB_v57_SDR_PS_20181002_SDR_2K_AVC.mp4	0.0	149.46230912208557	
31	91.01029205322266	movie	1		167.0	29.0	2.5	/experiments/knapen_aot/videos/R_S_comp_LA_A011_C003_DGRN_LNFIX_STAB_v57_SDR_PS_20181002_SDR_2K_AVC.mp4	0.0	149.47047019004822	2.5084078311920166
31	93.51869988441467	fix_post	2		12.0	29.0	2.5	/experiments/knapen_aot/videos/R_S_comp_LA_A011_C003_DGRN_LNFIX_STAB_v57_SDR_PS_20181002_SDR_2K_AVC.mp4	0.0	151.97887802124023	0.10001420974731445
32	93.61871409416199	fix_pre	0		40.0	30.0	2.5	/experiments/knapen_aot/videos/R_S_yt-ILARvS15SDQ_741.mp4	0.0	152.07889223098755	0.333331823348999
32	93.94386196136475	response	0	2		30.0	2.5	/experiments/knapen_aot/videos/R_S_yt-ILARvS15SDQ_741.mp4	0.0	152.4040400981903	
32	93.95204591751099	movie	1		300.0	30.0	2.5	/experiments/knapen_aot/videos/R_S_yt-ILARvS15SDQ_741.mp4	0.0	152.41222405433655	2.508265972137451
32	96.46031188964844	fix_post	2		12.0	30.0	2.5	/experiments/knapen_aot/videos/R_S_yt-ILARvS15SDQ_741.mp4	0.0	154.920490026474	0.1000051498413086
33	96.56031703948975	fix_pre	0		53.0	31.0	2.5	/experiments/knapen_aot/videos/R_S_yt-FMIevUic_XY_50.mp4	0.0	155.0204951763153	0.4416358470916748
33	96.99370002746582	response	0	2		31.0	2.5	/experiments/knapen_aot/videos/R_S_yt-FMIevUic_XY_50.mp4	0.0	155.45387816429138	
33	97.00195288658142	movie	1		301.0	31.0	2.5	/experiments/knapen_aot/videos/R_S_yt-FMIevUic_XY_50.mp4	0.0	155.46213102340698	2.5083811283111572
33	99.51033401489258	fix_post	2		12.0	31.0	2.5	/experiments/knapen_aot/videos/R_S_yt-FMIevUic_XY_50.mp4	0.0	157.97051215171814	0.1000819206237793
34	99.61041593551636	fix_pre	0		53.0	32.0	2.5	/experiments/knapen_aot/videos/S_yt-z68VLDDCFdw_93.mp4	0.0	158.07059407234192	0.4414551258087158
34	100.04377102851868	response	0	2		32.0	2.5	/experiments/knapen_aot/videos/S_yt-z68VLDDCFdw_93.mp4	0.0	158.50394916534424	
34	100.05187106132507	movie	1		301.0	32.0	2.5	/experiments/knapen_aot/videos/S_yt-z68VLDDCFdw_93.mp4	0.0	158.51204919815063	2.5084688663482666
34	102.56033992767334	fix_post	2		12.0	32.0	2.5	/experiments/knapen_aot/videos/S_yt-z68VLDDCFdw_93.mp4	0.0	161.0205180644989	0.10021209716796875
35	102.66055202484131	fix_pre	0		14.0	33.0	2.5	/experiments/knapen_aot/videos/S_yt-oVS_k_9upmo_205.mp4	0.0	161.12073016166687	0.11641097068786621
35	102.76878690719604	response	0	2		33.0	2.5	/experiments/knapen_aot/videos/S_yt-oVS_k_9upmo_205.mp4	0.0	161.2289650440216	
35	102.77696299552917	movie	1		301.0	33.0	2.5	/experiments/knapen_aot/videos/S_yt-oVS_k_9upmo_205.mp4	0.0	161.23714113235474	2.508362054824829
35	105.285325050354	fix_post	2		12.0	33.0	2.5	/experiments/knapen_aot/videos/S_yt-oVS_k_9upmo_205.mp4	0.0	163.74550318717957	0.10009193420410156
36	105.3854169845581	fix_pre	0		27.0	34.0	2.5	/experiments/knapen_aot/videos/S_BO_A014_C023_SDR_20190717_F240F3709_SDR_2K_AVC.mp4	0.0	163.84559512138367	0.2248990535736084
36	105.59463405609131	response	0	2		34.0	2.5	/experiments/knapen_aot/videos/S_BO_A014_C023_SDR_20190717_F240F3709_SDR_2K_AVC.mp4	0.0	164.05481219291687	
36	105.61031603813171	movie	1		167.0	34.0	2.5	/experiments/knapen_aot/videos/S_BO_A014_C023_SDR_20190717_F240F3709_SDR_2K_AVC.mp4	0.0	164.07049417495728	2.508190870285034
36	108.11850690841675	fix_post	2		12.0	34.0	2.5	/experiments/knapen_aot/videos/S_BO_A014_C023_SDR_20190717_F240F3709_SDR_2K_AVC.mp4	0.0	166.5786850452423	0.1000971794128418
37	108.21860408782959	fix_pre	0		10.0	35.0	2.5	blank	1.0	166.67878222465515	0.08326196670532227
37	108.29378008842468	response	0	2		35.0	2.5	blank	1.0	166.75395822525024	
37	108.30186605453491	movie	1		301.0	35.0	2.5	blank	1.0	166.76204419136047	2.508316993713379
37	110.81018304824829	fix_post	2		12.0	35.0	2.5	blank	1.0	169.27036118507385	0.10839700698852539
38	110.91858005523682	fix_pre	0		44.0	36.0	2.5	/experiments/knapen_aot/videos/R_S_yt-5doJmCcFL7s_3.mp4	0.0	169.37875819206238	0.3666079044342041
38	111.26957201957703	response	0	2		36.0	2.5	/experiments/knapen_aot/videos/R_S_yt-5doJmCcFL7s_3.mp4	0.0	169.7297501564026	
38	111.28518795967102	movie	1		301.0	36.0	2.5	/experiments/knapen_aot/videos/R_S_yt-5doJmCcFL7s_3.mp4	0.0	169.74536609649658	2.508410930633545
38	113.79359889030457	fix_post	2		12.0	36.0	2.5	/experiments/knapen_aot/videos/R_S_yt-5doJmCcFL7s_3.mp4	0.0	172.25377702713013	0.10099506378173828
39	113.8945939540863	fix_pre	0		52.0	37.0	2.5	/experiments/knapen_aot/videos/R_S_yt-YyKEeu2gLrI_158.mp4	0.0	172.35477209091187	0.4322199821472168
39	114.3187210559845	response	0	2		37.0	2.5	/experiments/knapen_aot/videos/R_S_yt-YyKEeu2gLrI_158.mp4	0.0	172.77889919281006	
39	114.32681393623352	movie	1		301.0	37.0	2.5	/experiments/knapen_aot/videos/R_S_yt-YyKEeu2gLrI_158.mp4	0.0	172.78699207305908	2.508357048034668
39	116.83517098426819	fix_post	2		12.0	37.0	2.5	/experiments/knapen_aot/videos/R_S_yt-YyKEeu2gLrI_158.mp4	0.0	175.29534912109375	0.10087108612060547
40	116.9360420703888	fix_pre	0		49.0	38.0	2.5	/experiments/knapen_aot/videos/R_S_yt-9qXwehMoX7o_50.mp4	0.0	175.39622020721436	0.4075169563293457
40	117.33538389205933	response	0	2		38.0	2.5	/experiments/knapen_aot/videos/R_S_yt-9qXwehMoX7o_50.mp4	0.0	175.7955620288849	
40	117.34355902671814	movie	1		301.0	38.0	2.5	/experiments/knapen_aot/videos/R_S_yt-9qXwehMoX7o_50.mp4	0.0	175.8037371635437	2.5084168910980225
40	119.85197591781616	fix_post	2		12.0	38.0	2.5	/experiments/knapen_aot/videos/R_S_yt-9qXwehMoX7o_50.mp4	0.0	178.31215405464172	0.09993195533752441
41	119.95190787315369	fix_pre	0		39.0	39.0	2.5	/experiments/knapen_aot/videos/R_S_yt-7Z6Kmp0n7L8_145.mp4	0.0	178.41208600997925	0.32497215270996094
41	120.26869893074036	response	0	2		39.0	2.5	/experiments/knapen_aot/videos/R_S_yt-7Z6Kmp0n7L8_145.mp4	0.0	178.72887706756592	
41	120.27688002586365	movie	1		301.0	39.0	2.5	/experiments/knapen_aot/videos/R_S_yt-7Z6Kmp0n7L8_145.mp4	0.0	178.7370581626892	2.5083189010620117
41	122.78519892692566	fix_post	2		12.0	39.0	2.5	/experiments/knapen_aot/videos/R_S_yt-7Z6Kmp0n7L8_145.mp4	0.0	181.24537706375122	0.1000220775604248
42	122.88522100448608	fix_pre	0		30.0	40.0	2.5	/experiments/knapen_aot/videos/S_I003_C011_SDR_2K_AVC.mp4	0.0	181.34539914131165	0.2498769760131836
42	123.12698698043823	response	0	2		40.0	2.5	/experiments/knapen_aot/videos/S_I003_C011_SDR_2K_AVC.mp4	0.0	181.5871651172638	
42	123.13509798049927	movie	1		172.0	40.0	2.5	/experiments/knapen_aot/videos/S_I003_C011_SDR_2K_AVC.mp4	0.0	181.59527611732483	2.5084750652313232
42	125.64357304573059	fix_post	2		12.0	40.0	2.5	/experiments/knapen_aot/videos/S_I003_C011_SDR_2K_AVC.mp4	0.0	184.10375118255615	0.09998393058776855
43	125.74355697631836	fix_pre	0		37.0	41.0	2.5	/experiments/knapen_aot/videos/S_yt-kxWtOXNIsRA_329.mp4	0.0	184.20373511314392	0.3082559108734131
43	126.0436499118805	response	0	2		41.0	2.5	/experiments/knapen_aot/videos/S_yt-kxWtOXNIsRA_329.mp4	0.0	184.50382804870605	
43	126.05181288719177	movie	1		301.0	41.0	2.5	/experiments/knapen_aot/videos/S_yt-kxWtOXNIsRA_329.mp4	0.0	184.51199102401733	2.508385181427002
43	128.56019806861877	fix_post	2		12.0	41.0	2.5	/experiments/knapen_aot/videos/S_yt-kxWtOXNIsRA_329.mp4	0.0	187.02037620544434	0.10001802444458008
44	128.66021609306335	fix_pre	0		62.0	42.0	2.5	blank	1.0	187.12039422988892	0.5165889263153076
44	129.16123390197754	response	0	2		42.0	2.5	blank	1.0	187.6214120388031	
44	129.17680501937866	movie	1		301.0	42.0	2.5	blank	1.0	187.63698315620422	2.5083649158477783
44	131.68516993522644	fix_post	2		12.0	42.0	2.5	blank	1.0	190.145348072052	0.10001206398010254
45	131.78518199920654	fix_pre	0		28.0	43.0	2.5	/experiments/knapen_aot/videos/S_OdxWh1oU8e8_1.mp4	0.0	190.2453601360321	0.2339620590209961
45	132.01028299331665	response	0	2		43.0	2.5	/experiments/knapen_aot/videos/S_OdxWh1oU8e8_1.mp4	0.0	190.4704611301422	
45	132.01914405822754	movie	1		301.0	43.0	2.5	/experiments/knapen_aot/videos/S_OdxWh1oU8e8_1.mp4	0.0	190.4793221950531	2.507638931274414
45	134.52678298950195	fix_post	2		12.0	43.0	2.5	/experiments/knapen_aot/videos/S_OdxWh1oU8e8_1.mp4	0.0	192.98696112632751	0.11055803298950195
46	134.63734102249146	fix_pre	0		37.0	44.0	2.5	/experiments/knapen_aot/videos/R_S_BO_A014_C023_SDR_20190717_F240F3709_SDR_2K_AVC.mp4	0.0	193.09751915931702	0.3061070442199707
46	134.9351840019226	response	0	2		44.0	2.5	/experiments/knapen_aot/videos/R_S_BO_A014_C023_SDR_20190717_F240F3709_SDR_2K_AVC.mp4	0.0	193.39536213874817	
46	134.94344806671143	movie	1		165.0	44.0	2.5	/experiments/knapen_aot/videos/R_S_BO_A014_C023_SDR_20190717_F240F3709_SDR_2K_AVC.mp4	0.0	193.403626203537	2.508330821990967
46	137.4517788887024	fix_post	2		12.0	44.0	2.5	/experiments/knapen_aot/videos/R_S_BO_A014_C023_SDR_20190717_F240F3709_SDR_2K_AVC.mp4	0.0	195.91195702552795	0.10220503807067871
47	137.55398392677307	fix_pre	0		26.0	45.0	2.5	/experiments/knapen_aot/videos/S_yt-QOnORDmVMyU_10.mp4	0.0	196.01416206359863	0.2151801586151123
47	137.76016998291016	response	0	2		45.0	2.5	/experiments/knapen_aot/videos/S_yt-QOnORDmVMyU_10.mp4	0.0	196.22034811973572	
47	137.76916408538818	movie	1		301.0	45.0	2.5	/experiments/knapen_aot/videos/S_yt-QOnORDmVMyU_10.mp4	0.0	196.22934222221375	2.5077149868011475
47	140.27687907218933	fix_post	2		12.0	45.0	2.5	/experiments/knapen_aot/videos/S_yt-QOnORDmVMyU_10.mp4	0.0	198.7370572090149	0.10001087188720703
48	140.37688994407654	fix_pre	0		31.0	46.0	2.5	/experiments/knapen_aot/videos/S_yt-t-wpKypNysg_27.mp4	0.0	198.8370680809021	0.25815701484680176
48	140.6269040107727	response	0	2		46.0	2.5	/experiments/knapen_aot/videos/S_yt-t-wpKypNysg_27.mp4	0.0	199.08708214759827	
48	140.63504695892334	movie	1		301.0	46.0	2.5	/experiments/knapen_aot/videos/S_yt-t-wpKypNysg_27.mp4	0.0	199.0952250957489	2.5083529949188232
48	143.14339995384216	fix_post	2		12.0	46.0	2.5	/experiments/knapen_aot/videos/S_yt-t-wpKypNysg_27.mp4	0.0	201.60357809066772	0.1000359058380127
49	143.24343585968018	fix_pre	0		58.0	47.0	2.5	/experiments/knapen_aot/videos/S_yt-OEY9O2MglQM_7.mp4	0.0	201.70361399650574	0.4840061664581299
49	143.71860194206238	response	0	2		47.0	2.5	/experiments/knapen_aot/videos/S_yt-OEY9O2MglQM_7.mp4	0.0	202.17878007888794	
49	143.7274420261383	movie	1		301.0	47.0	2.5	/experiments/knapen_aot/videos/S_yt-OEY9O2MglQM_7.mp4	0.0	202.18762016296387	2.507676839828491
49	146.2351188659668	fix_post	2		12.0	47.0	2.5	/experiments/knapen_aot/videos/S_yt-OEY9O2MglQM_7.mp4	0.0	204.69529700279236	0.10004305839538574
50	146.33516192436218	fix_pre	0		38.0	48.0	2.5	blank	1.0	204.79534006118774	0.3166029453277588
50	146.64354395866394	response	0	2		48.0	2.5	blank	1.0	205.1037220954895	
50	146.65176486968994	movie	1		301.0	48.0	2.5	blank	1.0	205.1119430065155	2.5082900524139404
50	149.16005492210388	fix_post	2		12.0	48.0	2.5	blank	1.0	207.62023305892944	0.10222697257995605
51	149.26228189468384	fix_pre	0		50.0	49.0	2.5	/experiments/knapen_aot/videos/S_yt-2i53vKte7SA_117.mp4	0.0	207.7224600315094	0.41445398330688477
51	149.66104102134705	response	0	2		49.0	2.5	/experiments/knapen_aot/videos/S_yt-2i53vKte7SA_117.mp4	0.0	208.1212191581726	
51	149.67673587799072	movie	1		301.0	49.0	2.5	/experiments/knapen_aot/videos/S_yt-2i53vKte7SA_117.mp4	0.0	208.13691401481628	2.508345127105713
51	152.18508100509644	fix_post	2		12.0	49.0	2.5	/experiments/knapen_aot/videos/S_yt-2i53vKte7SA_117.mp4	0.0	210.645259141922	0.10002398490905762
52	152.2851049900055	fix_pre	0		61.0	50.0	2.5	/experiments/knapen_aot/videos/S_dwi2oPzQ1Wo_48.mp4	0.0	210.74528312683105	0.5083019733428955
52	152.78516602516174	response	0	2		50.0	2.5	/experiments/knapen_aot/videos/S_dwi2oPzQ1Wo_48.mp4	0.0	211.2453441619873	
52	152.7934069633484	movie	1		301.0	50.0	2.5	/experiments/knapen_aot/videos/S_dwi2oPzQ1Wo_48.mp4	0.0	211.25358510017395	2.5085480213165283
52	155.30195498466492	fix_post	2		12.0	50.0	2.5	/experiments/knapen_aot/videos/S_dwi2oPzQ1Wo_48.mp4	0.0	213.76213312149048	0.09978389739990234
53	155.40173888206482	fix_pre	0		46.0	51.0	2.5	/experiments/knapen_aot/videos/S_ILSVRC2015_train_00696000.mp4	0.0	213.86191701889038	0.3833141326904297
53	155.77686405181885	response	0	2		51.0	2.5	/experiments/knapen_aot/videos/S_ILSVRC2015_train_00696000.mp4	0.0	214.2370421886444	
53	155.78505301475525	movie	1		301.0	51.0	2.5	/experiments/knapen_aot/videos/S_ILSVRC2015_train_00696000.mp4	0.0	214.2452311515808	2.508413076400757
53	158.293466091156	fix_post	2		12.0	51.0	2.5	/experiments/knapen_aot/videos/S_ILSVRC2015_train_00696000.mp4	0.0	216.75364422798157	0.0999298095703125
54	158.39339590072632	fix_pre	0		39.0	52.0	2.5	/experiments/knapen_aot/videos/R_S_yt-9CUR6mjzaiY_85.mp4	0.0	216.85357403755188	0.3249380588531494
54	158.71024298667908	response	0	2		52.0	2.5	/experiments/knapen_aot/videos/R_S_yt-9CUR6mjzaiY_85.mp4	0.0	217.17042112350464	
54	158.71833395957947	movie	1		301.0	52.0	2.5	/experiments/knapen_aot/videos/R_S_yt-9CUR6mjzaiY_85.mp4	0.0	217.17851209640503	2.5082900524139404
54	161.2266240119934	fix_post	2		12.0	52.0	2.5	/experiments/knapen_aot/videos/R_S_yt-9CUR6mjzaiY_85.mp4	0.0	219.68680214881897	0.10009193420410156
55	161.3267159461975	fix_pre	0		62.0	53.0	2.5	/experiments/knapen_aot/videos/R_S_ILSVRC2015_train_00415007.mp4	0.0	219.78689408302307	0.5166540145874023
55	161.83511686325073	response	0	2		53.0	2.5	/experiments/knapen_aot/videos/R_S_ILSVRC2015_train_00415007.mp4	0.0	220.2952950000763	
55	161.8433699607849	movie	1		301.0	53.0	2.5	/experiments/knapen_aot/videos/R_S_ILSVRC2015_train_00415007.mp4	0.0	220.30354809761047	2.508302927017212
55	164.35167288780212	fix_post	2		12.0	53.0	2.5	/experiments/knapen_aot/videos/R_S_ILSVRC2015_train_00415007.mp4	0.0	222.81185102462769	0.10001611709594727
56	164.45168900489807	fix_pre	0		40.0	54.0	2.5	/experiments/knapen_aot/videos/S_yt-qYuLW5vSotM_160.mp4	0.0	222.91186714172363	0.33328795433044434
56	164.77674102783203	response	0	2		54.0	2.5	/experiments/knapen_aot/videos/S_yt-qYuLW5vSotM_160.mp4	0.0	223.2369191646576	
56	164.78497695922852	movie	1		300.0	54.0	2.5	/experiments/knapen_aot/videos/S_yt-qYuLW5vSotM_160.mp4	0.0	223.24515509605408	2.5084269046783447
56	167.29340386390686	fix_post	2		12.0	54.0	2.5	/experiments/knapen_aot/videos/S_yt-qYuLW5vSotM_160.mp4	0.0	225.75358200073242	0.09999799728393555
57	167.3934018611908	fix_pre	0		57.0	55.0	2.5	blank	1.0	225.85357999801636	0.4749770164489746
57	167.860200881958	response	0	2		55.0	2.5	blank	1.0	226.32037901878357	
57	167.86837887763977	movie	1		301.0	55.0	2.5	blank	1.0	226.32855701446533	2.5083491802215576
57	170.37672805786133	fix_post	2		12.0	55.0	2.5	blank	1.0	228.8369061946869	0.09993600845336914
58	170.4766640663147	fix_pre	0		30.0	56.0	2.5	/experiments/knapen_aot/videos/S_yt-FMIevUic_XY_50.mp4	0.0	228.93684220314026	0.2506599426269531
58	170.718514919281	response	0	2		56.0	2.5	/experiments/knapen_aot/videos/S_yt-FMIevUic_XY_50.mp4	0.0	229.17869305610657	
58	170.72732400894165	movie	1		301.0	56.0	2.5	/experiments/knapen_aot/videos/S_yt-FMIevUic_XY_50.mp4	0.0	229.1875021457672	2.507652997970581
58	173.23497700691223	fix_post	2		12.0	56.0	2.5	/experiments/knapen_aot/videos/S_yt-FMIevUic_XY_50.mp4	0.0	231.6951551437378	0.09999799728393555
59	173.33497500419617	fix_pre	0		52.0	57.0	2.5	/experiments/knapen_aot/videos/S_yt-PaxmJhMoP3w_87.mp4	0.0	231.79515314102173	0.43388795852661133
59	173.76013708114624	response	0	2		57.0	2.5	/experiments/knapen_aot/videos/S_yt-PaxmJhMoP3w_87.mp4	0.0	232.2203152179718	
59	173.76886296272278	movie	1		301.0	57.0	2.5	/experiments/knapen_aot/videos/S_yt-PaxmJhMoP3w_87.mp4	0.0	232.22904109954834	2.507828950881958
59	176.27669191360474	fix_post	2		12.0	57.0	2.5	/experiments/knapen_aot/videos/S_yt-PaxmJhMoP3w_87.mp4	0.0	234.7368700504303	0.09998607635498047
60	176.37667798995972	fix_pre	0		35.0	58.0	2.5	/experiments/knapen_aot/videos/R_S_yt-o0Hbe7kcPps_70.mp4	0.0	234.83685612678528	0.29162096977233887
60	176.66010189056396	response	0	2		58.0	2.5	/experiments/knapen_aot/videos/R_S_yt-o0Hbe7kcPps_70.mp4	0.0	235.12028002738953	
60	176.66829895973206	movie	1		301.0	58.0	2.5	/experiments/knapen_aot/videos/R_S_yt-o0Hbe7kcPps_70.mp4	0.0	235.12847709655762	2.5082271099090576
60	179.1765260696411	fix_post	2		12.0	58.0	2.5	/experiments/knapen_aot/videos/R_S_yt-o0Hbe7kcPps_70.mp4	0.0	237.63670420646667	0.10016584396362305
61	179.27669191360474	fix_pre	0		21.0	59.0	2.5	/experiments/knapen_aot/videos/R_S_yt-9Ow95khYa_M_91.mp4	0.0	237.7368700504303	0.17491817474365234
61	179.44348907470703	response	0	2		59.0	2.5	/experiments/knapen_aot/videos/R_S_yt-9Ow95khYa_M_91.mp4	0.0	237.9036672115326	
61	179.4516100883484	movie	1		301.0	59.0	2.5	/experiments/knapen_aot/videos/R_S_yt-9Ow95khYa_M_91.mp4	0.0	237.91178822517395	2.5083138942718506
61	181.95992398262024	fix_post	2		12.0	59.0	2.5	/experiments/knapen_aot/videos/R_S_yt-9Ow95khYa_M_91.mp4	0.0	240.4201021194458	0.10004806518554688
62	182.0599720478058	fix_pre	0		20.0	60.0	2.5	/experiments/knapen_aot/videos/R_S_ILSVRC2015_train_00743001.mp4	0.0	240.52015018463135	0.16710996627807617
62	182.2184579372406	response	0	2		60.0	2.5	/experiments/knapen_aot/videos/R_S_ILSVRC2015_train_00743001.mp4	0.0	240.67863607406616	
62	182.22708201408386	movie	1		301.0	60.0	2.5	/experiments/knapen_aot/videos/R_S_ILSVRC2015_train_00743001.mp4	0.0	240.68726015090942	2.507930040359497
62	184.73501205444336	fix_post	2		12.0	60.0	2.5	/experiments/knapen_aot/videos/R_S_ILSVRC2015_train_00743001.mp4	0.0	243.19519019126892	0.09989690780639648
63	184.83490896224976	fix_pre	0		31.0	61.0	2.5	/experiments/knapen_aot/videos/R_S_yt-2i53vKte7SA_117.mp4	0.0	243.29508709907532	0.2583470344543457
63	185.08507895469666	response	0	2		61.0	2.5	/experiments/knapen_aot/videos/R_S_yt-2i53vKte7SA_117.mp4	0.0	243.54525709152222	
63	185.0932559967041	movie	1		301.0	61.0	2.5	/experiments/knapen_aot/videos/R_S_yt-2i53vKte7SA_117.mp4	0.0	243.55343413352966	2.5083630084991455
63	187.60161900520325	fix_post	2		12.0	61.0	2.5	/experiments/knapen_aot/videos/R_S_yt-2i53vKte7SA_117.mp4	0.0	246.0617971420288	0.1000058650970459
64	187.7016248703003	fix_pre	0		24.0	62.0	2.5	blank	1.0	246.16180300712585	0.19997501373291016
64	187.89336895942688	response	0	2		62.0	2.5	blank	1.0	246.35354709625244	
64	187.9015998840332	movie	1		301.0	62.0	2.5	blank	1.0	246.36177802085876	2.508371114730835
64	190.40997099876404	fix_post	2		12.0	62.0	2.5	blank	1.0	248.8701491355896	0.0999300479888916
65	190.50990104675293	fix_pre	0		44.0	63.0	2.5	/experiments/knapen_aot/videos/S_yt-qYuLW5vSotM_160.mp4	0.0	248.9700791835785	0.36667299270629883
65	190.86082291603088	response	0	2		63.0	2.5	/experiments/knapen_aot/videos/S_yt-qYuLW5vSotM_160.mp4	0.0	249.32100105285645	
65	190.87657403945923	movie	1		301.0	63.0	2.5	/experiments/knapen_aot/videos/S_yt-qYuLW5vSotM_160.mp4	0.0	249.3367521762848	2.5082929134368896
65	193.38486695289612	fix_post	2		12.0	63.0	2.5	/experiments/knapen_aot/videos/S_yt-qYuLW5vSotM_160.mp4	0.0	251.84504508972168	0.10004711151123047
66	193.48491406440735	fix_pre	0		82.0	64.0	2.5	/experiments/knapen_aot/videos/S_yt-GbL63AmOIss_116.mp4	0.0	251.9450922012329	0.6833169460296631
66	194.16002297401428	response	0	2		64.0	2.5	/experiments/knapen_aot/videos/S_yt-GbL63AmOIss_116.mp4	0.0	252.62020111083984	
66	194.168231010437	movie	1		301.0	64.0	2.5	/experiments/knapen_aot/videos/S_yt-GbL63AmOIss_116.mp4	0.0	252.62840914726257	2.5083189010620117
66	196.67654991149902	fix_post	2		12.0	64.0	2.5	/experiments/knapen_aot/videos/S_yt-GbL63AmOIss_116.mp4	0.0	255.13672804832458	0.09994912147521973
67	196.77649903297424	fix_pre	0		67.0	65.0	2.5	/experiments/knapen_aot/videos/R_S_yt-i3-YlGenYmk_411.mp4	0.0	255.2366771697998	0.5583839416503906
67	197.32661890983582	response	0	2		65.0	2.5	/experiments/knapen_aot/videos/R_S_yt-i3-YlGenYmk_411.mp4	0.0	255.78679704666138	
67	197.33488297462463	movie	1		301.0	65.0	2.5	/experiments/knapen_aot/videos/R_S_yt-i3-YlGenYmk_411.mp4	0.0	255.7950611114502	2.5083301067352295
67	199.84321308135986	fix_post	2		12.0	65.0	2.5	/experiments/knapen_aot/videos/R_S_yt-i3-YlGenYmk_411.mp4	0.0	258.3033912181854	0.0999608039855957
68	199.94317388534546	fix_pre	0		38.0	66.0	2.5	/experiments/knapen_aot/videos/R_S_yt-fjOsq03OC2c_188.mp4	0.0	258.403352022171	0.3166999816894531
68	200.25168108940125	response	0	2		66.0	2.5	/experiments/knapen_aot/videos/R_S_yt-fjOsq03OC2c_188.mp4	0.0	258.7118592262268	
68	200.2598738670349	movie	1		301.0	66.0	2.5	/experiments/knapen_aot/videos/R_S_yt-fjOsq03OC2c_188.mp4	0.0	258.7200520038605	2.508305072784424
68	202.76817893981934	fix_post	2		12.0	66.0	2.5	/experiments/knapen_aot/videos/R_S_yt-fjOsq03OC2c_188.mp4	0.0	261.2283570766449	0.09998703002929688
69	202.86816596984863	fix_pre	0		39.0	67.0	2.5	/experiments/knapen_aot/videos/S_b2-4.mp4	0.0	261.3283441066742	0.325023889541626
69	203.18501687049866	response	0	2		67.0	2.5	/experiments/knapen_aot/videos/S_b2-4.mp4	0.0	261.6451950073242	
69	203.19318985939026	movie	1		163.0	67.0	2.5	/experiments/knapen_aot/videos/S_b2-4.mp4	0.0	261.6533679962158	2.508334159851074
69	205.70152401924133	fix_post	2		12.0	67.0	2.5	/experiments/knapen_aot/videos/S_b2-4.mp4	0.0	264.1617021560669	0.09998798370361328
70	205.80151200294495	fix_pre	0		41.0	68.0	2.5	/experiments/knapen_aot/videos/S_yt-PCSXJ5YB_AE_3.mp4	0.0	264.2616901397705	0.3419809341430664
70	206.13515090942383	response	0	2		68.0	2.5	/experiments/knapen_aot/videos/S_yt-PCSXJ5YB_AE_3.mp4	0.0	264.5953290462494	
70	206.143492937088	movie	1		301.0	68.0	2.5	/experiments/knapen_aot/videos/S_yt-PCSXJ5YB_AE_3.mp4	0.0	264.6036710739136	2.507997989654541
70	208.65149092674255	fix_post	2		12.0	68.0	2.5	/experiments/knapen_aot/videos/S_yt-PCSXJ5YB_AE_3.mp4	0.0	267.1116690635681	0.09998607635498047
71	208.75147700309753	fix_pre	0		54.0	69.0	2.5	/experiments/knapen_aot/videos/R_S_Pexels_Videos_2795737.mp4	0.0	267.2116551399231	0.4499800205230713
71	209.19323301315308	response	0	2		69.0	2.5	/experiments/knapen_aot/videos/R_S_Pexels_Videos_2795737.mp4	0.0	267.65341114997864	
71	209.2014570236206	movie	1		164.0	69.0	2.5	/experiments/knapen_aot/videos/R_S_Pexels_Videos_2795737.mp4	0.0	267.66163516044617	2.508316993713379
71	211.70977401733398	fix_post	2		12.0	69.0	2.5	/experiments/knapen_aot/videos/R_S_Pexels_Videos_2795737.mp4	0.0	270.16995215415955	0.10038304328918457
72	211.81015706062317	fix_pre	0		26.0	70.0	2.5	blank	1.0	270.27033519744873	0.21629881858825684
72	212.01826286315918	response	0	2		70.0	2.5	blank	1.0	270.47844099998474	
72	212.02645587921143	movie	1		301.0	70.0	2.5	blank	1.0	270.486634016037	2.5082921981811523
72	214.53474807739258	fix_post	2		12.0	70.0	2.5	blank	1.0	272.99492621421814	0.10004186630249023
73	214.63478994369507	fix_pre	0		34.0	71.0	2.5	/experiments/knapen_aot/videos/S_ILSVRC2015_train_00303008.mp4	0.0	273.09496808052063	0.2863900661468506
73	214.90999603271484	response	0	2		71.0	2.5	/experiments/knapen_aot/videos/S_ILSVRC2015_train_00303008.mp4	0.0	273.3701741695404	
73	214.92118000984192	movie	1		301.0	71.0	2.5	/experiments/knapen_aot/videos/S_ILSVRC2015_train_00303008.mp4	0.0	273.3813581466675	2.5051989555358887
73	217.4263789653778	fix_post	2		12.0	71.0	2.5	/experiments/knapen_aot/videos/S_ILSVRC2015_train_00303008.mp4	0.0	275.88655710220337	0.10007691383361816
74	217.52645587921143	fix_pre	0		18.0	72.0	2.5	/experiments/knapen_aot/videos/R_S_yt-074ygGXNoQ8_64.mp4	0.0	275.986634016037	0.1499931812286377
74	217.6682949066162	response	0	2		72.0	2.5	/experiments/knapen_aot/videos/R_S_yt-074ygGXNoQ8_64.mp4	0.0	276.1284730434418	
74	217.67644906044006	movie	1		301.0	72.0	2.5	/experiments/knapen_aot/videos/R_S_yt-074ygGXNoQ8_64.mp4	0.0	276.1366271972656	2.5083229541778564
74	220.18477201461792	fix_post	2		12.0	72.0	2.5	/experiments/knapen_aot/videos/R_S_yt-074ygGXNoQ8_64.mp4	0.0	278.6449501514435	0.09994101524353027
75	220.28471302986145	fix_pre	0		19.0	73.0	2.5	/experiments/knapen_aot/videos/R_S_ILSVRC2015_train_00444000.mp4	0.0	278.744891166687	0.1583409309387207
75	220.43492197990417	response	0	2		73.0	2.5	/experiments/knapen_aot/videos/R_S_ILSVRC2015_train_00444000.mp4	0.0	278.89510011672974	
75	220.44305396080017	movie	1		301.0	73.0	2.5	/experiments/knapen_aot/videos/R_S_ILSVRC2015_train_00444000.mp4	0.0	278.90323209762573	2.5084619522094727
75	222.95151591300964	fix_post	2		12.0	73.0	2.5	/experiments/knapen_aot/videos/R_S_ILSVRC2015_train_00444000.mp4	0.0	281.4116940498352	0.09993505477905273
76	223.0514509677887	fix_pre	0		33.0	74.0	2.5	/experiments/knapen_aot/videos/S_yt-2ftSsLqRQnA_84.mp4	0.0	281.51162910461426	0.274960994720459
76	223.31820702552795	response	0	2		74.0	2.5	/experiments/knapen_aot/videos/S_yt-2ftSsLqRQnA_84.mp4	0.0	281.7783851623535	
76	223.32641196250916	movie	1		301.0	74.0	2.5	/experiments/knapen_aot/videos/S_yt-2ftSsLqRQnA_84.mp4	0.0	281.7865900993347	2.50827693939209
76	225.83468890190125	fix_post	2		12.0	74.0	2.5	/experiments/knapen_aot/videos/S_yt-2ftSsLqRQnA_84.mp4	0.0	284.2948670387268	0.10026097297668457
77	225.93494987487793	fix_pre	0		21.0	75.0	2.5	blank	1.0	284.3951280117035	0.17469406127929688
77	226.10155606269836	response	0	2		75.0	2.5	blank	1.0	284.5617341995239	
77	226.10964393615723	movie	1		301.0	75.0	2.5	blank	1.0	284.5698220729828	2.5083250999450684
77	228.6179690361023	fix_post	2		12.0	75.0	2.5	blank	1.0	287.07814717292786	0.10010886192321777
78	228.7180778980255	fix_pre	0		58.0	76.0	2.5	/experiments/knapen_aot/videos/R_S_yt-KLInd-KrK_w_19.mp4	0.0	287.1782560348511	0.48331308364868164
78	229.19315099716187	response	0	2		76.0	2.5	/experiments/knapen_aot/videos/R_S_yt-KLInd-KrK_w_19.mp4	0.0	287.6533291339874	
78	229.2013909816742	movie	1		301.0	76.0	2.5	/experiments/knapen_aot/videos/R_S_yt-KLInd-KrK_w_19.mp4	0.0	287.66156911849976	2.5083138942718506
78	231.70970487594604	fix_post	2		12.0	76.0	2.5	/experiments/knapen_aot/videos/R_S_yt-KLInd-KrK_w_19.mp4	0.0	290.1698830127716	0.10021615028381348
79	231.80992102622986	fix_pre	0		25.0	77.0	2.5	/experiments/knapen_aot/videos/S_P005_C002_UHD_SDR_2K_AVC.mp4	0.0	290.2700991630554	0.20826292037963867
79	232.00977396965027	response	0	2		77.0	2.5	/experiments/knapen_aot/videos/S_P005_C002_UHD_SDR_2K_AVC.mp4	0.0	290.46995210647583	
79	232.0181839466095	movie	1		167.0	77.0	2.5	/experiments/knapen_aot/videos/S_P005_C002_UHD_SDR_2K_AVC.mp4	0.0	290.47836208343506	2.5081300735473633
79	234.52631402015686	fix_post	2		12.0	77.0	2.5	/experiments/knapen_aot/videos/S_P005_C002_UHD_SDR_2K_AVC.mp4	0.0	292.9864921569824	0.10006499290466309
80	234.62637901306152	fix_pre	0		53.0	78.0	2.5	/experiments/knapen_aot/videos/S_flickr-clarkstonscamp-4863427159_1.mp4	0.0	293.0865571498871	0.441648006439209
80	235.05983996391296	response	0	2		78.0	2.5	/experiments/knapen_aot/videos/S_flickr-clarkstonscamp-4863427159_1.mp4	0.0	293.5200181007385	
80	235.06802701950073	movie	1		301.0	78.0	2.5	/experiments/knapen_aot/videos/S_flickr-clarkstonscamp-4863427159_1.mp4	0.0	293.5282051563263	2.5083930492401123
80	237.57642006874084	fix_post	2		12.0	78.0	2.5	/experiments/knapen_aot/videos/S_flickr-clarkstonscamp-4863427159_1.mp4	0.0	296.0365982055664	0.09987401962280273
81	237.67629408836365	fix_pre	0		85.0	79.0	2.5	/experiments/knapen_aot/videos/R_S_yt-hvuC_2YXsTQ_159.mp4	0.0	296.1364722251892	0.7083277702331543
81	238.37652397155762	response	0	2		79.0	2.5	/experiments/knapen_aot/videos/R_S_yt-hvuC_2YXsTQ_159.mp4	0.0	296.8367021083832	
81	238.3846218585968	movie	1		301.0	79.0	2.5	/experiments/knapen_aot/videos/R_S_yt-hvuC_2YXsTQ_159.mp4	0.0	296.84479999542236	2.5084240436553955
81	240.8930459022522	fix_post	2		12.0	79.0	2.5	/experiments/knapen_aot/videos/R_S_yt-hvuC_2YXsTQ_159.mp4	0.0	299.35322403907776	0.09995007514953613
82	240.99299597740173	fix_pre	0		34.0	80.0	2.5	/experiments/knapen_aot/videos/R_S_ILSVRC2015_train_00405000.mp4	0.0	299.4531741142273	0.28331804275512695
82	241.2682409286499	response	0	2		80.0	2.5	/experiments/knapen_aot/videos/R_S_ILSVRC2015_train_00405000.mp4	0.0	299.72841906547546	
82	241.27631402015686	movie	1		301.0	80.0	2.5	/experiments/knapen_aot/videos/R_S_ILSVRC2015_train_00405000.mp4	0.0	299.7364921569824	2.508391857147217
82	243.78470587730408	fix_post	2		12.0	80.0	2.5	/experiments/knapen_aot/videos/R_S_ILSVRC2015_train_00405000.mp4	0.0	302.24488401412964	0.09994316101074219
83	243.88464903831482	fix_pre	0		18.0	81.0	2.5	/experiments/knapen_aot/videos/R_S_yt-mDil5vGZb14_4049.mp4	0.0	302.3448271751404	0.14996099472045898
83	244.02646589279175	response	0	2		81.0	2.5	/experiments/knapen_aot/videos/R_S_yt-mDil5vGZb14_4049.mp4	0.0	302.4866440296173	
83	244.03461003303528	movie	1		301.0	81.0	2.5	/experiments/knapen_aot/videos/R_S_yt-mDil5vGZb14_4049.mp4	0.0	302.49478816986084	2.5083889961242676
83	246.54299902915955	fix_post	2		12.0	81.0	2.5	/experiments/knapen_aot/videos/R_S_yt-mDil5vGZb14_4049.mp4	0.0	305.0031771659851	0.10011506080627441
84	246.64311408996582	fix_pre	0		30.0	82.0	2.5	/experiments/knapen_aot/videos/S_yt-BW6jWEVbxxk_4.mp4	0.0	305.1032922267914	0.2499709129333496
84	246.88482809066772	response	0	2		82.0	2.5	/experiments/knapen_aot/videos/S_yt-BW6jWEVbxxk_4.mp4	0.0	305.3450062274933	
84	246.89308500289917	movie	1		301.0	82.0	2.5	/experiments/knapen_aot/videos/S_yt-BW6jWEVbxxk_4.mp4	0.0	305.35326313972473	2.5082168579101562
84	249.40130186080933	fix_post	2		12.0	82.0	2.5	/experiments/knapen_aot/videos/S_yt-BW6jWEVbxxk_4.mp4	0.0	307.8614799976349	0.10006403923034668
85	249.50136590003967	fix_pre	0		51.0	83.0	2.5	blank	1.0	307.96154403686523	0.42493414878845215
85	249.9180450439453	response	0	2		83.0	2.5	blank	1.0	308.3782231807709	
85	249.92630004882812	movie	1		301.0	83.0	2.5	blank	1.0	308.3864781856537	2.50849986076355
85	252.43479990959167	fix_post	2		12.0	83.0	2.5	blank	1.0	310.89497804641724	0.09981513023376465
87	252.53461503982544	stim	0		122.0					310.994793176651	1.0181539058685303
87	253.54756689071655	response	0	space						312.0077450275421	
