trial_nr	onset	event_type	phase	response	nr_frames	movie_index	movie_duration	movie_file	blank	onset_abs	duration
0	0.12953805923461914	stim	0		87.0					359.7197232246399	0.7245690822601318
0	0.8463261127471924	response	0	space						360.43651127815247	
1	0.854107141494751	stim	0		121.0					360.4442923069	1.0085389614105225
1	1.8626461029052734	stim	1		120.0					361.45283126831055	0.9995970726013184
1	2.124601125717163	response	1	2						361.71478629112244	
2	2.862243175506592	fix_pre	0		14.0	0.0	2.5	/experiments/knapen_aot/videos/R_S_production_ID_3967181.mp4	0.0	362.45242834091187	0.11654782295227051
2	2.974091053009033	response	0	space		0.0	2.5	/experiments/knapen_aot/videos/R_S_production_ID_3967181.mp4	0.0	362.5642762184143	
2	2.9787909984588623	movie	1		208.0	0.0	2.5	/experiments/knapen_aot/videos/R_S_production_ID_3967181.mp4	0.0	362.56897616386414	2.5083301067352295
2	5.487121105194092	fix_post	2		12.0	0.0	2.5	/experiments/knapen_aot/videos/R_S_production_ID_3967181.mp4	0.0	365.07730627059937	0.10006189346313477
3	5.587182998657227	fix_pre	0		32.0	1.0	2.5	/experiments/knapen_aot/videos/S_production_ID_4154238.mp4	0.0	365.1773681640625	0.26662516593933105
3	5.848292112350464	response	0	2		1.0	2.5	/experiments/knapen_aot/videos/S_production_ID_4154238.mp4	0.0	365.43847727775574	
3	5.853808164596558	movie	1		199.0	1.0	2.5	/experiments/knapen_aot/videos/S_production_ID_4154238.mp4	0.0	365.44399333000183	2.5083959102630615
3	8.36220407485962	fix_post	2		12.0	1.0	2.5	/experiments/knapen_aot/videos/S_production_ID_4154238.mp4	0.0	367.9523892402649	0.10002303123474121
4	8.46222710609436	fix_pre	0		204.0	2.0	2.5	/experiments/knapen_aot/videos/S_yt-hvuC_2YXsTQ_159.mp4	0.0	368.05241227149963	1.699873924255371
4	10.153834104537964	response	0	2		2.0	2.5	/experiments/knapen_aot/videos/S_yt-hvuC_2YXsTQ_159.mp4	0.0	369.74401926994324	
4	10.162101030349731	movie	1		301.0	2.0	2.5	/experiments/knapen_aot/videos/S_yt-hvuC_2YXsTQ_159.mp4	0.0	369.752286195755	2.5084481239318848
4	12.670549154281616	fix_post	2		12.0	2.0	2.5	/experiments/knapen_aot/videos/S_yt-hvuC_2YXsTQ_159.mp4	0.0	372.2607343196869	0.09994697570800781
4	12.74555516242981	response	2	2		2.0	2.5	/experiments/knapen_aot/videos/S_yt-hvuC_2YXsTQ_159.mp4	0.0	372.3357403278351	
5	12.770496129989624	fix_pre	0		91.0	3.0	2.5	/experiments/knapen_aot/videos/S_pexels-mart-production-8435081.mp4	0.0	372.3606812953949	0.7582368850708008
5	13.520572185516357	response	0	2		3.0	2.5	/experiments/knapen_aot/videos/S_pexels-mart-production-8435081.mp4	0.0	373.11075735092163	
5	13.528733015060425	movie	1		196.0	3.0	2.5	/experiments/knapen_aot/videos/S_pexels-mart-production-8435081.mp4	0.0	373.1189181804657	2.5083861351013184
5	16.037119150161743	fix_post	2		12.0	3.0	2.5	/experiments/knapen_aot/videos/S_pexels-mart-production-8435081.mp4	0.0	375.627304315567	0.1000509262084961
6	16.13717007637024	fix_pre	0		2.0	4.0	2.5	/experiments/knapen_aot/videos/R_S_yt-TBY8F6UMnJQ_51.mp4	0.0	375.7273552417755	0.016643047332763672
6	16.14564609527588	response	0	2		4.0	2.5	/experiments/knapen_aot/videos/R_S_yt-TBY8F6UMnJQ_51.mp4	0.0	375.73583126068115	
6	16.153813123703003	movie	1		301.0	4.0	2.5	/experiments/knapen_aot/videos/R_S_yt-TBY8F6UMnJQ_51.mp4	0.0	375.7439982891083	2.5083320140838623
6	18.662145137786865	fix_post	2		12.0	4.0	2.5	/experiments/knapen_aot/videos/R_S_yt-TBY8F6UMnJQ_51.mp4	0.0	378.25233030319214	0.10017085075378418
7	18.76231598854065	fix_pre	0		5.0	5.0	2.5	/experiments/knapen_aot/videos/R_S_yt-g_CLzrCYHoc_7.mp4	0.0	378.3525011539459	0.041383981704711914
7	18.795552015304565	response	0	2		5.0	2.5	/experiments/knapen_aot/videos/R_S_yt-g_CLzrCYHoc_7.mp4	0.0	378.38573718070984	
7	18.80369997024536	movie	1		301.0	5.0	2.5	/experiments/knapen_aot/videos/R_S_yt-g_CLzrCYHoc_7.mp4	0.0	378.39388513565063	2.508388042449951
7	21.312088012695312	fix_post	2		12.0	5.0	2.5	/experiments/knapen_aot/videos/R_S_yt-g_CLzrCYHoc_7.mp4	0.0	380.9022731781006	0.10002493858337402
8	21.412112951278687	fix_pre	0		2.0	6.0	2.5	blank	1.0	381.00229811668396	0.016634225845336914
8	21.420680046081543	response	0	2		6.0	2.5	blank	1.0	381.0108652114868	
8	21.428747177124023	movie	1		301.0	6.0	2.5	blank	1.0	381.0189323425293	2.508380889892578
8	23.9371280670166	fix_post	2		12.0	6.0	2.5	blank	1.0	383.5273132324219	0.10007810592651367
9	24.037206172943115	fix_pre	0		13.0	7.0	2.5	/experiments/knapen_aot/videos/S_yt-RVoC19C420Y_27.mp4	0.0	383.6273913383484	0.10819482803344727
9	24.137158155441284	response	0	2		7.0	2.5	/experiments/knapen_aot/videos/S_yt-RVoC19C420Y_27.mp4	0.0	383.72734332084656	
9	24.145401000976562	movie	1		301.0	7.0	2.5	/experiments/knapen_aot/videos/S_yt-RVoC19C420Y_27.mp4	0.0	383.73558616638184	2.508622169494629
9	26.65402317047119	fix_post	2		12.0	7.0	2.5	/experiments/knapen_aot/videos/S_yt-RVoC19C420Y_27.mp4	0.0	386.24420833587646	0.09975981712341309
10	26.753782987594604	fix_pre	0		30.0	8.0	2.5	/experiments/knapen_aot/videos/R_S_ga8dBJH_qK8_765.mp4	0.0	386.3439681529999	0.2500650882720947
10	26.995565176010132	response	0	2		8.0	2.5	/experiments/knapen_aot/videos/R_S_ga8dBJH_qK8_765.mp4	0.0	386.5857503414154	
10	27.0038480758667	movie	1		301.0	8.0	2.5	/experiments/knapen_aot/videos/R_S_ga8dBJH_qK8_765.mp4	0.0	386.594033241272	2.5082569122314453
10	29.512104988098145	fix_post	2		12.0	8.0	2.5	/experiments/knapen_aot/videos/R_S_ga8dBJH_qK8_765.mp4	0.0	389.1022901535034	0.0999150276184082
10	29.59546399116516	response	2	2		8.0	2.5	/experiments/knapen_aot/videos/R_S_ga8dBJH_qK8_765.mp4	0.0	389.18564915657043	
11	29.612020015716553	fix_pre	0		53.0	9.0	2.5	/experiments/knapen_aot/videos/R_S_yt-NQSCGMpo-p8_118.mp4	0.0	389.2022051811218	0.44173407554626465
11	30.045525074005127	response	0	2		9.0	2.5	/experiments/knapen_aot/videos/R_S_yt-NQSCGMpo-p8_118.mp4	0.0	389.6357102394104	
11	30.053754091262817	movie	1		301.0	9.0	2.5	/experiments/knapen_aot/videos/R_S_yt-NQSCGMpo-p8_118.mp4	0.0	389.6439392566681	2.5084359645843506
11	32.56219005584717	fix_post	2		12.0	9.0	2.5	/experiments/knapen_aot/videos/R_S_yt-NQSCGMpo-p8_118.mp4	0.0	392.15237522125244	0.09992599487304688
12	32.662116050720215	fix_pre	0		6.0	10.0	2.5	/experiments/knapen_aot/videos/S_ILSVRC2015_train_00446000.mp4	0.0	392.2523012161255	0.049974918365478516
12	32.70382118225098	response	0	2		10.0	2.5	/experiments/knapen_aot/videos/S_ILSVRC2015_train_00446000.mp4	0.0	392.29400634765625	
12	32.71209096908569	movie	1		301.0	10.0	2.5	/experiments/knapen_aot/videos/S_ILSVRC2015_train_00446000.mp4	0.0	392.30227613449097	2.508315086364746
12	35.22040605545044	fix_post	2		12.0	10.0	2.5	/experiments/knapen_aot/videos/S_ILSVRC2015_train_00446000.mp4	0.0	394.8105912208557	0.10000205039978027
13	35.32040810585022	fix_pre	0		11.0	11.0	2.5	/experiments/knapen_aot/videos/S_yt-P8vJa4YVcGU_488.mp4	0.0	394.9105932712555	0.09161806106567383
13	35.39640998840332	response	0	2		11.0	2.5	/experiments/knapen_aot/videos/S_yt-P8vJa4YVcGU_488.mp4	0.0	394.9865951538086	
13	35.412026166915894	movie	1		301.0	11.0	2.5	/experiments/knapen_aot/videos/S_yt-P8vJa4YVcGU_488.mp4	0.0	395.00221133232117	2.5083727836608887
13	37.92039895057678	fix_post	2		12.0	11.0	2.5	/experiments/knapen_aot/videos/S_yt-P8vJa4YVcGU_488.mp4	0.0	397.51058411598206	0.09989023208618164
14	38.020289182662964	fix_pre	0		15.0	12.0	2.5	blank	1.0	397.61047434806824	0.12520098686218262
14	38.13712811470032	response	0	2		12.0	2.5	blank	1.0	397.7273132801056	
14	38.14549016952515	movie	1		301.0	12.0	2.5	blank	1.0	397.7356753349304	2.5082249641418457
14	40.65371513366699	fix_post	2		12.0	12.0	2.5	blank	1.0	400.24390029907227	0.09998393058776855
15	40.75369906425476	fix_pre	0		22.0	13.0	2.5	/experiments/knapen_aot/videos/S_yt-UPgF4YAHBQY_33.mp4	0.0	400.34388422966003	0.1833350658416748
15	40.92873501777649	response	0	2		13.0	2.5	/experiments/knapen_aot/videos/S_yt-UPgF4YAHBQY_33.mp4	0.0	400.51892018318176	
15	40.937034130096436	movie	1		301.0	13.0	2.5	/experiments/knapen_aot/videos/S_yt-UPgF4YAHBQY_33.mp4	0.0	400.5272192955017	2.50849986076355
15	43.445533990859985	fix_post	2		12.0	13.0	2.5	/experiments/knapen_aot/videos/S_yt-UPgF4YAHBQY_33.mp4	0.0	403.03571915626526	0.09982013702392578
16	43.54535412788391	fix_pre	0		9.0	14.0	2.5	/experiments/knapen_aot/videos/S_video-3.mp4	0.0	403.1355392932892	0.07494997978210449
16	43.61203217506409	response	0	2		14.0	2.5	/experiments/knapen_aot/videos/S_video-3.mp4	0.0	403.20221734046936	
16	43.620304107666016	movie	1		164.0	14.0	2.5	/experiments/knapen_aot/videos/S_video-3.mp4	0.0	403.2104892730713	2.50838303565979
16	46.128687143325806	fix_post	2		12.0	14.0	2.5	/experiments/knapen_aot/videos/S_video-3.mp4	0.0	405.7188723087311	0.09996700286865234
16	46.22047996520996	response	2	2		14.0	2.5	/experiments/knapen_aot/videos/S_video-3.mp4	0.0	405.81066513061523	
17	46.22865414619446	fix_pre	0		52.0	15.0	2.5	/experiments/knapen_aot/videos/S_ILSVRC2015_train_00017007.mp4	0.0	405.81883931159973	0.4333198070526123
17	46.653778076171875	response	0	2		15.0	2.5	/experiments/knapen_aot/videos/S_ILSVRC2015_train_00017007.mp4	0.0	406.24396324157715	
17	46.66197395324707	movie	1		301.0	15.0	2.5	/experiments/knapen_aot/videos/S_ILSVRC2015_train_00017007.mp4	0.0	406.25215911865234	2.5088140964508057
17	49.170788049697876	fix_post	2		12.0	15.0	2.5	/experiments/knapen_aot/videos/S_ILSVRC2015_train_00017007.mp4	0.0	408.76097321510315	0.09962892532348633
18	49.27041697502136	fix_pre	0		14.0	16.0	2.5	/experiments/knapen_aot/videos/S_yt-11S5tcT2Tm0_254.mp4	0.0	408.86060214042664	0.11772799491882324
18	49.37878108024597	response	0	2		16.0	2.5	/experiments/knapen_aot/videos/S_yt-11S5tcT2Tm0_254.mp4	0.0	408.96896624565125	
18	49.388144969940186	movie	1		301.0	16.0	2.5	/experiments/knapen_aot/videos/S_yt-11S5tcT2Tm0_254.mp4	0.0	408.97833013534546	2.507256031036377
18	51.89540100097656	fix_post	2		12.0	16.0	2.5	/experiments/knapen_aot/videos/S_yt-11S5tcT2Tm0_254.mp4	0.0	411.48558616638184	0.09998416900634766
19	51.99538516998291	fix_pre	0		11.0	17.0	2.5	/experiments/knapen_aot/videos/R_S_yt-wPXrAuiiRZg_1062.mp4	0.0	411.5855703353882	0.09163689613342285
19	52.078739166259766	response	0	2		17.0	2.5	/experiments/knapen_aot/videos/R_S_yt-wPXrAuiiRZg_1062.mp4	0.0	411.66892433166504	
19	52.08702206611633	movie	1		301.0	17.0	2.5	/experiments/knapen_aot/videos/R_S_yt-wPXrAuiiRZg_1062.mp4	0.0	411.6772072315216	2.508336067199707
19	54.59535813331604	fix_post	2		12.0	17.0	2.5	/experiments/knapen_aot/videos/R_S_yt-wPXrAuiiRZg_1062.mp4	0.0	414.1855432987213	0.09996390342712402
20	54.695322036743164	fix_pre	0		3.0	18.0	2.5	/experiments/knapen_aot/videos/S_ILSVRC2015_train_00563000.mp4	0.0	414.28550720214844	0.026029109954833984
20	54.71210503578186	response	0	2		18.0	2.5	/experiments/knapen_aot/videos/S_ILSVRC2015_train_00563000.mp4	0.0	414.30229020118713	
20	54.721351146698	movie	1		301.0	18.0	2.5	/experiments/knapen_aot/videos/S_ILSVRC2015_train_00563000.mp4	0.0	414.31153631210327	2.5075438022613525
20	57.12877917289734	response	1	2		18.0	2.5	/experiments/knapen_aot/videos/S_ILSVRC2015_train_00563000.mp4	0.0	416.7189643383026	
20	57.22889494895935	fix_post	2		12.0	18.0	2.5	/experiments/knapen_aot/videos/S_ILSVRC2015_train_00563000.mp4	0.0	416.8190801143646	0.09991812705993652
21	57.32881307601929	fix_pre	0		46.0	19.0	2.5	blank	1.0	416.91899824142456	0.38313889503479004
21	57.703742027282715	response	0	2		19.0	2.5	blank	1.0	417.293927192688	
21	57.71195197105408	movie	1		301.0	19.0	2.5	blank	1.0	417.30213713645935	2.508376121520996
21	60.22032809257507	fix_post	2		12.0	19.0	2.5	blank	1.0	419.81051325798035	0.09996795654296875
22	60.32029604911804	fix_pre	0		64.0	20.0	2.5	/experiments/knapen_aot/videos/R_S_yt-UzWRbs9Syf4_7.mp4	0.0	419.9104812145233	0.533257007598877
22	60.84538197517395	response	0	2		20.0	2.5	/experiments/knapen_aot/videos/R_S_yt-UzWRbs9Syf4_7.mp4	0.0	420.4355671405792	
22	60.85355305671692	movie	1		301.0	20.0	2.5	/experiments/knapen_aot/videos/R_S_yt-UzWRbs9Syf4_7.mp4	0.0	420.4437382221222	2.50846004486084
22	63.06212496757507	response	1	2		20.0	2.5	/experiments/knapen_aot/videos/R_S_yt-UzWRbs9Syf4_7.mp4	0.0	422.65231013298035	
22	63.36201310157776	fix_post	2		12.0	20.0	2.5	/experiments/knapen_aot/videos/R_S_yt-UzWRbs9Syf4_7.mp4	0.0	422.95219826698303	0.09996700286865234
23	63.46198010444641	fix_pre	0		82.0	21.0	2.5	/experiments/knapen_aot/videos/S_yt-Tn563IPZfg4_55.mp4	0.0	423.0521652698517	0.6832618713378906
23	64.12948107719421	response	0	2		21.0	2.5	/experiments/knapen_aot/videos/S_yt-Tn563IPZfg4_55.mp4	0.0	423.7196662425995	
23	64.1452419757843	movie	1		301.0	21.0	2.5	/experiments/knapen_aot/videos/S_yt-Tn563IPZfg4_55.mp4	0.0	423.7354271411896	2.5083401203155518
23	64.85375308990479	response	1	2		21.0	2.5	/experiments/knapen_aot/videos/S_yt-Tn563IPZfg4_55.mp4	0.0	424.44393825531006	
23	66.65358209609985	fix_post	2		12.0	21.0	2.5	/experiments/knapen_aot/videos/S_yt-Tn563IPZfg4_55.mp4	0.0	426.2437672615051	0.1000220775604248
24	66.75360417366028	fix_pre	0		24.0	22.0	2.5	/experiments/knapen_aot/videos/S_yt-3JApfnMu5cU_378.mp4	0.0	426.34378933906555	0.1999218463897705
24	66.94539999961853	response	0	2		22.0	2.5	/experiments/knapen_aot/videos/S_yt-3JApfnMu5cU_378.mp4	0.0	426.5355851650238	
24	66.95352602005005	movie	1		300.0	22.0	2.5	/experiments/knapen_aot/videos/S_yt-3JApfnMu5cU_378.mp4	0.0	426.5437111854553	2.508458137512207
24	69.46198415756226	fix_post	2		12.0	22.0	2.5	/experiments/knapen_aot/videos/S_yt-3JApfnMu5cU_378.mp4	0.0	429.05216932296753	0.09996485710144043
25	69.5619490146637	fix_pre	0		23.0	23.0	2.5	/experiments/knapen_aot/videos/S_yt-GjFQxAklviE_25.mp4	0.0	429.15213418006897	0.19160914421081543
25	69.74536609649658	response	0	2		23.0	2.5	/experiments/knapen_aot/videos/S_yt-GjFQxAklviE_25.mp4	0.0	429.33555126190186	
25	69.75355815887451	movie	1		301.0	23.0	2.5	/experiments/knapen_aot/videos/S_yt-GjFQxAklviE_25.mp4	0.0	429.3437433242798	2.5083508491516113
25	71.94536900520325	response	1	2		23.0	2.5	/experiments/knapen_aot/videos/S_yt-GjFQxAklviE_25.mp4	0.0	431.5355541706085	
25	72.26190900802612	fix_post	2		12.0	23.0	2.5	/experiments/knapen_aot/videos/S_yt-GjFQxAklviE_25.mp4	0.0	431.8520941734314	0.09998011589050293
26	72.36188912391663	fix_pre	0		35.0	24.0	2.5	/experiments/knapen_aot/videos/R_S_yt-YTQXM5ZjRgg_116.mp4	0.0	431.9520742893219	0.29163193702697754
26	72.64530205726624	response	0	2		24.0	2.5	/experiments/knapen_aot/videos/R_S_yt-YTQXM5ZjRgg_116.mp4	0.0	432.2354872226715	
26	72.6535210609436	movie	1		301.0	24.0	2.5	/experiments/knapen_aot/videos/R_S_yt-YTQXM5ZjRgg_116.mp4	0.0	432.2437062263489	2.508476972579956
26	75.16199803352356	fix_post	2		12.0	24.0	2.5	/experiments/knapen_aot/videos/R_S_yt-YTQXM5ZjRgg_116.mp4	0.0	434.75218319892883	0.09989595413208008
27	75.26189398765564	fix_pre	0		32.0	25.0	2.5	/experiments/knapen_aot/videos/S_ILSVRC2015_train_00371013.mp4	0.0	434.8520791530609	0.2665879726409912
27	75.52025508880615	response	0	2		25.0	2.5	/experiments/knapen_aot/videos/S_ILSVRC2015_train_00371013.mp4	0.0	435.1104402542114	
27	75.52848196029663	movie	1		301.0	25.0	2.5	/experiments/knapen_aot/videos/S_ILSVRC2015_train_00371013.mp4	0.0	435.1186671257019	2.5083611011505127
27	78.03684306144714	fix_post	2		12.0	25.0	2.5	/experiments/knapen_aot/videos/S_ILSVRC2015_train_00371013.mp4	0.0	437.6270282268524	0.10002589225769043
28	78.13686895370483	fix_pre	0		11.0	26.0	2.5	/experiments/knapen_aot/videos/S_ILSVRC2015_train_00479001.mp4	0.0	437.7270541191101	0.0916440486907959
28	78.22024703025818	response	0	2		26.0	2.5	/experiments/knapen_aot/videos/S_ILSVRC2015_train_00479001.mp4	0.0	437.81043219566345	
28	78.22851300239563	movie	1		301.0	26.0	2.5	/experiments/knapen_aot/videos/S_ILSVRC2015_train_00479001.mp4	0.0	437.8186981678009	2.508357048034668
28	80.63697504997253	response	1	2		26.0	2.5	/experiments/knapen_aot/videos/S_ILSVRC2015_train_00479001.mp4	0.0	440.2271602153778	
28	80.7368700504303	fix_post	2		12.0	26.0	2.5	/experiments/knapen_aot/videos/S_ILSVRC2015_train_00479001.mp4	0.0	440.32705521583557	0.0999901294708252
29	80.83686017990112	fix_pre	0		72.0	27.0	2.5	blank	1.0	440.4270453453064	0.599923849105835
29	81.42863702774048	response	0	2		27.0	2.5	blank	1.0	441.01882219314575	
29	81.43678402900696	movie	1		301.0	27.0	2.5	blank	1.0	441.02696919441223	2.5084259510040283
29	83.94520998001099	fix_post	2		12.0	27.0	2.5	blank	1.0	443.53539514541626	0.09999203681945801
30	84.04520201683044	fix_pre	0		17.0	28.0	2.5	/experiments/knapen_aot/videos/S_yt-Ek1jcvett9E_33.mp4	0.0	443.6353871822357	0.141571044921875
30	84.17857098579407	response	0	2		28.0	2.5	/experiments/knapen_aot/videos/S_yt-Ek1jcvett9E_33.mp4	0.0	443.76875615119934	
30	84.18677306175232	movie	1		301.0	28.0	2.5	/experiments/knapen_aot/videos/S_yt-Ek1jcvett9E_33.mp4	0.0	443.7769582271576	2.508430004119873
30	86.69520306587219	fix_post	2		12.0	28.0	2.5	/experiments/knapen_aot/videos/S_yt-Ek1jcvett9E_33.mp4	0.0	446.28538823127747	0.09994792938232422
31	86.79515099525452	fix_pre	0		21.0	29.0	2.5	/experiments/knapen_aot/videos/R_S_yt-G_eNNzNB-hU_1.mp4	0.0	446.3853361606598	0.17596912384033203
31	86.96191310882568	response	0	2		29.0	2.5	/experiments/knapen_aot/videos/R_S_yt-G_eNNzNB-hU_1.mp4	0.0	446.55209827423096	
31	86.97112011909485	movie	1		301.0	29.0	2.5	/experiments/knapen_aot/videos/R_S_yt-G_eNNzNB-hU_1.mp4	0.0	446.5613052845001	2.5074210166931152
31	89.47854113578796	fix_post	2		12.0	29.0	2.5	/experiments/knapen_aot/videos/R_S_yt-G_eNNzNB-hU_1.mp4	0.0	449.06872630119324	0.09998393058776855
32	89.57852506637573	fix_pre	0		8.0	30.0	2.5	/experiments/knapen_aot/videos/R_S_yt-28ODBE9bVh0_44.mp4	0.0	449.168710231781	0.06673097610473633
32	89.6368579864502	response	0	2		30.0	2.5	/experiments/knapen_aot/videos/R_S_yt-28ODBE9bVh0_44.mp4	0.0	449.22704315185547	
32	89.64525604248047	movie	1		301.0	30.0	2.5	/experiments/knapen_aot/videos/R_S_yt-28ODBE9bVh0_44.mp4	0.0	449.23544120788574	2.5082790851593018
32	92.15353512763977	fix_post	2		12.0	30.0	2.5	/experiments/knapen_aot/videos/R_S_yt-28ODBE9bVh0_44.mp4	0.0	451.74372029304504	0.10004591941833496
33	92.2535810470581	fix_pre	0		30.0	31.0	2.5	/experiments/knapen_aot/videos/R_S_ga8dBJH_qK8_765.mp4	0.0	451.8437662124634	0.24987101554870605
33	92.49521613121033	response	0	2		31.0	2.5	/experiments/knapen_aot/videos/R_S_ga8dBJH_qK8_765.mp4	0.0	452.0854012966156	
33	92.50345206260681	movie	1		301.0	31.0	2.5	/experiments/knapen_aot/videos/R_S_ga8dBJH_qK8_765.mp4	0.0	452.0936372280121	2.50838303565979
33	94.3735511302948	response	1	2		31.0	2.5	/experiments/knapen_aot/videos/R_S_ga8dBJH_qK8_765.mp4	0.0	453.9637362957001	
33	95.0118350982666	fix_post	2		12.0	31.0	2.5	/experiments/knapen_aot/videos/R_S_ga8dBJH_qK8_765.mp4	0.0	454.6020202636719	0.10002303123474121
34	95.11185812950134	fix_pre	0		38.0	32.0	2.5	/experiments/knapen_aot/videos/S_DL_B002_C011_SDR_20191122_SDR_2K_AVC.mp4	0.0	454.7020432949066	0.3175208568572998
34	95.42026114463806	response	0	2		32.0	2.5	/experiments/knapen_aot/videos/S_DL_B002_C011_SDR_20191122_SDR_2K_AVC.mp4	0.0	455.01044631004333	
34	95.42937898635864	movie	1		162.0	32.0	2.5	/experiments/knapen_aot/videos/S_DL_B002_C011_SDR_20191122_SDR_2K_AVC.mp4	0.0	455.0195641517639	2.5074541568756104
34	97.93683314323425	fix_post	2		12.0	32.0	2.5	/experiments/knapen_aot/videos/S_DL_B002_C011_SDR_20191122_SDR_2K_AVC.mp4	0.0	457.5270183086395	0.0999898910522461
35	98.0368230342865	fix_pre	0		12.0	33.0	2.5	/experiments/knapen_aot/videos/S_yt-UzWRbs9Syf4_7.mp4	0.0	457.6270081996918	0.10085105895996094
35	98.12853598594666	response	0	2		33.0	2.5	/experiments/knapen_aot/videos/S_yt-UzWRbs9Syf4_7.mp4	0.0	457.71872115135193	
35	98.13767409324646	movie	1		301.0	33.0	2.5	/experiments/knapen_aot/videos/S_yt-UzWRbs9Syf4_7.mp4	0.0	457.72785925865173	2.50750994682312
35	100.64518404006958	fix_post	2		12.0	33.0	2.5	/experiments/knapen_aot/videos/S_yt-UzWRbs9Syf4_7.mp4	0.0	460.23536920547485	0.09992003440856934
36	100.74510407447815	fix_pre	0		81.0	34.0	2.5	/experiments/knapen_aot/videos/S_yt-mI9voWol7cE_104.mp4	0.0	460.3352892398834	0.6749820709228516
36	101.41189098358154	response	0	2		34.0	2.5	/experiments/knapen_aot/videos/S_yt-mI9voWol7cE_104.mp4	0.0	461.0020761489868	
36	101.420086145401	movie	1		301.0	34.0	2.5	/experiments/knapen_aot/videos/S_yt-mI9voWol7cE_104.mp4	0.0	461.0102713108063	2.5083258152008057
36	103.9284119606018	fix_post	2		12.0	34.0	2.5	/experiments/knapen_aot/videos/S_yt-mI9voWol7cE_104.mp4	0.0	463.5185971260071	0.09995913505554199
37	104.02837109565735	fix_pre	0		21.0	35.0	2.5	blank	1.0	463.6185562610626	0.1749570369720459
37	104.19505596160889	response	0	2		35.0	2.5	blank	1.0	463.78524112701416	
37	104.2033281326294	movie	1		301.0	35.0	2.5	blank	1.0	463.79351329803467	2.5083999633789062
37	106.55352401733398	response	1	2		35.0	2.5	blank	1.0	466.14370918273926	
37	106.7117280960083	fix_post	2		12.0	35.0	2.5	blank	1.0	466.3019132614136	0.0999898910522461
38	106.81171798706055	fix_pre	0		29.0	36.0	2.5	/experiments/knapen_aot/videos/S_yt-ayx4rU9bJrU_179.mp4	0.0	466.4019031524658	0.2424461841583252
38	107.04526400566101	response	0	2		36.0	2.5	/experiments/knapen_aot/videos/S_yt-ayx4rU9bJrU_179.mp4	0.0	466.6354491710663	
38	107.05416417121887	movie	1		301.0	36.0	2.5	/experiments/knapen_aot/videos/S_yt-ayx4rU9bJrU_179.mp4	0.0	466.64434933662415	2.5075128078460693
38	109.25678014755249	response	1	2		36.0	2.5	/experiments/knapen_aot/videos/S_yt-ayx4rU9bJrU_179.mp4	0.0	468.84696531295776	
38	109.56167697906494	fix_post	2		12.0	36.0	2.5	/experiments/knapen_aot/videos/S_yt-ayx4rU9bJrU_179.mp4	0.0	469.1518621444702	0.10005998611450195
39	109.66173696517944	fix_pre	0		60.0	37.0	2.5	/experiments/knapen_aot/videos/R_S_yt-roThCERxVCs_133.mp4	0.0	469.2519221305847	0.4999430179595947
39	110.15342807769775	response	0	2		37.0	2.5	/experiments/knapen_aot/videos/R_S_yt-roThCERxVCs_133.mp4	0.0	469.743613243103	
39	110.16167998313904	movie	1		301.0	37.0	2.5	/experiments/knapen_aot/videos/R_S_yt-roThCERxVCs_133.mp4	0.0	469.7518651485443	2.508368968963623
39	112.67004895210266	fix_post	2		12.0	37.0	2.5	/experiments/knapen_aot/videos/R_S_yt-roThCERxVCs_133.mp4	0.0	472.26023411750793	0.09995007514953613
40	112.7699990272522	fix_pre	0		37.0	38.0	2.5	/experiments/knapen_aot/videos/R_S_yt--xKSTYy9mcA_54.mp4	0.0	472.36018419265747	0.30824708938598633
40	113.0701220035553	response	0	2		38.0	2.5	/experiments/knapen_aot/videos/R_S_yt--xKSTYy9mcA_54.mp4	0.0	472.66030716896057	
40	113.07824611663818	movie	1		301.0	38.0	2.5	/experiments/knapen_aot/videos/R_S_yt--xKSTYy9mcA_54.mp4	0.0	472.66843128204346	2.508450984954834
40	114.6376690864563	response	1	2		38.0	2.5	/experiments/knapen_aot/videos/R_S_yt--xKSTYy9mcA_54.mp4	0.0	474.2278542518616	
40	115.58669710159302	fix_post	2		12.0	38.0	2.5	/experiments/knapen_aot/videos/R_S_yt--xKSTYy9mcA_54.mp4	0.0	475.1768822669983	0.09998202323913574
41	115.68667912483215	fix_pre	0		28.0	39.0	2.5	/experiments/knapen_aot/videos/R_S_yt-lEPoNlKWibA_1.mp4	0.0	475.2768642902374	0.2332758903503418
41	115.91179704666138	response	0	2		39.0	2.5	/experiments/knapen_aot/videos/R_S_yt-lEPoNlKWibA_1.mp4	0.0	475.50198221206665	
41	115.9199550151825	movie	1		301.0	39.0	2.5	/experiments/knapen_aot/videos/R_S_yt-lEPoNlKWibA_1.mp4	0.0	475.51014018058777	2.5084569454193115
41	118.02011108398438	response	1	2		39.0	2.5	/experiments/knapen_aot/videos/R_S_yt-lEPoNlKWibA_1.mp4	0.0	477.61029624938965	
41	118.4284119606018	fix_post	2		12.0	39.0	2.5	/experiments/knapen_aot/videos/R_S_yt-lEPoNlKWibA_1.mp4	0.0	478.0185971260071	0.09991717338562012
42	118.52832913398743	fix_pre	0		32.0	40.0	2.5	/experiments/knapen_aot/videos/R_S_yt-Jro_TRE8NUQ_234.mp4	0.0	478.1185142993927	0.26668500900268555
42	118.78673601150513	response	0	2		40.0	2.5	/experiments/knapen_aot/videos/R_S_yt-Jro_TRE8NUQ_234.mp4	0.0	478.3769211769104	
42	118.79501414299011	movie	1		301.0	40.0	2.5	/experiments/knapen_aot/videos/R_S_yt-Jro_TRE8NUQ_234.mp4	0.0	478.3851993083954	2.508319854736328
42	121.19510197639465	response	1	2		40.0	2.5	/experiments/knapen_aot/videos/R_S_yt-Jro_TRE8NUQ_234.mp4	0.0	480.7852871417999	
42	121.30333399772644	fix_post	2		12.0	40.0	2.5	/experiments/knapen_aot/videos/R_S_yt-Jro_TRE8NUQ_234.mp4	0.0	480.8935191631317	0.09995603561401367
43	121.40329003334045	fix_pre	0		45.0	41.0	2.5	blank	1.0	480.9934751987457	0.3750650882720947
43	121.77011203765869	response	0	2		41.0	2.5	blank	1.0	481.36029720306396	
43	121.77835512161255	movie	1		301.0	41.0	2.5	blank	1.0	481.3685402870178	2.508342981338501
43	124.28669810295105	fix_post	2		12.0	41.0	2.5	blank	1.0	483.8768832683563	0.10006594657897949
44	124.38676404953003	fix_pre	0		23.0	42.0	2.5	/experiments/knapen_aot/videos/R_S_video_inspire_nevada_lasvegas_northstrip_021.1080-h264.mp4	0.0	483.9769492149353	0.19157910346984863
44	124.5700831413269	response	0	2		42.0	2.5	/experiments/knapen_aot/videos/R_S_video_inspire_nevada_lasvegas_northstrip_021.1080-h264.mp4	0.0	484.1602683067322	
44	124.57834315299988	movie	1		168.0	42.0	2.5	/experiments/knapen_aot/videos/R_S_video_inspire_nevada_lasvegas_northstrip_021.1080-h264.mp4	0.0	484.16852831840515	2.5082809925079346
44	127.0367910861969	response	1	2		42.0	2.5	/experiments/knapen_aot/videos/R_S_video_inspire_nevada_lasvegas_northstrip_021.1080-h264.mp4	0.0	486.6269762516022	
44	127.08662414550781	fix_post	2		12.0	42.0	2.5	/experiments/knapen_aot/videos/R_S_video_inspire_nevada_lasvegas_northstrip_021.1080-h264.mp4	0.0	486.6768093109131	0.09998202323913574
45	127.18660616874695	fix_pre	0		37.0	43.0	2.5	/experiments/knapen_aot/videos/S_yt-k-MRlbCOzZU_163.mp4	0.0	486.7767913341522	0.3083679676055908
45	127.48680996894836	response	0	2		43.0	2.5	/experiments/knapen_aot/videos/S_yt-k-MRlbCOzZU_163.mp4	0.0	487.07699513435364	
45	127.49497413635254	movie	1		301.0	43.0	2.5	/experiments/knapen_aot/videos/S_yt-k-MRlbCOzZU_163.mp4	0.0	487.0851593017578	2.508415937423706
45	130.00339007377625	fix_post	2		12.0	43.0	2.5	/experiments/knapen_aot/videos/S_yt-k-MRlbCOzZU_163.mp4	0.0	489.5935752391815	0.09988093376159668
46	130.10327100753784	fix_pre	0		23.0	44.0	2.5	/experiments/knapen_aot/videos/R_S_yt-NQSCGMpo-p8_118.mp4	0.0	489.6934561729431	0.19165706634521484
46	130.28673315048218	response	0	2		44.0	2.5	/experiments/knapen_aot/videos/R_S_yt-NQSCGMpo-p8_118.mp4	0.0	489.87691831588745	
46	130.29492807388306	movie	1		301.0	44.0	2.5	/experiments/knapen_aot/videos/R_S_yt-NQSCGMpo-p8_118.mp4	0.0	489.88511323928833	2.5083250999450684
46	132.80325317382812	fix_post	2		12.0	44.0	2.5	/experiments/knapen_aot/videos/R_S_yt-NQSCGMpo-p8_118.mp4	0.0	492.3934383392334	0.10010600090026855
47	132.9033591747284	fix_pre	0		270.0	45.0	2.5	/experiments/knapen_aot/videos/S_yt-bH4nJibL4Jo_164.mp4	0.0	492.49354434013367	2.249870777130127
47	135.14504408836365	response	0	2		45.0	2.5	/experiments/knapen_aot/videos/S_yt-bH4nJibL4Jo_164.mp4	0.0	494.7352292537689	
47	135.15322995185852	movie	1		301.0	45.0	2.5	/experiments/knapen_aot/videos/S_yt-bH4nJibL4Jo_164.mp4	0.0	494.7434151172638	2.5087130069732666
47	137.6619429588318	fix_post	2		12.0	45.0	2.5	/experiments/knapen_aot/videos/S_yt-bH4nJibL4Jo_164.mp4	0.0	497.25212812423706	0.09969806671142578
48	137.7616410255432	fix_pre	0		27.0	46.0	2.5	/experiments/knapen_aot/videos/S_pexels-laker-5793000.mp4	0.0	497.3518261909485	0.22489213943481445
48	137.97829699516296	response	0	2		46.0	2.5	/experiments/knapen_aot/videos/S_pexels-laker-5793000.mp4	0.0	497.56848216056824	
48	137.98653316497803	movie	1		166.0	46.0	2.5	/experiments/knapen_aot/videos/S_pexels-laker-5793000.mp4	0.0	497.5767183303833	2.508441925048828
48	140.49497509002686	fix_post	2		12.0	46.0	2.5	/experiments/knapen_aot/videos/S_pexels-laker-5793000.mp4	0.0	500.08516025543213	0.09998703002929688
49	140.59496212005615	fix_pre	0		54.0	47.0	2.5	/experiments/knapen_aot/videos/S_pexels-marcus-aurelius-6785014.mp4	0.0	500.1851472854614	0.4500110149383545
49	141.02914810180664	response	0	2		47.0	2.5	/experiments/knapen_aot/videos/S_pexels-marcus-aurelius-6785014.mp4	0.0	500.6193332672119	
49	141.0449731349945	movie	1		168.0	47.0	2.5	/experiments/knapen_aot/videos/S_pexels-marcus-aurelius-6785014.mp4	0.0	500.6351583003998	2.50832200050354
49	143.55329513549805	fix_post	2		12.0	47.0	2.5	/experiments/knapen_aot/videos/S_pexels-marcus-aurelius-6785014.mp4	0.0	503.1434803009033	0.1001749038696289
50	143.65347003936768	fix_pre	0		35.0	48.0	2.5	/experiments/knapen_aot/videos/R_S_production_ID_3712945.mp4	0.0	503.24365520477295	0.29146695137023926
50	143.93666696548462	response	0	2		48.0	2.5	/experiments/knapen_aot/videos/R_S_production_ID_3712945.mp4	0.0	503.5268521308899	
50	143.94493699073792	movie	1		185.0	48.0	2.5	/experiments/knapen_aot/videos/R_S_production_ID_3712945.mp4	0.0	503.5351221561432	2.508244037628174
50	146.4531810283661	fix_post	2		12.0	48.0	2.5	/experiments/knapen_aot/videos/R_S_production_ID_3712945.mp4	0.0	506.04336619377136	0.10007905960083008
51	146.55326008796692	fix_pre	0		4.0	49.0	2.5	blank	1.0	506.1434452533722	0.033310890197753906
51	146.57838201522827	response	0	2		49.0	2.5	blank	1.0	506.16856718063354	
51	146.58657097816467	movie	1		301.0	49.0	2.5	blank	1.0	506.17675614356995	2.5082640647888184
51	149.0948350429535	fix_post	2		12.0	49.0	2.5	blank	1.0	508.68502020835876	0.10008001327514648
52	149.19491505622864	fix_pre	0		15.0	50.0	2.5	/experiments/knapen_aot/videos/R_S_yt-mI9voWol7cE_104.mp4	0.0	508.7851002216339	0.12492799758911133
52	149.3115110397339	response	0	2		50.0	2.5	/experiments/knapen_aot/videos/R_S_yt-mI9voWol7cE_104.mp4	0.0	508.90169620513916	
52	149.31984305381775	movie	1		301.0	50.0	2.5	/experiments/knapen_aot/videos/R_S_yt-mI9voWol7cE_104.mp4	0.0	508.910028219223	2.5083730220794678
52	151.82821607589722	fix_post	2		12.0	50.0	2.5	/experiments/knapen_aot/videos/R_S_yt-mI9voWol7cE_104.mp4	0.0	511.4184012413025	0.0999898910522461
53	151.92820596694946	fix_pre	0		48.0	51.0	2.5	/experiments/knapen_aot/videos/S_yt-7Z6Kmp0n7L8_145.mp4	0.0	511.51839113235474	0.3999450206756592
53	152.3199691772461	response	0	2		51.0	2.5	/experiments/knapen_aot/videos/S_yt-7Z6Kmp0n7L8_145.mp4	0.0	511.91015434265137	
53	152.32815098762512	movie	1		301.0	51.0	2.5	/experiments/knapen_aot/videos/S_yt-7Z6Kmp0n7L8_145.mp4	0.0	511.9183361530304	2.5084080696105957
53	154.83655905723572	fix_post	2		12.0	51.0	2.5	/experiments/knapen_aot/videos/S_yt-7Z6Kmp0n7L8_145.mp4	0.0	514.426744222641	0.09992694854736328
54	154.93648600578308	fix_pre	0		35.0	52.0	2.5	/experiments/knapen_aot/videos/R_S_yt-GWlwb2QsxIA_48.mp4	0.0	514.5266711711884	0.2916841506958008
54	155.2199261188507	response	0	2		52.0	2.5	/experiments/knapen_aot/videos/R_S_yt-GWlwb2QsxIA_48.mp4	0.0	514.810111284256	
54	155.22817015647888	movie	1		301.0	52.0	2.5	/experiments/knapen_aot/videos/R_S_yt-GWlwb2QsxIA_48.mp4	0.0	514.8183553218842	2.5083088874816895
54	157.73647904396057	fix_post	2		12.0	52.0	2.5	/experiments/knapen_aot/videos/R_S_yt-GWlwb2QsxIA_48.mp4	0.0	517.3266642093658	0.10004997253417969
55	157.83652901649475	fix_pre	0		35.0	53.0	2.5	/experiments/knapen_aot/videos/R_S_yt-8aJDzfAaArQ_75.mp4	0.0	517.4267141819	0.2915339469909668
55	158.11991906166077	response	0	2		53.0	2.5	/experiments/knapen_aot/videos/R_S_yt-8aJDzfAaArQ_75.mp4	0.0	517.710104227066	
55	158.12806296348572	movie	1		301.0	53.0	2.5	/experiments/knapen_aot/videos/R_S_yt-8aJDzfAaArQ_75.mp4	0.0	517.718248128891	2.508404016494751
55	160.63646697998047	fix_post	2		12.0	53.0	2.5	/experiments/knapen_aot/videos/R_S_yt-8aJDzfAaArQ_75.mp4	0.0	520.2266521453857	0.10005617141723633
56	160.7365231513977	fix_pre	0		33.0	54.0	2.5	/experiments/knapen_aot/videos/R_S_yt-rIQoRErqnlI_17.mp4	0.0	520.326708316803	0.27547693252563477
56	161.00319814682007	response	0	2		54.0	2.5	/experiments/knapen_aot/videos/R_S_yt-rIQoRErqnlI_17.mp4	0.0	520.5933833122253	
56	161.01200008392334	movie	1		301.0	54.0	2.5	/experiments/knapen_aot/videos/R_S_yt-rIQoRErqnlI_17.mp4	0.0	520.6021852493286	2.5078279972076416
56	163.51982808113098	fix_post	2		12.0	54.0	2.5	/experiments/knapen_aot/videos/R_S_yt-rIQoRErqnlI_17.mp4	0.0	523.1100132465363	0.0999898910522461
57	163.61981797218323	fix_pre	0		74.0	55.0	2.5	/experiments/knapen_aot/videos/R_S_yt-4W224-RSCnM_15.mp4	0.0	523.2100031375885	0.6166031360626221
57	164.22819018363953	response	0	2		55.0	2.5	/experiments/knapen_aot/videos/R_S_yt-4W224-RSCnM_15.mp4	0.0	523.8183753490448	
57	164.23642110824585	movie	1		301.0	55.0	2.5	/experiments/knapen_aot/videos/R_S_yt-4W224-RSCnM_15.mp4	0.0	523.8266062736511	2.5084009170532227
57	166.5616970062256	response	1	2		55.0	2.5	/experiments/knapen_aot/videos/R_S_yt-4W224-RSCnM_15.mp4	0.0	526.1518821716309	
57	166.74482202529907	fix_post	2		12.0	55.0	2.5	/experiments/knapen_aot/videos/R_S_yt-4W224-RSCnM_15.mp4	0.0	526.3350071907043	0.10003900527954102
58	166.8448610305786	fix_pre	0		60.0	56.0	2.5	blank	1.0	526.4350461959839	0.5003900527954102
58	167.3365659713745	response	0	2		56.0	2.5	blank	1.0	526.9267511367798	
58	167.34525108337402	movie	1		301.0	56.0	2.5	blank	1.0	526.9354362487793	2.507917881011963
58	169.853168964386	fix_post	2		12.0	56.0	2.5	blank	1.0	529.4433541297913	0.09997010231018066
59	169.95313906669617	fix_pre	0		23.0	57.0	2.5	/experiments/knapen_aot/videos/S_ILSVRC2015_train_00743001.mp4	0.0	529.5433242321014	0.19152092933654785
59	170.13653111457825	response	0	2		57.0	2.5	/experiments/knapen_aot/videos/S_ILSVRC2015_train_00743001.mp4	0.0	529.7267162799835	
59	170.14465999603271	movie	1		301.0	57.0	2.5	/experiments/knapen_aot/videos/S_ILSVRC2015_train_00743001.mp4	0.0	529.734845161438	2.50883412361145
59	172.65349411964417	fix_post	2		12.0	57.0	2.5	/experiments/knapen_aot/videos/S_ILSVRC2015_train_00743001.mp4	0.0	532.2436792850494	0.09967994689941406
60	172.75317406654358	fix_pre	0		20.0	58.0	2.5	/experiments/knapen_aot/videos/R_S_ILSVRC2015_train_00479001.mp4	0.0	532.3433592319489	0.16670894622802734
60	172.90413904190063	response	0	2		58.0	2.5	/experiments/knapen_aot/videos/R_S_ILSVRC2015_train_00479001.mp4	0.0	532.4943242073059	
60	172.9198830127716	movie	1		301.0	58.0	2.5	/experiments/knapen_aot/videos/R_S_ILSVRC2015_train_00479001.mp4	0.0	532.5100681781769	2.5086829662323
60	175.4285659790039	fix_post	2		12.0	58.0	2.5	/experiments/knapen_aot/videos/R_S_ILSVRC2015_train_00479001.mp4	0.0	535.0187511444092	0.09954500198364258
61	175.52811098098755	fix_pre	0		25.0	59.0	2.5	/experiments/knapen_aot/videos/S_yt-ayx4rU9bJrU_179.mp4	0.0	535.1182961463928	0.20832300186157227
61	175.72072005271912	response	0	2		59.0	2.5	/experiments/knapen_aot/videos/S_yt-ayx4rU9bJrU_179.mp4	0.0	535.3109052181244	
61	175.73643398284912	movie	1		301.0	59.0	2.5	/experiments/knapen_aot/videos/S_yt-ayx4rU9bJrU_179.mp4	0.0	535.3266191482544	2.5083329677581787
61	178.2447669506073	fix_post	2		12.0	59.0	2.5	/experiments/knapen_aot/videos/S_yt-ayx4rU9bJrU_179.mp4	0.0	537.8349521160126	0.10003304481506348
62	178.34479999542236	fix_pre	0		30.0	60.0	2.5	/experiments/knapen_aot/videos/R_S_b8-3.mp4	0.0	537.9349851608276	0.2503471374511719
62	178.578999042511	response	0	2		60.0	2.5	/experiments/knapen_aot/videos/R_S_b8-3.mp4	0.0	538.1691842079163	
62	178.59514713287354	movie	1		172.0	60.0	2.5	/experiments/knapen_aot/videos/R_S_b8-3.mp4	0.0	538.1853322982788	2.507964849472046
62	181.10311198234558	fix_post	2		12.0	60.0	2.5	/experiments/knapen_aot/videos/R_S_b8-3.mp4	0.0	540.6932971477509	0.09994101524353027
63	181.2030529975891	fix_pre	0		37.0	61.0	2.5	/experiments/knapen_aot/videos/R_S_yt-Ek1jcvett9E_33.mp4	0.0	540.7932381629944	0.30873799324035645
63	181.50314497947693	response	0	2		61.0	2.5	/experiments/knapen_aot/videos/R_S_yt-Ek1jcvett9E_33.mp4	0.0	541.0933301448822	
63	181.51179099082947	movie	1		301.0	61.0	2.5	/experiments/knapen_aot/videos/R_S_yt-Ek1jcvett9E_33.mp4	0.0	541.1019761562347	2.5080201625823975
63	184.01981115341187	fix_post	2		12.0	61.0	2.5	/experiments/knapen_aot/videos/R_S_yt-Ek1jcvett9E_33.mp4	0.0	543.6099963188171	0.10000395774841309
64	184.11981511116028	fix_pre	0		44.0	62.0	2.5	/experiments/knapen_aot/videos/R_S_yt-jQrMcUCmAaM_44.mp4	0.0	543.7100002765656	0.36653804779052734
64	184.47063612937927	response	0	2		62.0	2.5	/experiments/knapen_aot/videos/R_S_yt-jQrMcUCmAaM_44.mp4	0.0	544.0608212947845	
64	184.4863531589508	movie	1		301.0	62.0	2.5	/experiments/knapen_aot/videos/R_S_yt-jQrMcUCmAaM_44.mp4	0.0	544.0765383243561	2.508413791656494
64	186.9947669506073	fix_post	2		12.0	62.0	2.5	/experiments/knapen_aot/videos/R_S_yt-jQrMcUCmAaM_44.mp4	0.0	546.5849521160126	0.09994316101074219
65	187.09471011161804	fix_pre	0		461.0	63.0	2.5	blank	1.0	546.6848952770233	3.8415780067443848
65	190.92819809913635	response	0	2		63.0	2.5	blank	1.0	550.5183832645416	
65	190.93628811836243	movie	1		301.0	63.0	2.5	blank	1.0	550.5264732837677	2.5084049701690674
65	193.4446930885315	fix_post	2		12.0	63.0	2.5	blank	1.0	553.0348782539368	0.09993791580200195
66	193.5446310043335	fix_pre	0		116.0	64.0	2.5	/experiments/knapen_aot/videos/R_S_b8-3.mp4	0.0	553.1348161697388	0.9671480655670166
66	194.50306701660156	response	0	2		64.0	2.5	/experiments/knapen_aot/videos/R_S_b8-3.mp4	0.0	554.0932521820068	
66	194.5117790699005	movie	1		173.0	64.0	2.5	/experiments/knapen_aot/videos/R_S_b8-3.mp4	0.0	554.1019642353058	2.507823944091797
66	196.9698040485382	response	1	2		64.0	2.5	/experiments/knapen_aot/videos/R_S_b8-3.mp4	0.0	556.5599892139435	
66	197.0196030139923	fix_post	2		12.0	64.0	2.5	/experiments/knapen_aot/videos/R_S_b8-3.mp4	0.0	556.6097881793976	0.10009098052978516
67	197.1196939945221	fix_pre	0		39.0	65.0	2.5	/experiments/knapen_aot/videos/S_yt-Ilr77XzakaY_95.mp4	0.0	556.7098791599274	0.3249189853668213
67	197.43631196022034	response	0	2		65.0	2.5	/experiments/knapen_aot/videos/S_yt-Ilr77XzakaY_95.mp4	0.0	557.0264971256256	
67	197.44461297988892	movie	1		301.0	65.0	2.5	/experiments/knapen_aot/videos/S_yt-Ilr77XzakaY_95.mp4	0.0	557.0347981452942	2.50839900970459
67	199.9530119895935	fix_post	2		12.0	65.0	2.5	/experiments/knapen_aot/videos/S_yt-Ilr77XzakaY_95.mp4	0.0	559.5431971549988	0.10034298896789551
68	200.0533549785614	fix_pre	0		210.0	66.0	2.5	/experiments/knapen_aot/videos/S_yt-6B69qmkEdTI_1.mp4	0.0	559.6435401439667	1.7498841285705566
68	201.79477715492249	response	0	2		66.0	2.5	/experiments/knapen_aot/videos/S_yt-6B69qmkEdTI_1.mp4	0.0	561.3849623203278	
68	201.80323910713196	movie	1		301.0	66.0	2.5	/experiments/knapen_aot/videos/S_yt-6B69qmkEdTI_1.mp4	0.0	561.3934242725372	2.508012056350708
68	204.31125116348267	fix_post	2		12.0	66.0	2.5	/experiments/knapen_aot/videos/S_yt-6B69qmkEdTI_1.mp4	0.0	563.9014363288879	0.10007286071777344
69	204.41132402420044	fix_pre	0		33.0	67.0	2.5	/experiments/knapen_aot/videos/S_yt--xKSTYy9mcA_54.mp4	0.0	564.0015091896057	0.27493810653686523
69	204.6779751777649	response	0	2		67.0	2.5	/experiments/knapen_aot/videos/S_yt--xKSTYy9mcA_54.mp4	0.0	564.2681603431702	
69	204.6862621307373	movie	1		301.0	67.0	2.5	/experiments/knapen_aot/videos/S_yt--xKSTYy9mcA_54.mp4	0.0	564.2764472961426	2.5084569454193115
69	207.19471907615662	fix_post	2		12.0	67.0	2.5	/experiments/knapen_aot/videos/S_yt--xKSTYy9mcA_54.mp4	0.0	566.7849042415619	0.09992504119873047
70	207.29464411735535	fix_pre	0		40.0	68.0	2.5	/experiments/knapen_aot/videos/R_S_yt-c5_SFS4aaJI_1102.mp4	0.0	566.8848292827606	0.33324193954467773
70	207.61974096298218	response	0	2		68.0	2.5	/experiments/knapen_aot/videos/R_S_yt-c5_SFS4aaJI_1102.mp4	0.0	567.2099261283875	
70	207.62788605690002	movie	1		301.0	68.0	2.5	/experiments/knapen_aot/videos/R_S_yt-c5_SFS4aaJI_1102.mp4	0.0	567.2180712223053	2.508384943008423
70	210.13627099990845	fix_post	2		12.0	68.0	2.5	/experiments/knapen_aot/videos/R_S_yt-c5_SFS4aaJI_1102.mp4	0.0	569.7264561653137	0.09995007514953613
71	210.23622107505798	fix_pre	0		56.0	69.0	2.5	/experiments/knapen_aot/videos/S_yt-he_RSdeVinA_68.mp4	0.0	569.8264062404633	0.4667389392852783
71	210.69470810890198	response	0	2		69.0	2.5	/experiments/knapen_aot/videos/S_yt-he_RSdeVinA_68.mp4	0.0	570.2848932743073	
71	210.70296001434326	movie	1		301.0	69.0	2.5	/experiments/knapen_aot/videos/S_yt-he_RSdeVinA_68.mp4	0.0	570.2931451797485	2.5086669921875
71	213.21162700653076	fix_post	2		12.0	69.0	2.5	/experiments/knapen_aot/videos/S_yt-he_RSdeVinA_68.mp4	0.0	572.801812171936	0.0998389720916748
72	213.31146597862244	fix_pre	0		50.0	70.0	2.5	blank	1.0	572.9016511440277	0.4164621829986572
72	213.71974897384644	response	0	2		70.0	2.5	blank	1.0	573.3099341392517	
72	213.7279281616211	movie	1		301.0	70.0	2.5	blank	1.0	573.3181133270264	2.5083467960357666
72	216.23627495765686	fix_post	2		12.0	70.0	2.5	blank	1.0	575.8264601230621	0.10008406639099121
73	216.33635902404785	fix_pre	0		36.0	71.0	2.5	/experiments/knapen_aot/videos/S_comp_H004_C007_PS_v02_SDR_PS_20180925_SDR_2K_AVC.mp4	0.0	575.9265441894531	0.3001821041107178
73	216.62798500061035	response	0	2		71.0	2.5	/experiments/knapen_aot/videos/S_comp_H004_C007_PS_v02_SDR_PS_20180925_SDR_2K_AVC.mp4	0.0	576.2181701660156	
73	216.63654112815857	movie	1		162.0	71.0	2.5	/experiments/knapen_aot/videos/S_comp_H004_C007_PS_v02_SDR_PS_20180925_SDR_2K_AVC.mp4	0.0	576.2267262935638	2.5080740451812744
73	218.36884307861328	response	1	2		71.0	2.5	/experiments/knapen_aot/videos/S_comp_H004_C007_PS_v02_SDR_PS_20180925_SDR_2K_AVC.mp4	0.0	577.9590282440186	
73	219.14461517333984	fix_post	2		12.0	71.0	2.5	/experiments/knapen_aot/videos/S_comp_H004_C007_PS_v02_SDR_PS_20180925_SDR_2K_AVC.mp4	0.0	578.7348003387451	0.0999288558959961
74	219.24454402923584	fix_pre	0		178.0	72.0	2.5	/experiments/knapen_aot/videos/R_S_ILSVRC2015_train_00001009.mp4	0.0	578.8347291946411	1.4832730293273926
74	220.71968412399292	response	0	2		72.0	2.5	/experiments/knapen_aot/videos/R_S_ILSVRC2015_train_00001009.mp4	0.0	580.3098692893982	
74	220.72781705856323	movie	1		301.0	72.0	2.5	/experiments/knapen_aot/videos/R_S_ILSVRC2015_train_00001009.mp4	0.0	580.3180022239685	2.508415937423706
74	222.40302109718323	response	1	2		72.0	2.5	/experiments/knapen_aot/videos/R_S_ILSVRC2015_train_00001009.mp4	0.0	581.9932062625885	
74	223.23623299598694	fix_post	2		12.0	72.0	2.5	/experiments/knapen_aot/videos/R_S_ILSVRC2015_train_00001009.mp4	0.0	582.8264181613922	0.09998607635498047
75	223.33621907234192	fix_pre	0		34.0	73.0	2.5	/experiments/knapen_aot/videos/S_IrGYVLkWeQs_9.mp4	0.0	582.9264042377472	0.2832760810852051
75	223.6113600730896	response	0	2		73.0	2.5	/experiments/knapen_aot/videos/S_IrGYVLkWeQs_9.mp4	0.0	583.2015452384949	
75	223.61949515342712	movie	1		301.0	73.0	2.5	/experiments/knapen_aot/videos/S_IrGYVLkWeQs_9.mp4	0.0	583.2096803188324	2.5084187984466553
75	224.97797107696533	response	1	2		73.0	2.5	/experiments/knapen_aot/videos/S_IrGYVLkWeQs_9.mp4	0.0	584.5681562423706	
75	226.12791395187378	fix_post	2		12.0	73.0	2.5	/experiments/knapen_aot/videos/S_IrGYVLkWeQs_9.mp4	0.0	585.718099117279	0.10001015663146973
76	226.22792410850525	fix_pre	0		57.0	74.0	2.5	/experiments/knapen_aot/videos/S_ILSVRC2015_train_00518001.mp4	0.0	585.8181092739105	0.4748358726501465
76	226.69468903541565	response	0	2		74.0	2.5	/experiments/knapen_aot/videos/S_ILSVRC2015_train_00518001.mp4	0.0	586.2848742008209	
76	226.7027599811554	movie	1		301.0	74.0	2.5	/experiments/knapen_aot/videos/S_ILSVRC2015_train_00518001.mp4	0.0	586.2929451465607	2.508435010910034
76	228.60288000106812	response	1	2		74.0	2.5	/experiments/knapen_aot/videos/S_ILSVRC2015_train_00518001.mp4	0.0	588.1930651664734	
76	229.21119499206543	fix_post	2		12.0	74.0	2.5	/experiments/knapen_aot/videos/S_ILSVRC2015_train_00518001.mp4	0.0	588.8013801574707	0.10004496574401855
77	229.31123995780945	fix_pre	0		43.0	75.0	2.5	/experiments/knapen_aot/videos/R_S_yt-tX5U0Lyo6Gs_376.mp4	0.0	588.9014251232147	0.3582160472869873
77	229.6612889766693	response	0	2		75.0	2.5	/experiments/knapen_aot/videos/R_S_yt-tX5U0Lyo6Gs_376.mp4	0.0	589.2514741420746	
77	229.66945600509644	movie	1		301.0	75.0	2.5	/experiments/knapen_aot/videos/R_S_yt-tX5U0Lyo6Gs_376.mp4	0.0	589.2596411705017	2.5086050033569336
77	232.17806100845337	fix_post	2		12.0	75.0	2.5	/experiments/knapen_aot/videos/R_S_yt-tX5U0Lyo6Gs_376.mp4	0.0	591.7682461738586	0.09982514381408691
77	232.21129298210144	response	2	2		75.0	2.5	/experiments/knapen_aot/videos/R_S_yt-tX5U0Lyo6Gs_376.mp4	0.0	591.8014781475067	
78	232.27788615226746	fix_pre	0		51.0	76.0	2.5	/experiments/knapen_aot/videos/R_S_ILSVRC2015_train_00743001.mp4	0.0	591.8680713176727	0.42488884925842285
78	232.69456005096436	response	0	2		76.0	2.5	/experiments/knapen_aot/videos/R_S_ILSVRC2015_train_00743001.mp4	0.0	592.2847452163696	
78	232.70277500152588	movie	1		301.0	76.0	2.5	/experiments/knapen_aot/videos/R_S_ILSVRC2015_train_00743001.mp4	0.0	592.2929601669312	2.5088160037994385
78	234.20294904708862	response	1	2		76.0	2.5	/experiments/knapen_aot/videos/R_S_ILSVRC2015_train_00743001.mp4	0.0	593.7931342124939	
78	235.21159100532532	fix_post	2		12.0	76.0	2.5	/experiments/knapen_aot/videos/R_S_ILSVRC2015_train_00743001.mp4	0.0	594.8017761707306	0.09953618049621582
78	235.25293803215027	response	2	2		76.0	2.5	/experiments/knapen_aot/videos/R_S_ILSVRC2015_train_00743001.mp4	0.0	594.8431231975555	
79	235.31112718582153	fix_pre	0		17.0	77.0	2.5	blank	1.0	594.9013123512268	0.1416308879852295
79	235.44451999664307	response	0	2		77.0	2.5	blank	1.0	595.0347051620483	
79	235.45275807380676	movie	1		301.0	77.0	2.5	blank	1.0	595.042943239212	2.508410930633545
79	235.6195101737976	response	1	2		77.0	2.5	blank	1.0	595.2096953392029	
79	235.76944708824158	response	1	2		77.0	2.5	blank	1.0	595.3596322536469	
79	235.9612259864807	response	1	2		77.0	2.5	blank	1.0	595.551411151886	
79	236.15285205841064	response	1	2		77.0	2.5	blank	1.0	595.7430372238159	
79	236.29452300071716	response	1	2		77.0	2.5	blank	1.0	595.8847081661224	
79	237.9611690044403	fix_post	2		12.0	77.0	2.5	blank	1.0	597.5513541698456	0.10003495216369629
80	238.061203956604	fix_pre	0		42.0	78.0	2.5	/experiments/knapen_aot/videos/R_S_ILSVRC2015_train_00318000.mp4	0.0	597.6513891220093	0.34995007514953613
80	238.4029459953308	response	0	2		78.0	2.5	/experiments/knapen_aot/videos/R_S_ILSVRC2015_train_00318000.mp4	0.0	597.9931311607361	
80	238.41115403175354	movie	1		301.0	78.0	2.5	/experiments/knapen_aot/videos/R_S_ILSVRC2015_train_00318000.mp4	0.0	598.0013391971588	2.508296012878418
80	240.91945004463196	fix_post	2		12.0	78.0	2.5	/experiments/knapen_aot/videos/R_S_ILSVRC2015_train_00318000.mp4	0.0	600.5096352100372	0.10002303123474121
81	241.0194730758667	fix_pre	0		51.0	79.0	2.5	/experiments/knapen_aot/videos/S_yt-hRAqAwRhmwE_58.mp4	0.0	600.609658241272	0.4249279499053955
81	241.43623208999634	response	0	2		79.0	2.5	/experiments/knapen_aot/videos/S_yt-hRAqAwRhmwE_58.mp4	0.0	601.0264172554016	
81	241.4444010257721	movie	1		301.0	79.0	2.5	/experiments/knapen_aot/videos/S_yt-hRAqAwRhmwE_58.mp4	0.0	601.0345861911774	2.5087759494781494
81	243.95317697525024	fix_post	2		12.0	79.0	2.5	/experiments/knapen_aot/videos/S_yt-hRAqAwRhmwE_58.mp4	0.0	603.5433621406555	0.09972715377807617
82	244.05290412902832	fix_pre	0		33.0	80.0	2.5	/experiments/knapen_aot/videos/R_S_video_inspire_oregon_lone-ranch-beach_00021.1080-h264.mp4	0.0	603.6430892944336	0.2749040126800537
82	244.31955099105835	response	0	2		80.0	2.5	/experiments/knapen_aot/videos/R_S_video_inspire_oregon_lone-ranch-beach_00021.1080-h264.mp4	0.0	603.9097361564636	
82	244.32780814170837	movie	1		168.0	80.0	2.5	/experiments/knapen_aot/videos/R_S_video_inspire_oregon_lone-ranch-beach_00021.1080-h264.mp4	0.0	603.9179933071136	2.5083508491516113
82	246.83615899085999	fix_post	2		12.0	80.0	2.5	/experiments/knapen_aot/videos/R_S_video_inspire_oregon_lone-ranch-beach_00021.1080-h264.mp4	0.0	606.4263441562653	0.09999704360961914
83	246.9361560344696	fix_pre	0		26.0	81.0	2.5	/experiments/knapen_aot/videos/R_S_yt-tX3slAQb9yY_13.mp4	0.0	606.5263411998749	0.21649909019470215
83	247.14455103874207	response	0	2		81.0	2.5	/experiments/knapen_aot/videos/R_S_yt-tX3slAQb9yY_13.mp4	0.0	606.7347362041473	
83	247.1526551246643	movie	1		301.0	81.0	2.5	/experiments/knapen_aot/videos/R_S_yt-tX3slAQb9yY_13.mp4	0.0	606.7428402900696	2.5084359645843506
83	249.66109108924866	fix_post	2		12.0	81.0	2.5	/experiments/knapen_aot/videos/R_S_yt-tX3slAQb9yY_13.mp4	0.0	609.2512762546539	0.1001279354095459
84	249.7612190246582	fix_pre	0		36.0	82.0	2.5	blank	1.0	609.3514041900635	0.2999129295349121
84	250.05281901359558	response	0	2		82.0	2.5	blank	1.0	609.6430041790009	
84	250.06113195419312	movie	1		301.0	82.0	2.5	blank	1.0	609.6513171195984	2.5084710121154785
84	252.5696029663086	fix_post	2		12.0	82.0	2.5	blank	1.0	612.1597881317139	0.09983611106872559
85	252.66943907737732	fix_pre	0		52.0	83.0	2.5	/experiments/knapen_aot/videos/R_S_yt-UzWRbs9Syf4_7.mp4	0.0	612.2596242427826	0.4332258701324463
85	253.0945041179657	response	0	2		83.0	2.5	/experiments/knapen_aot/videos/R_S_yt-UzWRbs9Syf4_7.mp4	0.0	612.684689283371	
85	253.10266494750977	movie	1		301.0	83.0	2.5	/experiments/knapen_aot/videos/R_S_yt-UzWRbs9Syf4_7.mp4	0.0	612.692850112915	2.5084211826324463
85	255.6110861301422	fix_post	2		12.0	83.0	2.5	/experiments/knapen_aot/videos/R_S_yt-UzWRbs9Syf4_7.mp4	0.0	615.2012712955475	0.09999489784240723
87	255.71108102798462	stim	0		65.0					615.3012661933899	0.5431251525878906
87	256.24933910369873	response	0	space						615.839524269104	
