trial_nr	onset	event_type	phase	response	nr_frames	movie_index	movie_duration	movie_file	blank	onset_abs	duration
0	0.12941789627075195	stim	0		395.0					65.5017499923706	3.291264057159424
0	3.4052770137786865	response	0	space						68.77760910987854	
1	3.420681953430176	stim	0		121.0					68.79301404953003	1.0083699226379395
1	4.429051876068115	stim	1		120.0					69.80138397216797	0.9999940395355225
1	4.62915301322937	response	1	space						70.00148510932922	
2	5.429045915603638	fix_pre	0		78.0	0.0	2.5	/experiments/knapen_aot/videos/S_yt-MsSEF0krKE4_149.mp4	0.0	70.80137801170349	0.6499569416046143
2	6.070844888687134	response	0	space		0.0	2.5	/experiments/knapen_aot/videos/S_yt-MsSEF0krKE4_149.mp4	0.0	71.44317698478699	
2	6.079002857208252	movie	1		300.0	0.0	2.5	/experiments/knapen_aot/videos/S_yt-MsSEF0krKE4_149.mp4	0.0	71.4513349533081	2.5083701610565186
2	8.58737301826477	fix_post	2		12.0	0.0	2.5	/experiments/knapen_aot/videos/S_yt-MsSEF0krKE4_149.mp4	0.0	73.95970511436462	0.09998393058776855
3	8.687356948852539	fix_pre	0		105.0	1.0	2.5	/experiments/knapen_aot/videos/S_video_inspire_california_vineyard_sierra-mar_sunrise_110.1080-h264.mp4	0.0	74.05968904495239	0.8749780654907227
3	9.554288864135742	response	0	2		1.0	2.5	/experiments/knapen_aot/videos/S_video_inspire_california_vineyard_sierra-mar_sunrise_110.1080-h264.mp4	0.0	74.9266209602356	
3	9.562335014343262	movie	1		168.0	1.0	2.5	/experiments/knapen_aot/videos/S_video_inspire_california_vineyard_sierra-mar_sunrise_110.1080-h264.mp4	0.0	74.93466711044312	2.5083189010620117
3	12.070653915405273	fix_post	2		12.0	1.0	2.5	/experiments/knapen_aot/videos/S_video_inspire_california_vineyard_sierra-mar_sunrise_110.1080-h264.mp4	0.0	77.44298601150513	0.10001707077026367
4	12.170670986175537	fix_pre	0		141.0	2.0	2.5	/experiments/knapen_aot/videos/R_S_pexels-polina-tankilevitch-8203088.mp4	0.0	77.54300308227539	1.176110029220581
4	13.337498903274536	response	0	2		2.0	2.5	/experiments/knapen_aot/videos/R_S_pexels-polina-tankilevitch-8203088.mp4	0.0	78.70983099937439	
4	13.346781015396118	movie	1		167.0	2.0	2.5	/experiments/knapen_aot/videos/R_S_pexels-polina-tankilevitch-8203088.mp4	0.0	78.71911311149597	2.5072009563446045
4	15.853981971740723	fix_post	2		12.0	2.0	2.5	/experiments/knapen_aot/videos/R_S_pexels-polina-tankilevitch-8203088.mp4	0.0	81.22631406784058	0.09991192817687988
5	15.953893899917603	fix_pre	0		108.0	3.0	2.5	/experiments/knapen_aot/videos/R_S_comp_GMT329_113NC_396B_1105_ITALY_v03_SDR_FINAL_20180706_SDR_2K_AVC.mp4	0.0	81.32622599601746	0.9000780582427979
5	16.8458149433136	response	0	2		3.0	2.5	/experiments/knapen_aot/videos/R_S_comp_GMT329_113NC_396B_1105_ITALY_v03_SDR_FINAL_20180706_SDR_2K_AVC.mp4	0.0	82.21814703941345	
5	16.8539719581604	movie	1		172.0	3.0	2.5	/experiments/knapen_aot/videos/R_S_comp_GMT329_113NC_396B_1105_ITALY_v03_SDR_FINAL_20180706_SDR_2K_AVC.mp4	0.0	82.22630405426025	2.5083301067352295
5	19.36230206489563	fix_post	2		12.0	3.0	2.5	/experiments/knapen_aot/videos/R_S_comp_GMT329_113NC_396B_1105_ITALY_v03_SDR_FINAL_20180706_SDR_2K_AVC.mp4	0.0	84.73463416099548	0.09996390342712402
6	19.462265968322754	fix_pre	0		89.0	4.0	2.5	/experiments/knapen_aot/videos/R_S_DV6V38rplag_215.mp4	0.0	84.83459806442261	0.7416610717773438
6	20.195811986923218	response	0	2		4.0	2.5	/experiments/knapen_aot/videos/R_S_DV6V38rplag_215.mp4	0.0	85.56814408302307	
6	20.203927040100098	movie	1		301.0	4.0	2.5	/experiments/knapen_aot/videos/R_S_DV6V38rplag_215.mp4	0.0	85.57625913619995	2.508405923843384
6	22.71233296394348	fix_post	2		12.0	4.0	2.5	/experiments/knapen_aot/videos/R_S_DV6V38rplag_215.mp4	0.0	88.08466506004333	0.10001707077026367
7	22.812350034713745	fix_pre	0		148.0	5.0	2.5	/experiments/knapen_aot/videos/R_S_comp_HK_H004_C008_PSNK_v19_SDR_PS_20180914_SDR_2K_AVC.mp4	0.0	88.1846821308136	1.2332220077514648
7	24.037368059158325	response	0	2		5.0	2.5	/experiments/knapen_aot/videos/R_S_comp_HK_H004_C008_PSNK_v19_SDR_PS_20180914_SDR_2K_AVC.mp4	0.0	89.40970015525818	
7	24.04557204246521	movie	1		170.0	5.0	2.5	/experiments/knapen_aot/videos/R_S_comp_HK_H004_C008_PSNK_v19_SDR_PS_20180914_SDR_2K_AVC.mp4	0.0	89.41790413856506	2.508420944213867
7	26.553992986679077	fix_post	2		12.0	5.0	2.5	/experiments/knapen_aot/videos/R_S_comp_HK_H004_C008_PSNK_v19_SDR_PS_20180914_SDR_2K_AVC.mp4	0.0	91.92632508277893	0.09990906715393066
8	26.653902053833008	fix_pre	0		107.0	6.0	2.5	blank	1.0	92.02623414993286	0.8916559219360352
8	27.537523984909058	response	0	2		6.0	2.5	blank	1.0	92.90985608100891	
8	27.545557975769043	movie	1		301.0	6.0	2.5	blank	1.0	92.9178900718689	2.508401870727539
8	30.053959846496582	fix_post	2		12.0	6.0	2.5	blank	1.0	95.42629194259644	0.09991908073425293
9	30.153878927230835	fix_pre	0		43.0	7.0	2.5	/experiments/knapen_aot/videos/R_S_production_ID_4101244.mp4	0.0	95.52621102333069	0.35933995246887207
9	30.504061937332153	response	0	2		7.0	2.5	/experiments/knapen_aot/videos/R_S_production_ID_4101244.mp4	0.0	95.876394033432	
9	30.513218879699707	movie	1		197.0	7.0	2.5	/experiments/knapen_aot/videos/R_S_production_ID_4101244.mp4	0.0	95.88555097579956	2.5073580741882324
9	33.02057695388794	fix_post	2		12.0	7.0	2.5	/experiments/knapen_aot/videos/R_S_production_ID_4101244.mp4	0.0	98.3929090499878	0.10006308555603027
10	33.12064003944397	fix_pre	0		109.0	8.0	2.5	/experiments/knapen_aot/videos/R_S_yt-aqrdb6BiFx4_12.mp4	0.0	98.49297213554382	0.9082880020141602
10	34.020663022994995	response	0	2		8.0	2.5	/experiments/knapen_aot/videos/R_S_yt-aqrdb6BiFx4_12.mp4	0.0	99.39299511909485	
10	34.02892804145813	movie	1		301.0	8.0	2.5	/experiments/knapen_aot/videos/R_S_yt-aqrdb6BiFx4_12.mp4	0.0	99.40126013755798	2.5083119869232178
10	36.53724002838135	fix_post	2		12.0	8.0	2.5	/experiments/knapen_aot/videos/R_S_yt-aqrdb6BiFx4_12.mp4	0.0	101.9095721244812	0.10000991821289062
11	36.63724994659424	fix_pre	0		80.0	9.0	2.5	/experiments/knapen_aot/videos/R_S_comp_LA_A005_C009_PSNK_ALT_v09_SDR_PS_201809134_SDR_2K_AVC.mp4	0.0	102.00958204269409	0.6675009727478027
11	37.288224935531616	response	0	2		9.0	2.5	/experiments/knapen_aot/videos/R_S_comp_LA_A005_C009_PSNK_ALT_v09_SDR_PS_201809134_SDR_2K_AVC.mp4	0.0	102.66055703163147	
11	37.30475091934204	movie	1		174.0	9.0	2.5	/experiments/knapen_aot/videos/R_S_comp_LA_A005_C009_PSNK_ALT_v09_SDR_PS_201809134_SDR_2K_AVC.mp4	0.0	102.6770830154419	2.507439136505127
11	39.81219005584717	fix_post	2		12.0	9.0	2.5	/experiments/knapen_aot/videos/R_S_comp_LA_A005_C009_PSNK_ALT_v09_SDR_PS_201809134_SDR_2K_AVC.mp4	0.0	105.18452215194702	0.0999908447265625
12	39.91218090057373	fix_pre	0		88.0	10.0	2.5	/experiments/knapen_aot/videos/R_S_yt-ObT9gF8E_tU_250.mp4	0.0	105.28451299667358	0.7333290576934814
12	40.63731598854065	response	0	2		10.0	2.5	/experiments/knapen_aot/videos/R_S_yt-ObT9gF8E_tU_250.mp4	0.0	106.0096480846405	
12	40.64550995826721	movie	1		301.0	10.0	2.5	/experiments/knapen_aot/videos/R_S_yt-ObT9gF8E_tU_250.mp4	0.0	106.01784205436707	2.508310079574585
12	43.1538200378418	fix_post	2		12.0	10.0	2.5	/experiments/knapen_aot/videos/R_S_yt-ObT9gF8E_tU_250.mp4	0.0	108.52615213394165	0.1000528335571289
13	43.253872871398926	fix_pre	0		124.0	11.0	2.5	/experiments/knapen_aot/videos/S_comp_H004_C007_PS_v02_SDR_PS_20180925_SDR_2K_AVC.mp4	0.0	108.62620496749878	1.0332701206207275
13	44.27133297920227	response	0	2		11.0	2.5	/experiments/knapen_aot/videos/S_comp_H004_C007_PS_v02_SDR_PS_20180925_SDR_2K_AVC.mp4	0.0	109.64366507530212	
13	44.28714299201965	movie	1		167.0	11.0	2.5	/experiments/knapen_aot/videos/S_comp_H004_C007_PS_v02_SDR_PS_20180925_SDR_2K_AVC.mp4	0.0	109.6594750881195	2.5086069107055664
13	46.79574990272522	fix_post	2		12.0	11.0	2.5	/experiments/knapen_aot/videos/S_comp_H004_C007_PS_v02_SDR_PS_20180925_SDR_2K_AVC.mp4	0.0	112.16808199882507	0.09983110427856445
14	46.895581007003784	fix_pre	0		155.0	12.0	2.5	blank	1.0	112.26791310310364	1.2916078567504883
14	48.17895984649658	response	0	2		12.0	2.5	blank	1.0	113.55129194259644	
14	48.18718886375427	movie	1		301.0	12.0	2.5	blank	1.0	113.55952095985413	2.5083441734313965
14	50.69553303718567	fix_post	2		12.0	12.0	2.5	blank	1.0	116.06786513328552	0.10005998611450195
15	50.79559302330017	fix_pre	0		26.0	13.0	2.5	/experiments/knapen_aot/videos/R_S_ILSVRC2015_train_00079001.mp4	0.0	116.16792511940002	0.21735882759094238
15	51.003947019577026	response	0	2		13.0	2.5	/experiments/knapen_aot/videos/R_S_ILSVRC2015_train_00079001.mp4	0.0	116.37627911567688	
15	51.01295185089111	movie	1		301.0	13.0	2.5	/experiments/knapen_aot/videos/R_S_ILSVRC2015_train_00079001.mp4	0.0	116.38528394699097	2.507585048675537
15	53.52053689956665	fix_post	2		12.0	13.0	2.5	/experiments/knapen_aot/videos/R_S_ILSVRC2015_train_00079001.mp4	0.0	118.8928689956665	0.09998416900634766
16	53.620521068573	fix_pre	0		136.0	14.0	2.5	/experiments/knapen_aot/videos/S_ILSVRC2015_train_00404004.mp4	0.0	118.99285316467285	1.1332838535308838
16	54.74556088447571	response	0	2		14.0	2.5	/experiments/knapen_aot/videos/S_ILSVRC2015_train_00404004.mp4	0.0	120.11789298057556	
16	54.75380492210388	movie	1		301.0	14.0	2.5	/experiments/knapen_aot/videos/S_ILSVRC2015_train_00404004.mp4	0.0	120.12613701820374	2.5083160400390625
16	57.262120962142944	fix_post	2		12.0	14.0	2.5	/experiments/knapen_aot/videos/S_ILSVRC2015_train_00404004.mp4	0.0	122.6344530582428	0.10004591941833496
17	57.36216688156128	fix_pre	0		70.0	15.0	2.5	/experiments/knapen_aot/videos/S_comp_GMT329_113NC_396B_1105_ITALY_v03_SDR_FINAL_20180706_SDR_2K_AVC.mp4	0.0	122.73449897766113	0.5833289623260498
17	57.93718600273132	response	0	2		15.0	2.5	/experiments/knapen_aot/videos/S_comp_GMT329_113NC_396B_1105_ITALY_v03_SDR_FINAL_20180706_SDR_2K_AVC.mp4	0.0	123.30951809883118	
17	57.94549584388733	movie	1		168.0	15.0	2.5	/experiments/knapen_aot/videos/S_comp_GMT329_113NC_396B_1105_ITALY_v03_SDR_FINAL_20180706_SDR_2K_AVC.mp4	0.0	123.31782793998718	2.5083200931549072
17	60.453815937042236	fix_post	2		12.0	15.0	2.5	/experiments/knapen_aot/videos/S_comp_GMT329_113NC_396B_1105_ITALY_v03_SDR_FINAL_20180706_SDR_2K_AVC.mp4	0.0	125.82614803314209	0.09998893737792969
18	60.553804874420166	fix_pre	0		252.0	16.0	2.5	/experiments/knapen_aot/videos/S_ILSVRC2015_train_00697001.mp4	0.0	125.92613697052002	2.0999670028686523
18	62.64558291435242	response	0	2		16.0	2.5	/experiments/knapen_aot/videos/S_ILSVRC2015_train_00697001.mp4	0.0	128.01791501045227	
18	62.65377187728882	movie	1		301.0	16.0	2.5	/experiments/knapen_aot/videos/S_ILSVRC2015_train_00697001.mp4	0.0	128.02610397338867	2.5083231925964355
18	65.16209506988525	fix_post	2		12.0	16.0	2.5	/experiments/knapen_aot/videos/S_ILSVRC2015_train_00697001.mp4	0.0	130.5344271659851	0.10008788108825684
19	65.26218295097351	fix_pre	0		109.0	17.0	2.5	/experiments/knapen_aot/videos/S_yt-ZzC953ahaxs_195.mp4	0.0	130.63451504707336	0.9082159996032715
19	66.16222095489502	response	0	2		17.0	2.5	/experiments/knapen_aot/videos/S_yt-ZzC953ahaxs_195.mp4	0.0	131.53455305099487	
19	66.17039895057678	movie	1		301.0	17.0	2.5	/experiments/knapen_aot/videos/S_yt-ZzC953ahaxs_195.mp4	0.0	131.54273104667664	2.508415937423706
19	68.67881488800049	fix_post	2		12.0	17.0	2.5	/experiments/knapen_aot/videos/S_yt-ZzC953ahaxs_195.mp4	0.0	134.05114698410034	0.10002899169921875
20	68.7788438796997	fix_pre	0		148.0	18.0	2.5	/experiments/knapen_aot/videos/S_yt-_HuBzj8EPBc_62.mp4	0.0	134.15117597579956	1.2339351177215576
20	70.00383591651917	response	0	2		18.0	2.5	/experiments/knapen_aot/videos/S_yt-_HuBzj8EPBc_62.mp4	0.0	135.37616801261902	
20	70.01277899742126	movie	1		301.0	18.0	2.5	/experiments/knapen_aot/videos/S_yt-_HuBzj8EPBc_62.mp4	0.0	135.38511109352112	2.507645845413208
20	72.52042484283447	fix_post	2		12.0	18.0	2.5	/experiments/knapen_aot/videos/S_yt-_HuBzj8EPBc_62.mp4	0.0	137.89275693893433	0.10002303123474121
21	72.62044787406921	fix_pre	0		120.0	19.0	2.5	/experiments/knapen_aot/videos/S_ILSVRC2015_train_00079001.mp4	0.0	137.99277997016907	0.9999380111694336
21	73.61217188835144	response	0	2		19.0	2.5	/experiments/knapen_aot/videos/S_ILSVRC2015_train_00079001.mp4	0.0	138.9845039844513	
21	73.62038588523865	movie	1		300.0	19.0	2.5	/experiments/knapen_aot/videos/S_ILSVRC2015_train_00079001.mp4	0.0	138.9927179813385	2.508362054824829
21	76.12874794006348	fix_post	2		12.0	19.0	2.5	/experiments/knapen_aot/videos/S_ILSVRC2015_train_00079001.mp4	0.0	141.50108003616333	0.09995293617248535
22	76.22870087623596	fix_pre	0		90.0	20.0	2.5	/experiments/knapen_aot/videos/S_yt-mHLTJkMrkZI_143.mp4	0.0	141.60103297233582	0.7499849796295166
22	76.97062301635742	response	0	2		20.0	2.5	/experiments/knapen_aot/videos/S_yt-mHLTJkMrkZI_143.mp4	0.0	142.34295511245728	
22	76.97868585586548	movie	1		301.0	20.0	2.5	/experiments/knapen_aot/videos/S_yt-mHLTJkMrkZI_143.mp4	0.0	142.35101795196533	2.5083200931549072
22	79.48700594902039	fix_post	2		12.0	20.0	2.5	/experiments/knapen_aot/videos/S_yt-mHLTJkMrkZI_143.mp4	0.0	144.85933804512024	0.10003995895385742
23	79.58704590797424	fix_pre	0		73.0	21.0	2.5	blank	1.0	144.9593780040741	0.6083381175994873
23	80.18715500831604	response	0	2		21.0	2.5	blank	1.0	145.5594871044159	
23	80.19538402557373	movie	1		301.0	21.0	2.5	blank	1.0	145.56771612167358	2.5083420276641846
23	82.70372605323792	fix_post	2		12.0	21.0	2.5	blank	1.0	148.07605814933777	0.0999908447265625
24	82.80371689796448	fix_pre	0		29.0	22.0	2.5	/experiments/knapen_aot/videos/R_S_yt-YeT4acsbqok_210.mp4	0.0	148.17604899406433	0.24372410774230957
24	83.03712487220764	response	0	2		22.0	2.5	/experiments/knapen_aot/videos/R_S_yt-YeT4acsbqok_210.mp4	0.0	148.4094569683075	
24	83.04744100570679	movie	1		301.0	22.0	2.5	/experiments/knapen_aot/videos/R_S_yt-YeT4acsbqok_210.mp4	0.0	148.41977310180664	2.5062429904937744
24	85.55368399620056	fix_post	2		12.0	22.0	2.5	/experiments/knapen_aot/videos/R_S_yt-YeT4acsbqok_210.mp4	0.0	150.92601609230042	0.10000395774841309
25	85.65368795394897	fix_pre	0		79.0	23.0	2.5	/experiments/knapen_aot/videos/S_yt-i-1Gou9SA5U_3.mp4	0.0	151.02602005004883	0.6583240032196045
25	86.30380201339722	response	0	2		23.0	2.5	/experiments/knapen_aot/videos/S_yt-i-1Gou9SA5U_3.mp4	0.0	151.67613410949707	
25	86.31201195716858	movie	1		301.0	23.0	2.5	/experiments/knapen_aot/videos/S_yt-i-1Gou9SA5U_3.mp4	0.0	151.68434405326843	2.5082929134368896
25	88.82030487060547	fix_post	2		12.0	23.0	2.5	/experiments/knapen_aot/videos/S_yt-i-1Gou9SA5U_3.mp4	0.0	154.19263696670532	0.10000205039978027
26	88.92030692100525	fix_pre	0		37.0	24.0	2.5	/experiments/knapen_aot/videos/S_yt-8gCfc-o3pyk_85.mp4	0.0	154.2926390171051	0.3083319664001465
26	89.21299290657043	response	0	2		24.0	2.5	/experiments/knapen_aot/videos/S_yt-8gCfc-o3pyk_85.mp4	0.0	154.5853250026703	
26	89.2286388874054	movie	1		300.0	24.0	2.5	/experiments/knapen_aot/videos/S_yt-8gCfc-o3pyk_85.mp4	0.0	154.60097098350525	2.5083539485931396
26	91.73699283599854	fix_post	2		12.0	24.0	2.5	/experiments/knapen_aot/videos/S_yt-8gCfc-o3pyk_85.mp4	0.0	157.1093249320984	0.09998917579650879
27	91.83698201179504	fix_pre	0		76.0	25.0	2.5	/experiments/knapen_aot/videos/R_S_Y009_C015_SDR_2K_AVC.mp4	0.0	157.2093141078949	0.6339478492736816
27	92.4621319770813	response	0	2		25.0	2.5	/experiments/knapen_aot/videos/R_S_Y009_C015_SDR_2K_AVC.mp4	0.0	157.83446407318115	
27	92.47092986106873	movie	1		177.0	25.0	2.5	/experiments/knapen_aot/videos/R_S_Y009_C015_SDR_2K_AVC.mp4	0.0	157.84326195716858	2.507728099822998
27	94.97865796089172	fix_post	2		12.0	25.0	2.5	/experiments/knapen_aot/videos/R_S_Y009_C015_SDR_2K_AVC.mp4	0.0	160.35099005699158	0.09993600845336914
28	95.07859396934509	fix_pre	0		152.0	26.0	2.5	blank	1.0	160.45092606544495	1.267327070236206
28	96.33711504936218	response	0	2		26.0	2.5	blank	1.0	161.70944714546204	
28	96.3459210395813	movie	1		301.0	26.0	2.5	blank	1.0	161.71825313568115	2.5077028274536133
28	98.31211304664612	response	1	2		26.0	2.5	blank	1.0	163.68444514274597	
28	98.85362386703491	fix_post	2		12.0	26.0	2.5	blank	1.0	164.22595596313477	0.10002017021179199
29	98.9536440372467	fix_pre	0		40.0	27.0	2.5	/experiments/knapen_aot/videos/R_S_yt-G_eNNzNB-hU_1.mp4	0.0	164.32597613334656	0.33329081535339355
29	99.27873492240906	response	0	2		27.0	2.5	/experiments/knapen_aot/videos/R_S_yt-G_eNNzNB-hU_1.mp4	0.0	164.6510670185089	
29	99.2869348526001	movie	1		301.0	27.0	2.5	/experiments/knapen_aot/videos/R_S_yt-G_eNNzNB-hU_1.mp4	0.0	164.65926694869995	2.508543014526367
29	101.79547786712646	fix_post	2		12.0	27.0	2.5	/experiments/knapen_aot/videos/R_S_yt-G_eNNzNB-hU_1.mp4	0.0	167.16780996322632	0.0998849868774414
30	101.8953628540039	fix_pre	0		75.0	28.0	2.5	/experiments/knapen_aot/videos/R_S_ILSVRC2015_train_00638001.mp4	0.0	167.26769495010376	0.6249361038208008
30	102.51208400726318	response	0	2		28.0	2.5	/experiments/knapen_aot/videos/R_S_ILSVRC2015_train_00638001.mp4	0.0	167.88441610336304	
30	102.5202989578247	movie	1		301.0	28.0	2.5	/experiments/knapen_aot/videos/R_S_ILSVRC2015_train_00638001.mp4	0.0	167.89263105392456	2.5082969665527344
30	105.02859592437744	fix_post	2		12.0	28.0	2.5	/experiments/knapen_aot/videos/R_S_ILSVRC2015_train_00638001.mp4	0.0	170.4009280204773	0.10000491142272949
31	105.12860083580017	fix_pre	0		58.0	29.0	2.5	/experiments/knapen_aot/videos/S_yt-Rsfo57AlpLA_332.mp4	0.0	170.50093293190002	0.48329901695251465
31	105.60372400283813	response	0	2		29.0	2.5	/experiments/knapen_aot/videos/S_yt-Rsfo57AlpLA_332.mp4	0.0	170.976056098938	
31	105.61189985275269	movie	1		301.0	29.0	2.5	/experiments/knapen_aot/videos/S_yt-Rsfo57AlpLA_332.mp4	0.0	170.98423194885254	2.508369207382202
31	108.12026906013489	fix_post	2		12.0	29.0	2.5	/experiments/knapen_aot/videos/S_yt-Rsfo57AlpLA_332.mp4	0.0	173.49260115623474	0.10001492500305176
32	108.22028398513794	fix_pre	0		183.0	30.0	2.5	/experiments/knapen_aot/videos/R_S_yt-7K5X1G7Cpls_965.mp4	0.0	173.5926160812378	1.5249719619750977
32	109.73703598976135	response	0	2		30.0	2.5	/experiments/knapen_aot/videos/R_S_yt-7K5X1G7Cpls_965.mp4	0.0	175.1093680858612	
32	109.74525594711304	movie	1		301.0	30.0	2.5	/experiments/knapen_aot/videos/R_S_yt-7K5X1G7Cpls_965.mp4	0.0	175.1175880432129	2.508354902267456
32	112.2536108493805	fix_post	2		12.0	30.0	2.5	/experiments/knapen_aot/videos/R_S_yt-7K5X1G7Cpls_965.mp4	0.0	177.62594294548035	0.09994816780090332
33	112.3535590171814	fix_pre	0		169.0	31.0	2.5	/experiments/knapen_aot/videos/S_I003_C015_SDR_2K_AVC.mp4	0.0	177.72589111328125	1.4088349342346191
33	113.75371098518372	response	0	2		31.0	2.5	/experiments/knapen_aot/videos/S_I003_C015_SDR_2K_AVC.mp4	0.0	179.12604308128357	
33	113.76239395141602	movie	1		168.0	31.0	2.5	/experiments/knapen_aot/videos/S_I003_C015_SDR_2K_AVC.mp4	0.0	179.13472604751587	2.5078439712524414
33	116.27023792266846	fix_post	2		12.0	31.0	2.5	/experiments/knapen_aot/videos/S_I003_C015_SDR_2K_AVC.mp4	0.0	181.6425700187683	0.09991598129272461
34	116.37015390396118	fix_pre	0		112.0	32.0	2.5	/experiments/knapen_aot/videos/S_yt-SyePE8wOlxs_321.mp4	0.0	181.74248600006104	0.933892011642456
34	117.29528188705444	response	0	2		32.0	2.5	/experiments/knapen_aot/videos/S_yt-SyePE8wOlxs_321.mp4	0.0	182.6676139831543	
34	117.30404591560364	movie	1		301.0	32.0	2.5	/experiments/knapen_aot/videos/S_yt-SyePE8wOlxs_321.mp4	0.0	182.6763780117035	2.5078251361846924
34	119.81187105178833	fix_post	2		12.0	32.0	2.5	/experiments/knapen_aot/videos/S_yt-SyePE8wOlxs_321.mp4	0.0	185.18420314788818	0.10000085830688477
35	119.91187191009521	fix_pre	0		99.0	33.0	2.5	/experiments/knapen_aot/videos/R_S_Y009_C015_SDR_2K_AVC.mp4	0.0	185.28420400619507	0.8249819278717041
35	120.72882390022278	response	0	2		33.0	2.5	/experiments/knapen_aot/videos/R_S_Y009_C015_SDR_2K_AVC.mp4	0.0	186.10115599632263	
35	120.73685383796692	movie	1		175.0	33.0	2.5	/experiments/knapen_aot/videos/R_S_Y009_C015_SDR_2K_AVC.mp4	0.0	186.10918593406677	2.5083792209625244
35	123.24523305892944	fix_post	2		12.0	33.0	2.5	/experiments/knapen_aot/videos/R_S_Y009_C015_SDR_2K_AVC.mp4	0.0	188.6175651550293	0.10047292709350586
36	123.34570598602295	fix_pre	0		83.0	34.0	2.5	/experiments/knapen_aot/videos/R_S_yt-BqJHT4K7Qf8_127.mp4	0.0	188.7180380821228	0.6910989284515381
36	124.02867102622986	response	0	2		34.0	2.5	/experiments/knapen_aot/videos/R_S_yt-BqJHT4K7Qf8_127.mp4	0.0	189.4010031223297	
36	124.03680491447449	movie	1		301.0	34.0	2.5	/experiments/knapen_aot/videos/R_S_yt-BqJHT4K7Qf8_127.mp4	0.0	189.40913701057434	2.508373975753784
36	126.54517889022827	fix_post	2		12.0	34.0	2.5	/experiments/knapen_aot/videos/R_S_yt-BqJHT4K7Qf8_127.mp4	0.0	191.91751098632812	0.10002708435058594
37	126.64520597457886	fix_pre	0		125.0	35.0	2.5	blank	1.0	192.0175380706787	1.041611909866333
37	127.67859387397766	response	0	2		35.0	2.5	blank	1.0	193.05092597007751	
37	127.68681788444519	movie	1		301.0	35.0	2.5	blank	1.0	193.05914998054504	2.508329153060913
37	129.670245885849	response	1	2		35.0	2.5	blank	1.0	195.04257798194885	
37	130.1951470375061	fix_post	2		12.0	35.0	2.5	blank	1.0	195.56747913360596	0.10004997253417969
38	130.29519701004028	fix_pre	0		41.0	36.0	2.5	/experiments/knapen_aot/videos/S_ILSVRC2015_train_00638001.mp4	0.0	195.66752910614014	0.34200286865234375
38	130.6287350654602	response	0	2		36.0	2.5	/experiments/knapen_aot/videos/S_ILSVRC2015_train_00638001.mp4	0.0	196.00106716156006	
38	130.63719987869263	movie	1		301.0	36.0	2.5	/experiments/knapen_aot/videos/S_ILSVRC2015_train_00638001.mp4	0.0	196.00953197479248	2.508007049560547
38	133.14520692825317	fix_post	2		12.0	36.0	2.5	/experiments/knapen_aot/videos/S_ILSVRC2015_train_00638001.mp4	0.0	198.51753902435303	0.10003209114074707
39	133.24523901939392	fix_pre	0		55.0	37.0	2.5	/experiments/knapen_aot/videos/S_yt-ObT9gF8E_tU_250.mp4	0.0	198.61757111549377	0.45824193954467773
39	133.6952679157257	response	0	2		37.0	2.5	/experiments/knapen_aot/videos/S_yt-ObT9gF8E_tU_250.mp4	0.0	199.06760001182556	
39	133.7034809589386	movie	1		301.0	37.0	2.5	/experiments/knapen_aot/videos/S_yt-ObT9gF8E_tU_250.mp4	0.0	199.07581305503845	2.5083799362182617
39	136.21186089515686	fix_post	2		12.0	37.0	2.5	/experiments/knapen_aot/videos/S_yt-ObT9gF8E_tU_250.mp4	0.0	201.5841929912567	0.09996795654296875
40	136.31182885169983	fix_pre	0		191.0	38.0	2.5	/experiments/knapen_aot/videos/S_flickr-51283549@N02-23064904264_16.mp4	0.0	201.68416094779968	1.5915801525115967
40	137.89523601531982	response	0	2		38.0	2.5	/experiments/knapen_aot/videos/S_flickr-51283549@N02-23064904264_16.mp4	0.0	203.26756811141968	
40	137.90340900421143	movie	1		166.0	38.0	2.5	/experiments/knapen_aot/videos/S_flickr-51283549@N02-23064904264_16.mp4	0.0	203.27574110031128	2.5084269046783447
40	140.41183590888977	fix_post	2		12.0	38.0	2.5	/experiments/knapen_aot/videos/S_flickr-51283549@N02-23064904264_16.mp4	0.0	205.78416800498962	0.0999751091003418
41	140.5118110179901	fix_pre	0		86.0	39.0	2.5	/experiments/knapen_aot/videos/R_S_yt-OTNdgakSIJE_97.mp4	0.0	205.88414311408997	0.716641902923584
41	141.22012305259705	response	0	2		39.0	2.5	/experiments/knapen_aot/videos/R_S_yt-OTNdgakSIJE_97.mp4	0.0	206.5924551486969	
41	141.2284529209137	movie	1		301.0	39.0	2.5	/experiments/knapen_aot/videos/R_S_yt-OTNdgakSIJE_97.mp4	0.0	206.60078501701355	2.5082831382751465
41	143.73673605918884	fix_post	2		12.0	39.0	2.5	/experiments/knapen_aot/videos/R_S_yt-OTNdgakSIJE_97.mp4	0.0	209.1090681552887	0.10010385513305664
42	143.8368399143219	fix_pre	0		144.0	40.0	2.5	/experiments/knapen_aot/videos/R_S_yt-K7viJXt9vX8_143.mp4	0.0	209.20917201042175	1.1999170780181885
42	145.0285348892212	response	0	2		40.0	2.5	/experiments/knapen_aot/videos/R_S_yt-K7viJXt9vX8_143.mp4	0.0	210.40086698532104	
42	145.0367569923401	movie	1		301.0	40.0	2.5	/experiments/knapen_aot/videos/R_S_yt-K7viJXt9vX8_143.mp4	0.0	210.40908908843994	2.508341073989868
42	147.54509806632996	fix_post	2		12.0	40.0	2.5	/experiments/knapen_aot/videos/R_S_yt-K7viJXt9vX8_143.mp4	0.0	212.9174301624298	0.09998488426208496
43	147.64508295059204	fix_pre	0		76.0	41.0	2.5	/experiments/knapen_aot/videos/S_yt-7K5X1G7Cpls_965.mp4	0.0	213.0174150466919	0.6333620548248291
43	148.27021503448486	response	0	2		41.0	2.5	/experiments/knapen_aot/videos/S_yt-7K5X1G7Cpls_965.mp4	0.0	213.64254713058472	
43	148.27844500541687	movie	1		300.0	41.0	2.5	/experiments/knapen_aot/videos/S_yt-7K5X1G7Cpls_965.mp4	0.0	213.65077710151672	2.508283853530884
43	150.78672885894775	fix_post	2		12.0	41.0	2.5	/experiments/knapen_aot/videos/S_yt-7K5X1G7Cpls_965.mp4	0.0	216.1590609550476	0.1000211238861084
44	150.88674998283386	fix_pre	0		94.0	42.0	2.5	blank	1.0	216.25908207893372	0.7832939624786377
44	151.6617829799652	response	0	2		42.0	2.5	blank	1.0	217.03411507606506	
44	151.6700439453125	movie	1		301.0	42.0	2.5	blank	1.0	217.04237604141235	2.508373975753784
44	154.17841792106628	fix_post	2		12.0	42.0	2.5	blank	1.0	219.55075001716614	0.09994101524353027
44	154.1952030658722	response	2	2		42.0	2.5	blank	1.0	219.56753516197205	
45	154.27835893630981	fix_pre	0		75.0	43.0	2.5	/experiments/knapen_aot/videos/S_yt-etQaTgGOhR4_69.mp4	0.0	219.65069103240967	0.6249790191650391
45	154.89516592025757	response	0	2		43.0	2.5	/experiments/knapen_aot/videos/S_yt-etQaTgGOhR4_69.mp4	0.0	220.26749801635742	
45	154.90333795547485	movie	1		301.0	43.0	2.5	/experiments/knapen_aot/videos/S_yt-etQaTgGOhR4_69.mp4	0.0	220.2756700515747	2.5083301067352295
45	157.41166806221008	fix_post	2		12.0	43.0	2.5	/experiments/knapen_aot/videos/S_yt-etQaTgGOhR4_69.mp4	0.0	222.78400015830994	0.1000509262084961
46	157.51171898841858	fix_pre	0		79.0	44.0	2.5	/experiments/knapen_aot/videos/S_yt-3EZOeAbiMQE_10.mp4	0.0	222.88405108451843	0.6582858562469482
46	158.16184306144714	response	0	2		44.0	2.5	/experiments/knapen_aot/videos/S_yt-3EZOeAbiMQE_10.mp4	0.0	223.534175157547	
46	158.17000484466553	movie	1		301.0	44.0	2.5	/experiments/knapen_aot/videos/S_yt-3EZOeAbiMQE_10.mp4	0.0	223.54233694076538	2.508315086364746
46	160.67831993103027	fix_post	2		12.0	44.0	2.5	/experiments/knapen_aot/videos/S_yt-3EZOeAbiMQE_10.mp4	0.0	226.05065202713013	0.1000680923461914
47	160.77838802337646	fix_pre	0		182.0	45.0	2.5	/experiments/knapen_aot/videos/S_production_ID_5146014.mp4	0.0	226.15072011947632	1.516610860824585
47	162.2868139743805	response	0	2		45.0	2.5	/experiments/knapen_aot/videos/S_production_ID_5146014.mp4	0.0	227.65914607048035	
47	162.29499888420105	movie	1		166.0	45.0	2.5	/experiments/knapen_aot/videos/S_production_ID_5146014.mp4	0.0	227.6673309803009	2.5083060264587402
47	164.8033049106598	fix_post	2		12.0	45.0	2.5	/experiments/knapen_aot/videos/S_production_ID_5146014.mp4	0.0	230.17563700675964	0.10006403923034668
48	164.90336894989014	fix_pre	0		172.0	46.0	2.5	/experiments/knapen_aot/videos/S_pexels-koolshooters-7327401_1.mp4	0.0	230.27570104599	1.4332830905914307
48	166.32851004600525	response	0	2		46.0	2.5	/experiments/knapen_aot/videos/S_pexels-koolshooters-7327401_1.mp4	0.0	231.7008421421051	
48	166.33665204048157	movie	1		165.0	46.0	2.5	/experiments/knapen_aot/videos/S_pexels-koolshooters-7327401_1.mp4	0.0	231.70898413658142	2.5083839893341064
48	168.84503602981567	fix_post	2		12.0	46.0	2.5	/experiments/knapen_aot/videos/S_pexels-koolshooters-7327401_1.mp4	0.0	234.21736812591553	0.09993791580200195
49	168.94497394561768	fix_pre	0		161.0	47.0	2.5	blank	1.0	234.31730604171753	1.3416759967803955
49	170.2784779071808	response	0	2		47.0	2.5	blank	1.0	235.65081000328064	
49	170.28664994239807	movie	1		301.0	47.0	2.5	blank	1.0	235.65898203849792	2.5082778930664062
49	172.79492783546448	fix_post	2		12.0	47.0	2.5	blank	1.0	238.16725993156433	0.10006308555603027
50	172.8949909210205	fix_pre	0		33.0	48.0	2.5	/experiments/knapen_aot/videos/S_yt-7W50lcw5FCo_37.mp4	0.0	238.26732301712036	0.2749640941619873
50	173.1617259979248	response	0	2		48.0	2.5	/experiments/knapen_aot/videos/S_yt-7W50lcw5FCo_37.mp4	0.0	238.53405809402466	
50	173.1699550151825	movie	1		298.0	48.0	2.5	/experiments/knapen_aot/videos/S_yt-7W50lcw5FCo_37.mp4	0.0	238.54228711128235	2.5085439682006836
50	175.67849898338318	fix_post	2		12.0	48.0	2.5	/experiments/knapen_aot/videos/S_yt-7W50lcw5FCo_37.mp4	0.0	241.05083107948303	0.0998220443725586
51	175.77832102775574	fix_pre	0		118.0	49.0	2.5	/experiments/knapen_aot/videos/R_S_yt-qjg6kRxNXK8_217.mp4	0.0	241.1506531238556	0.9834628105163574
51	176.75333285331726	response	0	2		49.0	2.5	/experiments/knapen_aot/videos/R_S_yt-qjg6kRxNXK8_217.mp4	0.0	242.12566494941711	
51	176.7617838382721	movie	1		301.0	49.0	2.5	/experiments/knapen_aot/videos/R_S_yt-qjg6kRxNXK8_217.mp4	0.0	242.13411593437195	2.5081851482391357
51	179.26996898651123	fix_post	2		12.0	49.0	2.5	/experiments/knapen_aot/videos/R_S_yt-qjg6kRxNXK8_217.mp4	0.0	244.64230108261108	0.09997892379760742
52	179.36994791030884	fix_pre	0		453.0	50.0	2.5	/experiments/knapen_aot/videos/R_S_pexels-tima-miroshnichenko-6077718.mp4	0.0	244.7422800064087	3.774928092956543
52	183.13669800758362	response	0	2		50.0	2.5	/experiments/knapen_aot/videos/R_S_pexels-tima-miroshnichenko-6077718.mp4	0.0	248.50903010368347	
52	183.14487600326538	movie	1		165.0	50.0	2.5	/experiments/knapen_aot/videos/R_S_pexels-tima-miroshnichenko-6077718.mp4	0.0	248.51720809936523	2.5084128379821777
52	185.65328884124756	fix_post	2		12.0	50.0	2.5	/experiments/knapen_aot/videos/R_S_pexels-tima-miroshnichenko-6077718.mp4	0.0	251.0256209373474	0.10004019737243652
53	185.75332903862	fix_pre	0		130.0	51.0	2.5	/experiments/knapen_aot/videos/R_S_yt-GETRVzxihhM_74.mp4	0.0	251.12566113471985	1.083258867263794
53	186.8283839225769	response	0	2		51.0	2.5	/experiments/knapen_aot/videos/R_S_yt-GETRVzxihhM_74.mp4	0.0	252.20071601867676	
53	186.8365879058838	movie	1		301.0	51.0	2.5	/experiments/knapen_aot/videos/R_S_yt-GETRVzxihhM_74.mp4	0.0	252.20892000198364	2.5084309577941895
53	189.34501886367798	fix_post	2		12.0	51.0	2.5	/experiments/knapen_aot/videos/R_S_yt-GETRVzxihhM_74.mp4	0.0	254.71735095977783	0.09987211227416992
54	189.44489097595215	fix_pre	0		101.0	52.0	2.5	/experiments/knapen_aot/videos/R_S_video_inspire_california_big-sur_bixby_005.1080-h264.mp4	0.0	254.817223072052	0.8416399955749512
54	190.27835488319397	response	0	2		52.0	2.5	/experiments/knapen_aot/videos/R_S_video_inspire_california_big-sur_bixby_005.1080-h264.mp4	0.0	255.65068697929382	
54	190.2865309715271	movie	1		172.0	52.0	2.5	/experiments/knapen_aot/videos/R_S_video_inspire_california_big-sur_bixby_005.1080-h264.mp4	0.0	255.65886306762695	2.5083680152893066
54	192.7948989868164	fix_post	2		11.0	52.0	2.5	/experiments/knapen_aot/videos/R_S_video_inspire_california_big-sur_bixby_005.1080-h264.mp4	0.0	258.16723108291626	0.10003304481506348
55	192.89493203163147	fix_pre	0		160.0	53.0	2.5	/experiments/knapen_aot/videos/R_S_ILSVRC2015_train_00638001.mp4	0.0	258.2672641277313	1.3333358764648438
55	194.22005486488342	response	0	2		53.0	2.5	/experiments/knapen_aot/videos/R_S_ILSVRC2015_train_00638001.mp4	0.0	259.5923869609833	
55	194.2282679080963	movie	1		301.0	53.0	2.5	/experiments/knapen_aot/videos/R_S_ILSVRC2015_train_00638001.mp4	0.0	259.60060000419617	2.5082831382751465
55	196.73655104637146	fix_post	2		12.0	53.0	2.5	/experiments/knapen_aot/videos/R_S_ILSVRC2015_train_00638001.mp4	0.0	262.1088831424713	0.10002684593200684
56	196.83657789230347	fix_pre	0		66.0	54.0	2.5	/experiments/knapen_aot/videos/S_comp_GMT314_139M_170NC_NORTH_AMERICA_AURORA__COMP_v22_SDR_20181206_v12CC_SDR_2K_AVC.mp4	0.0	262.2089099884033	0.5500080585479736
56	197.3783118724823	response	0	2		54.0	2.5	/experiments/knapen_aot/videos/S_comp_GMT314_139M_170NC_NORTH_AMERICA_AURORA__COMP_v22_SDR_20181206_v12CC_SDR_2K_AVC.mp4	0.0	262.75064396858215	
56	197.38658595085144	movie	1		165.0	54.0	2.5	/experiments/knapen_aot/videos/S_comp_GMT314_139M_170NC_NORTH_AMERICA_AURORA__COMP_v22_SDR_20181206_v12CC_SDR_2K_AVC.mp4	0.0	262.7589180469513	2.508302927017212
56	199.89488887786865	fix_post	2		12.0	54.0	2.5	/experiments/knapen_aot/videos/S_comp_GMT314_139M_170NC_NORTH_AMERICA_AURORA__COMP_v22_SDR_20181206_v12CC_SDR_2K_AVC.mp4	0.0	265.2672209739685	0.10004115104675293
57	199.9949300289154	fix_pre	0		257.0	55.0	2.5	blank	1.0	265.36726212501526	2.1416969299316406
57	202.12827396392822	response	0	2		55.0	2.5	blank	1.0	267.5006060600281	
57	202.13662695884705	movie	1		301.0	55.0	2.5	blank	1.0	267.5089590549469	2.5082550048828125
57	204.64488196372986	fix_post	2		12.0	55.0	2.5	blank	1.0	270.0172140598297	0.09998106956481934
58	204.74486303329468	fix_pre	0		172.0	56.0	2.5	/experiments/knapen_aot/videos/S_yt-26obL-Z5obg_131.mp4	0.0	270.11719512939453	1.4333219528198242
58	206.16989588737488	response	0	2		56.0	2.5	/experiments/knapen_aot/videos/S_yt-26obL-Z5obg_131.mp4	0.0	271.54222798347473	
58	206.1781849861145	movie	1		299.0	56.0	2.5	/experiments/knapen_aot/videos/S_yt-26obL-Z5obg_131.mp4	0.0	271.55051708221436	2.5083398818969727
58	208.68652486801147	fix_post	2		12.0	56.0	2.5	/experiments/knapen_aot/videos/S_yt-26obL-Z5obg_131.mp4	0.0	274.0588569641113	0.09999513626098633
59	208.78652000427246	fix_pre	0		131.0	57.0	2.5	/experiments/knapen_aot/videos/R_S_yt-UojTppgtyCE_121.mp4	0.0	274.1588521003723	1.0916359424591064
59	209.86989092826843	response	0	2		57.0	2.5	/experiments/knapen_aot/videos/R_S_yt-UojTppgtyCE_121.mp4	0.0	275.2422230243683	
59	209.87815594673157	movie	1		301.0	57.0	2.5	/experiments/knapen_aot/videos/R_S_yt-UojTppgtyCE_121.mp4	0.0	275.2504880428314	2.508347988128662
59	212.38650393486023	fix_post	2		12.0	57.0	2.5	/experiments/knapen_aot/videos/R_S_yt-UojTppgtyCE_121.mp4	0.0	277.7588360309601	0.09997797012329102
60	212.48648190498352	fix_pre	0		46.0	58.0	2.5	/experiments/knapen_aot/videos/R_S_yt-wPXrAuiiRZg_1062.mp4	0.0	277.8588140010834	0.38335609436035156
60	212.86160802841187	response	0	2		58.0	2.5	/experiments/knapen_aot/videos/R_S_yt-wPXrAuiiRZg_1062.mp4	0.0	278.2339401245117	
60	212.86983799934387	movie	1		301.0	58.0	2.5	/experiments/knapen_aot/videos/R_S_yt-wPXrAuiiRZg_1062.mp4	0.0	278.2421700954437	2.508297920227051
60	215.37813591957092	fix_post	2		12.0	58.0	2.5	/experiments/knapen_aot/videos/R_S_yt-wPXrAuiiRZg_1062.mp4	0.0	280.7504680156708	0.09989595413208008
61	215.478031873703	fix_pre	0		99.0	59.0	2.5	/experiments/knapen_aot/videos/R_S_ILSVRC2015_train_00756000.mp4	0.0	280.85036396980286	0.8250930309295654
61	216.2951579093933	response	0	2		59.0	2.5	/experiments/knapen_aot/videos/R_S_ILSVRC2015_train_00756000.mp4	0.0	281.66749000549316	
61	216.30312490463257	movie	1		301.0	59.0	2.5	/experiments/knapen_aot/videos/R_S_ILSVRC2015_train_00756000.mp4	0.0	281.6754570007324	2.508315086364746
61	218.81143999099731	fix_post	2		12.0	59.0	2.5	/experiments/knapen_aot/videos/R_S_ILSVRC2015_train_00756000.mp4	0.0	284.18377208709717	0.10004091262817383
62	218.9114809036255	fix_pre	0		115.0	60.0	2.5	/experiments/knapen_aot/videos/S_8amznWxLS04_212.mp4	0.0	284.28381299972534	0.9583051204681396
62	219.86154198646545	response	0	2		60.0	2.5	/experiments/knapen_aot/videos/S_8amznWxLS04_212.mp4	0.0	285.2338740825653	
62	219.86978602409363	movie	1		301.0	60.0	2.5	/experiments/knapen_aot/videos/S_8amznWxLS04_212.mp4	0.0	285.2421181201935	2.5083699226379395
62	222.37815594673157	fix_post	2		12.0	60.0	2.5	/experiments/knapen_aot/videos/S_8amznWxLS04_212.mp4	0.0	287.7504880428314	0.10001897811889648
63	222.47817492485046	fix_pre	0		81.0	61.0	2.5	/experiments/knapen_aot/videos/S_ILSVRC2015_train_00507000.mp4	0.0	287.8505070209503	0.6748640537261963
63	223.14487504959106	response	0	2		61.0	2.5	/experiments/knapen_aot/videos/S_ILSVRC2015_train_00507000.mp4	0.0	288.5172071456909	
63	223.15303897857666	movie	1		299.0	61.0	2.5	/experiments/knapen_aot/videos/S_ILSVRC2015_train_00507000.mp4	0.0	288.5253710746765	2.508344888687134
63	225.6613838672638	fix_post	2		12.0	61.0	2.5	/experiments/knapen_aot/videos/S_ILSVRC2015_train_00507000.mp4	0.0	291.03371596336365	0.10002613067626953
64	225.76140999794006	fix_pre	0		115.0	62.0	2.5	blank	1.0	291.1337420940399	0.958345890045166
64	226.7115569114685	response	0	2		62.0	2.5	blank	1.0	292.08388900756836	
64	226.71975588798523	movie	1		301.0	62.0	2.5	blank	1.0	292.0920879840851	2.5083160400390625
64	229.2280719280243	fix_post	2		12.0	62.0	2.5	blank	1.0	294.60040402412415	0.09997701644897461
65	229.32804894447327	fix_pre	0		46.0	63.0	2.5	/experiments/knapen_aot/videos/R_S_comp_GMT312_162NC_139M_1041_AFRICA_NIGHT_v14_SDR_FINAL_20180706_SDR_2K_AVC.mp4	0.0	294.7003810405731	0.3846569061279297
65	229.70323395729065	response	0	2		63.0	2.5	/experiments/knapen_aot/videos/R_S_comp_GMT312_162NC_139M_1041_AFRICA_NIGHT_v14_SDR_FINAL_20180706_SDR_2K_AVC.mp4	0.0	295.0755660533905	
65	229.7127058506012	movie	1		167.0	63.0	2.5	/experiments/knapen_aot/videos/R_S_comp_GMT312_162NC_139M_1041_AFRICA_NIGHT_v14_SDR_FINAL_20180706_SDR_2K_AVC.mp4	0.0	295.08503794670105	2.507047176361084
65	232.21975302696228	fix_post	2		12.0	63.0	2.5	/experiments/knapen_aot/videos/R_S_comp_GMT312_162NC_139M_1041_AFRICA_NIGHT_v14_SDR_FINAL_20180706_SDR_2K_AVC.mp4	0.0	297.59208512306213	0.1000208854675293
66	232.3197739124298	fix_pre	0		112.0	64.0	2.5	/experiments/knapen_aot/videos/R_S_yt-lv6mhnH7_g4_134.mp4	0.0	297.69210600852966	0.9332540035247803
66	233.24480986595154	response	0	2		64.0	2.5	/experiments/knapen_aot/videos/R_S_yt-lv6mhnH7_g4_134.mp4	0.0	298.6171419620514	
66	233.2530279159546	movie	1		301.0	64.0	2.5	/experiments/knapen_aot/videos/R_S_yt-lv6mhnH7_g4_134.mp4	0.0	298.62536001205444	2.5084049701690674
66	235.76143288612366	fix_post	2		12.0	64.0	2.5	/experiments/knapen_aot/videos/R_S_yt-lv6mhnH7_g4_134.mp4	0.0	301.1337649822235	0.09996199607849121
67	235.86139488220215	fix_pre	0		112.0	65.0	2.5	/experiments/knapen_aot/videos/R_S_yt-jzDaQD-g168_103.mp4	0.0	301.233726978302	0.9345569610595703
67	236.78646206855774	response	0	2		65.0	2.5	/experiments/knapen_aot/videos/R_S_yt-jzDaQD-g168_103.mp4	0.0	302.1587941646576	
67	236.79595184326172	movie	1		301.0	65.0	2.5	/experiments/knapen_aot/videos/R_S_yt-jzDaQD-g168_103.mp4	0.0	302.1682839393616	2.50712513923645
67	239.30307698249817	fix_post	2		12.0	65.0	2.5	/experiments/knapen_aot/videos/R_S_yt-jzDaQD-g168_103.mp4	0.0	304.675409078598	0.10003089904785156
68	239.40310788154602	fix_pre	0		31.0	66.0	2.5	/experiments/knapen_aot/videos/S_yt-YeT4acsbqok_210.mp4	0.0	304.7754399776459	0.25826001167297363
68	239.65314197540283	response	0	2		66.0	2.5	/experiments/knapen_aot/videos/S_yt-YeT4acsbqok_210.mp4	0.0	305.0254740715027	
68	239.661367893219	movie	1		301.0	66.0	2.5	/experiments/knapen_aot/videos/S_yt-YeT4acsbqok_210.mp4	0.0	305.03369998931885	2.508512020111084
68	242.16987991333008	fix_post	2		12.0	66.0	2.5	/experiments/knapen_aot/videos/S_yt-YeT4acsbqok_210.mp4	0.0	307.54221200942993	0.09986996650695801
69	242.26974987983704	fix_pre	0		90.0	67.0	2.5	/experiments/knapen_aot/videos/S_bing-www_msn_com_en-us_video_news_tommy-lasorda-salutes-national-league-champs_vp-AAtLThQ_4.mp4	0.0	307.6420819759369	0.7498660087585449
69	243.0114929676056	response	0	2		67.0	2.5	/experiments/knapen_aot/videos/S_bing-www_msn_com_en-us_video_news_tommy-lasorda-salutes-national-league-champs_vp-AAtLThQ_4.mp4	0.0	308.38382506370544	
69	243.01961588859558	movie	1		163.0	67.0	2.5	/experiments/knapen_aot/videos/S_bing-www_msn_com_en-us_video_news_tommy-lasorda-salutes-national-league-champs_vp-AAtLThQ_4.mp4	0.0	308.39194798469543	2.508458137512207
69	245.5280740261078	fix_post	2		12.0	67.0	2.5	/experiments/knapen_aot/videos/S_bing-www_msn_com_en-us_video_news_tommy-lasorda-salutes-national-league-champs_vp-AAtLThQ_4.mp4	0.0	310.90040612220764	0.09997200965881348
70	245.6280460357666	fix_pre	0		96.0	68.0	2.5	/experiments/knapen_aot/videos/S_yt-Snha8C5YOiY_26.mp4	0.0	311.00037813186646	0.7999470233917236
70	246.41985988616943	response	0	2		68.0	2.5	/experiments/knapen_aot/videos/S_yt-Snha8C5YOiY_26.mp4	0.0	311.7921919822693	
70	246.42799305915833	movie	1		301.0	68.0	2.5	/experiments/knapen_aot/videos/S_yt-Snha8C5YOiY_26.mp4	0.0	311.8003251552582	2.508380889892578
70	248.9363739490509	fix_post	2		12.0	68.0	2.5	/experiments/knapen_aot/videos/S_yt-Snha8C5YOiY_26.mp4	0.0	314.30870604515076	0.09997797012329102
71	249.0363519191742	fix_pre	0		56.0	69.0	2.5	blank	1.0	314.40868401527405	0.4665989875793457
71	249.4948010444641	response	0	2		69.0	2.5	blank	1.0	314.86713314056396	
71	249.50295090675354	movie	1		301.0	69.0	2.5	blank	1.0	314.8752830028534	2.5083539485931396
71	252.01130485534668	fix_post	2		11.0	69.0	2.5	blank	1.0	317.38363695144653	0.10001015663146973
72	252.11131501197815	fix_pre	0		20.0	70.0	2.5	/experiments/knapen_aot/videos/R_S_yt-ak01CHYgEOs_1383.mp4	0.0	317.483647108078	0.1666548252105713
72	252.26963901519775	response	0	2		70.0	2.5	/experiments/knapen_aot/videos/R_S_yt-ak01CHYgEOs_1383.mp4	0.0	317.6419711112976	
72	252.27796983718872	movie	1		301.0	70.0	2.5	/experiments/knapen_aot/videos/R_S_yt-ak01CHYgEOs_1383.mp4	0.0	317.6503019332886	2.5083510875701904
72	254.7863209247589	fix_post	2		12.0	70.0	2.5	/experiments/knapen_aot/videos/R_S_yt-ak01CHYgEOs_1383.mp4	0.0	320.15865302085876	0.09997010231018066
73	254.8862910270691	fix_pre	0		96.0	71.0	2.5	/experiments/knapen_aot/videos/S_ILSVRC2015_train_00405001.mp4	0.0	320.25862312316895	0.7999758720397949
73	255.67803692817688	response	0	2		71.0	2.5	/experiments/knapen_aot/videos/S_ILSVRC2015_train_00405001.mp4	0.0	321.05036902427673	
73	255.6862668991089	movie	1		300.0	71.0	2.5	/experiments/knapen_aot/videos/S_ILSVRC2015_train_00405001.mp4	0.0	321.05859899520874	2.508394956588745
73	258.19466185569763	fix_post	2		12.0	71.0	2.5	/experiments/knapen_aot/videos/S_ILSVRC2015_train_00405001.mp4	0.0	323.5669939517975	0.10002017021179199
74	258.2946820259094	fix_pre	0		81.0	72.0	2.5	/experiments/knapen_aot/videos/R_S_ILSVRC2015_train_00599000.mp4	0.0	323.6670141220093	0.6749558448791504
74	258.9614088535309	response	0	2		72.0	2.5	/experiments/knapen_aot/videos/R_S_ILSVRC2015_train_00599000.mp4	0.0	324.33374094963074	
74	258.9696378707886	movie	1		301.0	72.0	2.5	/experiments/knapen_aot/videos/R_S_ILSVRC2015_train_00599000.mp4	0.0	324.3419699668884	2.5083250999450684
74	261.47796297073364	fix_post	2		12.0	72.0	2.5	/experiments/knapen_aot/videos/R_S_ILSVRC2015_train_00599000.mp4	0.0	326.8502950668335	0.09992003440856934
75	261.5778830051422	fix_pre	0		22.0	73.0	2.5	/experiments/knapen_aot/videos/S_yt-XtzmBXKYEWk_60.mp4	0.0	326.95021510124207	0.18330788612365723
75	261.7530779838562	response	0	2		73.0	2.5	/experiments/knapen_aot/videos/S_yt-XtzmBXKYEWk_60.mp4	0.0	327.12541007995605	
75	261.76119089126587	movie	1		301.0	73.0	2.5	/experiments/knapen_aot/videos/S_yt-XtzmBXKYEWk_60.mp4	0.0	327.1335229873657	2.5083651542663574
75	264.2695560455322	fix_post	2		12.0	73.0	2.5	/experiments/knapen_aot/videos/S_yt-XtzmBXKYEWk_60.mp4	0.0	329.6418881416321	0.10008382797241211
76	264.36963987350464	fix_pre	0		25.0	74.0	2.5	/experiments/knapen_aot/videos/R_S_yt-Nnt51ug6NF8_53.mp4	0.0	329.7419719696045	0.2082810401916504
76	264.5697100162506	response	0	2		74.0	2.5	/experiments/knapen_aot/videos/R_S_yt-Nnt51ug6NF8_53.mp4	0.0	329.94204211235046	
76	264.5779209136963	movie	1		300.0	74.0	2.5	/experiments/knapen_aot/videos/R_S_yt-Nnt51ug6NF8_53.mp4	0.0	329.95025300979614	2.5083470344543457
76	267.08626794815063	fix_post	2		12.0	74.0	2.5	/experiments/knapen_aot/videos/R_S_yt-Nnt51ug6NF8_53.mp4	0.0	332.4586000442505	0.09999990463256836
77	267.1862678527832	fix_pre	0		80.0	75.0	2.5	blank	1.0	332.55859994888306	0.6666491031646729
77	267.8446829319	response	0	2		75.0	2.5	blank	1.0	333.2170150279999	
77	267.8529169559479	movie	1		301.0	75.0	2.5	blank	1.0	333.22524905204773	2.508347988128662
77	270.36126494407654	fix_post	2		12.0	75.0	2.5	blank	1.0	335.7335970401764	0.09995102882385254
78	270.4612159729004	fix_pre	0		408.0	76.0	2.5	/experiments/knapen_aot/videos/S_yt-jzDaQD-g168_103.mp4	0.0	335.83354806900024	3.4000070095062256
78	273.8528940677643	response	0	2		76.0	2.5	/experiments/knapen_aot/videos/S_yt-jzDaQD-g168_103.mp4	0.0	339.22522616386414	
78	273.8612229824066	movie	1		301.0	76.0	2.5	/experiments/knapen_aot/videos/S_yt-jzDaQD-g168_103.mp4	0.0	339.23355507850647	2.5083398818969727
78	276.3695628643036	fix_post	2		12.0	76.0	2.5	/experiments/knapen_aot/videos/S_yt-jzDaQD-g168_103.mp4	0.0	341.74189496040344	0.10000419616699219
79	276.4695670604706	fix_pre	0		128.0	77.0	2.5	/experiments/knapen_aot/videos/S_ILSVRC2015_train_00373000.mp4	0.0	341.84189915657043	1.0666418075561523
79	277.5279529094696	response	0	2		77.0	2.5	/experiments/knapen_aot/videos/S_ILSVRC2015_train_00373000.mp4	0.0	342.90028500556946	
79	277.53620886802673	movie	1		301.0	77.0	2.5	/experiments/knapen_aot/videos/S_ILSVRC2015_train_00373000.mp4	0.0	342.9085409641266	2.50828218460083
79	280.04449105262756	fix_post	2		12.0	77.0	2.5	/experiments/knapen_aot/videos/S_ILSVRC2015_train_00373000.mp4	0.0	345.4168231487274	0.10005784034729004
80	280.14454889297485	fix_pre	0		50.0	78.0	2.5	/experiments/knapen_aot/videos/S_yt-2jVJb1PR2XA_16.mp4	0.0	345.5168809890747	0.41662096977233887
80	280.5530049800873	response	0	2		78.0	2.5	/experiments/knapen_aot/videos/S_yt-2jVJb1PR2XA_16.mp4	0.0	345.92533707618713	
80	280.5611698627472	movie	1		301.0	78.0	2.5	/experiments/knapen_aot/videos/S_yt-2jVJb1PR2XA_16.mp4	0.0	345.93350195884705	2.5083820819854736
80	283.06955194473267	fix_post	2		12.0	78.0	2.5	/experiments/knapen_aot/videos/S_yt-2jVJb1PR2XA_16.mp4	0.0	348.4418840408325	0.10000109672546387
81	283.16955304145813	fix_pre	0		79.0	79.0	2.5	/experiments/knapen_aot/videos/R_S_yt-GETRVzxihhM_74.mp4	0.0	348.541885137558	0.6582989692687988
81	283.8195769786835	response	0	2		79.0	2.5	/experiments/knapen_aot/videos/R_S_yt-GETRVzxihhM_74.mp4	0.0	349.1919090747833	
81	283.82785201072693	movie	1		301.0	79.0	2.5	/experiments/knapen_aot/videos/R_S_yt-GETRVzxihhM_74.mp4	0.0	349.2001841068268	2.5083260536193848
81	286.3361780643463	fix_post	2		12.0	79.0	2.5	/experiments/knapen_aot/videos/R_S_yt-GETRVzxihhM_74.mp4	0.0	351.70851016044617	0.10002899169921875
82	286.43620705604553	fix_pre	0		133.0	80.0	2.5	/experiments/knapen_aot/videos/R_S_I003_C015_SDR_2K_AVC.mp4	0.0	351.8085391521454	1.109299898147583
82	287.5362238883972	response	0	2		80.0	2.5	/experiments/knapen_aot/videos/R_S_I003_C015_SDR_2K_AVC.mp4	0.0	352.90855598449707	
82	287.5455069541931	movie	1		173.0	80.0	2.5	/experiments/knapen_aot/videos/R_S_I003_C015_SDR_2K_AVC.mp4	0.0	352.91783905029297	2.507244110107422
82	290.05275106430054	fix_post	2		12.0	80.0	2.5	/experiments/knapen_aot/videos/R_S_I003_C015_SDR_2K_AVC.mp4	0.0	355.4250831604004	0.10003781318664551
83	290.1527888774872	fix_pre	0		225.0	81.0	2.5	/experiments/knapen_aot/videos/R_S_wc-0SAXOWjdNVGC_8.mp4	0.0	355.52512097358704	1.8749840259552002
83	292.01955699920654	response	0	2		81.0	2.5	/experiments/knapen_aot/videos/R_S_wc-0SAXOWjdNVGC_8.mp4	0.0	357.3918890953064	
83	292.0277729034424	movie	1		164.0	81.0	2.5	/experiments/knapen_aot/videos/R_S_wc-0SAXOWjdNVGC_8.mp4	0.0	357.40010499954224	2.508392095565796
83	294.5361649990082	fix_post	2		12.0	81.0	2.5	/experiments/knapen_aot/videos/R_S_wc-0SAXOWjdNVGC_8.mp4	0.0	359.90849709510803	0.09999299049377441
84	294.63615798950195	fix_pre	0		60.0	82.0	2.5	blank	1.0	360.0084900856018	0.4999358654022217
84	295.1278738975525	response	0	2		82.0	2.5	blank	1.0	360.50020599365234	
84	295.1360938549042	movie	1		301.0	82.0	2.5	blank	1.0	360.508425951004	2.5083961486816406
84	296.9196219444275	response	1	2		82.0	2.5	blank	1.0	362.29195404052734	
84	297.6444900035858	fix_post	2		11.0	82.0	2.5	blank	1.0	363.01682209968567	0.10000205039978027
85	297.7444920539856	fix_pre	0		41.0	83.0	2.5	/experiments/knapen_aot/videos/R_S_production_ID_5146014.mp4	0.0	363.11682415008545	0.34253883361816406
85	298.0778498649597	response	0	2		83.0	2.5	/experiments/knapen_aot/videos/R_S_production_ID_5146014.mp4	0.0	363.45018196105957	
85	298.08703088760376	movie	1		167.0	83.0	2.5	/experiments/knapen_aot/videos/R_S_production_ID_5146014.mp4	0.0	363.4593629837036	2.50742506980896
85	300.5944559574127	fix_post	2		12.0	83.0	2.5	/experiments/knapen_aot/videos/R_S_production_ID_5146014.mp4	0.0	365.9667880535126	0.09999704360961914
87	300.69445300102234	stim	0		375.0					366.0667850971222	3.124911069869995
87	303.8136968612671	response	0	space						369.18602895736694	
