trial_nr	onset	event_type	phase	response	nr_frames	movie_index	movie_duration	movie_file	blank	onset_abs	duration
0	0.12491393089294434	stim	0		30.0					113.42861294746399	0.25002503395080566
0	0.36687302589416504	response	0	space						113.67057204246521	
1	0.37493896484375	stim	0		121.0					113.6786379814148	1.0083599090576172
1	0.8750879764556885	response	0	space						114.17878699302673	
1	1.2499680519104004	response	0	space						114.55366706848145	
1	1.3832988739013672	stim	1		120.0					114.68699789047241	0.9996380805969238
1	2.1165239810943604	response	1	space						115.4202229976654	
2	2.382936954498291	fix_pre	0		10.0	0.0	2.5	/experiments/knapen_aot/videos/S_yt-9t5-3Qe_t9A_591.mp4	0.0	115.68663597106934	0.08331799507141113
2	2.45810604095459	response	0	space		0.0	2.5	/experiments/knapen_aot/videos/S_yt-9t5-3Qe_t9A_591.mp4	0.0	115.76180505752563	
2	2.466254949569702	movie	1		301.0	0.0	2.5	/experiments/knapen_aot/videos/S_yt-9t5-3Qe_t9A_591.mp4	0.0	115.76995396614075	2.5083611011505127
2	4.974616050720215	fix_post	2		12.0	0.0	2.5	/experiments/knapen_aot/videos/S_yt-9t5-3Qe_t9A_591.mp4	0.0	118.27831506729126	0.10003399848937988
3	5.074650049209595	fix_pre	0		81.0	1.0	2.5	/experiments/knapen_aot/videos/R_S_yt-CLX1rmSf2Rs_194.mp4	0.0	118.37834906578064	0.674879789352417
3	5.744807958602905	response	0	2		1.0	2.5	/experiments/knapen_aot/videos/R_S_yt-CLX1rmSf2Rs_194.mp4	0.0	119.04850697517395	
3	5.749529838562012	movie	1		300.0	1.0	2.5	/experiments/knapen_aot/videos/R_S_yt-CLX1rmSf2Rs_194.mp4	0.0	119.05322885513306	2.5083420276641846
3	8.257871866226196	fix_post	2		12.0	1.0	2.5	/experiments/knapen_aot/videos/R_S_yt-CLX1rmSf2Rs_194.mp4	0.0	121.56157088279724	0.10003304481506348
4	8.35790491104126	fix_pre	0		97.0	2.0	2.5	/experiments/knapen_aot/videos/R_S_yt-BrepyEWKrPQ_20.mp4	0.0	121.6616039276123	0.8083360195159912
4	9.158252000808716	response	0	2		2.0	2.5	/experiments/knapen_aot/videos/R_S_yt-BrepyEWKrPQ_20.mp4	0.0	122.46195101737976	
4	9.166240930557251	movie	1		301.0	2.0	2.5	/experiments/knapen_aot/videos/R_S_yt-BrepyEWKrPQ_20.mp4	0.0	122.4699399471283	2.5083439350128174
4	11.674584865570068	fix_post	2		12.0	2.0	2.5	/experiments/knapen_aot/videos/R_S_yt-BrepyEWKrPQ_20.mp4	0.0	124.97828388214111	0.09992599487304688
5	11.774510860443115	fix_pre	0		93.0	3.0	2.5	/experiments/knapen_aot/videos/R_S_yt-uWeU2s6JYyk_10.mp4	0.0	125.07820987701416	0.7750380039215088
5	12.541264057159424	response	0	2		3.0	2.5	/experiments/knapen_aot/videos/R_S_yt-uWeU2s6JYyk_10.mp4	0.0	125.84496307373047	
5	12.549548864364624	movie	1		301.0	3.0	2.5	/experiments/knapen_aot/videos/R_S_yt-uWeU2s6JYyk_10.mp4	0.0	125.85324788093567	2.508324146270752
5	15.057873010635376	fix_post	2		12.0	3.0	2.5	/experiments/knapen_aot/videos/R_S_yt-uWeU2s6JYyk_10.mp4	0.0	128.36157202720642	0.10002994537353516
6	15.157902956008911	fix_pre	0		77.0	4.0	2.5	/experiments/knapen_aot/videos/R_S_yt-4ouMuGUuPHI_193.mp4	0.0	128.46160197257996	0.6416149139404297
6	15.791343927383423	response	0	2		4.0	2.5	/experiments/knapen_aot/videos/R_S_yt-4ouMuGUuPHI_193.mp4	0.0	129.09504294395447	
6	15.79951786994934	movie	1		301.0	4.0	2.5	/experiments/knapen_aot/videos/R_S_yt-4ouMuGUuPHI_193.mp4	0.0	129.10321688652039	2.5083320140838623
6	18.307849884033203	fix_post	2		12.0	4.0	2.5	/experiments/knapen_aot/videos/R_S_yt-4ouMuGUuPHI_193.mp4	0.0	131.61154890060425	0.10002398490905762
7	18.40787386894226	fix_pre	0		79.0	5.0	2.5	/experiments/knapen_aot/videos/S_comp_A001_C001_120530_v04_SDR_FINAL_20180706_SDR_2K_AVC.mp4	0.0	131.7115728855133	0.6582770347595215
7	19.05802297592163	response	0	2		5.0	2.5	/experiments/knapen_aot/videos/S_comp_A001_C001_120530_v04_SDR_FINAL_20180706_SDR_2K_AVC.mp4	0.0	132.36172199249268	
7	19.066150903701782	movie	1		165.0	5.0	2.5	/experiments/knapen_aot/videos/S_comp_A001_C001_120530_v04_SDR_FINAL_20180706_SDR_2K_AVC.mp4	0.0	132.36984992027283	2.5083210468292236
7	21.574471950531006	fix_post	2		12.0	5.0	2.5	/experiments/knapen_aot/videos/S_comp_A001_C001_120530_v04_SDR_FINAL_20180706_SDR_2K_AVC.mp4	0.0	134.87817096710205	0.10005903244018555
8	21.67453098297119	fix_pre	0		62.0	6.0	2.5	/experiments/knapen_aot/videos/S_production_ID_4360158.mp4	0.0	134.97822999954224	0.5166280269622803
8	22.182999849319458	response	0	2		6.0	2.5	/experiments/knapen_aot/videos/S_production_ID_4360158.mp4	0.0	135.4866988658905	
8	22.19115900993347	movie	1		169.0	6.0	2.5	/experiments/knapen_aot/videos/S_production_ID_4360158.mp4	0.0	135.49485802650452	2.508375883102417
8	24.69953489303589	fix_post	2		12.0	6.0	2.5	/experiments/knapen_aot/videos/S_production_ID_4360158.mp4	0.0	138.00323390960693	0.09991598129272461
9	24.799450874328613	fix_pre	0		69.0	7.0	2.5	blank	1.0	138.10314989089966	0.5750010013580322
9	25.366278886795044	response	0	2		7.0	2.5	blank	1.0	138.6699779033661	
9	25.374451875686646	movie	1		301.0	7.0	2.5	blank	1.0	138.6781508922577	2.5083630084991455
9	27.88281488418579	fix_post	2		11.0	7.0	2.5	blank	1.0	141.18651390075684	0.10001611709594727
10	27.98283100128174	fix_pre	0		113.0	8.0	2.5	/experiments/knapen_aot/videos/R_S_pexels-tima-miroshnichenko-6077718.mp4	0.0	141.28653001785278	0.9415578842163086
10	28.916264057159424	response	0	2		8.0	2.5	/experiments/knapen_aot/videos/R_S_pexels-tima-miroshnichenko-6077718.mp4	0.0	142.21996307373047	
10	28.924388885498047	movie	1		165.0	8.0	2.5	/experiments/knapen_aot/videos/R_S_pexels-tima-miroshnichenko-6077718.mp4	0.0	142.2280879020691	2.5085110664367676
10	31.432899951934814	fix_post	2		12.0	8.0	2.5	/experiments/knapen_aot/videos/R_S_pexels-tima-miroshnichenko-6077718.mp4	0.0	144.73659896850586	0.0999460220336914
11	31.532845973968506	fix_pre	0		61.0	9.0	2.5	/experiments/knapen_aot/videos/S_yt-RlHmMGUjT9E_130.mp4	0.0	144.83654499053955	0.5083198547363281
11	32.032914876937866	response	0	2		9.0	2.5	/experiments/knapen_aot/videos/S_yt-RlHmMGUjT9E_130.mp4	0.0	145.3366138935089	
11	32.041165828704834	movie	1		301.0	9.0	2.5	/experiments/knapen_aot/videos/S_yt-RlHmMGUjT9E_130.mp4	0.0	145.34486484527588	2.508333206176758
11	34.54949903488159	fix_post	2		12.0	9.0	2.5	/experiments/knapen_aot/videos/S_yt-RlHmMGUjT9E_130.mp4	0.0	147.85319805145264	0.09998178482055664
12	34.64948081970215	fix_pre	0		43.0	10.0	2.5	/experiments/knapen_aot/videos/S_yt-tneuR3EtSZE_72.mp4	0.0	147.9531798362732	0.3582191467285156
12	34.99955701828003	response	0	2		10.0	2.5	/experiments/knapen_aot/videos/S_yt-tneuR3EtSZE_72.mp4	0.0	148.30325603485107	
12	35.007699966430664	movie	1		301.0	10.0	2.5	/experiments/knapen_aot/videos/S_yt-tneuR3EtSZE_72.mp4	0.0	148.3113989830017	2.5084638595581055
12	37.51616382598877	fix_post	2		12.0	10.0	2.5	/experiments/knapen_aot/videos/S_yt-tneuR3EtSZE_72.mp4	0.0	150.81986284255981	0.09998416900634766
13	37.61614799499512	fix_pre	0		42.0	11.0	2.5	/experiments/knapen_aot/videos/R_S_yt-P8vJa4YVcGU_488.mp4	0.0	150.91984701156616	0.34998297691345215
13	37.95787787437439	response	0	2		11.0	2.5	/experiments/knapen_aot/videos/R_S_yt-P8vJa4YVcGU_488.mp4	0.0	151.26157689094543	
13	37.96613097190857	movie	1		301.0	11.0	2.5	/experiments/knapen_aot/videos/R_S_yt-P8vJa4YVcGU_488.mp4	0.0	151.26982998847961	2.5083019733428955
13	40.474432945251465	fix_post	2		12.0	11.0	2.5	/experiments/knapen_aot/videos/R_S_yt-P8vJa4YVcGU_488.mp4	0.0	153.7781319618225	0.10002303123474121
14	40.574455976486206	fix_pre	0		89.0	12.0	2.5	/experiments/knapen_aot/videos/S_yt-EuyfT0PuOoQ_91.mp4	0.0	153.87815499305725	0.7428429126739502
14	41.307929039001465	response	0	2		12.0	2.5	/experiments/knapen_aot/videos/S_yt-EuyfT0PuOoQ_91.mp4	0.0	154.6116280555725	
14	41.317298889160156	movie	1		301.0	12.0	2.5	/experiments/knapen_aot/videos/S_yt-EuyfT0PuOoQ_91.mp4	0.0	154.6209979057312	2.5071020126342773
14	43.824400901794434	fix_post	2		12.0	12.0	2.5	/experiments/knapen_aot/videos/S_yt-EuyfT0PuOoQ_91.mp4	0.0	157.12809991836548	0.10001611709594727
15	43.92441701889038	fix_pre	0		34.0	13.0	2.5	/experiments/knapen_aot/videos/S_pexels-koolshooters-7689098.mp4	0.0	157.22811603546143	0.28327202796936035
15	44.19954299926758	response	0	2		13.0	2.5	/experiments/knapen_aot/videos/S_pexels-koolshooters-7689098.mp4	0.0	157.50324201583862	
15	44.20768904685974	movie	1		165.0	13.0	2.5	/experiments/knapen_aot/videos/S_pexels-koolshooters-7689098.mp4	0.0	157.5113880634308	2.5084149837493896
15	46.71610403060913	fix_post	2		12.0	13.0	2.5	/experiments/knapen_aot/videos/S_pexels-koolshooters-7689098.mp4	0.0	160.01980304718018	0.10000085830688477
16	46.816104888916016	fix_pre	0		46.0	14.0	2.5	blank	1.0	160.11980390548706	0.38331103324890137
16	47.18366003036499	response	0	2		14.0	2.5	blank	1.0	160.48735904693604	
16	47.19941592216492	movie	1		301.0	14.0	2.5	blank	1.0	160.50311493873596	2.508345127105713
16	49.70776104927063	fix_post	2		12.0	14.0	2.5	blank	1.0	163.01146006584167	0.09999895095825195
17	49.80776000022888	fix_pre	0		121.0	15.0	2.5	/experiments/knapen_aot/videos/R_S_ILSVRC2015_train_00165012.mp4	0.0	163.11145901679993	1.009516954421997
17	50.807880878448486	response	0	2		15.0	2.5	/experiments/knapen_aot/videos/R_S_ILSVRC2015_train_00165012.mp4	0.0	164.11157989501953	
17	50.81727695465088	movie	1		301.0	15.0	2.5	/experiments/knapen_aot/videos/R_S_ILSVRC2015_train_00165012.mp4	0.0	164.12097597122192	2.5071380138397217
17	53.3244149684906	fix_post	2		12.0	15.0	2.5	/experiments/knapen_aot/videos/R_S_ILSVRC2015_train_00165012.mp4	0.0	166.62811398506165	0.09993100166320801
18	53.42434597015381	fix_pre	0		50.0	16.0	2.5	/experiments/knapen_aot/videos/S_ILSVRC2015_train_00278004.mp4	0.0	166.72804498672485	0.4166910648345947
18	53.83285593986511	response	0	2		16.0	2.5	/experiments/knapen_aot/videos/S_ILSVRC2015_train_00278004.mp4	0.0	167.13655495643616	
18	53.8410370349884	movie	1		301.0	16.0	2.5	/experiments/knapen_aot/videos/S_ILSVRC2015_train_00278004.mp4	0.0	167.14473605155945	2.5083069801330566
18	56.34934401512146	fix_post	2		12.0	16.0	2.5	/experiments/knapen_aot/videos/S_ILSVRC2015_train_00278004.mp4	0.0	169.6530430316925	0.10007882118225098
19	56.44942283630371	fix_pre	0		73.0	17.0	2.5	/experiments/knapen_aot/videos/R_S_ILSVRC2015_test_00004002.mp4	0.0	169.75312185287476	0.6082601547241211
19	57.049497842788696	response	0	2		17.0	2.5	/experiments/knapen_aot/videos/R_S_ILSVRC2015_test_00004002.mp4	0.0	170.35319685935974	
19	57.05768299102783	movie	1		301.0	17.0	2.5	/experiments/knapen_aot/videos/R_S_ILSVRC2015_test_00004002.mp4	0.0	170.36138200759888	2.5083060264587402
19	59.56598901748657	fix_post	2		12.0	17.0	2.5	/experiments/knapen_aot/videos/R_S_ILSVRC2015_test_00004002.mp4	0.0	172.86968803405762	0.10002589225769043
20	59.66601490974426	fix_pre	0		52.0	18.0	2.5	/experiments/knapen_aot/videos/R_S_ILSVRC2015_train_00373000.mp4	0.0	172.9697139263153	0.4333059787750244
20	60.09113097190857	response	0	2		18.0	2.5	/experiments/knapen_aot/videos/R_S_ILSVRC2015_train_00373000.mp4	0.0	173.39482998847961	
20	60.09932088851929	movie	1		301.0	18.0	2.5	/experiments/knapen_aot/videos/R_S_ILSVRC2015_train_00373000.mp4	0.0	173.40301990509033	2.5083611011505127
20	62.6076819896698	fix_post	2		12.0	18.0	2.5	/experiments/knapen_aot/videos/R_S_ILSVRC2015_train_00373000.mp4	0.0	175.91138100624084	0.09999394416809082
21	62.70767593383789	fix_pre	0		94.0	19.0	2.5	blank	1.0	176.01137495040894	0.783411979675293
21	63.48275899887085	response	0	2		19.0	2.5	blank	1.0	176.7864580154419	
21	63.491087913513184	movie	1		301.0	19.0	2.5	blank	1.0	176.79478693008423	2.508233070373535
21	65.99932098388672	fix_post	2		12.0	19.0	2.5	blank	1.0	179.30302000045776	0.09999394416809082
22	66.09931492805481	fix_pre	0		111.0	20.0	2.5	/experiments/knapen_aot/videos/R_S_yt-c5IgOXX8YZ0_24.mp4	0.0	179.40301394462585	0.9261219501495361
22	67.01609897613525	response	0	2		20.0	2.5	/experiments/knapen_aot/videos/R_S_yt-c5IgOXX8YZ0_24.mp4	0.0	180.3197979927063	
22	67.02543687820435	movie	1		300.0	20.0	2.5	/experiments/knapen_aot/videos/R_S_yt-c5IgOXX8YZ0_24.mp4	0.0	180.3291358947754	2.5072200298309326
22	69.53265690803528	fix_post	2		12.0	20.0	2.5	/experiments/knapen_aot/videos/R_S_yt-c5IgOXX8YZ0_24.mp4	0.0	182.83635592460632	0.10001897811889648
23	69.63267588615417	fix_pre	0		91.0	21.0	2.5	/experiments/knapen_aot/videos/S_G009_C003_UHD_SDR_2K_AVC.mp4	0.0	182.93637490272522	0.7583060264587402
23	70.38289284706116	response	0	2		21.0	2.5	/experiments/knapen_aot/videos/S_G009_C003_UHD_SDR_2K_AVC.mp4	0.0	183.6865918636322	
23	70.39098191261292	movie	1		164.0	21.0	2.5	/experiments/knapen_aot/videos/S_G009_C003_UHD_SDR_2K_AVC.mp4	0.0	183.69468092918396	2.508247137069702
23	72.89922904968262	fix_post	2		12.0	21.0	2.5	/experiments/knapen_aot/videos/S_G009_C003_UHD_SDR_2K_AVC.mp4	0.0	186.20292806625366	0.1001288890838623
24	72.99935793876648	fix_pre	0		97.0	22.0	2.5	/experiments/knapen_aot/videos/R_S_production_ID_5119260.mp4	0.0	186.30305695533752	0.8083128929138184
24	73.79193997383118	response	0	2		22.0	2.5	/experiments/knapen_aot/videos/R_S_production_ID_5119260.mp4	0.0	187.09563899040222	
24	73.8076708316803	movie	1		164.0	22.0	2.5	/experiments/knapen_aot/videos/R_S_production_ID_5119260.mp4	0.0	187.11136984825134	2.508280038833618
24	76.31595087051392	fix_post	2		12.0	22.0	2.5	/experiments/knapen_aot/videos/R_S_production_ID_5119260.mp4	0.0	189.61964988708496	0.10005712509155273
25	76.41600799560547	fix_pre	0		60.0	23.0	2.5	/experiments/knapen_aot/videos/S_Pz_NXxhQCJc_70.mp4	0.0	189.7197070121765	0.49993395805358887
25	76.90792894363403	response	0	2		23.0	2.5	/experiments/knapen_aot/videos/S_Pz_NXxhQCJc_70.mp4	0.0	190.21162796020508	
25	76.91594195365906	movie	1		301.0	23.0	2.5	/experiments/knapen_aot/videos/S_Pz_NXxhQCJc_70.mp4	0.0	190.2196409702301	2.5082459449768066
25	79.42418789863586	fix_post	2		12.0	23.0	2.5	/experiments/knapen_aot/videos/S_Pz_NXxhQCJc_70.mp4	0.0	192.7278869152069	0.1000981330871582
26	79.52428603172302	fix_pre	0		159.0	24.0	2.5	/experiments/knapen_aot/videos/R_S_flickr-hapanine-31880782705_22.mp4	0.0	192.82798504829407	1.3249809741973877
26	80.84110689163208	response	0	2		24.0	2.5	/experiments/knapen_aot/videos/R_S_flickr-hapanine-31880782705_22.mp4	0.0	194.14480590820312	
26	80.84926700592041	movie	1		163.0	24.0	2.5	/experiments/knapen_aot/videos/R_S_flickr-hapanine-31880782705_22.mp4	0.0	194.15296602249146	2.508380889892578
26	83.35764789581299	fix_post	2		12.0	24.0	2.5	/experiments/knapen_aot/videos/R_S_flickr-hapanine-31880782705_22.mp4	0.0	196.66134691238403	0.10000300407409668
27	83.45765089988708	fix_pre	0		59.0	25.0	2.5	/experiments/knapen_aot/videos/R_S_ILSVRC2015_train_00044004.mp4	0.0	196.76134991645813	0.4916040897369385
27	83.94106483459473	response	0	2		25.0	2.5	/experiments/knapen_aot/videos/R_S_ILSVRC2015_train_00044004.mp4	0.0	197.24476385116577	
27	83.94925498962402	movie	1		301.0	25.0	2.5	/experiments/knapen_aot/videos/R_S_ILSVRC2015_train_00044004.mp4	0.0	197.25295400619507	2.50834584236145
27	86.45760083198547	fix_post	2		12.0	25.0	2.5	/experiments/knapen_aot/videos/R_S_ILSVRC2015_train_00044004.mp4	0.0	199.76129984855652	0.0999460220336914
28	86.55754685401917	fix_pre	0		75.0	26.0	2.5	blank	1.0	199.8612458705902	0.6249990463256836
28	87.17443299293518	response	0	2		26.0	2.5	blank	1.0	200.47813200950623	
28	87.18254590034485	movie	1		301.0	26.0	2.5	blank	1.0	200.4862449169159	2.5083651542663574
28	89.6909110546112	fix_post	2		12.0	26.0	2.5	blank	1.0	202.99461007118225	0.09999680519104004
29	89.79090785980225	fix_pre	0		150.0	27.0	2.5	/experiments/knapen_aot/videos/S_yt-wVMhACNFF-M_154.mp4	0.0	203.0946068763733	1.2499489784240723
29	91.02519297599792	response	0	2		27.0	2.5	/experiments/knapen_aot/videos/S_yt-wVMhACNFF-M_154.mp4	0.0	204.32889199256897	
29	91.04085683822632	movie	1		301.0	27.0	2.5	/experiments/knapen_aot/videos/S_yt-wVMhACNFF-M_154.mp4	0.0	204.34455585479736	2.5083281993865967
29	93.54918503761292	fix_post	2		12.0	27.0	2.5	/experiments/knapen_aot/videos/S_yt-wVMhACNFF-M_154.mp4	0.0	206.85288405418396	0.10010600090026855
30	93.64929103851318	fix_pre	0		82.0	28.0	2.5	/experiments/knapen_aot/videos/R_S_comp_A012_C014_1223PT_v53_SDR_PS_FINAL_20180709_F0F8700_SDR_2K_AVC.mp4	0.0	206.95299005508423	0.6832358837127686
30	94.32435202598572	response	0	2		28.0	2.5	/experiments/knapen_aot/videos/R_S_comp_A012_C014_1223PT_v53_SDR_PS_FINAL_20180709_F0F8700_SDR_2K_AVC.mp4	0.0	207.62805104255676	
30	94.33252692222595	movie	1		165.0	28.0	2.5	/experiments/knapen_aot/videos/R_S_comp_A012_C014_1223PT_v53_SDR_PS_FINAL_20180709_F0F8700_SDR_2K_AVC.mp4	0.0	207.636225938797	2.5083420276641846
30	96.84086894989014	fix_post	2		12.0	28.0	2.5	/experiments/knapen_aot/videos/R_S_comp_A012_C014_1223PT_v53_SDR_PS_FINAL_20180709_F0F8700_SDR_2K_AVC.mp4	0.0	210.14456796646118	0.10000395774841309
31	96.94087290763855	fix_pre	0		100.0	29.0	2.5	/experiments/knapen_aot/videos/S_yt-dESxu60Cl10_24.mp4	0.0	210.2445719242096	0.8342909812927246
31	97.76596593856812	response	0	2		29.0	2.5	/experiments/knapen_aot/videos/S_yt-dESxu60Cl10_24.mp4	0.0	211.06966495513916	
31	97.77516388893127	movie	1		301.0	29.0	2.5	/experiments/knapen_aot/videos/S_yt-dESxu60Cl10_24.mp4	0.0	211.07886290550232	2.5073721408843994
31	100.28253602981567	fix_post	2		12.0	29.0	2.5	/experiments/knapen_aot/videos/S_yt-dESxu60Cl10_24.mp4	0.0	213.58623504638672	0.10001993179321289
32	100.38255596160889	fix_pre	0		88.0	30.0	2.5	/experiments/knapen_aot/videos/R_S_ILSVRC2015_test_00004002.mp4	0.0	213.68625497817993	0.7332930564880371
32	101.10769891738892	response	0	2		30.0	2.5	/experiments/knapen_aot/videos/R_S_ILSVRC2015_test_00004002.mp4	0.0	214.41139793395996	
32	101.11584901809692	movie	1		301.0	30.0	2.5	/experiments/knapen_aot/videos/R_S_ILSVRC2015_test_00004002.mp4	0.0	214.41954803466797	2.508514881134033
32	103.62436389923096	fix_post	2		12.0	30.0	2.5	/experiments/knapen_aot/videos/R_S_ILSVRC2015_test_00004002.mp4	0.0	216.928062915802	0.09983611106872559
33	103.72420001029968	fix_pre	0		67.0	31.0	2.5	/experiments/knapen_aot/videos/S_ILSVRC2015_train_00165012.mp4	0.0	217.02789902687073	0.5583360195159912
33	104.27427101135254	response	0	2		31.0	2.5	/experiments/knapen_aot/videos/S_ILSVRC2015_train_00165012.mp4	0.0	217.57797002792358	
33	104.28253602981567	movie	1		301.0	31.0	2.5	/experiments/knapen_aot/videos/S_ILSVRC2015_train_00165012.mp4	0.0	217.58623504638672	2.508323907852173
33	106.79085993766785	fix_post	2		12.0	31.0	2.5	/experiments/knapen_aot/videos/S_ILSVRC2015_train_00165012.mp4	0.0	220.0945589542389	0.0999600887298584
34	106.8908200263977	fix_pre	0		45.0	32.0	2.5	/experiments/knapen_aot/videos/S_yt-uWeU2s6JYyk_10.mp4	0.0	220.19451904296875	0.3749978542327881
34	107.257572889328	response	0	2		32.0	2.5	/experiments/knapen_aot/videos/S_yt-uWeU2s6JYyk_10.mp4	0.0	220.56127190589905	
34	107.2658178806305	movie	1		301.0	32.0	2.5	/experiments/knapen_aot/videos/S_yt-uWeU2s6JYyk_10.mp4	0.0	220.56951689720154	2.5083720684051514
34	109.77418994903564	fix_post	2		12.0	32.0	2.5	/experiments/knapen_aot/videos/S_yt-uWeU2s6JYyk_10.mp4	0.0	223.0778889656067	0.09992003440856934
35	109.87410998344421	fix_pre	0		24.0	33.0	2.5	/experiments/knapen_aot/videos/S_yt-HFiRYTnMZxE_338.mp4	0.0	223.17780900001526	0.19995784759521484
35	110.05838584899902	response	0	2		33.0	2.5	/experiments/knapen_aot/videos/S_yt-HFiRYTnMZxE_338.mp4	0.0	223.36208486557007	
35	110.07406783103943	movie	1		301.0	33.0	2.5	/experiments/knapen_aot/videos/S_yt-HFiRYTnMZxE_338.mp4	0.0	223.37776684761047	2.5084102153778076
35	112.58247804641724	fix_post	2		12.0	33.0	2.5	/experiments/knapen_aot/videos/S_yt-HFiRYTnMZxE_338.mp4	0.0	225.88617706298828	0.09999895095825195
36	112.68247699737549	fix_pre	0		75.0	34.0	2.5	blank	1.0	225.98617601394653	0.6250300407409668
36	113.29924583435059	response	0	2		34.0	2.5	blank	1.0	226.60294485092163	
36	113.30750703811646	movie	1		301.0	34.0	2.5	blank	1.0	226.6112060546875	2.5082788467407227
36	115.81578588485718	fix_post	2		12.0	34.0	2.5	blank	1.0	229.11948490142822	0.10002398490905762
37	115.91580986976624	fix_pre	0		76.0	35.0	2.5	/experiments/knapen_aot/videos/S_yt-e_eOzV7qMZo_374.mp4	0.0	229.21950888633728	0.633296012878418
37	116.54095482826233	response	0	2		35.0	2.5	/experiments/knapen_aot/videos/S_yt-e_eOzV7qMZo_374.mp4	0.0	229.84465384483337	
37	116.54910588264465	movie	1		301.0	35.0	2.5	/experiments/knapen_aot/videos/S_yt-e_eOzV7qMZo_374.mp4	0.0	229.8528048992157	2.5083560943603516
37	119.057461977005	fix_post	2		12.0	35.0	2.5	/experiments/knapen_aot/videos/S_yt-e_eOzV7qMZo_374.mp4	0.0	232.36116099357605	0.10000300407409668
38	119.1574649810791	fix_pre	0		86.0	36.0	2.5	/experiments/knapen_aot/videos/R_S_yt-isJga8ec5UM_32.mp4	0.0	232.46116399765015	0.7166929244995117
38	119.86596989631653	response	0	2		36.0	2.5	/experiments/knapen_aot/videos/R_S_yt-isJga8ec5UM_32.mp4	0.0	233.16966891288757	
38	119.87415790557861	movie	1		301.0	36.0	2.5	/experiments/knapen_aot/videos/R_S_yt-isJga8ec5UM_32.mp4	0.0	233.17785692214966	2.508294105529785
38	122.3824520111084	fix_post	2		12.0	36.0	2.5	/experiments/knapen_aot/videos/R_S_yt-isJga8ec5UM_32.mp4	0.0	235.68615102767944	0.09998703002929688
39	122.4824390411377	fix_pre	0		106.0	37.0	2.5	/experiments/knapen_aot/videos/S_comp_CH_C007_C011_PSNK_v02_SDR_PS_FINAL_20180709_SDR_2K_AVC.mp4	0.0	235.78613805770874	0.8833448886871338
39	123.35755896568298	response	0	2		37.0	2.5	/experiments/knapen_aot/videos/S_comp_CH_C007_C011_PSNK_v02_SDR_PS_FINAL_20180709_SDR_2K_AVC.mp4	0.0	236.66125798225403	
39	123.36578392982483	movie	1		168.0	37.0	2.5	/experiments/knapen_aot/videos/S_comp_CH_C007_C011_PSNK_v02_SDR_PS_FINAL_20180709_SDR_2K_AVC.mp4	0.0	236.66948294639587	2.508307933807373
39	125.8740918636322	fix_post	2		12.0	37.0	2.5	/experiments/knapen_aot/videos/S_comp_CH_C007_C011_PSNK_v02_SDR_PS_FINAL_20180709_SDR_2K_AVC.mp4	0.0	239.17779088020325	0.10006904602050781
40	125.97416090965271	fix_pre	0		57.0	38.0	2.5	/experiments/knapen_aot/videos/S_yt-1iB2ofPY1U8_16.mp4	0.0	239.27785992622375	0.47493600845336914
40	126.44089198112488	response	0	2		38.0	2.5	/experiments/knapen_aot/videos/S_yt-1iB2ofPY1U8_16.mp4	0.0	239.74459099769592	
40	126.44909691810608	movie	1		301.0	38.0	2.5	/experiments/knapen_aot/videos/S_yt-1iB2ofPY1U8_16.mp4	0.0	239.75279593467712	2.508373975753784
40	128.95747089385986	fix_post	2		12.0	38.0	2.5	/experiments/knapen_aot/videos/S_yt-1iB2ofPY1U8_16.mp4	0.0	242.2611699104309	0.09993696212768555
41	129.05740785598755	fix_pre	0		24.0	39.0	2.5	/experiments/knapen_aot/videos/S_yt-BrepyEWKrPQ_20.mp4	0.0	242.3611068725586	0.20009708404541016
41	129.2416639328003	response	0	2		39.0	2.5	/experiments/knapen_aot/videos/S_yt-BrepyEWKrPQ_20.mp4	0.0	242.54536294937134	
41	129.25750494003296	movie	1		301.0	39.0	2.5	/experiments/knapen_aot/videos/S_yt-BrepyEWKrPQ_20.mp4	0.0	242.561203956604	2.508270025253296
41	131.76577496528625	fix_post	2		12.0	39.0	2.5	/experiments/knapen_aot/videos/S_yt-BrepyEWKrPQ_20.mp4	0.0	245.0694739818573	0.09998703002929688
42	131.86576199531555	fix_pre	0		71.0	40.0	2.5	/experiments/knapen_aot/videos/R_S_yt-LhP0mZ6xxIg_111.mp4	0.0	245.1694610118866	0.5916080474853516
42	132.44178986549377	response	0	2		40.0	2.5	/experiments/knapen_aot/videos/R_S_yt-LhP0mZ6xxIg_111.mp4	0.0	245.74548888206482	
42	132.4573700428009	movie	1		301.0	40.0	2.5	/experiments/knapen_aot/videos/R_S_yt-LhP0mZ6xxIg_111.mp4	0.0	245.76106905937195	2.5083868503570557
42	134.96575689315796	fix_post	2		12.0	40.0	2.5	/experiments/knapen_aot/videos/R_S_yt-LhP0mZ6xxIg_111.mp4	0.0	248.269455909729	0.09993815422058105
43	135.06569504737854	fix_pre	0		35.0	41.0	2.5	/experiments/knapen_aot/videos/R_S_yt-hyZEDFkh49w_196.mp4	0.0	248.36939406394958	0.2924668788909912
43	135.3492648601532	response	0	2		41.0	2.5	/experiments/knapen_aot/videos/R_S_yt-hyZEDFkh49w_196.mp4	0.0	248.65296387672424	
43	135.35816192626953	movie	1		301.0	41.0	2.5	/experiments/knapen_aot/videos/R_S_yt-hyZEDFkh49w_196.mp4	0.0	248.66186094284058	2.5075759887695312
43	137.86573791503906	fix_post	2		12.0	41.0	2.5	/experiments/knapen_aot/videos/R_S_yt-hyZEDFkh49w_196.mp4	0.0	251.1694369316101	0.0999760627746582
44	137.96571397781372	fix_pre	0		28.0	42.0	2.5	blank	1.0	251.26941299438477	0.23329997062683105
44	138.19082689285278	response	0	2		42.0	2.5	blank	1.0	251.49452590942383	
44	138.19901394844055	movie	1		301.0	42.0	2.5	blank	1.0	251.5027129650116	2.508294105529785
44	140.70730805397034	fix_post	2		12.0	42.0	2.5	blank	1.0	254.01100707054138	0.10011792182922363
45	140.80742597579956	fix_pre	0		396.0	43.0	2.5	/experiments/knapen_aot/videos/S_yt-RWN5qOIgqec_25.mp4	0.0	254.1111249923706	3.300689935684204
45	144.09165000915527	response	0	2		43.0	2.5	/experiments/knapen_aot/videos/S_yt-RWN5qOIgqec_25.mp4	0.0	257.3953490257263	
45	144.10811591148376	movie	1		301.0	43.0	2.5	/experiments/knapen_aot/videos/S_yt-RWN5qOIgqec_25.mp4	0.0	257.4118149280548	2.507596015930176
45	146.61571192741394	fix_post	2		12.0	43.0	2.5	/experiments/knapen_aot/videos/S_yt-RWN5qOIgqec_25.mp4	0.0	259.919410943985	0.09994101524353027
46	146.71565294265747	fix_pre	0		92.0	44.0	2.5	/experiments/knapen_aot/videos/S_yt-N1ZrWT4xyzc_85.mp4	0.0	260.0193519592285	0.7673249244689941
46	147.47414898872375	response	0	2		44.0	2.5	/experiments/knapen_aot/videos/S_yt-N1ZrWT4xyzc_85.mp4	0.0	260.7778480052948	
46	147.48297786712646	movie	1		300.0	44.0	2.5	/experiments/knapen_aot/videos/S_yt-N1ZrWT4xyzc_85.mp4	0.0	260.7866768836975	2.507716178894043
46	149.9906940460205	fix_post	2		12.0	44.0	2.5	/experiments/knapen_aot/videos/S_yt-N1ZrWT4xyzc_85.mp4	0.0	263.29439306259155	0.10001397132873535
47	150.09070801734924	fix_pre	0		87.0	45.0	2.5	/experiments/knapen_aot/videos/R_S_yt-RO4mhuXBVrY_67.mp4	0.0	263.3944070339203	0.7256100177764893
47	150.8075180053711	response	0	2		45.0	2.5	/experiments/knapen_aot/videos/R_S_yt-RO4mhuXBVrY_67.mp4	0.0	264.11121702194214	
47	150.81631803512573	movie	1		301.0	45.0	2.5	/experiments/knapen_aot/videos/R_S_yt-RO4mhuXBVrY_67.mp4	0.0	264.1200170516968	2.5075747966766357
47	153.32389283180237	fix_post	2		12.0	45.0	2.5	/experiments/knapen_aot/videos/R_S_yt-RO4mhuXBVrY_67.mp4	0.0	266.6275918483734	0.10007810592651367
48	153.42397093772888	fix_pre	0		62.0	46.0	2.5	/experiments/knapen_aot/videos/S_yt-ejSzwn8tY8g_49.mp4	0.0	266.7276699542999	0.5173048973083496
48	153.93249487876892	response	0	2		46.0	2.5	/experiments/knapen_aot/videos/S_yt-ejSzwn8tY8g_49.mp4	0.0	267.23619389533997	
48	153.94127583503723	movie	1		301.0	46.0	2.5	/experiments/knapen_aot/videos/S_yt-ejSzwn8tY8g_49.mp4	0.0	267.2449748516083	2.5077311992645264
48	156.44900703430176	fix_post	2		12.0	46.0	2.5	/experiments/knapen_aot/videos/S_yt-ejSzwn8tY8g_49.mp4	0.0	269.7527060508728	0.09991979598999023
49	156.54892683029175	fix_pre	0		89.0	47.0	2.5	/experiments/knapen_aot/videos/S_yt-hOtj2y9VWrc_354.mp4	0.0	269.8526258468628	0.7417101860046387
49	157.27489399909973	response	0	2		47.0	2.5	/experiments/knapen_aot/videos/S_yt-hOtj2y9VWrc_354.mp4	0.0	270.5785930156708	
49	157.2906370162964	movie	1		301.0	47.0	2.5	/experiments/knapen_aot/videos/S_yt-hOtj2y9VWrc_354.mp4	0.0	270.59433603286743	2.5083179473876953
49	159.79895496368408	fix_post	2		12.0	47.0	2.5	/experiments/knapen_aot/videos/S_yt-hOtj2y9VWrc_354.mp4	0.0	273.1026539802551	0.09998798370361328
50	159.8989429473877	fix_pre	0		92.0	48.0	2.5	blank	1.0	273.20264196395874	0.7666599750518799
50	160.64986300468445	response	0	2		48.0	2.5	blank	1.0	273.9535620212555	
50	160.66560292243958	movie	1		301.0	48.0	2.5	blank	1.0	273.9693019390106	2.5083351135253906
50	163.17393803596497	fix_post	2		12.0	48.0	2.5	blank	1.0	276.477637052536	0.10065388679504395
51	163.27459192276	fix_pre	0		139.0	49.0	2.5	/experiments/knapen_aot/videos/R_S_yt-wrfAMDCg93Y_8.mp4	0.0	276.57829093933105	1.1576719284057617
51	164.42405486106873	response	0	2		49.0	2.5	/experiments/knapen_aot/videos/R_S_yt-wrfAMDCg93Y_8.mp4	0.0	277.72775387763977	
51	164.43226385116577	movie	1		301.0	49.0	2.5	/experiments/knapen_aot/videos/R_S_yt-wrfAMDCg93Y_8.mp4	0.0	277.7359628677368	2.508345127105713
51	166.94060897827148	fix_post	2		12.0	49.0	2.5	/experiments/knapen_aot/videos/R_S_yt-wrfAMDCg93Y_8.mp4	0.0	280.24430799484253	0.10006093978881836
52	167.0406699180603	fix_pre	0		62.0	50.0	2.5	/experiments/knapen_aot/videos/R_S_I004_C014_SDR_2K_AVC.mp4	0.0	280.34436893463135	0.5165619850158691
52	167.54908204078674	response	0	2		50.0	2.5	/experiments/knapen_aot/videos/R_S_I004_C014_SDR_2K_AVC.mp4	0.0	280.8527810573578	
52	167.55723190307617	movie	1		178.0	50.0	2.5	/experiments/knapen_aot/videos/R_S_I004_C014_SDR_2K_AVC.mp4	0.0	280.8609309196472	2.5083329677581787
52	170.06556487083435	fix_post	2		12.0	50.0	2.5	/experiments/knapen_aot/videos/R_S_I004_C014_SDR_2K_AVC.mp4	0.0	283.3692638874054	0.10001611709594727
53	170.1655809879303	fix_pre	0		58.0	51.0	2.5	/experiments/knapen_aot/videos/R_S_yt-NLfzvAJgyJ4_120.mp4	0.0	283.46928000450134	0.48394083976745605
53	170.64068484306335	response	0	2		51.0	2.5	/experiments/knapen_aot/videos/R_S_yt-NLfzvAJgyJ4_120.mp4	0.0	283.9443838596344	
53	170.64952182769775	movie	1		301.0	51.0	2.5	/experiments/knapen_aot/videos/R_S_yt-NLfzvAJgyJ4_120.mp4	0.0	283.9532208442688	2.5077130794525146
53	173.15723490715027	fix_post	2		12.0	51.0	2.5	/experiments/knapen_aot/videos/R_S_yt-NLfzvAJgyJ4_120.mp4	0.0	286.4609339237213	0.10002803802490234
54	173.25726294517517	fix_pre	0		61.0	52.0	2.5	/experiments/knapen_aot/videos/S_yt-Tt_LkR4iAt4_11.mp4	0.0	286.5609619617462	0.5082590579986572
54	173.75736784934998	response	0	2		52.0	2.5	/experiments/knapen_aot/videos/S_yt-Tt_LkR4iAt4_11.mp4	0.0	287.061066865921	
54	173.76552200317383	movie	1		301.0	52.0	2.5	/experiments/knapen_aot/videos/S_yt-Tt_LkR4iAt4_11.mp4	0.0	287.0692210197449	2.5083858966827393
54	176.27390789985657	fix_post	2		12.0	52.0	2.5	/experiments/knapen_aot/videos/S_yt-Tt_LkR4iAt4_11.mp4	0.0	289.5776069164276	0.09995603561401367
55	176.37386393547058	fix_pre	0		54.0	53.0	2.5	/experiments/knapen_aot/videos/S_ILSVRC2015_train_00363000.mp4	0.0	289.6775629520416	0.4500429630279541
55	176.81574702262878	response	0	2		53.0	2.5	/experiments/knapen_aot/videos/S_ILSVRC2015_train_00363000.mp4	0.0	290.11944603919983	
55	176.82390689849854	movie	1		301.0	53.0	2.5	/experiments/knapen_aot/videos/S_ILSVRC2015_train_00363000.mp4	0.0	290.1276059150696	2.5083870887756348
55	179.33229398727417	fix_post	2		12.0	53.0	2.5	/experiments/knapen_aot/videos/S_ILSVRC2015_train_00363000.mp4	0.0	292.6359930038452	0.1000058650970459
56	179.43229985237122	fix_pre	0		37.0	54.0	2.5	blank	1.0	292.73599886894226	0.308319091796875
56	179.73237895965576	response	0	2		54.0	2.5	blank	1.0	293.0360779762268	
56	179.7406189441681	movie	1		301.0	54.0	2.5	blank	1.0	293.04431796073914	2.5082879066467285
56	182.24890685081482	fix_post	2		12.0	54.0	2.5	blank	1.0	295.55260586738586	0.09998202323913574
57	182.34888887405396	fix_pre	0		63.0	55.0	2.5	/experiments/knapen_aot/videos/R_S_yt-fA0nOetbOJY_580.mp4	0.0	295.652587890625	0.5248830318450928
57	182.8657419681549	response	0	2		55.0	2.5	/experiments/knapen_aot/videos/R_S_yt-fA0nOetbOJY_580.mp4	0.0	296.16944098472595	
57	182.87377190589905	movie	1		301.0	55.0	2.5	/experiments/knapen_aot/videos/R_S_yt-fA0nOetbOJY_580.mp4	0.0	296.1774709224701	2.508418083190918
57	185.38218998908997	fix_post	2		12.0	55.0	2.5	/experiments/knapen_aot/videos/R_S_yt-fA0nOetbOJY_580.mp4	0.0	298.685889005661	0.09999895095825195
58	185.48218894004822	fix_pre	0		63.0	56.0	2.5	/experiments/knapen_aot/videos/S_yt-wrfAMDCg93Y_8.mp4	0.0	298.78588795661926	0.5249700546264648
58	185.99903893470764	response	0	2		56.0	2.5	/experiments/knapen_aot/videos/S_yt-wrfAMDCg93Y_8.mp4	0.0	299.3027379512787	
58	186.00715899467468	movie	1		301.0	56.0	2.5	/experiments/knapen_aot/videos/S_yt-wrfAMDCg93Y_8.mp4	0.0	299.3108580112457	2.5083658695220947
58	188.51552486419678	fix_post	2		12.0	56.0	2.5	/experiments/knapen_aot/videos/S_yt-wrfAMDCg93Y_8.mp4	0.0	301.8192238807678	0.10001397132873535
59	188.6155388355255	fix_pre	0		70.0	57.0	2.5	/experiments/knapen_aot/videos/R_S_pexels-rodnae-productions-5544703.mp4	0.0	301.91923785209656	0.5832061767578125
59	189.190673828125	response	0	2		57.0	2.5	/experiments/knapen_aot/videos/R_S_pexels-rodnae-productions-5544703.mp4	0.0	302.49437284469604	
59	189.19874501228333	movie	1		167.0	57.0	2.5	/experiments/knapen_aot/videos/R_S_pexels-rodnae-productions-5544703.mp4	0.0	302.50244402885437	2.508431911468506
59	191.70717692375183	fix_post	2		12.0	57.0	2.5	/experiments/knapen_aot/videos/R_S_pexels-rodnae-productions-5544703.mp4	0.0	305.0108759403229	0.10000205039978027
60	191.8071789741516	fix_pre	0		37.0	58.0	2.5	/experiments/knapen_aot/videos/R_S_59eT4XDXNno_25.mp4	0.0	305.11087799072266	0.30828094482421875
60	192.09983587265015	response	0	2		58.0	2.5	/experiments/knapen_aot/videos/R_S_59eT4XDXNno_25.mp4	0.0	305.4035348892212	
60	192.11545991897583	movie	1		301.0	58.0	2.5	/experiments/knapen_aot/videos/R_S_59eT4XDXNno_25.mp4	0.0	305.4191589355469	2.508384943008423
60	194.62384486198425	fix_post	2		12.0	58.0	2.5	/experiments/knapen_aot/videos/R_S_59eT4XDXNno_25.mp4	0.0	307.9275438785553	0.09999704360961914
61	194.72384190559387	fix_pre	0		103.0	59.0	2.5	/experiments/knapen_aot/videos/S_yt-UmLeGNcqouI_718.mp4	0.0	308.0275409221649	0.858267068862915
61	195.57388186454773	response	0	2		59.0	2.5	/experiments/knapen_aot/videos/S_yt-UmLeGNcqouI_718.mp4	0.0	308.8775808811188	
61	195.5821089744568	movie	1		301.0	59.0	2.5	/experiments/knapen_aot/videos/S_yt-UmLeGNcqouI_718.mp4	0.0	308.88580799102783	2.5084049701690674
61	198.09051394462585	fix_post	2		12.0	59.0	2.5	/experiments/knapen_aot/videos/S_yt-UmLeGNcqouI_718.mp4	0.0	311.3942129611969	0.10000491142272949
62	198.19051885604858	fix_pre	0		114.0	60.0	2.5	/experiments/knapen_aot/videos/S_yt-aiDGx4AN8J0_9.mp4	0.0	311.49421787261963	0.9499020576477051
62	199.13230085372925	response	0	2		60.0	2.5	/experiments/knapen_aot/videos/S_yt-aiDGx4AN8J0_9.mp4	0.0	312.4359998703003	
62	199.1404209136963	movie	1		301.0	60.0	2.5	/experiments/knapen_aot/videos/S_yt-aiDGx4AN8J0_9.mp4	0.0	312.44411993026733	2.5083889961242676
62	201.64880990982056	fix_post	2		12.0	60.0	2.5	/experiments/knapen_aot/videos/S_yt-aiDGx4AN8J0_9.mp4	0.0	314.9525089263916	0.10005807876586914
63	201.74886798858643	fix_pre	0		30.0	61.0	2.5	blank	1.0	315.05256700515747	0.2499408721923828
63	201.99063801765442	response	0	2		61.0	2.5	blank	1.0	315.29433703422546	
63	201.9988088607788	movie	1		301.0	61.0	2.5	blank	1.0	315.30250787734985	2.508263111114502
63	204.5070719718933	fix_post	2		12.0	61.0	2.5	blank	1.0	317.81077098846436	0.10047388076782227
64	204.60754585266113	fix_pre	0		77.0	62.0	2.5	/experiments/knapen_aot/videos/S_yt-pO5SVq-9EhU_114.mp4	0.0	317.9112448692322	0.6411972045898438
64	205.24056100845337	response	0	2		62.0	2.5	/experiments/knapen_aot/videos/S_yt-pO5SVq-9EhU_114.mp4	0.0	318.5442600250244	
64	205.24874305725098	movie	1		301.0	62.0	2.5	/experiments/knapen_aot/videos/S_yt-pO5SVq-9EhU_114.mp4	0.0	318.552442073822	2.508368968963623
64	207.7571120262146	fix_post	2		12.0	62.0	2.5	/experiments/knapen_aot/videos/S_yt-pO5SVq-9EhU_114.mp4	0.0	321.06081104278564	0.09990596771240234
65	207.857017993927	fix_pre	0		91.0	63.0	2.5	/experiments/knapen_aot/videos/R_S_yt-8vm83GUgYxI_1.mp4	0.0	321.16071701049805	0.7583649158477783
65	208.59967184066772	response	0	2		63.0	2.5	/experiments/knapen_aot/videos/R_S_yt-8vm83GUgYxI_1.mp4	0.0	321.90337085723877	
65	208.61538290977478	movie	1		301.0	63.0	2.5	/experiments/knapen_aot/videos/R_S_yt-8vm83GUgYxI_1.mp4	0.0	321.9190819263458	2.5083630084991455
65	211.12374591827393	fix_post	2		12.0	63.0	2.5	/experiments/knapen_aot/videos/R_S_yt-8vm83GUgYxI_1.mp4	0.0	324.42744493484497	0.10005712509155273
66	211.22380304336548	fix_pre	0		39.0	64.0	2.5	/experiments/knapen_aot/videos/R_S_flickr-southeasternstar-3464778323_10.mp4	0.0	324.5275020599365	0.32489991188049316
66	211.54052591323853	response	0	2		64.0	2.5	/experiments/knapen_aot/videos/R_S_flickr-southeasternstar-3464778323_10.mp4	0.0	324.84422492980957	
66	211.54870295524597	movie	1		301.0	64.0	2.5	/experiments/knapen_aot/videos/R_S_flickr-southeasternstar-3464778323_10.mp4	0.0	324.852401971817	2.5083389282226562
66	214.05704188346863	fix_post	2		12.0	64.0	2.5	/experiments/knapen_aot/videos/R_S_flickr-southeasternstar-3464778323_10.mp4	0.0	327.3607409000397	0.1000361442565918
67	214.15707802772522	fix_pre	0		75.0	65.0	2.5	/experiments/knapen_aot/videos/R_S_yt-Tt_LkR4iAt4_11.mp4	0.0	327.46077704429626	0.6249399185180664
67	214.7738859653473	response	0	2		65.0	2.5	/experiments/knapen_aot/videos/R_S_yt-Tt_LkR4iAt4_11.mp4	0.0	328.07758498191833	
67	214.7820179462433	movie	1		301.0	65.0	2.5	/experiments/knapen_aot/videos/R_S_yt-Tt_LkR4iAt4_11.mp4	0.0	328.08571696281433	2.508284091949463
67	217.29030203819275	fix_post	2		12.0	65.0	2.5	/experiments/knapen_aot/videos/R_S_yt-Tt_LkR4iAt4_11.mp4	0.0	330.5940010547638	0.1000828742980957
68	217.39038491249084	fix_pre	0		66.0	66.0	2.5	/experiments/knapen_aot/videos/S_yt-LhP0mZ6xxIg_111.mp4	0.0	330.6940839290619	0.5503220558166504
68	217.93214988708496	response	0	2		66.0	2.5	/experiments/knapen_aot/videos/S_yt-LhP0mZ6xxIg_111.mp4	0.0	331.235848903656	
68	217.9407069683075	movie	1		298.0	66.0	2.5	/experiments/knapen_aot/videos/S_yt-LhP0mZ6xxIg_111.mp4	0.0	331.24440598487854	2.507997989654541
68	220.44870495796204	fix_post	2		12.0	66.0	2.5	/experiments/knapen_aot/videos/S_yt-LhP0mZ6xxIg_111.mp4	0.0	333.7524039745331	0.1000359058380127
69	220.54874086380005	fix_pre	0		127.0	67.0	2.5	/experiments/knapen_aot/videos/S_yt-T7RmOAme5dU_213.mp4	0.0	333.8524398803711	1.0585620403289795
69	221.59130096435547	response	0	2		67.0	2.5	/experiments/knapen_aot/videos/S_yt-T7RmOAme5dU_213.mp4	0.0	334.8949999809265	
69	221.60730290412903	movie	1		301.0	67.0	2.5	/experiments/knapen_aot/videos/S_yt-T7RmOAme5dU_213.mp4	0.0	334.9110019207001	2.5080621242523193
69	224.11536502838135	fix_post	2		12.0	67.0	2.5	/experiments/knapen_aot/videos/S_yt-T7RmOAme5dU_213.mp4	0.0	337.4190640449524	0.09995388984680176
70	224.21531891822815	fix_pre	0		94.0	68.0	2.5	/experiments/knapen_aot/videos/R_S_yt-Zn0YwrsCFOQ_44.mp4	0.0	337.5190179347992	0.7834000587463379
70	224.98295998573303	response	0	2		68.0	2.5	/experiments/knapen_aot/videos/R_S_yt-Zn0YwrsCFOQ_44.mp4	0.0	338.2866590023041	
70	224.9987189769745	movie	1		299.0	68.0	2.5	/experiments/knapen_aot/videos/R_S_yt-Zn0YwrsCFOQ_44.mp4	0.0	338.30241799354553	2.5083279609680176
70	227.5070469379425	fix_post	2		12.0	68.0	2.5	/experiments/knapen_aot/videos/R_S_yt-Zn0YwrsCFOQ_44.mp4	0.0	340.81074595451355	0.09991908073425293
71	227.60696601867676	fix_pre	0		124.0	69.0	2.5	/experiments/knapen_aot/videos/S_yt-rlEPywo5BEQ_36.mp4	0.0	340.9106650352478	1.0333290100097656
71	228.6322000026703	response	0	2		69.0	2.5	/experiments/knapen_aot/videos/S_yt-rlEPywo5BEQ_36.mp4	0.0	341.93589901924133	
71	228.64029502868652	movie	1		301.0	69.0	2.5	/experiments/knapen_aot/videos/S_yt-rlEPywo5BEQ_36.mp4	0.0	341.94399404525757	2.508333921432495
71	231.14862895011902	fix_post	2		12.0	69.0	2.5	/experiments/knapen_aot/videos/S_yt-rlEPywo5BEQ_36.mp4	0.0	344.45232796669006	0.10003089904785156
72	231.24865984916687	fix_pre	0		72.0	70.0	2.5	blank	1.0	344.5523588657379	0.6000101566314697
72	231.84036898612976	response	0	2		70.0	2.5	blank	1.0	345.1440680027008	
72	231.84867000579834	movie	1		301.0	70.0	2.5	blank	1.0	345.1523690223694	2.50833797454834
72	234.35700798034668	fix_post	2		12.0	70.0	2.5	blank	1.0	347.6607069969177	0.09997892379760742
73	234.4569869041443	fix_pre	0		162.0	71.0	2.5	/experiments/knapen_aot/videos/S_yt-VinOD6g7xEc_135.mp4	0.0	347.76068592071533	1.3499820232391357
73	235.7987608909607	response	0	2		71.0	2.5	/experiments/knapen_aot/videos/S_yt-VinOD6g7xEc_135.mp4	0.0	349.10245990753174	
73	235.80696892738342	movie	1		301.0	71.0	2.5	/experiments/knapen_aot/videos/S_yt-VinOD6g7xEc_135.mp4	0.0	349.11066794395447	2.508312940597534
73	238.31528186798096	fix_post	2		12.0	71.0	2.5	/experiments/knapen_aot/videos/S_yt-VinOD6g7xEc_135.mp4	0.0	351.618980884552	0.10001301765441895
74	238.41529488563538	fix_pre	0		91.0	72.0	2.5	/experiments/knapen_aot/videos/R_S_ILSVRC2015_train_00369002.mp4	0.0	351.7189939022064	0.7583470344543457
74	239.1654269695282	response	0	2		72.0	2.5	/experiments/knapen_aot/videos/R_S_ILSVRC2015_train_00369002.mp4	0.0	352.46912598609924	
74	239.17364192008972	movie	1		301.0	72.0	2.5	/experiments/knapen_aot/videos/R_S_ILSVRC2015_train_00369002.mp4	0.0	352.47734093666077	2.5083189010620117
74	241.68196082115173	fix_post	2		12.0	72.0	2.5	/experiments/knapen_aot/videos/R_S_ILSVRC2015_train_00369002.mp4	0.0	354.9856598377228	0.09999823570251465
75	241.78195905685425	fix_pre	0		48.0	73.0	2.5	/experiments/knapen_aot/videos/S_ILSVRC2015_train_00369002.mp4	0.0	355.0856580734253	0.3999807834625244
75	242.1736969947815	response	0	2		73.0	2.5	/experiments/knapen_aot/videos/S_ILSVRC2015_train_00369002.mp4	0.0	355.47739601135254	
75	242.18193984031677	movie	1		301.0	73.0	2.5	/experiments/knapen_aot/videos/S_ILSVRC2015_train_00369002.mp4	0.0	355.4856388568878	2.5085091590881348
75	244.6904489994049	fix_post	2		12.0	73.0	2.5	/experiments/knapen_aot/videos/S_ILSVRC2015_train_00369002.mp4	0.0	357.99414801597595	0.09986186027526855
76	244.79031085968018	fix_pre	0		68.0	74.0	2.5	/experiments/knapen_aot/videos/R_S_g201_TH_803_A001_8_SDR_20191031_SDR_2K_AVC.mp4	0.0	358.0940098762512	0.5667910575866699
76	245.34878492355347	response	0	2		74.0	2.5	/experiments/knapen_aot/videos/R_S_g201_TH_803_A001_8_SDR_20191031_SDR_2K_AVC.mp4	0.0	358.6524839401245	
76	245.35710191726685	movie	1		165.0	74.0	2.5	/experiments/knapen_aot/videos/R_S_g201_TH_803_A001_8_SDR_20191031_SDR_2K_AVC.mp4	0.0	358.6608009338379	2.5082199573516846
76	247.86532187461853	fix_post	2		12.0	74.0	2.5	/experiments/knapen_aot/videos/R_S_g201_TH_803_A001_8_SDR_20191031_SDR_2K_AVC.mp4	0.0	361.1690208911896	0.09998106956481934
77	247.96530294418335	fix_pre	0		56.0	75.0	2.5	blank	1.0	361.2690019607544	0.4666330814361572
77	248.42376899719238	response	0	2		75.0	2.5	blank	1.0	361.7274680137634	
77	248.4319360256195	movie	1		301.0	75.0	2.5	blank	1.0	361.73563504219055	2.5083179473876953
77	250.9402539730072	fix_post	2		12.0	75.0	2.5	blank	1.0	364.24395298957825	0.1000678539276123
78	251.04032182693481	fix_pre	0		97.0	76.0	2.5	/experiments/knapen_aot/videos/R_S_yt-wVMhACNFF-M_154.mp4	0.0	364.34402084350586	0.8081722259521484
78	251.84036588668823	response	0	2		76.0	2.5	/experiments/knapen_aot/videos/R_S_yt-wVMhACNFF-M_154.mp4	0.0	365.1440649032593	
78	251.84849405288696	movie	1		301.0	76.0	2.5	/experiments/knapen_aot/videos/R_S_yt-wVMhACNFF-M_154.mp4	0.0	365.152193069458	2.5085368156433105
78	254.35703086853027	fix_post	2		12.0	76.0	2.5	/experiments/knapen_aot/videos/R_S_yt-wVMhACNFF-M_154.mp4	0.0	367.6607298851013	0.09982705116271973
79	254.456857919693	fix_pre	0		60.0	77.0	2.5	/experiments/knapen_aot/videos/S_yt-sIXdPhfS67U_203.mp4	0.0	367.76055693626404	0.49999499320983887
79	254.94871401786804	response	0	2		77.0	2.5	/experiments/knapen_aot/videos/S_yt-sIXdPhfS67U_203.mp4	0.0	368.2524130344391	
79	254.95685291290283	movie	1		301.0	77.0	2.5	/experiments/knapen_aot/videos/S_yt-sIXdPhfS67U_203.mp4	0.0	368.2605519294739	2.5083529949188232
79	257.46520590782166	fix_post	2		12.0	77.0	2.5	/experiments/knapen_aot/videos/S_yt-sIXdPhfS67U_203.mp4	0.0	370.7689049243927	0.10017108917236328
80	257.565376996994	fix_pre	0		150.0	78.0	2.5	/experiments/knapen_aot/videos/R_S_comp_L004_C011_PS_v01_SDR_PS_20180925_SDR_2K_AVC.mp4	0.0	370.86907601356506	1.249950885772705
80	258.8070068359375	response	0	2		78.0	2.5	/experiments/knapen_aot/videos/R_S_comp_L004_C011_PS_v01_SDR_PS_20180925_SDR_2K_AVC.mp4	0.0	372.11070585250854	
80	258.8153278827667	movie	1		166.0	78.0	2.5	/experiments/knapen_aot/videos/R_S_comp_L004_C011_PS_v01_SDR_PS_20180925_SDR_2K_AVC.mp4	0.0	372.11902689933777	2.5082831382751465
80	261.32361102104187	fix_post	2		12.0	78.0	2.5	/experiments/knapen_aot/videos/R_S_comp_L004_C011_PS_v01_SDR_PS_20180925_SDR_2K_AVC.mp4	0.0	374.6273100376129	0.09997296333312988
81	261.423583984375	fix_pre	0		90.0	79.0	2.5	/experiments/knapen_aot/videos/R_S_comp_A012_C014_1223PT_v53_SDR_PS_FINAL_20180709_F0F8700_SDR_2K_AVC.mp4	0.0	374.72728300094604	0.7499158382415771
81	262.1654438972473	response	0	2		79.0	2.5	/experiments/knapen_aot/videos/R_S_comp_A012_C014_1223PT_v53_SDR_PS_FINAL_20180709_F0F8700_SDR_2K_AVC.mp4	0.0	375.46914291381836	
81	262.1734998226166	movie	1		167.0	79.0	2.5	/experiments/knapen_aot/videos/R_S_comp_A012_C014_1223PT_v53_SDR_PS_FINAL_20180709_F0F8700_SDR_2K_AVC.mp4	0.0	375.4771988391876	2.5083260536193848
81	264.68182587623596	fix_post	2		12.0	79.0	2.5	/experiments/knapen_aot/videos/R_S_comp_A012_C014_1223PT_v53_SDR_PS_FINAL_20180709_F0F8700_SDR_2K_AVC.mp4	0.0	377.985524892807	0.10005402565002441
82	264.781879901886	fix_pre	0		77.0	80.0	2.5	/experiments/knapen_aot/videos/R_S_yt-Xegmd8whqBs_230.mp4	0.0	378.08557891845703	0.6416480541229248
82	265.4078929424286	response	0	2		80.0	2.5	/experiments/knapen_aot/videos/R_S_yt-Xegmd8whqBs_230.mp4	0.0	378.71159195899963	
82	265.4235279560089	movie	1		301.0	80.0	2.5	/experiments/knapen_aot/videos/R_S_yt-Xegmd8whqBs_230.mp4	0.0	378.72722697257996	2.5083229541778564
82	267.93185091018677	fix_post	2		12.0	80.0	2.5	/experiments/knapen_aot/videos/R_S_yt-Xegmd8whqBs_230.mp4	0.0	381.2355499267578	0.09999394416809082
83	268.03184485435486	fix_pre	0		40.0	81.0	2.5	/experiments/knapen_aot/videos/S_yt-e_eOzV7qMZo_374.mp4	0.0	381.3355438709259	0.3332819938659668
83	268.3570079803467	response	0	2		81.0	2.5	/experiments/knapen_aot/videos/S_yt-e_eOzV7qMZo_374.mp4	0.0	381.6607069969177	
83	268.3651268482208	movie	1		301.0	81.0	2.5	/experiments/knapen_aot/videos/S_yt-e_eOzV7qMZo_374.mp4	0.0	381.66882586479187	2.5083460807800293
83	270.87347292900085	fix_post	2		12.0	81.0	2.5	/experiments/knapen_aot/videos/S_yt-e_eOzV7qMZo_374.mp4	0.0	384.1771719455719	0.10007095336914062
84	270.97354388237	fix_pre	0		56.0	82.0	2.5	blank	1.0	384.27724289894104	0.4666430950164795
84	271.4319679737091	response	0	2		82.0	2.5	blank	1.0	384.73566699028015	
84	271.4401869773865	movie	1		301.0	82.0	2.5	blank	1.0	384.7438859939575	2.50833797454834
84	273.9485249519348	fix_post	2		12.0	82.0	2.5	blank	1.0	387.25222396850586	0.09996891021728516
85	274.0484938621521	fix_pre	0		89.0	83.0	2.5	/experiments/knapen_aot/videos/S_comp_L004_C011_PS_v01_SDR_PS_20180925_SDR_2K_AVC.mp4	0.0	387.35219287872314	0.7416670322418213
85	274.78196597099304	response	0	2		83.0	2.5	/experiments/knapen_aot/videos/S_comp_L004_C011_PS_v01_SDR_PS_20180925_SDR_2K_AVC.mp4	0.0	388.0856649875641	
85	274.7901608943939	movie	1		166.0	83.0	2.5	/experiments/knapen_aot/videos/S_comp_L004_C011_PS_v01_SDR_PS_20180925_SDR_2K_AVC.mp4	0.0	388.09385991096497	2.5083320140838623
85	277.2984929084778	fix_post	2		12.0	83.0	2.5	/experiments/knapen_aot/videos/S_comp_L004_C011_PS_v01_SDR_PS_20180925_SDR_2K_AVC.mp4	0.0	390.6021919250488	0.09996700286865234
87	277.39845991134644	stim	0		112.0					390.7021589279175	0.9333140850067139
87	278.3256390094757	response	0	space						391.62933802604675	
