trial_nr	onset	event_type	phase	response	nr_frames	movie_index	movie_duration	movie_file	blank	onset_abs	duration
0	0.15953803062438965	stim	0		60.0					66.98451805114746	0.49681806564331055
0	0.10843801498413086	response	0	escape						66.9334180355072	
0	0.648061990737915	response	0	space						67.47304201126099	
1	0.6563560962677002	stim	0		121.0					67.48133611679077	1.0079970359802246
1	1.6643531322479248	stim	1		120.0					68.489333152771	0.9999630451202393
1	1.8310880661010742	response	1	space						68.65606808662415	
2	2.664316177368164	fix_pre	0		8.0	0.0	2.5	/experiments/knapen_aot/videos/R_S_yt-WTxvvlP8xnw_113.mp4	0.0	69.48929619789124	0.06664180755615234
2	2.7228200435638428	response	0	space		0.0	2.5	/experiments/knapen_aot/videos/R_S_yt-WTxvvlP8xnw_113.mp4	0.0	69.54780006408691	
2	2.7309579849243164	movie	1		301.0	0.0	2.5	/experiments/knapen_aot/videos/R_S_yt-WTxvvlP8xnw_113.mp4	0.0	69.55593800544739	2.508366107940674
2	5.23932409286499	fix_post	2		12.0	0.0	2.5	/experiments/knapen_aot/videos/R_S_yt-WTxvvlP8xnw_113.mp4	0.0	72.06430411338806	0.09997987747192383
3	5.339303970336914	fix_pre	0		35.0	1.0	2.5	/experiments/knapen_aot/videos/S_yt-11S5tcT2Tm0_254.mp4	0.0	72.16428399085999	0.2920951843261719
3	5.627658128738403	response	0	2		1.0	2.5	/experiments/knapen_aot/videos/S_yt-11S5tcT2Tm0_254.mp4	0.0	72.45263814926147	
3	5.631399154663086	movie	1		294.0	1.0	2.5	/experiments/knapen_aot/videos/S_yt-11S5tcT2Tm0_254.mp4	0.0	72.45637917518616	2.508002996444702
3	8.139402151107788	fix_post	2		12.0	1.0	2.5	/experiments/knapen_aot/videos/S_yt-11S5tcT2Tm0_254.mp4	0.0	74.96438217163086	0.09991979598999023
4	8.239321947097778	fix_pre	0		51.0	2.0	2.5	/experiments/knapen_aot/videos/R_S_P006_C002_UHD_SDR_2K_AVC.mp4	0.0	75.06430196762085	0.42490220069885254
4	8.656106948852539	response	0	2		2.0	2.5	/experiments/knapen_aot/videos/R_S_P006_C002_UHD_SDR_2K_AVC.mp4	0.0	75.48108696937561	
4	8.66422414779663	movie	1		167.0	2.0	2.5	/experiments/knapen_aot/videos/R_S_P006_C002_UHD_SDR_2K_AVC.mp4	0.0	75.4892041683197	2.508452892303467
4	11.172677040100098	fix_post	2		12.0	2.0	2.5	/experiments/knapen_aot/videos/R_S_P006_C002_UHD_SDR_2K_AVC.mp4	0.0	77.99765706062317	0.10004901885986328
5	11.272726058959961	fix_pre	0		76.0	3.0	2.5	/experiments/knapen_aot/videos/R_S_yt-jy96-k8drRE_1.mp4	0.0	78.09770607948303	0.6331748962402344
5	11.897703170776367	response	0	2		3.0	2.5	/experiments/knapen_aot/videos/R_S_yt-jy96-k8drRE_1.mp4	0.0	78.72268319129944	
5	11.905900955200195	movie	1		301.0	3.0	2.5	/experiments/knapen_aot/videos/R_S_yt-jy96-k8drRE_1.mp4	0.0	78.73088097572327	2.508347988128662
5	14.414248943328857	fix_post	2		12.0	3.0	2.5	/experiments/knapen_aot/videos/R_S_yt-jy96-k8drRE_1.mp4	0.0	81.23922896385193	0.10012316703796387
6	14.514372110366821	fix_pre	0		27.0	4.0	2.5	/experiments/knapen_aot/videos/S_yt-2LCHVTVwJ5E_235.mp4	0.0	81.33935213088989	0.22492003440856934
6	14.731023073196411	response	0	2		4.0	2.5	/experiments/knapen_aot/videos/S_yt-2LCHVTVwJ5E_235.mp4	0.0	81.55600309371948	
6	14.73929214477539	movie	1		301.0	4.0	2.5	/experiments/knapen_aot/videos/S_yt-2LCHVTVwJ5E_235.mp4	0.0	81.56427216529846	2.5083138942718506
6	17.24760603904724	fix_post	2		12.0	4.0	2.5	/experiments/knapen_aot/videos/S_yt-2LCHVTVwJ5E_235.mp4	0.0	84.07258605957031	0.09995603561401367
7	17.347562074661255	fix_pre	0		27.0	5.0	2.5	/experiments/knapen_aot/videos/S_pexels-kelly-lacy-6756531.mp4	0.0	84.17254209518433	0.22499394416809082
7	17.564361095428467	response	0	2		5.0	2.5	/experiments/knapen_aot/videos/S_pexels-kelly-lacy-6756531.mp4	0.0	84.38934111595154	
7	17.572556018829346	movie	1		174.0	5.0	2.5	/experiments/knapen_aot/videos/S_pexels-kelly-lacy-6756531.mp4	0.0	84.39753603935242	2.5085809230804443
7	20.08113694190979	fix_post	2		12.0	5.0	2.5	/experiments/knapen_aot/videos/S_pexels-kelly-lacy-6756531.mp4	0.0	86.90611696243286	0.09991121292114258
8	20.181048154830933	fix_pre	0		33.0	6.0	2.5	/experiments/knapen_aot/videos/R_S_Pexels_Videos_2795737.mp4	0.0	87.006028175354	0.2748548984527588
8	20.44771695137024	response	0	2		6.0	2.5	/experiments/knapen_aot/videos/R_S_Pexels_Videos_2795737.mp4	0.0	87.27269697189331	
8	20.45590305328369	movie	1		165.0	6.0	2.5	/experiments/knapen_aot/videos/R_S_Pexels_Videos_2795737.mp4	0.0	87.28088307380676	2.508404016494751
8	22.964307069778442	fix_post	2		12.0	6.0	2.5	/experiments/knapen_aot/videos/R_S_Pexels_Videos_2795737.mp4	0.0	89.78928709030151	0.10003089904785156
9	23.064337968826294	fix_pre	0		31.0	7.0	2.5	blank	1.0	89.88931798934937	0.25826406478881836
9	23.314399003982544	response	0	2		7.0	2.5	blank	1.0	90.13937902450562	
9	23.322602033615112	movie	1		301.0	7.0	2.5	blank	1.0	90.14758205413818	2.508305072784424
9	25.830907106399536	fix_post	2		12.0	7.0	2.5	blank	1.0	92.65588712692261	0.10003304481506348
10	25.9309401512146	fix_pre	0		21.0	8.0	2.5	/experiments/knapen_aot/videos/S_yt-SjPYdaUBi7A_37.mp4	0.0	92.75592017173767	0.17493081092834473
10	26.097712993621826	response	0	2		8.0	2.5	/experiments/knapen_aot/videos/S_yt-SjPYdaUBi7A_37.mp4	0.0	92.9226930141449	
10	26.105870962142944	movie	1		301.0	8.0	2.5	/experiments/knapen_aot/videos/S_yt-SjPYdaUBi7A_37.mp4	0.0	92.93085098266602	2.508357048034668
10	28.614228010177612	fix_post	2		12.0	8.0	2.5	/experiments/knapen_aot/videos/S_yt-SjPYdaUBi7A_37.mp4	0.0	95.43920803070068	0.10001897811889648
11	28.71424698829651	fix_pre	0		60.0	9.0	2.5	/experiments/knapen_aot/videos/S_yt-V5iQ3MbihnI_103.mp4	0.0	95.53922700881958	0.5002779960632324
11	29.20601511001587	response	0	2		9.0	2.5	/experiments/knapen_aot/videos/S_yt-V5iQ3MbihnI_103.mp4	0.0	96.03099513053894	
11	29.21452498435974	movie	1		301.0	9.0	2.5	/experiments/knapen_aot/videos/S_yt-V5iQ3MbihnI_103.mp4	0.0	96.03950500488281	2.5080230236053467
11	31.722548007965088	fix_post	2		12.0	9.0	2.5	/experiments/knapen_aot/videos/S_yt-V5iQ3MbihnI_103.mp4	0.0	98.54752802848816	0.09994101524353027
12	31.822489023208618	fix_pre	0		123.0	10.0	2.5	/experiments/knapen_aot/videos/R_S_comp_GMT314_139M_170NC_NORTH_AMERICA_AURORA__COMP_v22_SDR_20181206_v12CC_SDR_2K_AVC.mp4	0.0	98.64746904373169	1.0249519348144531
12	32.83933711051941	response	0	2		10.0	2.5	/experiments/knapen_aot/videos/R_S_comp_GMT314_139M_170NC_NORTH_AMERICA_AURORA__COMP_v22_SDR_20181206_v12CC_SDR_2K_AVC.mp4	0.0	99.66431713104248	
12	32.84744095802307	movie	1		169.0	10.0	2.5	/experiments/knapen_aot/videos/R_S_comp_GMT314_139M_170NC_NORTH_AMERICA_AURORA__COMP_v22_SDR_20181206_v12CC_SDR_2K_AVC.mp4	0.0	99.67242097854614	2.5084500312805176
12	35.35589098930359	fix_post	2		12.0	10.0	2.5	/experiments/knapen_aot/videos/R_S_comp_GMT314_139M_170NC_NORTH_AMERICA_AURORA__COMP_v22_SDR_20181206_v12CC_SDR_2K_AVC.mp4	0.0	102.18087100982666	0.10000395774841309
13	35.455894947052	fix_pre	0		54.0	11.0	2.5	/experiments/knapen_aot/videos/S_yt-fnE8kgUHUMI_64.mp4	0.0	102.28087496757507	0.449970006942749
13	35.897669076919556	response	0	2		11.0	2.5	/experiments/knapen_aot/videos/S_yt-fnE8kgUHUMI_64.mp4	0.0	102.72264909744263	
13	35.90586495399475	movie	1		301.0	11.0	2.5	/experiments/knapen_aot/videos/S_yt-fnE8kgUHUMI_64.mp4	0.0	102.73084497451782	2.508294105529785
13	38.414159059524536	fix_post	2		12.0	11.0	2.5	/experiments/knapen_aot/videos/S_yt-fnE8kgUHUMI_64.mp4	0.0	105.23913908004761	0.09996604919433594
14	38.51412510871887	fix_pre	0		46.0	12.0	2.5	/experiments/knapen_aot/videos/S_yt-aqrdb6BiFx4_12.mp4	0.0	105.33910512924194	0.3833649158477783
14	38.889238119125366	response	0	2		12.0	2.5	/experiments/knapen_aot/videos/S_yt-aqrdb6BiFx4_12.mp4	0.0	105.71421813964844	
14	38.89749002456665	movie	1		301.0	12.0	2.5	/experiments/knapen_aot/videos/S_yt-aqrdb6BiFx4_12.mp4	0.0	105.72247004508972	2.5084240436553955
14	41.405914068222046	fix_post	2		12.0	12.0	2.5	/experiments/knapen_aot/videos/S_yt-aqrdb6BiFx4_12.mp4	0.0	108.23089408874512	0.0999751091003418
15	41.50588917732239	fix_pre	0		63.0	13.0	2.5	/experiments/knapen_aot/videos/R_S_yt-a0axt7n0GuQ_19.mp4	0.0	108.33086919784546	0.5248677730560303
15	42.02258801460266	response	0	2		13.0	2.5	/experiments/knapen_aot/videos/R_S_yt-a0axt7n0GuQ_19.mp4	0.0	108.84756803512573	
15	42.03075695037842	movie	1		301.0	13.0	2.5	/experiments/knapen_aot/videos/R_S_yt-a0axt7n0GuQ_19.mp4	0.0	108.85573697090149	2.5083911418914795
15	44.5391480922699	fix_post	2		12.0	13.0	2.5	/experiments/knapen_aot/videos/R_S_yt-a0axt7n0GuQ_19.mp4	0.0	111.36412811279297	0.10000085830688477
16	44.63914895057678	fix_pre	0		58.0	14.0	2.5	blank	1.0	111.46412897109985	0.4833180904388428
16	45.11420202255249	response	0	2		14.0	2.5	blank	1.0	111.93918204307556	
16	45.122467041015625	movie	1		301.0	14.0	2.5	blank	1.0	111.9474470615387	2.508342981338501
16	47.630810022354126	fix_post	2		12.0	14.0	2.5	blank	1.0	114.4557900428772	0.1000070571899414
17	47.73081707954407	fix_pre	0		31.0	15.0	2.5	/experiments/knapen_aot/videos/S_yt-PcOWc5EJbVo_39.mp4	0.0	114.55579710006714	0.2582530975341797
17	47.980895042419434	response	0	2		15.0	2.5	/experiments/knapen_aot/videos/S_yt-PcOWc5EJbVo_39.mp4	0.0	114.8058750629425	
17	47.98907017707825	movie	1		301.0	15.0	2.5	/experiments/knapen_aot/videos/S_yt-PcOWc5EJbVo_39.mp4	0.0	114.81405019760132	2.5084798336029053
17	50.49755001068115	fix_post	2		12.0	15.0	2.5	/experiments/knapen_aot/videos/S_yt-PcOWc5EJbVo_39.mp4	0.0	117.32253003120422	0.09993195533752441
18	50.59748196601868	fix_pre	0		22.0	16.0	2.5	/experiments/knapen_aot/videos/R_S_production_ID_4820868.mp4	0.0	117.42246198654175	0.18331217765808105
18	50.77257204055786	response	0	2		16.0	2.5	/experiments/knapen_aot/videos/R_S_production_ID_4820868.mp4	0.0	117.59755206108093	
18	50.78079414367676	movie	1		168.0	16.0	2.5	/experiments/knapen_aot/videos/R_S_production_ID_4820868.mp4	0.0	117.60577416419983	2.5083580017089844
18	53.28915214538574	fix_post	2		12.0	16.0	2.5	/experiments/knapen_aot/videos/R_S_production_ID_4820868.mp4	0.0	120.11413216590881	0.09998798370361328
19	53.389140129089355	fix_pre	0		33.0	17.0	2.5	/experiments/knapen_aot/videos/S_yt-9NV8zv2Sdq4_30.mp4	0.0	120.21412014961243	0.27501583099365234
19	53.65585017204285	response	0	2		17.0	2.5	/experiments/knapen_aot/videos/S_yt-9NV8zv2Sdq4_30.mp4	0.0	120.48083019256592	
19	53.66415596008301	movie	1		301.0	17.0	2.5	/experiments/knapen_aot/videos/S_yt-9NV8zv2Sdq4_30.mp4	0.0	120.48913598060608	2.5083091259002686
19	56.172465085983276	fix_post	2		12.0	17.0	2.5	/experiments/knapen_aot/videos/S_yt-9NV8zv2Sdq4_30.mp4	0.0	122.99744510650635	0.09985589981079102
20	56.27232098579407	fix_pre	0		39.0	18.0	2.5	/experiments/knapen_aot/videos/R_S_production_ID_4101307.mp4	0.0	123.09730100631714	0.3250889778137207
20	56.58917808532715	response	0	2		18.0	2.5	/experiments/knapen_aot/videos/R_S_production_ID_4101307.mp4	0.0	123.41415810585022	
20	56.59740996360779	movie	1		205.0	18.0	2.5	/experiments/knapen_aot/videos/R_S_production_ID_4101307.mp4	0.0	123.42238998413086	2.5083680152893066
20	59.105777978897095	fix_post	2		12.0	18.0	2.5	/experiments/knapen_aot/videos/R_S_production_ID_4101307.mp4	0.0	125.93075799942017	0.09990310668945312
21	59.20568108558655	fix_pre	0		29.0	19.0	2.5	blank	1.0	126.03066110610962	0.24176788330078125
21	59.43917417526245	response	0	2		19.0	2.5	blank	1.0	126.26415419578552	
21	59.44744896888733	movie	1		301.0	19.0	2.5	blank	1.0	126.2724289894104	2.5082859992980957
21	61.955734968185425	fix_post	2		12.0	19.0	2.5	blank	1.0	128.7807149887085	0.10003018379211426
22	62.05576515197754	fix_pre	0		81.0	20.0	2.5	/experiments/knapen_aot/videos/R_S_yt--v_iMUMMX6g_39.mp4	0.0	128.8807451725006	0.6749289035797119
22	62.72250294685364	response	0	2		20.0	2.5	/experiments/knapen_aot/videos/R_S_yt--v_iMUMMX6g_39.mp4	0.0	129.5474829673767	
22	62.73069405555725	movie	1		301.0	20.0	2.5	/experiments/knapen_aot/videos/R_S_yt--v_iMUMMX6g_39.mp4	0.0	129.55567407608032	2.508380889892578
22	65.23907494544983	fix_post	2		12.0	20.0	2.5	/experiments/knapen_aot/videos/R_S_yt--v_iMUMMX6g_39.mp4	0.0	132.0640549659729	0.10022521018981934
23	65.33930015563965	fix_pre	0		34.0	21.0	2.5	/experiments/knapen_aot/videos/R_S_yt-FhnT_42bV7M_11.mp4	0.0	132.16428017616272	0.2830519676208496
23	65.61416411399841	response	0	2		21.0	2.5	/experiments/knapen_aot/videos/R_S_yt-FhnT_42bV7M_11.mp4	0.0	132.43914413452148	
23	65.6223521232605	movie	1		301.0	21.0	2.5	/experiments/knapen_aot/videos/R_S_yt-FhnT_42bV7M_11.mp4	0.0	132.44733214378357	2.508366823196411
23	68.13071894645691	fix_post	2		12.0	21.0	2.5	/experiments/knapen_aot/videos/R_S_yt-FhnT_42bV7M_11.mp4	0.0	134.95569896697998	0.09993720054626465
24	68.23065614700317	fix_pre	0		37.0	22.0	2.5	/experiments/knapen_aot/videos/S_yt-WCT9dyz0-gQ_36.mp4	0.0	135.05563616752625	0.3084709644317627
24	68.53078198432922	response	0	2		22.0	2.5	/experiments/knapen_aot/videos/S_yt-WCT9dyz0-gQ_36.mp4	0.0	135.3557620048523	
24	68.53912711143494	movie	1		301.0	22.0	2.5	/experiments/knapen_aot/videos/S_yt-WCT9dyz0-gQ_36.mp4	0.0	135.364107131958	2.508396863937378
24	71.04752397537231	fix_post	2		12.0	22.0	2.5	/experiments/knapen_aot/videos/S_yt-WCT9dyz0-gQ_36.mp4	0.0	137.87250399589539	0.09984707832336426
25	71.14737105369568	fix_pre	0		33.0	23.0	2.5	/experiments/knapen_aot/videos/S_yt-4qU-6TEW06E_38.mp4	0.0	137.97235107421875	0.27506494522094727
25	71.4141149520874	response	0	2		23.0	2.5	/experiments/knapen_aot/videos/S_yt-4qU-6TEW06E_38.mp4	0.0	138.23909497261047	
25	71.42243599891663	movie	1		300.0	23.0	2.5	/experiments/knapen_aot/videos/S_yt-4qU-6TEW06E_38.mp4	0.0	138.2474160194397	2.5083019733428955
25	73.93073797225952	fix_post	2		12.0	23.0	2.5	/experiments/knapen_aot/videos/S_yt-4qU-6TEW06E_38.mp4	0.0	140.7557179927826	0.09994816780090332
26	74.03068614006042	fix_pre	0		43.0	24.0	2.5	/experiments/knapen_aot/videos/R_S_yt-7Ya-rGPO8cM_159.mp4	0.0	140.8556661605835	0.3583400249481201
26	74.38085007667542	response	0	2		24.0	2.5	/experiments/knapen_aot/videos/R_S_yt-7Ya-rGPO8cM_159.mp4	0.0	141.2058300971985	
26	74.38902616500854	movie	1		301.0	24.0	2.5	/experiments/knapen_aot/videos/R_S_yt-7Ya-rGPO8cM_159.mp4	0.0	141.21400618553162	2.508293867111206
26	76.89732003211975	fix_post	2		12.0	24.0	2.5	/experiments/knapen_aot/videos/R_S_yt-7Ya-rGPO8cM_159.mp4	0.0	143.72230005264282	0.10032010078430176
27	76.99764013290405	fix_pre	0		28.0	25.0	2.5	/experiments/knapen_aot/videos/R_S_yt-SS7pSyb0_d0_32.mp4	0.0	143.82262015342712	0.23305392265319824
27	77.2224440574646	response	0	2		25.0	2.5	/experiments/knapen_aot/videos/R_S_yt-SS7pSyb0_d0_32.mp4	0.0	144.04742407798767	
27	77.23069405555725	movie	1		301.0	25.0	2.5	/experiments/knapen_aot/videos/R_S_yt-SS7pSyb0_d0_32.mp4	0.0	144.05567407608032	2.5083160400390625
27	79.73901009559631	fix_post	2		12.0	25.0	2.5	/experiments/knapen_aot/videos/R_S_yt-SS7pSyb0_d0_32.mp4	0.0	146.56399011611938	0.10009407997131348
28	79.83910417556763	fix_pre	0		37.0	26.0	2.5	/experiments/knapen_aot/videos/R_S_yt-Ndwek2tpIOA_169.mp4	0.0	146.6640841960907	0.3082118034362793
28	80.13911199569702	response	0	2		26.0	2.5	/experiments/knapen_aot/videos/R_S_yt-Ndwek2tpIOA_169.mp4	0.0	146.9640920162201	
28	80.1473159790039	movie	1		301.0	26.0	2.5	/experiments/knapen_aot/videos/R_S_yt-Ndwek2tpIOA_169.mp4	0.0	146.97229599952698	2.5083281993865967
28	82.6556441783905	fix_post	2		12.0	26.0	2.5	/experiments/knapen_aot/videos/R_S_yt-Ndwek2tpIOA_169.mp4	0.0	149.48062419891357	0.10013580322265625
29	82.75577998161316	fix_pre	0		20.0	27.0	2.5	blank	1.0	149.58076000213623	0.16660714149475098
29	82.91401815414429	response	0	2		27.0	2.5	blank	1.0	149.73899817466736	
29	82.92238712310791	movie	1		301.0	27.0	2.5	blank	1.0	149.74736714363098	2.508366823196411
29	85.43075394630432	fix_post	2		12.0	27.0	2.5	blank	1.0	152.2557339668274	0.099884033203125
30	85.53063797950745	fix_pre	0		33.0	28.0	2.5	/experiments/knapen_aot/videos/R_S_comp_CH_C007_C011_PSNK_v02_SDR_PS_FINAL_20180709_SDR_2K_AVC.mp4	0.0	152.35561800003052	0.27495408058166504
30	85.79741597175598	response	0	2		28.0	2.5	/experiments/knapen_aot/videos/R_S_comp_CH_C007_C011_PSNK_v02_SDR_PS_FINAL_20180709_SDR_2K_AVC.mp4	0.0	152.62239599227905	
30	85.80559206008911	movie	1		177.0	28.0	2.5	/experiments/knapen_aot/videos/R_S_comp_CH_C007_C011_PSNK_v02_SDR_PS_FINAL_20180709_SDR_2K_AVC.mp4	0.0	152.63057208061218	2.5083699226379395
30	88.31396198272705	fix_post	2		12.0	28.0	2.5	/experiments/knapen_aot/videos/R_S_comp_CH_C007_C011_PSNK_v02_SDR_PS_FINAL_20180709_SDR_2K_AVC.mp4	0.0	155.13894200325012	0.09996914863586426
31	88.41393113136292	fix_pre	0		70.0	29.0	2.5	/experiments/knapen_aot/videos/S_yt-HwEfWfFJhRo_73.mp4	0.0	155.238911151886	0.5832998752593994
31	88.98913407325745	response	0	2		29.0	2.5	/experiments/knapen_aot/videos/S_yt-HwEfWfFJhRo_73.mp4	0.0	155.81411409378052	
31	88.99723100662231	movie	1		301.0	29.0	2.5	/experiments/knapen_aot/videos/S_yt-HwEfWfFJhRo_73.mp4	0.0	155.82221102714539	2.5090250968933105
31	91.50625610351562	fix_post	2		12.0	29.0	2.5	/experiments/knapen_aot/videos/S_yt-HwEfWfFJhRo_73.mp4	0.0	158.3312361240387	0.09930992126464844
32	91.60556602478027	fix_pre	0		26.0	30.0	2.5	/experiments/knapen_aot/videos/S_yt-BqJHT4K7Qf8_127.mp4	0.0	158.43054604530334	0.21659612655639648
32	91.81398916244507	response	0	2		30.0	2.5	/experiments/knapen_aot/videos/S_yt-BqJHT4K7Qf8_127.mp4	0.0	158.63896918296814	
32	91.82216215133667	movie	1		301.0	30.0	2.5	/experiments/knapen_aot/videos/S_yt-BqJHT4K7Qf8_127.mp4	0.0	158.64714217185974	2.5083789825439453
32	94.33054113388062	fix_post	2		12.0	30.0	2.5	/experiments/knapen_aot/videos/S_yt-BqJHT4K7Qf8_127.mp4	0.0	161.1555211544037	0.10005402565002441
33	94.43059515953064	fix_pre	0		19.0	31.0	2.5	/experiments/knapen_aot/videos/R_S_comp_GMT026_363A_103NC_E1027_KOREA_JAPAN_NIGHT_v18_SDR_PS_20180907_SDR_2K_AVC.mp4	0.0	161.2555751800537	0.15825295448303223
33	94.58073401451111	response	0	2		31.0	2.5	/experiments/knapen_aot/videos/R_S_comp_GMT026_363A_103NC_E1027_KOREA_JAPAN_NIGHT_v18_SDR_PS_20180907_SDR_2K_AVC.mp4	0.0	161.40571403503418	
33	94.58884811401367	movie	1		174.0	31.0	2.5	/experiments/knapen_aot/videos/R_S_comp_GMT026_363A_103NC_E1027_KOREA_JAPAN_NIGHT_v18_SDR_PS_20180907_SDR_2K_AVC.mp4	0.0	161.41382813453674	2.508486032485962
33	97.09733414649963	fix_post	2		12.0	31.0	2.5	/experiments/knapen_aot/videos/R_S_comp_GMT026_363A_103NC_E1027_KOREA_JAPAN_NIGHT_v18_SDR_PS_20180907_SDR_2K_AVC.mp4	0.0	163.9223141670227	0.09993100166320801
34	97.19726514816284	fix_pre	0		19.0	32.0	2.5	/experiments/knapen_aot/videos/R_S_yt-rbJOb1spY9M_16.mp4	0.0	164.0222451686859	0.1582348346710205
34	97.34739303588867	response	0	2		32.0	2.5	/experiments/knapen_aot/videos/R_S_yt-rbJOb1spY9M_16.mp4	0.0	164.17237305641174	
34	97.35549998283386	movie	1		301.0	32.0	2.5	/experiments/knapen_aot/videos/R_S_yt-rbJOb1spY9M_16.mp4	0.0	164.18048000335693	2.5083651542663574
34	99.86386513710022	fix_post	2		12.0	32.0	2.5	/experiments/knapen_aot/videos/R_S_yt-rbJOb1spY9M_16.mp4	0.0	166.6888451576233	0.10004997253417969
35	99.9639151096344	fix_pre	0		32.0	33.0	2.5	blank	1.0	166.78889513015747	0.2665839195251465
35	100.22234606742859	response	0	2		33.0	2.5	blank	1.0	167.04732608795166	
35	100.23049902915955	movie	1		301.0	33.0	2.5	blank	1.0	167.05547904968262	2.5083401203155518
35	102.7388391494751	fix_post	2		12.0	33.0	2.5	blank	1.0	169.56381916999817	0.10009098052978516
36	102.83893013000488	fix_pre	0		32.0	34.0	2.5	/experiments/knapen_aot/videos/R_S_yt-KVB49z48sZU_55.mp4	0.0	169.66391015052795	0.2665669918060303
36	103.09735798835754	response	0	2		34.0	2.5	/experiments/knapen_aot/videos/R_S_yt-KVB49z48sZU_55.mp4	0.0	169.92233800888062	
36	103.10549712181091	movie	1		301.0	34.0	2.5	/experiments/knapen_aot/videos/R_S_yt-KVB49z48sZU_55.mp4	0.0	169.93047714233398	2.508533000946045
36	105.61403012275696	fix_post	2		12.0	34.0	2.5	/experiments/knapen_aot/videos/R_S_yt-KVB49z48sZU_55.mp4	0.0	172.43901014328003	0.099884033203125
37	105.71391415596008	fix_pre	0		40.0	35.0	2.5	/experiments/knapen_aot/videos/S_yt-ILARvS15SDQ_741.mp4	0.0	172.53889417648315	0.33333396911621094
37	106.0313949584961	response	0	2		35.0	2.5	/experiments/knapen_aot/videos/S_yt-ILARvS15SDQ_741.mp4	0.0	172.85637497901917	
37	106.0472481250763	movie	1		301.0	35.0	2.5	/experiments/knapen_aot/videos/S_yt-ILARvS15SDQ_741.mp4	0.0	172.87222814559937	2.508373975753784
37	108.55562210083008	fix_post	2		12.0	35.0	2.5	/experiments/knapen_aot/videos/S_yt-ILARvS15SDQ_741.mp4	0.0	175.38060212135315	0.09995007514953613
38	108.65557217597961	fix_pre	0		3.0	36.0	2.5	/experiments/knapen_aot/videos/R_S_yt-HRuCkU_kBoE_239.mp4	0.0	175.48055219650269	0.0249788761138916
38	108.66621112823486	response	0	2		36.0	2.5	/experiments/knapen_aot/videos/R_S_yt-HRuCkU_kBoE_239.mp4	0.0	175.49119114875793	
38	108.6805510520935	movie	1		301.0	36.0	2.5	/experiments/knapen_aot/videos/R_S_yt-HRuCkU_kBoE_239.mp4	0.0	175.50553107261658	2.5083069801330566
38	111.18885803222656	fix_post	2		12.0	36.0	2.5	/experiments/knapen_aot/videos/R_S_yt-HRuCkU_kBoE_239.mp4	0.0	178.01383805274963	0.10000109672546387
39	111.28885912895203	fix_pre	0		27.0	37.0	2.5	/experiments/knapen_aot/videos/S_yt-KVB49z48sZU_55.mp4	0.0	178.1138391494751	0.2249748706817627
39	111.50566697120667	response	0	2		37.0	2.5	/experiments/knapen_aot/videos/S_yt-KVB49z48sZU_55.mp4	0.0	178.33064699172974	
39	111.51383399963379	movie	1		301.0	37.0	2.5	/experiments/knapen_aot/videos/S_yt-KVB49z48sZU_55.mp4	0.0	178.33881402015686	2.5084421634674072
39	114.0222761631012	fix_post	2		12.0	37.0	2.5	/experiments/knapen_aot/videos/S_yt-KVB49z48sZU_55.mp4	0.0	180.84725618362427	0.0998988151550293
40	114.12217497825623	fix_pre	0		38.0	38.0	2.5	/experiments/knapen_aot/videos/R_S_wc-AyT9mzwZsu0T_14.mp4	0.0	180.9471549987793	0.31677913665771484
40	114.42320394515991	response	0	2		38.0	2.5	/experiments/knapen_aot/videos/R_S_wc-AyT9mzwZsu0T_14.mp4	0.0	181.24818396568298	
40	114.43895411491394	movie	1		169.0	38.0	2.5	/experiments/knapen_aot/videos/R_S_wc-AyT9mzwZsu0T_14.mp4	0.0	181.263934135437	2.5083348751068115
40	116.94728899002075	fix_post	2		12.0	38.0	2.5	/experiments/knapen_aot/videos/R_S_wc-AyT9mzwZsu0T_14.mp4	0.0	183.77226901054382	0.10000801086425781
41	117.04729700088501	fix_pre	0		22.0	39.0	2.5	/experiments/knapen_aot/videos/R_S_yt-v66td-1WO7w_44.mp4	0.0	183.87227702140808	0.18317103385925293
41	117.22227716445923	response	0	2		39.0	2.5	/experiments/knapen_aot/videos/R_S_yt-v66td-1WO7w_44.mp4	0.0	184.0472571849823	
41	117.23046803474426	movie	1		301.0	39.0	2.5	/experiments/knapen_aot/videos/R_S_yt-v66td-1WO7w_44.mp4	0.0	184.05544805526733	2.508513927459717
41	119.73898196220398	fix_post	2		12.0	39.0	2.5	/experiments/knapen_aot/videos/R_S_yt-v66td-1WO7w_44.mp4	0.0	186.56396198272705	0.09981918334960938
42	119.83880114555359	fix_pre	0		27.0	40.0	2.5	blank	1.0	186.66378116607666	0.22499585151672363
42	120.05563807487488	response	0	2		40.0	2.5	blank	1.0	186.88061809539795	
42	120.06379699707031	movie	1		301.0	40.0	2.5	blank	1.0	186.88877701759338	2.508301019668579
42	122.57209801673889	fix_post	2		12.0	40.0	2.5	blank	1.0	189.39707803726196	0.10006308555603027
43	122.67216110229492	fix_pre	0		79.0	41.0	2.5	/experiments/knapen_aot/videos/R_S_yt-4BAsE47kJNk_88.mp4	0.0	189.497141122818	0.6582949161529541
43	123.32221007347107	response	0	2		41.0	2.5	/experiments/knapen_aot/videos/R_S_yt-4BAsE47kJNk_88.mp4	0.0	190.14719009399414	
43	123.33045601844788	movie	1		301.0	41.0	2.5	/experiments/knapen_aot/videos/R_S_yt-4BAsE47kJNk_88.mp4	0.0	190.15543603897095	2.508358955383301
43	125.83881497383118	fix_post	2		12.0	41.0	2.5	/experiments/knapen_aot/videos/R_S_yt-4BAsE47kJNk_88.mp4	0.0	192.66379499435425	0.09992408752441406
44	125.93873906135559	fix_pre	0		55.0	42.0	2.5	/experiments/knapen_aot/videos/S_production_ID_5144823.mp4	0.0	192.76371908187866	0.45830202102661133
44	126.38888716697693	response	0	2		42.0	2.5	/experiments/knapen_aot/videos/S_production_ID_5144823.mp4	0.0	193.2138671875	
44	126.3970410823822	movie	1		174.0	42.0	2.5	/experiments/knapen_aot/videos/S_production_ID_5144823.mp4	0.0	193.22202110290527	2.508404016494751
44	128.90544509887695	fix_post	2		12.0	42.0	2.5	/experiments/knapen_aot/videos/S_production_ID_5144823.mp4	0.0	195.73042511940002	0.10004091262817383
45	129.00548601150513	fix_pre	0		47.0	43.0	2.5	/experiments/knapen_aot/videos/R_S_ILSVRC2015_train_00444000.mp4	0.0	195.8304660320282	0.39160609245300293
45	129.38141894340515	response	0	2		43.0	2.5	/experiments/knapen_aot/videos/R_S_ILSVRC2015_train_00444000.mp4	0.0	196.20639896392822	
45	129.39709210395813	movie	1		301.0	43.0	2.5	/experiments/knapen_aot/videos/R_S_ILSVRC2015_train_00444000.mp4	0.0	196.2220721244812	2.508359909057617
45	131.90545201301575	fix_post	2		12.0	43.0	2.5	/experiments/knapen_aot/videos/R_S_ILSVRC2015_train_00444000.mp4	0.0	198.73043203353882	0.09995508193969727
46	132.00540709495544	fix_pre	0		32.0	44.0	2.5	/experiments/knapen_aot/videos/S_yt-zam74qlzGtQ_122.mp4	0.0	198.83038711547852	0.2666609287261963
46	132.26383209228516	response	0	2		44.0	2.5	/experiments/knapen_aot/videos/S_yt-zam74qlzGtQ_122.mp4	0.0	199.08881211280823	
46	132.27206802368164	movie	1		301.0	44.0	2.5	/experiments/knapen_aot/videos/S_yt-zam74qlzGtQ_122.mp4	0.0	199.0970480442047	2.5083489418029785
46	134.78041696548462	fix_post	2		12.0	44.0	2.5	/experiments/knapen_aot/videos/S_yt-zam74qlzGtQ_122.mp4	0.0	201.6053969860077	0.10019397735595703
47	134.88061094284058	fix_pre	0		39.0	45.0	2.5	/experiments/knapen_aot/videos/R_S_b3TCugtX0h0_108.mp4	0.0	201.70559096336365	0.32600903511047363
47	135.19721603393555	response	0	2		45.0	2.5	/experiments/knapen_aot/videos/R_S_b3TCugtX0h0_108.mp4	0.0	202.02219605445862	
47	135.20661997795105	movie	1		301.0	45.0	2.5	/experiments/knapen_aot/videos/R_S_b3TCugtX0h0_108.mp4	0.0	202.03159999847412	2.507099151611328
47	137.71371912956238	fix_post	2		12.0	45.0	2.5	/experiments/knapen_aot/videos/R_S_b3TCugtX0h0_108.mp4	0.0	204.53869915008545	0.10000801086425781
48	137.81372714042664	fix_pre	0		64.0	46.0	2.5	/experiments/knapen_aot/videos/R_S_pexels-pavel-danilyuk-8626652.mp4	0.0	204.6387071609497	0.5333089828491211
48	138.33884501457214	response	0	2		46.0	2.5	/experiments/knapen_aot/videos/R_S_pexels-pavel-danilyuk-8626652.mp4	0.0	205.16382503509521	
48	138.34703612327576	movie	1		169.0	46.0	2.5	/experiments/knapen_aot/videos/R_S_pexels-pavel-danilyuk-8626652.mp4	0.0	205.17201614379883	2.5083730220794678
48	140.85540914535522	fix_post	2		12.0	46.0	2.5	/experiments/knapen_aot/videos/R_S_pexels-pavel-danilyuk-8626652.mp4	0.0	207.6803891658783	0.10000181198120117
49	140.95541095733643	fix_pre	0		293.0	47.0	2.5	/experiments/knapen_aot/videos/R_S_yt-7NjoFHBdP7c_102.mp4	0.0	207.7803909778595	2.4415290355682373
49	143.38134908676147	response	0	2		47.0	2.5	/experiments/knapen_aot/videos/R_S_yt-7NjoFHBdP7c_102.mp4	0.0	210.20632910728455	
49	143.39693999290466	movie	1		301.0	47.0	2.5	/experiments/knapen_aot/videos/R_S_yt-7NjoFHBdP7c_102.mp4	0.0	210.22192001342773	2.5084590911865234
49	145.9053990840912	fix_post	2		12.0	47.0	2.5	/experiments/knapen_aot/videos/R_S_yt-7NjoFHBdP7c_102.mp4	0.0	212.73037910461426	0.0999910831451416
50	146.00539016723633	fix_pre	0		42.0	48.0	2.5	/experiments/knapen_aot/videos/R_S_ILSVRC2015_train_00559000.mp4	0.0	212.8303701877594	0.3499159812927246
50	146.3471381664276	response	0	2		48.0	2.5	/experiments/knapen_aot/videos/R_S_ILSVRC2015_train_00559000.mp4	0.0	213.17211818695068	
50	146.35530614852905	movie	1		301.0	48.0	2.5	/experiments/knapen_aot/videos/R_S_ILSVRC2015_train_00559000.mp4	0.0	213.18028616905212	2.5083940029144287
50	148.86370015144348	fix_post	2		12.0	48.0	2.5	/experiments/knapen_aot/videos/R_S_ILSVRC2015_train_00559000.mp4	0.0	215.68868017196655	0.09998297691345215
51	148.96368312835693	fix_pre	0		32.0	49.0	2.5	blank	1.0	215.78866314888	0.2666740417480469
51	149.2221269607544	response	0	2		49.0	2.5	blank	1.0	216.04710698127747	
51	149.23035717010498	movie	1		301.0	49.0	2.5	blank	1.0	216.05533719062805	2.508307933807373
51	151.73866510391235	fix_post	2		12.0	49.0	2.5	blank	1.0	218.56364512443542	0.1000359058380127
52	151.83870100975037	fix_pre	0		33.0	50.0	2.5	/experiments/knapen_aot/videos/S_yt-7Ya-rGPO8cM_159.mp4	0.0	218.66368103027344	0.274975061416626
52	152.10548496246338	response	0	2		50.0	2.5	/experiments/knapen_aot/videos/S_yt-7Ya-rGPO8cM_159.mp4	0.0	218.93046498298645	
52	152.113676071167	movie	1		301.0	50.0	2.5	/experiments/knapen_aot/videos/S_yt-7Ya-rGPO8cM_159.mp4	0.0	218.93865609169006	2.50832200050354
52	154.62199807167053	fix_post	2		12.0	50.0	2.5	/experiments/knapen_aot/videos/S_yt-7Ya-rGPO8cM_159.mp4	0.0	221.4469780921936	0.10003995895385742
53	154.7220380306244	fix_pre	0		30.0	51.0	2.5	/experiments/knapen_aot/videos/S_yt-4ouMuGUuPHI_193.mp4	0.0	221.54701805114746	0.24993610382080078
53	154.96376299858093	response	0	2		51.0	2.5	/experiments/knapen_aot/videos/S_yt-4ouMuGUuPHI_193.mp4	0.0	221.788743019104	
53	154.9719741344452	movie	1		301.0	51.0	2.5	/experiments/knapen_aot/videos/S_yt-4ouMuGUuPHI_193.mp4	0.0	221.79695415496826	2.5083529949188232
53	157.480327129364	fix_post	2		12.0	51.0	2.5	/experiments/knapen_aot/videos/S_yt-4ouMuGUuPHI_193.mp4	0.0	224.30530714988708	0.1012728214263916
54	157.5815999507904	fix_pre	0		26.0	52.0	2.5	/experiments/knapen_aot/videos/R_S_video_inspire_oregon_portland_00064.1080-h264.mp4	0.0	224.40657997131348	0.2154231071472168
54	157.78880715370178	response	0	2		52.0	2.5	/experiments/knapen_aot/videos/R_S_video_inspire_oregon_portland_00064.1080-h264.mp4	0.0	224.61378717422485	
54	157.79702305793762	movie	1		170.0	52.0	2.5	/experiments/knapen_aot/videos/R_S_video_inspire_oregon_portland_00064.1080-h264.mp4	0.0	224.6220030784607	2.508331060409546
54	160.30535411834717	fix_post	2		12.0	52.0	2.5	/experiments/knapen_aot/videos/R_S_video_inspire_oregon_portland_00064.1080-h264.mp4	0.0	227.13033413887024	0.10001993179321289
55	160.40537405014038	fix_pre	0		54.0	53.0	2.5	/experiments/knapen_aot/videos/R_S_PA_A010_C007_SDR_20190717_SDR_2K_AVC.mp4	0.0	227.23035407066345	0.449876070022583
55	160.84704899787903	response	0	2		53.0	2.5	/experiments/knapen_aot/videos/R_S_PA_A010_C007_SDR_20190717_SDR_2K_AVC.mp4	0.0	227.6720290184021	
55	160.85525012016296	movie	1		167.0	53.0	2.5	/experiments/knapen_aot/videos/R_S_PA_A010_C007_SDR_20190717_SDR_2K_AVC.mp4	0.0	227.68023014068604	2.5083799362182617
55	163.36363005638123	fix_post	2		12.0	53.0	2.5	/experiments/knapen_aot/videos/R_S_PA_A010_C007_SDR_20190717_SDR_2K_AVC.mp4	0.0	230.1886100769043	0.09993100166320801
56	163.46356105804443	fix_pre	0		28.0	54.0	2.5	/experiments/knapen_aot/videos/S_yt-gzjV6YoK6X0_3.mp4	0.0	230.2885410785675	0.23333501815795898
56	163.6889090538025	response	0	2		54.0	2.5	/experiments/knapen_aot/videos/S_yt-gzjV6YoK6X0_3.mp4	0.0	230.51388907432556	
56	163.6968960762024	movie	1		301.0	54.0	2.5	/experiments/knapen_aot/videos/S_yt-gzjV6YoK6X0_3.mp4	0.0	230.52187609672546	2.5085010528564453
56	166.20539712905884	fix_post	2		12.0	54.0	2.5	/experiments/knapen_aot/videos/S_yt-gzjV6YoK6X0_3.mp4	0.0	233.0303771495819	0.0999598503112793
57	166.30535697937012	fix_pre	0		35.0	55.0	2.5	/experiments/knapen_aot/videos/S_yt-j-ifVbxZePQ_70.mp4	0.0	233.1303369998932	0.2915520668029785
57	166.5886571407318	response	0	2		55.0	2.5	/experiments/knapen_aot/videos/S_yt-j-ifVbxZePQ_70.mp4	0.0	233.41363716125488	
57	166.5969090461731	movie	1		301.0	55.0	2.5	/experiments/knapen_aot/videos/S_yt-j-ifVbxZePQ_70.mp4	0.0	233.42188906669617	2.5084218978881836
57	169.10533094406128	fix_post	2		12.0	55.0	2.5	/experiments/knapen_aot/videos/S_yt-j-ifVbxZePQ_70.mp4	0.0	235.93031096458435	0.1011500358581543
58	169.20648097991943	fix_pre	0		43.0	56.0	2.5	blank	1.0	236.0314610004425	0.35709714889526367
58	169.55536794662476	response	0	2		56.0	2.5	blank	1.0	236.38034796714783	
58	169.5635781288147	movie	1		301.0	56.0	2.5	blank	1.0	236.38855814933777	2.508342981338501
58	172.0719211101532	fix_post	2		12.0	56.0	2.5	blank	1.0	238.89690113067627	0.09999585151672363
59	172.17191696166992	fix_pre	0		57.0	57.0	2.5	/experiments/knapen_aot/videos/R_S_yt-r7PeFd-hIp0_378.mp4	0.0	238.996896982193	0.4749751091003418
59	172.63872504234314	response	0	2		57.0	2.5	/experiments/knapen_aot/videos/R_S_yt-r7PeFd-hIp0_378.mp4	0.0	239.4637050628662	
59	172.64689207077026	movie	1		301.0	57.0	2.5	/experiments/knapen_aot/videos/R_S_yt-r7PeFd-hIp0_378.mp4	0.0	239.47187209129333	2.508352041244507
59	175.15524411201477	fix_post	2		12.0	57.0	2.5	/experiments/knapen_aot/videos/R_S_yt-r7PeFd-hIp0_378.mp4	0.0	241.98022413253784	0.10000300407409668
60	175.25524711608887	fix_pre	0		32.0	58.0	2.5	/experiments/knapen_aot/videos/S_yt-FhnT_42bV7M_11.mp4	0.0	242.08022713661194	0.26664090156555176
60	175.50611209869385	response	0	2		58.0	2.5	/experiments/knapen_aot/videos/S_yt-FhnT_42bV7M_11.mp4	0.0	242.33109211921692	
60	175.52188801765442	movie	1		301.0	58.0	2.5	/experiments/knapen_aot/videos/S_yt-FhnT_42bV7M_11.mp4	0.0	242.3468680381775	2.5083730220794678
60	178.0302610397339	fix_post	2		12.0	58.0	2.5	/experiments/knapen_aot/videos/S_yt-FhnT_42bV7M_11.mp4	0.0	244.85524106025696	0.09996700286865234
61	178.13022804260254	fix_pre	0		40.0	59.0	2.5	/experiments/knapen_aot/videos/R_S_pexels-kelly-lacy-6756531.mp4	0.0	244.9552080631256	0.33329200744628906
61	178.45537114143372	response	0	2		59.0	2.5	/experiments/knapen_aot/videos/R_S_pexels-kelly-lacy-6756531.mp4	0.0	245.2803511619568	
61	178.46352005004883	movie	1		177.0	59.0	2.5	/experiments/knapen_aot/videos/R_S_pexels-kelly-lacy-6756531.mp4	0.0	245.2885000705719	2.508352041244507
61	180.97187209129333	fix_post	2		12.0	59.0	2.5	/experiments/knapen_aot/videos/R_S_pexels-kelly-lacy-6756531.mp4	0.0	247.7968521118164	0.10001301765441895
62	181.07188510894775	fix_pre	0		32.0	60.0	2.5	/experiments/knapen_aot/videos/S_pexels-pavel-danilyuk-8626652.mp4	0.0	247.89686512947083	0.2666628360748291
62	181.32280898094177	response	0	2		60.0	2.5	/experiments/knapen_aot/videos/S_pexels-pavel-danilyuk-8626652.mp4	0.0	248.14778900146484	
62	181.33854794502258	movie	1		166.0	60.0	2.5	/experiments/knapen_aot/videos/S_pexels-pavel-danilyuk-8626652.mp4	0.0	248.16352796554565	2.508357048034668
62	183.84690499305725	fix_post	2		12.0	60.0	2.5	/experiments/knapen_aot/videos/S_pexels-pavel-danilyuk-8626652.mp4	0.0	250.67188501358032	0.1000220775604248
63	183.94692707061768	fix_pre	0		47.0	61.0	2.5	/experiments/knapen_aot/videos/R_S_comp_GMT329_113NC_396B_1105_ITALY_v03_SDR_FINAL_20180706_SDR_2K_AVC.mp4	0.0	250.77190709114075	0.39153194427490234
63	184.33034300804138	response	0	2		61.0	2.5	/experiments/knapen_aot/videos/R_S_comp_GMT329_113NC_396B_1105_ITALY_v03_SDR_FINAL_20180706_SDR_2K_AVC.mp4	0.0	251.15532302856445	
63	184.33845901489258	movie	1		170.0	61.0	2.5	/experiments/knapen_aot/videos/R_S_comp_GMT329_113NC_396B_1105_ITALY_v03_SDR_FINAL_20180706_SDR_2K_AVC.mp4	0.0	251.16343903541565	2.5084381103515625
63	186.84689712524414	fix_post	2		12.0	61.0	2.5	/experiments/knapen_aot/videos/R_S_comp_GMT329_113NC_396B_1105_ITALY_v03_SDR_FINAL_20180706_SDR_2K_AVC.mp4	0.0	253.6718771457672	0.09990286827087402
64	186.94679999351501	fix_pre	0		47.0	62.0	2.5	/experiments/knapen_aot/videos/R_S_ahUa35lQM6E_44.mp4	0.0	253.7717800140381	0.39176511764526367
64	187.33028411865234	response	0	2		62.0	2.5	/experiments/knapen_aot/videos/R_S_ahUa35lQM6E_44.mp4	0.0	254.15526413917542	
64	187.33856511116028	movie	1		301.0	62.0	2.5	/experiments/knapen_aot/videos/R_S_ahUa35lQM6E_44.mp4	0.0	254.16354513168335	2.5083508491516113
64	189.8469159603119	fix_post	2		12.0	62.0	2.5	/experiments/knapen_aot/videos/R_S_ahUa35lQM6E_44.mp4	0.0	256.67189598083496	0.09988713264465332
65	189.94680309295654	fix_pre	0		40.0	63.0	2.5	blank	1.0	256.7717831134796	0.33333301544189453
65	190.27197194099426	response	0	2		63.0	2.5	blank	1.0	257.09695196151733	
65	190.28013610839844	movie	1		301.0	63.0	2.5	blank	1.0	257.1051161289215	2.508312940597534
65	192.78844904899597	fix_post	2		12.0	63.0	2.5	blank	1.0	259.61342906951904	0.10010790824890137
66	192.88855695724487	fix_pre	0		215.0	64.0	2.5	/experiments/knapen_aot/videos/S_yt-BDCyXL5e9S4_223.mp4	0.0	259.71353697776794	1.7915961742401123
66	194.67188906669617	response	0	2		64.0	2.5	/experiments/knapen_aot/videos/S_yt-BDCyXL5e9S4_223.mp4	0.0	261.49686908721924	
66	194.68015313148499	movie	1		301.0	64.0	2.5	/experiments/knapen_aot/videos/S_yt-BDCyXL5e9S4_223.mp4	0.0	261.50513315200806	2.5083189010620117
66	197.188472032547	fix_post	2		12.0	64.0	2.5	/experiments/knapen_aot/videos/S_yt-BDCyXL5e9S4_223.mp4	0.0	264.01345205307007	0.10095500946044922
67	197.28942704200745	fix_pre	0		17.0	65.0	2.5	/experiments/knapen_aot/videos/S_wc-AyT9mzwZsu0T_14.mp4	0.0	264.1144070625305	0.14065909385681152
67	197.42197513580322	response	0	2		65.0	2.5	/experiments/knapen_aot/videos/S_wc-AyT9mzwZsu0T_14.mp4	0.0	264.2469551563263	
67	197.43008613586426	movie	1		164.0	65.0	2.5	/experiments/knapen_aot/videos/S_wc-AyT9mzwZsu0T_14.mp4	0.0	264.25506615638733	2.508612871170044
67	199.9386990070343	fix_post	2		12.0	65.0	2.5	/experiments/knapen_aot/videos/S_wc-AyT9mzwZsu0T_14.mp4	0.0	266.7636790275574	0.09977197647094727
68	200.03847098350525	fix_pre	0		15.0	66.0	2.5	/experiments/knapen_aot/videos/S_yt-w_e3sxIzepA_115.mp4	0.0	266.8634510040283	0.12586712837219238
68	200.15517401695251	response	0	2		66.0	2.5	/experiments/knapen_aot/videos/S_yt-w_e3sxIzepA_115.mp4	0.0	266.9801540374756	
68	200.16433811187744	movie	1		301.0	66.0	2.5	/experiments/knapen_aot/videos/S_yt-w_e3sxIzepA_115.mp4	0.0	266.9893181324005	2.507472038269043
68	202.67181015014648	fix_post	2		12.0	66.0	2.5	/experiments/knapen_aot/videos/S_yt-w_e3sxIzepA_115.mp4	0.0	269.49679017066956	0.10000991821289062
69	202.77182006835938	fix_pre	0		23.0	67.0	2.5	/experiments/knapen_aot/videos/R_S_g201_TH_804_A001_8_SDR_20191031_SDR_2K_AVC.mp4	0.0	269.59680008888245	0.19162487983703613
69	202.95525312423706	response	0	2		67.0	2.5	/experiments/knapen_aot/videos/R_S_g201_TH_804_A001_8_SDR_20191031_SDR_2K_AVC.mp4	0.0	269.78023314476013	
69	202.9634449481964	movie	1		169.0	67.0	2.5	/experiments/knapen_aot/videos/R_S_g201_TH_804_A001_8_SDR_20191031_SDR_2K_AVC.mp4	0.0	269.7884249687195	2.508355140686035
69	205.47180008888245	fix_post	2		12.0	67.0	2.5	/experiments/knapen_aot/videos/R_S_g201_TH_804_A001_8_SDR_20191031_SDR_2K_AVC.mp4	0.0	272.2967801094055	0.10000491142272949
70	205.57180500030518	fix_pre	0		15.0	68.0	2.5	blank	1.0	272.39678502082825	0.12495613098144531
70	205.68855810165405	response	0	2		68.0	2.5	blank	1.0	272.5135381221771	
70	205.69676113128662	movie	1		301.0	68.0	2.5	blank	1.0	272.5217411518097	2.508335828781128
70	208.20509696006775	fix_post	2		12.0	68.0	2.5	blank	1.0	275.0300769805908	0.09999203681945801
71	208.3050889968872	fix_pre	0		30.0	69.0	2.5	/experiments/knapen_aot/videos/S_yt-5fnd__rpWeE_396.mp4	0.0	275.1300690174103	0.24997997283935547
71	208.54684805870056	response	0	2		69.0	2.5	/experiments/knapen_aot/videos/S_yt-5fnd__rpWeE_396.mp4	0.0	275.37182807922363	
71	208.55506896972656	movie	1		301.0	69.0	2.5	/experiments/knapen_aot/videos/S_yt-5fnd__rpWeE_396.mp4	0.0	275.38004899024963	2.5083470344543457
71	211.0634160041809	fix_post	2		12.0	69.0	2.5	/experiments/knapen_aot/videos/S_yt-5fnd__rpWeE_396.mp4	0.0	277.888396024704	0.1004340648651123
72	211.16385006904602	fix_pre	0		31.0	70.0	2.5	/experiments/knapen_aot/videos/S_ILSVRC2015_train_00551000.mp4	0.0	277.9888300895691	0.2578439712524414
72	211.40600204467773	response	0	2		70.0	2.5	/experiments/knapen_aot/videos/S_ILSVRC2015_train_00551000.mp4	0.0	278.2309820652008	
72	211.42169404029846	movie	1		301.0	70.0	2.5	/experiments/knapen_aot/videos/S_ILSVRC2015_train_00551000.mp4	0.0	278.24667406082153	2.508418083190918
72	213.93011212348938	fix_post	2		12.0	70.0	2.5	/experiments/knapen_aot/videos/S_ILSVRC2015_train_00551000.mp4	0.0	280.75509214401245	0.10006904602050781
73	214.0301811695099	fix_pre	0		18.0	71.0	2.5	/experiments/knapen_aot/videos/S_yt-WCT9dyz0-gQ_36.mp4	0.0	280.85516119003296	0.14981985092163086
73	214.17182898521423	response	0	2		71.0	2.5	/experiments/knapen_aot/videos/S_yt-WCT9dyz0-gQ_36.mp4	0.0	280.9968090057373	
73	214.18000102043152	movie	1		301.0	71.0	2.5	/experiments/knapen_aot/videos/S_yt-WCT9dyz0-gQ_36.mp4	0.0	281.0049810409546	2.508362054824829
73	216.68836307525635	fix_post	2		12.0	71.0	2.5	/experiments/knapen_aot/videos/S_yt-WCT9dyz0-gQ_36.mp4	0.0	283.5133430957794	0.10003399848937988
74	216.78839707374573	fix_pre	0		25.0	72.0	2.5	/experiments/knapen_aot/videos/R_S_I003_C004_SDR_2K_AVC.mp4	0.0	283.6133770942688	0.20920109748840332
74	216.98853302001953	response	0	2		72.0	2.5	/experiments/knapen_aot/videos/R_S_I003_C004_SDR_2K_AVC.mp4	0.0	283.8135130405426	
74	216.99759817123413	movie	1		174.0	72.0	2.5	/experiments/knapen_aot/videos/R_S_I003_C004_SDR_2K_AVC.mp4	0.0	283.8225781917572	2.5074799060821533
74	219.50507807731628	fix_post	2		12.0	72.0	2.5	/experiments/knapen_aot/videos/R_S_I003_C004_SDR_2K_AVC.mp4	0.0	286.33005809783936	0.09992098808288574
75	219.60499906539917	fix_pre	0		28.0	73.0	2.5	/experiments/knapen_aot/videos/S_ILSVRC2015_train_00292005.mp4	0.0	286.42997908592224	0.23334002494812012
75	219.8301820755005	response	0	2		73.0	2.5	/experiments/knapen_aot/videos/S_ILSVRC2015_train_00292005.mp4	0.0	286.65516209602356	
75	219.8383390903473	movie	1		301.0	73.0	2.5	/experiments/knapen_aot/videos/S_ILSVRC2015_train_00292005.mp4	0.0	286.66331911087036	2.5087239742279053
75	222.3470630645752	fix_post	2		12.0	73.0	2.5	/experiments/knapen_aot/videos/S_ILSVRC2015_train_00292005.mp4	0.0	289.17204308509827	0.09964489936828613
76	222.44670796394348	fix_pre	0		28.0	74.0	2.5	/experiments/knapen_aot/videos/S_yt-fnE8kgUHUMI_64.mp4	0.0	289.27168798446655	0.23328113555908203
76	222.67182207107544	response	0	2		74.0	2.5	/experiments/knapen_aot/videos/S_yt-fnE8kgUHUMI_64.mp4	0.0	289.4968020915985	
76	222.67998909950256	movie	1		301.0	74.0	2.5	/experiments/knapen_aot/videos/S_yt-fnE8kgUHUMI_64.mp4	0.0	289.50496912002563	2.5083770751953125
76	225.18836617469788	fix_post	2		12.0	74.0	2.5	/experiments/knapen_aot/videos/S_yt-fnE8kgUHUMI_64.mp4	0.0	292.01334619522095	0.0999898910522461
77	225.28835606575012	fix_pre	0		32.0	75.0	2.5	/experiments/knapen_aot/videos/S_ILSVRC2015_train_00538001.mp4	0.0	292.1133360862732	0.26665592193603516
77	225.54678297042847	response	0	2		75.0	2.5	/experiments/knapen_aot/videos/S_ILSVRC2015_train_00538001.mp4	0.0	292.37176299095154	
77	225.55501198768616	movie	1		301.0	75.0	2.5	/experiments/knapen_aot/videos/S_ILSVRC2015_train_00538001.mp4	0.0	292.37999200820923	2.5082671642303467
77	228.0632791519165	fix_post	2		12.0	75.0	2.5	/experiments/knapen_aot/videos/S_ILSVRC2015_train_00538001.mp4	0.0	294.8882591724396	0.10012984275817871
78	228.16340899467468	fix_pre	0		31.0	76.0	2.5	blank	1.0	294.98838901519775	0.2582881450653076
78	228.4135069847107	response	0	2		76.0	2.5	blank	1.0	295.23848700523376	
78	228.42169713974	movie	1		301.0	76.0	2.5	blank	1.0	295.24667716026306	2.50832200050354
78	230.93001914024353	fix_post	2		12.0	76.0	2.5	blank	1.0	297.7549991607666	0.09994983673095703
79	231.0299689769745	fix_pre	0		110.0	77.0	2.5	/experiments/knapen_aot/videos/S_yt-D6fhzH21T_E_26.mp4	0.0	297.85494899749756	0.9166491031646729
79	231.93844604492188	response	0	2		77.0	2.5	/experiments/knapen_aot/videos/S_yt-D6fhzH21T_E_26.mp4	0.0	298.76342606544495	
79	231.94661808013916	movie	1		301.0	77.0	2.5	/experiments/knapen_aot/videos/S_yt-D6fhzH21T_E_26.mp4	0.0	298.77159810066223	2.5085790157318115
79	234.45519709587097	fix_post	2		12.0	77.0	2.5	/experiments/knapen_aot/videos/S_yt-D6fhzH21T_E_26.mp4	0.0	301.28017711639404	0.09983301162719727
80	234.55503010749817	fix_pre	0		31.0	78.0	2.5	/experiments/knapen_aot/videos/S_yt-tneuR3EtSZE_72.mp4	0.0	301.38001012802124	0.25824785232543945
80	234.8050651550293	response	0	2		78.0	2.5	/experiments/knapen_aot/videos/S_yt-tneuR3EtSZE_72.mp4	0.0	301.63004517555237	
80	234.8132779598236	movie	1		301.0	78.0	2.5	/experiments/knapen_aot/videos/S_yt-tneuR3EtSZE_72.mp4	0.0	301.6382579803467	2.508419990539551
80	237.32169795036316	fix_post	2		12.0	78.0	2.5	/experiments/knapen_aot/videos/S_yt-tneuR3EtSZE_72.mp4	0.0	304.14667797088623	0.09990406036376953
81	237.42160201072693	fix_pre	0		63.0	79.0	2.5	/experiments/knapen_aot/videos/S_ILSVRC2015_train_00495000.mp4	0.0	304.24658203125	0.5250310897827148
81	237.93841409683228	response	0	2		79.0	2.5	/experiments/knapen_aot/videos/S_ILSVRC2015_train_00495000.mp4	0.0	304.76339411735535	
81	237.94663310050964	movie	1		301.0	79.0	2.5	/experiments/knapen_aot/videos/S_ILSVRC2015_train_00495000.mp4	0.0	304.7716131210327	2.5083789825439453
81	240.4550120830536	fix_post	2		12.0	79.0	2.5	/experiments/knapen_aot/videos/S_ILSVRC2015_train_00495000.mp4	0.0	307.27999210357666	0.10004591941833496
82	240.55505800247192	fix_pre	0		44.0	80.0	2.5	/experiments/knapen_aot/videos/S_yt-r7PeFd-hIp0_378.mp4	0.0	307.380038022995	0.36646199226379395
82	240.913330078125	response	0	2		80.0	2.5	/experiments/knapen_aot/videos/S_yt-r7PeFd-hIp0_378.mp4	0.0	307.73831009864807	
82	240.92151999473572	movie	1		301.0	80.0	2.5	/experiments/knapen_aot/videos/S_yt-r7PeFd-hIp0_378.mp4	0.0	307.7465000152588	2.508357048034668
82	243.42987704277039	fix_post	2		12.0	80.0	2.5	/experiments/knapen_aot/videos/S_yt-r7PeFd-hIp0_378.mp4	0.0	310.25485706329346	0.10006403923034668
83	243.52994108200073	fix_pre	0		45.0	81.0	2.5	/experiments/knapen_aot/videos/R_S_yt-BDCyXL5e9S4_223.mp4	0.0	310.3549211025238	0.37490296363830566
83	243.89671516418457	response	0	2		81.0	2.5	/experiments/knapen_aot/videos/R_S_yt-BDCyXL5e9S4_223.mp4	0.0	310.72169518470764	
83	243.90484404563904	movie	1		301.0	81.0	2.5	/experiments/knapen_aot/videos/R_S_yt-BDCyXL5e9S4_223.mp4	0.0	310.7298240661621	2.5084550380706787
83	246.41329908370972	fix_post	2		12.0	81.0	2.5	/experiments/knapen_aot/videos/R_S_yt-BDCyXL5e9S4_223.mp4	0.0	313.2382791042328	0.09995603561401367
84	246.51325511932373	fix_pre	0		39.0	82.0	2.5	/experiments/knapen_aot/videos/R_S_yt-gOoDjhfSPj0_162.mp4	0.0	313.3382351398468	0.32496094703674316
84	246.83005595207214	response	0	2		82.0	2.5	/experiments/knapen_aot/videos/R_S_yt-gOoDjhfSPj0_162.mp4	0.0	313.6550359725952	
84	246.83821606636047	movie	1		301.0	82.0	2.5	/experiments/knapen_aot/videos/R_S_yt-gOoDjhfSPj0_162.mp4	0.0	313.66319608688354	2.508450984954834
84	249.3466670513153	fix_post	2		12.0	82.0	2.5	/experiments/knapen_aot/videos/R_S_yt-gOoDjhfSPj0_162.mp4	0.0	316.1716470718384	0.09990906715393066
85	249.44657611846924	fix_pre	0		62.0	83.0	2.5	blank	1.0	316.2715561389923	0.5166130065917969
85	249.95502996444702	response	0	2		83.0	2.5	blank	1.0	316.7800099849701	
85	249.96318912506104	movie	1		301.0	83.0	2.5	blank	1.0	316.7881691455841	2.5084378719329834
85	252.47162699699402	fix_post	2		12.0	83.0	2.5	blank	1.0	319.2966070175171	0.09993505477905273
87	252.57156205177307	stim	0		226.0					319.39654207229614	1.8838489055633545
87	254.45023107528687	response	0	space						321.27521109580994	
