trial_nr	onset	event_type	phase	response	nr_frames	movie_index	movie_duration	movie_file	blank	onset_abs	duration
0	0.13181400299072266	stim	0		120.0					65.62742590904236	0.9999899864196777
0	1.1233079433441162	response	0	space						66.61891984939575	
1	1.1318039894104004	stim	0		121.0					66.62741589546204	1.007638931274414
1	2.1394429206848145	stim	1		120.0					67.63505482673645	0.9999880790710449
1	3.131286859512329	response	1	space						68.62689876556396	
2	3.1394309997558594	fix_pre	0		191.0	0.0	2.5	/experiments/knapen_aot/videos/S_yt-35i8UeYXjGw_47.mp4	0.0	68.6350429058075	1.5916469097137451
2	4.722869873046875	response	0	space		0.0	2.5	/experiments/knapen_aot/videos/S_yt-35i8UeYXjGw_47.mp4	0.0	70.21848177909851	
2	4.7310779094696045	movie	1		300.0	0.0	2.5	/experiments/knapen_aot/videos/S_yt-35i8UeYXjGw_47.mp4	0.0	70.22668981552124	2.508491039276123
2	6.870260953903198	response	1	2		0.0	2.5	/experiments/knapen_aot/videos/S_yt-35i8UeYXjGw_47.mp4	0.0	72.36587285995483	
2	7.2395689487457275	fix_post	2		12.0	0.0	2.5	/experiments/knapen_aot/videos/S_yt-35i8UeYXjGw_47.mp4	0.0	72.73518085479736	0.10035300254821777
3	7.339921951293945	fix_pre	0		19.0	1.0	2.5	/experiments/knapen_aot/videos/R_S_yt--a-d97T4Gak_75.mp4	0.0	72.83553385734558	0.1578230857849121
3	7.489543914794922	response	0	2		1.0	2.5	/experiments/knapen_aot/videos/R_S_yt--a-d97T4Gak_75.mp4	0.0	72.98515582084656	
3	7.497745037078857	movie	1		301.0	1.0	2.5	/experiments/knapen_aot/videos/R_S_yt--a-d97T4Gak_75.mp4	0.0	72.9933569431305	2.5085690021514893
3	10.006314039230347	fix_post	2		12.0	1.0	2.5	/experiments/knapen_aot/videos/R_S_yt--a-d97T4Gak_75.mp4	0.0	75.50192594528198	0.09980893135070801
4	10.106122970581055	fix_pre	0		12.0	2.0	2.5	/experiments/knapen_aot/videos/R_S_yt-OEY9O2MglQM_7.mp4	0.0	75.60173487663269	0.0999598503112793
4	10.197955846786499	response	0	2		2.0	2.5	/experiments/knapen_aot/videos/R_S_yt-OEY9O2MglQM_7.mp4	0.0	75.69356775283813	
4	10.206082820892334	movie	1		301.0	2.0	2.5	/experiments/knapen_aot/videos/R_S_yt-OEY9O2MglQM_7.mp4	0.0	75.70169472694397	2.5083601474761963
4	12.71444296836853	fix_post	2		12.0	2.0	2.5	/experiments/knapen_aot/videos/R_S_yt-OEY9O2MglQM_7.mp4	0.0	78.21005487442017	0.10000395774841309
5	12.814446926116943	fix_pre	0		7.0	3.0	2.5	/experiments/knapen_aot/videos/S_ILSVRC2015_train_00584001.mp4	0.0	78.31005883216858	0.05834197998046875
5	12.864526987075806	response	0	2		3.0	2.5	/experiments/knapen_aot/videos/S_ILSVRC2015_train_00584001.mp4	0.0	78.36013889312744	
5	12.872788906097412	movie	1		301.0	3.0	2.5	/experiments/knapen_aot/videos/S_ILSVRC2015_train_00584001.mp4	0.0	78.36840081214905	2.5084309577941895
5	15.381219863891602	fix_post	2		12.0	3.0	2.5	/experiments/knapen_aot/videos/S_ILSVRC2015_train_00584001.mp4	0.0	80.87683176994324	0.10022115707397461
6	15.481441020965576	fix_pre	0		13.0	4.0	2.5	/experiments/knapen_aot/videos/S_yt-f9iXELY0EJ0_344.mp4	0.0	80.97705292701721	0.10829997062683105
6	15.581271886825562	response	0	2		4.0	2.5	/experiments/knapen_aot/videos/S_yt-f9iXELY0EJ0_344.mp4	0.0	81.0768837928772	
6	15.589740991592407	movie	1		301.0	4.0	2.5	/experiments/knapen_aot/videos/S_yt-f9iXELY0EJ0_344.mp4	0.0	81.08535289764404	2.5079739093780518
6	18.09771490097046	fix_post	2		12.0	4.0	2.5	/experiments/knapen_aot/videos/S_yt-f9iXELY0EJ0_344.mp4	0.0	83.5933268070221	0.10005593299865723
7	18.197770833969116	fix_pre	0		14.0	5.0	2.5	blank	1.0	83.69338274002075	0.11667609214782715
7	18.30621099472046	response	0	2		5.0	2.5	blank	1.0	83.8018229007721	
7	18.314446926116943	movie	1		301.0	5.0	2.5	blank	1.0	83.81005883216858	2.508234977722168
7	20.82268190383911	fix_post	2		12.0	5.0	2.5	blank	1.0	86.31829380989075	0.10039210319519043
8	20.9230740070343	fix_pre	0		22.0	6.0	2.5	/experiments/knapen_aot/videos/R_S_yt-yXJr3FR2xrM_27.mp4	0.0	86.41868591308594	0.18292880058288574
8	21.097725868225098	response	0	2		6.0	2.5	/experiments/knapen_aot/videos/R_S_yt-yXJr3FR2xrM_27.mp4	0.0	86.59333777427673	
8	21.106002807617188	movie	1		301.0	6.0	2.5	/experiments/knapen_aot/videos/R_S_yt-yXJr3FR2xrM_27.mp4	0.0	86.60161471366882	2.5084781646728516
8	23.61448097229004	fix_post	2		12.0	6.0	2.5	/experiments/knapen_aot/videos/R_S_yt-yXJr3FR2xrM_27.mp4	0.0	89.11009287834167	0.10008692741394043
9	23.71456789970398	fix_pre	0		8.0	7.0	2.5	/experiments/knapen_aot/videos/S_yt-uE9XoCLZlFo_1.mp4	0.0	89.21017980575562	0.06642794609069824
9	23.772719860076904	response	0	2		7.0	2.5	/experiments/knapen_aot/videos/S_yt-uE9XoCLZlFo_1.mp4	0.0	89.26833176612854	
9	23.780995845794678	movie	1		301.0	7.0	2.5	/experiments/knapen_aot/videos/S_yt-uE9XoCLZlFo_1.mp4	0.0	89.27660775184631	2.5083670616149902
9	26.289362907409668	fix_post	2		12.0	7.0	2.5	/experiments/knapen_aot/videos/S_yt-uE9XoCLZlFo_1.mp4	0.0	91.7849748134613	0.10008692741394043
10	26.38944983482361	fix_pre	0		19.0	8.0	2.5	/experiments/knapen_aot/videos/S_pexels-marcus-aurelius-6785014.mp4	0.0	91.88506174087524	0.15851712226867676
10	26.539405822753906	response	0	2		8.0	2.5	/experiments/knapen_aot/videos/S_pexels-marcus-aurelius-6785014.mp4	0.0	92.03501772880554	
10	26.547966957092285	movie	1		165.0	8.0	2.5	/experiments/knapen_aot/videos/S_pexels-marcus-aurelius-6785014.mp4	0.0	92.04357886314392	2.508455991744995
10	29.05642294883728	fix_post	2		12.0	8.0	2.5	/experiments/knapen_aot/videos/S_pexels-marcus-aurelius-6785014.mp4	0.0	94.55203485488892	0.09967303276062012
10	29.139425039291382	response	2	2		8.0	2.5	/experiments/knapen_aot/videos/S_pexels-marcus-aurelius-6785014.mp4	0.0	94.63503694534302	
11	29.1560959815979	fix_pre	0		58.0	9.0	2.5	/experiments/knapen_aot/videos/S_yt-wrfAMDCg93Y_8.mp4	0.0	94.65170788764954	0.48322391510009766
11	29.631147861480713	response	0	2		9.0	2.5	/experiments/knapen_aot/videos/S_yt-wrfAMDCg93Y_8.mp4	0.0	95.12675976753235	
11	29.639319896697998	movie	1		301.0	9.0	2.5	/experiments/knapen_aot/videos/S_yt-wrfAMDCg93Y_8.mp4	0.0	95.13493180274963	2.508674144744873
11	32.14799404144287	fix_post	2		12.0	9.0	2.5	/experiments/knapen_aot/videos/S_yt-wrfAMDCg93Y_8.mp4	0.0	97.6436059474945	0.09967279434204102
12	32.24766683578491	fix_pre	0		14.0	10.0	2.5	/experiments/knapen_aot/videos/S_BO_A014_C023_SDR_20190717_F240F3709_SDR_2K_AVC.mp4	0.0	97.74327874183655	0.11661314964294434
12	32.35609984397888	response	0	2		10.0	2.5	/experiments/knapen_aot/videos/S_BO_A014_C023_SDR_20190717_F240F3709_SDR_2K_AVC.mp4	0.0	97.85171175003052	
12	32.364279985427856	movie	1		165.0	10.0	2.5	/experiments/knapen_aot/videos/S_BO_A014_C023_SDR_20190717_F240F3709_SDR_2K_AVC.mp4	0.0	97.85989189147949	2.508419990539551
12	34.87269997596741	fix_post	2		12.0	10.0	2.5	/experiments/knapen_aot/videos/S_BO_A014_C023_SDR_20190717_F240F3709_SDR_2K_AVC.mp4	0.0	100.36831188201904	0.09999394416809082
13	34.9726939201355	fix_pre	0		3.0	11.0	2.5	/experiments/knapen_aot/videos/S_yt-4qU-6TEW06E_38.mp4	0.0	100.46830582618713	0.02495408058166504
13	34.989408016204834	response	0	2		11.0	2.5	/experiments/knapen_aot/videos/S_yt-4qU-6TEW06E_38.mp4	0.0	100.48501992225647	
13	34.99764800071716	movie	1		301.0	11.0	2.5	/experiments/knapen_aot/videos/S_yt-4qU-6TEW06E_38.mp4	0.0	100.4932599067688	2.5086679458618164
13	37.50631594657898	fix_post	2		12.0	11.0	2.5	/experiments/knapen_aot/videos/S_yt-4qU-6TEW06E_38.mp4	0.0	103.00192785263062	0.09965085983276367
14	37.60596680641174	fix_pre	0		13.0	12.0	2.5	/experiments/knapen_aot/videos/S_comp_A009_C001_010181A_v09_SDR_PS_FINAL_20180725_SDR_2K_AVC.mp4	0.0	103.10157871246338	0.10853409767150879
14	37.70606994628906	response	0	2		12.0	2.5	/experiments/knapen_aot/videos/S_comp_A009_C001_010181A_v09_SDR_PS_FINAL_20180725_SDR_2K_AVC.mp4	0.0	103.2016818523407	
14	37.71450090408325	movie	1		166.0	12.0	2.5	/experiments/knapen_aot/videos/S_comp_A009_C001_010181A_v09_SDR_PS_FINAL_20180725_SDR_2K_AVC.mp4	0.0	103.21011281013489	2.508136034011841
14	40.22263693809509	fix_post	2		12.0	12.0	2.5	/experiments/knapen_aot/videos/S_comp_A009_C001_010181A_v09_SDR_PS_FINAL_20180725_SDR_2K_AVC.mp4	0.0	105.71824884414673	0.09990096092224121
15	40.322537899017334	fix_pre	0		3.0	13.0	2.5	blank	1.0	105.81814980506897	0.025090932846069336
15	40.33940100669861	response	0	2		13.0	2.5	blank	1.0	105.83501291275024	
15	40.3476288318634	movie	1		301.0	13.0	2.5	blank	1.0	105.84324073791504	2.508333206176758
15	42.85596203804016	fix_post	2		12.0	13.0	2.5	blank	1.0	108.3515739440918	0.10000991821289062
16	42.95597195625305	fix_pre	0		17.0	14.0	2.5	/experiments/knapen_aot/videos/S_yt-Rqwi-Fk9IJQ_114.mp4	0.0	108.45158386230469	0.14161896705627441
16	43.08932185173035	response	0	2		14.0	2.5	/experiments/knapen_aot/videos/S_yt-Rqwi-Fk9IJQ_114.mp4	0.0	108.58493375778198	
16	43.097590923309326	movie	1		301.0	14.0	2.5	/experiments/knapen_aot/videos/S_yt-Rqwi-Fk9IJQ_114.mp4	0.0	108.59320282936096	2.508327007293701
16	45.60591793060303	fix_post	2		12.0	14.0	2.5	/experiments/knapen_aot/videos/S_yt-Rqwi-Fk9IJQ_114.mp4	0.0	111.10152983665466	0.09999895095825195
17	45.70591688156128	fix_pre	0		16.0	15.0	2.5	/experiments/knapen_aot/videos/S_comp_GL_G010_C006_PSNK_NOSUN_v12_SDR_PS_FINAL_20180709_SDR_2K_AVC.mp4	0.0	111.20152878761292	0.13348793983459473
17	45.83099293708801	response	0	2		15.0	2.5	/experiments/knapen_aot/videos/S_comp_GL_G010_C006_PSNK_NOSUN_v12_SDR_PS_FINAL_20180709_SDR_2K_AVC.mp4	0.0	111.32660484313965	
17	45.839404821395874	movie	1		165.0	15.0	2.5	/experiments/knapen_aot/videos/S_comp_GL_G010_C006_PSNK_NOSUN_v12_SDR_PS_FINAL_20180709_SDR_2K_AVC.mp4	0.0	111.33501672744751	2.508226156234741
17	48.347630977630615	fix_post	2		12.0	15.0	2.5	/experiments/knapen_aot/videos/S_comp_GL_G010_C006_PSNK_NOSUN_v12_SDR_PS_FINAL_20180709_SDR_2K_AVC.mp4	0.0	113.84324288368225	0.1000208854675293
18	48.447651863098145	fix_pre	0		3.0	16.0	2.5	/experiments/knapen_aot/videos/S_yt-LQrnLKP5tiQ_48.mp4	0.0	113.94326376914978	0.02496814727783203
18	48.4644238948822	response	0	2		16.0	2.5	/experiments/knapen_aot/videos/S_yt-LQrnLKP5tiQ_48.mp4	0.0	113.96003580093384	
18	48.47262001037598	movie	1		301.0	16.0	2.5	/experiments/knapen_aot/videos/S_yt-LQrnLKP5tiQ_48.mp4	0.0	113.96823191642761	2.508335828781128
18	50.980955839157104	fix_post	2		12.0	16.0	2.5	/experiments/knapen_aot/videos/S_yt-LQrnLKP5tiQ_48.mp4	0.0	116.47656774520874	0.09995317459106445
19	51.08090901374817	fix_pre	0		18.0	17.0	2.5	/experiments/knapen_aot/videos/R_S_yt-mJzkLd3Mr_c_35.mp4	0.0	116.5765209197998	0.14998602867126465
19	51.22271800041199	response	0	2		17.0	2.5	/experiments/knapen_aot/videos/R_S_yt-mJzkLd3Mr_c_35.mp4	0.0	116.71832990646362	
19	51.230895042419434	movie	1		301.0	17.0	2.5	/experiments/knapen_aot/videos/R_S_yt-mJzkLd3Mr_c_35.mp4	0.0	116.72650694847107	2.508419990539551
19	53.739315032958984	fix_post	2		12.0	17.0	2.5	/experiments/knapen_aot/videos/R_S_yt-mJzkLd3Mr_c_35.mp4	0.0	119.23492693901062	0.10010099411010742
20	53.83941602706909	fix_pre	0		15.0	18.0	2.5	/experiments/knapen_aot/videos/R_S_yt-V4Oosy-ZtGY_193.mp4	0.0	119.33502793312073	0.12489795684814453
20	53.95599699020386	response	0	2		18.0	2.5	/experiments/knapen_aot/videos/R_S_yt-V4Oosy-ZtGY_193.mp4	0.0	119.4516088962555	
20	53.964313983917236	movie	1		301.0	18.0	2.5	/experiments/knapen_aot/videos/R_S_yt-V4Oosy-ZtGY_193.mp4	0.0	119.45992588996887	2.508239984512329
20	56.472553968429565	fix_post	2		12.0	18.0	2.5	/experiments/knapen_aot/videos/R_S_yt-V4Oosy-ZtGY_193.mp4	0.0	121.9681658744812	0.10003900527954102
21	56.572592973709106	fix_pre	0		7.0	19.0	2.5	blank	1.0	122.06820487976074	0.05840301513671875
21	56.62265586853027	response	0	2		19.0	2.5	blank	1.0	122.11826777458191	
21	56.630995988845825	movie	1		301.0	19.0	2.5	blank	1.0	122.12660789489746	2.5084428787231445
21	59.13943886756897	fix_post	2		12.0	19.0	2.5	blank	1.0	124.6350507736206	0.0999441146850586
22	59.23938298225403	fix_pre	0		14.0	20.0	2.5	/experiments/knapen_aot/videos/S_ILSVRC2015_test_00004002.mp4	0.0	124.73499488830566	0.11647295951843262
22	59.347657918930054	response	0	2		20.0	2.5	/experiments/knapen_aot/videos/S_ILSVRC2015_test_00004002.mp4	0.0	124.84326982498169	
22	59.35585594177246	movie	1		301.0	20.0	2.5	/experiments/knapen_aot/videos/S_ILSVRC2015_test_00004002.mp4	0.0	124.8514678478241	2.5083279609680176
22	61.86418390274048	fix_post	2		12.0	20.0	2.5	/experiments/knapen_aot/videos/S_ILSVRC2015_test_00004002.mp4	0.0	127.35979580879211	0.1001119613647461
22	61.93088984489441	response	2	2		20.0	2.5	/experiments/knapen_aot/videos/S_ILSVRC2015_test_00004002.mp4	0.0	127.42650175094604	
23	61.964295864105225	fix_pre	0		63.0	21.0	2.5	/experiments/knapen_aot/videos/S_yt-MNo__ov96eI_22.mp4	0.0	127.45990777015686	0.5248739719390869
23	62.48094987869263	response	0	2		21.0	2.5	/experiments/knapen_aot/videos/S_yt-MNo__ov96eI_22.mp4	0.0	127.97656178474426	
23	62.48916983604431	movie	1		301.0	21.0	2.5	/experiments/knapen_aot/videos/S_yt-MNo__ov96eI_22.mp4	0.0	127.98478174209595	2.5083491802215576
23	64.99751901626587	fix_post	2		12.0	21.0	2.5	/experiments/knapen_aot/videos/S_yt-MNo__ov96eI_22.mp4	0.0	130.4931309223175	0.09999585151672363
24	65.09751486778259	fix_pre	0		8.0	22.0	2.5	/experiments/knapen_aot/videos/S_yt-MEfljVFL0xw_375.mp4	0.0	130.59312677383423	0.06662702560424805
24	65.1559808254242	response	0	2		22.0	2.5	/experiments/knapen_aot/videos/S_yt-MEfljVFL0xw_375.mp4	0.0	130.65159273147583	
24	65.16414189338684	movie	1		301.0	22.0	2.5	/experiments/knapen_aot/videos/S_yt-MEfljVFL0xw_375.mp4	0.0	130.65975379943848	2.5085880756378174
24	67.67272996902466	fix_post	2		12.0	22.0	2.5	/experiments/knapen_aot/videos/S_yt-MEfljVFL0xw_375.mp4	0.0	133.1683418750763	0.09978699684143066
25	67.77251696586609	fix_pre	0		18.0	23.0	2.5	/experiments/knapen_aot/videos/R_S_yt-OEY9O2MglQM_7.mp4	0.0	133.26812887191772	0.15003490447998047
25	67.91435289382935	response	0	2		23.0	2.5	/experiments/knapen_aot/videos/R_S_yt-OEY9O2MglQM_7.mp4	0.0	133.40996479988098	
25	67.92255187034607	movie	1		301.0	23.0	2.5	/experiments/knapen_aot/videos/R_S_yt-OEY9O2MglQM_7.mp4	0.0	133.4181637763977	2.5084640979766846
25	70.43101596832275	fix_post	2		12.0	23.0	2.5	/experiments/knapen_aot/videos/R_S_yt-OEY9O2MglQM_7.mp4	0.0	135.9266278743744	0.09982705116271973
26	70.53084301948547	fix_pre	0		13.0	24.0	2.5	/experiments/knapen_aot/videos/S_yt-e_eOzV7qMZo_374.mp4	0.0	136.0264549255371	0.1082608699798584
26	70.63087797164917	response	0	2		24.0	2.5	/experiments/knapen_aot/videos/S_yt-e_eOzV7qMZo_374.mp4	0.0	136.1264898777008	
26	70.63910388946533	movie	1		301.0	24.0	2.5	/experiments/knapen_aot/videos/S_yt-e_eOzV7qMZo_374.mp4	0.0	136.13471579551697	2.508368968963623
26	73.14747285842896	fix_post	2		12.0	24.0	2.5	/experiments/knapen_aot/videos/S_yt-e_eOzV7qMZo_374.mp4	0.0	138.6430847644806	0.10002803802490234
27	73.24750089645386	fix_pre	0		25.0	25.0	2.5	/experiments/knapen_aot/videos/R_S_ILSVRC2015_train_00447000.mp4	0.0	138.7431128025055	0.20830297470092773
27	73.44756698608398	response	0	2		25.0	2.5	/experiments/knapen_aot/videos/R_S_ILSVRC2015_train_00447000.mp4	0.0	138.94317889213562	
27	73.45580387115479	movie	1		301.0	25.0	2.5	/experiments/knapen_aot/videos/R_S_ILSVRC2015_train_00447000.mp4	0.0	138.95141577720642	2.508366107940674
27	75.96416997909546	fix_post	2		12.0	25.0	2.5	/experiments/knapen_aot/videos/R_S_ILSVRC2015_train_00447000.mp4	0.0	141.4597818851471	0.09996795654296875
28	76.06413793563843	fix_pre	0		28.0	26.0	2.5	/experiments/knapen_aot/videos/R_S_yt-28ODBE9bVh0_44.mp4	0.0	141.55974984169006	0.2333369255065918
28	76.28927397727966	response	0	2		26.0	2.5	/experiments/knapen_aot/videos/R_S_yt-28ODBE9bVh0_44.mp4	0.0	141.7848858833313	
28	76.29747486114502	movie	1		301.0	26.0	2.5	/experiments/knapen_aot/videos/R_S_yt-28ODBE9bVh0_44.mp4	0.0	141.79308676719666	2.508347988128662
28	78.80582284927368	fix_post	2		12.0	26.0	2.5	/experiments/knapen_aot/videos/R_S_yt-28ODBE9bVh0_44.mp4	0.0	144.30143475532532	0.10003900527954102
29	78.90586185455322	fix_pre	0		18.0	27.0	2.5	/experiments/knapen_aot/videos/S_yt-XtzmBXKYEWk_60.mp4	0.0	144.40147376060486	0.14985895156860352
29	79.0476188659668	response	0	2		27.0	2.5	/experiments/knapen_aot/videos/S_yt-XtzmBXKYEWk_60.mp4	0.0	144.54323077201843	
29	79.05572080612183	movie	1		301.0	27.0	2.5	/experiments/knapen_aot/videos/S_yt-XtzmBXKYEWk_60.mp4	0.0	144.55133271217346	2.5083940029144287
29	81.56411480903625	fix_post	2		12.0	27.0	2.5	/experiments/knapen_aot/videos/S_yt-XtzmBXKYEWk_60.mp4	0.0	147.0597267150879	0.10002303123474121
30	81.664137840271	fix_pre	0		28.0	28.0	2.5	blank	1.0	147.15974974632263	0.23322415351867676
30	81.88923597335815	response	0	2		28.0	2.5	blank	1.0	147.3848478794098	
30	81.89736199378967	movie	1		301.0	28.0	2.5	blank	1.0	147.3929738998413	2.5083909034729004
30	84.40575289726257	fix_post	2		12.0	28.0	2.5	blank	1.0	149.9013648033142	0.10006594657897949
31	84.50581884384155	fix_pre	0		22.0	29.0	2.5	/experiments/knapen_aot/videos/S_video-10.mp4	0.0	150.0014307498932	0.1832730770111084
31	84.68083596229553	response	0	2		29.0	2.5	/experiments/knapen_aot/videos/S_video-10.mp4	0.0	150.17644786834717	
31	84.68909192085266	movie	1		163.0	29.0	2.5	/experiments/knapen_aot/videos/S_video-10.mp4	0.0	150.1847038269043	2.5083389282226562
31	87.19743084907532	fix_post	2		12.0	29.0	2.5	/experiments/knapen_aot/videos/S_video-10.mp4	0.0	152.69304275512695	0.10012507438659668
32	87.29755592346191	fix_pre	0		6.0	30.0	2.5	/experiments/knapen_aot/videos/R_S_yt-uE9XoCLZlFo_1.mp4	0.0	152.79316782951355	0.049861907958984375
32	87.3391740322113	response	0	2		30.0	2.5	/experiments/knapen_aot/videos/R_S_yt-uE9XoCLZlFo_1.mp4	0.0	152.83478593826294	
32	87.3474178314209	movie	1		301.0	30.0	2.5	/experiments/knapen_aot/videos/R_S_yt-uE9XoCLZlFo_1.mp4	0.0	152.84302973747253	2.508334159851074
32	89.85575199127197	fix_post	2		12.0	30.0	2.5	/experiments/knapen_aot/videos/R_S_yt-uE9XoCLZlFo_1.mp4	0.0	155.3513638973236	0.09999799728393555
33	89.95574998855591	fix_pre	0		12.0	31.0	2.5	/experiments/knapen_aot/videos/S_Pz_NXxhQCJc_70.mp4	0.0	155.45136189460754	0.09994196891784668
33	90.04755091667175	response	0	2		31.0	2.5	/experiments/knapen_aot/videos/S_Pz_NXxhQCJc_70.mp4	0.0	155.5431628227234	
33	90.05569195747375	movie	1		301.0	31.0	2.5	/experiments/knapen_aot/videos/S_Pz_NXxhQCJc_70.mp4	0.0	155.5513038635254	2.508342981338501
33	92.56403493881226	fix_post	2		12.0	31.0	2.5	/experiments/knapen_aot/videos/S_Pz_NXxhQCJc_70.mp4	0.0	158.0596468448639	0.10002803802490234
34	92.66406297683716	fix_pre	0		7.0	32.0	2.5	/experiments/knapen_aot/videos/R_S_ILSVRC2015_train_00756000.mp4	0.0	158.1596748828888	0.05842089653015137
34	92.71411681175232	response	0	2		32.0	2.5	/experiments/knapen_aot/videos/R_S_ILSVRC2015_train_00756000.mp4	0.0	158.20972871780396	
34	92.72248387336731	movie	1		301.0	32.0	2.5	/experiments/knapen_aot/videos/R_S_ILSVRC2015_train_00756000.mp4	0.0	158.21809577941895	2.508247137069702
34	95.23073101043701	fix_post	2		12.0	32.0	2.5	/experiments/knapen_aot/videos/R_S_ILSVRC2015_train_00756000.mp4	0.0	160.72634291648865	0.10000085830688477
35	95.3307318687439	fix_pre	0		10.0	33.0	2.5	/experiments/knapen_aot/videos/S_pexels-kelly-lacy-6756531.mp4	0.0	160.82634377479553	0.08329200744628906
35	95.40586996078491	response	0	2		33.0	2.5	/experiments/knapen_aot/videos/S_pexels-kelly-lacy-6756531.mp4	0.0	160.90148186683655	
35	95.41402387619019	movie	1		172.0	33.0	2.5	/experiments/knapen_aot/videos/S_pexels-kelly-lacy-6756531.mp4	0.0	160.90963578224182	2.508366107940674
35	97.92238998413086	fix_post	2		12.0	33.0	2.5	/experiments/knapen_aot/videos/S_pexels-kelly-lacy-6756531.mp4	0.0	163.4180018901825	0.10002589225769043
36	98.02241587638855	fix_pre	0		19.0	34.0	2.5	blank	1.0	163.51802778244019	0.15833401679992676
36	98.17246103286743	response	0	2		34.0	2.5	blank	1.0	163.66807293891907	
36	98.18074989318848	movie	1		301.0	34.0	2.5	blank	1.0	163.6763617992401	2.508270025253296
36	100.68901991844177	fix_post	2		12.0	34.0	2.5	blank	1.0	166.1846318244934	0.10003995895385742
37	100.78905987739563	fix_pre	0		28.0	35.0	2.5	/experiments/knapen_aot/videos/R_S_yt-H5LQq4MPIao_660.mp4	0.0	166.28467178344727	0.23326396942138672
37	101.01410293579102	response	0	2		35.0	2.5	/experiments/knapen_aot/videos/R_S_yt-H5LQq4MPIao_660.mp4	0.0	166.50971484184265	
37	101.02232384681702	movie	1		301.0	35.0	2.5	/experiments/knapen_aot/videos/R_S_yt-H5LQq4MPIao_660.mp4	0.0	166.51793575286865	2.508363962173462
37	103.53068780899048	fix_post	2		12.0	35.0	2.5	/experiments/knapen_aot/videos/R_S_yt-H5LQq4MPIao_660.mp4	0.0	169.02629971504211	0.1000511646270752
38	103.63073897361755	fix_pre	0		19.0	36.0	2.5	/experiments/knapen_aot/videos/S_yt-ObT9gF8E_tU_250.mp4	0.0	169.1263508796692	0.15828299522399902
38	103.78070402145386	response	0	2		36.0	2.5	/experiments/knapen_aot/videos/S_yt-ObT9gF8E_tU_250.mp4	0.0	169.2763159275055	
38	103.78902196884155	movie	1		301.0	36.0	2.5	/experiments/knapen_aot/videos/S_yt-ObT9gF8E_tU_250.mp4	0.0	169.2846338748932	2.5085408687591553
38	106.29756283760071	fix_post	2		12.0	36.0	2.5	/experiments/knapen_aot/videos/S_yt-ObT9gF8E_tU_250.mp4	0.0	171.79317474365234	0.09981608390808105
39	106.39737892150879	fix_pre	0		10.0	37.0	2.5	/experiments/knapen_aot/videos/S_ILSVRC2015_train_00601000.mp4	0.0	171.89299082756042	0.08328390121459961
39	106.47243094444275	response	0	2		37.0	2.5	/experiments/knapen_aot/videos/S_ILSVRC2015_train_00601000.mp4	0.0	171.96804285049438	
39	106.48066282272339	movie	1		301.0	37.0	2.5	/experiments/knapen_aot/videos/S_ILSVRC2015_train_00601000.mp4	0.0	171.97627472877502	2.5083491802215576
39	108.98901200294495	fix_post	2		12.0	37.0	2.5	/experiments/knapen_aot/videos/S_ILSVRC2015_train_00601000.mp4	0.0	174.48462390899658	0.10011100769042969
40	109.08912301063538	fix_pre	0		19.0	38.0	2.5	/experiments/knapen_aot/videos/R_S_ILSVRC2015_train_00559000.mp4	0.0	174.584734916687	0.15823888778686523
40	109.23914694786072	response	0	2		38.0	2.5	/experiments/knapen_aot/videos/R_S_ILSVRC2015_train_00559000.mp4	0.0	174.73475885391235	
40	109.24736189842224	movie	1		301.0	38.0	2.5	/experiments/knapen_aot/videos/R_S_ILSVRC2015_train_00559000.mp4	0.0	174.74297380447388	2.5082969665527344
40	111.75565886497498	fix_post	2		12.0	38.0	2.5	/experiments/knapen_aot/videos/R_S_ILSVRC2015_train_00559000.mp4	0.0	177.2512707710266	0.10011816024780273
41	111.85577702522278	fix_pre	0		2.0	39.0	2.5	/experiments/knapen_aot/videos/R_S_ILSVRC2015_train_00704000.mp4	0.0	177.3513889312744	0.0165557861328125
41	111.86411595344543	response	0	2		39.0	2.5	/experiments/knapen_aot/videos/R_S_ILSVRC2015_train_00704000.mp4	0.0	177.35972785949707	
41	111.87233281135559	movie	1		301.0	39.0	2.5	/experiments/knapen_aot/videos/R_S_ILSVRC2015_train_00704000.mp4	0.0	177.36794471740723	2.508735179901123
41	114.38106799125671	fix_post	2		12.0	39.0	2.5	/experiments/knapen_aot/videos/R_S_ILSVRC2015_train_00704000.mp4	0.0	179.87667989730835	0.09958600997924805
42	114.48065400123596	fix_pre	0		3.0	40.0	2.5	/experiments/knapen_aot/videos/S_yt-83nimFMNhrM_131.mp4	0.0	179.9762659072876	0.025362014770507812
42	114.49768686294556	response	0	2		40.0	2.5	/experiments/knapen_aot/videos/S_yt-83nimFMNhrM_131.mp4	0.0	179.9932987689972	
42	114.50601601600647	movie	1		301.0	40.0	2.5	/experiments/knapen_aot/videos/S_yt-83nimFMNhrM_131.mp4	0.0	180.0016279220581	2.507943868637085
42	117.01395988464355	fix_post	2		12.0	40.0	2.5	/experiments/knapen_aot/videos/S_yt-83nimFMNhrM_131.mp4	0.0	182.5095717906952	0.10011506080627441
43	117.11407494544983	fix_pre	0		17.0	41.0	2.5	/experiments/knapen_aot/videos/R_S_JApTAOdfunE_1251.mp4	0.0	182.60968685150146	0.14154291152954102
43	117.24733281135559	response	0	2		41.0	2.5	/experiments/knapen_aot/videos/R_S_JApTAOdfunE_1251.mp4	0.0	182.74294471740723	
43	117.25561785697937	movie	1		301.0	41.0	2.5	/experiments/knapen_aot/videos/R_S_JApTAOdfunE_1251.mp4	0.0	182.751229763031	2.5087320804595947
43	119.76434993743896	fix_post	2		12.0	41.0	2.5	/experiments/knapen_aot/videos/R_S_JApTAOdfunE_1251.mp4	0.0	185.2599618434906	0.09981107711791992
44	119.86416101455688	fix_pre	0		13.0	42.0	2.5	blank	1.0	185.35977292060852	0.10819792747497559
44	119.96410083770752	response	0	2		42.0	2.5	blank	1.0	185.45971274375916	
44	119.97235894203186	movie	1		301.0	42.0	2.5	blank	1.0	185.4679708480835	2.5082709789276123
44	122.48062992095947	fix_post	2		12.0	42.0	2.5	blank	1.0	187.9762418270111	0.09992790222167969
45	122.58055782318115	fix_pre	0		36.0	43.0	2.5	/experiments/knapen_aot/videos/S_yt-22c5eZ1UNME_76.mp4	0.0	188.0761697292328	0.30003809928894043
45	122.8722939491272	response	0	2		43.0	2.5	/experiments/knapen_aot/videos/S_yt-22c5eZ1UNME_76.mp4	0.0	188.36790585517883	
45	122.88059592247009	movie	1		301.0	43.0	2.5	/experiments/knapen_aot/videos/S_yt-22c5eZ1UNME_76.mp4	0.0	188.37620782852173	2.508730888366699
45	125.38932681083679	fix_post	2		12.0	43.0	2.5	/experiments/knapen_aot/videos/S_yt-22c5eZ1UNME_76.mp4	0.0	190.88493871688843	0.09961199760437012
46	125.48893880844116	fix_pre	0		2.0	44.0	2.5	/experiments/knapen_aot/videos/S_yt-f9iXELY0EJ0_344.mp4	0.0	190.9845507144928	0.016688108444213867
46	125.4985740184784	response	0	2		44.0	2.5	/experiments/knapen_aot/videos/S_yt-f9iXELY0EJ0_344.mp4	0.0	190.99418592453003	
46	125.50562691688538	movie	1		301.0	44.0	2.5	/experiments/knapen_aot/videos/S_yt-f9iXELY0EJ0_344.mp4	0.0	191.001238822937	2.508302927017212
46	128.0139298439026	fix_post	2		12.0	44.0	2.5	/experiments/knapen_aot/videos/S_yt-f9iXELY0EJ0_344.mp4	0.0	193.50954174995422	0.09995698928833008
47	128.11388683319092	fix_pre	0		5.0	45.0	2.5	/experiments/knapen_aot/videos/R_S_KP_A010_C002_SDR_20190717_SDR_2K_AVC.mp4	0.0	193.60949873924255	0.04169321060180664
47	128.1473798751831	response	0	2		45.0	2.5	/experiments/knapen_aot/videos/R_S_KP_A010_C002_SDR_20190717_SDR_2K_AVC.mp4	0.0	193.64299178123474	
47	128.15558004379272	movie	1		169.0	45.0	2.5	/experiments/knapen_aot/videos/R_S_KP_A010_C002_SDR_20190717_SDR_2K_AVC.mp4	0.0	193.65119194984436	2.5084168910980225
47	130.66399693489075	fix_post	2		12.0	45.0	2.5	/experiments/knapen_aot/videos/R_S_KP_A010_C002_SDR_20190717_SDR_2K_AVC.mp4	0.0	196.15960884094238	0.09995388984680176
47	130.7390558719635	response	2	2		45.0	2.5	/experiments/knapen_aot/videos/R_S_KP_A010_C002_SDR_20190717_SDR_2K_AVC.mp4	0.0	196.23466777801514	
48	130.76395082473755	fix_pre	0		76.0	46.0	2.5	/experiments/knapen_aot/videos/R_S_yt-Fm97IY0Z2LU_79.mp4	0.0	196.25956273078918	0.6332271099090576
48	131.3889458179474	response	0	2		46.0	2.5	/experiments/knapen_aot/videos/R_S_yt-Fm97IY0Z2LU_79.mp4	0.0	196.88455772399902	
48	131.3971779346466	movie	1		301.0	46.0	2.5	/experiments/knapen_aot/videos/R_S_yt-Fm97IY0Z2LU_79.mp4	0.0	196.89278984069824	2.5083940029144287
48	133.90557193756104	fix_post	2		12.0	46.0	2.5	/experiments/knapen_aot/videos/R_S_yt-Fm97IY0Z2LU_79.mp4	0.0	199.40118384361267	0.10003089904785156
49	134.0056028366089	fix_pre	0		16.0	47.0	2.5	/experiments/knapen_aot/videos/R_S_yt-s2PWkCdT-TM_258.mp4	0.0	199.50121474266052	0.13329410552978516
49	134.13070487976074	response	0	2		47.0	2.5	/experiments/knapen_aot/videos/R_S_yt-s2PWkCdT-TM_258.mp4	0.0	199.62631678581238	
49	134.13889694213867	movie	1		301.0	47.0	2.5	/experiments/knapen_aot/videos/R_S_yt-s2PWkCdT-TM_258.mp4	0.0	199.6345088481903	2.50832200050354
49	136.6472189426422	fix_post	2		12.0	47.0	2.5	/experiments/knapen_aot/videos/R_S_yt-s2PWkCdT-TM_258.mp4	0.0	202.14283084869385	0.09996199607849121
50	136.7471809387207	fix_pre	0		6.0	48.0	2.5	blank	1.0	202.24279284477234	0.050041913986206055
50	136.78152894973755	response	0	2		48.0	2.5	blank	1.0	202.27714085578918	
50	136.7972228527069	movie	1		301.0	48.0	2.5	blank	1.0	202.29283475875854	2.508319139480591
50	139.3055419921875	fix_post	2		12.0	48.0	2.5	blank	1.0	204.80115389823914	0.10001301765441895
51	139.40555500984192	fix_pre	0		20.0	49.0	2.5	/experiments/knapen_aot/videos/R_S_yt-Rqwi-Fk9IJQ_114.mp4	0.0	204.90116691589355	0.1666548252105713
51	139.56405401229858	response	0	2		49.0	2.5	/experiments/knapen_aot/videos/R_S_yt-Rqwi-Fk9IJQ_114.mp4	0.0	205.05966591835022	
51	139.5722098350525	movie	1		301.0	49.0	2.5	/experiments/knapen_aot/videos/R_S_yt-Rqwi-Fk9IJQ_114.mp4	0.0	205.06782174110413	2.5083119869232178
51	142.0805218219757	fix_post	2		12.0	49.0	2.5	/experiments/knapen_aot/videos/R_S_yt-Rqwi-Fk9IJQ_114.mp4	0.0	207.57613372802734	0.10010719299316406
52	142.18062901496887	fix_pre	0		12.0	50.0	2.5	/experiments/knapen_aot/videos/R_S_yt-4r-oovk9JWg_85.mp4	0.0	207.6762409210205	0.09987783432006836
52	142.27243995666504	response	0	2		50.0	2.5	/experiments/knapen_aot/videos/R_S_yt-4r-oovk9JWg_85.mp4	0.0	207.76805186271667	
52	142.28050684928894	movie	1		301.0	50.0	2.5	/experiments/knapen_aot/videos/R_S_yt-4r-oovk9JWg_85.mp4	0.0	207.77611875534058	2.508263111114502
52	144.78876996040344	fix_post	2		12.0	50.0	2.5	/experiments/knapen_aot/videos/R_S_yt-4r-oovk9JWg_85.mp4	0.0	210.28438186645508	0.10007905960083008
53	144.88884902000427	fix_pre	0		12.0	51.0	2.5	/experiments/knapen_aot/videos/R_S_yt-TxU1H5A6BaQ_52.mp4	0.0	210.3844609260559	0.09997200965881348
53	144.98065280914307	response	0	2		51.0	2.5	/experiments/knapen_aot/videos/R_S_yt-TxU1H5A6BaQ_52.mp4	0.0	210.4762647151947	
53	144.9888210296631	movie	1		301.0	51.0	2.5	/experiments/knapen_aot/videos/R_S_yt-TxU1H5A6BaQ_52.mp4	0.0	210.48443293571472	2.508307933807373
53	147.49712896347046	fix_post	2		12.0	51.0	2.5	/experiments/knapen_aot/videos/R_S_yt-TxU1H5A6BaQ_52.mp4	0.0	212.9927408695221	0.10010004043579102
54	147.59722900390625	fix_pre	0		10.0	52.0	2.5	/experiments/knapen_aot/videos/R_S_production_ID_4499960.mp4	0.0	213.09284090995789	0.08320999145507812
54	147.67229795455933	response	0	2		52.0	2.5	/experiments/knapen_aot/videos/R_S_production_ID_4499960.mp4	0.0	213.16790986061096	
54	147.68043899536133	movie	1		164.0	52.0	2.5	/experiments/knapen_aot/videos/R_S_production_ID_4499960.mp4	0.0	213.17605090141296	2.5084149837493896
54	150.18885397911072	fix_post	2		12.0	52.0	2.5	/experiments/knapen_aot/videos/R_S_production_ID_4499960.mp4	0.0	215.68446588516235	0.09997296333312988
54	150.24726581573486	response	2	2		52.0	2.5	/experiments/knapen_aot/videos/R_S_production_ID_4499960.mp4	0.0	215.7428777217865	
55	150.28882694244385	fix_pre	0		73.0	53.0	2.5	/experiments/knapen_aot/videos/S_ILSVRC2015_train_00447000.mp4	0.0	215.78443884849548	0.6083080768585205
55	150.88891792297363	response	0	2		53.0	2.5	/experiments/knapen_aot/videos/S_ILSVRC2015_train_00447000.mp4	0.0	216.38452982902527	
55	150.89713501930237	movie	1		301.0	53.0	2.5	/experiments/knapen_aot/videos/S_ILSVRC2015_train_00447000.mp4	0.0	216.392746925354	2.508335828781128
55	153.4054708480835	fix_post	2		12.0	53.0	2.5	/experiments/knapen_aot/videos/S_ILSVRC2015_train_00447000.mp4	0.0	218.90108275413513	0.10004615783691406
56	153.5055170059204	fix_pre	0		28.0	54.0	2.5	/experiments/knapen_aot/videos/R_S_yt-XA6RBioito4_18.mp4	0.0	219.00112891197205	0.2332749366760254
56	153.73060297966003	response	0	2		54.0	2.5	/experiments/knapen_aot/videos/R_S_yt-XA6RBioito4_18.mp4	0.0	219.22621488571167	
56	153.73879194259644	movie	1		301.0	54.0	2.5	/experiments/knapen_aot/videos/R_S_yt-XA6RBioito4_18.mp4	0.0	219.23440384864807	2.5083889961242676
56	156.2471809387207	fix_post	2		12.0	54.0	2.5	/experiments/knapen_aot/videos/R_S_yt-XA6RBioito4_18.mp4	0.0	221.74279284477234	0.1000680923461914
57	156.3472490310669	fix_pre	0		11.0	55.0	2.5	/experiments/knapen_aot/videos/S_yt-GI8BEHw2Lq8_3.mp4	0.0	221.84286093711853	0.09149694442749023
57	156.43063402175903	response	0	2		55.0	2.5	/experiments/knapen_aot/videos/S_yt-GI8BEHw2Lq8_3.mp4	0.0	221.92624592781067	
57	156.43874597549438	movie	1		301.0	55.0	2.5	/experiments/knapen_aot/videos/S_yt-GI8BEHw2Lq8_3.mp4	0.0	221.93435788154602	2.508375883102417
57	158.9471218585968	fix_post	2		12.0	55.0	2.5	/experiments/knapen_aot/videos/S_yt-GI8BEHw2Lq8_3.mp4	0.0	224.44273376464844	0.0999901294708252
58	159.04711198806763	fix_pre	0		5.0	56.0	2.5	blank	1.0	224.54272389411926	0.04169297218322754
58	159.07364988327026	response	0	2		56.0	2.5	blank	1.0	224.5692617893219	
58	159.08880496025085	movie	1		301.0	56.0	2.5	blank	1.0	224.5844168663025	2.5082809925079346
58	161.5970859527588	fix_post	2		12.0	56.0	2.5	blank	1.0	227.09269785881042	0.10002398490905762
59	161.69710993766785	fix_pre	0		13.0	57.0	2.5	/experiments/knapen_aot/videos/S_yt-uE9XoCLZlFo_1.mp4	0.0	227.19272184371948	0.10835099220275879
59	161.7972068786621	response	0	2		57.0	2.5	/experiments/knapen_aot/videos/S_yt-uE9XoCLZlFo_1.mp4	0.0	227.29281878471375	
59	161.8054609298706	movie	1		301.0	57.0	2.5	/experiments/knapen_aot/videos/S_yt-uE9XoCLZlFo_1.mp4	0.0	227.30107283592224	2.5082859992980957
59	164.3137469291687	fix_post	2		12.0	57.0	2.5	/experiments/knapen_aot/videos/S_yt-uE9XoCLZlFo_1.mp4	0.0	229.80935883522034	0.10014104843139648
60	164.4138879776001	fix_pre	0		11.0	58.0	2.5	/experiments/knapen_aot/videos/S_yt-bTcbsBET7gc_270.mp4	0.0	229.90949988365173	0.09151005744934082
60	164.49716997146606	response	0	2		58.0	2.5	/experiments/knapen_aot/videos/S_yt-bTcbsBET7gc_270.mp4	0.0	229.9927818775177	
60	164.50539803504944	movie	1		301.0	58.0	2.5	/experiments/knapen_aot/videos/S_yt-bTcbsBET7gc_270.mp4	0.0	230.00100994110107	2.5084168910980225
60	167.01381492614746	fix_post	2		12.0	58.0	2.5	/experiments/knapen_aot/videos/S_yt-bTcbsBET7gc_270.mp4	0.0	232.5094268321991	0.09997797012329102
61	167.11379289627075	fix_pre	0		1.0	59.0	2.5	/experiments/knapen_aot/videos/R_S_yt-146gReE6xKw_379.mp4	0.0	232.6094048023224	0.009305000305175781
61	167.1154329776764	response	0	2		59.0	2.5	/experiments/knapen_aot/videos/R_S_yt-146gReE6xKw_379.mp4	0.0	232.61104488372803	
61	167.12309789657593	movie	1		301.0	59.0	2.5	/experiments/knapen_aot/videos/R_S_yt-146gReE6xKw_379.mp4	0.0	232.61870980262756	2.5074009895324707
61	169.6304988861084	fix_post	2		12.0	59.0	2.5	/experiments/knapen_aot/videos/R_S_yt-146gReE6xKw_379.mp4	0.0	235.12611079216003	0.09993815422058105
62	169.73043704032898	fix_pre	0		10.0	60.0	2.5	/experiments/knapen_aot/videos/R_S_yt-LQrnLKP5tiQ_48.mp4	0.0	235.22604894638062	0.0833289623260498
62	169.8055670261383	response	0	2		60.0	2.5	/experiments/knapen_aot/videos/R_S_yt-LQrnLKP5tiQ_48.mp4	0.0	235.30117893218994	
62	169.81376600265503	movie	1		301.0	60.0	2.5	/experiments/knapen_aot/videos/R_S_yt-LQrnLKP5tiQ_48.mp4	0.0	235.30937790870667	2.5083799362182617
62	172.3221459388733	fix_post	2		12.0	60.0	2.5	/experiments/knapen_aot/videos/R_S_yt-LQrnLKP5tiQ_48.mp4	0.0	237.81775784492493	0.09994888305664062
63	172.42209482192993	fix_pre	0		21.0	61.0	2.5	/experiments/knapen_aot/videos/S_yt-4r-oovk9JWg_85.mp4	0.0	237.91770672798157	0.17500805854797363
63	172.5888798236847	response	0	2		61.0	2.5	/experiments/knapen_aot/videos/S_yt-4r-oovk9JWg_85.mp4	0.0	238.08449172973633	
63	172.5971028804779	movie	1		301.0	61.0	2.5	/experiments/knapen_aot/videos/S_yt-4r-oovk9JWg_85.mp4	0.0	238.09271478652954	2.5083460807800293
63	175.10544896125793	fix_post	2		12.0	61.0	2.5	/experiments/knapen_aot/videos/S_yt-4r-oovk9JWg_85.mp4	0.0	240.60106086730957	0.09997296333312988
64	175.20542192459106	fix_pre	0		24.0	62.0	2.5	blank	1.0	240.7010338306427	0.20001006126403809
64	175.39739298820496	response	0	2		62.0	2.5	blank	1.0	240.8930048942566	
64	175.4054319858551	movie	1		301.0	62.0	2.5	blank	1.0	240.90104389190674	2.50833797454834
64	177.91376996040344	fix_post	2		12.0	62.0	2.5	blank	1.0	243.40938186645508	0.10000085830688477
65	178.01377081871033	fix_pre	0		20.0	63.0	2.5	/experiments/knapen_aot/videos/R_S_pexels-pavel-danilyuk-8057714.mp4	0.0	243.50938272476196	0.16664409637451172
65	178.1721498966217	response	0	2		63.0	2.5	/experiments/knapen_aot/videos/R_S_pexels-pavel-danilyuk-8057714.mp4	0.0	243.66776180267334	
65	178.18041491508484	movie	1		168.0	63.0	2.5	/experiments/knapen_aot/videos/R_S_pexels-pavel-danilyuk-8057714.mp4	0.0	243.67602682113647	2.508352041244507
65	180.68876695632935	fix_post	2		12.0	63.0	2.5	/experiments/knapen_aot/videos/R_S_pexels-pavel-danilyuk-8057714.mp4	0.0	246.18437886238098	0.09999990463256836
65	180.73881483078003	response	2	2		63.0	2.5	/experiments/knapen_aot/videos/R_S_pexels-pavel-danilyuk-8057714.mp4	0.0	246.23442673683167	
66	180.7887668609619	fix_pre	0		39.0	64.0	2.5	/experiments/knapen_aot/videos/R_S_BO_A014_C023_SDR_20190717_F240F3709_SDR_2K_AVC.mp4	0.0	246.28437876701355	0.32494211196899414
66	181.10551691055298	response	0	2		64.0	2.5	/experiments/knapen_aot/videos/R_S_BO_A014_C023_SDR_20190717_F240F3709_SDR_2K_AVC.mp4	0.0	246.60112881660461	
66	181.1137089729309	movie	1		167.0	64.0	2.5	/experiments/knapen_aot/videos/R_S_BO_A014_C023_SDR_20190717_F240F3709_SDR_2K_AVC.mp4	0.0	246.60932087898254	2.508561849594116
66	183.62227082252502	fix_post	2		12.0	64.0	2.5	/experiments/knapen_aot/videos/R_S_BO_A014_C023_SDR_20190717_F240F3709_SDR_2K_AVC.mp4	0.0	249.11788272857666	0.0998380184173584
66	183.68051481246948	response	2	2		64.0	2.5	/experiments/knapen_aot/videos/R_S_BO_A014_C023_SDR_20190717_F240F3709_SDR_2K_AVC.mp4	0.0	249.17612671852112	
67	183.72210884094238	fix_pre	0		37.0	65.0	2.5	/experiments/knapen_aot/videos/S_yt-kkbtZP78JxQ_96.mp4	0.0	249.21772074699402	0.3082590103149414
67	184.02213287353516	response	0	2		65.0	2.5	/experiments/knapen_aot/videos/S_yt-kkbtZP78JxQ_96.mp4	0.0	249.5177447795868	
67	184.03036785125732	movie	1		301.0	65.0	2.5	/experiments/knapen_aot/videos/S_yt-kkbtZP78JxQ_96.mp4	0.0	249.52597975730896	2.50838303565979
67	186.53875088691711	fix_post	2		12.0	65.0	2.5	/experiments/knapen_aot/videos/S_yt-kkbtZP78JxQ_96.mp4	0.0	252.03436279296875	0.09993410110473633
68	186.63868498802185	fix_pre	0		9.0	66.0	2.5	/experiments/knapen_aot/videos/S_ILSVRC2015_train_00067005.mp4	0.0	252.1342968940735	0.07500600814819336
68	186.70554780960083	response	0	2		66.0	2.5	/experiments/knapen_aot/videos/S_ILSVRC2015_train_00067005.mp4	0.0	252.20115971565247	
68	186.71369099617004	movie	1		301.0	66.0	2.5	/experiments/knapen_aot/videos/S_ILSVRC2015_train_00067005.mp4	0.0	252.20930290222168	2.5083630084991455
68	189.2220540046692	fix_post	2		12.0	66.0	2.5	/experiments/knapen_aot/videos/S_ILSVRC2015_train_00067005.mp4	0.0	254.71766591072083	0.09994387626647949
69	189.32199788093567	fix_pre	0		19.0	67.0	2.5	/experiments/knapen_aot/videos/S_yt-q9kT_c9QjbQ_34.mp4	0.0	254.8176097869873	0.15831494331359863
69	189.46472787857056	response	0	2		67.0	2.5	/experiments/knapen_aot/videos/S_yt-q9kT_c9QjbQ_34.mp4	0.0	254.9603397846222	
69	189.48031282424927	movie	1		301.0	67.0	2.5	/experiments/knapen_aot/videos/S_yt-q9kT_c9QjbQ_34.mp4	0.0	254.9759247303009	2.5082859992980957
69	191.98859882354736	fix_post	2		12.0	67.0	2.5	/experiments/knapen_aot/videos/S_yt-q9kT_c9QjbQ_34.mp4	0.0	257.484210729599	0.10005807876586914
70	192.08865690231323	fix_pre	0		34.0	68.0	2.5	blank	1.0	257.58426880836487	0.2841019630432129
70	192.36376094818115	response	0	2		68.0	2.5	blank	1.0	257.8593728542328	
70	192.37275886535645	movie	1		301.0	68.0	2.5	blank	1.0	257.8683707714081	2.5075039863586426
70	194.8802628517151	fix_post	2		12.0	68.0	2.5	blank	1.0	260.3758747577667	0.10009098052978516
71	194.98035383224487	fix_pre	0		18.0	69.0	2.5	/experiments/knapen_aot/videos/R_S_yt-H5LQq4MPIao_660.mp4	0.0	260.4759657382965	0.14996719360351562
71	195.1222689151764	response	0	2		69.0	2.5	/experiments/knapen_aot/videos/R_S_yt-H5LQq4MPIao_660.mp4	0.0	260.617880821228	
71	195.1303210258484	movie	1		301.0	69.0	2.5	/experiments/knapen_aot/videos/R_S_yt-H5LQq4MPIao_660.mp4	0.0	260.6259329319	2.508319854736328
71	197.63864088058472	fix_post	2		12.0	69.0	2.5	/experiments/knapen_aot/videos/R_S_yt-H5LQq4MPIao_660.mp4	0.0	263.13425278663635	0.0999441146850586
72	197.73858499526978	fix_pre	0		6.0	70.0	2.5	/experiments/knapen_aot/videos/R_S_yt-bTcbsBET7gc_270.mp4	0.0	263.2341969013214	0.05105900764465332
72	197.78041696548462	response	0	2		70.0	2.5	/experiments/knapen_aot/videos/R_S_yt-bTcbsBET7gc_270.mp4	0.0	263.27602887153625	
72	197.78964400291443	movie	1		301.0	70.0	2.5	/experiments/knapen_aot/videos/R_S_yt-bTcbsBET7gc_270.mp4	0.0	263.28525590896606	2.5074288845062256
72	200.29707288742065	fix_post	2		11.0	70.0	2.5	/experiments/knapen_aot/videos/R_S_yt-bTcbsBET7gc_270.mp4	0.0	265.7926847934723	0.09150409698486328
72	200.38041591644287	response	2	2		70.0	2.5	/experiments/knapen_aot/videos/R_S_yt-bTcbsBET7gc_270.mp4	0.0	265.8760278224945	
73	200.38857698440552	fix_pre	0		43.0	71.0	2.5	/experiments/knapen_aot/videos/R_S_yt-MEfljVFL0xw_375.mp4	0.0	265.88418889045715	0.35922884941101074
73	200.73869681358337	response	0	2		71.0	2.5	/experiments/knapen_aot/videos/R_S_yt-MEfljVFL0xw_375.mp4	0.0	266.234308719635	
73	200.74780583381653	movie	1		301.0	71.0	2.5	/experiments/knapen_aot/videos/R_S_yt-MEfljVFL0xw_375.mp4	0.0	266.24341773986816	2.5075461864471436
73	203.25535202026367	fix_post	2		12.0	71.0	2.5	/experiments/knapen_aot/videos/R_S_yt-MEfljVFL0xw_375.mp4	0.0	268.7509639263153	0.10001683235168457
74	203.35536885261536	fix_pre	0		8.0	72.0	2.5	/experiments/knapen_aot/videos/R_S_comp_GMT314_139M_170NC_NORTH_AMERICA_AURORA__COMP_v22_SDR_20181206_v12CC_SDR_2K_AVC.mp4	0.0	268.850980758667	0.06673502922058105
74	203.41376090049744	response	0	2		72.0	2.5	/experiments/knapen_aot/videos/R_S_comp_GMT314_139M_170NC_NORTH_AMERICA_AURORA__COMP_v22_SDR_20181206_v12CC_SDR_2K_AVC.mp4	0.0	268.9093728065491	
74	203.42210388183594	movie	1		166.0	72.0	2.5	/experiments/knapen_aot/videos/R_S_comp_GMT314_139M_170NC_NORTH_AMERICA_AURORA__COMP_v22_SDR_20181206_v12CC_SDR_2K_AVC.mp4	0.0	268.9177157878876	2.508113145828247
74	205.93021702766418	fix_post	2		12.0	72.0	2.5	/experiments/knapen_aot/videos/R_S_comp_GMT314_139M_170NC_NORTH_AMERICA_AURORA__COMP_v22_SDR_20181206_v12CC_SDR_2K_AVC.mp4	0.0	271.4258289337158	0.10008478164672852
75	206.0303018093109	fix_pre	0		7.0	73.0	2.5	/experiments/knapen_aot/videos/S_yt-g_CLzrCYHoc_7.mp4	0.0	271.52591371536255	0.05825400352478027
75	206.07290601730347	response	0	2		73.0	2.5	/experiments/knapen_aot/videos/S_yt-g_CLzrCYHoc_7.mp4	0.0	271.5685179233551	
75	206.0885558128357	movie	1		301.0	73.0	2.5	/experiments/knapen_aot/videos/S_yt-g_CLzrCYHoc_7.mp4	0.0	271.58416771888733	2.508395195007324
75	208.59695100784302	fix_post	2		12.0	73.0	2.5	/experiments/knapen_aot/videos/S_yt-g_CLzrCYHoc_7.mp4	0.0	274.09256291389465	0.09994697570800781
76	208.69689798355103	fix_pre	0		12.0	74.0	2.5	/experiments/knapen_aot/videos/S_yt-q9kT_c9QjbQ_34.mp4	0.0	274.19250988960266	0.10001301765441895
76	208.78871393203735	response	0	2		74.0	2.5	/experiments/knapen_aot/videos/S_yt-q9kT_c9QjbQ_34.mp4	0.0	274.284325838089	
76	208.79691100120544	movie	1		301.0	74.0	2.5	/experiments/knapen_aot/videos/S_yt-q9kT_c9QjbQ_34.mp4	0.0	274.2925229072571	2.508445978164673
76	211.30535697937012	fix_post	2		12.0	74.0	2.5	/experiments/knapen_aot/videos/S_yt-q9kT_c9QjbQ_34.mp4	0.0	276.80096888542175	0.09990501403808594
77	211.4052619934082	fix_pre	0		43.0	75.0	2.5	/experiments/knapen_aot/videos/S_yt-146gReE6xKw_379.mp4	0.0	276.90087389945984	0.35834789276123047
77	211.75532484054565	response	0	2		75.0	2.5	/experiments/knapen_aot/videos/S_yt-146gReE6xKw_379.mp4	0.0	277.2509367465973	
77	211.76360988616943	movie	1		301.0	75.0	2.5	/experiments/knapen_aot/videos/S_yt-146gReE6xKw_379.mp4	0.0	277.25922179222107	2.5083200931549072
77	214.27192997932434	fix_post	2		12.0	75.0	2.5	/experiments/knapen_aot/videos/S_yt-146gReE6xKw_379.mp4	0.0	279.767541885376	0.09997296333312988
78	214.37190294265747	fix_pre	0		49.0	76.0	2.5	blank	1.0	279.8675148487091	0.4082479476928711
78	214.77201986312866	response	0	2		76.0	2.5	blank	1.0	280.2676317691803	
78	214.78015089035034	movie	1		301.0	76.0	2.5	blank	1.0	280.275762796402	2.5084760189056396
78	217.28862690925598	fix_post	2		12.0	76.0	2.5	blank	1.0	282.7842388153076	0.09993600845336914
79	217.38856291770935	fix_pre	0		31.0	77.0	2.5	/experiments/knapen_aot/videos/R_S_ILSVRC2015_train_00415005.mp4	0.0	282.884174823761	0.2583498954772949
79	217.63869094848633	response	0	2		77.0	2.5	/experiments/knapen_aot/videos/R_S_ILSVRC2015_train_00415005.mp4	0.0	283.13430285453796	
79	217.64691281318665	movie	1		301.0	77.0	2.5	/experiments/knapen_aot/videos/R_S_ILSVRC2015_train_00415005.mp4	0.0	283.1425247192383	2.508585214614868
79	220.1554980278015	fix_post	2		12.0	77.0	2.5	/experiments/knapen_aot/videos/R_S_ILSVRC2015_train_00415005.mp4	0.0	285.65110993385315	0.09964489936828613
80	220.2551429271698	fix_pre	0		9.0	78.0	2.5	/experiments/knapen_aot/videos/S_comp_LW_L001_C006_PSNK_DENOISE_v02_SDR_PS_FINAL_20180709_SDR_2K_AVC.mp4	0.0	285.75075483322144	0.07575297355651855
80	220.32198786735535	response	0	2		78.0	2.5	/experiments/knapen_aot/videos/S_comp_LW_L001_C006_PSNK_DENOISE_v02_SDR_PS_FINAL_20180709_SDR_2K_AVC.mp4	0.0	285.817599773407	
80	220.33089590072632	movie	1		161.0	78.0	2.5	/experiments/knapen_aot/videos/S_comp_LW_L001_C006_PSNK_DENOISE_v02_SDR_PS_FINAL_20180709_SDR_2K_AVC.mp4	0.0	285.82650780677795	2.5080299377441406
80	222.83892583847046	fix_post	2		12.0	78.0	2.5	/experiments/knapen_aot/videos/S_comp_LW_L001_C006_PSNK_DENOISE_v02_SDR_PS_FINAL_20180709_SDR_2K_AVC.mp4	0.0	288.3345377445221	0.09961199760437012
81	222.93853783607483	fix_pre	0		17.0	79.0	2.5	/experiments/knapen_aot/videos/R_S_ILSVRC2015_train_00601000.mp4	0.0	288.43414974212646	0.1422879695892334
81	223.06438302993774	response	0	2		79.0	2.5	/experiments/knapen_aot/videos/R_S_ILSVRC2015_train_00601000.mp4	0.0	288.5599949359894	
81	223.08082580566406	movie	1		301.0	79.0	2.5	/experiments/knapen_aot/videos/R_S_ILSVRC2015_train_00601000.mp4	0.0	288.5764377117157	2.5078511238098145
81	225.58867692947388	fix_post	2		12.0	79.0	2.5	/experiments/knapen_aot/videos/R_S_ILSVRC2015_train_00601000.mp4	0.0	291.0842888355255	0.09992289543151855
82	225.6885998249054	fix_pre	0		18.0	80.0	2.5	/experiments/knapen_aot/videos/S_pexels-artem-podrez-5457692.mp4	0.0	291.18421173095703	0.14991402626037598
82	225.83026885986328	response	0	2		80.0	2.5	/experiments/knapen_aot/videos/S_pexels-artem-podrez-5457692.mp4	0.0	291.3258807659149	
82	225.83851385116577	movie	1		167.0	80.0	2.5	/experiments/knapen_aot/videos/S_pexels-artem-podrez-5457692.mp4	0.0	291.3341257572174	2.5083770751953125
82	228.34689092636108	fix_post	2		12.0	80.0	2.5	/experiments/knapen_aot/videos/S_pexels-artem-podrez-5457692.mp4	0.0	293.8425028324127	0.10009908676147461
83	228.44699001312256	fix_pre	0		12.0	81.0	2.5	/experiments/knapen_aot/videos/R_S_yt-fk-z6WCvjjA_3.mp4	0.0	293.9426019191742	0.09980893135070801
83	228.53867483139038	response	0	2		81.0	2.5	/experiments/knapen_aot/videos/R_S_yt-fk-z6WCvjjA_3.mp4	0.0	294.034286737442	
83	228.54679894447327	movie	1		301.0	81.0	2.5	/experiments/knapen_aot/videos/R_S_yt-fk-z6WCvjjA_3.mp4	0.0	294.0424108505249	2.508591890335083
83	231.05539083480835	fix_post	2		12.0	81.0	2.5	/experiments/knapen_aot/videos/R_S_yt-fk-z6WCvjjA_3.mp4	0.0	296.55100274086	0.0998079776763916
84	231.15519881248474	fix_pre	0		39.0	82.0	2.5	/experiments/knapen_aot/videos/R_S_yt-4qU-6TEW06E_38.mp4	0.0	296.6508107185364	0.32491612434387207
84	231.47199892997742	response	0	2		82.0	2.5	/experiments/knapen_aot/videos/R_S_yt-4qU-6TEW06E_38.mp4	0.0	296.96761083602905	
84	231.4801149368286	movie	1		301.0	82.0	2.5	/experiments/knapen_aot/videos/R_S_yt-4qU-6TEW06E_38.mp4	0.0	296.97572684288025	2.5087730884552
84	233.9888880252838	fix_post	2		12.0	82.0	2.5	/experiments/knapen_aot/videos/R_S_yt-4qU-6TEW06E_38.mp4	0.0	299.48449993133545	0.09971094131469727
85	234.0885989665985	fix_pre	0		10.0	83.0	2.5	blank	1.0	299.58421087265015	0.0831758975982666
85	234.16352701187134	response	0	2		83.0	2.5	blank	1.0	299.659138917923	
85	234.17177486419678	movie	1		301.0	83.0	2.5	blank	1.0	299.6673867702484	2.5083889961242676
85	236.68016386032104	fix_post	2		12.0	83.0	2.5	blank	1.0	302.1757757663727	0.09993815422058105
87	236.78010201454163	stim	0		1066.0					302.27571392059326	8.883854866027832
87	237.01362800598145	response	0	2						302.5092399120331	
87	237.43122601509094	response	0	2						302.9268379211426	
87	238.83861088752747	response	0	2						304.3342227935791	
87	239.21350002288818	response	0	2						304.7091119289398	
87	239.87192296981812	response	0	2						305.36753487586975	
87	242.67190384864807	response	0	2						308.1675157546997	
87	244.31355500221252	response	0	2						309.80916690826416	
87	244.46349501609802	response	0	2						309.95910692214966	
87	245.65920090675354	response	0	space						311.1548128128052	
