trial_nr	onset	event_type	phase	response	nr_frames	movie_index	movie_duration	movie_file	blank	onset_abs	duration
0	0.12492799758911133	stim	0		25.0					118.92539501190186	0.20844602584838867
0	0.32428407669067383	response	0	space						119.12475109100342	
1	0.3333740234375	stim	0		121.0					119.13384103775024	1.0074808597564697
1	1.091048002243042	response	0	space						119.89151501655579	
1	1.3408548831939697	stim	1		120.0					120.14132189750671	0.9996581077575684
1	1.649277925491333	response	1	space						120.44974493980408	
1	2.0822041034698486	response	1	space						120.88267111778259	
2	2.340512990951538	fix_pre	0		49.0	0.0	2.5	/experiments/knapen_aot/videos/S_yt-zpoIiHGRm5k_296.mp4	0.0	121.14098000526428	0.40923190116882324
2	2.7405788898468018	response	0	space		0.0	2.5	/experiments/knapen_aot/videos/S_yt-zpoIiHGRm5k_296.mp4	0.0	121.54104590415955	
2	2.7497448921203613	movie	1		301.0	0.0	2.5	/experiments/knapen_aot/videos/S_yt-zpoIiHGRm5k_296.mp4	0.0	121.5502119064331	2.507411003112793
2	5.257155895233154	fix_post	2		12.0	0.0	2.5	/experiments/knapen_aot/videos/S_yt-zpoIiHGRm5k_296.mp4	0.0	124.0576229095459	0.09994912147521973
3	5.357105016708374	fix_pre	0		63.0	1.0	2.5	/experiments/knapen_aot/videos/S_wc-7ugQ0V4lxYkJ_131.mp4	0.0	124.15757203102112	0.5250329971313477
3	5.877554893493652	response	0	2		1.0	2.5	/experiments/knapen_aot/videos/S_wc-7ugQ0V4lxYkJ_131.mp4	0.0	124.6780219078064	
3	5.882138013839722	movie	1		299.0	1.0	2.5	/experiments/knapen_aot/videos/S_wc-7ugQ0V4lxYkJ_131.mp4	0.0	124.68260502815247	2.508358955383301
3	8.390496969223022	fix_post	2		12.0	1.0	2.5	/experiments/knapen_aot/videos/S_wc-7ugQ0V4lxYkJ_131.mp4	0.0	127.19096398353577	0.09996914863586426
4	8.490466117858887	fix_pre	0		51.0	2.0	2.5	/experiments/knapen_aot/videos/S_yt-26009GpQuUg_3.mp4	0.0	127.29093313217163	0.4257838726043701
4	8.907175064086914	response	0	2		2.0	2.5	/experiments/knapen_aot/videos/S_yt-26009GpQuUg_3.mp4	0.0	127.70764207839966	
4	8.916249990463257	movie	1		299.0	2.0	2.5	/experiments/knapen_aot/videos/S_yt-26009GpQuUg_3.mp4	0.0	127.716717004776	2.5075440406799316
4	11.423794031143188	fix_post	2		12.0	2.0	2.5	/experiments/knapen_aot/videos/S_yt-26009GpQuUg_3.mp4	0.0	130.22426104545593	0.09990787506103516
5	11.523701906204224	fix_pre	0		25.0	3.0	2.5	/experiments/knapen_aot/videos/S_yt-kiEFK7bDssE_14.mp4	0.0	130.32416892051697	0.20835518836975098
5	11.723898887634277	response	0	2		3.0	2.5	/experiments/knapen_aot/videos/S_yt-kiEFK7bDssE_14.mp4	0.0	130.52436590194702	
5	11.732057094573975	movie	1		301.0	3.0	2.5	/experiments/knapen_aot/videos/S_yt-kiEFK7bDssE_14.mp4	0.0	130.53252410888672	2.508356809616089
5	14.240413904190063	fix_post	2		12.0	3.0	2.5	/experiments/knapen_aot/videos/S_yt-kiEFK7bDssE_14.mp4	0.0	133.0408809185028	0.10004115104675293
6	14.340455055236816	fix_pre	0		27.0	4.0	2.5	/experiments/knapen_aot/videos/S_comp_A351_C001_v06_SDR_PS_20180725_SDR_2K_AVC.mp4	0.0	133.14092206954956	0.22489190101623535
6	14.557200908660889	response	0	2		4.0	2.5	/experiments/knapen_aot/videos/S_comp_A351_C001_v06_SDR_PS_20180725_SDR_2K_AVC.mp4	0.0	133.35766792297363	
6	14.565346956253052	movie	1		162.0	4.0	2.5	/experiments/knapen_aot/videos/S_comp_A351_C001_v06_SDR_PS_20180725_SDR_2K_AVC.mp4	0.0	133.3658139705658	2.5084381103515625
6	17.073785066604614	fix_post	2		12.0	4.0	2.5	/experiments/knapen_aot/videos/S_comp_A351_C001_v06_SDR_PS_20180725_SDR_2K_AVC.mp4	0.0	135.87425208091736	0.10001897811889648
7	17.17380404472351	fix_pre	0		30.0	5.0	2.5	/experiments/knapen_aot/videos/R_S_ILSVRC2015_train_00471000.mp4	0.0	135.97427105903625	0.2499690055847168
7	17.415591955184937	response	0	2		5.0	2.5	/experiments/knapen_aot/videos/R_S_ILSVRC2015_train_00471000.mp4	0.0	136.21605896949768	
7	17.423773050308228	movie	1		301.0	5.0	2.5	/experiments/knapen_aot/videos/R_S_ILSVRC2015_train_00471000.mp4	0.0	136.22424006462097	2.5083420276641846
7	19.932115077972412	fix_post	2		12.0	5.0	2.5	/experiments/knapen_aot/videos/R_S_ILSVRC2015_train_00471000.mp4	0.0	138.73258209228516	0.10000491142272949
8	20.03211998939514	fix_pre	0		34.0	6.0	2.5	blank	1.0	138.83258700370789	0.28331995010375977
8	20.3072669506073	response	0	2		6.0	2.5	blank	1.0	139.10773396492004	
8	20.3154399394989	movie	1		301.0	6.0	2.5	blank	1.0	139.11590695381165	2.508315086364746
8	22.823755025863647	fix_post	2		12.0	6.0	2.5	blank	1.0	141.6242220401764	0.09999704360961914
9	22.923752069473267	fix_pre	0		29.0	7.0	2.5	/experiments/knapen_aot/videos/R_S_yt-Bx2kLEUuN0E_456.mp4	0.0	141.724219083786	0.2423698902130127
9	23.14965796470642	response	0	2		7.0	2.5	/experiments/knapen_aot/videos/R_S_yt-Bx2kLEUuN0E_456.mp4	0.0	141.95012497901917	
9	23.16612195968628	movie	1		301.0	7.0	2.5	/experiments/knapen_aot/videos/R_S_yt-Bx2kLEUuN0E_456.mp4	0.0	141.96658897399902	2.507655143737793
9	25.673777103424072	fix_post	2		12.0	7.0	2.5	/experiments/knapen_aot/videos/R_S_yt-Bx2kLEUuN0E_456.mp4	0.0	144.47424411773682	0.09998083114624023
10	25.773757934570312	fix_pre	0		18.0	8.0	2.5	/experiments/knapen_aot/videos/S_ILSVRC2015_train_00001009.mp4	0.0	144.57422494888306	0.14998412132263184
10	25.915570974349976	response	0	2		8.0	2.5	/experiments/knapen_aot/videos/S_ILSVRC2015_train_00001009.mp4	0.0	144.71603798866272	
10	25.923742055892944	movie	1		301.0	8.0	2.5	/experiments/knapen_aot/videos/S_ILSVRC2015_train_00001009.mp4	0.0	144.7242090702057	2.5084149837493896
10	28.432157039642334	fix_post	2		12.0	8.0	2.5	/experiments/knapen_aot/videos/S_ILSVRC2015_train_00001009.mp4	0.0	147.23262405395508	0.09990906715393066
11	28.532066106796265	fix_pre	0		23.0	9.0	2.5	/experiments/knapen_aot/videos/S_yt-fA0nOetbOJY_580.mp4	0.0	147.332533121109	0.19164180755615234
11	28.715545892715454	response	0	2		9.0	2.5	/experiments/knapen_aot/videos/S_yt-fA0nOetbOJY_580.mp4	0.0	147.5160129070282	
11	28.723707914352417	movie	1		298.0	9.0	2.5	/experiments/knapen_aot/videos/S_yt-fA0nOetbOJY_580.mp4	0.0	147.52417492866516	2.508362054824829
11	31.232069969177246	fix_post	2		12.0	9.0	2.5	/experiments/knapen_aot/videos/S_yt-fA0nOetbOJY_580.mp4	0.0	150.03253698349	0.09994292259216309
12	31.33201289176941	fix_pre	0		22.0	10.0	2.5	/experiments/knapen_aot/videos/R_S_yt-8N5UuN5WQcY_72.mp4	0.0	150.13247990608215	0.1833510398864746
12	31.50714898109436	response	0	2		10.0	2.5	/experiments/knapen_aot/videos/R_S_yt-8N5UuN5WQcY_72.mp4	0.0	150.3076159954071	
12	31.515363931655884	movie	1		301.0	10.0	2.5	/experiments/knapen_aot/videos/R_S_yt-8N5UuN5WQcY_72.mp4	0.0	150.31583094596863	2.508327007293701
12	34.023690938949585	fix_post	2		12.0	10.0	2.5	/experiments/knapen_aot/videos/R_S_yt-8N5UuN5WQcY_72.mp4	0.0	152.82415795326233	0.10002994537353516
13	34.12372088432312	fix_pre	0		20.0	11.0	2.5	/experiments/knapen_aot/videos/S_8J_zE6r82MY_71.mp4	0.0	152.92418789863586	0.16729021072387695
13	34.28219389915466	response	0	2		11.0	2.5	/experiments/knapen_aot/videos/S_8J_zE6r82MY_71.mp4	0.0	153.0826609134674	
13	34.291011095047	movie	1		301.0	11.0	2.5	/experiments/knapen_aot/videos/S_8J_zE6r82MY_71.mp4	0.0	153.09147810935974	2.507689952850342
13	36.79870104789734	fix_post	2		12.0	11.0	2.5	/experiments/knapen_aot/videos/S_8J_zE6r82MY_71.mp4	0.0	155.59916806221008	0.09999990463256836
14	36.89870095252991	fix_pre	0		28.0	12.0	2.5	/experiments/knapen_aot/videos/R_S_yt-26009GpQuUg_3.mp4	0.0	155.69916796684265	0.23330211639404297
14	37.12386703491211	response	0	2		12.0	2.5	/experiments/knapen_aot/videos/R_S_yt-26009GpQuUg_3.mp4	0.0	155.92433404922485	
14	37.13200306892395	movie	1		301.0	12.0	2.5	/experiments/knapen_aot/videos/R_S_yt-26009GpQuUg_3.mp4	0.0	155.9324700832367	2.5083649158477783
14	39.64036798477173	fix_post	2		12.0	12.0	2.5	/experiments/knapen_aot/videos/R_S_yt-26009GpQuUg_3.mp4	0.0	158.44083499908447	0.09996891021728516
15	39.740336894989014	fix_pre	0		19.0	13.0	2.5	blank	1.0	158.54080390930176	0.15839409828186035
15	39.89044404029846	response	0	2		13.0	2.5	blank	1.0	158.6909110546112	
15	39.898730993270874	movie	1		301.0	13.0	2.5	blank	1.0	158.69919800758362	2.5082859992980957
15	42.40701699256897	fix_post	2		12.0	13.0	2.5	blank	1.0	161.2074840068817	0.0999600887298584
16	42.50697708129883	fix_pre	0		27.0	14.0	2.5	/experiments/knapen_aot/videos/R_S_r4Npnob1vds_12.mp4	0.0	161.30744409561157	0.22502589225769043
16	42.723867893218994	response	0	2		14.0	2.5	/experiments/knapen_aot/videos/R_S_r4Npnob1vds_12.mp4	0.0	161.52433490753174	
16	42.73200297355652	movie	1		301.0	14.0	2.5	/experiments/knapen_aot/videos/R_S_r4Npnob1vds_12.mp4	0.0	161.53246998786926	2.5083389282226562
16	45.240341901779175	fix_post	2		12.0	14.0	2.5	/experiments/knapen_aot/videos/R_S_r4Npnob1vds_12.mp4	0.0	164.04080891609192	0.10015320777893066
17	45.340495109558105	fix_pre	0		32.0	15.0	2.5	/experiments/knapen_aot/videos/S_ILSVRC2015_train_00001009.mp4	0.0	164.14096212387085	0.266495943069458
17	45.59876894950867	response	0	2		15.0	2.5	/experiments/knapen_aot/videos/S_ILSVRC2015_train_00001009.mp4	0.0	164.3992359638214	
17	45.60699105262756	movie	1		301.0	15.0	2.5	/experiments/knapen_aot/videos/S_ILSVRC2015_train_00001009.mp4	0.0	164.4074580669403	2.5083508491516113
17	48.115341901779175	fix_post	2		12.0	15.0	2.5	/experiments/knapen_aot/videos/S_ILSVRC2015_train_00001009.mp4	0.0	166.91580891609192	0.09997701644897461
18	48.21531891822815	fix_pre	0		21.0	16.0	2.5	/experiments/knapen_aot/videos/R_S_yt-l_pvPAznG1A_20.mp4	0.0	167.0157859325409	0.17496609687805176
18	48.382153034210205	response	0	2		16.0	2.5	/experiments/knapen_aot/videos/R_S_yt-l_pvPAznG1A_20.mp4	0.0	167.18262004852295	
18	48.3902850151062	movie	1		300.0	16.0	2.5	/experiments/knapen_aot/videos/R_S_yt-l_pvPAznG1A_20.mp4	0.0	167.19075202941895	2.5083019733428955
18	50.8985869884491	fix_post	2		12.0	16.0	2.5	/experiments/knapen_aot/videos/R_S_yt-l_pvPAznG1A_20.mp4	0.0	169.69905400276184	0.10000801086425781
19	50.998594999313354	fix_pre	0		33.0	17.0	2.5	/experiments/knapen_aot/videos/S_yt-7W50lcw5FCo_37.mp4	0.0	169.7990620136261	0.2751150131225586
19	51.26543092727661	response	0	2		17.0	2.5	/experiments/knapen_aot/videos/S_yt-7W50lcw5FCo_37.mp4	0.0	170.06589794158936	
19	51.27371001243591	movie	1		301.0	17.0	2.5	/experiments/knapen_aot/videos/S_yt-7W50lcw5FCo_37.mp4	0.0	170.07417702674866	2.5083389282226562
19	53.78204894065857	fix_post	2		12.0	17.0	2.5	/experiments/knapen_aot/videos/S_yt-7W50lcw5FCo_37.mp4	0.0	172.5825159549713	0.09987807273864746
20	53.88192701339722	fix_pre	0		24.0	18.0	2.5	/experiments/knapen_aot/videos/S_yt-ujdFTAUE8rc_34.mp4	0.0	172.68239402770996	0.20050287246704102
20	54.07372307777405	response	0	2		18.0	2.5	/experiments/knapen_aot/videos/S_yt-ujdFTAUE8rc_34.mp4	0.0	172.8741900920868	
20	54.08242988586426	movie	1		301.0	18.0	2.5	/experiments/knapen_aot/videos/S_yt-ujdFTAUE8rc_34.mp4	0.0	172.882896900177	2.5077152252197266
20	56.590145111083984	fix_post	2		12.0	18.0	2.5	/experiments/knapen_aot/videos/S_yt-ujdFTAUE8rc_34.mp4	0.0	175.39061212539673	0.10010194778442383
21	56.69024705886841	fix_pre	0		15.0	19.0	2.5	/experiments/knapen_aot/videos/R_S_yt-t23g0U_hAgg_32.mp4	0.0	175.49071407318115	0.12497782707214355
21	56.807066917419434	response	0	2		19.0	2.5	/experiments/knapen_aot/videos/R_S_yt-t23g0U_hAgg_32.mp4	0.0	175.60753393173218	
21	56.81522488594055	movie	1		301.0	19.0	2.5	/experiments/knapen_aot/videos/R_S_yt-t23g0U_hAgg_32.mp4	0.0	175.6156919002533	2.5083401203155518
21	59.3235650062561	fix_post	2		12.0	19.0	2.5	/experiments/knapen_aot/videos/R_S_yt-t23g0U_hAgg_32.mp4	0.0	178.12403202056885	0.10002398490905762
22	59.42358899116516	fix_pre	0		28.0	20.0	2.5	/experiments/knapen_aot/videos/S_yt-8N5UuN5WQcY_72.mp4	0.0	178.2240560054779	0.23334503173828125
22	59.648646116256714	response	0	2		20.0	2.5	/experiments/knapen_aot/videos/S_yt-8N5UuN5WQcY_72.mp4	0.0	178.44911313056946	
22	59.65693402290344	movie	1		301.0	20.0	2.5	/experiments/knapen_aot/videos/S_yt-8N5UuN5WQcY_72.mp4	0.0	178.4574010372162	2.5082719326019287
22	62.16520595550537	fix_post	2		12.0	20.0	2.5	/experiments/knapen_aot/videos/S_yt-8N5UuN5WQcY_72.mp4	0.0	180.96567296981812	0.09991312026977539
23	62.26511907577515	fix_pre	0		26.0	21.0	2.5	blank	1.0	181.0655860900879	0.21673989295959473
23	62.47364902496338	response	0	2		21.0	2.5	blank	1.0	181.27411603927612	
23	62.48185896873474	movie	1		301.0	21.0	2.5	blank	1.0	181.28232598304749	2.508376121520996
23	64.99023509025574	fix_post	2		12.0	21.0	2.5	blank	1.0	183.79070210456848	0.10002493858337402
24	65.09026002883911	fix_pre	0		36.0	22.0	2.5	/experiments/knapen_aot/videos/R_S_production_ID_4122384.mp4	0.0	183.89072704315186	0.29999494552612305
24	65.3820059299469	response	0	2		22.0	2.5	/experiments/knapen_aot/videos/R_S_production_ID_4122384.mp4	0.0	184.18247294425964	
24	65.39025497436523	movie	1		163.0	22.0	2.5	/experiments/knapen_aot/videos/R_S_production_ID_4122384.mp4	0.0	184.19072198867798	2.5082719326019287
24	67.89852690696716	fix_post	2		12.0	22.0	2.5	/experiments/knapen_aot/videos/R_S_production_ID_4122384.mp4	0.0	186.6989939212799	0.10050010681152344
25	67.99902701377869	fix_pre	0		45.0	23.0	2.5	/experiments/knapen_aot/videos/R_S_production_ID_4510622.mp4	0.0	186.79949402809143	0.37497997283935547
25	68.36526703834534	response	0	2		23.0	2.5	/experiments/knapen_aot/videos/R_S_production_ID_4510622.mp4	0.0	187.16573405265808	
25	68.37400698661804	movie	1		166.0	23.0	2.5	/experiments/knapen_aot/videos/R_S_production_ID_4510622.mp4	0.0	187.1744740009308	2.5078859329223633
25	70.8818929195404	fix_post	2		12.0	23.0	2.5	/experiments/knapen_aot/videos/R_S_production_ID_4510622.mp4	0.0	189.68235993385315	0.10000014305114746
26	70.98189306259155	fix_pre	0		20.0	24.0	2.5	/experiments/knapen_aot/videos/S_ILSVRC2015_train_00559000.mp4	0.0	189.7823600769043	0.1666698455810547
26	71.14034390449524	response	0	2		24.0	2.5	/experiments/knapen_aot/videos/S_ILSVRC2015_train_00559000.mp4	0.0	189.94081091880798	
26	71.14856290817261	movie	1		301.0	24.0	2.5	/experiments/knapen_aot/videos/S_ILSVRC2015_train_00559000.mp4	0.0	189.94902992248535	2.5083110332489014
26	73.65687394142151	fix_post	2		12.0	24.0	2.5	/experiments/knapen_aot/videos/S_ILSVRC2015_train_00559000.mp4	0.0	192.45734095573425	0.10001015663146973
27	73.75688409805298	fix_pre	0		32.0	25.0	2.5	/experiments/knapen_aot/videos/S_yt-Mjm5smrurQI_125.mp4	0.0	192.55735111236572	0.2666959762573242
27	74.01539301872253	response	0	2		25.0	2.5	/experiments/knapen_aot/videos/S_yt-Mjm5smrurQI_125.mp4	0.0	192.81586003303528	
27	74.0235800743103	movie	1		301.0	25.0	2.5	/experiments/knapen_aot/videos/S_yt-Mjm5smrurQI_125.mp4	0.0	192.82404708862305	2.508302927017212
27	76.53188300132751	fix_post	2		12.0	25.0	2.5	/experiments/knapen_aot/videos/S_yt-Mjm5smrurQI_125.mp4	0.0	195.33235001564026	0.09995889663696289
28	76.63184189796448	fix_pre	0		28.0	26.0	2.5	blank	1.0	195.43230891227722	0.23330116271972656
28	76.84946489334106	response	0	2		26.0	2.5	blank	1.0	195.6499319076538	
28	76.8651430606842	movie	1		301.0	26.0	2.5	blank	1.0	195.66561007499695	2.5084009170532227
28	79.37354397773743	fix_post	2		12.0	26.0	2.5	blank	1.0	198.17401099205017	0.09998393058776855
29	79.4735279083252	fix_pre	0		34.0	27.0	2.5	/experiments/knapen_aot/videos/S_yt-t23g0U_hAgg_32.mp4	0.0	198.27399492263794	0.28331518173217773
29	79.7486560344696	response	0	2		27.0	2.5	/experiments/knapen_aot/videos/S_yt-t23g0U_hAgg_32.mp4	0.0	198.54912304878235	
29	79.75684309005737	movie	1		301.0	27.0	2.5	/experiments/knapen_aot/videos/S_yt-t23g0U_hAgg_32.mp4	0.0	198.55731010437012	2.508316993713379
29	82.26516008377075	fix_post	2		12.0	27.0	2.5	/experiments/knapen_aot/videos/S_yt-t23g0U_hAgg_32.mp4	0.0	201.0656270980835	0.10003781318664551
30	82.3651978969574	fix_pre	0		75.0	28.0	2.5	/experiments/knapen_aot/videos/R_S_yt-6UFUeTKci2o_164.mp4	0.0	201.16566491127014	0.6249442100524902
30	82.97442698478699	response	0	2		28.0	2.5	/experiments/knapen_aot/videos/R_S_yt-6UFUeTKci2o_164.mp4	0.0	201.77489399909973	
30	82.99014210700989	movie	1		301.0	28.0	2.5	/experiments/knapen_aot/videos/R_S_yt-6UFUeTKci2o_164.mp4	0.0	201.79060912132263	2.5083489418029785
30	85.49849104881287	fix_post	2		12.0	28.0	2.5	/experiments/knapen_aot/videos/R_S_yt-6UFUeTKci2o_164.mp4	0.0	204.2989580631256	0.09995293617248535
31	85.59844398498535	fix_pre	0		24.0	29.0	2.5	/experiments/knapen_aot/videos/S_pexels-kelly-lacy-6756531.mp4	0.0	204.3989109992981	0.20000410079956055
31	85.7827820777893	response	0	2		29.0	2.5	/experiments/knapen_aot/videos/S_pexels-kelly-lacy-6756531.mp4	0.0	204.58324909210205	
31	85.79844808578491	movie	1		169.0	29.0	2.5	/experiments/knapen_aot/videos/S_pexels-kelly-lacy-6756531.mp4	0.0	204.59891510009766	2.508401870727539
31	88.30684995651245	fix_post	2		12.0	29.0	2.5	/experiments/knapen_aot/videos/S_pexels-kelly-lacy-6756531.mp4	0.0	207.1073169708252	0.09993410110473633
32	88.40678405761719	fix_pre	0		38.0	30.0	2.5	/experiments/knapen_aot/videos/R_S_yt-_68FWLGgPYE_25.mp4	0.0	207.20725107192993	0.31667089462280273
32	88.71526193618774	response	0	2		30.0	2.5	/experiments/knapen_aot/videos/R_S_yt-_68FWLGgPYE_25.mp4	0.0	207.5157289505005	
32	88.72345495223999	movie	1		301.0	30.0	2.5	/experiments/knapen_aot/videos/R_S_yt-_68FWLGgPYE_25.mp4	0.0	207.52392196655273	2.5083861351013184
32	91.23184108734131	fix_post	2		12.0	30.0	2.5	/experiments/knapen_aot/videos/R_S_yt-_68FWLGgPYE_25.mp4	0.0	210.03230810165405	0.10032391548156738
33	91.33216500282288	fix_pre	0		50.0	31.0	2.5	/experiments/knapen_aot/videos/S_production_ID_4510622.mp4	0.0	210.13263201713562	0.41663694381713867
33	91.74020004272461	response	0	2		31.0	2.5	/experiments/knapen_aot/videos/S_production_ID_4510622.mp4	0.0	210.54066705703735	
33	91.74880194664001	movie	1		167.0	31.0	2.5	/experiments/knapen_aot/videos/S_production_ID_4510622.mp4	0.0	210.54926896095276	2.5079751014709473
33	94.25677704811096	fix_post	2		12.0	31.0	2.5	/experiments/knapen_aot/videos/S_production_ID_4510622.mp4	0.0	213.0572440624237	0.09999895095825195
34	94.35677599906921	fix_pre	0		32.0	32.0	2.5	/experiments/knapen_aot/videos/R_S_yt-ujTY1igjc3E_2.mp4	0.0	213.15724301338196	0.26697301864624023
34	94.6151819229126	response	0	2		32.0	2.5	/experiments/knapen_aot/videos/R_S_yt-ujTY1igjc3E_2.mp4	0.0	213.41564893722534	
34	94.62374901771545	movie	1		301.0	32.0	2.5	/experiments/knapen_aot/videos/R_S_yt-ujTY1igjc3E_2.mp4	0.0	213.4242160320282	2.5080039501190186
34	97.13175296783447	fix_post	2		12.0	32.0	2.5	/experiments/knapen_aot/videos/R_S_yt-ujTY1igjc3E_2.mp4	0.0	215.93221998214722	0.09997200965881348
35	97.23172497749329	fix_pre	0		53.0	33.0	2.5	blank	1.0	216.03219199180603	0.4416360855102539
35	97.66523909568787	response	0	2		33.0	2.5	blank	1.0	216.4657061100006	
35	97.67336106300354	movie	1		301.0	33.0	2.5	blank	1.0	216.47382807731628	2.508327007293701
35	100.18168807029724	fix_post	2		12.0	33.0	2.5	blank	1.0	218.98215508460999	0.10177183151245117
36	100.28345990180969	fix_pre	0		36.0	34.0	2.5	/experiments/knapen_aot/videos/R_S_yt-vacON8rxZaI_168.mp4	0.0	219.08392691612244	0.2985811233520508
36	100.5735731124878	response	0	2		34.0	2.5	/experiments/knapen_aot/videos/R_S_yt-vacON8rxZaI_168.mp4	0.0	219.37404012680054	
36	100.58204102516174	movie	1		301.0	34.0	2.5	/experiments/knapen_aot/videos/R_S_yt-vacON8rxZaI_168.mp4	0.0	219.3825080394745	2.508051872253418
36	103.09009289741516	fix_post	2		12.0	34.0	2.5	/experiments/knapen_aot/videos/R_S_yt-vacON8rxZaI_168.mp4	0.0	221.8905599117279	0.09999418258666992
37	103.19008708000183	fix_pre	0		28.0	35.0	2.5	/experiments/knapen_aot/videos/S_yt-0d5TkclKWVA_146.mp4	0.0	221.99055409431458	0.23331284523010254
37	103.40764498710632	response	0	2		35.0	2.5	/experiments/knapen_aot/videos/S_yt-0d5TkclKWVA_146.mp4	0.0	222.20811200141907	
37	103.42339992523193	movie	1		301.0	35.0	2.5	/experiments/knapen_aot/videos/S_yt-0d5TkclKWVA_146.mp4	0.0	222.22386693954468	2.508263111114502
37	105.93166303634644	fix_post	2		12.0	35.0	2.5	/experiments/knapen_aot/videos/S_yt-0d5TkclKWVA_146.mp4	0.0	224.73213005065918	0.09994196891784668
38	106.03160500526428	fix_pre	0		29.0	36.0	2.5	/experiments/knapen_aot/videos/S_Pexels_Videos_2791797.mp4	0.0	224.83207201957703	0.24173402786254883
38	106.26529908180237	response	0	2		36.0	2.5	/experiments/knapen_aot/videos/S_Pexels_Videos_2791797.mp4	0.0	225.0657660961151	
38	106.27333903312683	movie	1		165.0	36.0	2.5	/experiments/knapen_aot/videos/S_Pexels_Videos_2791797.mp4	0.0	225.07380604743958	2.508297920227051
38	108.78163695335388	fix_post	2		12.0	36.0	2.5	/experiments/knapen_aot/videos/S_Pexels_Videos_2791797.mp4	0.0	227.58210396766663	0.10000300407409668
39	108.88163995742798	fix_pre	0		26.0	37.0	2.5	/experiments/knapen_aot/videos/R_S_ILSVRC2015_train_00638000.mp4	0.0	227.68210697174072	0.21672511100769043
39	109.0902259349823	response	0	2		37.0	2.5	/experiments/knapen_aot/videos/R_S_ILSVRC2015_train_00638000.mp4	0.0	227.89069294929504	
39	109.09836506843567	movie	1		301.0	37.0	2.5	/experiments/knapen_aot/videos/R_S_ILSVRC2015_train_00638000.mp4	0.0	227.8988320827484	2.5083160400390625
39	111.60668110847473	fix_post	2		12.0	37.0	2.5	/experiments/knapen_aot/videos/R_S_ILSVRC2015_train_00638000.mp4	0.0	230.40714812278748	0.10026097297668457
40	111.70694208145142	fix_pre	0		14.0	38.0	2.5	/experiments/knapen_aot/videos/S_Pz_NXxhQCJc_70.mp4	0.0	230.50740909576416	0.11636996269226074
40	111.81512999534607	response	0	2		38.0	2.5	/experiments/knapen_aot/videos/S_Pz_NXxhQCJc_70.mp4	0.0	230.6155970096588	
40	111.82331204414368	movie	1		301.0	38.0	2.5	/experiments/knapen_aot/videos/S_Pz_NXxhQCJc_70.mp4	0.0	230.62377905845642	2.5083730220794678
40	114.33168506622314	fix_post	2		12.0	38.0	2.5	/experiments/knapen_aot/videos/S_Pz_NXxhQCJc_70.mp4	0.0	233.1321520805359	0.09998083114624023
41	114.43166589736938	fix_pre	0		32.0	39.0	2.5	/experiments/knapen_aot/videos/S_production_ID_4510622.mp4	0.0	233.23213291168213	0.26665711402893066
41	114.69015192985535	response	0	2		39.0	2.5	/experiments/knapen_aot/videos/S_production_ID_4510622.mp4	0.0	233.4906189441681	
41	114.69832301139832	movie	1		170.0	39.0	2.5	/experiments/knapen_aot/videos/S_production_ID_4510622.mp4	0.0	233.49879002571106	2.5084218978881836
41	117.2067449092865	fix_post	2		12.0	39.0	2.5	/experiments/knapen_aot/videos/S_production_ID_4510622.mp4	0.0	236.00721192359924	0.09992814064025879
42	117.30667304992676	fix_pre	0		19.0	40.0	2.5	/experiments/knapen_aot/videos/S_yt-7W50lcw5FCo_37.mp4	0.0	236.1071400642395	0.15826702117919922
42	117.45681595802307	response	0	2		40.0	2.5	/experiments/knapen_aot/videos/S_yt-7W50lcw5FCo_37.mp4	0.0	236.25728297233582	
42	117.46494007110596	movie	1		301.0	40.0	2.5	/experiments/knapen_aot/videos/S_yt-7W50lcw5FCo_37.mp4	0.0	236.2654070854187	2.5083229541778564
42	119.97326302528381	fix_post	2		12.0	40.0	2.5	/experiments/knapen_aot/videos/S_yt-7W50lcw5FCo_37.mp4	0.0	238.77373003959656	0.10005402565002441
43	120.07331705093384	fix_pre	0		28.0	41.0	2.5	blank	1.0	238.87378406524658	0.23329901695251465
43	120.29843497276306	response	0	2		41.0	2.5	blank	1.0	239.0989019870758	
43	120.30661606788635	movie	1		301.0	41.0	2.5	blank	1.0	239.1070830821991	2.5083069801330566
43	122.81492304801941	fix_post	2		12.0	41.0	2.5	blank	1.0	241.61539006233215	0.10030484199523926
44	122.91522789001465	fix_pre	0		48.0	42.0	2.5	/experiments/knapen_aot/videos/S_yt-i1h9ZiYZ86U_28.mp4	0.0	241.7156949043274	0.399738073348999
44	123.30670094490051	response	0	2		42.0	2.5	/experiments/knapen_aot/videos/S_yt-i1h9ZiYZ86U_28.mp4	0.0	242.10716795921326	
44	123.31496596336365	movie	1		301.0	42.0	2.5	/experiments/knapen_aot/videos/S_yt-i1h9ZiYZ86U_28.mp4	0.0	242.1154329776764	2.5083420276641846
44	125.82330799102783	fix_post	2		12.0	42.0	2.5	/experiments/knapen_aot/videos/S_yt-i1h9ZiYZ86U_28.mp4	0.0	244.62377500534058	0.10001993179321289
45	125.92332792282104	fix_pre	0		34.0	43.0	2.5	/experiments/knapen_aot/videos/S_yt-mL3MuCfKtdY_79.mp4	0.0	244.7237949371338	0.2834501266479492
45	126.19831490516663	response	0	2		43.0	2.5	/experiments/knapen_aot/videos/S_yt-mL3MuCfKtdY_79.mp4	0.0	244.99878191947937	
45	126.206778049469	movie	1		301.0	43.0	2.5	/experiments/knapen_aot/videos/S_yt-mL3MuCfKtdY_79.mp4	0.0	245.00724506378174	2.5082058906555176
45	128.7149839401245	fix_post	2		12.0	43.0	2.5	/experiments/knapen_aot/videos/S_yt-mL3MuCfKtdY_79.mp4	0.0	247.51545095443726	0.10004901885986328
46	128.81503295898438	fix_pre	0		36.0	44.0	2.5	/experiments/knapen_aot/videos/R_S_yt-GWlwb2QsxIA_48.mp4	0.0	247.61549997329712	0.2999141216278076
46	129.10672307014465	response	0	2		44.0	2.5	/experiments/knapen_aot/videos/R_S_yt-GWlwb2QsxIA_48.mp4	0.0	247.9071900844574	
46	129.11494708061218	movie	1		300.0	44.0	2.5	/experiments/knapen_aot/videos/R_S_yt-GWlwb2QsxIA_48.mp4	0.0	247.91541409492493	2.5085208415985107
46	131.6234679222107	fix_post	2		12.0	44.0	2.5	/experiments/knapen_aot/videos/R_S_yt-GWlwb2QsxIA_48.mp4	0.0	250.42393493652344	0.09982514381408691
47	131.72329306602478	fix_pre	0		30.0	45.0	2.5	/experiments/knapen_aot/videos/R_S_yt-SS7pSyb0_d0_32.mp4	0.0	250.52376008033752	0.24995803833007812
47	131.9651210308075	response	0	2		45.0	2.5	/experiments/knapen_aot/videos/R_S_yt-SS7pSyb0_d0_32.mp4	0.0	250.76558804512024	
47	131.97325110435486	movie	1		301.0	45.0	2.5	/experiments/knapen_aot/videos/R_S_yt-SS7pSyb0_d0_32.mp4	0.0	250.7737181186676	2.5083389282226562
47	134.48159003257751	fix_post	2		12.0	45.0	2.5	/experiments/knapen_aot/videos/R_S_yt-SS7pSyb0_d0_32.mp4	0.0	253.28205704689026	0.1001579761505127
48	134.58174800872803	fix_pre	0		10.0	46.0	2.5	/experiments/knapen_aot/videos/R_S_yt-mL3MuCfKtdY_79.mp4	0.0	253.38221502304077	0.08350992202758789
48	134.65723609924316	response	0	2		46.0	2.5	/experiments/knapen_aot/videos/R_S_yt-mL3MuCfKtdY_79.mp4	0.0	253.4577031135559	
48	134.66525793075562	movie	1		301.0	46.0	2.5	/experiments/knapen_aot/videos/R_S_yt-mL3MuCfKtdY_79.mp4	0.0	253.46572494506836	2.5078890323638916
48	137.1731469631195	fix_post	2		12.0	46.0	2.5	/experiments/knapen_aot/videos/R_S_yt-mL3MuCfKtdY_79.mp4	0.0	255.97361397743225	0.1001119613647461
49	137.27325892448425	fix_pre	0		36.0	47.0	2.5	blank	1.0	256.073725938797	0.29998111724853516
49	137.5650110244751	response	0	2		47.0	2.5	blank	1.0	256.36547803878784	
49	137.5732400417328	movie	1		301.0	47.0	2.5	blank	1.0	256.37370705604553	2.508384943008423
49	140.0816249847412	fix_post	2		12.0	47.0	2.5	blank	1.0	258.88209199905396	0.09992408752441406
50	140.18154907226562	fix_pre	0		26.0	48.0	2.5	/experiments/knapen_aot/videos/S_ILSVRC2015_train_00638000.mp4	0.0	258.98201608657837	0.21665692329406738
50	140.39001607894897	response	0	2		48.0	2.5	/experiments/knapen_aot/videos/S_ILSVRC2015_train_00638000.mp4	0.0	259.1904830932617	
50	140.3982059955597	movie	1		301.0	48.0	2.5	/experiments/knapen_aot/videos/S_ILSVRC2015_train_00638000.mp4	0.0	259.19867300987244	2.508336067199707
50	142.9065420627594	fix_post	2		12.0	48.0	2.5	/experiments/knapen_aot/videos/S_ILSVRC2015_train_00638000.mp4	0.0	261.70700907707214	0.10014486312866211
51	143.00668692588806	fix_pre	0		26.0	49.0	2.5	/experiments/knapen_aot/videos/R_S_yt-PYP0fEQ357c_89.mp4	0.0	261.8071539402008	0.2165050506591797
51	143.21513605117798	response	0	2		49.0	2.5	/experiments/knapen_aot/videos/R_S_yt-PYP0fEQ357c_89.mp4	0.0	262.0156030654907	
51	143.22319197654724	movie	1		301.0	49.0	2.5	/experiments/knapen_aot/videos/R_S_yt-PYP0fEQ357c_89.mp4	0.0	262.02365899086	2.5083110332489014
51	145.73150300979614	fix_post	2		12.0	49.0	2.5	/experiments/knapen_aot/videos/R_S_yt-PYP0fEQ357c_89.mp4	0.0	264.5319700241089	0.10011506080627441
52	145.83161807060242	fix_pre	0		40.0	50.0	2.5	/experiments/knapen_aot/videos/S_yt-tOOaOzYvtKE_79.mp4	0.0	264.63208508491516	0.33327484130859375
52	146.14921188354492	response	0	2		50.0	2.5	/experiments/knapen_aot/videos/S_yt-tOOaOzYvtKE_79.mp4	0.0	264.94967889785767	
52	146.164892911911	movie	1		301.0	50.0	2.5	/experiments/knapen_aot/videos/S_yt-tOOaOzYvtKE_79.mp4	0.0	264.96535992622375	2.508244037628174
52	148.67313694953918	fix_post	2		12.0	50.0	2.5	/experiments/knapen_aot/videos/S_yt-tOOaOzYvtKE_79.mp4	0.0	267.47360396385193	0.10000300407409668
53	148.77313995361328	fix_pre	0		29.0	51.0	2.5	/experiments/knapen_aot/videos/R_S_yt-7W50lcw5FCo_37.mp4	0.0	267.573606967926	0.24171710014343262
53	149.00667691230774	response	0	2		51.0	2.5	/experiments/knapen_aot/videos/R_S_yt-7W50lcw5FCo_37.mp4	0.0	267.8071439266205	
53	149.0148570537567	movie	1		301.0	51.0	2.5	/experiments/knapen_aot/videos/R_S_yt-7W50lcw5FCo_37.mp4	0.0	267.81532406806946	2.5083680152893066
53	151.52322506904602	fix_post	2		12.0	51.0	2.5	/experiments/knapen_aot/videos/R_S_yt-7W50lcw5FCo_37.mp4	0.0	270.32369208335876	0.10005784034729004
54	151.6232829093933	fix_pre	0		44.0	52.0	2.5	/experiments/knapen_aot/videos/R_S_yt-a5TGHnldsKg_102.mp4	0.0	270.42374992370605	0.36661815643310547
54	151.9817500114441	response	0	2		52.0	2.5	/experiments/knapen_aot/videos/R_S_yt-a5TGHnldsKg_102.mp4	0.0	270.78221702575684	
54	151.98990106582642	movie	1		301.0	52.0	2.5	/experiments/knapen_aot/videos/R_S_yt-a5TGHnldsKg_102.mp4	0.0	270.79036808013916	2.5083119869232178
54	154.49821305274963	fix_post	2		12.0	52.0	2.5	/experiments/knapen_aot/videos/R_S_yt-a5TGHnldsKg_102.mp4	0.0	273.2986800670624	0.1000208854675293
55	154.59823393821716	fix_pre	0		92.0	53.0	2.5	/experiments/knapen_aot/videos/S_yt-ph1AkIToO4E_46.mp4	0.0	273.3987009525299	0.7666301727294922
55	155.3567020893097	response	0	2		53.0	2.5	/experiments/knapen_aot/videos/S_yt-ph1AkIToO4E_46.mp4	0.0	274.15716910362244	
55	155.36486411094666	movie	1		301.0	53.0	2.5	/experiments/knapen_aot/videos/S_yt-ph1AkIToO4E_46.mp4	0.0	274.1653311252594	2.508344888687134
55	157.8732089996338	fix_post	2		12.0	53.0	2.5	/experiments/knapen_aot/videos/S_yt-ph1AkIToO4E_46.mp4	0.0	276.67367601394653	0.10006499290466309
56	157.97327399253845	fix_pre	0		34.0	54.0	2.5	/experiments/knapen_aot/videos/S_yt-l_pvPAznG1A_20.mp4	0.0	276.7737410068512	0.2832300662994385
56	158.2483630180359	response	0	2		54.0	2.5	/experiments/knapen_aot/videos/S_yt-l_pvPAznG1A_20.mp4	0.0	277.04883003234863	
56	158.2565040588379	movie	1		301.0	54.0	2.5	/experiments/knapen_aot/videos/S_yt-l_pvPAznG1A_20.mp4	0.0	277.05697107315063	2.5083699226379395
56	160.76487398147583	fix_post	2		12.0	54.0	2.5	/experiments/knapen_aot/videos/S_yt-l_pvPAznG1A_20.mp4	0.0	279.5653409957886	0.10001897811889648
57	160.86489295959473	fix_pre	0		34.0	55.0	2.5	/experiments/knapen_aot/videos/R_S_yt-7W50lcw5FCo_37.mp4	0.0	279.66535997390747	0.2832789421081543
57	161.14003992080688	response	0	2		55.0	2.5	/experiments/knapen_aot/videos/R_S_yt-7W50lcw5FCo_37.mp4	0.0	279.94050693511963	
57	161.14817190170288	movie	1		301.0	55.0	2.5	/experiments/knapen_aot/videos/R_S_yt-7W50lcw5FCo_37.mp4	0.0	279.9486389160156	2.5083000659942627
57	163.65647196769714	fix_post	2		12.0	55.0	2.5	/experiments/knapen_aot/videos/R_S_yt-7W50lcw5FCo_37.mp4	0.0	282.4569389820099	0.10004401206970215
58	163.75651597976685	fix_pre	0		22.0	56.0	2.5	blank	1.0	282.5569829940796	0.18332195281982422
58	163.93159890174866	response	0	2		56.0	2.5	blank	1.0	282.7320659160614	
58	163.93983793258667	movie	1		300.0	56.0	2.5	blank	1.0	282.7403049468994	2.508350133895874
58	166.44818806648254	fix_post	2		12.0	56.0	2.5	blank	1.0	285.2486550807953	0.09997200965881348
59	166.54816007614136	fix_pre	0		31.0	57.0	2.5	/experiments/knapen_aot/videos/R_S_yt-GyMWMiWvuiA_237.mp4	0.0	285.3486270904541	0.2583019733428955
59	166.7982931137085	response	0	2		57.0	2.5	/experiments/knapen_aot/videos/R_S_yt-GyMWMiWvuiA_237.mp4	0.0	285.59876012802124	
59	166.80646204948425	movie	1		301.0	57.0	2.5	/experiments/knapen_aot/videos/R_S_yt-GyMWMiWvuiA_237.mp4	0.0	285.606929063797	2.5083529949188232
59	169.31481504440308	fix_post	2		12.0	57.0	2.5	/experiments/knapen_aot/videos/R_S_yt-GyMWMiWvuiA_237.mp4	0.0	288.1152820587158	0.10005593299865723
60	169.41487097740173	fix_pre	0		58.0	58.0	2.5	/experiments/knapen_aot/videos/S_yt-BQixB0mumIk_169.mp4	0.0	288.2153379917145	0.48319292068481445
60	169.8899290561676	response	0	2		58.0	2.5	/experiments/knapen_aot/videos/S_yt-BQixB0mumIk_169.mp4	0.0	288.69039607048035	
60	169.89806389808655	movie	1		301.0	58.0	2.5	/experiments/knapen_aot/videos/S_yt-BQixB0mumIk_169.mp4	0.0	288.6985309123993	2.5084030628204346
60	172.40646696090698	fix_post	2		12.0	58.0	2.5	/experiments/knapen_aot/videos/S_yt-BQixB0mumIk_169.mp4	0.0	291.2069339752197	0.10003995895385742
61	172.50650691986084	fix_pre	0		20.0	59.0	2.5	/experiments/knapen_aot/videos/R_S_wc-lItGMdwvEd_l_7.mp4	0.0	291.3069739341736	0.16655302047729492
61	172.66483402252197	response	0	2		59.0	2.5	/experiments/knapen_aot/videos/R_S_wc-lItGMdwvEd_l_7.mp4	0.0	291.4653010368347	
61	172.67305994033813	movie	1		164.0	59.0	2.5	/experiments/knapen_aot/videos/R_S_wc-lItGMdwvEd_l_7.mp4	0.0	291.4735269546509	2.5083401203155518
61	175.1814000606537	fix_post	2		12.0	59.0	2.5	/experiments/knapen_aot/videos/R_S_wc-lItGMdwvEd_l_7.mp4	0.0	293.98186707496643	0.1000070571899414
62	175.28140711784363	fix_pre	0		34.0	60.0	2.5	/experiments/knapen_aot/videos/S_pexels-mikhail-nilov-8410088.mp4	0.0	294.0818741321564	0.2833988666534424
62	175.55656695365906	response	0	2		60.0	2.5	/experiments/knapen_aot/videos/S_pexels-mikhail-nilov-8410088.mp4	0.0	294.3570339679718	
62	175.56480598449707	movie	1		164.0	60.0	2.5	/experiments/knapen_aot/videos/S_pexels-mikhail-nilov-8410088.mp4	0.0	294.3652729988098	2.508220911026001
62	178.07302689552307	fix_post	2		12.0	60.0	2.5	/experiments/knapen_aot/videos/S_pexels-mikhail-nilov-8410088.mp4	0.0	296.8734939098358	0.09995508193969727
63	178.17298197746277	fix_pre	0		57.0	61.0	2.5	/experiments/knapen_aot/videos/R_S_yt-W00vtWnXgIk_73.mp4	0.0	296.9734489917755	0.47499704360961914
63	178.63987708091736	response	0	2		61.0	2.5	/experiments/knapen_aot/videos/R_S_yt-W00vtWnXgIk_73.mp4	0.0	297.4403440952301	
63	178.6479790210724	movie	1		301.0	61.0	2.5	/experiments/knapen_aot/videos/R_S_yt-W00vtWnXgIk_73.mp4	0.0	297.44844603538513	2.508415937423706
63	181.1563949584961	fix_post	2		12.0	61.0	2.5	/experiments/knapen_aot/videos/R_S_yt-W00vtWnXgIk_73.mp4	0.0	299.95686197280884	0.09995412826538086
64	181.25634908676147	fix_pre	0		31.0	62.0	2.5	blank	1.0	300.0568161010742	0.25838589668273926
64	181.506520986557	response	0	2		62.0	2.5	blank	1.0	300.30698800086975	
64	181.5147349834442	movie	1		301.0	62.0	2.5	blank	1.0	300.31520199775696	2.508333921432495
64	184.0230689048767	fix_post	2		12.0	62.0	2.5	blank	1.0	302.82353591918945	0.1000051498413086
65	184.12307405471802	fix_pre	0		27.0	63.0	2.5	/experiments/knapen_aot/videos/S_yt-hRAqAwRhmwE_58.mp4	0.0	302.92354106903076	0.22493505477905273
65	184.33982801437378	response	0	2		63.0	2.5	/experiments/knapen_aot/videos/S_yt-hRAqAwRhmwE_58.mp4	0.0	303.1402950286865	
65	184.34800910949707	movie	1		301.0	63.0	2.5	/experiments/knapen_aot/videos/S_yt-hRAqAwRhmwE_58.mp4	0.0	303.1484761238098	2.50839900970459
65	186.85640811920166	fix_post	2		12.0	63.0	2.5	/experiments/knapen_aot/videos/S_yt-hRAqAwRhmwE_58.mp4	0.0	305.6568751335144	0.09997177124023438
66	186.9563798904419	fix_pre	0		22.0	64.0	2.5	/experiments/knapen_aot/videos/R_S_comp_GMT110_112NC_364D_1054_AURORA_ANTARTICA__COMP_FINAL_v34_PS_SDR_20181107_SDR_2K_AVC.mp4	0.0	305.75684690475464	0.1833810806274414
66	187.1314148902893	response	0	2		64.0	2.5	/experiments/knapen_aot/videos/R_S_comp_GMT110_112NC_364D_1054_AURORA_ANTARTICA__COMP_FINAL_v34_PS_SDR_20181107_SDR_2K_AVC.mp4	0.0	305.93188190460205	
66	187.13976097106934	movie	1		160.0	64.0	2.5	/experiments/knapen_aot/videos/R_S_comp_GMT110_112NC_364D_1054_AURORA_ANTARTICA__COMP_FINAL_v34_PS_SDR_20181107_SDR_2K_AVC.mp4	0.0	305.9402279853821	2.50832200050354
66	189.64808297157288	fix_post	2		12.0	64.0	2.5	/experiments/knapen_aot/videos/R_S_comp_GMT110_112NC_364D_1054_AURORA_ANTARTICA__COMP_FINAL_v34_PS_SDR_20181107_SDR_2K_AVC.mp4	0.0	308.4485499858856	0.10004210472106934
67	189.74812507629395	fix_pre	0		47.0	65.0	2.5	/experiments/knapen_aot/videos/R_S_yt-y2RUPYKfBZs_12.mp4	0.0	308.5485920906067	0.3915729522705078
67	190.13154697418213	response	0	2		65.0	2.5	/experiments/knapen_aot/videos/R_S_yt-y2RUPYKfBZs_12.mp4	0.0	308.9320139884949	
67	190.13969802856445	movie	1		301.0	65.0	2.5	/experiments/knapen_aot/videos/R_S_yt-y2RUPYKfBZs_12.mp4	0.0	308.9401650428772	2.5083630084991455
67	192.6480610370636	fix_post	2		12.0	65.0	2.5	/experiments/knapen_aot/videos/R_S_yt-y2RUPYKfBZs_12.mp4	0.0	311.44852805137634	0.10001397132873535
68	192.74807500839233	fix_pre	0		39.0	66.0	2.5	/experiments/knapen_aot/videos/R_S_yt-1sn8u-rQRas_7.mp4	0.0	311.5485420227051	0.3261549472808838
68	193.06485199928284	response	0	2		66.0	2.5	/experiments/knapen_aot/videos/R_S_yt-1sn8u-rQRas_7.mp4	0.0	311.8653190135956	
68	193.07422995567322	movie	1		301.0	66.0	2.5	/experiments/knapen_aot/videos/R_S_yt-1sn8u-rQRas_7.mp4	0.0	311.87469696998596	2.50712513923645
68	195.58135509490967	fix_post	2		12.0	66.0	2.5	/experiments/knapen_aot/videos/R_S_yt-1sn8u-rQRas_7.mp4	0.0	314.3818221092224	0.10002994537353516
69	195.6813850402832	fix_pre	0		34.0	67.0	2.5	/experiments/knapen_aot/videos/S_yt-I2n2eo2zoZs_94.mp4	0.0	314.48185205459595	0.2832908630371094
69	195.9565269947052	response	0	2		67.0	2.5	/experiments/knapen_aot/videos/S_yt-I2n2eo2zoZs_94.mp4	0.0	314.75699400901794	
69	195.9646759033203	movie	1		298.0	67.0	2.5	/experiments/knapen_aot/videos/S_yt-I2n2eo2zoZs_94.mp4	0.0	314.76514291763306	2.5083420276641846
69	198.4730179309845	fix_post	2		12.0	67.0	2.5	/experiments/knapen_aot/videos/S_yt-I2n2eo2zoZs_94.mp4	0.0	317.27348494529724	0.100006103515625
70	198.57302403450012	fix_pre	0		65.0	68.0	2.5	blank	1.0	317.37349104881287	0.5415620803833008
70	199.10648107528687	response	0	2		68.0	2.5	blank	1.0	317.9069480895996	
70	199.11458611488342	movie	1		301.0	68.0	2.5	blank	1.0	317.91505312919617	2.5084569454193115
70	201.62304306030273	fix_post	2		12.0	68.0	2.5	blank	1.0	320.4235100746155	0.09997296333312988
71	201.72301602363586	fix_pre	0		39.0	69.0	2.5	/experiments/knapen_aot/videos/S_yt-s-J3C6e5A3Q_18.mp4	0.0	320.5234830379486	0.3249678611755371
71	202.0397388935089	response	0	2		69.0	2.5	/experiments/knapen_aot/videos/S_yt-s-J3C6e5A3Q_18.mp4	0.0	320.84020590782166	
71	202.0479838848114	movie	1		301.0	69.0	2.5	/experiments/knapen_aot/videos/S_yt-s-J3C6e5A3Q_18.mp4	0.0	320.84845089912415	2.508327007293701
71	204.5563108921051	fix_post	2		12.0	69.0	2.5	/experiments/knapen_aot/videos/S_yt-s-J3C6e5A3Q_18.mp4	0.0	323.35677790641785	0.09996700286865234
72	204.65627789497375	fix_pre	0		32.0	70.0	2.5	/experiments/knapen_aot/videos/R_S_yt-TvU-aYjNa2c_21.mp4	0.0	323.4567449092865	0.2666471004486084
72	204.91480088233948	response	0	2		70.0	2.5	/experiments/knapen_aot/videos/R_S_yt-TvU-aYjNa2c_21.mp4	0.0	323.7152678966522	
72	204.92292499542236	movie	1		301.0	70.0	2.5	/experiments/knapen_aot/videos/R_S_yt-TvU-aYjNa2c_21.mp4	0.0	323.7233920097351	2.5084259510040283
72	207.4313509464264	fix_post	2		12.0	70.0	2.5	/experiments/knapen_aot/videos/R_S_yt-TvU-aYjNa2c_21.mp4	0.0	326.23181796073914	0.09987998008728027
73	207.53123092651367	fix_pre	0		50.0	71.0	2.5	/experiments/knapen_aot/videos/S_yt-ZBhTpmrAlUY_70.mp4	0.0	326.3316979408264	0.4178609848022461
73	207.93978595733643	response	0	2		71.0	2.5	/experiments/knapen_aot/videos/S_yt-ZBhTpmrAlUY_70.mp4	0.0	326.74025297164917	
73	207.94909191131592	movie	1		301.0	71.0	2.5	/experiments/knapen_aot/videos/S_yt-ZBhTpmrAlUY_70.mp4	0.0	326.74955892562866	2.5071752071380615
73	210.45626711845398	fix_post	2		12.0	71.0	2.5	/experiments/knapen_aot/videos/S_yt-ZBhTpmrAlUY_70.mp4	0.0	329.2567341327667	0.09999799728393555
74	210.55626511573792	fix_pre	0		23.0	72.0	2.5	/experiments/knapen_aot/videos/S_yt-vacON8rxZaI_168.mp4	0.0	329.35673213005066	0.19164776802062988
74	210.73976397514343	response	0	2		72.0	2.5	/experiments/knapen_aot/videos/S_yt-vacON8rxZaI_168.mp4	0.0	329.5402309894562	
74	210.74791288375854	movie	1		299.0	72.0	2.5	/experiments/knapen_aot/videos/S_yt-vacON8rxZaI_168.mp4	0.0	329.5483798980713	2.508385181427002
74	213.25629806518555	fix_post	2		12.0	72.0	2.5	/experiments/knapen_aot/videos/S_yt-vacON8rxZaI_168.mp4	0.0	332.0567650794983	0.09995198249816895
75	213.35625004768372	fix_pre	0		19.0	73.0	2.5	/experiments/knapen_aot/videos/S_yt-SHTeTAnZgho_43.mp4	0.0	332.15671706199646	0.1582489013671875
75	213.50636410713196	response	0	2		73.0	2.5	/experiments/knapen_aot/videos/S_yt-SHTeTAnZgho_43.mp4	0.0	332.3068311214447	
75	213.5144989490509	movie	1		301.0	73.0	2.5	/experiments/knapen_aot/videos/S_yt-SHTeTAnZgho_43.mp4	0.0	332.31496596336365	2.5083701610565186
75	216.02286911010742	fix_post	2		12.0	73.0	2.5	/experiments/knapen_aot/videos/S_yt-SHTeTAnZgho_43.mp4	0.0	334.82333612442017	0.10007286071777344
76	216.1229419708252	fix_pre	0		11.0	74.0	2.5	/experiments/knapen_aot/videos/R_S_yt-8N5UuN5WQcY_72.mp4	0.0	334.92340898513794	0.0916750431060791
76	216.20631909370422	response	0	2		74.0	2.5	/experiments/knapen_aot/videos/R_S_yt-8N5UuN5WQcY_72.mp4	0.0	335.00678610801697	
76	216.21461701393127	movie	1		301.0	74.0	2.5	/experiments/knapen_aot/videos/R_S_yt-8N5UuN5WQcY_72.mp4	0.0	335.015084028244	2.5083250999450684
76	218.72294211387634	fix_post	2		12.0	74.0	2.5	/experiments/knapen_aot/videos/R_S_yt-8N5UuN5WQcY_72.mp4	0.0	337.5234091281891	0.09989380836486816
77	218.8228359222412	fix_pre	0		20.0	75.0	2.5	blank	1.0	337.62330293655396	0.16669297218322754
77	218.97405791282654	response	0	2		75.0	2.5	blank	1.0	337.7745249271393	
77	218.98952889442444	movie	1		301.0	75.0	2.5	blank	1.0	337.7899959087372	2.50844407081604
77	221.49797296524048	fix_post	2		12.0	75.0	2.5	blank	1.0	340.2984399795532	0.10011911392211914
78	221.5980920791626	fix_pre	0		28.0	76.0	2.5	/experiments/knapen_aot/videos/S_ahJft-G235A_122.mp4	0.0	340.39855909347534	0.2330930233001709
78	221.82293105125427	response	0	2		76.0	2.5	/experiments/knapen_aot/videos/S_ahJft-G235A_122.mp4	0.0	340.623398065567	
78	221.83118510246277	movie	1		301.0	76.0	2.5	/experiments/knapen_aot/videos/S_ahJft-G235A_122.mp4	0.0	340.6316521167755	2.508384943008423
78	224.3395700454712	fix_post	2		12.0	76.0	2.5	/experiments/knapen_aot/videos/S_ahJft-G235A_122.mp4	0.0	343.14003705978394	0.10010099411010742
79	224.4396710395813	fix_pre	0		29.0	77.0	2.5	/experiments/knapen_aot/videos/S_yt-QJHe-CoK4iI_170.mp4	0.0	343.24013805389404	0.2415778636932373
79	224.67310690879822	response	0	2		77.0	2.5	/experiments/knapen_aot/videos/S_yt-QJHe-CoK4iI_170.mp4	0.0	343.47357392311096	
79	224.68124890327454	movie	1		300.0	77.0	2.5	/experiments/knapen_aot/videos/S_yt-QJHe-CoK4iI_170.mp4	0.0	343.4817159175873	2.50835919380188
79	227.18960809707642	fix_post	2		12.0	77.0	2.5	/experiments/knapen_aot/videos/S_yt-QJHe-CoK4iI_170.mp4	0.0	345.99007511138916	0.0999748706817627
80	227.28958296775818	fix_pre	0		55.0	78.0	2.5	/experiments/knapen_aot/videos/S_yt--Ou506YF3mY_106.mp4	0.0	346.0900499820709	0.4582679271697998
80	227.73967695236206	response	0	2		78.0	2.5	/experiments/knapen_aot/videos/S_yt--Ou506YF3mY_106.mp4	0.0	346.5401439666748	
80	227.74785089492798	movie	1		300.0	78.0	2.5	/experiments/knapen_aot/videos/S_yt--Ou506YF3mY_106.mp4	0.0	346.5483179092407	2.5084421634674072
80	230.25629305839539	fix_post	2		12.0	78.0	2.5	/experiments/knapen_aot/videos/S_yt--Ou506YF3mY_106.mp4	0.0	349.05676007270813	0.09999203681945801
81	230.35628509521484	fix_pre	0		21.0	79.0	2.5	/experiments/knapen_aot/videos/S_yt-vacON8rxZaI_168.mp4	0.0	349.1567521095276	0.17596101760864258
81	230.52302503585815	response	0	2		79.0	2.5	/experiments/knapen_aot/videos/S_yt-vacON8rxZaI_168.mp4	0.0	349.3234920501709	
81	230.5322461128235	movie	1		301.0	79.0	2.5	/experiments/knapen_aot/videos/S_yt-vacON8rxZaI_168.mp4	0.0	349.33271312713623	2.5073208808898926
81	233.03956699371338	fix_post	2		12.0	79.0	2.5	/experiments/knapen_aot/videos/S_yt-vacON8rxZaI_168.mp4	0.0	351.8400340080261	0.09999799728393555
82	233.13956499099731	fix_pre	0		22.0	80.0	2.5	/experiments/knapen_aot/videos/S_yt-HFiRYTnMZxE_338.mp4	0.0	351.94003200531006	0.18434405326843262
82	233.31468510627747	response	0	2		80.0	2.5	/experiments/knapen_aot/videos/S_yt-HFiRYTnMZxE_338.mp4	0.0	352.1151521205902	
82	233.32390904426575	movie	1		301.0	80.0	2.5	/experiments/knapen_aot/videos/S_yt-HFiRYTnMZxE_338.mp4	0.0	352.1243760585785	2.507323980331421
82	235.83123302459717	fix_post	2		12.0	80.0	2.5	/experiments/knapen_aot/videos/S_yt-HFiRYTnMZxE_338.mp4	0.0	354.6317000389099	0.09994292259216309
83	235.93117594718933	fix_pre	0		71.0	81.0	2.5	/experiments/knapen_aot/videos/S_ILSVRC2015_train_00556000.mp4	0.0	354.7316429615021	0.5916731357574463
83	236.51468706130981	response	0	2		81.0	2.5	/experiments/knapen_aot/videos/S_ILSVRC2015_train_00556000.mp4	0.0	355.31515407562256	
83	236.52284908294678	movie	1		301.0	81.0	2.5	/experiments/knapen_aot/videos/S_ILSVRC2015_train_00556000.mp4	0.0	355.3233160972595	2.5083389282226562
83	239.03118801116943	fix_post	2		12.0	81.0	2.5	/experiments/knapen_aot/videos/S_ILSVRC2015_train_00556000.mp4	0.0	357.8316550254822	0.10005688667297363
84	239.1312448978424	fix_pre	0		26.0	82.0	2.5	/experiments/knapen_aot/videos/S_production_ID_4820868.mp4	0.0	357.93171191215515	0.21660208702087402
84	239.33965611457825	response	0	2		82.0	2.5	/experiments/knapen_aot/videos/S_production_ID_4820868.mp4	0.0	358.140123128891	
84	239.34784698486328	movie	1		167.0	82.0	2.5	/experiments/knapen_aot/videos/S_production_ID_4820868.mp4	0.0	358.148313999176	2.5083470344543457
84	241.85619401931763	fix_post	2		12.0	82.0	2.5	/experiments/knapen_aot/videos/S_production_ID_4820868.mp4	0.0	360.65666103363037	0.09997296333312988
84	241.9479639530182	response	2	2		82.0	2.5	/experiments/knapen_aot/videos/S_production_ID_4820868.mp4	0.0	360.74843096733093	
85	241.95616698265076	fix_pre	0		73.0	83.0	2.5	blank	1.0	360.7566339969635	0.6083559989929199
85	242.55633306503296	response	0	2		83.0	2.5	blank	1.0	361.3568000793457	
85	242.56452298164368	movie	1		301.0	83.0	2.5	blank	1.0	361.3649899959564	2.508268117904663
85	245.07279109954834	fix_post	2		12.0	83.0	2.5	blank	1.0	363.8732581138611	0.10006284713745117
87	245.1728539466858	stim	0		32.0					363.97332096099854	0.2689690589904785
87	245.38960790634155	response	0	2						364.1900749206543	
87	245.43612790107727	response	0	space						364.23659491539	
