trial_nr	onset	event_type	phase	response	nr_frames	movie_index	movie_duration	movie_file	blank	onset_abs	duration
0	0.1248478889465332	stim	0		25.0					102.41917872428894	0.20868301391601562
0	0.3256969451904297	response	0	space						102.62002778053284	
1	0.33353090286254883	stim	0		121.0					102.62786173820496	1.0077760219573975
1	0.992332935333252	response	0	space						103.28666377067566	
1	1.3413069248199463	stim	1		120.0					103.63563776016235	1.0000829696655273
1	1.3747007846832275	response	1	space						103.66903162002563	
1	1.6913650035858154	response	1	space						103.98569583892822	
1	2.1163408756256104	response	1	space						104.41067171096802	
2	2.3413898944854736	fix_pre	0		20.0	0.0	2.5	/experiments/knapen_aot/videos/R_S_yt-zam74qlzGtQ_122.mp4	0.0	104.63572072982788	0.1664891242980957
2	2.49969482421875	response	0	space		0.0	2.5	/experiments/knapen_aot/videos/R_S_yt-zam74qlzGtQ_122.mp4	0.0	104.79402565956116	
2	2.5078790187835693	movie	1		300.0	0.0	2.5	/experiments/knapen_aot/videos/R_S_yt-zam74qlzGtQ_122.mp4	0.0	104.80220985412598	2.508396863937378
2	5.016275882720947	fix_post	2		12.0	0.0	2.5	/experiments/knapen_aot/videos/R_S_yt-zam74qlzGtQ_122.mp4	0.0	107.31060671806335	0.09997296333312988
3	5.116248846054077	fix_pre	0		43.0	1.0	2.5	/experiments/knapen_aot/videos/R_S_yt-11VGDAOVEag_8.mp4	0.0	107.41057968139648	0.3616909980773926
3	5.469353914260864	response	0	2		1.0	2.5	/experiments/knapen_aot/videos/R_S_yt-11VGDAOVEag_8.mp4	0.0	107.76368474960327	
3	5.47793984413147	movie	1		294.0	1.0	2.5	/experiments/knapen_aot/videos/R_S_yt-11VGDAOVEag_8.mp4	0.0	107.77227067947388	2.5050230026245117
3	7.9829628467559814	fix_post	2		12.0	1.0	2.5	/experiments/knapen_aot/videos/R_S_yt-11VGDAOVEag_8.mp4	0.0	110.27729368209839	0.09998297691345215
4	8.082945823669434	fix_pre	0		58.0	2.0	2.5	/experiments/knapen_aot/videos/R_S_yt-3E02UEHdoZ4_752.mp4	0.0	110.37727665901184	0.48333215713500977
4	8.558056831359863	response	0	2		2.0	2.5	/experiments/knapen_aot/videos/R_S_yt-3E02UEHdoZ4_752.mp4	0.0	110.85238766670227	
4	8.566277980804443	movie	1		301.0	2.0	2.5	/experiments/knapen_aot/videos/R_S_yt-3E02UEHdoZ4_752.mp4	0.0	110.86060881614685	2.5083138942718506
4	11.074591875076294	fix_post	2		12.0	2.0	2.5	/experiments/knapen_aot/videos/R_S_yt-3E02UEHdoZ4_752.mp4	0.0	113.3689227104187	0.09999203681945801
5	11.174583911895752	fix_pre	0		9.0	3.0	2.5	/experiments/knapen_aot/videos/R_S_wc-AJxbR6daLxMM_5.mp4	0.0	113.46891474723816	0.07502102851867676
5	11.241364002227783	response	0	2		3.0	2.5	/experiments/knapen_aot/videos/R_S_wc-AJxbR6daLxMM_5.mp4	0.0	113.53569483757019	
5	11.249604940414429	movie	1		173.0	3.0	2.5	/experiments/knapen_aot/videos/R_S_wc-AJxbR6daLxMM_5.mp4	0.0	113.54393577575684	2.5082859992980957
5	13.757890939712524	fix_post	2		12.0	3.0	2.5	/experiments/knapen_aot/videos/R_S_wc-AJxbR6daLxMM_5.mp4	0.0	116.05222177505493	0.10199689865112305
5	13.849711894989014	response	2	2		3.0	2.5	/experiments/knapen_aot/videos/R_S_wc-AJxbR6daLxMM_5.mp4	0.0	116.14404273033142	
6	13.859887838363647	fix_pre	0		42.0	4.0	2.5	/experiments/knapen_aot/videos/R_S_yt-FsXOl6JjzSY_15.mp4	0.0	116.15421867370605	0.3480520248413086
6	14.1996169090271	response	0	2		4.0	2.5	/experiments/knapen_aot/videos/R_S_yt-FsXOl6JjzSY_15.mp4	0.0	116.4939477443695	
6	14.207939863204956	movie	1		301.0	4.0	2.5	/experiments/knapen_aot/videos/R_S_yt-FsXOl6JjzSY_15.mp4	0.0	116.50227069854736	2.5083091259002686
6	16.716248989105225	fix_post	2		12.0	4.0	2.5	/experiments/knapen_aot/videos/R_S_yt-FsXOl6JjzSY_15.mp4	0.0	119.01057982444763	0.09993481636047363
7	16.8161838054657	fix_pre	0		19.0	5.0	2.5	blank	1.0	119.1105146408081	0.15825319290161133
7	16.966500997543335	response	0	2		5.0	2.5	blank	1.0	119.26083183288574	
7	16.97443699836731	movie	1		301.0	5.0	2.5	blank	1.0	119.26876783370972	2.508368968963623
7	19.482805967330933	fix_post	2		12.0	5.0	2.5	blank	1.0	121.77713680267334	0.10004496574401855
8	19.58285093307495	fix_pre	0		31.0	6.0	2.5	/experiments/knapen_aot/videos/R_S_yt-OdTWn1U1mO4_68.mp4	0.0	121.87718176841736	0.2583010196685791
8	19.832871913909912	response	0	2		6.0	2.5	/experiments/knapen_aot/videos/R_S_yt-OdTWn1U1mO4_68.mp4	0.0	122.12720274925232	
8	19.84115195274353	movie	1		301.0	6.0	2.5	/experiments/knapen_aot/videos/R_S_yt-OdTWn1U1mO4_68.mp4	0.0	122.13548278808594	2.5084359645843506
8	22.34958791732788	fix_post	2		12.0	6.0	2.5	/experiments/knapen_aot/videos/R_S_yt-OdTWn1U1mO4_68.mp4	0.0	124.64391875267029	0.09989595413208008
8	22.41628885269165	response	2	2		6.0	2.5	/experiments/knapen_aot/videos/R_S_yt-OdTWn1U1mO4_68.mp4	0.0	124.71061968803406	
9	22.44948387145996	fix_pre	0		41.0	7.0	2.5	/experiments/knapen_aot/videos/R_S_FK_U009_C004_SDR_20191220_SDR_2K_AVC.mp4	0.0	124.74381470680237	0.34168004989624023
9	22.78299593925476	response	0	2		7.0	2.5	/experiments/knapen_aot/videos/R_S_FK_U009_C004_SDR_20191220_SDR_2K_AVC.mp4	0.0	125.07732677459717	
9	22.7911639213562	movie	1		161.0	7.0	2.5	/experiments/knapen_aot/videos/R_S_FK_U009_C004_SDR_20191220_SDR_2K_AVC.mp4	0.0	125.08549475669861	2.508352041244507
9	25.299515962600708	fix_post	2		12.0	7.0	2.5	/experiments/knapen_aot/videos/R_S_FK_U009_C004_SDR_20191220_SDR_2K_AVC.mp4	0.0	127.59384679794312	0.10002994537353516
10	25.399545907974243	fix_pre	0		11.0	8.0	2.5	/experiments/knapen_aot/videos/S_DV6V38rplag_215.mp4	0.0	127.69387674331665	0.09214401245117188
10	25.482897996902466	response	0	2		8.0	2.5	/experiments/knapen_aot/videos/S_DV6V38rplag_215.mp4	0.0	127.77722883224487	
10	25.491689920425415	movie	1		301.0	8.0	2.5	/experiments/knapen_aot/videos/S_DV6V38rplag_215.mp4	0.0	127.78602075576782	2.5077950954437256
10	27.99948501586914	fix_post	2		12.0	8.0	2.5	/experiments/knapen_aot/videos/S_DV6V38rplag_215.mp4	0.0	130.29381585121155	0.09996390342712402
11	28.099448919296265	fix_pre	0		12.0	9.0	2.5	/experiments/knapen_aot/videos/R_S_yt-2kPrGwVmRfE_169.mp4	0.0	130.39377975463867	0.10055303573608398
11	28.19119095802307	response	0	2		9.0	2.5	/experiments/knapen_aot/videos/R_S_yt-2kPrGwVmRfE_169.mp4	0.0	130.48552179336548	
11	28.20000195503235	movie	1		301.0	9.0	2.5	/experiments/knapen_aot/videos/R_S_yt-2kPrGwVmRfE_169.mp4	0.0	130.49433279037476	2.507801055908203
11	30.70780301094055	fix_post	2		12.0	9.0	2.5	/experiments/knapen_aot/videos/R_S_yt-2kPrGwVmRfE_169.mp4	0.0	133.00213384628296	0.0999448299407959
12	30.807747840881348	fix_pre	0		10.0	10.0	2.5	/experiments/knapen_aot/videos/R_S_yt-9EnchawJ3pA_90.mp4	0.0	133.10207867622375	0.0833899974822998
12	30.882927894592285	response	0	2		10.0	2.5	/experiments/knapen_aot/videos/R_S_yt-9EnchawJ3pA_90.mp4	0.0	133.1772587299347	
12	30.891137838363647	movie	1		301.0	10.0	2.5	/experiments/knapen_aot/videos/R_S_yt-9EnchawJ3pA_90.mp4	0.0	133.18546867370605	2.508394956588745
12	33.39953279495239	fix_post	2		12.0	10.0	2.5	/experiments/knapen_aot/videos/R_S_yt-9EnchawJ3pA_90.mp4	0.0	135.6938636302948	0.09993720054626465
13	33.49946999549866	fix_pre	0		20.0	11.0	2.5	/experiments/knapen_aot/videos/S_flickr-53807584@N00-5565833509_7.mp4	0.0	135.79380083084106	0.16662192344665527
13	33.657925844192505	response	0	2		11.0	2.5	/experiments/knapen_aot/videos/S_flickr-53807584@N00-5565833509_7.mp4	0.0	135.9522566795349	
13	33.66609191894531	movie	1		301.0	11.0	2.5	/experiments/knapen_aot/videos/S_flickr-53807584@N00-5565833509_7.mp4	0.0	135.96042275428772	2.508394956588745
13	36.17448687553406	fix_post	2		12.0	11.0	2.5	/experiments/knapen_aot/videos/S_flickr-53807584@N00-5565833509_7.mp4	0.0	138.46881771087646	0.09999608993530273
14	36.27448296546936	fix_pre	0		21.0	12.0	2.5	blank	1.0	138.56881380081177	0.1753690242767334
14	36.4336838722229	response	0	2		12.0	2.5	blank	1.0	138.7280147075653	
14	36.449851989746094	movie	1		301.0	12.0	2.5	blank	1.0	138.7441828250885	2.507956027984619
14	38.95780801773071	fix_post	2		12.0	12.0	2.5	blank	1.0	141.25213885307312	0.1000669002532959
15	39.05787491798401	fix_pre	0		21.0	13.0	2.5	/experiments/knapen_aot/videos/R_S_wc-Mf8SQpviaD6D_17.mp4	0.0	141.35220575332642	0.17484593391418457
15	39.22461199760437	response	0	2		13.0	2.5	/experiments/knapen_aot/videos/R_S_wc-Mf8SQpviaD6D_17.mp4	0.0	141.51894283294678	
15	39.23272085189819	movie	1		171.0	13.0	2.5	/experiments/knapen_aot/videos/R_S_wc-Mf8SQpviaD6D_17.mp4	0.0	141.5270516872406	2.5084071159362793
15	41.74112796783447	fix_post	2		12.0	13.0	2.5	/experiments/knapen_aot/videos/R_S_wc-Mf8SQpviaD6D_17.mp4	0.0	144.03545880317688	0.10008502006530762
15	41.791179895401	response	2	2		13.0	2.5	/experiments/knapen_aot/videos/R_S_wc-Mf8SQpviaD6D_17.mp4	0.0	144.0855107307434	
16	41.84121298789978	fix_pre	0		34.0	14.0	2.5	/experiments/knapen_aot/videos/S_yt-aiWUhl8MCto_71.mp4	0.0	144.1355438232422	0.2831900119781494
16	42.11614179611206	response	0	2		14.0	2.5	/experiments/knapen_aot/videos/S_yt-aiWUhl8MCto_71.mp4	0.0	144.41047263145447	
16	42.12440299987793	movie	1		301.0	14.0	2.5	/experiments/knapen_aot/videos/S_yt-aiWUhl8MCto_71.mp4	0.0	144.41873383522034	2.508387804031372
16	44.6327908039093	fix_post	2		12.0	14.0	2.5	/experiments/knapen_aot/videos/S_yt-aiWUhl8MCto_71.mp4	0.0	146.9271216392517	0.09998416900634766
17	44.73277497291565	fix_pre	0		19.0	15.0	2.5	/experiments/knapen_aot/videos/S_yt-_6j2NXrB-zE_28.mp4	0.0	147.02710580825806	0.15828394889831543
17	44.882838010787964	response	0	2		15.0	2.5	/experiments/knapen_aot/videos/S_yt-_6j2NXrB-zE_28.mp4	0.0	147.17716884613037	
17	44.891058921813965	movie	1		301.0	15.0	2.5	/experiments/knapen_aot/videos/S_yt-_6j2NXrB-zE_28.mp4	0.0	147.18538975715637	2.5083749294281006
17	47.399433851242065	fix_post	2		12.0	15.0	2.5	/experiments/knapen_aot/videos/S_yt-_6j2NXrB-zE_28.mp4	0.0	149.69376468658447	0.09996414184570312
18	47.49939799308777	fix_pre	0		110.0	16.0	2.5	/experiments/knapen_aot/videos/S_yt-zam74qlzGtQ_122.mp4	0.0	149.79372882843018	0.9166278839111328
18	48.40783500671387	response	0	2		16.0	2.5	/experiments/knapen_aot/videos/S_yt-zam74qlzGtQ_122.mp4	0.0	150.70216584205627	
18	48.4160258769989	movie	1		301.0	16.0	2.5	/experiments/knapen_aot/videos/S_yt-zam74qlzGtQ_122.mp4	0.0	150.7103567123413	2.5083630084991455
18	50.92438888549805	fix_post	2		12.0	16.0	2.5	/experiments/knapen_aot/videos/S_yt-zam74qlzGtQ_122.mp4	0.0	153.21871972084045	0.09999895095825195
19	51.0243878364563	fix_pre	0		53.0	17.0	2.5	/experiments/knapen_aot/videos/R_S_yt-AuQ_WxaNy4Y_255.mp4	0.0	153.3187186717987	0.44168996810913086
19	51.45785880088806	response	0	2		17.0	2.5	/experiments/knapen_aot/videos/R_S_yt-AuQ_WxaNy4Y_255.mp4	0.0	153.75218963623047	
19	51.46607780456543	movie	1		301.0	17.0	2.5	/experiments/knapen_aot/videos/R_S_yt-AuQ_WxaNy4Y_255.mp4	0.0	153.76040863990784	2.5084950923919678
19	53.9745728969574	fix_post	2		12.0	17.0	2.5	/experiments/knapen_aot/videos/R_S_yt-AuQ_WxaNy4Y_255.mp4	0.0	156.2689037322998	0.10019707679748535
20	54.07476997375488	fix_pre	0		19.0	18.0	2.5	/experiments/knapen_aot/videos/R_S_yt-kawmL3oVw8c_2.mp4	0.0	156.3691008090973	0.1578989028930664
20	54.216954946517944	response	0	2		18.0	2.5	/experiments/knapen_aot/videos/R_S_yt-kawmL3oVw8c_2.mp4	0.0	156.51128578186035	
20	54.23266887664795	movie	1		301.0	18.0	2.5	/experiments/knapen_aot/videos/R_S_yt-kawmL3oVw8c_2.mp4	0.0	156.52699971199036	2.508737087249756
20	56.741405963897705	fix_post	2		12.0	18.0	2.5	/experiments/knapen_aot/videos/R_S_yt-kawmL3oVw8c_2.mp4	0.0	159.0357367992401	0.09962987899780273
21	56.84103584289551	fix_pre	0		22.0	19.0	2.5	/experiments/knapen_aot/videos/S_G009_C014_UHD_SDR_2K_AVC.mp4	0.0	159.13536667823792	0.18322205543518066
21	57.01616287231445	response	0	2		19.0	2.5	/experiments/knapen_aot/videos/S_G009_C014_UHD_SDR_2K_AVC.mp4	0.0	159.31049370765686	
21	57.02425789833069	movie	1		168.0	19.0	2.5	/experiments/knapen_aot/videos/S_G009_C014_UHD_SDR_2K_AVC.mp4	0.0	159.3185887336731	2.5084340572357178
21	59.532691955566406	fix_post	2		12.0	19.0	2.5	/experiments/knapen_aot/videos/S_G009_C014_UHD_SDR_2K_AVC.mp4	0.0	161.8270227909088	0.09992504119873047
22	59.63261699676514	fix_pre	0		12.0	20.0	2.5	blank	1.0	161.92694783210754	0.10002994537353516
22	59.72438883781433	response	0	2		20.0	2.5	blank	1.0	162.01871967315674	
22	59.73264694213867	movie	1		301.0	20.0	2.5	blank	1.0	162.02697777748108	2.50838303565979
22	62.24102997779846	fix_post	2		12.0	20.0	2.5	blank	1.0	164.53536081314087	0.10015082359313965
23	62.3411808013916	fix_pre	0		40.0	21.0	2.5	/experiments/knapen_aot/videos/S_pexels-kampus-production-5991896.mp4	0.0	164.635511636734	0.33309221267700195
23	62.66611981391907	response	0	2		21.0	2.5	/experiments/knapen_aot/videos/S_pexels-kampus-production-5991896.mp4	0.0	164.96045064926147	
23	62.6742730140686	movie	1		163.0	21.0	2.5	/experiments/knapen_aot/videos/S_pexels-kampus-production-5991896.mp4	0.0	164.968603849411	2.5084598064422607
23	65.18273282051086	fix_post	2		12.0	21.0	2.5	/experiments/knapen_aot/videos/S_pexels-kampus-production-5991896.mp4	0.0	167.47706365585327	0.10032916069030762
24	65.28306198120117	fix_pre	0		5.0	22.0	2.5	/experiments/knapen_aot/videos/R_S_yt-OdTWn1U1mO4_68.mp4	0.0	167.57739281654358	0.04149293899536133
24	65.30863499641418	response	0	2		22.0	2.5	/experiments/knapen_aot/videos/R_S_yt-OdTWn1U1mO4_68.mp4	0.0	167.6029658317566	
24	65.32455492019653	movie	1		301.0	22.0	2.5	/experiments/knapen_aot/videos/R_S_yt-OdTWn1U1mO4_68.mp4	0.0	167.61888575553894	2.5081050395965576
24	67.83265995979309	fix_post	2		12.0	22.0	2.5	/experiments/knapen_aot/videos/R_S_yt-OdTWn1U1mO4_68.mp4	0.0	170.1269907951355	0.09993386268615723
25	67.93259382247925	fix_pre	0		15.0	23.0	2.5	/experiments/knapen_aot/videos/R_S_yt-qF-69JWJX_Y_55.mp4	0.0	170.22692465782166	0.12501811981201172
25	68.04944682121277	response	0	2		23.0	2.5	/experiments/knapen_aot/videos/R_S_yt-qF-69JWJX_Y_55.mp4	0.0	170.34377765655518	
25	68.05761194229126	movie	1		301.0	23.0	2.5	/experiments/knapen_aot/videos/R_S_yt-qF-69JWJX_Y_55.mp4	0.0	170.35194277763367	2.508375883102417
25	70.56598782539368	fix_post	2		12.0	23.0	2.5	/experiments/knapen_aot/videos/R_S_yt-qF-69JWJX_Y_55.mp4	0.0	172.86031866073608	0.09997296333312988
26	70.6659607887268	fix_pre	0		8.0	24.0	2.5	/experiments/knapen_aot/videos/S_production_ID_3943334.mp4	0.0	172.9602916240692	0.06667804718017578
26	70.72443079948425	response	0	2		24.0	2.5	/experiments/knapen_aot/videos/S_production_ID_3943334.mp4	0.0	173.01876163482666	
26	70.73263883590698	movie	1		194.0	24.0	2.5	/experiments/knapen_aot/videos/S_production_ID_3943334.mp4	0.0	173.0269696712494	2.5083401203155518
26	73.24097895622253	fix_post	2		12.0	24.0	2.5	/experiments/knapen_aot/videos/S_production_ID_3943334.mp4	0.0	175.53530979156494	0.09992003440856934
27	73.3408989906311	fix_pre	0		13.0	25.0	2.5	/experiments/knapen_aot/videos/R_S_b6-4.mp4	0.0	175.6352298259735	0.10851788520812988
27	73.44104480743408	response	0	2		25.0	2.5	/experiments/knapen_aot/videos/R_S_b6-4.mp4	0.0	175.7353756427765	
27	73.44941687583923	movie	1		165.0	25.0	2.5	/experiments/knapen_aot/videos/R_S_b6-4.mp4	0.0	175.74374771118164	2.5083160400390625
27	75.9577329158783	fix_post	2		12.0	25.0	2.5	/experiments/knapen_aot/videos/R_S_b6-4.mp4	0.0	178.2520637512207	0.09992408752441406
28	76.05765700340271	fix_pre	0		24.0	26.0	2.5	blank	1.0	178.35198783874512	0.1999039649963379
28	76.24945592880249	response	0	2		26.0	2.5	blank	1.0	178.5437867641449	
28	76.25756096839905	movie	1		301.0	26.0	2.5	blank	1.0	178.55189180374146	2.5083439350128174
28	78.76590490341187	fix_post	2		12.0	26.0	2.5	blank	1.0	181.06023573875427	0.10022497177124023
29	78.8661298751831	fix_pre	0		25.0	27.0	2.5	/experiments/knapen_aot/videos/R_S_flickr-csgzs-8144064966_10.mp4	0.0	181.1604607105255	0.20827007293701172
29	79.06601881980896	response	0	2		27.0	2.5	/experiments/knapen_aot/videos/R_S_flickr-csgzs-8144064966_10.mp4	0.0	181.36034965515137	
29	79.07439994812012	movie	1		301.0	27.0	2.5	/experiments/knapen_aot/videos/R_S_flickr-csgzs-8144064966_10.mp4	0.0	181.36873078346252	2.508208990097046
29	81.58260893821716	fix_post	2		12.0	27.0	2.5	/experiments/knapen_aot/videos/R_S_flickr-csgzs-8144064966_10.mp4	0.0	183.87693977355957	0.09997391700744629
30	81.68258285522461	fix_pre	0		23.0	28.0	2.5	/experiments/knapen_aot/videos/R_S_wc-7ugQ0V4lxYkJ_131.mp4	0.0	183.97691369056702	0.19161605834960938
30	81.86606192588806	response	0	2		28.0	2.5	/experiments/knapen_aot/videos/R_S_wc-7ugQ0V4lxYkJ_131.mp4	0.0	184.16039276123047	
30	81.87419891357422	movie	1		301.0	28.0	2.5	/experiments/knapen_aot/videos/R_S_wc-7ugQ0V4lxYkJ_131.mp4	0.0	184.16852974891663	2.5083630084991455
30	84.38256192207336	fix_post	2		12.0	28.0	2.5	/experiments/knapen_aot/videos/R_S_wc-7ugQ0V4lxYkJ_131.mp4	0.0	186.67689275741577	0.0999600887298584
31	84.48252201080322	fix_pre	0		22.0	29.0	2.5	/experiments/knapen_aot/videos/S_yt-CR86bVrRwfo_13.mp4	0.0	186.77685284614563	0.1833028793334961
31	84.65771484375	response	0	2		29.0	2.5	/experiments/knapen_aot/videos/S_yt-CR86bVrRwfo_13.mp4	0.0	186.9520456790924	
31	84.66582489013672	movie	1		301.0	29.0	2.5	/experiments/knapen_aot/videos/S_yt-CR86bVrRwfo_13.mp4	0.0	186.96015572547913	2.508450984954834
31	87.17427587509155	fix_post	2		12.0	29.0	2.5	/experiments/knapen_aot/videos/S_yt-CR86bVrRwfo_13.mp4	0.0	189.46860671043396	0.09997010231018066
32	87.27424597740173	fix_pre	0		17.0	30.0	2.5	/experiments/knapen_aot/videos/R_S_comp_L004_C011_PS_v01_SDR_PS_20180925_SDR_2K_AVC.mp4	0.0	189.56857681274414	0.14157986640930176
32	87.40766286849976	response	0	2		30.0	2.5	/experiments/knapen_aot/videos/R_S_comp_L004_C011_PS_v01_SDR_PS_20180925_SDR_2K_AVC.mp4	0.0	189.70199370384216	
32	87.41582584381104	movie	1		166.0	30.0	2.5	/experiments/knapen_aot/videos/R_S_comp_L004_C011_PS_v01_SDR_PS_20180925_SDR_2K_AVC.mp4	0.0	189.71015667915344	2.508368968963623
32	89.92419481277466	fix_post	2		12.0	30.0	2.5	/experiments/knapen_aot/videos/R_S_comp_L004_C011_PS_v01_SDR_PS_20180925_SDR_2K_AVC.mp4	0.0	192.21852564811707	0.10003113746643066
33	90.02422595024109	fix_pre	0		4.0	31.0	2.5	/experiments/knapen_aot/videos/R_S_yt-jQrMcUCmAaM_44.mp4	0.0	192.3185567855835	0.03328084945678711
33	90.04935693740845	response	0	2		31.0	2.5	/experiments/knapen_aot/videos/R_S_yt-jQrMcUCmAaM_44.mp4	0.0	192.34368777275085	
33	90.05750679969788	movie	1		301.0	31.0	2.5	/experiments/knapen_aot/videos/R_S_yt-jQrMcUCmAaM_44.mp4	0.0	192.35183763504028	2.5083651542663574
33	92.56587195396423	fix_post	2		12.0	31.0	2.5	/experiments/knapen_aot/videos/R_S_yt-jQrMcUCmAaM_44.mp4	0.0	194.86020278930664	0.10003399848937988
34	92.66590595245361	fix_pre	0		4.0	32.0	2.5	/experiments/knapen_aot/videos/R_S_ILSVRC2015_train_00404003.mp4	0.0	194.96023678779602	0.03381204605102539
34	92.69098401069641	response	0	2		32.0	2.5	/experiments/knapen_aot/videos/R_S_ILSVRC2015_train_00404003.mp4	0.0	194.98531484603882	
34	92.69971799850464	movie	1		301.0	32.0	2.5	/experiments/knapen_aot/videos/R_S_ILSVRC2015_train_00404003.mp4	0.0	194.99404883384705	2.507880926132202
34	95.20759892463684	fix_post	2		12.0	32.0	2.5	/experiments/knapen_aot/videos/R_S_ILSVRC2015_train_00404003.mp4	0.0	197.50192975997925	0.10016894340515137
35	95.30776786804199	fix_pre	0		10.0	33.0	2.5	/experiments/knapen_aot/videos/R_S_yt-MTo50ReVNmU_2.mp4	0.0	197.6020987033844	0.08317399024963379
35	95.38287782669067	response	0	2		33.0	2.5	/experiments/knapen_aot/videos/R_S_yt-MTo50ReVNmU_2.mp4	0.0	197.67720866203308	
35	95.39094185829163	movie	1		301.0	33.0	2.5	/experiments/knapen_aot/videos/R_S_yt-MTo50ReVNmU_2.mp4	0.0	197.68527269363403	2.508244037628174
35	97.8991858959198	fix_post	2		12.0	33.0	2.5	/experiments/knapen_aot/videos/R_S_yt-MTo50ReVNmU_2.mp4	0.0	200.1935167312622	0.10003495216369629
36	97.9992208480835	fix_pre	0		9.0	34.0	2.5	blank	1.0	200.2935516834259	0.07509112358093262
36	98.06593894958496	response	0	2		34.0	2.5	blank	1.0	200.36026978492737	
36	98.07431197166443	movie	1		301.0	34.0	2.5	blank	1.0	200.36864280700684	2.508175849914551
36	100.58248782157898	fix_post	2		12.0	34.0	2.5	blank	1.0	202.8768186569214	0.09994006156921387
37	100.6824278831482	fix_pre	0		23.0	35.0	2.5	/experiments/knapen_aot/videos/S_yt-8RmEimCI80g_35.mp4	0.0	202.9767587184906	0.19170594215393066
37	100.8659279346466	response	0	2		35.0	2.5	/experiments/knapen_aot/videos/S_yt-8RmEimCI80g_35.mp4	0.0	203.160258769989	
37	100.87413382530212	movie	1		301.0	35.0	2.5	/experiments/knapen_aot/videos/S_yt-8RmEimCI80g_35.mp4	0.0	203.16846466064453	2.508392095565796
37	103.38252592086792	fix_post	2		12.0	35.0	2.5	/experiments/knapen_aot/videos/S_yt-8RmEimCI80g_35.mp4	0.0	205.67685675621033	0.09989404678344727
38	103.48241996765137	fix_pre	0		6.0	36.0	2.5	/experiments/knapen_aot/videos/R_S_wc-AJxbR6daLxMM_5.mp4	0.0	205.77675080299377	0.0500798225402832
38	103.52424383163452	response	0	2		36.0	2.5	/experiments/knapen_aot/videos/R_S_wc-AJxbR6daLxMM_5.mp4	0.0	205.81857466697693	
38	103.53249979019165	movie	1		169.0	36.0	2.5	/experiments/knapen_aot/videos/R_S_wc-AJxbR6daLxMM_5.mp4	0.0	205.82683062553406	2.508369207382202
38	106.04086899757385	fix_post	2		12.0	36.0	2.5	/experiments/knapen_aot/videos/R_S_wc-AJxbR6daLxMM_5.mp4	0.0	208.33519983291626	0.09994792938232422
38	106.09097599983215	response	2	2		36.0	2.5	/experiments/knapen_aot/videos/R_S_wc-AJxbR6daLxMM_5.mp4	0.0	208.38530683517456	
39	106.14081692695618	fix_pre	0		33.0	37.0	2.5	/experiments/knapen_aot/videos/S_yt-JtR6WZXT2kU_8.mp4	0.0	208.43514776229858	0.27491307258605957
39	106.40755581855774	response	0	2		37.0	2.5	/experiments/knapen_aot/videos/S_yt-JtR6WZXT2kU_8.mp4	0.0	208.70188665390015	
39	106.41572999954224	movie	1		301.0	37.0	2.5	/experiments/knapen_aot/videos/S_yt-JtR6WZXT2kU_8.mp4	0.0	208.71006083488464	2.508641004562378
39	108.92437100410461	fix_post	2		12.0	37.0	2.5	/experiments/knapen_aot/videos/S_yt-JtR6WZXT2kU_8.mp4	0.0	211.21870183944702	0.0997629165649414
40	109.02413392066956	fix_pre	0		11.0	38.0	2.5	/experiments/knapen_aot/videos/S_comp_N013_C004_PS_v01_SDR_PS_20180925_F1970F7193_SDR_2K_AVC.mp4	0.0	211.31846475601196	0.09165406227111816
40	109.10762095451355	response	0	2		38.0	2.5	/experiments/knapen_aot/videos/S_comp_N013_C004_PS_v01_SDR_PS_20180925_F1970F7193_SDR_2K_AVC.mp4	0.0	211.40195178985596	
40	109.11578798294067	movie	1		165.0	38.0	2.5	/experiments/knapen_aot/videos/S_comp_N013_C004_PS_v01_SDR_PS_20180925_F1970F7193_SDR_2K_AVC.mp4	0.0	211.41011881828308	2.5083348751068115
40	111.62412285804749	fix_post	2		12.0	38.0	2.5	/experiments/knapen_aot/videos/S_comp_N013_C004_PS_v01_SDR_PS_20180925_F1970F7193_SDR_2K_AVC.mp4	0.0	213.9184536933899	0.10004305839538574
41	111.72416591644287	fix_pre	0		1.0	39.0	2.5	/experiments/knapen_aot/videos/S_yt-lkpfs_4qAGE_50.mp4	0.0	214.01849675178528	0.009896039962768555
41	111.72576379776001	response	0	2		39.0	2.5	/experiments/knapen_aot/videos/S_yt-lkpfs_4qAGE_50.mp4	0.0	214.02009463310242	
41	111.73406195640564	movie	1		301.0	39.0	2.5	/experiments/knapen_aot/videos/S_yt-lkpfs_4qAGE_50.mp4	0.0	214.02839279174805	2.506772994995117
41	114.24083495140076	fix_post	2		12.0	39.0	2.5	/experiments/knapen_aot/videos/S_yt-lkpfs_4qAGE_50.mp4	0.0	216.53516578674316	0.099945068359375
42	114.34078001976013	fix_pre	0		19.0	40.0	2.5	/experiments/knapen_aot/videos/S_FK_U009_C004_SDR_20191220_SDR_2K_AVC.mp4	0.0	216.63511085510254	0.15833592414855957
42	114.490895986557	response	0	2		40.0	2.5	/experiments/knapen_aot/videos/S_FK_U009_C004_SDR_20191220_SDR_2K_AVC.mp4	0.0	216.7852268218994	
42	114.49911594390869	movie	1		163.0	40.0	2.5	/experiments/knapen_aot/videos/S_FK_U009_C004_SDR_20191220_SDR_2K_AVC.mp4	0.0	216.7934467792511	2.508307933807373
42	117.00742387771606	fix_post	2		12.0	40.0	2.5	/experiments/knapen_aot/videos/S_FK_U009_C004_SDR_20191220_SDR_2K_AVC.mp4	0.0	219.30175471305847	0.09997105598449707
43	117.10739493370056	fix_pre	0		26.0	41.0	2.5	/experiments/knapen_aot/videos/S_yt-O_4DgW-XKvA_35.mp4	0.0	219.40172576904297	0.21668195724487305
43	117.31592583656311	response	0	2		41.0	2.5	/experiments/knapen_aot/videos/S_yt-O_4DgW-XKvA_35.mp4	0.0	219.61025667190552	
43	117.32407689094543	movie	1		301.0	41.0	2.5	/experiments/knapen_aot/videos/S_yt-O_4DgW-XKvA_35.mp4	0.0	219.61840772628784	2.5084121227264404
43	119.83248901367188	fix_post	2		12.0	41.0	2.5	/experiments/knapen_aot/videos/S_yt-O_4DgW-XKvA_35.mp4	0.0	222.12681984901428	0.09995388984680176
44	119.93244290351868	fix_pre	0		20.0	42.0	2.5	blank	1.0	222.22677373886108	0.16659808158874512
44	120.09082388877869	response	0	2		42.0	2.5	blank	1.0	222.3851547241211	
44	120.09904098510742	movie	1		301.0	42.0	2.5	blank	1.0	222.39337182044983	2.5083839893341064
44	122.60742497444153	fix_post	2		12.0	42.0	2.5	blank	1.0	224.90175580978394	0.10002684593200684
45	122.70745182037354	fix_pre	0		17.0	43.0	2.5	/experiments/knapen_aot/videos/R_S_pexels-rodnae-productions-5993654.mp4	0.0	225.00178265571594	0.14159011840820312
45	122.84077382087708	response	0	2		43.0	2.5	/experiments/knapen_aot/videos/R_S_pexels-rodnae-productions-5993654.mp4	0.0	225.13510465621948	
45	122.84904193878174	movie	1		162.0	43.0	2.5	/experiments/knapen_aot/videos/R_S_pexels-rodnae-productions-5993654.mp4	0.0	225.14337277412415	2.5082859992980957
45	125.35732793807983	fix_post	2		12.0	43.0	2.5	/experiments/knapen_aot/videos/R_S_pexels-rodnae-productions-5993654.mp4	0.0	227.65165877342224	0.10004186630249023
46	125.45736980438232	fix_pre	0		5.0	44.0	2.5	/experiments/knapen_aot/videos/S_wc-Mf8SQpviaD6D_17.mp4	0.0	227.75170063972473	0.04169416427612305
46	125.49088287353516	response	0	2		44.0	2.5	/experiments/knapen_aot/videos/S_wc-Mf8SQpviaD6D_17.mp4	0.0	227.78521370887756	
46	125.49906396865845	movie	1		169.0	44.0	2.5	/experiments/knapen_aot/videos/S_wc-Mf8SQpviaD6D_17.mp4	0.0	227.79339480400085	2.508427858352661
46	128.0074918270111	fix_post	2		12.0	44.0	2.5	/experiments/knapen_aot/videos/S_wc-Mf8SQpviaD6D_17.mp4	0.0	230.30182266235352	0.09982609748840332
47	128.1073179244995	fix_pre	0		9.0	45.0	2.5	/experiments/knapen_aot/videos/S_yt-x7TqP8l4lCA_39.mp4	0.0	230.40164875984192	0.07504391670227051
47	128.1741328239441	response	0	2		45.0	2.5	/experiments/knapen_aot/videos/S_yt-x7TqP8l4lCA_39.mp4	0.0	230.4684636592865	
47	128.18236184120178	movie	1		301.0	45.0	2.5	/experiments/knapen_aot/videos/S_yt-x7TqP8l4lCA_39.mp4	0.0	230.4766926765442	2.5084171295166016
47	130.69077897071838	fix_post	2		12.0	45.0	2.5	/experiments/knapen_aot/videos/S_yt-x7TqP8l4lCA_39.mp4	0.0	232.9851098060608	0.0999300479888916
48	130.79070901870728	fix_pre	0		34.0	46.0	2.5	/experiments/knapen_aot/videos/R_S_yt-IlW1U39Dga4_5.mp4	0.0	233.08503985404968	0.2833437919616699
48	131.06582593917847	response	0	2		46.0	2.5	/experiments/knapen_aot/videos/R_S_yt-IlW1U39Dga4_5.mp4	0.0	233.36015677452087	
48	131.07405281066895	movie	1		301.0	46.0	2.5	/experiments/knapen_aot/videos/R_S_yt-IlW1U39Dga4_5.mp4	0.0	233.36838364601135	2.5084381103515625
48	133.5824909210205	fix_post	2		12.0	46.0	2.5	/experiments/knapen_aot/videos/R_S_yt-IlW1U39Dga4_5.mp4	0.0	235.87682175636292	0.0998539924621582
49	133.68234491348267	fix_pre	0		18.0	47.0	2.5	blank	1.0	235.97667574882507	0.15000700950622559
49	133.82419681549072	response	0	2		47.0	2.5	blank	1.0	236.11852765083313	
49	133.8323519229889	movie	1		301.0	47.0	2.5	blank	1.0	236.1266827583313	2.50832200050354
49	136.34067392349243	fix_post	2		12.0	47.0	2.5	blank	1.0	238.63500475883484	0.10006999969482422
50	136.44074392318726	fix_pre	0		21.0	48.0	2.5	/experiments/knapen_aot/videos/S_pexels-kindel-media-8164443.mp4	0.0	238.73507475852966	0.17487406730651855
50	136.6073398590088	response	0	2		48.0	2.5	/experiments/knapen_aot/videos/S_pexels-kindel-media-8164443.mp4	0.0	238.9016706943512	
50	136.61561799049377	movie	1		166.0	48.0	2.5	/experiments/knapen_aot/videos/S_pexels-kindel-media-8164443.mp4	0.0	238.90994882583618	2.5083107948303223
50	139.1239287853241	fix_post	2		12.0	48.0	2.5	/experiments/knapen_aot/videos/S_pexels-kindel-media-8164443.mp4	0.0	241.4182596206665	0.10006999969482422
51	139.22399878501892	fix_pre	0		75.0	49.0	2.5	/experiments/knapen_aot/videos/S_wc-lItGMdwvEd_l_7.mp4	0.0	241.51832962036133	0.6249890327453613
51	139.84078001976013	response	0	2		49.0	2.5	/experiments/knapen_aot/videos/S_wc-lItGMdwvEd_l_7.mp4	0.0	242.13511085510254	
51	139.84898781776428	movie	1		162.0	49.0	2.5	/experiments/knapen_aot/videos/S_wc-lItGMdwvEd_l_7.mp4	0.0	242.1433186531067	2.5083701610565186
51	142.3573579788208	fix_post	2		12.0	49.0	2.5	/experiments/knapen_aot/videos/S_wc-lItGMdwvEd_l_7.mp4	0.0	244.6516888141632	0.10006189346313477
52	142.45741987228394	fix_pre	0		21.0	50.0	2.5	/experiments/knapen_aot/videos/S_yt-0lfSyC79n14_7.mp4	0.0	244.75175070762634	0.17492008209228516
52	142.62416982650757	response	0	2		50.0	2.5	/experiments/knapen_aot/videos/S_yt-0lfSyC79n14_7.mp4	0.0	244.91850066184998	
52	142.63233995437622	movie	1		301.0	50.0	2.5	/experiments/knapen_aot/videos/S_yt-0lfSyC79n14_7.mp4	0.0	244.92667078971863	2.508344888687134
52	145.14068484306335	fix_post	2		12.0	50.0	2.5	/experiments/knapen_aot/videos/S_yt-0lfSyC79n14_7.mp4	0.0	247.43501567840576	0.1000220775604248
53	145.24070692062378	fix_pre	0		11.0	51.0	2.5	/experiments/knapen_aot/videos/R_S_yt-Uv0dt_-fWJU_40.mp4	0.0	247.5350377559662	0.09164190292358398
53	145.3241319656372	response	0	2		51.0	2.5	/experiments/knapen_aot/videos/R_S_yt-Uv0dt_-fWJU_40.mp4	0.0	247.61846280097961	
53	145.33234882354736	movie	1		301.0	51.0	2.5	/experiments/knapen_aot/videos/R_S_yt-Uv0dt_-fWJU_40.mp4	0.0	247.62667965888977	2.5083041191101074
53	147.84065294265747	fix_post	2		12.0	51.0	2.5	/experiments/knapen_aot/videos/R_S_yt-Uv0dt_-fWJU_40.mp4	0.0	250.13498377799988	0.09991598129272461
54	147.9405689239502	fix_pre	0		10.0	52.0	2.5	/experiments/knapen_aot/videos/R_S_pexels-kindel-media-8164443.mp4	0.0	250.2348997592926	0.0846869945526123
54	148.01581192016602	response	0	2		52.0	2.5	/experiments/knapen_aot/videos/R_S_pexels-kindel-media-8164443.mp4	0.0	250.31014275550842	
54	148.0252559185028	movie	1		167.0	52.0	2.5	/experiments/knapen_aot/videos/R_S_pexels-kindel-media-8164443.mp4	0.0	250.31958675384521	2.5071048736572266
54	150.53236079216003	fix_post	2		12.0	52.0	2.5	/experiments/knapen_aot/videos/R_S_pexels-kindel-media-8164443.mp4	0.0	252.82669162750244	0.10030722618103027
55	150.63266801834106	fix_pre	0		6.0	53.0	2.5	/experiments/knapen_aot/videos/R_S_yt-xCh0LI9VKeI_28.mp4	0.0	252.92699885368347	0.04964089393615723
55	150.6741077899933	response	0	2		53.0	2.5	/experiments/knapen_aot/videos/R_S_yt-xCh0LI9VKeI_28.mp4	0.0	252.9684386253357	
55	150.68230891227722	movie	1		301.0	53.0	2.5	/experiments/knapen_aot/videos/R_S_yt-xCh0LI9VKeI_28.mp4	0.0	252.97663974761963	2.5083799362182617
55	153.19068884849548	fix_post	2		12.0	53.0	2.5	/experiments/knapen_aot/videos/R_S_yt-xCh0LI9VKeI_28.mp4	0.0	255.4850196838379	0.09996700286865234
56	153.29065585136414	fix_pre	0		8.0	54.0	2.5	/experiments/knapen_aot/videos/S_yt-bZfmqTZ-d2k_112.mp4	0.0	255.58498668670654	0.06661415100097656
56	153.34901595115662	response	0	2		54.0	2.5	/experiments/knapen_aot/videos/S_yt-bZfmqTZ-d2k_112.mp4	0.0	255.64334678649902	
56	153.3572700023651	movie	1		301.0	54.0	2.5	/experiments/knapen_aot/videos/S_yt-bZfmqTZ-d2k_112.mp4	0.0	255.65160083770752	2.5083839893341064
56	155.86565399169922	fix_post	2		12.0	54.0	2.5	/experiments/knapen_aot/videos/S_yt-bZfmqTZ-d2k_112.mp4	0.0	258.1599848270416	0.10004997253417969
57	155.9657039642334	fix_pre	0		22.0	55.0	2.5	blank	1.0	258.2600347995758	0.18334698677062988
57	156.14076685905457	response	0	2		55.0	2.5	blank	1.0	258.435097694397	
57	156.14905095100403	movie	1		301.0	55.0	2.5	blank	1.0	258.44338178634644	2.5081770420074463
57	158.65722799301147	fix_post	2		12.0	55.0	2.5	blank	1.0	260.9515588283539	0.10010480880737305
58	158.75733280181885	fix_pre	0		19.0	56.0	2.5	/experiments/knapen_aot/videos/R_S_yt-MTo50ReVNmU_2.mp4	0.0	261.05166363716125	0.1582322120666504
58	158.90732383728027	response	0	2		56.0	2.5	/experiments/knapen_aot/videos/R_S_yt-MTo50ReVNmU_2.mp4	0.0	261.2016546726227	
58	158.9155650138855	movie	1		301.0	56.0	2.5	/experiments/knapen_aot/videos/R_S_yt-MTo50ReVNmU_2.mp4	0.0	261.2098958492279	2.5083580017089844
58	161.42392301559448	fix_post	2		12.0	56.0	2.5	/experiments/knapen_aot/videos/R_S_yt-MTo50ReVNmU_2.mp4	0.0	263.7182538509369	0.10008096694946289
59	161.52400398254395	fix_pre	0		8.0	57.0	2.5	/experiments/knapen_aot/videos/S_ILSVRC2015_train_00451000.mp4	0.0	263.81833481788635	0.06654882431030273
59	161.58225893974304	response	0	2		57.0	2.5	/experiments/knapen_aot/videos/S_ILSVRC2015_train_00451000.mp4	0.0	263.87658977508545	
59	161.59055280685425	movie	1		301.0	57.0	2.5	/experiments/knapen_aot/videos/S_ILSVRC2015_train_00451000.mp4	0.0	263.88488364219666	2.5083441734313965
59	164.09889698028564	fix_post	2		12.0	57.0	2.5	/experiments/knapen_aot/videos/S_ILSVRC2015_train_00451000.mp4	0.0	266.39322781562805	0.09999203681945801
60	164.1988890171051	fix_pre	0		18.0	58.0	2.5	/experiments/knapen_aot/videos/S_video_inspire_oregon_lone-ranch-beach_00001.1080-h264.mp4	0.0	266.4932198524475	0.15000081062316895
60	164.34068083763123	response	0	2		58.0	2.5	/experiments/knapen_aot/videos/S_video_inspire_oregon_lone-ranch-beach_00001.1080-h264.mp4	0.0	266.63501167297363	
60	164.34888982772827	movie	1		167.0	58.0	2.5	/experiments/knapen_aot/videos/S_video_inspire_oregon_lone-ranch-beach_00001.1080-h264.mp4	0.0	266.6432206630707	2.5083260536193848
60	166.85721588134766	fix_post	2		12.0	58.0	2.5	/experiments/knapen_aot/videos/S_video_inspire_oregon_lone-ranch-beach_00001.1080-h264.mp4	0.0	269.15154671669006	0.10001707077026367
61	166.95723295211792	fix_pre	0		17.0	59.0	2.5	/experiments/knapen_aot/videos/S_production_ID_3943334.mp4	0.0	269.2515637874603	0.1416618824005127
61	167.09070301055908	response	0	2		59.0	2.5	/experiments/knapen_aot/videos/S_production_ID_3943334.mp4	0.0	269.3850338459015	
61	167.09889483451843	movie	1		202.0	59.0	2.5	/experiments/knapen_aot/videos/S_production_ID_3943334.mp4	0.0	269.39322566986084	2.508289098739624
61	169.60718393325806	fix_post	2		12.0	59.0	2.5	/experiments/knapen_aot/videos/S_production_ID_3943334.mp4	0.0	271.90151476860046	0.10001301765441895
62	169.70719695091248	fix_pre	0		8.0	60.0	2.5	/experiments/knapen_aot/videos/S_ILSVRC2015_train_00638001.mp4	0.0	272.0015277862549	0.06777191162109375
62	169.76564192771912	response	0	2		60.0	2.5	/experiments/knapen_aot/videos/S_ILSVRC2015_train_00638001.mp4	0.0	272.0599727630615	
62	169.77496886253357	movie	1		301.0	60.0	2.5	/experiments/knapen_aot/videos/S_ILSVRC2015_train_00638001.mp4	0.0	272.069299697876	2.507209062576294
62	172.28217792510986	fix_post	2		12.0	60.0	2.5	/experiments/knapen_aot/videos/S_ILSVRC2015_train_00638001.mp4	0.0	274.57650876045227	0.10008406639099121
63	172.38226199150085	fix_pre	0		8.0	61.0	2.5	/experiments/knapen_aot/videos/S_yt-ZzC953ahaxs_195.mp4	0.0	274.67659282684326	0.06648993492126465
63	172.44062185287476	response	0	2		61.0	2.5	/experiments/knapen_aot/videos/S_yt-ZzC953ahaxs_195.mp4	0.0	274.73495268821716	
63	172.44875192642212	movie	1		301.0	61.0	2.5	/experiments/knapen_aot/videos/S_yt-ZzC953ahaxs_195.mp4	0.0	274.7430827617645	2.5084009170532227
63	174.95715284347534	fix_post	2		12.0	61.0	2.5	/experiments/knapen_aot/videos/S_yt-ZzC953ahaxs_195.mp4	0.0	277.25148367881775	0.10001206398010254
64	175.05716490745544	fix_pre	0		13.0	62.0	2.5	/experiments/knapen_aot/videos/S_yt-AuQ_WxaNy4Y_255.mp4	0.0	277.35149574279785	0.10833907127380371
64	175.15725588798523	response	0	2		62.0	2.5	/experiments/knapen_aot/videos/S_yt-AuQ_WxaNy4Y_255.mp4	0.0	277.45158672332764	
64	175.16550397872925	movie	1		301.0	62.0	2.5	/experiments/knapen_aot/videos/S_yt-AuQ_WxaNy4Y_255.mp4	0.0	277.45983481407166	2.508359909057617
64	177.67386388778687	fix_post	2		12.0	62.0	2.5	/experiments/knapen_aot/videos/S_yt-AuQ_WxaNy4Y_255.mp4	0.0	279.9681947231293	0.09998011589050293
65	177.77384400367737	fix_pre	0		77.0	63.0	2.5	blank	1.0	280.0681748390198	0.6416568756103516
65	178.4072937965393	response	0	2		63.0	2.5	blank	1.0	280.7016246318817	
65	178.41550087928772	movie	1		301.0	63.0	2.5	blank	1.0	280.7098317146301	2.5083370208740234
65	180.92383790016174	fix_post	2		12.0	63.0	2.5	blank	1.0	283.21816873550415	0.09996294975280762
66	181.02380084991455	fix_pre	0		13.0	64.0	2.5	/experiments/knapen_aot/videos/S_yt-EApB0DJ3ECg_119.mp4	0.0	283.31813168525696	0.1082761287689209
66	181.1239149570465	response	0	2		64.0	2.5	/experiments/knapen_aot/videos/S_yt-EApB0DJ3ECg_119.mp4	0.0	283.4182457923889	
66	181.13207697868347	movie	1		301.0	64.0	2.5	/experiments/knapen_aot/videos/S_yt-EApB0DJ3ECg_119.mp4	0.0	283.4264078140259	2.5083789825439453
66	183.64045596122742	fix_post	2		12.0	64.0	2.5	/experiments/knapen_aot/videos/S_yt-EApB0DJ3ECg_119.mp4	0.0	285.9347867965698	0.1000518798828125
67	183.74050784111023	fix_pre	0		27.0	65.0	2.5	/experiments/knapen_aot/videos/R_S_yt-cjndulbUtRc_51.mp4	0.0	286.03483867645264	0.22507214546203613
67	183.94966101646423	response	0	2		65.0	2.5	/experiments/knapen_aot/videos/R_S_yt-cjndulbUtRc_51.mp4	0.0	286.24399185180664	
67	183.96557998657227	movie	1		301.0	65.0	2.5	/experiments/knapen_aot/videos/R_S_yt-cjndulbUtRc_51.mp4	0.0	286.2599108219147	2.5082499980926514
67	186.47382998466492	fix_post	2		12.0	65.0	2.5	/experiments/knapen_aot/videos/R_S_yt-cjndulbUtRc_51.mp4	0.0	288.7681608200073	0.09994983673095703
68	186.57377982139587	fix_pre	0		10.0	66.0	2.5	/experiments/knapen_aot/videos/S_ILSVRC2015_train_00599000.mp4	0.0	288.8681106567383	0.08340907096862793
68	186.64897084236145	response	0	2		66.0	2.5	/experiments/knapen_aot/videos/S_ILSVRC2015_train_00599000.mp4	0.0	288.94330167770386	
68	186.6571888923645	movie	1		301.0	66.0	2.5	/experiments/knapen_aot/videos/S_ILSVRC2015_train_00599000.mp4	0.0	288.9515197277069	2.5082740783691406
68	189.16546297073364	fix_post	2		12.0	66.0	2.5	/experiments/knapen_aot/videos/S_ILSVRC2015_train_00599000.mp4	0.0	291.45979380607605	0.09995293617248535
69	189.26541590690613	fix_pre	0		17.0	67.0	2.5	/experiments/knapen_aot/videos/R_S_ILSVRC2015_train_00044004.mp4	0.0	291.55974674224854	0.1417860984802246
69	189.39891386032104	response	0	2		67.0	2.5	/experiments/knapen_aot/videos/R_S_ILSVRC2015_train_00044004.mp4	0.0	291.69324469566345	
69	189.40720200538635	movie	1		301.0	67.0	2.5	/experiments/knapen_aot/videos/R_S_ILSVRC2015_train_00044004.mp4	0.0	291.70153284072876	2.5082879066467285
69	191.91548991203308	fix_post	2		12.0	67.0	2.5	/experiments/knapen_aot/videos/R_S_ILSVRC2015_train_00044004.mp4	0.0	294.2098207473755	0.09997701644897461
70	192.01546692848206	fix_pre	0		5.0	68.0	2.5	/experiments/knapen_aot/videos/R_S_ILSVRC2015_train_00079001.mp4	0.0	294.30979776382446	0.04164004325866699
70	192.0488657951355	response	0	2		68.0	2.5	/experiments/knapen_aot/videos/R_S_ILSVRC2015_train_00079001.mp4	0.0	294.3431966304779	
70	192.05710697174072	movie	1		301.0	68.0	2.5	/experiments/knapen_aot/videos/R_S_ILSVRC2015_train_00079001.mp4	0.0	294.35143780708313	2.508357048034668
70	194.5654640197754	fix_post	2		12.0	68.0	2.5	/experiments/knapen_aot/videos/R_S_ILSVRC2015_train_00079001.mp4	0.0	296.8597948551178	0.09998178482055664
71	194.66544580459595	fix_pre	0		9.0	69.0	2.5	/experiments/knapen_aot/videos/R_S_yt-YlA-FPDylDE_100.mp4	0.0	296.95977663993835	0.074951171875
71	194.73220491409302	response	0	2		69.0	2.5	/experiments/knapen_aot/videos/R_S_yt-YlA-FPDylDE_100.mp4	0.0	297.0265357494354	
71	194.74039697647095	movie	1		301.0	69.0	2.5	/experiments/knapen_aot/videos/R_S_yt-YlA-FPDylDE_100.mp4	0.0	297.03472781181335	2.508314847946167
71	197.24871182441711	fix_post	2		12.0	69.0	2.5	/experiments/knapen_aot/videos/R_S_yt-YlA-FPDylDE_100.mp4	0.0	299.5430426597595	0.10012006759643555
72	197.34883189201355	fix_pre	0		19.0	70.0	2.5	blank	1.0	299.64316272735596	0.15817689895629883
72	197.49129700660706	response	0	2		70.0	2.5	blank	1.0	299.78562784194946	
72	197.50700879096985	movie	1		301.0	70.0	2.5	blank	1.0	299.80133962631226	2.5083370208740234
72	200.01534581184387	fix_post	2		12.0	70.0	2.5	blank	1.0	302.3096766471863	0.10014820098876953
73	200.11549401283264	fix_pre	0		23.0	71.0	2.5	/experiments/knapen_aot/videos/R_S_yt-GaJaxp546lc_22.mp4	0.0	302.40982484817505	0.19152593612670898
73	200.29884600639343	response	0	2		71.0	2.5	/experiments/knapen_aot/videos/R_S_yt-GaJaxp546lc_22.mp4	0.0	302.59317684173584	
73	200.30701994895935	movie	1		301.0	71.0	2.5	/experiments/knapen_aot/videos/R_S_yt-GaJaxp546lc_22.mp4	0.0	302.60135078430176	2.5084478855133057
73	202.81546783447266	fix_post	2		12.0	71.0	2.5	/experiments/knapen_aot/videos/R_S_yt-GaJaxp546lc_22.mp4	0.0	305.10979866981506	0.0999910831451416
74	202.9154589176178	fix_pre	0		20.0	72.0	2.5	/experiments/knapen_aot/videos/S_yt-J1dw4AznwmQ_7.mp4	0.0	305.2097897529602	0.16655397415161133
74	203.07373785972595	response	0	2		72.0	2.5	/experiments/knapen_aot/videos/S_yt-J1dw4AznwmQ_7.mp4	0.0	305.36806869506836	
74	203.0820128917694	movie	1		301.0	72.0	2.5	/experiments/knapen_aot/videos/S_yt-J1dw4AznwmQ_7.mp4	0.0	305.3763437271118	2.508359909057617
74	205.59037280082703	fix_post	2		12.0	72.0	2.5	/experiments/knapen_aot/videos/S_yt-J1dw4AznwmQ_7.mp4	0.0	307.88470363616943	0.09999513626098633
75	205.690367937088	fix_pre	0		28.0	73.0	2.5	/experiments/knapen_aot/videos/R_S_pexels-cottonbro-6789228.mp4	0.0	307.9846987724304	0.23333096504211426
75	205.91549587249756	response	0	2		73.0	2.5	/experiments/knapen_aot/videos/R_S_pexels-cottonbro-6789228.mp4	0.0	308.20982670783997	
75	205.92369890213013	movie	1		197.0	73.0	2.5	/experiments/knapen_aot/videos/R_S_pexels-cottonbro-6789228.mp4	0.0	308.21802973747253	2.5083250999450684
75	208.4320240020752	fix_post	2		12.0	73.0	2.5	/experiments/knapen_aot/videos/R_S_pexels-cottonbro-6789228.mp4	0.0	310.7263548374176	0.10010099411010742
76	208.5321249961853	fix_pre	0		6.0	74.0	2.5	/experiments/knapen_aot/videos/R_S_video_inspire_oregon_lone-ranch-beach_00001.1080-h264.mp4	0.0	310.8264558315277	0.04999184608459473
76	208.57379388809204	response	0	2		74.0	2.5	/experiments/knapen_aot/videos/R_S_video_inspire_oregon_lone-ranch-beach_00001.1080-h264.mp4	0.0	310.86812472343445	
76	208.5821168422699	movie	1		193.0	74.0	2.5	/experiments/knapen_aot/videos/R_S_video_inspire_oregon_lone-ranch-beach_00001.1080-h264.mp4	0.0	310.8764476776123	2.5082430839538574
76	211.09035992622375	fix_post	2		12.0	74.0	2.5	/experiments/knapen_aot/videos/R_S_video_inspire_oregon_lone-ranch-beach_00001.1080-h264.mp4	0.0	313.38469076156616	0.10001587867736816
77	211.19037580490112	fix_pre	0		5.0	75.0	2.5	/experiments/knapen_aot/videos/S_b6-4.mp4	0.0	313.48470664024353	0.04263710975646973
77	211.2238597869873	response	0	2		75.0	2.5	/experiments/knapen_aot/videos/S_b6-4.mp4	0.0	313.5181906223297	
77	211.2330129146576	movie	1		172.0	75.0	2.5	/experiments/knapen_aot/videos/S_b6-4.mp4	0.0	313.52734375	2.5074288845062256
77	213.74044179916382	fix_post	2		12.0	75.0	2.5	/experiments/knapen_aot/videos/S_b6-4.mp4	0.0	316.0347726345062	0.09997415542602539
78	213.84041595458984	fix_pre	0		31.0	76.0	2.5	blank	1.0	316.13474678993225	0.25830984115600586
78	214.0905578136444	response	0	2		76.0	2.5	blank	1.0	316.3848886489868	
78	214.09872579574585	movie	1		301.0	76.0	2.5	blank	1.0	316.39305663108826	2.5083110332489014
78	216.60703682899475	fix_post	2		12.0	76.0	2.5	blank	1.0	318.90136766433716	0.10013103485107422
79	216.70716786384583	fix_pre	0		30.0	77.0	2.5	/experiments/knapen_aot/videos/R_S_pexels-cottonbro-10639398.mp4	0.0	319.00149869918823	0.2498331069946289
79	216.94877195358276	response	0	2		77.0	2.5	/experiments/knapen_aot/videos/R_S_pexels-cottonbro-10639398.mp4	0.0	319.24310278892517	
79	216.95700097084045	movie	1		203.0	77.0	2.5	/experiments/knapen_aot/videos/R_S_pexels-cottonbro-10639398.mp4	0.0	319.25133180618286	2.508366823196411
79	219.46536779403687	fix_post	2		12.0	77.0	2.5	/experiments/knapen_aot/videos/R_S_pexels-cottonbro-10639398.mp4	0.0	321.7596986293793	0.09997415542602539
80	219.5653419494629	fix_pre	0		27.0	78.0	2.5	/experiments/knapen_aot/videos/R_S_ILSVRC2015_train_00756000.mp4	0.0	321.8596727848053	0.22498106956481934
80	219.77458596229553	response	0	2		78.0	2.5	/experiments/knapen_aot/videos/R_S_ILSVRC2015_train_00756000.mp4	0.0	322.06891679763794	
80	219.7903230190277	movie	1		301.0	78.0	2.5	/experiments/knapen_aot/videos/R_S_ILSVRC2015_train_00756000.mp4	0.0	322.0846538543701	2.5083699226379395
80	222.29869294166565	fix_post	2		12.0	78.0	2.5	/experiments/knapen_aot/videos/R_S_ILSVRC2015_train_00756000.mp4	0.0	324.59302377700806	0.10001492500305176
81	222.3987078666687	fix_pre	0		26.0	79.0	2.5	/experiments/knapen_aot/videos/R_S_yt-nE8YJOhW4e4_171.mp4	0.0	324.6930387020111	0.21653199195861816
81	222.60712599754333	response	0	4		79.0	2.5	/experiments/knapen_aot/videos/R_S_yt-nE8YJOhW4e4_171.mp4	0.0	324.90145683288574	
81	222.61523985862732	movie	1		301.0	79.0	2.5	/experiments/knapen_aot/videos/R_S_yt-nE8YJOhW4e4_171.mp4	0.0	324.9095706939697	2.5084469318389893
81	225.1236867904663	fix_post	2		12.0	79.0	2.5	/experiments/knapen_aot/videos/R_S_yt-nE8YJOhW4e4_171.mp4	0.0	327.4180176258087	0.10016703605651855
82	225.22385382652283	fix_pre	0		3.0	80.0	2.5	/experiments/knapen_aot/videos/R_S_ILSVRC2015_train_00451000.mp4	0.0	327.51818466186523	0.02480006217956543
82	225.2403748035431	response	0	4		80.0	2.5	/experiments/knapen_aot/videos/R_S_ILSVRC2015_train_00451000.mp4	0.0	327.5347056388855	
82	225.2486538887024	movie	1		301.0	80.0	2.5	/experiments/knapen_aot/videos/R_S_ILSVRC2015_train_00451000.mp4	0.0	327.5429847240448	2.508310079574585
82	227.75696396827698	fix_post	2		12.0	80.0	2.5	/experiments/knapen_aot/videos/R_S_ILSVRC2015_train_00451000.mp4	0.0	330.0512948036194	0.09997296333312988
83	227.8569369316101	fix_pre	0		2.0	81.0	2.5	/experiments/knapen_aot/videos/S_yt-_6j2NXrB-zE_28.mp4	0.0	330.1512677669525	0.01665496826171875
83	227.86538887023926	response	0	4		81.0	2.5	/experiments/knapen_aot/videos/S_yt-_6j2NXrB-zE_28.mp4	0.0	330.15971970558167	
83	227.87359189987183	movie	1		301.0	81.0	2.5	/experiments/knapen_aot/videos/S_yt-_6j2NXrB-zE_28.mp4	0.0	330.16792273521423	2.508371114730835
83	230.38196301460266	fix_post	2		12.0	81.0	2.5	/experiments/knapen_aot/videos/S_yt-_6j2NXrB-zE_28.mp4	0.0	332.67629384994507	0.09995293617248535
84	230.48191595077515	fix_pre	0		2.0	82.0	2.5	blank	1.0	332.77624678611755	0.01667189598083496
84	230.4904499053955	response	0	4		82.0	2.5	blank	1.0	332.7847807407379	
84	230.49858784675598	movie	1		301.0	82.0	2.5	blank	1.0	332.7929186820984	2.508352041244507
84	233.0069398880005	fix_post	2		12.0	82.0	2.5	blank	1.0	335.3012707233429	0.10018205642700195
85	233.1071219444275	fix_pre	0		23.0	83.0	2.5	/experiments/knapen_aot/videos/S_yt-Uv0dt_-fWJU_40.mp4	0.0	335.4014527797699	0.19145488739013672
85	233.29034399986267	response	0	4		83.0	2.5	/experiments/knapen_aot/videos/S_yt-Uv0dt_-fWJU_40.mp4	0.0	335.5846748352051	
85	233.29857683181763	movie	1		301.0	83.0	2.5	/experiments/knapen_aot/videos/S_yt-Uv0dt_-fWJU_40.mp4	0.0	335.59290766716003	2.508347988128662
85	235.8069248199463	fix_post	2		12.0	83.0	2.5	/experiments/knapen_aot/videos/S_yt-Uv0dt_-fWJU_40.mp4	0.0	338.1012556552887	0.10002398490905762
87	235.90694880485535	stim	0		75.0					338.20127964019775	0.6249611377716064
87	235.9003529548645	response	0	4						338.1946837902069	
87	236.52083778381348	response	0	space						338.8151686191559	
