trial_nr	onset	event_type	phase	response	nr_frames	movie_index	movie_duration	movie_file	blank	onset_abs	duration
0	0.12947297096252441	stim	0		1.0					58.62593197822571	0.012135982513427734
0	0.13106989860534668	response	0	space						58.62752890586853	
1	0.14160895347595215	stim	0		120.0					58.638067960739136	1.0002110004425049
1	1.141819953918457	stim	1		120.0					59.63827896118164	0.9994320869445801
1	1.3667118549346924	response	1	space						59.863170862197876	
1	2.074671983718872	response	1	space						60.571130990982056	
2	2.141252040863037	fix_pre	0		137.0	0.0	2.5	/experiments/knapen_aot/videos/R_S_yt-EZCX42e_bkc_78.mp4	0.0	60.63771104812622	1.1416070461273193
2	3.274704933166504	response	0	space		0.0	2.5	/experiments/knapen_aot/videos/R_S_yt-EZCX42e_bkc_78.mp4	0.0	61.77116394042969	
2	3.2828590869903564	movie	1		300.0	0.0	2.5	/experiments/knapen_aot/videos/R_S_yt-EZCX42e_bkc_78.mp4	0.0	61.77931809425354	2.5083558559417725
2	5.791214942932129	fix_post	2		12.0	0.0	2.5	/experiments/knapen_aot/videos/R_S_yt-EZCX42e_bkc_78.mp4	0.0	64.28767395019531	0.10002398490905762
3	5.8912389278411865	fix_pre	0		64.0	1.0	2.5	/experiments/knapen_aot/videos/S_yt-1XfKrSmjtl4_443.mp4	0.0	64.38769793510437	0.5364630222320557
3	6.414015054702759	response	0	2		1.0	2.5	/experiments/knapen_aot/videos/S_yt-1XfKrSmjtl4_443.mp4	0.0	64.91047406196594	
3	6.427701950073242	movie	1		290.0	1.0	2.5	/experiments/knapen_aot/videos/S_yt-1XfKrSmjtl4_443.mp4	0.0	64.92416095733643	2.5052390098571777
3	8.93294095993042	fix_post	2		12.0	1.0	2.5	/experiments/knapen_aot/videos/S_yt-1XfKrSmjtl4_443.mp4	0.0	67.4293999671936	0.09995102882385254
4	9.032891988754272	fix_pre	0		46.0	2.0	2.5	/experiments/knapen_aot/videos/R_S_pexels-kampus-production-5991896.mp4	0.0	67.52935099601746	0.3833019733428955
4	9.40804386138916	response	0	2		2.0	2.5	/experiments/knapen_aot/videos/R_S_pexels-kampus-production-5991896.mp4	0.0	67.90450286865234	
4	9.416193962097168	movie	1		164.0	2.0	2.5	/experiments/knapen_aot/videos/R_S_pexels-kampus-production-5991896.mp4	0.0	67.91265296936035	2.5083909034729004
4	11.924584865570068	fix_post	2		12.0	2.0	2.5	/experiments/knapen_aot/videos/R_S_pexels-kampus-production-5991896.mp4	0.0	70.42104387283325	0.10039019584655762
5	12.024975061416626	fix_pre	0		38.0	3.0	2.5	/experiments/knapen_aot/videos/S_yt-3ohvpS42xug_184.mp4	0.0	70.52143406867981	0.3162529468536377
5	12.3330659866333	response	0	2		3.0	2.5	/experiments/knapen_aot/videos/S_yt-3ohvpS42xug_184.mp4	0.0	70.82952499389648	
5	12.341228008270264	movie	1		301.0	3.0	2.5	/experiments/knapen_aot/videos/S_yt-3ohvpS42xug_184.mp4	0.0	70.83768701553345	2.5084218978881836
5	14.849649906158447	fix_post	2		12.0	3.0	2.5	/experiments/knapen_aot/videos/S_yt-3ohvpS42xug_184.mp4	0.0	73.34610891342163	0.09992003440856934
6	14.949569940567017	fix_pre	0		37.0	4.0	2.5	/experiments/knapen_aot/videos/S_ILSVRC2015_train_00165008.mp4	0.0	73.4460289478302	0.30829405784606934
6	15.249706983566284	response	0	2		4.0	2.5	/experiments/knapen_aot/videos/S_ILSVRC2015_train_00165008.mp4	0.0	73.74616599082947	
6	15.257863998413086	movie	1		301.0	4.0	2.5	/experiments/knapen_aot/videos/S_ILSVRC2015_train_00165008.mp4	0.0	73.75432300567627	2.508409023284912
6	17.766273021697998	fix_post	2		12.0	4.0	2.5	/experiments/knapen_aot/videos/S_ILSVRC2015_train_00165008.mp4	0.0	76.26273202896118	0.09996294975280762
7	17.866235971450806	fix_pre	0		31.0	5.0	2.5	/experiments/knapen_aot/videos/R_S_Pexels_Videos_2795731_1.mp4	0.0	76.36269497871399	0.25829410552978516
7	18.116328954696655	response	0	2		5.0	2.5	/experiments/knapen_aot/videos/R_S_Pexels_Videos_2795731_1.mp4	0.0	76.61278796195984	
7	18.12453007698059	movie	1		163.0	5.0	2.5	/experiments/knapen_aot/videos/R_S_Pexels_Videos_2795731_1.mp4	0.0	76.62098908424377	2.5083019733428955
7	20.632832050323486	fix_post	2		12.0	5.0	2.5	/experiments/knapen_aot/videos/R_S_Pexels_Videos_2795731_1.mp4	0.0	79.12929105758667	0.10024881362915039
8	20.733080863952637	fix_pre	0		49.0	6.0	2.5	/experiments/knapen_aot/videos/S_ILnEDG_aP1A_35.mp4	0.0	79.22953987121582	0.4080471992492676
8	21.132982969284058	response	0	2		6.0	2.5	/experiments/knapen_aot/videos/S_ILnEDG_aP1A_35.mp4	0.0	79.62944197654724	
8	21.141128063201904	movie	1		301.0	6.0	2.5	/experiments/knapen_aot/videos/S_ILnEDG_aP1A_35.mp4	0.0	79.63758707046509	2.508373975753784
8	23.64950203895569	fix_post	2		12.0	6.0	2.5	/experiments/knapen_aot/videos/S_ILnEDG_aP1A_35.mp4	0.0	82.14596104621887	0.10002589225769043
9	23.74952793121338	fix_pre	0		85.0	7.0	2.5	blank	1.0	82.24598693847656	0.7082281112670898
9	24.44962787628174	response	0	2		7.0	2.5	blank	1.0	82.94608688354492	
9	24.45775604248047	movie	1		301.0	7.0	2.5	blank	1.0	82.95421504974365	2.5083978176116943
9	26.966153860092163	fix_post	2		12.0	7.0	2.5	blank	1.0	85.46261286735535	0.09999513626098633
10	27.06614899635315	fix_pre	0		80.0	8.0	2.5	/experiments/knapen_aot/videos/R_S_yt-bQRBtP9zkms_111.mp4	0.0	85.56260800361633	0.6668860912322998
10	27.724565982818604	response	0	2		8.0	2.5	/experiments/knapen_aot/videos/R_S_yt-bQRBtP9zkms_111.mp4	0.0	86.22102499008179	
10	27.73303508758545	movie	1		301.0	8.0	2.5	/experiments/knapen_aot/videos/R_S_yt-bQRBtP9zkms_111.mp4	0.0	86.22949409484863	2.5081307888031006
10	30.24116587638855	fix_post	2		12.0	8.0	2.5	/experiments/knapen_aot/videos/R_S_yt-bQRBtP9zkms_111.mp4	0.0	88.73762488365173	0.09999704360961914
11	30.34116291999817	fix_pre	0		52.0	9.0	2.5	/experiments/knapen_aot/videos/R_S_yt-giRwl4yChlw_9.mp4	0.0	88.83762192726135	0.4334750175476074
11	30.766252994537354	response	0	2		9.0	2.5	/experiments/knapen_aot/videos/R_S_yt-giRwl4yChlw_9.mp4	0.0	89.26271200180054	
11	30.774637937545776	movie	1		301.0	9.0	2.5	/experiments/knapen_aot/videos/R_S_yt-giRwl4yChlw_9.mp4	0.0	89.27109694480896	2.5081470012664795
11	33.282784938812256	fix_post	2		12.0	9.0	2.5	/experiments/knapen_aot/videos/R_S_yt-giRwl4yChlw_9.mp4	0.0	91.77924394607544	0.10004305839538574
12	33.38282799720764	fix_pre	0		49.0	10.0	2.5	/experiments/knapen_aot/videos/R_S_yt-feTWuKPZA_k_34.mp4	0.0	91.87928700447083	0.4083089828491211
12	33.77543902397156	response	0	2		10.0	2.5	/experiments/knapen_aot/videos/R_S_yt-feTWuKPZA_k_34.mp4	0.0	92.27189803123474	
12	33.79113698005676	movie	1		301.0	10.0	2.5	/experiments/knapen_aot/videos/R_S_yt-feTWuKPZA_k_34.mp4	0.0	92.28759598731995	2.5083489418029785
12	36.29948592185974	fix_post	2		12.0	10.0	2.5	/experiments/knapen_aot/videos/R_S_yt-feTWuKPZA_k_34.mp4	0.0	94.79594492912292	0.10020899772644043
13	36.39969491958618	fix_pre	0		36.0	11.0	2.5	/experiments/knapen_aot/videos/S_yt--DXkjCUzThU_413.mp4	0.0	94.89615392684937	0.2997729778289795
13	36.68372201919556	response	0	2		11.0	2.5	/experiments/knapen_aot/videos/S_yt--DXkjCUzThU_413.mp4	0.0	95.18018102645874	
13	36.69946789741516	movie	1		301.0	11.0	2.5	/experiments/knapen_aot/videos/S_yt--DXkjCUzThU_413.mp4	0.0	95.19592690467834	2.5083370208740234
13	39.207804918289185	fix_post	2		12.0	11.0	2.5	/experiments/knapen_aot/videos/S_yt--DXkjCUzThU_413.mp4	0.0	97.70426392555237	0.0999460220336914
14	39.307750940322876	fix_pre	0		54.0	12.0	2.5	/experiments/knapen_aot/videos/S_nvbAwZOKBS8_23.mp4	0.0	97.80420994758606	0.4500010013580322
14	39.74943804740906	response	0	2		12.0	2.5	/experiments/knapen_aot/videos/S_nvbAwZOKBS8_23.mp4	0.0	98.24589705467224	
14	39.75775194168091	movie	1		301.0	12.0	2.5	/experiments/knapen_aot/videos/S_nvbAwZOKBS8_23.mp4	0.0	98.25421094894409	2.508389949798584
14	42.26614189147949	fix_post	2		12.0	12.0	2.5	/experiments/knapen_aot/videos/S_nvbAwZOKBS8_23.mp4	0.0	100.76260089874268	0.10000014305114746
15	42.36614203453064	fix_pre	0		48.0	13.0	2.5	/experiments/knapen_aot/videos/R_S_ILSVRC2015_train_00469000.mp4	0.0	100.86260104179382	0.3999369144439697
15	42.75784206390381	response	0	2		13.0	2.5	/experiments/knapen_aot/videos/R_S_ILSVRC2015_train_00469000.mp4	0.0	101.25430107116699	
15	42.76607894897461	movie	1		301.0	13.0	2.5	/experiments/knapen_aot/videos/R_S_ILSVRC2015_train_00469000.mp4	0.0	101.2625379562378	2.5088491439819336
15	45.27492809295654	fix_post	2		12.0	13.0	2.5	/experiments/knapen_aot/videos/R_S_ILSVRC2015_train_00469000.mp4	0.0	103.77138710021973	0.09947085380554199
16	45.374398946762085	fix_pre	0		33.0	14.0	2.5	blank	1.0	103.87085795402527	0.27515411376953125
16	45.64134097099304	response	0	2		14.0	2.5	blank	1.0	104.13779997825623	
16	45.649553060531616	movie	1		301.0	14.0	2.5	blank	1.0	104.1460120677948	2.5082318782806396
16	48.157784938812256	fix_post	2		12.0	14.0	2.5	blank	1.0	106.65424394607544	0.09997701644897461
17	48.25776195526123	fix_pre	0		58.0	15.0	2.5	/experiments/knapen_aot/videos/R_S_yt-gaXgXGEanCk_140.mp4	0.0	106.75422096252441	0.48331499099731445
17	48.73281288146973	response	0	2		15.0	2.5	/experiments/knapen_aot/videos/R_S_yt-gaXgXGEanCk_140.mp4	0.0	107.22927188873291	
17	48.741076946258545	movie	1		301.0	15.0	2.5	/experiments/knapen_aot/videos/R_S_yt-gaXgXGEanCk_140.mp4	0.0	107.23753595352173	2.5083160400390625
17	51.24939298629761	fix_post	2		12.0	15.0	2.5	/experiments/knapen_aot/videos/R_S_yt-gaXgXGEanCk_140.mp4	0.0	109.74585199356079	0.09998703002929688
18	51.349380016326904	fix_pre	0		49.0	16.0	2.5	/experiments/knapen_aot/videos/S_pexels-rodnae-productions-5617905.mp4	0.0	109.84583902359009	0.4083108901977539
18	51.74949502944946	response	0	2		16.0	2.5	/experiments/knapen_aot/videos/S_pexels-rodnae-productions-5617905.mp4	0.0	110.24595403671265	
18	51.75769090652466	movie	1		203.0	16.0	2.5	/experiments/knapen_aot/videos/S_pexels-rodnae-productions-5617905.mp4	0.0	110.25414991378784	2.5083601474761963
18	54.266051054000854	fix_post	2		12.0	16.0	2.5	/experiments/knapen_aot/videos/S_pexels-rodnae-productions-5617905.mp4	0.0	112.76251006126404	0.09998893737792969
19	54.366039991378784	fix_pre	0		35.0	17.0	2.5	/experiments/knapen_aot/videos/S_yt-3TF_RGo9cLs_541.mp4	0.0	112.86249899864197	0.29160308837890625
19	54.649532079696655	response	0	2		17.0	2.5	/experiments/knapen_aot/videos/S_yt-3TF_RGo9cLs_541.mp4	0.0	113.14599108695984	
19	54.65764307975769	movie	1		301.0	17.0	2.5	/experiments/knapen_aot/videos/S_yt-3TF_RGo9cLs_541.mp4	0.0	113.15410208702087	2.508471965789795
19	57.166115045547485	fix_post	2		12.0	17.0	2.5	/experiments/knapen_aot/videos/S_yt-3TF_RGo9cLs_541.mp4	0.0	115.66257405281067	0.0998690128326416
20	57.26598405838013	fix_pre	0		67.0	18.0	2.5	/experiments/knapen_aot/videos/S_yt-e_eOzV7qMZo_374.mp4	0.0	115.76244306564331	0.5583159923553467
20	57.81612706184387	response	0	2		18.0	2.5	/experiments/knapen_aot/videos/S_yt-e_eOzV7qMZo_374.mp4	0.0	116.31258606910706	
20	57.824300050735474	movie	1		301.0	18.0	2.5	/experiments/knapen_aot/videos/S_yt-e_eOzV7qMZo_374.mp4	0.0	116.32075905799866	2.5084450244903564
20	60.33274507522583	fix_post	2		12.0	18.0	2.5	/experiments/knapen_aot/videos/S_yt-e_eOzV7qMZo_374.mp4	0.0	118.82920408248901	0.09997296333312988
21	60.43271803855896	fix_pre	0		37.0	19.0	2.5	/experiments/knapen_aot/videos/S_yt-mdLT282PVbE_6.mp4	0.0	118.92917704582214	0.3082759380340576
21	60.73280191421509	response	0	2		19.0	2.5	/experiments/knapen_aot/videos/S_yt-mdLT282PVbE_6.mp4	0.0	119.22926092147827	
21	60.74099397659302	movie	1		301.0	19.0	2.5	/experiments/knapen_aot/videos/S_yt-mdLT282PVbE_6.mp4	0.0	119.2374529838562	2.5083560943603516
21	63.24935007095337	fix_post	2		12.0	19.0	2.5	/experiments/knapen_aot/videos/S_yt-mdLT282PVbE_6.mp4	0.0	121.74580907821655	0.10000896453857422
22	63.34935903549194	fix_pre	0		45.0	20.0	2.5	/experiments/knapen_aot/videos/R_S_yt-Dj42sI_Z-kQ_38.mp4	0.0	121.84581804275513	0.3749229907989502
22	63.70854091644287	response	0	2		20.0	2.5	/experiments/knapen_aot/videos/R_S_yt-Dj42sI_Z-kQ_38.mp4	0.0	122.20499992370605	
22	63.724282026290894	movie	1		300.0	20.0	2.5	/experiments/knapen_aot/videos/R_S_yt-Dj42sI_Z-kQ_38.mp4	0.0	122.22074103355408	2.508488893508911
22	66.2327709197998	fix_post	2		12.0	20.0	2.5	/experiments/knapen_aot/videos/R_S_yt-Dj42sI_Z-kQ_38.mp4	0.0	124.72922992706299	0.09989595413208008
23	66.33266687393188	fix_pre	0		45.0	21.0	2.5	blank	1.0	124.82912588119507	0.3749229907989502
23	66.69198393821716	response	0	2		21.0	2.5	blank	1.0	125.18844294548035	
23	66.70758986473083	movie	1		301.0	21.0	2.5	blank	1.0	125.20404887199402	2.5083811283111572
23	69.21597099304199	fix_post	2		12.0	21.0	2.5	blank	1.0	127.71243000030518	0.10014486312866211
24	69.31611585617065	fix_pre	0		25.0	22.0	2.5	/experiments/knapen_aot/videos/R_S_PA_A002_C009_SDR_20190730_ALT01_SDR_2K_AVC.mp4	0.0	127.81257486343384	0.20818614959716797
24	69.51611804962158	response	0	2		22.0	2.5	/experiments/knapen_aot/videos/R_S_PA_A002_C009_SDR_20190730_ALT01_SDR_2K_AVC.mp4	0.0	128.01257705688477	
24	69.52430200576782	movie	1		168.0	22.0	2.5	/experiments/knapen_aot/videos/R_S_PA_A002_C009_SDR_20190730_ALT01_SDR_2K_AVC.mp4	0.0	128.020761013031	2.508341073989868
24	72.03264307975769	fix_post	2		12.0	22.0	2.5	/experiments/knapen_aot/videos/R_S_PA_A002_C009_SDR_20190730_ALT01_SDR_2K_AVC.mp4	0.0	130.52910208702087	0.09996700286865234
25	72.13261008262634	fix_pre	0		78.0	23.0	2.5	/experiments/knapen_aot/videos/S_Pexels_Videos_2795731_1.mp4	0.0	130.62906908988953	0.6499159336090088
25	72.7744209766388	response	0	2		23.0	2.5	/experiments/knapen_aot/videos/S_Pexels_Videos_2795731_1.mp4	0.0	131.27087998390198	
25	72.78252601623535	movie	1		162.0	23.0	2.5	/experiments/knapen_aot/videos/S_Pexels_Videos_2795731_1.mp4	0.0	131.27898502349854	2.508431911468506
25	75.29095792770386	fix_post	2		12.0	23.0	2.5	/experiments/knapen_aot/videos/S_Pexels_Videos_2795731_1.mp4	0.0	133.78741693496704	0.10009002685546875
26	75.39104795455933	fix_pre	0		44.0	24.0	2.5	/experiments/knapen_aot/videos/R_S_yt-PRqnM7xDsus_24.mp4	0.0	133.8875069618225	0.36653900146484375
26	75.74937200546265	response	0	2		24.0	2.5	/experiments/knapen_aot/videos/R_S_yt-PRqnM7xDsus_24.mp4	0.0	134.24583101272583	
26	75.75758695602417	movie	1		301.0	24.0	2.5	/experiments/knapen_aot/videos/R_S_yt-PRqnM7xDsus_24.mp4	0.0	134.25404596328735	2.5083839893341064
26	78.26597094535828	fix_post	2		12.0	24.0	2.5	/experiments/knapen_aot/videos/R_S_yt-PRqnM7xDsus_24.mp4	0.0	136.76242995262146	0.09997296333312988
27	78.3659439086914	fix_pre	0		50.0	25.0	2.5	/experiments/knapen_aot/videos/R_S_yt-wqdTPz0bLrM_561.mp4	0.0	136.8624029159546	0.416654109954834
27	78.77428698539734	response	0	2		25.0	2.5	/experiments/knapen_aot/videos/R_S_yt-wqdTPz0bLrM_561.mp4	0.0	137.27074599266052	
27	78.78259801864624	movie	1		301.0	25.0	2.5	/experiments/knapen_aot/videos/R_S_yt-wqdTPz0bLrM_561.mp4	0.0	137.27905702590942	2.5083260536193848
27	81.29092407226562	fix_post	2		12.0	25.0	2.5	/experiments/knapen_aot/videos/R_S_yt-wqdTPz0bLrM_561.mp4	0.0	139.7873830795288	0.09993290901184082
28	81.39085698127747	fix_pre	0		36.0	26.0	2.5	/experiments/knapen_aot/videos/S_yt-P8vJa4YVcGU_488.mp4	0.0	139.88731598854065	0.3000650405883789
28	81.6826400756836	response	0	2		26.0	2.5	/experiments/knapen_aot/videos/S_yt-P8vJa4YVcGU_488.mp4	0.0	140.17909908294678	
28	81.69092202186584	movie	1		301.0	26.0	2.5	/experiments/knapen_aot/videos/S_yt-P8vJa4YVcGU_488.mp4	0.0	140.18738102912903	2.50838303565979
28	84.19930505752563	fix_post	2		12.0	26.0	2.5	/experiments/knapen_aot/videos/S_yt-P8vJa4YVcGU_488.mp4	0.0	142.69576406478882	0.09994792938232422
29	84.29925298690796	fix_pre	0		57.0	27.0	2.5	blank	1.0	142.79571199417114	0.47498488426208496
29	84.76606702804565	response	0	2		27.0	2.5	blank	1.0	143.26252603530884	
29	84.77423787117004	movie	1		301.0	27.0	2.5	blank	1.0	143.27069687843323	2.5083370208740234
29	87.28257489204407	fix_post	2		12.0	27.0	2.5	blank	1.0	145.77903389930725	0.09998297691345215
30	87.38255786895752	fix_pre	0		70.0	28.0	2.5	/experiments/knapen_aot/videos/R_S_ILSVRC2015_train_00155004.mp4	0.0	145.8790168762207	0.5832581520080566
30	87.9576940536499	response	0	2		28.0	2.5	/experiments/knapen_aot/videos/R_S_ILSVRC2015_train_00155004.mp4	0.0	146.4541530609131	
30	87.96581602096558	movie	1		301.0	28.0	2.5	/experiments/knapen_aot/videos/R_S_ILSVRC2015_train_00155004.mp4	0.0	146.46227502822876	2.5084269046783447
30	90.47424292564392	fix_post	2		12.0	28.0	2.5	/experiments/knapen_aot/videos/R_S_ILSVRC2015_train_00155004.mp4	0.0	148.9707019329071	0.10001111030578613
31	90.5742540359497	fix_pre	0		41.0	29.0	2.5	/experiments/knapen_aot/videos/S_yt-a0axt7n0GuQ_19.mp4	0.0	149.0707130432129	0.3415839672088623
31	90.90771794319153	response	0	2		29.0	2.5	/experiments/knapen_aot/videos/S_yt-a0axt7n0GuQ_19.mp4	0.0	149.4041769504547	
31	90.91583800315857	movie	1		301.0	29.0	2.5	/experiments/knapen_aot/videos/S_yt-a0axt7n0GuQ_19.mp4	0.0	149.41229701042175	2.508315086364746
31	93.42415308952332	fix_post	2		12.0	29.0	2.5	/experiments/knapen_aot/videos/S_yt-a0axt7n0GuQ_19.mp4	0.0	151.9206120967865	0.10005784034729004
32	93.5242109298706	fix_pre	0		56.0	30.0	2.5	/experiments/knapen_aot/videos/S_yt-AOP7QYQntPI_28.mp4	0.0	152.0206699371338	0.46660900115966797
32	93.98263597488403	response	0	2		30.0	2.5	/experiments/knapen_aot/videos/S_yt-AOP7QYQntPI_28.mp4	0.0	152.47909498214722	
32	93.99081993103027	movie	1		301.0	30.0	2.5	/experiments/knapen_aot/videos/S_yt-AOP7QYQntPI_28.mp4	0.0	152.48727893829346	2.508371114730835
32	96.49919104576111	fix_post	2		12.0	30.0	2.5	/experiments/knapen_aot/videos/S_yt-AOP7QYQntPI_28.mp4	0.0	154.9956500530243	0.09998583793640137
33	96.59917688369751	fix_pre	0		50.0	31.0	2.5	/experiments/knapen_aot/videos/R_S_yt--5ls65Ue1RA_52.mp4	0.0	155.0956358909607	0.4179341793060303
33	97.00761389732361	response	0	2		31.0	2.5	/experiments/knapen_aot/videos/R_S_yt--5ls65Ue1RA_52.mp4	0.0	155.5040729045868	
33	97.01711106300354	movie	1		301.0	31.0	2.5	/experiments/knapen_aot/videos/R_S_yt--5ls65Ue1RA_52.mp4	0.0	155.51357007026672	2.507025957107544
33	99.52413702011108	fix_post	2		12.0	31.0	2.5	/experiments/knapen_aot/videos/R_S_yt--5ls65Ue1RA_52.mp4	0.0	158.02059602737427	0.10024094581604004
34	99.62437796592712	fix_pre	0		41.0	32.0	2.5	/experiments/knapen_aot/videos/R_S_yt-q9kT_c9QjbQ_34.mp4	0.0	158.1208369731903	0.34142494201660156
34	99.95769906044006	response	0	2		32.0	2.5	/experiments/knapen_aot/videos/R_S_yt-q9kT_c9QjbQ_34.mp4	0.0	158.45415806770325	
34	99.96580290794373	movie	1		301.0	32.0	2.5	/experiments/knapen_aot/videos/R_S_yt-q9kT_c9QjbQ_34.mp4	0.0	158.4622619152069	2.5085561275482178
34	102.47435903549194	fix_post	2		12.0	32.0	2.5	/experiments/knapen_aot/videos/R_S_yt-q9kT_c9QjbQ_34.mp4	0.0	160.97081804275513	0.09987092018127441
35	102.57422995567322	fix_pre	0		48.0	33.0	2.5	/experiments/knapen_aot/videos/R_S_yt-SCzpSxzt0TA_46.mp4	0.0	161.0706889629364	0.39991211891174316
35	102.96589398384094	response	0	2		33.0	2.5	/experiments/knapen_aot/videos/R_S_yt-SCzpSxzt0TA_46.mp4	0.0	161.46235299110413	
35	102.97414207458496	movie	1		301.0	33.0	2.5	/experiments/knapen_aot/videos/R_S_yt-SCzpSxzt0TA_46.mp4	0.0	161.47060108184814	2.508419990539551
35	105.48256206512451	fix_post	2		12.0	33.0	2.5	/experiments/knapen_aot/videos/R_S_yt-SCzpSxzt0TA_46.mp4	0.0	163.9790210723877	0.09993600845336914
36	105.58249807357788	fix_pre	0		50.0	34.0	2.5	/experiments/knapen_aot/videos/S_AK_A004_C012_SDR_20191217_SDR_2K_AVC.mp4	0.0	164.07895708084106	0.41662001609802246
36	105.99089097976685	response	0	2		34.0	2.5	/experiments/knapen_aot/videos/S_AK_A004_C012_SDR_20191217_SDR_2K_AVC.mp4	0.0	164.48734998703003	
36	105.9991180896759	movie	1		165.0	34.0	2.5	/experiments/knapen_aot/videos/S_AK_A004_C012_SDR_20191217_SDR_2K_AVC.mp4	0.0	164.4955770969391	2.5083489418029785
36	108.50746703147888	fix_post	2		12.0	34.0	2.5	/experiments/knapen_aot/videos/S_AK_A004_C012_SDR_20191217_SDR_2K_AVC.mp4	0.0	167.00392603874207	0.10016083717346191
37	108.60762786865234	fix_pre	0		31.0	35.0	2.5	blank	1.0	167.10408687591553	0.2581000328063965
37	108.85756397247314	response	0	2		35.0	2.5	blank	1.0	167.35402297973633	
37	108.86572790145874	movie	1		301.0	35.0	2.5	blank	1.0	167.36218690872192	2.508427143096924
37	111.37415504455566	fix_post	2		12.0	35.0	2.5	blank	1.0	169.87061405181885	0.09996795654296875
38	111.47412300109863	fix_pre	0		29.0	36.0	2.5	/experiments/knapen_aot/videos/R_S_yt-rlEPywo5BEQ_36.mp4	0.0	169.97058200836182	0.24164485931396484
38	111.70752501487732	response	0	2		36.0	2.5	/experiments/knapen_aot/videos/R_S_yt-rlEPywo5BEQ_36.mp4	0.0	170.2039840221405	
38	111.7157678604126	movie	1		301.0	36.0	2.5	/experiments/knapen_aot/videos/R_S_yt-rlEPywo5BEQ_36.mp4	0.0	170.21222686767578	2.508364200592041
38	114.22413206100464	fix_post	2		12.0	36.0	2.5	/experiments/knapen_aot/videos/R_S_yt-rlEPywo5BEQ_36.mp4	0.0	172.72059106826782	0.09999585151672363
39	114.32412791252136	fix_pre	0		39.0	37.0	2.5	/experiments/knapen_aot/videos/R_S_yt-UzWRbs9Syf4_7.mp4	0.0	172.82058691978455	0.32494115829467773
39	114.64087700843811	response	0	2		37.0	2.5	/experiments/knapen_aot/videos/R_S_yt-UzWRbs9Syf4_7.mp4	0.0	173.1373360157013	
39	114.64906907081604	movie	1		301.0	37.0	2.5	/experiments/knapen_aot/videos/R_S_yt-UzWRbs9Syf4_7.mp4	0.0	173.14552807807922	2.5083839893341064
39	117.15745306015015	fix_post	2		12.0	37.0	2.5	/experiments/knapen_aot/videos/R_S_yt-UzWRbs9Syf4_7.mp4	0.0	175.65391206741333	0.09999799728393555
40	117.25745105743408	fix_pre	0		43.0	38.0	2.5	/experiments/knapen_aot/videos/S_yt-vY49oIv_dWg_73.mp4	0.0	175.75391006469727	0.3582489490509033
40	117.60756492614746	response	0	2		38.0	2.5	/experiments/knapen_aot/videos/S_yt-vY49oIv_dWg_73.mp4	0.0	176.10402393341064	
40	117.61570000648499	movie	1		301.0	38.0	2.5	/experiments/knapen_aot/videos/S_yt-vY49oIv_dWg_73.mp4	0.0	176.11215901374817	2.5083839893341064
40	120.12408399581909	fix_post	2		12.0	38.0	2.5	/experiments/knapen_aot/videos/S_yt-vY49oIv_dWg_73.mp4	0.0	178.62054300308228	0.1000208854675293
41	120.22410488128662	fix_pre	0		66.0	39.0	2.5	/experiments/knapen_aot/videos/S_CR_A009_C007_SDR_20191113_SDR_2K_AVC.mp4	0.0	178.7205638885498	0.5500171184539795
41	120.75827503204346	response	0	2		39.0	2.5	/experiments/knapen_aot/videos/S_CR_A009_C007_SDR_20191113_SDR_2K_AVC.mp4	0.0	179.25473403930664	
41	120.7741219997406	movie	1		165.0	39.0	2.5	/experiments/knapen_aot/videos/S_CR_A009_C007_SDR_20191113_SDR_2K_AVC.mp4	0.0	179.27058100700378	2.5082879066467285
41	123.28240990638733	fix_post	2		12.0	39.0	2.5	/experiments/knapen_aot/videos/S_CR_A009_C007_SDR_20191113_SDR_2K_AVC.mp4	0.0	181.7788689136505	0.09999513626098633
42	123.38240504264832	fix_pre	0		36.0	40.0	2.5	blank	1.0	181.8788640499115	0.30000996589660645
42	123.67411398887634	response	0	2		40.0	2.5	blank	1.0	182.17057299613953	
42	123.68241500854492	movie	1		301.0	40.0	2.5	blank	1.0	182.1788740158081	2.508323907852173
42	126.1907389163971	fix_post	2		12.0	40.0	2.5	blank	1.0	184.68719792366028	0.10006904602050781
43	126.2908079624176	fix_pre	0		76.0	41.0	2.5	/experiments/knapen_aot/videos/R_S_yt-Dwgpjoikt84_122.mp4	0.0	184.7872669696808	0.6332480907440186
43	126.91570806503296	response	0	2		41.0	2.5	/experiments/knapen_aot/videos/R_S_yt-Dwgpjoikt84_122.mp4	0.0	185.41216707229614	
43	126.92405605316162	movie	1		301.0	41.0	2.5	/experiments/knapen_aot/videos/R_S_yt-Dwgpjoikt84_122.mp4	0.0	185.4205150604248	2.5083420276641846
43	129.4323980808258	fix_post	2		12.0	41.0	2.5	/experiments/knapen_aot/videos/R_S_yt-Dwgpjoikt84_122.mp4	0.0	187.928857088089	0.09999299049377441
44	129.53239107131958	fix_pre	0		39.0	42.0	2.5	/experiments/knapen_aot/videos/R_S_yt-2lnxIdOTxog_157.mp4	0.0	188.02885007858276	0.3249688148498535
44	129.8491940498352	response	0	2		42.0	2.5	/experiments/knapen_aot/videos/R_S_yt-2lnxIdOTxog_157.mp4	0.0	188.3456530570984	
44	129.85735988616943	movie	1		301.0	42.0	2.5	/experiments/knapen_aot/videos/R_S_yt-2lnxIdOTxog_157.mp4	0.0	188.35381889343262	2.508352041244507
44	132.36571192741394	fix_post	2		12.0	42.0	2.5	/experiments/knapen_aot/videos/R_S_yt-2lnxIdOTxog_157.mp4	0.0	190.86217093467712	0.10000014305114746
45	132.4657120704651	fix_pre	0		68.0	43.0	2.5	/experiments/knapen_aot/videos/S_EFR8AteY59I_15.mp4	0.0	190.96217107772827	0.5665848255157471
45	133.0241620540619	response	0	2		43.0	2.5	/experiments/knapen_aot/videos/S_EFR8AteY59I_15.mp4	0.0	191.52062106132507	
45	133.03229689598083	movie	1		301.0	43.0	2.5	/experiments/knapen_aot/videos/S_EFR8AteY59I_15.mp4	0.0	191.52875590324402	2.5083961486816406
45	135.54069304466248	fix_post	2		12.0	43.0	2.5	/experiments/knapen_aot/videos/S_EFR8AteY59I_15.mp4	0.0	194.03715205192566	0.1000359058380127
46	135.6407289505005	fix_pre	0		58.0	44.0	2.5	/experiments/knapen_aot/videos/R_S_yt-xrWo3lnbshw_80.mp4	0.0	194.13718795776367	0.48322391510009766
46	136.10824990272522	response	0	2		44.0	2.5	/experiments/knapen_aot/videos/R_S_yt-xrWo3lnbshw_80.mp4	0.0	194.6047089099884	
46	136.1239528656006	movie	1		301.0	44.0	2.5	/experiments/knapen_aot/videos/R_S_yt-xrWo3lnbshw_80.mp4	0.0	194.62041187286377	2.5085132122039795
46	138.63246607780457	fix_post	2		12.0	44.0	2.5	/experiments/knapen_aot/videos/R_S_yt-xrWo3lnbshw_80.mp4	0.0	197.12892508506775	0.09988093376159668
47	138.73234701156616	fix_pre	0		29.0	45.0	2.5	/experiments/knapen_aot/videos/R_S_yt-HwEfWfFJhRo_126.mp4	0.0	197.22880601882935	0.24272799491882324
47	138.9658010005951	response	0	2		45.0	2.5	/experiments/knapen_aot/videos/R_S_yt-HwEfWfFJhRo_126.mp4	0.0	197.46226000785828	
47	138.97507500648499	movie	1		301.0	45.0	2.5	/experiments/knapen_aot/videos/R_S_yt-HwEfWfFJhRo_126.mp4	0.0	197.47153401374817	2.5072460174560547
47	141.48232102394104	fix_post	2		12.0	45.0	2.5	/experiments/knapen_aot/videos/R_S_yt-HwEfWfFJhRo_126.mp4	0.0	199.97878003120422	0.10006594657897949
48	141.58238697052002	fix_pre	0		44.0	46.0	2.5	/experiments/knapen_aot/videos/R_S_yt-z68VLDDCFdw_93.mp4	0.0	200.0788459777832	0.36658596992492676
48	141.94079303741455	response	0	2		46.0	2.5	/experiments/knapen_aot/videos/R_S_yt-z68VLDDCFdw_93.mp4	0.0	200.43725204467773	
48	141.94897294044495	movie	1		301.0	46.0	2.5	/experiments/knapen_aot/videos/R_S_yt-z68VLDDCFdw_93.mp4	0.0	200.44543194770813	2.508342981338501
48	144.45731592178345	fix_post	2		12.0	46.0	2.5	/experiments/knapen_aot/videos/R_S_yt-z68VLDDCFdw_93.mp4	0.0	202.95377492904663	0.10001611709594727
49	144.5573320388794	fix_pre	0		37.0	47.0	2.5	/experiments/knapen_aot/videos/S_DL_B002_C011_SDR_20191122_SDR_2K_AVC.mp4	0.0	203.05379104614258	0.3082590103149414
49	144.8574938774109	response	0	2		47.0	2.5	/experiments/knapen_aot/videos/S_DL_B002_C011_SDR_20191122_SDR_2K_AVC.mp4	0.0	203.35395288467407	
49	144.86559104919434	movie	1		164.0	47.0	2.5	/experiments/knapen_aot/videos/S_DL_B002_C011_SDR_20191122_SDR_2K_AVC.mp4	0.0	203.36205005645752	2.5083398818969727
49	147.3739309310913	fix_post	2		12.0	47.0	2.5	/experiments/knapen_aot/videos/S_DL_B002_C011_SDR_20191122_SDR_2K_AVC.mp4	0.0	205.8703899383545	0.1000521183013916
50	147.4739830493927	fix_pre	0		41.0	48.0	2.5	blank	1.0	205.97044205665588	0.3416450023651123
50	147.80750703811646	response	0	2		48.0	2.5	blank	1.0	206.30396604537964	
50	147.8156280517578	movie	1		301.0	48.0	2.5	blank	1.0	206.312087059021	2.5083558559417725
50	150.32398390769958	fix_post	2		12.0	48.0	2.5	blank	1.0	208.82044291496277	0.09999418258666992
51	150.42397809028625	fix_pre	0		47.0	49.0	2.5	/experiments/knapen_aot/videos/S_yt-gC3my54_ChQ_58.mp4	0.0	208.92043709754944	0.39162278175354004
51	150.80740094184875	response	0	2		49.0	2.5	/experiments/knapen_aot/videos/S_yt-gC3my54_ChQ_58.mp4	0.0	209.30385994911194	
51	150.8156008720398	movie	1		301.0	49.0	2.5	/experiments/knapen_aot/videos/S_yt-gC3my54_ChQ_58.mp4	0.0	209.31205987930298	2.508333206176758
51	153.32393407821655	fix_post	2		12.0	49.0	2.5	/experiments/knapen_aot/videos/S_yt-gC3my54_ChQ_58.mp4	0.0	211.82039308547974	0.10001397132873535
52	153.4239480495453	fix_pre	0		53.0	50.0	2.5	/experiments/knapen_aot/videos/R_S_pexels-kampus-production-5991896.mp4	0.0	211.92040705680847	0.44161391258239746
52	153.85740494728088	response	0	2		50.0	2.5	/experiments/knapen_aot/videos/R_S_pexels-kampus-production-5991896.mp4	0.0	212.35386395454407	
52	153.86556196212769	movie	1		184.0	50.0	2.5	/experiments/knapen_aot/videos/R_S_pexels-kampus-production-5991896.mp4	0.0	212.36202096939087	2.5083260536193848
52	156.37388801574707	fix_post	2		12.0	50.0	2.5	/experiments/knapen_aot/videos/R_S_pexels-kampus-production-5991896.mp4	0.0	214.87034702301025	0.10006189346313477
53	156.4739499092102	fix_pre	0		39.0	51.0	2.5	/experiments/knapen_aot/videos/S_ILSVRC2015_train_00404004.mp4	0.0	214.9704089164734	0.3249809741973877
53	156.790776014328	response	0	2		51.0	2.5	/experiments/knapen_aot/videos/S_ILSVRC2015_train_00404004.mp4	0.0	215.2872350215912	
53	156.7989308834076	movie	1		301.0	51.0	2.5	/experiments/knapen_aot/videos/S_ILSVRC2015_train_00404004.mp4	0.0	215.29538989067078	2.5083391666412354
53	159.30727005004883	fix_post	2		12.0	51.0	2.5	/experiments/knapen_aot/videos/S_ILSVRC2015_train_00404004.mp4	0.0	217.803729057312	0.09998488426208496
54	159.4072549343109	fix_pre	0		56.0	52.0	2.5	/experiments/knapen_aot/videos/R_S_yt-Xs7TCzdnUJQ_79.mp4	0.0	217.9037139415741	0.4666569232940674
54	159.8582148551941	response	0	2		52.0	2.5	/experiments/knapen_aot/videos/R_S_yt-Xs7TCzdnUJQ_79.mp4	0.0	218.35467386245728	
54	159.87391185760498	movie	1		300.0	52.0	2.5	/experiments/knapen_aot/videos/R_S_yt-Xs7TCzdnUJQ_79.mp4	0.0	218.37037086486816	2.5082590579986572
54	162.38217091560364	fix_post	2		12.0	52.0	2.5	/experiments/knapen_aot/videos/R_S_yt-Xs7TCzdnUJQ_79.mp4	0.0	220.87862992286682	0.10017895698547363
55	162.4823498725891	fix_pre	0		43.0	53.0	2.5	/experiments/knapen_aot/videos/S_pexels-marcus-aurelius-6785014.mp4	0.0	220.9788088798523	0.3582119941711426
55	162.8323690891266	response	0	2		53.0	2.5	/experiments/knapen_aot/videos/S_pexels-marcus-aurelius-6785014.mp4	0.0	221.32882809638977	
55	162.84056186676025	movie	1		169.0	53.0	2.5	/experiments/knapen_aot/videos/S_pexels-marcus-aurelius-6785014.mp4	0.0	221.33702087402344	2.508395195007324
55	165.34895706176758	fix_post	2		12.0	53.0	2.5	/experiments/knapen_aot/videos/S_pexels-marcus-aurelius-6785014.mp4	0.0	223.84541606903076	0.09997081756591797
56	165.4489278793335	fix_pre	0		29.0	54.0	2.5	/experiments/knapen_aot/videos/R_S_yt-xCh0LI9VKeI_28.mp4	0.0	223.94538688659668	0.2416222095489502
56	165.6823649406433	response	0	2		54.0	2.5	/experiments/knapen_aot/videos/R_S_yt-xCh0LI9VKeI_28.mp4	0.0	224.1788239479065	
56	165.69055008888245	movie	1		301.0	54.0	2.5	/experiments/knapen_aot/videos/R_S_yt-xCh0LI9VKeI_28.mp4	0.0	224.18700909614563	2.508678913116455
56	168.1992290019989	fix_post	2		12.0	54.0	2.5	/experiments/knapen_aot/videos/R_S_yt-xCh0LI9VKeI_28.mp4	0.0	226.69568800926208	0.09962701797485352
57	168.29885601997375	fix_pre	0		38.0	55.0	2.5	blank	1.0	226.79531502723694	0.31670284271240234
57	168.60734796524048	response	0	2		55.0	2.5	blank	1.0	227.10380697250366	
57	168.61555886268616	movie	1		301.0	55.0	2.5	blank	1.0	227.11201786994934	2.5083770751953125
57	171.12393593788147	fix_post	2		12.0	55.0	2.5	blank	1.0	229.62039494514465	0.10001897811889648
58	171.22395491600037	fix_pre	0		54.0	56.0	2.5	/experiments/knapen_aot/videos/S_yt-rbJOb1spY9M_16.mp4	0.0	229.72041392326355	0.4499039649963379
58	171.66565489768982	response	0	2		56.0	2.5	/experiments/knapen_aot/videos/S_yt-rbJOb1spY9M_16.mp4	0.0	230.162113904953	
58	171.6738588809967	movie	1		301.0	56.0	2.5	/experiments/knapen_aot/videos/S_yt-rbJOb1spY9M_16.mp4	0.0	230.1703178882599	2.5083529949188232
58	174.18221187591553	fix_post	2		12.0	56.0	2.5	/experiments/knapen_aot/videos/S_yt-rbJOb1spY9M_16.mp4	0.0	232.6786708831787	0.09997415542602539
59	174.28218603134155	fix_pre	0		21.0	57.0	2.5	/experiments/knapen_aot/videos/R_S_CR_A009_C007_SDR_20191113_SDR_2K_AVC.mp4	0.0	232.77864503860474	0.17501592636108398
59	174.44896697998047	response	0	2		57.0	2.5	/experiments/knapen_aot/videos/R_S_CR_A009_C007_SDR_20191113_SDR_2K_AVC.mp4	0.0	232.94542598724365	
59	174.45720195770264	movie	1		177.0	57.0	2.5	/experiments/knapen_aot/videos/R_S_CR_A009_C007_SDR_20191113_SDR_2K_AVC.mp4	0.0	232.95366096496582	2.5083019733428955
59	176.96550393104553	fix_post	2		12.0	57.0	2.5	/experiments/knapen_aot/videos/R_S_CR_A009_C007_SDR_20191113_SDR_2K_AVC.mp4	0.0	235.46196293830872	0.1000211238861084
60	177.06552505493164	fix_pre	0		37.0	58.0	2.5	/experiments/knapen_aot/videos/S_CR_A009_C007_SDR_20191113_SDR_2K_AVC.mp4	0.0	235.56198406219482	0.3083348274230957
60	177.36548495292664	response	0	2		58.0	2.5	/experiments/knapen_aot/videos/S_CR_A009_C007_SDR_20191113_SDR_2K_AVC.mp4	0.0	235.86194396018982	
60	177.37385988235474	movie	1		167.0	58.0	2.5	/experiments/knapen_aot/videos/S_CR_A009_C007_SDR_20191113_SDR_2K_AVC.mp4	0.0	235.87031888961792	2.508329153060913
60	179.88218903541565	fix_post	2		12.0	58.0	2.5	/experiments/knapen_aot/videos/S_CR_A009_C007_SDR_20191113_SDR_2K_AVC.mp4	0.0	238.37864804267883	0.10001182556152344
61	179.98220086097717	fix_pre	0		35.0	59.0	2.5	/experiments/knapen_aot/videos/R_S_yt-SRozDkhwx28_1463.mp4	0.0	238.47865986824036	0.2915830612182617
61	180.26554203033447	response	0	2		59.0	2.5	/experiments/knapen_aot/videos/R_S_yt-SRozDkhwx28_1463.mp4	0.0	238.76200103759766	
61	180.27378392219543	movie	1		301.0	59.0	2.5	/experiments/knapen_aot/videos/R_S_yt-SRozDkhwx28_1463.mp4	0.0	238.77024292945862	2.5084450244903564
61	182.7822289466858	fix_post	2		12.0	59.0	2.5	/experiments/knapen_aot/videos/R_S_yt-SRozDkhwx28_1463.mp4	0.0	241.27868795394897	0.09990191459655762
62	182.88213086128235	fix_pre	0		33.0	60.0	2.5	/experiments/knapen_aot/videos/S_yt-gaXgXGEanCk_140.mp4	0.0	241.37858986854553	0.2749321460723877
62	183.14894485473633	response	0	2		60.0	2.5	/experiments/knapen_aot/videos/S_yt-gaXgXGEanCk_140.mp4	0.0	241.6454038619995	
62	183.15706300735474	movie	1		301.0	60.0	2.5	/experiments/knapen_aot/videos/S_yt-gaXgXGEanCk_140.mp4	0.0	241.65352201461792	2.508420944213867
62	185.6654839515686	fix_post	2		12.0	60.0	2.5	/experiments/knapen_aot/videos/S_yt-gaXgXGEanCk_140.mp4	0.0	244.1619429588318	0.10001206398010254
63	185.7654960155487	fix_pre	0		32.0	61.0	2.5	/experiments/knapen_aot/videos/R_S_AK_A004_C012_SDR_20191217_SDR_2K_AVC.mp4	0.0	244.2619550228119	0.266711950302124
63	186.02393102645874	response	0	2		61.0	2.5	/experiments/knapen_aot/videos/R_S_AK_A004_C012_SDR_20191217_SDR_2K_AVC.mp4	0.0	244.52039003372192	
63	186.03220796585083	movie	1		168.0	61.0	2.5	/experiments/knapen_aot/videos/R_S_AK_A004_C012_SDR_20191217_SDR_2K_AVC.mp4	0.0	244.528666973114	2.50833797454834
63	188.54054594039917	fix_post	2		12.0	61.0	2.5	/experiments/knapen_aot/videos/R_S_AK_A004_C012_SDR_20191217_SDR_2K_AVC.mp4	0.0	247.03700494766235	0.09991693496704102
64	188.6404628753662	fix_pre	0		38.0	62.0	2.5	/experiments/knapen_aot/videos/R_S_9smWynsk6sI_158.mp4	0.0	247.1369218826294	0.31659817695617676
64	188.9488570690155	response	0	2		62.0	2.5	/experiments/knapen_aot/videos/R_S_9smWynsk6sI_158.mp4	0.0	247.4453160762787	
64	188.9570610523224	movie	1		301.0	62.0	2.5	/experiments/knapen_aot/videos/R_S_9smWynsk6sI_158.mp4	0.0	247.45352005958557	2.50860595703125
64	191.46566700935364	fix_post	2		12.0	62.0	2.5	/experiments/knapen_aot/videos/R_S_9smWynsk6sI_158.mp4	0.0	249.96212601661682	0.09978389739990234
65	191.56545090675354	fix_pre	0		5.0	63.0	2.5	blank	1.0	250.06190991401672	0.041689157485961914
65	191.59895586967468	response	0	2		63.0	2.5	blank	1.0	250.09541487693787	
65	191.6071400642395	movie	1		301.0	63.0	2.5	blank	1.0	250.10359907150269	2.5083439350128174
65	194.11548399925232	fix_post	2		12.0	63.0	2.5	blank	1.0	252.6119430065155	0.10013008117675781
66	194.21561408042908	fix_pre	0		49.0	64.0	2.5	/experiments/knapen_aot/videos/R_S_yt-a0axt7n0GuQ_19.mp4	0.0	252.71207308769226	0.4081227779388428
66	194.6155869960785	response	0	2		64.0	2.5	/experiments/knapen_aot/videos/R_S_yt-a0axt7n0GuQ_19.mp4	0.0	253.11204600334167	
66	194.62373685836792	movie	1		301.0	64.0	2.5	/experiments/knapen_aot/videos/R_S_yt-a0axt7n0GuQ_19.mp4	0.0	253.1201958656311	2.508301019668579
66	197.1320378780365	fix_post	2		12.0	64.0	2.5	/experiments/knapen_aot/videos/R_S_yt-a0axt7n0GuQ_19.mp4	0.0	255.62849688529968	0.1000821590423584
67	197.23212003707886	fix_pre	0		45.0	65.0	2.5	/experiments/knapen_aot/videos/S_yt-3roniRu6w58_10.mp4	0.0	255.72857904434204	0.374924898147583
67	197.59133386611938	response	0	2		65.0	2.5	/experiments/knapen_aot/videos/S_yt-3roniRu6w58_10.mp4	0.0	256.08779287338257	
67	197.60704493522644	movie	1		301.0	65.0	2.5	/experiments/knapen_aot/videos/S_yt-3roniRu6w58_10.mp4	0.0	256.1035039424896	2.5083351135253906
67	200.11538004875183	fix_post	2		12.0	65.0	2.5	/experiments/knapen_aot/videos/S_yt-3roniRu6w58_10.mp4	0.0	258.611839056015	0.10005903244018555
68	200.21543908119202	fix_pre	0		41.0	66.0	2.5	/experiments/knapen_aot/videos/S_yt-ThT8utBaywI_68.mp4	0.0	258.7118980884552	0.3424949645996094
68	200.54888200759888	response	0	2		66.0	2.5	/experiments/knapen_aot/videos/S_yt-ThT8utBaywI_68.mp4	0.0	259.04534101486206	
68	200.55793404579163	movie	1		301.0	66.0	2.5	/experiments/knapen_aot/videos/S_yt-ThT8utBaywI_68.mp4	0.0	259.0543930530548	2.507462978363037
68	203.06539702415466	fix_post	2		12.0	66.0	2.5	/experiments/knapen_aot/videos/S_yt-ThT8utBaywI_68.mp4	0.0	261.56185603141785	0.10000896453857422
69	203.16540598869324	fix_pre	0		41.0	67.0	2.5	/experiments/knapen_aot/videos/R_S_yt-1RVw8p6Dw2Q_20.mp4	0.0	261.6618649959564	0.34163594245910645
69	203.49134802818298	response	0	2		67.0	2.5	/experiments/knapen_aot/videos/R_S_yt-1RVw8p6Dw2Q_20.mp4	0.0	261.98780703544617	
69	203.50704193115234	movie	1		301.0	67.0	2.5	/experiments/knapen_aot/videos/R_S_yt-1RVw8p6Dw2Q_20.mp4	0.0	262.0035009384155	2.508540153503418
69	206.01558208465576	fix_post	2		12.0	67.0	2.5	/experiments/knapen_aot/videos/R_S_yt-1RVw8p6Dw2Q_20.mp4	0.0	264.51204109191895	0.09982585906982422
70	206.1154079437256	fix_pre	0		42.0	68.0	2.5	blank	1.0	264.61186695098877	0.34993696212768555
70	206.45712208747864	response	0	2		68.0	2.5	blank	1.0	264.9535810947418	
70	206.46534490585327	movie	1		301.0	68.0	2.5	blank	1.0	264.96180391311646	2.5083730220794678
70	208.97371792793274	fix_post	2		12.0	68.0	2.5	blank	1.0	267.4701769351959	0.10001301765441895
71	209.07373094558716	fix_pre	0		62.0	69.0	2.5	/experiments/knapen_aot/videos/S_yt-IigHVUksnw8_7.mp4	0.0	267.57018995285034	0.5165979862213135
71	209.58202290534973	response	0	2		69.0	2.5	/experiments/knapen_aot/videos/S_yt-IigHVUksnw8_7.mp4	0.0	268.0784819126129	
71	209.59032893180847	movie	1		301.0	69.0	2.5	/experiments/knapen_aot/videos/S_yt-IigHVUksnw8_7.mp4	0.0	268.08678793907166	2.5087311267852783
71	212.09906005859375	fix_post	2		12.0	69.0	2.5	/experiments/knapen_aot/videos/S_yt-IigHVUksnw8_7.mp4	0.0	270.59551906585693	0.09964299201965332
72	212.1987030506134	fix_pre	0		31.0	70.0	2.5	/experiments/knapen_aot/videos/R_S_yt-Q6BFO3Yz0zY_363.mp4	0.0	270.6951620578766	0.2582228183746338
72	212.448823928833	response	0	2		70.0	2.5	/experiments/knapen_aot/videos/R_S_yt-Q6BFO3Yz0zY_363.mp4	0.0	270.9452829360962	
72	212.45692586898804	movie	1		301.0	70.0	2.5	/experiments/knapen_aot/videos/R_S_yt-Q6BFO3Yz0zY_363.mp4	0.0	270.9533848762512	2.508419990539551
72	214.9653458595276	fix_post	2		12.0	70.0	2.5	/experiments/knapen_aot/videos/R_S_yt-Q6BFO3Yz0zY_363.mp4	0.0	273.46180486679077	0.10012006759643555
73	215.06546592712402	fix_pre	0		35.0	71.0	2.5	/experiments/knapen_aot/videos/S_ILSVRC2015_train_00322000.mp4	0.0	273.5619249343872	0.2915990352630615
73	215.3487560749054	response	0	2		71.0	2.5	/experiments/knapen_aot/videos/S_ILSVRC2015_train_00322000.mp4	0.0	273.8452150821686	
73	215.35706496238708	movie	1		301.0	71.0	2.5	/experiments/knapen_aot/videos/S_ILSVRC2015_train_00322000.mp4	0.0	273.85352396965027	2.5083069801330566
73	217.86537194252014	fix_post	2		12.0	71.0	2.5	/experiments/knapen_aot/videos/S_ILSVRC2015_train_00322000.mp4	0.0	276.3618309497833	0.0999150276184082
74	217.96528697013855	fix_pre	0		52.0	72.0	2.5	/experiments/knapen_aot/videos/S_yt-rbJOb1spY9M_16.mp4	0.0	276.46174597740173	0.4334070682525635
74	218.39045596122742	response	0	2		72.0	2.5	/experiments/knapen_aot/videos/S_yt-rbJOb1spY9M_16.mp4	0.0	276.8869149684906	
74	218.3986940383911	movie	1		301.0	72.0	2.5	/experiments/knapen_aot/videos/S_yt-rbJOb1spY9M_16.mp4	0.0	276.8951530456543	2.5083439350128174
74	220.90703797340393	fix_post	2		12.0	72.0	2.5	/experiments/knapen_aot/videos/S_yt-rbJOb1spY9M_16.mp4	0.0	279.4034969806671	0.09998703002929688
75	221.00702500343323	fix_pre	0		51.0	73.0	2.5	/experiments/knapen_aot/videos/R_S_ILSVRC2015_train_00469000.mp4	0.0	279.5034840106964	0.42555999755859375
75	221.4238359928131	response	0	2		73.0	2.5	/experiments/knapen_aot/videos/R_S_ILSVRC2015_train_00469000.mp4	0.0	279.9202950000763	
75	221.43258500099182	movie	1		301.0	73.0	2.5	/experiments/knapen_aot/videos/R_S_ILSVRC2015_train_00469000.mp4	0.0	279.929044008255	2.5076918601989746
75	223.9402768611908	fix_post	2		12.0	73.0	2.5	/experiments/knapen_aot/videos/R_S_ILSVRC2015_train_00469000.mp4	0.0	282.436735868454	0.10005307197570801
76	224.0403299331665	fix_pre	0		33.0	74.0	2.5	/experiments/knapen_aot/videos/S_flickr-reginahart-31964450591_23.mp4	0.0	282.5367889404297	0.2749199867248535
76	224.30701398849487	response	0	2		74.0	2.5	/experiments/knapen_aot/videos/S_flickr-reginahart-31964450591_23.mp4	0.0	282.80347299575806	
76	224.31524991989136	movie	1		170.0	74.0	2.5	/experiments/knapen_aot/videos/S_flickr-reginahart-31964450591_23.mp4	0.0	282.81170892715454	2.508450984954834
76	226.8237009048462	fix_post	2		12.0	74.0	2.5	/experiments/knapen_aot/videos/S_flickr-reginahart-31964450591_23.mp4	0.0	285.3201599121094	0.09995603561401367
77	226.9236569404602	fix_pre	0		67.0	75.0	2.5	blank	1.0	285.4201159477234	0.558258056640625
77	227.47398495674133	response	0	2		75.0	2.5	blank	1.0	285.9704439640045	
77	227.48191499710083	movie	1		301.0	75.0	2.5	blank	1.0	285.978374004364	2.5085580348968506
77	229.99047303199768	fix_post	2		12.0	75.0	2.5	blank	1.0	288.48693203926086	0.09977102279663086
78	230.0902440547943	fix_pre	0		52.0	76.0	2.5	/experiments/knapen_aot/videos/R_S_yt-5AI_SyK5sg8_112.mp4	0.0	288.5867030620575	0.4333009719848633
78	230.51540398597717	response	0	2		76.0	2.5	/experiments/knapen_aot/videos/R_S_yt-5AI_SyK5sg8_112.mp4	0.0	289.01186299324036	
78	230.52354502677917	movie	1		301.0	76.0	2.5	/experiments/knapen_aot/videos/R_S_yt-5AI_SyK5sg8_112.mp4	0.0	289.02000403404236	2.508431911468506
78	233.03197693824768	fix_post	2		12.0	76.0	2.5	/experiments/knapen_aot/videos/R_S_yt-5AI_SyK5sg8_112.mp4	0.0	291.52843594551086	0.100006103515625
79	233.1319830417633	fix_pre	0		34.0	77.0	2.5	/experiments/knapen_aot/videos/R_S_RS_A008_C010_SDR_20191218_SDR_2K_AVC.mp4	0.0	291.6284420490265	0.2832479476928711
79	233.40707802772522	response	0	2		77.0	2.5	/experiments/knapen_aot/videos/R_S_RS_A008_C010_SDR_20191218_SDR_2K_AVC.mp4	0.0	291.9035370349884	
79	233.41523098945618	movie	1		178.0	77.0	2.5	/experiments/knapen_aot/videos/R_S_RS_A008_C010_SDR_20191218_SDR_2K_AVC.mp4	0.0	291.91168999671936	2.5084609985351562
79	235.92369198799133	fix_post	2		12.0	77.0	2.5	/experiments/knapen_aot/videos/R_S_RS_A008_C010_SDR_20191218_SDR_2K_AVC.mp4	0.0	294.4201509952545	0.09990286827087402
80	236.0235948562622	fix_pre	0		51.0	78.0	2.5	/experiments/knapen_aot/videos/S_yt-Dj42sI_Z-kQ_38.mp4	0.0	294.5200538635254	0.42493510246276855
80	236.4405379295349	response	0	2		78.0	2.5	/experiments/knapen_aot/videos/S_yt-Dj42sI_Z-kQ_38.mp4	0.0	294.9369969367981	
80	236.44852995872498	movie	1		301.0	78.0	2.5	/experiments/knapen_aot/videos/S_yt-Dj42sI_Z-kQ_38.mp4	0.0	294.94498896598816	2.508358955383301
80	238.95688891410828	fix_post	2		12.0	78.0	2.5	/experiments/knapen_aot/videos/S_yt-Dj42sI_Z-kQ_38.mp4	0.0	297.45334792137146	0.09999799728393555
81	239.0568869113922	fix_pre	0		38.0	79.0	2.5	/experiments/knapen_aot/videos/R_S_yt-g_CLzrCYHoc_7.mp4	0.0	297.5533459186554	0.3166821002960205
81	239.36536288261414	response	0	2		79.0	2.5	/experiments/knapen_aot/videos/R_S_yt-g_CLzrCYHoc_7.mp4	0.0	297.8618218898773	
81	239.37356901168823	movie	1		301.0	79.0	2.5	/experiments/knapen_aot/videos/R_S_yt-g_CLzrCYHoc_7.mp4	0.0	297.8700280189514	2.508354902267456
81	241.8819239139557	fix_post	2		12.0	79.0	2.5	/experiments/knapen_aot/videos/R_S_yt-g_CLzrCYHoc_7.mp4	0.0	300.3783829212189	0.10001111030578613
82	241.98193502426147	fix_pre	0		45.0	80.0	2.5	/experiments/knapen_aot/videos/S_ILSVRC2015_train_00079001.mp4	0.0	300.47839403152466	0.3749349117279053
82	242.34883308410645	response	0	2		80.0	2.5	/experiments/knapen_aot/videos/S_ILSVRC2015_train_00079001.mp4	0.0	300.84529209136963	
82	242.35686993598938	movie	1		301.0	80.0	2.5	/experiments/knapen_aot/videos/S_ILSVRC2015_train_00079001.mp4	0.0	300.85332894325256	2.508324146270752
82	244.86519408226013	fix_post	2		12.0	80.0	2.5	/experiments/knapen_aot/videos/S_ILSVRC2015_train_00079001.mp4	0.0	303.3616530895233	0.10005998611450195
83	244.96525406837463	fix_pre	0		48.0	81.0	2.5	/experiments/knapen_aot/videos/S_yt-IigHVUksnw8_7.mp4	0.0	303.4617130756378	0.39991092681884766
83	245.3570749759674	response	0	2		81.0	2.5	/experiments/knapen_aot/videos/S_yt-IigHVUksnw8_7.mp4	0.0	303.8535339832306	
83	245.36516499519348	movie	1		301.0	81.0	2.5	/experiments/knapen_aot/videos/S_yt-IigHVUksnw8_7.mp4	0.0	303.86162400245667	2.508423089981079
83	247.87358808517456	fix_post	2		12.0	81.0	2.5	/experiments/knapen_aot/videos/S_yt-IigHVUksnw8_7.mp4	0.0	306.37004709243774	0.10007977485656738
84	247.97366786003113	fix_pre	0		72.0	82.0	2.5	/experiments/knapen_aot/videos/R_S_yt-0n0uppNuUus_15.mp4	0.0	306.4701268672943	0.5998070240020752
84	248.5653429031372	response	0	2		82.0	2.5	/experiments/knapen_aot/videos/R_S_yt-0n0uppNuUus_15.mp4	0.0	307.0618019104004	
84	248.5734748840332	movie	1		301.0	82.0	2.5	/experiments/knapen_aot/videos/R_S_yt-0n0uppNuUus_15.mp4	0.0	307.0699338912964	2.5084331035614014
84	251.0819079875946	fix_post	2		12.0	82.0	2.5	/experiments/knapen_aot/videos/R_S_yt-0n0uppNuUus_15.mp4	0.0	309.5783669948578	0.09996700286865234
85	251.18187499046326	fix_pre	0		77.0	83.0	2.5	blank	1.0	309.67833399772644	0.6416079998016357
85	251.81538605690002	response	0	2		83.0	2.5	blank	1.0	310.3118450641632	
85	251.8234829902649	movie	1		301.0	83.0	2.5	blank	1.0	310.3199419975281	2.5082590579986572
85	254.33174204826355	fix_post	2		12.0	83.0	2.5	blank	1.0	312.82820105552673	0.10063481330871582
87	254.43237686157227	stim	0		393.0					312.92883586883545	3.277682065963745
87	257.7021849155426	response	0	space						316.1986439228058	
