trial_nr	onset	event_type	phase	response	nr_frames	movie_index	movie_duration	movie_file	blank	onset_abs	duration
0	0.1258399486541748	stim	0		98.0					138.48335099220276	0.8155980110168457
0	0.2333688735961914	response	0	escape						138.59087991714478	
0	0.9332668781280518	response	0	space						139.29077792167664	
1	0.9414379596710205	stim	0		121.0					139.2989490032196	1.0080459117889404
1	1.949483871459961	stim	1		120.0					140.30699491500854	0.999946117401123
1	2.3078739643096924	response	1	space						140.66538500785828	
2	2.949429988861084	fix_pre	0		16.0	0.0	2.5	/experiments/knapen_aot/videos/R_S_yt-CINajD_PVjQ_494.mp4	0.0	141.30694103240967	0.13436388969421387
2	3.0746090412139893	response	0	space		0.0	2.5	/experiments/knapen_aot/videos/R_S_yt-CINajD_PVjQ_494.mp4	0.0	141.43212008476257	
2	3.083793878555298	movie	1		301.0	0.0	2.5	/experiments/knapen_aot/videos/R_S_yt-CINajD_PVjQ_494.mp4	0.0	141.44130492210388	2.5073390007019043
2	5.591132879257202	fix_post	2		12.0	0.0	2.5	/experiments/knapen_aot/videos/R_S_yt-CINajD_PVjQ_494.mp4	0.0	143.9486439228058	0.09996604919433594
3	5.691098928451538	fix_pre	0		238.0	1.0	2.5	/experiments/knapen_aot/videos/S_yt-4Qz0m5IYh10_167.mp4	0.0	144.04860997200012	1.9833850860595703
3	7.669555902481079	response	0	2		1.0	2.5	/experiments/knapen_aot/videos/S_yt-4Qz0m5IYh10_167.mp4	0.0	146.02706694602966	
3	7.674484014511108	movie	1		299.0	1.0	2.5	/experiments/knapen_aot/videos/S_yt-4Qz0m5IYh10_167.mp4	0.0	146.0319950580597	2.5082499980926514
3	10.18273401260376	fix_post	2		12.0	1.0	2.5	/experiments/knapen_aot/videos/S_yt-4Qz0m5IYh10_167.mp4	0.0	148.54024505615234	0.09994196891784668
4	10.282675981521606	fix_pre	0		38.0	2.0	2.5	/experiments/knapen_aot/videos/S_pexels-cottonbro-6789231.mp4	0.0	148.6401870250702	0.316770076751709
4	10.591208934783936	response	0	2		2.0	2.5	/experiments/knapen_aot/videos/S_pexels-cottonbro-6789231.mp4	0.0	148.94871997833252	
4	10.599446058273315	movie	1		199.0	2.0	2.5	/experiments/knapen_aot/videos/S_pexels-cottonbro-6789231.mp4	0.0	148.9569571018219	2.5082907676696777
4	13.107736825942993	fix_post	2		12.0	2.0	2.5	/experiments/knapen_aot/videos/S_pexels-cottonbro-6789231.mp4	0.0	151.46524786949158	0.10002923011779785
5	13.207766056060791	fix_pre	0		15.0	3.0	2.5	/experiments/knapen_aot/videos/S_wc-PqINyFk_ku4u_18.mp4	0.0	151.56527709960938	0.12585687637329102
5	13.317101001739502	response	0	2		3.0	2.5	/experiments/knapen_aot/videos/S_wc-PqINyFk_ku4u_18.mp4	0.0	151.6746120452881	
5	13.333622932434082	movie	1		163.0	3.0	2.5	/experiments/knapen_aot/videos/S_wc-PqINyFk_ku4u_18.mp4	0.0	151.69113397598267	2.507478952407837
5	15.841101884841919	fix_post	2		12.0	3.0	2.5	/experiments/knapen_aot/videos/S_wc-PqINyFk_ku4u_18.mp4	0.0	154.1986129283905	0.10001707077026367
6	15.941118955612183	fix_pre	0		54.0	4.0	2.5	/experiments/knapen_aot/videos/S_g201_AK_A003_C014_SDR_20191113_SDR_2K_AVC.mp4	0.0	154.29862999916077	0.44993090629577637
6	16.382910013198853	response	0	2		4.0	2.5	/experiments/knapen_aot/videos/S_g201_AK_A003_C014_SDR_20191113_SDR_2K_AVC.mp4	0.0	154.74042105674744	
6	16.39104986190796	movie	1		175.0	4.0	2.5	/experiments/knapen_aot/videos/S_g201_AK_A003_C014_SDR_20191113_SDR_2K_AVC.mp4	0.0	154.74856090545654	2.5083651542663574
6	18.899415016174316	fix_post	2		12.0	4.0	2.5	/experiments/knapen_aot/videos/S_g201_AK_A003_C014_SDR_20191113_SDR_2K_AVC.mp4	0.0	157.2569260597229	0.10001182556152344
7	18.99942684173584	fix_pre	0		60.0	5.0	2.5	blank	1.0	157.35693788528442	0.5008690357208252
7	19.49126696586609	response	0	2		5.0	2.5	blank	1.0	157.84877800941467	
7	19.500295877456665	movie	1		301.0	5.0	2.5	blank	1.0	157.85780692100525	2.5074310302734375
7	22.007726907730103	fix_post	2		12.0	5.0	2.5	blank	1.0	160.3652379512787	0.09997296333312988
8	22.107699871063232	fix_pre	0		42.0	6.0	2.5	/experiments/knapen_aot/videos/S_comp_H007_C003_PS_v01_SDR_PS_20180925_SDR_2K_AVC.mp4	0.0	160.46521091461182	0.3508601188659668
8	22.44954204559326	response	0	2		6.0	2.5	/experiments/knapen_aot/videos/S_comp_H007_C003_PS_v01_SDR_PS_20180925_SDR_2K_AVC.mp4	0.0	160.80705308914185	
8	22.4585599899292	movie	1		168.0	6.0	2.5	/experiments/knapen_aot/videos/S_comp_H007_C003_PS_v01_SDR_PS_20180925_SDR_2K_AVC.mp4	0.0	160.81607103347778	2.5074548721313477
8	24.966014862060547	fix_post	2		12.0	6.0	2.5	/experiments/knapen_aot/videos/S_comp_H007_C003_PS_v01_SDR_PS_20180925_SDR_2K_AVC.mp4	0.0	163.32352590560913	0.1000370979309082
9	25.066051959991455	fix_pre	0		22.0	7.0	2.5	/experiments/knapen_aot/videos/S_yt-aSEKRE_FNaI_62.mp4	0.0	163.42356300354004	0.18416309356689453
9	25.24113893508911	response	0	2		7.0	2.5	/experiments/knapen_aot/videos/S_yt-aSEKRE_FNaI_62.mp4	0.0	163.5986499786377	
9	25.25021505355835	movie	1		301.0	7.0	2.5	/experiments/knapen_aot/videos/S_yt-aSEKRE_FNaI_62.mp4	0.0	163.60772609710693	2.5075318813323975
9	27.757746934890747	fix_post	2		12.0	7.0	2.5	/experiments/knapen_aot/videos/S_yt-aSEKRE_FNaI_62.mp4	0.0	166.11525797843933	0.09994697570800781
10	27.857693910598755	fix_pre	0		5.0	8.0	2.5	/experiments/knapen_aot/videos/S_yt-7Fyu2vr7zbA_31.mp4	0.0	166.21520495414734	0.04171013832092285
10	27.89120101928711	response	0	2		8.0	2.5	/experiments/knapen_aot/videos/S_yt-7Fyu2vr7zbA_31.mp4	0.0	166.2487120628357	
10	27.899404048919678	movie	1		297.0	8.0	2.5	/experiments/knapen_aot/videos/S_yt-7Fyu2vr7zbA_31.mp4	0.0	166.25691509246826	2.5083489418029785
10	30.407752990722656	fix_post	2		12.0	8.0	2.5	/experiments/knapen_aot/videos/S_yt-7Fyu2vr7zbA_31.mp4	0.0	168.76526403427124	0.10001993179321289
11	30.50777292251587	fix_pre	0		47.0	9.0	2.5	/experiments/knapen_aot/videos/R_S_yt-ycfVJyrFgB4_15.mp4	0.0	168.86528396606445	0.39160895347595215
11	30.89120388031006	response	0	2		9.0	2.5	/experiments/knapen_aot/videos/R_S_yt-ycfVJyrFgB4_15.mp4	0.0	169.24871492385864	
11	30.89938187599182	movie	1		301.0	9.0	2.5	/experiments/knapen_aot/videos/R_S_yt-ycfVJyrFgB4_15.mp4	0.0	169.2568929195404	2.5083889961242676
11	32.89143896102905	response	1	2		9.0	2.5	/experiments/knapen_aot/videos/R_S_yt-ycfVJyrFgB4_15.mp4	0.0	171.24895000457764	
11	33.40777087211609	fix_post	2		12.0	9.0	2.5	/experiments/knapen_aot/videos/R_S_yt-ycfVJyrFgB4_15.mp4	0.0	171.76528191566467	0.09998798370361328
12	33.5077588558197	fix_pre	0		37.0	10.0	2.5	/experiments/knapen_aot/videos/S_yt-eoASPwIAiHY_244.mp4	0.0	171.8652698993683	0.3082280158996582
12	33.8079400062561	response	0	2		10.0	2.5	/experiments/knapen_aot/videos/S_yt-eoASPwIAiHY_244.mp4	0.0	172.1654510498047	
12	33.81598687171936	movie	1		301.0	10.0	2.5	/experiments/knapen_aot/videos/S_yt-eoASPwIAiHY_244.mp4	0.0	172.17349791526794	2.5084011554718018
12	36.32438802719116	fix_post	2		12.0	10.0	2.5	/experiments/knapen_aot/videos/S_yt-eoASPwIAiHY_244.mp4	0.0	174.68189907073975	0.09993386268615723
13	36.42432188987732	fix_pre	0		165.0	11.0	2.5	/experiments/knapen_aot/videos/S_PA_A004_C003_SDR_20190719_SDR_2K_AVC.mp4	0.0	174.7818329334259	1.3750331401824951
13	37.79114890098572	response	0	2		11.0	2.5	/experiments/knapen_aot/videos/S_PA_A004_C003_SDR_20190719_SDR_2K_AVC.mp4	0.0	176.1486599445343	
13	37.799355030059814	movie	1		168.0	11.0	2.5	/experiments/knapen_aot/videos/S_PA_A004_C003_SDR_20190719_SDR_2K_AVC.mp4	0.0	176.1568660736084	2.5082619190216064
13	40.30761694908142	fix_post	2		12.0	11.0	2.5	/experiments/knapen_aot/videos/S_PA_A004_C003_SDR_20190719_SDR_2K_AVC.mp4	0.0	178.66512799263	0.10000109672546387
14	40.407618045806885	fix_pre	0		55.0	12.0	2.5	blank	1.0	178.76512908935547	0.4582958221435547
14	40.85780096054077	response	0	2		12.0	2.5	blank	1.0	179.21531200408936	
14	40.86591386795044	movie	1		301.0	12.0	2.5	blank	1.0	179.22342491149902	2.5083730220794678
14	43.37428689002991	fix_post	2		12.0	12.0	2.5	blank	1.0	181.7317979335785	0.10001301765441895
15	43.474299907684326	fix_pre	0		16.0	13.0	2.5	/experiments/knapen_aot/videos/S_yt--jzScB82vKI_90.mp4	0.0	181.8318109512329	0.13331103324890137
15	43.59942388534546	response	0	2		13.0	2.5	/experiments/knapen_aot/videos/S_yt--jzScB82vKI_90.mp4	0.0	181.95693492889404	
15	43.60761094093323	movie	1		301.0	13.0	2.5	/experiments/knapen_aot/videos/S_yt--jzScB82vKI_90.mp4	0.0	181.9651219844818	2.508362054824829
15	46.11597299575806	fix_post	2		12.0	13.0	2.5	/experiments/knapen_aot/videos/S_yt--jzScB82vKI_90.mp4	0.0	184.47348403930664	0.09990906715393066
16	46.21588206291199	fix_pre	0		22.0	14.0	2.5	/experiments/knapen_aot/videos/S_bing-www_msn_com_en-us_video_news_tommy-lasorda-salutes-national-league-champs_vp-AAtLThQ_4.mp4	0.0	184.57339310646057	0.18332195281982422
16	46.39104700088501	response	0	2		14.0	2.5	/experiments/knapen_aot/videos/S_bing-www_msn_com_en-us_video_news_tommy-lasorda-salutes-national-league-champs_vp-AAtLThQ_4.mp4	0.0	184.7485580444336	
16	46.39920401573181	movie	1		161.0	14.0	2.5	/experiments/knapen_aot/videos/S_bing-www_msn_com_en-us_video_news_tommy-lasorda-salutes-national-league-champs_vp-AAtLThQ_4.mp4	0.0	184.7567150592804	2.5084338188171387
16	47.439964056015015	response	1	2		14.0	2.5	/experiments/knapen_aot/videos/S_bing-www_msn_com_en-us_video_news_tommy-lasorda-salutes-national-league-champs_vp-AAtLThQ_4.mp4	0.0	185.7974750995636	
16	48.90763783454895	fix_post	2		12.0	14.0	2.5	/experiments/knapen_aot/videos/S_bing-www_msn_com_en-us_video_news_tommy-lasorda-salutes-national-league-champs_vp-AAtLThQ_4.mp4	0.0	187.26514887809753	0.10002613067626953
17	49.00766396522522	fix_pre	0		17.0	15.0	2.5	/experiments/knapen_aot/videos/R_S_yt-tMP5WhHMtWE_55.mp4	0.0	187.3651750087738	0.14157605171203613
17	49.14110493659973	response	0	2		15.0	2.5	/experiments/knapen_aot/videos/R_S_yt-tMP5WhHMtWE_55.mp4	0.0	187.49861598014832	
17	49.149240016937256	movie	1		301.0	15.0	2.5	/experiments/knapen_aot/videos/R_S_yt-tMP5WhHMtWE_55.mp4	0.0	187.50675106048584	2.5084338188171387
17	51.657673835754395	fix_post	2		12.0	15.0	2.5	/experiments/knapen_aot/videos/R_S_yt-tMP5WhHMtWE_55.mp4	0.0	190.01518487930298	0.09989309310913086
18	51.757566928863525	fix_pre	0		43.0	16.0	2.5	/experiments/knapen_aot/videos/S_pexels-cottonbro-6788024.mp4	0.0	190.1150779724121	0.3583369255065918
18	52.107759952545166	response	0	2		16.0	2.5	/experiments/knapen_aot/videos/S_pexels-cottonbro-6788024.mp4	0.0	190.46527099609375	
18	52.11590385437012	movie	1		207.0	16.0	2.5	/experiments/knapen_aot/videos/S_pexels-cottonbro-6788024.mp4	0.0	190.4734148979187	2.5084609985351562
18	54.62436485290527	fix_post	2		12.0	16.0	2.5	/experiments/knapen_aot/videos/S_pexels-cottonbro-6788024.mp4	0.0	192.98187589645386	0.09990715980529785
19	54.72427201271057	fix_pre	0		57.0	17.0	2.5	/experiments/knapen_aot/videos/S_yt-c5_SFS4aaJI_1102.mp4	0.0	193.08178305625916	0.4749479293823242
19	55.19107484817505	response	0	2		17.0	2.5	/experiments/knapen_aot/videos/S_yt-c5_SFS4aaJI_1102.mp4	0.0	193.54858589172363	
19	55.199219942092896	movie	1		301.0	17.0	2.5	/experiments/knapen_aot/videos/S_yt-c5_SFS4aaJI_1102.mp4	0.0	193.55673098564148	2.5082969665527344
19	57.70751690864563	fix_post	2		12.0	17.0	2.5	/experiments/knapen_aot/videos/S_yt-c5_SFS4aaJI_1102.mp4	0.0	196.0650279521942	0.10008502006530762
20	57.80760192871094	fix_pre	0		25.0	18.0	2.5	/experiments/knapen_aot/videos/S_ILSVRC2015_train_00613000.mp4	0.0	196.16511297225952	0.2083139419555664
20	58.007668018341064	response	0	2		18.0	2.5	/experiments/knapen_aot/videos/S_ILSVRC2015_train_00613000.mp4	0.0	196.36517906188965	
20	58.015915870666504	movie	1		301.0	18.0	2.5	/experiments/knapen_aot/videos/S_ILSVRC2015_train_00613000.mp4	0.0	196.3734269142151	2.508341073989868
20	60.52425694465637	fix_post	2		12.0	18.0	2.5	/experiments/knapen_aot/videos/S_ILSVRC2015_train_00613000.mp4	0.0	198.88176798820496	0.09999203681945801
21	60.62424898147583	fix_pre	0		11.0	19.0	2.5	/experiments/knapen_aot/videos/R_S_comp_GMT110_112NC_364D_1054_AURORA_ANTARTICA__COMP_FINAL_v34_PS_SDR_20181107_SDR_2K_AVC.mp4	0.0	198.9817600250244	0.09168601036071777
21	60.70776891708374	response	0	2		19.0	2.5	/experiments/knapen_aot/videos/R_S_comp_GMT110_112NC_364D_1054_AURORA_ANTARTICA__COMP_FINAL_v34_PS_SDR_20181107_SDR_2K_AVC.mp4	0.0	199.06527996063232	
21	60.71593499183655	movie	1		161.0	19.0	2.5	/experiments/knapen_aot/videos/R_S_comp_GMT110_112NC_364D_1054_AURORA_ANTARTICA__COMP_FINAL_v34_PS_SDR_20181107_SDR_2K_AVC.mp4	0.0	199.07344603538513	2.5082578659057617
21	63.22419285774231	fix_post	2		12.0	19.0	2.5	/experiments/knapen_aot/videos/R_S_comp_GMT110_112NC_364D_1054_AURORA_ANTARTICA__COMP_FINAL_v34_PS_SDR_20181107_SDR_2K_AVC.mp4	0.0	201.5817039012909	0.10005807876586914
22	63.32425093650818	fix_pre	0		14.0	20.0	2.5	/experiments/knapen_aot/videos/S_wc-auTIuWLTxxkn_5.mp4	0.0	201.68176198005676	0.11660003662109375
22	63.432656049728394	response	0	2		20.0	2.5	/experiments/knapen_aot/videos/S_wc-auTIuWLTxxkn_5.mp4	0.0	201.79016709327698	
22	63.44085097312927	movie	1		161.0	20.0	2.5	/experiments/knapen_aot/videos/S_wc-auTIuWLTxxkn_5.mp4	0.0	201.79836201667786	2.5083348751068115
22	65.94918584823608	fix_post	2		12.0	20.0	2.5	/experiments/knapen_aot/videos/S_wc-auTIuWLTxxkn_5.mp4	0.0	204.30669689178467	0.1000051498413086
23	66.04919099807739	fix_pre	0		9.0	21.0	2.5	blank	1.0	204.40670204162598	0.07571196556091309
23	66.11601686477661	response	0	2		21.0	2.5	blank	1.0	204.4735279083252	
23	66.1249029636383	movie	1		301.0	21.0	2.5	blank	1.0	204.4824140071869	2.507627010345459
23	67.47435283660889	response	1	2		21.0	2.5	blank	1.0	205.83186388015747	
23	68.63252997398376	fix_post	2		12.0	21.0	2.5	blank	1.0	206.99004101753235	0.10002303123474121
24	68.7325530052185	fix_pre	0		16.0	22.0	2.5	/experiments/knapen_aot/videos/R_S_yt-Xegmd8whqBs_230.mp4	0.0	207.0900640487671	0.1332688331604004
24	68.85764193534851	response	0	2		22.0	2.5	/experiments/knapen_aot/videos/R_S_yt-Xegmd8whqBs_230.mp4	0.0	207.2151529788971	
24	68.8658218383789	movie	1		301.0	22.0	2.5	/experiments/knapen_aot/videos/R_S_yt-Xegmd8whqBs_230.mp4	0.0	207.2233328819275	2.508355140686035
24	70.73612904548645	response	1	2		22.0	2.5	/experiments/knapen_aot/videos/R_S_yt-Xegmd8whqBs_230.mp4	0.0	209.09364008903503	
24	71.37417697906494	fix_post	2		12.0	22.0	2.5	/experiments/knapen_aot/videos/R_S_yt-Xegmd8whqBs_230.mp4	0.0	209.73168802261353	0.10001897811889648
25	71.47419595718384	fix_pre	0		9.0	23.0	2.5	/experiments/knapen_aot/videos/R_S_yt-qiPhBL4lBr0_44.mp4	0.0	209.83170700073242	0.0749969482421875
25	71.54098296165466	response	0	2		23.0	2.5	/experiments/knapen_aot/videos/R_S_yt-qiPhBL4lBr0_44.mp4	0.0	209.89849400520325	
25	71.54919290542603	movie	1		301.0	23.0	2.5	/experiments/knapen_aot/videos/R_S_yt-qiPhBL4lBr0_44.mp4	0.0	209.9067039489746	2.5083420276641846
25	74.05753493309021	fix_post	2		12.0	23.0	2.5	/experiments/knapen_aot/videos/R_S_yt-qiPhBL4lBr0_44.mp4	0.0	212.4150459766388	0.10011100769042969
26	74.15764594078064	fix_pre	0		20.0	24.0	2.5	/experiments/knapen_aot/videos/S_yt-1XfKrSmjtl4_443.mp4	0.0	212.51515698432922	0.16655993461608887
26	74.31591486930847	response	0	2		24.0	2.5	/experiments/knapen_aot/videos/S_yt-1XfKrSmjtl4_443.mp4	0.0	212.67342591285706	
26	74.32420587539673	movie	1		301.0	24.0	2.5	/experiments/knapen_aot/videos/S_yt-1XfKrSmjtl4_443.mp4	0.0	212.6817169189453	2.508275032043457
26	74.51097393035889	response	1	2		24.0	2.5	/experiments/knapen_aot/videos/S_yt-1XfKrSmjtl4_443.mp4	0.0	212.86848497390747	
26	76.83248090744019	fix_post	2		12.0	24.0	2.5	/experiments/knapen_aot/videos/S_yt-1XfKrSmjtl4_443.mp4	0.0	215.18999195098877	0.10003304481506348
27	76.93251395225525	fix_pre	0		25.0	25.0	2.5	/experiments/knapen_aot/videos/R_S_Ds4EKTLx_RI_51.mp4	0.0	215.29002499580383	0.20829391479492188
27	77.13258385658264	response	0	2		25.0	2.5	/experiments/knapen_aot/videos/R_S_Ds4EKTLx_RI_51.mp4	0.0	215.49009490013123	
27	77.14080786705017	movie	1		301.0	25.0	2.5	/experiments/knapen_aot/videos/R_S_Ds4EKTLx_RI_51.mp4	0.0	215.49831891059875	2.5083329677581787
27	79.64914083480835	fix_post	2		12.0	25.0	2.5	/experiments/knapen_aot/videos/R_S_Ds4EKTLx_RI_51.mp4	0.0	218.00665187835693	0.09991121292114258
28	79.74905204772949	fix_pre	0		59.0	26.0	2.5	/experiments/knapen_aot/videos/R_S_BO_A014_C008_SDR_20190719_SDR_2K_AVC.mp4	0.0	218.10656309127808	0.49172282218933105
28	80.23263001441956	response	0	2		26.0	2.5	/experiments/knapen_aot/videos/R_S_BO_A014_C008_SDR_20190719_SDR_2K_AVC.mp4	0.0	218.59014105796814	
28	80.24077486991882	movie	1		168.0	26.0	2.5	/experiments/knapen_aot/videos/R_S_BO_A014_C008_SDR_20190719_SDR_2K_AVC.mp4	0.0	218.5982859134674	2.5083751678466797
28	82.7491500377655	fix_post	2		12.0	26.0	2.5	/experiments/knapen_aot/videos/R_S_BO_A014_C008_SDR_20190719_SDR_2K_AVC.mp4	0.0	221.1066610813141	0.09992194175720215
29	82.8490719795227	fix_pre	0		18.0	27.0	2.5	/experiments/knapen_aot/videos/R_S_yt-H-qQ0oE1kwM_6.mp4	0.0	221.2065830230713	0.15055108070373535
29	82.98352289199829	response	0	2		27.0	2.5	/experiments/knapen_aot/videos/R_S_yt-H-qQ0oE1kwM_6.mp4	0.0	221.34103393554688	
29	82.99962306022644	movie	1		299.0	27.0	2.5	/experiments/knapen_aot/videos/R_S_yt-H-qQ0oE1kwM_6.mp4	0.0	221.35713410377502	2.5078539848327637
29	85.5074770450592	fix_post	2		12.0	27.0	2.5	/experiments/knapen_aot/videos/R_S_yt-H-qQ0oE1kwM_6.mp4	0.0	223.8649880886078	0.10002899169921875
30	85.60750603675842	fix_pre	0		13.0	28.0	2.5	blank	1.0	223.965017080307	0.1083378791809082
30	85.70756483078003	response	0	2		28.0	2.5	blank	1.0	224.0650758743286	
30	85.71584391593933	movie	1		301.0	28.0	2.5	blank	1.0	224.07335495948792	2.5083210468292236
30	88.22416496276855	fix_post	2		12.0	28.0	2.5	blank	1.0	226.58167600631714	0.09994292259216309
31	88.32410788536072	fix_pre	0		95.0	29.0	2.5	/experiments/knapen_aot/videos/S_comp_LW_L001_C006_PSNK_DENOISE_v02_SDR_PS_FINAL_20180709_SDR_2K_AVC.mp4	0.0	226.6816189289093	0.7916591167449951
31	89.10762286186218	response	0	2		29.0	2.5	/experiments/knapen_aot/videos/S_comp_LW_L001_C006_PSNK_DENOISE_v02_SDR_PS_FINAL_20180709_SDR_2K_AVC.mp4	0.0	227.46513390541077	
31	89.11576700210571	movie	1		173.0	29.0	2.5	/experiments/knapen_aot/videos/S_comp_LW_L001_C006_PSNK_DENOISE_v02_SDR_PS_FINAL_20180709_SDR_2K_AVC.mp4	0.0	227.4732780456543	2.5083529949188232
31	91.62411999702454	fix_post	2		12.0	29.0	2.5	/experiments/knapen_aot/videos/S_comp_LW_L001_C006_PSNK_DENOISE_v02_SDR_PS_FINAL_20180709_SDR_2K_AVC.mp4	0.0	229.98163104057312	0.10005688667297363
32	91.72417688369751	fix_pre	0		75.0	30.0	2.5	/experiments/knapen_aot/videos/R_S_yt-EuyfT0PuOoQ_91.mp4	0.0	230.0816879272461	0.6249489784240723
32	92.34095788002014	response	0	2		30.0	2.5	/experiments/knapen_aot/videos/R_S_yt-EuyfT0PuOoQ_91.mp4	0.0	230.69846892356873	
32	92.34912586212158	movie	1		301.0	30.0	2.5	/experiments/knapen_aot/videos/R_S_yt-EuyfT0PuOoQ_91.mp4	0.0	230.70663690567017	2.508345127105713
32	94.8574709892273	fix_post	2		12.0	30.0	2.5	/experiments/knapen_aot/videos/R_S_yt-EuyfT0PuOoQ_91.mp4	0.0	233.21498203277588	0.09993600845336914
33	94.95740699768066	fix_pre	0		17.0	31.0	2.5	/experiments/knapen_aot/videos/R_S_yt-7e6Z9QQieAk_183.mp4	0.0	233.31491804122925	0.1416609287261963
33	95.09085702896118	response	0	2		31.0	2.5	/experiments/knapen_aot/videos/R_S_yt-7e6Z9QQieAk_183.mp4	0.0	233.44836807250977	
33	95.09906792640686	movie	1		301.0	31.0	2.5	/experiments/knapen_aot/videos/R_S_yt-7e6Z9QQieAk_183.mp4	0.0	233.45657896995544	2.508302927017212
33	97.60737085342407	fix_post	2		12.0	31.0	2.5	/experiments/knapen_aot/videos/R_S_yt-7e6Z9QQieAk_183.mp4	0.0	235.96488189697266	0.10051703453063965
34	97.70788788795471	fix_pre	0		34.0	32.0	2.5	/experiments/knapen_aot/videos/R_S_ILSVRC2015_train_00404004.mp4	0.0	236.0653989315033	0.28281617164611816
34	97.97502899169922	response	0	2		32.0	2.5	/experiments/knapen_aot/videos/R_S_ILSVRC2015_train_00404004.mp4	0.0	236.3325400352478	
34	97.99070405960083	movie	1		301.0	32.0	2.5	/experiments/knapen_aot/videos/R_S_ILSVRC2015_train_00404004.mp4	0.0	236.3482151031494	2.5083367824554443
34	100.49904084205627	fix_post	2		12.0	32.0	2.5	/experiments/knapen_aot/videos/R_S_ILSVRC2015_train_00404004.mp4	0.0	238.85655188560486	0.0999910831451416
35	100.59903192520142	fix_pre	0		28.0	33.0	2.5	blank	1.0	238.95654296875	0.2338120937347412
35	100.82415294647217	response	0	2		33.0	2.5	blank	1.0	239.18166399002075	
35	100.83284401893616	movie	1		301.0	33.0	2.5	blank	1.0	239.19035506248474	2.5078718662261963
35	103.34071588516235	fix_post	2		12.0	33.0	2.5	blank	1.0	241.69822692871094	0.0999751091003418
36	103.4406909942627	fix_pre	0		30.0	34.0	2.5	/experiments/knapen_aot/videos/S_yt-VrEuTDQxtD0_226.mp4	0.0	241.79820203781128	0.2499680519104004
36	103.68244004249573	response	0	2		34.0	2.5	/experiments/knapen_aot/videos/S_yt-VrEuTDQxtD0_226.mp4	0.0	242.0399510860443	
36	103.6906590461731	movie	1		301.0	34.0	2.5	/experiments/knapen_aot/videos/S_yt-VrEuTDQxtD0_226.mp4	0.0	242.04817008972168	2.5084269046783447
36	106.19908595085144	fix_post	2		12.0	34.0	2.5	/experiments/knapen_aot/videos/S_yt-VrEuTDQxtD0_226.mp4	0.0	244.55659699440002	0.0999910831451416
37	106.29907703399658	fix_pre	0		32.0	35.0	2.5	/experiments/knapen_aot/videos/R_S_yt-aSEKRE_FNaI_62.mp4	0.0	244.65658807754517	0.2666349411010742
37	106.55754899978638	response	0	2		35.0	2.5	/experiments/knapen_aot/videos/R_S_yt-aSEKRE_FNaI_62.mp4	0.0	244.91506004333496	
37	106.56571197509766	movie	1		301.0	35.0	2.5	/experiments/knapen_aot/videos/R_S_yt-aSEKRE_FNaI_62.mp4	0.0	244.92322301864624	2.5083110332489014
37	109.07402300834656	fix_post	2		12.0	35.0	2.5	/experiments/knapen_aot/videos/R_S_yt-aSEKRE_FNaI_62.mp4	0.0	247.43153405189514	0.10003900527954102
38	109.1740620136261	fix_pre	0		24.0	36.0	2.5	/experiments/knapen_aot/videos/R_S_DV6V38rplag_215.mp4	0.0	247.53157305717468	0.20039582252502441
38	109.36577296257019	response	0	2		36.0	2.5	/experiments/knapen_aot/videos/R_S_DV6V38rplag_215.mp4	0.0	247.72328400611877	
38	109.37445783615112	movie	1		301.0	36.0	2.5	/experiments/knapen_aot/videos/R_S_DV6V38rplag_215.mp4	0.0	247.7319688796997	2.5078680515289307
38	111.6075119972229	response	1	2		36.0	2.5	/experiments/knapen_aot/videos/R_S_DV6V38rplag_215.mp4	0.0	249.96502304077148	
38	111.88232588768005	fix_post	2		12.0	36.0	2.5	/experiments/knapen_aot/videos/R_S_DV6V38rplag_215.mp4	0.0	250.23983693122864	0.09996199607849121
39	111.98228788375854	fix_pre	0		35.0	37.0	2.5	/experiments/knapen_aot/videos/S_comp_A105_C002_v06_SDR_FINAL_25062018_SDR_2K_AVC.mp4	0.0	250.33979892730713	0.29168701171875
39	112.25836396217346	response	0	2		37.0	2.5	/experiments/knapen_aot/videos/S_comp_A105_C002_v06_SDR_FINAL_25062018_SDR_2K_AVC.mp4	0.0	250.61587500572205	
39	112.2739748954773	movie	1		165.0	37.0	2.5	/experiments/knapen_aot/videos/S_comp_A105_C002_v06_SDR_FINAL_25062018_SDR_2K_AVC.mp4	0.0	250.63148593902588	2.5083391666412354
39	114.78231406211853	fix_post	2		12.0	37.0	2.5	/experiments/knapen_aot/videos/S_comp_A105_C002_v06_SDR_FINAL_25062018_SDR_2K_AVC.mp4	0.0	253.13982510566711	0.09997177124023438
40	114.88228583335876	fix_pre	0		16.0	38.0	2.5	/experiments/knapen_aot/videos/R_S_b3TCugtX0h0_108.mp4	0.0	253.23979687690735	0.1333332061767578
40	115.00746989250183	response	0	2		38.0	2.5	/experiments/knapen_aot/videos/R_S_b3TCugtX0h0_108.mp4	0.0	253.36498093605042	
40	115.01561903953552	movie	1		301.0	38.0	2.5	/experiments/knapen_aot/videos/R_S_b3TCugtX0h0_108.mp4	0.0	253.3731300830841	2.5083580017089844
40	117.5239770412445	fix_post	2		12.0	38.0	2.5	/experiments/knapen_aot/videos/R_S_b3TCugtX0h0_108.mp4	0.0	255.8814880847931	0.10039091110229492
41	117.6243679523468	fix_pre	0		15.0	39.0	2.5	/experiments/knapen_aot/videos/R_S_yt-McqS-QObQbk_122.mp4	0.0	255.98187899589539	0.12494397163391113
41	117.74068403244019	response	0	2		39.0	2.5	/experiments/knapen_aot/videos/R_S_yt-McqS-QObQbk_122.mp4	0.0	256.09819507598877	
41	117.74931192398071	movie	1		301.0	39.0	2.5	/experiments/knapen_aot/videos/R_S_yt-McqS-QObQbk_122.mp4	0.0	256.1068229675293	2.507986068725586
41	120.2572979927063	fix_post	2		12.0	39.0	2.5	/experiments/knapen_aot/videos/R_S_yt-McqS-QObQbk_122.mp4	0.0	258.6148090362549	0.10003995895385742
42	120.35733795166016	fix_pre	0		24.0	40.0	2.5	blank	1.0	258.71484899520874	0.19995999336242676
42	120.54910588264465	response	0	2		40.0	2.5	blank	1.0	258.90661692619324	
42	120.55729794502258	movie	1		301.0	40.0	2.5	blank	1.0	258.91480898857117	2.5083398818969727
42	123.06563782691956	fix_post	2		12.0	40.0	2.5	blank	1.0	261.42314887046814	0.09993410110473633
43	123.16557192802429	fix_pre	0		52.0	41.0	2.5	/experiments/knapen_aot/videos/R_S_yt-f9iXELY0EJ0_344.mp4	0.0	261.5230829715729	0.43333911895751953
43	123.59071087837219	response	0	2		41.0	2.5	/experiments/knapen_aot/videos/R_S_yt-f9iXELY0EJ0_344.mp4	0.0	261.9482219219208	
43	123.59891104698181	movie	1		301.0	41.0	2.5	/experiments/knapen_aot/videos/R_S_yt-f9iXELY0EJ0_344.mp4	0.0	261.9564220905304	2.508373975753784
43	126.1072850227356	fix_post	2		12.0	41.0	2.5	/experiments/knapen_aot/videos/R_S_yt-f9iXELY0EJ0_344.mp4	0.0	264.4647960662842	0.10034489631652832
44	126.20762991905212	fix_pre	0		31.0	42.0	2.5	/experiments/knapen_aot/videos/R_S_yt-fjOsq03OC2c_188.mp4	0.0	264.5651409626007	0.2579960823059082
44	126.45756101608276	response	0	2		42.0	2.5	/experiments/knapen_aot/videos/R_S_yt-fjOsq03OC2c_188.mp4	0.0	264.81507205963135	
44	126.46562600135803	movie	1		301.0	42.0	2.5	/experiments/knapen_aot/videos/R_S_yt-fjOsq03OC2c_188.mp4	0.0	264.8231370449066	2.5082619190216064
44	128.97388792037964	fix_post	2		12.0	42.0	2.5	/experiments/knapen_aot/videos/R_S_yt-fjOsq03OC2c_188.mp4	0.0	267.3313989639282	0.10002493858337402
45	129.073912858963	fix_pre	0		12.0	43.0	2.5	/experiments/knapen_aot/videos/R_S_PA_A004_C003_SDR_20190719_SDR_2K_AVC.mp4	0.0	267.4314239025116	0.09999203681945801
45	129.16578793525696	response	0	2		43.0	2.5	/experiments/knapen_aot/videos/R_S_PA_A004_C003_SDR_20190719_SDR_2K_AVC.mp4	0.0	267.52329897880554	
45	129.17390489578247	movie	1		174.0	43.0	2.5	/experiments/knapen_aot/videos/R_S_PA_A004_C003_SDR_20190719_SDR_2K_AVC.mp4	0.0	267.53141593933105	2.508355140686035
45	131.6822600364685	fix_post	2		12.0	43.0	2.5	/experiments/knapen_aot/videos/R_S_PA_A004_C003_SDR_20190719_SDR_2K_AVC.mp4	0.0	270.0397710800171	0.09998893737792969
46	131.78224897384644	fix_pre	0		12.0	44.0	2.5	/experiments/knapen_aot/videos/R_S_yt-c-H45QS0CF4_147.mp4	0.0	270.139760017395	0.09997701644897461
46	131.874027967453	response	0	2		44.0	2.5	/experiments/knapen_aot/videos/R_S_yt-c-H45QS0CF4_147.mp4	0.0	270.2315390110016	
46	131.8822259902954	movie	1		301.0	44.0	2.5	/experiments/knapen_aot/videos/R_S_yt-c-H45QS0CF4_147.mp4	0.0	270.239737033844	2.5083818435668945
46	134.3906078338623	fix_post	2		12.0	44.0	2.5	/experiments/knapen_aot/videos/R_S_yt-c-H45QS0CF4_147.mp4	0.0	272.7481188774109	0.09996700286865234
47	134.49057483673096	fix_pre	0		10.0	45.0	2.5	/experiments/knapen_aot/videos/S_ILSVRC2015_train_00405001.mp4	0.0	272.84808588027954	0.0832970142364502
47	134.5657548904419	response	0	2		45.0	2.5	/experiments/knapen_aot/videos/S_ILSVRC2015_train_00405001.mp4	0.0	272.9232659339905	
47	134.5738718509674	movie	1		299.0	45.0	2.5	/experiments/knapen_aot/videos/S_ILSVRC2015_train_00405001.mp4	0.0	272.931382894516	2.508395195007324
47	137.08226704597473	fix_post	2		12.0	45.0	2.5	/experiments/knapen_aot/videos/S_ILSVRC2015_train_00405001.mp4	0.0	275.4397780895233	0.09996581077575684
48	137.1822328567505	fix_pre	0		11.0	46.0	2.5	/experiments/knapen_aot/videos/S_yt-4RKOPaRF42o_124.mp4	0.0	275.5397439002991	0.09166812896728516
48	137.26574683189392	response	0	2		46.0	2.5	/experiments/knapen_aot/videos/S_yt-4RKOPaRF42o_124.mp4	0.0	275.6232578754425	
48	137.27390098571777	movie	1		301.0	46.0	2.5	/experiments/knapen_aot/videos/S_yt-4RKOPaRF42o_124.mp4	0.0	275.63141202926636	2.508331060409546
48	139.78223204612732	fix_post	2		12.0	46.0	2.5	/experiments/knapen_aot/videos/S_yt-4RKOPaRF42o_124.mp4	0.0	278.1397430896759	0.09999799728393555
49	139.88223004341125	fix_pre	0		20.0	47.0	2.5	/experiments/knapen_aot/videos/R_S_pexels-marcus-aurelius-6785014.mp4	0.0	278.23974108695984	0.1666579246520996
49	140.04070687294006	response	0	2		47.0	2.5	/experiments/knapen_aot/videos/R_S_pexels-marcus-aurelius-6785014.mp4	0.0	278.39821791648865	
49	140.04888796806335	movie	1		171.0	47.0	2.5	/experiments/knapen_aot/videos/R_S_pexels-marcus-aurelius-6785014.mp4	0.0	278.40639901161194	2.5083870887756348
49	142.557275056839	fix_post	2		12.0	47.0	2.5	/experiments/knapen_aot/videos/R_S_pexels-marcus-aurelius-6785014.mp4	0.0	280.9147861003876	0.09998798370361328
49	142.61571598052979	response	2	2		47.0	2.5	/experiments/knapen_aot/videos/R_S_pexels-marcus-aurelius-6785014.mp4	0.0	280.97322702407837	
50	142.6572630405426	fix_pre	0		57.0	48.0	2.5	/experiments/knapen_aot/videos/S_pexels-cottonbro-6788024.mp4	0.0	281.0147740840912	0.4749729633331299
50	143.12401485443115	response	0	2		48.0	2.5	/experiments/knapen_aot/videos/S_pexels-cottonbro-6788024.mp4	0.0	281.48152589797974	
50	143.13223600387573	movie	1		202.0	48.0	2.5	/experiments/knapen_aot/videos/S_pexels-cottonbro-6788024.mp4	0.0	281.4897470474243	2.5083329677581787
50	145.6405689716339	fix_post	2		12.0	48.0	2.5	/experiments/knapen_aot/videos/S_pexels-cottonbro-6788024.mp4	0.0	283.9980800151825	0.09991908073425293
51	145.74048805236816	fix_pre	0		4.0	49.0	2.5	blank	1.0	284.09799909591675	0.033394813537597656
51	145.76579403877258	response	0	2		49.0	2.5	blank	1.0	284.12330508232117	
51	145.77388286590576	movie	1		301.0	49.0	2.5	blank	1.0	284.13139390945435	2.5083441734313965
51	148.28222703933716	fix_post	2		12.0	49.0	2.5	blank	1.0	286.63973808288574	0.10000300407409668
52	148.38223004341125	fix_pre	0		115.0	50.0	2.5	/experiments/knapen_aot/videos/S_yt-4rwBpRuHg-c_1308.mp4	0.0	286.73974108695984	0.9582469463348389
52	149.33230590820312	response	0	2		50.0	2.5	/experiments/knapen_aot/videos/S_yt-4rwBpRuHg-c_1308.mp4	0.0	287.6898169517517	
52	149.3404769897461	movie	1		301.0	50.0	2.5	/experiments/knapen_aot/videos/S_yt-4rwBpRuHg-c_1308.mp4	0.0	287.6979880332947	2.508373975753784
52	151.84885096549988	fix_post	2		12.0	50.0	2.5	/experiments/knapen_aot/videos/S_yt-4rwBpRuHg-c_1308.mp4	0.0	290.20636200904846	0.10000300407409668
53	151.94885396957397	fix_pre	0		15.0	51.0	2.5	/experiments/knapen_aot/videos/R_S_yt-5ws2gxbcjs4_381.mp4	0.0	290.30636501312256	0.12492990493774414
53	152.06562185287476	response	0	2		51.0	2.5	/experiments/knapen_aot/videos/R_S_yt-5ws2gxbcjs4_381.mp4	0.0	290.42313289642334	
53	152.07378387451172	movie	1		301.0	51.0	2.5	/experiments/knapen_aot/videos/R_S_yt-5ws2gxbcjs4_381.mp4	0.0	290.4312949180603	2.5085861682891846
53	152.20057201385498	response	1	2		51.0	2.5	/experiments/knapen_aot/videos/R_S_yt-5ws2gxbcjs4_381.mp4	0.0	290.55808305740356	
53	154.5823700428009	fix_post	2		12.0	51.0	2.5	/experiments/knapen_aot/videos/R_S_yt-5ws2gxbcjs4_381.mp4	0.0	292.9398810863495	0.0997779369354248
54	154.68214797973633	fix_pre	0		10.0	52.0	2.5	/experiments/knapen_aot/videos/S_wc-auTIuWLTxxkn_5.mp4	0.0	293.0396590232849	0.08335304260253906
54	154.7572979927063	response	0	2		52.0	2.5	/experiments/knapen_aot/videos/S_wc-auTIuWLTxxkn_5.mp4	0.0	293.1148090362549	
54	154.76550102233887	movie	1		172.0	52.0	2.5	/experiments/knapen_aot/videos/S_wc-auTIuWLTxxkn_5.mp4	0.0	293.12301206588745	2.5083248615264893
54	157.27382588386536	fix_post	2		12.0	52.0	2.5	/experiments/knapen_aot/videos/S_wc-auTIuWLTxxkn_5.mp4	0.0	295.63133692741394	0.10022211074829102
55	157.37404799461365	fix_pre	0		11.0	53.0	2.5	/experiments/knapen_aot/videos/R_S_yt-MsSEF0krKE4_149.mp4	0.0	295.73155903816223	0.09142184257507324
55	157.45728182792664	response	0	2		53.0	2.5	/experiments/knapen_aot/videos/R_S_yt-MsSEF0krKE4_149.mp4	0.0	295.8147928714752	
55	157.46546983718872	movie	1		301.0	53.0	2.5	/experiments/knapen_aot/videos/R_S_yt-MsSEF0krKE4_149.mp4	0.0	295.8229808807373	2.5083420276641846
55	159.9738118648529	fix_post	2		12.0	53.0	2.5	/experiments/knapen_aot/videos/R_S_yt-MsSEF0krKE4_149.mp4	0.0	298.3313229084015	0.09999203681945801
56	160.07380390167236	fix_pre	0		159.0	54.0	2.5	blank	1.0	298.43131494522095	1.3249320983886719
56	161.3905599117279	response	0	2		54.0	2.5	blank	1.0	299.7480709552765	
56	161.39873600006104	movie	1		301.0	54.0	2.5	blank	1.0	299.7562470436096	2.508394956588745
56	163.90713095664978	fix_post	2		12.0	54.0	2.5	blank	1.0	302.26464200019836	0.09999990463256836
57	164.00713086128235	fix_pre	0		22.0	55.0	2.5	/experiments/knapen_aot/videos/R_S_yt-3TF_RGo9cLs_541.mp4	0.0	302.36464190483093	0.1833500862121582
57	164.18228101730347	response	0	2		55.0	2.5	/experiments/knapen_aot/videos/R_S_yt-3TF_RGo9cLs_541.mp4	0.0	302.53979206085205	
57	164.1904809474945	movie	1		300.0	55.0	2.5	/experiments/knapen_aot/videos/R_S_yt-3TF_RGo9cLs_541.mp4	0.0	302.5479919910431	2.508481979370117
57	166.69896292686462	fix_post	2		12.0	55.0	2.5	/experiments/knapen_aot/videos/R_S_yt-3TF_RGo9cLs_541.mp4	0.0	305.0564739704132	0.09984898567199707
58	166.79881191253662	fix_pre	0		20.0	56.0	2.5	/experiments/knapen_aot/videos/S_ILSVRC2015_train_00457000.mp4	0.0	305.1563229560852	0.1666719913482666
58	166.9573049545288	response	0	2		56.0	2.5	/experiments/knapen_aot/videos/S_ILSVRC2015_train_00457000.mp4	0.0	305.3148159980774	
58	166.9654839038849	movie	1		301.0	56.0	2.5	/experiments/knapen_aot/videos/S_ILSVRC2015_train_00457000.mp4	0.0	305.3229949474335	2.5082290172576904
58	169.47371292114258	fix_post	2		12.0	56.0	2.5	/experiments/knapen_aot/videos/S_ILSVRC2015_train_00457000.mp4	0.0	307.83122396469116	0.10001492500305176
59	169.57372784614563	fix_pre	0		11.0	57.0	2.5	/experiments/knapen_aot/videos/S_ILSVRC2015_train_00369000.mp4	0.0	307.9312388896942	0.0917510986328125
59	169.6572229862213	response	0	2		57.0	2.5	/experiments/knapen_aot/videos/S_ILSVRC2015_train_00369000.mp4	0.0	308.0147340297699	
59	169.66547894477844	movie	1		301.0	57.0	2.5	/experiments/knapen_aot/videos/S_ILSVRC2015_train_00369000.mp4	0.0	308.022989988327	2.508239984512329
59	172.17371892929077	fix_post	2		12.0	57.0	2.5	/experiments/knapen_aot/videos/S_ILSVRC2015_train_00369000.mp4	0.0	310.53122997283936	0.10004401206970215
60	172.27376294136047	fix_pre	0		67.0	58.0	2.5	/experiments/knapen_aot/videos/S_wc-NVeGRb_y_y_5_36.mp4	0.0	310.63127398490906	0.5583369731903076
60	172.82389283180237	response	0	2		58.0	2.5	/experiments/knapen_aot/videos/S_wc-NVeGRb_y_y_5_36.mp4	0.0	311.18140387535095	
60	172.83209991455078	movie	1		168.0	58.0	2.5	/experiments/knapen_aot/videos/S_wc-NVeGRb_y_y_5_36.mp4	0.0	311.18961095809937	2.5082011222839355
60	175.34030103683472	fix_post	2		12.0	58.0	2.5	/experiments/knapen_aot/videos/S_wc-NVeGRb_y_y_5_36.mp4	0.0	313.6978120803833	0.10009384155273438
61	175.44039487838745	fix_pre	0		14.0	59.0	2.5	/experiments/knapen_aot/videos/S_comp_DB_D001_C001_PSNK_v06_SDR_PS_20180824_SDR_2K_AVC.mp4	0.0	313.79790592193604	0.11666202545166016
61	175.54884505271912	response	0	2		59.0	2.5	/experiments/knapen_aot/videos/S_comp_DB_D001_C001_PSNK_v06_SDR_PS_20180824_SDR_2K_AVC.mp4	0.0	313.9063560962677	
61	175.5570569038391	movie	1		171.0	59.0	2.5	/experiments/knapen_aot/videos/S_comp_DB_D001_C001_PSNK_v06_SDR_PS_20180824_SDR_2K_AVC.mp4	0.0	313.9145679473877	2.508324146270752
61	178.06538105010986	fix_post	2		12.0	59.0	2.5	/experiments/knapen_aot/videos/S_comp_DB_D001_C001_PSNK_v06_SDR_PS_20180824_SDR_2K_AVC.mp4	0.0	316.42289209365845	0.10001397132873535
62	178.1653950214386	fix_pre	0		107.0	60.0	2.5	/experiments/knapen_aot/videos/R_S_yt-i-1Gou9SA5U_3.mp4	0.0	316.5229060649872	0.8916099071502686
62	179.04886293411255	response	0	2		60.0	2.5	/experiments/knapen_aot/videos/R_S_yt-i-1Gou9SA5U_3.mp4	0.0	317.40637397766113	
62	179.05700492858887	movie	1		301.0	60.0	2.5	/experiments/knapen_aot/videos/R_S_yt-i-1Gou9SA5U_3.mp4	0.0	317.41451597213745	2.508354902267456
62	181.56535983085632	fix_post	2		12.0	60.0	2.5	/experiments/knapen_aot/videos/R_S_yt-i-1Gou9SA5U_3.mp4	0.0	319.9228708744049	0.10004305839538574
63	181.6654028892517	fix_pre	0		32.0	61.0	2.5	/experiments/knapen_aot/videos/S_yt-O6W6CZPXvlA_15.mp4	0.0	320.0229139328003	0.266632080078125
63	181.92387104034424	response	0	2		61.0	2.5	/experiments/knapen_aot/videos/S_yt-O6W6CZPXvlA_15.mp4	0.0	320.2813820838928	
63	181.93203496932983	movie	1		301.0	61.0	2.5	/experiments/knapen_aot/videos/S_yt-O6W6CZPXvlA_15.mp4	0.0	320.2895460128784	2.508323907852173
63	184.440358877182	fix_post	2		12.0	61.0	2.5	/experiments/knapen_aot/videos/S_yt-O6W6CZPXvlA_15.mp4	0.0	322.7978699207306	0.10005497932434082
64	184.54041385650635	fix_pre	0		97.0	62.0	2.5	blank	1.0	322.89792490005493	0.8082730770111084
64	185.34064292907715	response	0	2		62.0	2.5	blank	1.0	323.69815397262573	
64	185.34868693351746	movie	1		301.0	62.0	2.5	blank	1.0	323.70619797706604	2.508352041244507
64	187.85703897476196	fix_post	2		12.0	62.0	2.5	blank	1.0	326.21455001831055	0.09999203681945801
65	187.95703101158142	fix_pre	0		67.0	63.0	2.5	/experiments/knapen_aot/videos/R_S_g201_AK_A003_C014_SDR_20191113_SDR_2K_AVC.mp4	0.0	326.31454205513	0.5582859516143799
65	188.5071189403534	response	0	2		63.0	2.5	/experiments/knapen_aot/videos/R_S_g201_AK_A003_C014_SDR_20191113_SDR_2K_AVC.mp4	0.0	326.864629983902	
65	188.5153169631958	movie	1		165.0	63.0	2.5	/experiments/knapen_aot/videos/R_S_g201_AK_A003_C014_SDR_20191113_SDR_2K_AVC.mp4	0.0	326.8728280067444	2.5083820819854736
65	191.02369904518127	fix_post	2		12.0	63.0	2.5	/experiments/knapen_aot/videos/R_S_g201_AK_A003_C014_SDR_20191113_SDR_2K_AVC.mp4	0.0	329.38121008872986	0.10001397132873535
66	191.12371301651	fix_pre	0		2.0	64.0	2.5	/experiments/knapen_aot/videos/S_yt-3TF_RGo9cLs_541.mp4	0.0	329.4812240600586	0.016832828521728516
66	191.13224601745605	response	0	2		64.0	2.5	/experiments/knapen_aot/videos/S_yt-3TF_RGo9cLs_541.mp4	0.0	329.48975706100464	
66	191.14054584503174	movie	1		299.0	64.0	2.5	/experiments/knapen_aot/videos/S_yt-3TF_RGo9cLs_541.mp4	0.0	329.4980568885803	2.508094072341919
66	193.64863991737366	fix_post	2		12.0	64.0	2.5	/experiments/knapen_aot/videos/S_yt-3TF_RGo9cLs_541.mp4	0.0	332.00615096092224	0.09999895095825195
67	193.7486388683319	fix_pre	0		13.0	65.0	2.5	/experiments/knapen_aot/videos/S_yt-25xuzTBhwPk_109.mp4	0.0	332.1061499118805	0.10833001136779785
67	193.84873485565186	response	0	2		65.0	2.5	/experiments/knapen_aot/videos/S_yt-25xuzTBhwPk_109.mp4	0.0	332.20624589920044	
67	193.8569688796997	movie	1		301.0	65.0	2.5	/experiments/knapen_aot/videos/S_yt-25xuzTBhwPk_109.mp4	0.0	332.2144799232483	2.508371114730835
67	196.36533999443054	fix_post	2		12.0	65.0	2.5	/experiments/knapen_aot/videos/S_yt-25xuzTBhwPk_109.mp4	0.0	334.7228510379791	0.0999150276184082
68	196.46525502204895	fix_pre	0		27.0	66.0	2.5	/experiments/knapen_aot/videos/R_S_ILSVRC2015_train_00723001.mp4	0.0	334.82276606559753	0.22505784034729004
68	196.68210101127625	response	0	2		66.0	2.5	/experiments/knapen_aot/videos/R_S_ILSVRC2015_train_00723001.mp4	0.0	335.03961205482483	
68	196.69031286239624	movie	1		301.0	66.0	2.5	/experiments/knapen_aot/videos/R_S_ILSVRC2015_train_00723001.mp4	0.0	335.0478239059448	2.5083110332489014
68	199.19862389564514	fix_post	2		12.0	66.0	2.5	/experiments/knapen_aot/videos/R_S_ILSVRC2015_train_00723001.mp4	0.0	337.5561349391937	0.09998297691345215
69	199.2986068725586	fix_pre	0		18.0	67.0	2.5	/experiments/knapen_aot/videos/S_ILSVRC2015_train_00404003.mp4	0.0	337.6561179161072	0.15140414237976074
69	199.44040703773499	response	0	2		67.0	2.5	/experiments/knapen_aot/videos/S_ILSVRC2015_train_00404003.mp4	0.0	337.79791808128357	
69	199.45001101493835	movie	1		301.0	67.0	2.5	/experiments/knapen_aot/videos/S_ILSVRC2015_train_00404003.mp4	0.0	337.80752205848694	2.506945848464966
69	201.95695686340332	fix_post	2		12.0	67.0	2.5	/experiments/knapen_aot/videos/S_ILSVRC2015_train_00404003.mp4	0.0	340.3144679069519	0.09999918937683105
70	202.05695605278015	fix_pre	0		27.0	68.0	2.5	blank	1.0	340.41446709632874	0.2249908447265625
70	202.27374792099	response	0	2		68.0	2.5	blank	1.0	340.6312589645386	
70	202.2819468975067	movie	1		301.0	68.0	2.5	blank	1.0	340.6394579410553	2.5083861351013184
70	204.79033303260803	fix_post	2		12.0	68.0	2.5	blank	1.0	343.1478440761566	0.10000085830688477
71	204.89033389091492	fix_pre	0		22.0	69.0	2.5	/experiments/knapen_aot/videos/R_S_FK_U009_C004_SDR_20191220_SDR_2K_AVC.mp4	0.0	343.2478449344635	0.18452811241149902
71	205.06539702415466	response	0	2		69.0	2.5	/experiments/knapen_aot/videos/R_S_FK_U009_C004_SDR_20191220_SDR_2K_AVC.mp4	0.0	343.42290806770325	
71	205.07486200332642	movie	1		162.0	69.0	2.5	/experiments/knapen_aot/videos/R_S_FK_U009_C004_SDR_20191220_SDR_2K_AVC.mp4	0.0	343.432373046875	2.507056951522827
71	207.58191895484924	fix_post	2		12.0	69.0	2.5	/experiments/knapen_aot/videos/R_S_FK_U009_C004_SDR_20191220_SDR_2K_AVC.mp4	0.0	345.9394299983978	0.10001707077026367
72	207.6819360256195	fix_pre	0		10.0	70.0	2.5	/experiments/knapen_aot/videos/R_S_yt-4RKOPaRF42o_124.mp4	0.0	346.0394470691681	0.08329987525939941
72	207.7570960521698	response	0	2		70.0	2.5	/experiments/knapen_aot/videos/R_S_yt-4RKOPaRF42o_124.mp4	0.0	346.1146070957184	
72	207.7652359008789	movie	1		301.0	70.0	2.5	/experiments/knapen_aot/videos/R_S_yt-4RKOPaRF42o_124.mp4	0.0	346.1227469444275	2.508376121520996
72	210.2736120223999	fix_post	2		12.0	70.0	2.5	/experiments/knapen_aot/videos/R_S_yt-4RKOPaRF42o_124.mp4	0.0	348.6311230659485	0.10000181198120117
73	210.3736138343811	fix_pre	0		1.0	71.0	2.5	/experiments/knapen_aot/videos/S_ILSVRC2015_train_00414000.mp4	0.0	348.7311248779297	0.008242130279541016
73	210.37530303001404	response	0	2		71.0	2.5	/experiments/knapen_aot/videos/S_ILSVRC2015_train_00414000.mp4	0.0	348.7328140735626	
73	210.38185596466064	movie	1		301.0	71.0	2.5	/experiments/knapen_aot/videos/S_ILSVRC2015_train_00414000.mp4	0.0	348.73936700820923	2.508349895477295
73	212.89020586013794	fix_post	2		12.0	71.0	2.5	/experiments/knapen_aot/videos/S_ILSVRC2015_train_00414000.mp4	0.0	351.2477169036865	0.10005712509155273
74	212.9902629852295	fix_pre	0		10.0	72.0	2.5	/experiments/knapen_aot/videos/S_yt-fqbi4rGc9dk_65.mp4	0.0	351.3477740287781	0.08453989028930664
74	213.06535601615906	response	0	2		72.0	2.5	/experiments/knapen_aot/videos/S_yt-fqbi4rGc9dk_65.mp4	0.0	351.42286705970764	
74	213.0748028755188	movie	1		301.0	72.0	2.5	/experiments/knapen_aot/videos/S_yt-fqbi4rGc9dk_65.mp4	0.0	351.4323139190674	2.5070860385894775
74	215.58188891410828	fix_post	2		12.0	72.0	2.5	/experiments/knapen_aot/videos/S_yt-fqbi4rGc9dk_65.mp4	0.0	353.93939995765686	0.10004901885986328
75	215.68193793296814	fix_pre	0		5.0	73.0	2.5	/experiments/knapen_aot/videos/R_S_production_ID_4101244.mp4	0.0	354.0394489765167	0.04163312911987305
75	215.7153708934784	response	0	2		73.0	2.5	/experiments/knapen_aot/videos/R_S_production_ID_4101244.mp4	0.0	354.072881937027	
75	215.723571062088	movie	1		191.0	73.0	2.5	/experiments/knapen_aot/videos/R_S_production_ID_4101244.mp4	0.0	354.0810821056366	2.5083279609680176
75	218.123694896698	response	1	2		73.0	2.5	/experiments/knapen_aot/videos/R_S_production_ID_4101244.mp4	0.0	356.4812059402466	
75	218.23189902305603	fix_post	2		12.0	73.0	2.5	/experiments/knapen_aot/videos/R_S_production_ID_4101244.mp4	0.0	356.5894100666046	0.09998488426208496
76	218.33188390731812	fix_pre	0		37.0	74.0	2.5	/experiments/knapen_aot/videos/R_S_wc-NVeGRb_y_y_5_36.mp4	0.0	356.6893949508667	0.3083219528198242
76	218.63193798065186	response	0	2		74.0	2.5	/experiments/knapen_aot/videos/R_S_wc-NVeGRb_y_y_5_36.mp4	0.0	356.98944902420044	
76	218.64020586013794	movie	1		167.0	74.0	2.5	/experiments/knapen_aot/videos/R_S_wc-NVeGRb_y_y_5_36.mp4	0.0	356.9977169036865	2.5082430839538574
76	221.1484489440918	fix_post	2		12.0	74.0	2.5	/experiments/knapen_aot/videos/R_S_wc-NVeGRb_y_y_5_36.mp4	0.0	359.5059599876404	0.10008597373962402
76	221.19038486480713	response	2	2		74.0	2.5	/experiments/knapen_aot/videos/R_S_wc-NVeGRb_y_y_5_36.mp4	0.0	359.5478959083557	
77	221.24853491783142	fix_pre	0		33.0	75.0	2.5	/experiments/knapen_aot/videos/R_S_wc-NVeGRb_y_y_5_36.mp4	0.0	359.60604596138	0.2749619483947754
77	221.51518082618713	response	0	2		75.0	2.5	/experiments/knapen_aot/videos/R_S_wc-NVeGRb_y_y_5_36.mp4	0.0	359.8726918697357	
77	221.5234968662262	movie	1		169.0	75.0	2.5	/experiments/knapen_aot/videos/R_S_wc-NVeGRb_y_y_5_36.mp4	0.0	359.8810079097748	2.508331060409546
77	224.03182792663574	fix_post	2		12.0	75.0	2.5	/experiments/knapen_aot/videos/R_S_wc-NVeGRb_y_y_5_36.mp4	0.0	362.3893389701843	0.10014700889587402
78	224.13197493553162	fix_pre	0		3.0	76.0	2.5	blank	1.0	362.4894859790802	0.02614903450012207
78	224.14867091178894	response	0	2		76.0	2.5	blank	1.0	362.5061819553375	
78	224.15812397003174	movie	1		301.0	76.0	2.5	blank	1.0	362.5156350135803	2.50703501701355
78	226.6651589870453	fix_post	2		12.0	76.0	2.5	blank	1.0	365.0226700305939	0.10007786750793457
79	226.76523685455322	fix_pre	0		17.0	77.0	2.5	/experiments/knapen_aot/videos/R_S_yt-VrEuTDQxtD0_226.mp4	0.0	365.1227478981018	0.14273810386657715
79	226.89862489700317	response	0	2		77.0	2.5	/experiments/knapen_aot/videos/R_S_yt-VrEuTDQxtD0_226.mp4	0.0	365.25613594055176	
79	226.9079749584198	movie	1		301.0	77.0	2.5	/experiments/knapen_aot/videos/R_S_yt-VrEuTDQxtD0_226.mp4	0.0	365.2654860019684	2.5071768760681152
79	229.41515183448792	fix_post	2		12.0	77.0	2.5	/experiments/knapen_aot/videos/R_S_yt-VrEuTDQxtD0_226.mp4	0.0	367.7726628780365	0.10004901885986328
79	229.4569389820099	response	2	2		77.0	2.5	/experiments/knapen_aot/videos/R_S_yt-VrEuTDQxtD0_226.mp4	0.0	367.8144500255585	
80	229.51520085334778	fix_pre	0		46.0	78.0	2.5	/experiments/knapen_aot/videos/S_yt-P001x88adE4_427.mp4	0.0	367.87271189689636	0.38324713706970215
80	229.8902349472046	response	0	2		78.0	2.5	/experiments/knapen_aot/videos/S_yt-P001x88adE4_427.mp4	0.0	368.2477459907532	
80	229.89844799041748	movie	1		301.0	78.0	2.5	/experiments/knapen_aot/videos/S_yt-P001x88adE4_427.mp4	0.0	368.25595903396606	2.5083658695220947
80	232.40681385993958	fix_post	2		12.0	78.0	2.5	/experiments/knapen_aot/videos/S_yt-P001x88adE4_427.mp4	0.0	370.76432490348816	0.10013914108276367
81	232.50695300102234	fix_pre	0		2.0	79.0	2.5	/experiments/knapen_aot/videos/R_S_yt-J2PiBa1MXI0_210.mp4	0.0	370.8644640445709	0.016541004180908203
81	232.51523900032043	response	0	2		79.0	2.5	/experiments/knapen_aot/videos/R_S_yt-J2PiBa1MXI0_210.mp4	0.0	370.872750043869	
81	232.52349400520325	movie	1		301.0	79.0	2.5	/experiments/knapen_aot/videos/R_S_yt-J2PiBa1MXI0_210.mp4	0.0	370.88100504875183	2.5083179473876953
81	235.03181195259094	fix_post	2		12.0	79.0	2.5	/experiments/knapen_aot/videos/R_S_yt-J2PiBa1MXI0_210.mp4	0.0	373.3893229961395	0.10002589225769043
82	235.13183784484863	fix_pre	0		77.0	80.0	2.5	/experiments/knapen_aot/videos/R_S_yt-giRwl4yChlw_9.mp4	0.0	373.4893488883972	0.6416010856628418
82	235.7652518749237	response	0	2		80.0	2.5	/experiments/knapen_aot/videos/R_S_yt-giRwl4yChlw_9.mp4	0.0	374.1227629184723	
82	235.77343893051147	movie	1		298.0	80.0	2.5	/experiments/knapen_aot/videos/R_S_yt-giRwl4yChlw_9.mp4	0.0	374.13094997406006	2.5084080696105957
82	238.24023985862732	response	1	2		80.0	2.5	/experiments/knapen_aot/videos/R_S_yt-giRwl4yChlw_9.mp4	0.0	376.5977509021759	
82	238.28184700012207	fix_post	2		12.0	80.0	2.5	/experiments/knapen_aot/videos/R_S_yt-giRwl4yChlw_9.mp4	0.0	376.63935804367065	0.09997105598449707
83	238.38181805610657	fix_pre	0		39.0	81.0	2.5	/experiments/knapen_aot/videos/R_S_production_ID_5119260.mp4	0.0	376.73932909965515	0.3249678611755371
83	238.69102501869202	response	0	2		81.0	2.5	/experiments/knapen_aot/videos/R_S_production_ID_5119260.mp4	0.0	377.0485360622406	
83	238.7067859172821	movie	1		203.0	81.0	2.5	/experiments/knapen_aot/videos/R_S_production_ID_5119260.mp4	0.0	377.0642969608307	2.508359909057617
83	240.74019598960876	response	1	2		81.0	2.5	/experiments/knapen_aot/videos/R_S_production_ID_5119260.mp4	0.0	379.09770703315735	
83	241.21514582633972	fix_post	2		12.0	81.0	2.5	/experiments/knapen_aot/videos/R_S_production_ID_5119260.mp4	0.0	379.5726568698883	0.09991121292114258
84	241.31505703926086	fix_pre	0		37.0	82.0	2.5	blank	1.0	379.67256808280945	0.3084299564361572
84	241.61520385742188	response	0	2		82.0	2.5	blank	1.0	379.97271490097046	
84	241.62348699569702	movie	1		301.0	82.0	2.5	blank	1.0	379.9809980392456	2.50827693939209
84	244.1317639350891	fix_post	2		12.0	82.0	2.5	blank	1.0	382.4892749786377	0.09996700286865234
85	244.23173093795776	fix_pre	0		23.0	83.0	2.5	/experiments/knapen_aot/videos/R_S_yt-TSSPDwAQLXs_158.mp4	0.0	382.58924198150635	0.19169092178344727
85	244.41519594192505	response	0	2		83.0	2.5	/experiments/knapen_aot/videos/R_S_yt-TSSPDwAQLXs_158.mp4	0.0	382.77270698547363	
85	244.4234218597412	movie	1		301.0	83.0	2.5	/experiments/knapen_aot/videos/R_S_yt-TSSPDwAQLXs_158.mp4	0.0	382.7809329032898	2.5083420276641846
85	246.9317638874054	fix_post	2		12.0	83.0	2.5	/experiments/knapen_aot/videos/R_S_yt-TSSPDwAQLXs_158.mp4	0.0	385.289274930954	0.09993815422058105
87	247.03170204162598	stim	0		1519.0					385.38921308517456	12.660797834396362
87	247.2830250263214	response	0	2						385.64053606987	
87	259.68731784820557	response	0	space						398.04482889175415	
