trial_nr	onset	event_type	phase	response	nr_frames	movie_index	movie_duration	movie_file	blank	onset_abs	duration
0	0.13968205451965332	stim	0		36.0					83.50895500183105	0.2998619079589844
0	0.42470812797546387	response	0	space						83.79398107528687	
1	0.4395439624786377	stim	0		121.0					83.80881690979004	1.008476972579956
1	1.4480209350585938	stim	1		120.0					84.81729388237	0.9995880126953125
1	1.8606040477752686	response	1	4						85.22987699508667	
1	1.8606929779052734	response	1	space						85.22996592521667	
1	2.125494956970215	response	1	2						85.49476790428162	
2	2.4476089477539062	fix_pre	0		3.0	0.0	2.5	/experiments/knapen_aot/videos/R_S_yt-BQixB0mumIk_169.mp4	0.0	85.81688189506531	0.031171083450317383
2	2.469381093978882	response	0	space		0.0	2.5	/experiments/knapen_aot/videos/R_S_yt-BQixB0mumIk_169.mp4	0.0	85.83865404129028	
2	2.4787800312042236	movie	1		294.0	0.0	2.5	/experiments/knapen_aot/videos/R_S_yt-BQixB0mumIk_169.mp4	0.0	85.84805297851562	2.502108097076416
2	4.98088812828064	fix_post	2		12.0	0.0	2.5	/experiments/knapen_aot/videos/R_S_yt-BQixB0mumIk_169.mp4	0.0	88.35016107559204	0.1000518798828125
3	5.080940008163452	fix_pre	0		26.0	1.0	2.5	/experiments/knapen_aot/videos/S_yt-wEbfIR14zZ8_7.mp4	0.0	88.45021295547485	0.21719908714294434
3	5.293356895446777	response	0	2		1.0	2.5	/experiments/knapen_aot/videos/S_yt-wEbfIR14zZ8_7.mp4	0.0	88.66262984275818	
3	5.2981390953063965	movie	1		299.0	1.0	2.5	/experiments/knapen_aot/videos/S_yt-wEbfIR14zZ8_7.mp4	0.0	88.6674120426178	2.507797956466675
3	7.805937051773071	fix_post	2		12.0	1.0	2.5	/experiments/knapen_aot/videos/S_yt-wEbfIR14zZ8_7.mp4	0.0	91.17520999908447	0.10000085830688477
4	7.905937910079956	fix_pre	0		17.0	2.0	2.5	/experiments/knapen_aot/videos/S_xq822dX6DDM_1.mp4	0.0	91.27521085739136	0.14219999313354492
4	8.039371013641357	response	0	2		2.0	2.5	/experiments/knapen_aot/videos/S_xq822dX6DDM_1.mp4	0.0	91.40864396095276	
4	8.048137903213501	movie	1		301.0	2.0	2.5	/experiments/knapen_aot/videos/S_xq822dX6DDM_1.mp4	0.0	91.4174108505249	2.50781512260437
4	10.555953025817871	fix_post	2		12.0	2.0	2.5	/experiments/knapen_aot/videos/S_xq822dX6DDM_1.mp4	0.0	93.92522597312927	0.09998106956481934
5	10.65593409538269	fix_pre	0		35.0	3.0	2.5	/experiments/knapen_aot/videos/R_S_yt-ikhlUegH24c_552.mp4	0.0	94.02520704269409	0.2916250228881836
5	10.939413070678711	response	0	2		3.0	2.5	/experiments/knapen_aot/videos/R_S_yt-ikhlUegH24c_552.mp4	0.0	94.30868601799011	
5	10.947559118270874	movie	1		301.0	3.0	2.5	/experiments/knapen_aot/videos/R_S_yt-ikhlUegH24c_552.mp4	0.0	94.31683206558228	2.5083389282226562
5	13.45589804649353	fix_post	2		12.0	3.0	2.5	/experiments/knapen_aot/videos/R_S_yt-ikhlUegH24c_552.mp4	0.0	96.82517099380493	0.09999704360961914
6	13.55589509010315	fix_pre	0		19.0	4.0	2.5	/experiments/knapen_aot/videos/R_S_ILSVRC2015_train_00292005.mp4	0.0	96.92516803741455	0.15888595581054688
6	13.706104040145874	response	0	2		4.0	2.5	/experiments/knapen_aot/videos/R_S_ILSVRC2015_train_00292005.mp4	0.0	97.07537698745728	
6	13.714781045913696	movie	1		301.0	4.0	2.5	/experiments/knapen_aot/videos/R_S_ILSVRC2015_train_00292005.mp4	0.0	97.0840539932251	2.5077779293060303
6	16.222558975219727	fix_post	2		12.0	4.0	2.5	/experiments/knapen_aot/videos/R_S_ILSVRC2015_train_00292005.mp4	0.0	99.59183192253113	0.10000896453857422
7	16.3225679397583	fix_pre	0		13.0	5.0	2.5	/experiments/knapen_aot/videos/R_S_pexels-anthony-shkraba-7569650.mp4	0.0	99.6918408870697	0.1083381175994873
7	16.42275094985962	response	0	2		5.0	2.5	/experiments/knapen_aot/videos/R_S_pexels-anthony-shkraba-7569650.mp4	0.0	99.79202389717102	
7	16.430906057357788	movie	1		192.0	5.0	2.5	/experiments/knapen_aot/videos/R_S_pexels-anthony-shkraba-7569650.mp4	0.0	99.80017900466919	2.508298873901367
7	18.939204931259155	fix_post	2		12.0	5.0	2.5	/experiments/knapen_aot/videos/R_S_pexels-anthony-shkraba-7569650.mp4	0.0	102.30847787857056	0.10003519058227539
8	19.03924012184143	fix_pre	0		18.0	6.0	2.5	/experiments/knapen_aot/videos/R_S_yt-xWCPbUQc-vg_7.mp4	0.0	102.40851306915283	0.1500258445739746
8	19.181076049804688	response	0	2		6.0	2.5	/experiments/knapen_aot/videos/R_S_yt-xWCPbUQc-vg_7.mp4	0.0	102.55034899711609	
8	19.189265966415405	movie	1		301.0	6.0	2.5	/experiments/knapen_aot/videos/R_S_yt-xWCPbUQc-vg_7.mp4	0.0	102.5585389137268	2.5082850456237793
8	21.697551012039185	fix_post	2		12.0	6.0	2.5	/experiments/knapen_aot/videos/R_S_yt-xWCPbUQc-vg_7.mp4	0.0	105.06682395935059	0.10042691230773926
9	21.797977924346924	fix_pre	0		20.0	7.0	2.5	blank	1.0	105.16725087165833	0.16669106483459473
9	21.955945014953613	response	0	2		7.0	2.5	blank	1.0	105.32521796226501	
9	21.96466898918152	movie	1		301.0	7.0	2.5	blank	1.0	105.33394193649292	2.507772922515869
9	24.472441911697388	fix_post	2		12.0	7.0	2.5	blank	1.0	107.84171485900879	0.10007500648498535
10	24.572516918182373	fix_pre	0		40.0	8.0	2.5	/experiments/knapen_aot/videos/R_S_yt-738MRS0yI6g_177.mp4	0.0	107.94178986549377	0.3333320617675781
10	24.897677898406982	response	0	2		8.0	2.5	/experiments/knapen_aot/videos/R_S_yt-738MRS0yI6g_177.mp4	0.0	108.26695084571838	
10	24.90584897994995	movie	1		301.0	8.0	2.5	/experiments/knapen_aot/videos/R_S_yt-738MRS0yI6g_177.mp4	0.0	108.27512192726135	2.508327007293701
10	27.414175987243652	fix_post	2		12.0	8.0	2.5	/experiments/knapen_aot/videos/R_S_yt-738MRS0yI6g_177.mp4	0.0	110.78344893455505	0.09998106956481934
11	27.51415705680847	fix_pre	0		5.0	9.0	2.5	/experiments/knapen_aot/videos/S_yt-vjed5qyKqZw_1.mp4	0.0	110.88343000411987	0.04173994064331055
11	27.54818296432495	response	0	2		9.0	2.5	/experiments/knapen_aot/videos/S_yt-vjed5qyKqZw_1.mp4	0.0	110.91745591163635	
11	27.555896997451782	movie	1		301.0	9.0	2.5	/experiments/knapen_aot/videos/S_yt-vjed5qyKqZw_1.mp4	0.0	110.92516994476318	2.5082530975341797
11	30.064150094985962	fix_post	2		12.0	9.0	2.5	/experiments/knapen_aot/videos/S_yt-vjed5qyKqZw_1.mp4	0.0	113.43342304229736	0.10001993179321289
12	30.164170026779175	fix_pre	0		25.0	10.0	2.5	/experiments/knapen_aot/videos/R_S_yt-tOOaOzYvtKE_79.mp4	0.0	113.53344297409058	0.2082679271697998
12	30.364300966262817	response	0	2		10.0	2.5	/experiments/knapen_aot/videos/R_S_yt-tOOaOzYvtKE_79.mp4	0.0	113.73357391357422	
12	30.372437953948975	movie	1		301.0	10.0	2.5	/experiments/knapen_aot/videos/R_S_yt-tOOaOzYvtKE_79.mp4	0.0	113.74171090126038	2.5083460807800293
12	32.880784034729004	fix_post	2		12.0	10.0	2.5	/experiments/knapen_aot/videos/R_S_yt-tOOaOzYvtKE_79.mp4	0.0	116.2500569820404	0.09996700286865234
13	32.980751037597656	fix_pre	0		225.0	11.0	2.5	/experiments/knapen_aot/videos/R_S_yt-XBAU3cq0rZs_150.mp4	0.0	116.35002398490906	1.8750228881835938
13	34.84760904312134	response	0	2		11.0	2.5	/experiments/knapen_aot/videos/R_S_yt-XBAU3cq0rZs_150.mp4	0.0	118.21688199043274	
13	34.85577392578125	movie	1		299.0	11.0	2.5	/experiments/knapen_aot/videos/R_S_yt-XBAU3cq0rZs_150.mp4	0.0	118.22504687309265	2.508333206176758
13	37.36410713195801	fix_post	2		12.0	11.0	2.5	/experiments/knapen_aot/videos/R_S_yt-XBAU3cq0rZs_150.mp4	0.0	120.73338007926941	0.10003876686096191
14	37.46414589881897	fix_pre	0		10.0	12.0	2.5	/experiments/knapen_aot/videos/R_S_yt-GLK6LniTOK0_69.mp4	0.0	120.83341884613037	0.08369612693786621
14	37.53920102119446	response	0	2		12.0	2.5	/experiments/knapen_aot/videos/R_S_yt-GLK6LniTOK0_69.mp4	0.0	120.90847396850586	
14	37.547842025756836	movie	1		301.0	12.0	2.5	/experiments/knapen_aot/videos/R_S_yt-GLK6LniTOK0_69.mp4	0.0	120.91711497306824	2.5078699588775635
14	40.0557119846344	fix_post	2		12.0	12.0	2.5	/experiments/knapen_aot/videos/R_S_yt-GLK6LniTOK0_69.mp4	0.0	123.4249849319458	0.10004806518554688
15	40.155760049819946	fix_pre	0		223.0	13.0	2.5	blank	1.0	123.52503299713135	1.8584270477294922
15	42.005922079086304	response	0	2		13.0	2.5	blank	1.0	125.3751950263977	
15	42.01418709754944	movie	1		301.0	13.0	2.5	blank	1.0	125.38346004486084	2.5082459449768066
15	44.522433042526245	fix_post	2		12.0	13.0	2.5	blank	1.0	127.89170598983765	0.09999990463256836
16	44.62243294715881	fix_pre	0		32.0	14.0	2.5	/experiments/knapen_aot/videos/S_yt-AuQ_WxaNy4Y_255.mp4	0.0	127.99170589447021	0.2666189670562744
16	44.88083291053772	response	0	2		14.0	2.5	/experiments/knapen_aot/videos/S_yt-AuQ_WxaNy4Y_255.mp4	0.0	128.25010585784912	
16	44.88905191421509	movie	1		301.0	14.0	2.5	/experiments/knapen_aot/videos/S_yt-AuQ_WxaNy4Y_255.mp4	0.0	128.2583248615265	2.508366107940674
16	47.39741802215576	fix_post	2		12.0	14.0	2.5	/experiments/knapen_aot/videos/S_yt-AuQ_WxaNy4Y_255.mp4	0.0	130.76669096946716	0.09994387626647949
17	47.49736189842224	fix_pre	0		45.0	15.0	2.5	/experiments/knapen_aot/videos/S_bing-www_yahoo_com_entertainment_anastasia-karanikolaou-chantel-jeffries-discuss-182400502_html_9.mp4	0.0	130.86663484573364	0.3749861717224121
17	47.86419200897217	response	0	2		15.0	2.5	/experiments/knapen_aot/videos/S_bing-www_yahoo_com_entertainment_anastasia-karanikolaou-chantel-jeffries-discuss-182400502_html_9.mp4	0.0	131.23346495628357	
17	47.87234807014465	movie	1		164.0	15.0	2.5	/experiments/knapen_aot/videos/S_bing-www_yahoo_com_entertainment_anastasia-karanikolaou-chantel-jeffries-discuss-182400502_html_9.mp4	0.0	131.24162101745605	2.508378028869629
17	50.38072609901428	fix_post	2		12.0	15.0	2.5	/experiments/knapen_aot/videos/S_bing-www_yahoo_com_entertainment_anastasia-karanikolaou-chantel-jeffries-discuss-182400502_html_9.mp4	0.0	133.74999904632568	0.09998798370361328
18	50.480714082717896	fix_pre	0		123.0	16.0	2.5	/experiments/knapen_aot/videos/R_S_ILSVRC2015_train_00743002.mp4	0.0	133.8499870300293	1.0255348682403564
18	51.49754500389099	response	0	2		16.0	2.5	/experiments/knapen_aot/videos/R_S_ILSVRC2015_train_00743002.mp4	0.0	134.8668179512024	
18	51.50624895095825	movie	1		301.0	16.0	2.5	/experiments/knapen_aot/videos/R_S_ILSVRC2015_train_00743002.mp4	0.0	134.87552189826965	2.5077919960021973
18	54.01404094696045	fix_post	2		12.0	16.0	2.5	/experiments/knapen_aot/videos/R_S_ILSVRC2015_train_00743002.mp4	0.0	137.38331389427185	0.09997200965881348
19	54.11401295661926	fix_pre	0		166.0	17.0	2.5	/experiments/knapen_aot/videos/S_yt-qxtmtMnUfD0_124.mp4	0.0	137.48328590393066	1.3833370208740234
19	55.48918104171753	response	0	2		17.0	2.5	/experiments/knapen_aot/videos/S_yt-qxtmtMnUfD0_124.mp4	0.0	138.85845398902893	
19	55.497349977493286	movie	1		298.0	17.0	2.5	/experiments/knapen_aot/videos/S_yt-qxtmtMnUfD0_124.mp4	0.0	138.8666229248047	2.5083630084991455
19	58.00571298599243	fix_post	2		12.0	17.0	2.5	/experiments/knapen_aot/videos/S_yt-qxtmtMnUfD0_124.mp4	0.0	141.37498593330383	0.09993600845336914
20	58.1056489944458	fix_pre	0		38.0	18.0	2.5	/experiments/knapen_aot/videos/S_yt-fk-z6WCvjjA_3.mp4	0.0	141.4749219417572	0.31701111793518066
20	58.41419792175293	response	0	2		18.0	2.5	/experiments/knapen_aot/videos/S_yt-fk-z6WCvjjA_3.mp4	0.0	141.78347086906433	
20	58.42266011238098	movie	1		301.0	18.0	2.5	/experiments/knapen_aot/videos/S_yt-fk-z6WCvjjA_3.mp4	0.0	141.79193305969238	2.508013963699341
20	60.93067407608032	fix_post	2		12.0	18.0	2.5	/experiments/knapen_aot/videos/S_yt-fk-z6WCvjjA_3.mp4	0.0	144.29994702339172	0.10001993179321289
21	61.030694007873535	fix_pre	0		152.0	19.0	2.5	/experiments/knapen_aot/videos/R_S_ILSVRC2015_train_00601000.mp4	0.0	144.39996695518494	1.2669060230255127
21	62.28915810585022	response	0	2		19.0	2.5	/experiments/knapen_aot/videos/R_S_ILSVRC2015_train_00601000.mp4	0.0	145.65843105316162	
21	62.29760003089905	movie	1		301.0	19.0	2.5	/experiments/knapen_aot/videos/R_S_ILSVRC2015_train_00601000.mp4	0.0	145.66687297821045	2.508043050765991
21	64.80564308166504	fix_post	2		12.0	19.0	2.5	/experiments/knapen_aot/videos/R_S_ILSVRC2015_train_00601000.mp4	0.0	148.17491602897644	0.09996485710144043
22	64.90560793876648	fix_pre	0		18.0	20.0	2.5	blank	1.0	148.27488088607788	0.15000295639038086
22	65.04748797416687	response	0	2		20.0	2.5	blank	1.0	148.41676092147827	
22	65.05561089515686	movie	1		301.0	20.0	2.5	blank	1.0	148.42488384246826	2.508364200592041
22	67.5639750957489	fix_post	2		12.0	20.0	2.5	blank	1.0	150.9332480430603	0.0999908447265625
23	67.66396594047546	fix_pre	0		30.0	21.0	2.5	/experiments/knapen_aot/videos/R_S_ILSVRC2015_train_00479002.mp4	0.0	151.03323888778687	0.24997806549072266
23	67.90575790405273	response	0	2		21.0	2.5	/experiments/knapen_aot/videos/R_S_ILSVRC2015_train_00479002.mp4	0.0	151.27503085136414	
23	67.91394400596619	movie	1		300.0	21.0	2.5	/experiments/knapen_aot/videos/R_S_ILSVRC2015_train_00479002.mp4	0.0	151.2832169532776	2.5084140300750732
23	70.42235803604126	fix_post	2		12.0	21.0	2.5	/experiments/knapen_aot/videos/R_S_ILSVRC2015_train_00479002.mp4	0.0	153.79163098335266	0.09990406036376953
24	70.52226209640503	fix_pre	0		17.0	22.0	2.5	/experiments/knapen_aot/videos/R_S_pexels-koolshooters-7327412.mp4	0.0	153.89153504371643	0.14170002937316895
24	70.65571999549866	response	0	2		22.0	2.5	/experiments/knapen_aot/videos/R_S_pexels-koolshooters-7327412.mp4	0.0	154.02499294281006	
24	70.6639621257782	movie	1		165.0	22.0	2.5	/experiments/knapen_aot/videos/R_S_pexels-koolshooters-7327412.mp4	0.0	154.0332350730896	2.508241891860962
24	73.17220401763916	fix_post	2		12.0	22.0	2.5	/experiments/knapen_aot/videos/R_S_pexels-koolshooters-7327412.mp4	0.0	156.54147696495056	0.10007095336914062
25	73.2722749710083	fix_pre	0		178.0	23.0	2.5	/experiments/knapen_aot/videos/R_S_yt-e9AZJKNv9ow_359.mp4	0.0	156.6415479183197	1.483504056930542
25	74.74743509292603	response	0	2		23.0	2.5	/experiments/knapen_aot/videos/R_S_yt-e9AZJKNv9ow_359.mp4	0.0	158.11670804023743	
25	74.75577902793884	movie	1		301.0	23.0	2.5	/experiments/knapen_aot/videos/R_S_yt-e9AZJKNv9ow_359.mp4	0.0	158.12505197525024	2.508126974105835
25	77.26390600204468	fix_post	2		12.0	23.0	2.5	/experiments/knapen_aot/videos/R_S_yt-e9AZJKNv9ow_359.mp4	0.0	160.63317894935608	0.1001439094543457
26	77.36404991149902	fix_pre	0		20.0	24.0	2.5	/experiments/knapen_aot/videos/S_yt-yPl8LcgSMjo_32.mp4	0.0	160.73332285881042	0.16648507118225098
26	77.52236199378967	response	0	2		24.0	2.5	/experiments/knapen_aot/videos/S_yt-yPl8LcgSMjo_32.mp4	0.0	160.89163494110107	
26	77.53053498268127	movie	1		301.0	24.0	2.5	/experiments/knapen_aot/videos/S_yt-yPl8LcgSMjo_32.mp4	0.0	160.89980792999268	2.508319139480591
26	80.03885412216187	fix_post	2		12.0	24.0	2.5	/experiments/knapen_aot/videos/S_yt-yPl8LcgSMjo_32.mp4	0.0	163.40812706947327	0.10008382797241211
27	80.13893795013428	fix_pre	0		47.0	25.0	2.5	/experiments/knapen_aot/videos/S_yt-jy96-k8drRE_1.mp4	0.0	163.50821089744568	0.3916311264038086
27	80.5224061012268	response	0	2		25.0	2.5	/experiments/knapen_aot/videos/S_yt-jy96-k8drRE_1.mp4	0.0	163.8916790485382	
27	80.53056907653809	movie	1		301.0	25.0	2.5	/experiments/knapen_aot/videos/S_yt-jy96-k8drRE_1.mp4	0.0	163.8998420238495	2.508404016494751
27	83.03897309303284	fix_post	2		12.0	25.0	2.5	/experiments/knapen_aot/videos/S_yt-jy96-k8drRE_1.mp4	0.0	166.40824604034424	0.09994101524353027
28	83.13891410827637	fix_pre	0		22.0	26.0	2.5	/experiments/knapen_aot/videos/R_S_ILSVRC2015_train_00725000.mp4	0.0	166.50818705558777	0.1832718849182129
28	83.31406307220459	response	0	2		26.0	2.5	/experiments/knapen_aot/videos/R_S_ILSVRC2015_train_00725000.mp4	0.0	166.683336019516	
28	83.32218599319458	movie	1		301.0	26.0	2.5	/experiments/knapen_aot/videos/R_S_ILSVRC2015_train_00725000.mp4	0.0	166.69145894050598	2.5083529949188232
28	85.8305389881134	fix_post	2		12.0	26.0	2.5	/experiments/knapen_aot/videos/R_S_ILSVRC2015_train_00725000.mp4	0.0	169.1998119354248	0.1000211238861084
29	85.93056011199951	fix_pre	0		42.0	27.0	2.5	/experiments/knapen_aot/videos/S_yt-3JApfnMu5cU_378.mp4	0.0	169.2998330593109	0.3499588966369629
29	86.2723159790039	response	0	2		27.0	2.5	/experiments/knapen_aot/videos/S_yt-3JApfnMu5cU_378.mp4	0.0	169.6415889263153	
29	86.28051900863647	movie	1		301.0	27.0	2.5	/experiments/knapen_aot/videos/S_yt-3JApfnMu5cU_378.mp4	0.0	169.64979195594788	2.508336067199707
29	88.78885507583618	fix_post	2		12.0	27.0	2.5	/experiments/knapen_aot/videos/S_yt-3JApfnMu5cU_378.mp4	0.0	172.15812802314758	0.10006999969482422
30	88.888925075531	fix_pre	0		62.0	28.0	2.5	blank	1.0	172.2581980228424	0.5166459083557129
30	89.39730310440063	response	0	2		28.0	2.5	blank	1.0	172.76657605171204	
30	89.40557098388672	movie	1		301.0	28.0	2.5	blank	1.0	172.77484393119812	2.508249044418335
30	91.91382002830505	fix_post	2		12.0	28.0	2.5	blank	1.0	175.28309297561646	0.10009503364562988
31	92.01391506195068	fix_pre	0		38.0	29.0	2.5	/experiments/knapen_aot/videos/S_yt-s73Xqkcq9Js_285.mp4	0.0	175.38318800926208	0.31661105155944824
31	92.32232093811035	response	0	2		29.0	2.5	/experiments/knapen_aot/videos/S_yt-s73Xqkcq9Js_285.mp4	0.0	175.69159388542175	
31	92.33052611351013	movie	1		301.0	29.0	2.5	/experiments/knapen_aot/videos/S_yt-s73Xqkcq9Js_285.mp4	0.0	175.69979906082153	2.5085079669952393
31	94.83903408050537	fix_post	2		12.0	29.0	2.5	/experiments/knapen_aot/videos/S_yt-s73Xqkcq9Js_285.mp4	0.0	178.20830702781677	0.09985899925231934
32	94.93889307975769	fix_pre	0		84.0	30.0	2.5	/experiments/knapen_aot/videos/R_S_yt-26obL-Z5obg_131.mp4	0.0	178.3081660270691	0.6999838352203369
32	95.63067412376404	response	0	2		30.0	2.5	/experiments/knapen_aot/videos/R_S_yt-26obL-Z5obg_131.mp4	0.0	178.99994707107544	
32	95.63887691497803	movie	1		300.0	30.0	2.5	/experiments/knapen_aot/videos/R_S_yt-26obL-Z5obg_131.mp4	0.0	179.00814986228943	2.508256196975708
32	98.14713311195374	fix_post	2		12.0	30.0	2.5	/experiments/knapen_aot/videos/R_S_yt-26obL-Z5obg_131.mp4	0.0	181.51640605926514	0.10151886940002441
33	98.24865198135376	fix_pre	0		142.0	31.0	2.5	/experiments/knapen_aot/videos/S_yt-AOP7QYQntPI_28.mp4	0.0	181.61792492866516	1.1818420886993408
33	99.42230701446533	response	0	2		31.0	2.5	/experiments/knapen_aot/videos/S_yt-AOP7QYQntPI_28.mp4	0.0	182.79157996177673	
33	99.4304940700531	movie	1		301.0	31.0	2.5	/experiments/knapen_aot/videos/S_yt-AOP7QYQntPI_28.mp4	0.0	182.7997670173645	2.5083189010620117
33	101.93881297111511	fix_post	2		12.0	31.0	2.5	/experiments/knapen_aot/videos/S_yt-AOP7QYQntPI_28.mp4	0.0	185.3080859184265	0.09990906715393066
34	102.03872203826904	fix_pre	0		35.0	32.0	2.5	/experiments/knapen_aot/videos/R_S_yt-cokedWwwYYs_136.mp4	0.0	185.40799498558044	0.29322290420532227
34	102.32223701477051	response	0	2		32.0	2.5	/experiments/knapen_aot/videos/R_S_yt-cokedWwwYYs_136.mp4	0.0	185.6915099620819	
34	102.33194494247437	movie	1		298.0	32.0	2.5	/experiments/knapen_aot/videos/R_S_yt-cokedWwwYYs_136.mp4	0.0	185.70121788978577	2.506946086883545
34	104.83889102935791	fix_post	2		12.0	32.0	2.5	/experiments/knapen_aot/videos/R_S_yt-cokedWwwYYs_136.mp4	0.0	188.2081639766693	0.09995388984680176
35	104.93884491920471	fix_pre	0		123.0	33.0	2.5	/experiments/knapen_aot/videos/S_pexels-c-technical-6754008.mp4	0.0	188.3081178665161	1.0250132083892822
35	105.95567393302917	response	0	2		33.0	2.5	/experiments/knapen_aot/videos/S_pexels-c-technical-6754008.mp4	0.0	189.32494688034058	
35	105.963858127594	movie	1		193.0	33.0	2.5	/experiments/knapen_aot/videos/S_pexels-c-technical-6754008.mp4	0.0	189.3331310749054	2.508269786834717
35	108.47212791442871	fix_post	2		12.0	33.0	2.5	/experiments/knapen_aot/videos/S_pexels-c-technical-6754008.mp4	0.0	191.8414008617401	0.10007715225219727
36	108.57220506668091	fix_pre	0		11.0	34.0	2.5	blank	1.0	191.9414780139923	0.09306883811950684
36	108.65577793121338	response	0	4		34.0	2.5	blank	1.0	192.02505087852478	
36	108.66527390480042	movie	1		301.0	34.0	2.5	blank	1.0	192.03454685211182	2.506941080093384
36	111.1722149848938	fix_post	2		12.0	34.0	2.5	blank	1.0	194.5414879322052	0.09992694854736328
37	111.27214193344116	fix_pre	0		55.0	35.0	2.5	/experiments/knapen_aot/videos/S_yt-BG-G7m5wLZ4_94.mp4	0.0	194.64141488075256	0.4582991600036621
37	111.72220802307129	response	0	4		35.0	2.5	/experiments/knapen_aot/videos/S_yt-BG-G7m5wLZ4_94.mp4	0.0	195.0914809703827	
37	111.73044109344482	movie	1		301.0	35.0	2.5	/experiments/knapen_aot/videos/S_yt-BG-G7m5wLZ4_94.mp4	0.0	195.09971404075623	2.5083179473876953
37	114.23875904083252	fix_post	2		12.0	35.0	2.5	/experiments/knapen_aot/videos/S_yt-BG-G7m5wLZ4_94.mp4	0.0	197.60803198814392	0.09999394416809082
38	114.33875298500061	fix_pre	0		24.0	36.0	2.5	/experiments/knapen_aot/videos/R_S_yt-SkIJvj6KNOo_33.mp4	0.0	197.708025932312	0.19996905326843262
38	114.53057193756104	response	0	4		36.0	2.5	/experiments/knapen_aot/videos/R_S_yt-SkIJvj6KNOo_33.mp4	0.0	197.89984488487244	
38	114.53872203826904	movie	1		301.0	36.0	2.5	/experiments/knapen_aot/videos/R_S_yt-SkIJvj6KNOo_33.mp4	0.0	197.90799498558044	2.508328914642334
38	117.04705095291138	fix_post	2		12.0	36.0	2.5	/experiments/knapen_aot/videos/R_S_yt-SkIJvj6KNOo_33.mp4	0.0	200.41632390022278	0.10001206398010254
39	117.14706301689148	fix_pre	0		15.0	37.0	2.5	/experiments/knapen_aot/videos/S_yt-xNITUMXoU0g_9.mp4	0.0	200.51633596420288	0.1250169277191162
39	117.26384806632996	response	0	4		37.0	2.5	/experiments/knapen_aot/videos/S_yt-xNITUMXoU0g_9.mp4	0.0	200.63312101364136	
39	117.2720799446106	movie	1		301.0	37.0	2.5	/experiments/knapen_aot/videos/S_yt-xNITUMXoU0g_9.mp4	0.0	200.641352891922	2.5083119869232178
39	119.60554695129395	response	1	4		37.0	2.5	/experiments/knapen_aot/videos/S_yt-xNITUMXoU0g_9.mp4	0.0	202.97481989860535	
39	119.78039193153381	fix_post	2		12.0	37.0	2.5	/experiments/knapen_aot/videos/S_yt-xNITUMXoU0g_9.mp4	0.0	203.14966487884521	0.10000896453857422
40	119.88040089607239	fix_pre	0		79.0	38.0	2.5	/experiments/knapen_aot/videos/S_yt-e9AZJKNv9ow_359.mp4	0.0	203.2496738433838	0.6596741676330566
40	120.53055906295776	response	0	4		38.0	2.5	/experiments/knapen_aot/videos/S_yt-e9AZJKNv9ow_359.mp4	0.0	203.89983201026917	
40	120.54007506370544	movie	1		301.0	38.0	2.5	/experiments/knapen_aot/videos/S_yt-e9AZJKNv9ow_359.mp4	0.0	203.90934801101685	2.507014036178589
40	123.04708909988403	fix_post	2		12.0	38.0	2.5	/experiments/knapen_aot/videos/S_yt-e9AZJKNv9ow_359.mp4	0.0	206.41636204719543	0.09993791580200195
41	123.14702701568604	fix_pre	0		33.0	39.0	2.5	/experiments/knapen_aot/videos/S_yt-W00vtWnXgIk_73.mp4	0.0	206.51629996299744	0.2750101089477539
41	123.40627598762512	response	0	4		39.0	2.5	/experiments/knapen_aot/videos/S_yt-W00vtWnXgIk_73.mp4	0.0	206.77554893493652	
41	123.42203712463379	movie	1		299.0	39.0	2.5	/experiments/knapen_aot/videos/S_yt-W00vtWnXgIk_73.mp4	0.0	206.7913100719452	2.508384943008423
41	125.93042206764221	fix_post	2		12.0	39.0	2.5	/experiments/knapen_aot/videos/S_yt-W00vtWnXgIk_73.mp4	0.0	209.2996950149536	0.09993386268615723
42	126.03035593032837	fix_pre	0		50.0	40.0	2.5	blank	1.0	209.39962887763977	0.4166901111602783
42	126.43887591362	response	0	4		40.0	2.5	blank	1.0	209.8081488609314	
42	126.44704604148865	movie	1		301.0	40.0	2.5	blank	1.0	209.81631898880005	2.5082879066467285
42	128.95533394813538	fix_post	2		12.0	40.0	2.5	blank	1.0	212.32460689544678	0.1000361442565918
43	129.05537009239197	fix_pre	0		31.0	41.0	2.5	/experiments/knapen_aot/videos/S_yt-2OoHcgS8sss_7.mp4	0.0	212.42464303970337	0.25830888748168945
43	129.30552697181702	response	0	4		41.0	2.5	/experiments/knapen_aot/videos/S_yt-2OoHcgS8sss_7.mp4	0.0	212.67479991912842	
43	129.31367897987366	movie	1		301.0	41.0	2.5	/experiments/knapen_aot/videos/S_yt-2OoHcgS8sss_7.mp4	0.0	212.68295192718506	2.5083510875701904
43	131.82203006744385	fix_post	2		12.0	41.0	2.5	/experiments/knapen_aot/videos/S_yt-2OoHcgS8sss_7.mp4	0.0	215.19130301475525	0.09995698928833008
44	131.92198705673218	fix_pre	0		14.0	42.0	2.5	/experiments/knapen_aot/videos/R_S_yt-1UFhynm5g6Y_266.mp4	0.0	215.29126000404358	0.11666107177734375
44	132.03046703338623	response	0	4		42.0	2.5	/experiments/knapen_aot/videos/R_S_yt-1UFhynm5g6Y_266.mp4	0.0	215.39973998069763	
44	132.03864812850952	movie	1		301.0	42.0	2.5	/experiments/knapen_aot/videos/R_S_yt-1UFhynm5g6Y_266.mp4	0.0	215.40792107582092	2.5083799362182617
44	134.54702806472778	fix_post	2		12.0	42.0	2.5	/experiments/knapen_aot/videos/R_S_yt-1UFhynm5g6Y_266.mp4	0.0	217.91630101203918	0.09994888305664062
45	134.64697694778442	fix_pre	0		20.0	43.0	2.5	/experiments/knapen_aot/videos/S_yt-Ryb0K9lGPrg_5.mp4	0.0	218.01624989509583	0.16664695739746094
45	134.7979199886322	response	0	4		43.0	2.5	/experiments/knapen_aot/videos/S_yt-Ryb0K9lGPrg_5.mp4	0.0	218.1671929359436	
45	134.81362390518188	movie	1		301.0	43.0	2.5	/experiments/knapen_aot/videos/S_yt-Ryb0K9lGPrg_5.mp4	0.0	218.1828968524933	2.5084190368652344
45	137.32204294204712	fix_post	2		12.0	43.0	2.5	/experiments/knapen_aot/videos/S_yt-Ryb0K9lGPrg_5.mp4	0.0	220.69131588935852	0.09989309310913086
46	137.42193603515625	fix_pre	0		40.0	44.0	2.5	/experiments/knapen_aot/videos/R_S_wc-AyT9mzwZsu0T_14.mp4	0.0	220.79120898246765	0.33338189125061035
46	137.74713110923767	response	0	4		44.0	2.5	/experiments/knapen_aot/videos/R_S_wc-AyT9mzwZsu0T_14.mp4	0.0	221.11640405654907	
46	137.75531792640686	movie	1		163.0	44.0	2.5	/experiments/knapen_aot/videos/R_S_wc-AyT9mzwZsu0T_14.mp4	0.0	221.12459087371826	2.5082640647888184
46	140.26358199119568	fix_post	2		12.0	44.0	2.5	/experiments/knapen_aot/videos/R_S_wc-AyT9mzwZsu0T_14.mp4	0.0	223.63285493850708	0.10005593299865723
47	140.36363792419434	fix_pre	0		18.0	45.0	2.5	/experiments/knapen_aot/videos/S_yt-rIQoRErqnlI_17.mp4	0.0	223.73291087150574	0.1499941349029541
47	140.50540399551392	response	0	4		45.0	2.5	/experiments/knapen_aot/videos/S_yt-rIQoRErqnlI_17.mp4	0.0	223.87467694282532	
47	140.5136320590973	movie	1		301.0	45.0	2.5	/experiments/knapen_aot/videos/S_yt-rIQoRErqnlI_17.mp4	0.0	223.8829050064087	2.508358955383301
47	143.0219910144806	fix_post	2		12.0	45.0	2.5	/experiments/knapen_aot/videos/S_yt-rIQoRErqnlI_17.mp4	0.0	226.391263961792	0.0999140739440918
48	143.12190508842468	fix_pre	0		143.0	46.0	2.5	/experiments/knapen_aot/videos/S_yt-qycUhA3Isjg_76.mp4	0.0	226.49117803573608	1.191673994064331
48	144.305428981781	response	0	4		46.0	2.5	/experiments/knapen_aot/videos/S_yt-qycUhA3Isjg_76.mp4	0.0	227.6747019290924	
48	144.313579082489	movie	1		301.0	46.0	2.5	/experiments/knapen_aot/videos/S_yt-qycUhA3Isjg_76.mp4	0.0	227.68285202980042	2.508363962173462
48	146.82194304466248	fix_post	2		12.0	46.0	2.5	/experiments/knapen_aot/videos/S_yt-qycUhA3Isjg_76.mp4	0.0	230.19121599197388	0.10008907318115234
49	146.92203211784363	fix_pre	0		14.0	47.0	2.5	/experiments/knapen_aot/videos/S_yt-KLInd-KrK_w_19.mp4	0.0	230.29130506515503	0.11776995658874512
49	147.03038501739502	response	0	4		47.0	2.5	/experiments/knapen_aot/videos/S_yt-KLInd-KrK_w_19.mp4	0.0	230.39965796470642	
49	147.03980207443237	movie	1		301.0	47.0	2.5	/experiments/knapen_aot/videos/S_yt-KLInd-KrK_w_19.mp4	0.0	230.40907502174377	2.5071349143981934
49	149.54693698883057	fix_post	2		12.0	47.0	2.5	/experiments/knapen_aot/videos/S_yt-KLInd-KrK_w_19.mp4	0.0	232.91620993614197	0.1000361442565918
50	149.64697313308716	fix_pre	0		19.0	48.0	2.5	blank	1.0	233.01624608039856	0.15829682350158691
50	149.79713010787964	response	0	4		48.0	2.5	blank	1.0	233.16640305519104	
50	149.80526995658875	movie	1		301.0	48.0	2.5	blank	1.0	233.17454290390015	2.508305072784424
50	152.31357502937317	fix_post	2		12.0	48.0	2.5	blank	1.0	235.68284797668457	0.1000680923461914
51	152.41364312171936	fix_pre	0		24.0	49.0	2.5	/experiments/knapen_aot/videos/R_S_yt-f9iXELY0EJ0_344.mp4	0.0	235.78291606903076	0.19991493225097656
51	152.59787106513977	response	0	4		49.0	2.5	/experiments/knapen_aot/videos/R_S_yt-f9iXELY0EJ0_344.mp4	0.0	235.96714401245117	
51	152.61355805397034	movie	1		301.0	49.0	2.5	/experiments/knapen_aot/videos/R_S_yt-f9iXELY0EJ0_344.mp4	0.0	235.98283100128174	2.508331060409546
51	155.12188911437988	fix_post	2		12.0	49.0	2.5	/experiments/knapen_aot/videos/R_S_yt-f9iXELY0EJ0_344.mp4	0.0	238.49116206169128	0.10013794898986816
52	155.22202706336975	fix_pre	0		17.0	50.0	2.5	/experiments/knapen_aot/videos/R_S_yt-ycQy_fHCK-U_8.mp4	0.0	238.59130001068115	0.1415250301361084
52	155.35540008544922	response	0	4		50.0	2.5	/experiments/knapen_aot/videos/R_S_yt-ycQy_fHCK-U_8.mp4	0.0	238.72467303276062	
52	155.36355209350586	movie	1		301.0	50.0	2.5	/experiments/knapen_aot/videos/R_S_yt-ycQy_fHCK-U_8.mp4	0.0	238.73282504081726	2.508356809616089
52	157.87190890312195	fix_post	2		12.0	50.0	2.5	/experiments/knapen_aot/videos/R_S_yt-ycQy_fHCK-U_8.mp4	0.0	241.24118185043335	0.10009312629699707
53	157.97200202941895	fix_pre	0		47.0	51.0	2.5	/experiments/knapen_aot/videos/R_S_yt-2LCHVTVwJ5E_235.mp4	0.0	241.34127497673035	0.3915700912475586
53	158.34787011146545	response	0	4		51.0	2.5	/experiments/knapen_aot/videos/R_S_yt-2LCHVTVwJ5E_235.mp4	0.0	241.71714305877686	
53	158.3635721206665	movie	1		301.0	51.0	2.5	/experiments/knapen_aot/videos/R_S_yt-2LCHVTVwJ5E_235.mp4	0.0	241.7328450679779	2.508368968963623
53	160.87194108963013	fix_post	2		12.0	51.0	2.5	/experiments/knapen_aot/videos/R_S_yt-2LCHVTVwJ5E_235.mp4	0.0	244.24121403694153	0.10006499290466309
54	160.9720060825348	fix_pre	0		121.0	52.0	2.5	/experiments/knapen_aot/videos/S_yt-ikhlUegH24c_552.mp4	0.0	244.3412790298462	1.0081498622894287
54	161.97201299667358	response	0	4		52.0	2.5	/experiments/knapen_aot/videos/S_yt-ikhlUegH24c_552.mp4	0.0	245.34128594398499	
54	161.98015594482422	movie	1		301.0	52.0	2.5	/experiments/knapen_aot/videos/S_yt-ikhlUegH24c_552.mp4	0.0	245.34942889213562	2.5083770751953125
54	164.48853302001953	fix_post	2		12.0	52.0	2.5	/experiments/knapen_aot/videos/S_yt-ikhlUegH24c_552.mp4	0.0	247.85780596733093	0.09999299049377441
55	164.5885260105133	fix_pre	0		23.0	53.0	2.5	/experiments/knapen_aot/videos/S_yt-0MB_IYX1fgo_44.mp4	0.0	247.9577989578247	0.19166994094848633
55	164.77205300331116	response	0	4		53.0	2.5	/experiments/knapen_aot/videos/S_yt-0MB_IYX1fgo_44.mp4	0.0	248.14132595062256	
55	164.7801959514618	movie	1		301.0	53.0	2.5	/experiments/knapen_aot/videos/S_yt-0MB_IYX1fgo_44.mp4	0.0	248.1494688987732	2.508301019668579
55	167.28849697113037	fix_post	2		12.0	53.0	2.5	/experiments/knapen_aot/videos/S_yt-0MB_IYX1fgo_44.mp4	0.0	250.65776991844177	0.10004496574401855
56	167.3885419368744	fix_pre	0		27.0	54.0	2.5	/experiments/knapen_aot/videos/S_yt-nYi_FfCjepk_74.mp4	0.0	250.7578148841858	0.2249770164489746
56	167.60526394844055	response	0	4		54.0	2.5	/experiments/knapen_aot/videos/S_yt-nYi_FfCjepk_74.mp4	0.0	250.97453689575195	
56	167.61351895332336	movie	1		301.0	54.0	2.5	/experiments/knapen_aot/videos/S_yt-nYi_FfCjepk_74.mp4	0.0	250.98279190063477	2.508315086364746
56	170.1218340396881	fix_post	2		12.0	54.0	2.5	/experiments/knapen_aot/videos/S_yt-nYi_FfCjepk_74.mp4	0.0	253.4911069869995	0.10004687309265137
57	170.22188091278076	fix_pre	0		71.0	55.0	2.5	blank	1.0	253.59115386009216	0.5915510654449463
57	170.80528497695923	response	0	4		55.0	2.5	blank	1.0	254.17455792427063	
57	170.8134319782257	movie	1		301.0	55.0	2.5	blank	1.0	254.1827049255371	2.508289098739624
57	173.32172107696533	fix_post	2		12.0	55.0	2.5	blank	1.0	256.69099402427673	0.10020089149475098
58	173.42192196846008	fix_pre	0		42.0	56.0	2.5	/experiments/knapen_aot/videos/S_yt-2ZsK7zSCJ2w_67.mp4	0.0	256.7911949157715	0.34984803199768066
58	173.76354503631592	response	0	4		56.0	2.5	/experiments/knapen_aot/videos/S_yt-2ZsK7zSCJ2w_67.mp4	0.0	257.1328179836273	
58	173.77177000045776	movie	1		301.0	56.0	2.5	/experiments/knapen_aot/videos/S_yt-2ZsK7zSCJ2w_67.mp4	0.0	257.14104294776917	2.5083630084991455
58	176.2801330089569	fix_post	2		12.0	56.0	2.5	/experiments/knapen_aot/videos/S_yt-2ZsK7zSCJ2w_67.mp4	0.0	259.6494059562683	0.10001802444458008
59	176.3801510334015	fix_pre	0		94.0	57.0	2.5	/experiments/knapen_aot/videos/R_S_ILSVRC2015_train_00219004.mp4	0.0	259.7494239807129	0.7843689918518066
59	177.1552529335022	response	0	4		57.0	2.5	/experiments/knapen_aot/videos/R_S_ILSVRC2015_train_00219004.mp4	0.0	260.5245258808136	
59	177.1645200252533	movie	1		301.0	57.0	2.5	/experiments/knapen_aot/videos/R_S_ILSVRC2015_train_00219004.mp4	0.0	260.5337929725647	2.507275104522705
59	179.671795129776	fix_post	2		12.0	57.0	2.5	/experiments/knapen_aot/videos/R_S_ILSVRC2015_train_00219004.mp4	0.0	263.0410680770874	0.1000509262084961
60	179.7718460559845	fix_pre	0		36.0	58.0	2.5	/experiments/knapen_aot/videos/S_yt-kINZMjys3O4_112.mp4	0.0	263.1411190032959	0.2998988628387451
60	180.06365609169006	response	0	4		58.0	2.5	/experiments/knapen_aot/videos/S_yt-kINZMjys3O4_112.mp4	0.0	263.43292903900146	
60	180.07174491882324	movie	1		301.0	58.0	2.5	/experiments/knapen_aot/videos/S_yt-kINZMjys3O4_112.mp4	0.0	263.44101786613464	2.508362054824829
60	182.58010697364807	fix_post	2		12.0	58.0	2.5	/experiments/knapen_aot/videos/S_yt-kINZMjys3O4_112.mp4	0.0	265.9493799209595	0.10019207000732422
61	182.6802990436554	fix_pre	0		115.0	59.0	2.5	/experiments/knapen_aot/videos/S_yt-qxtmtMnUfD0_124.mp4	0.0	266.0495719909668	0.9580819606781006
61	183.63025403022766	response	0	4		59.0	2.5	/experiments/knapen_aot/videos/S_yt-qxtmtMnUfD0_124.mp4	0.0	266.99952697753906	
61	183.6383810043335	movie	1		301.0	59.0	2.5	/experiments/knapen_aot/videos/S_yt-qxtmtMnUfD0_124.mp4	0.0	267.0076539516449	2.5083630084991455
61	186.14674401283264	fix_post	2		12.0	59.0	2.5	/experiments/knapen_aot/videos/S_yt-qxtmtMnUfD0_124.mp4	0.0	269.51601696014404	0.10110902786254883
62	186.2478530406952	fix_pre	0		31.0	60.0	2.5	/experiments/knapen_aot/videos/R_S_comp_C004_C003_PS_v01_SDR_PS_20180925_SDR_2K_AVC.mp4	0.0	269.6171259880066	0.25721001625061035
62	186.49694800376892	response	0	4		60.0	2.5	/experiments/knapen_aot/videos/R_S_comp_C004_C003_PS_v01_SDR_PS_20180925_SDR_2K_AVC.mp4	0.0	269.8662209510803	
62	186.5050630569458	movie	1		169.0	60.0	2.5	/experiments/knapen_aot/videos/R_S_comp_C004_C003_PS_v01_SDR_PS_20180925_SDR_2K_AVC.mp4	0.0	269.8743360042572	2.5083060264587402
62	189.01336908340454	fix_post	2		12.0	60.0	2.5	/experiments/knapen_aot/videos/R_S_comp_C004_C003_PS_v01_SDR_PS_20180925_SDR_2K_AVC.mp4	0.0	272.38264203071594	0.10006999969482422
63	189.11343908309937	fix_pre	0		102.0	61.0	2.5	blank	1.0	272.48271203041077	0.8500058650970459
63	189.95523500442505	response	0	4		61.0	2.5	blank	1.0	273.32450795173645	
63	189.9634449481964	movie	1		301.0	61.0	2.5	blank	1.0	273.3327178955078	2.5083529949188232
63	192.47179794311523	fix_post	2		12.0	61.0	2.5	blank	1.0	275.84107089042664	0.09997701644897461
64	192.5717749595642	fix_pre	0		19.0	62.0	2.5	/experiments/knapen_aot/videos/S_pexels-cottonbro-6789231.mp4	0.0	275.9410479068756	0.1666271686553955
64	192.73011207580566	response	0	4		62.0	2.5	/experiments/knapen_aot/videos/S_pexels-cottonbro-6789231.mp4	0.0	276.09938502311707	
64	192.7384021282196	movie	1		199.0	62.0	2.5	/experiments/knapen_aot/videos/S_pexels-cottonbro-6789231.mp4	0.0	276.107675075531	2.5083580017089844
64	195.2467601299286	fix_post	2		12.0	62.0	2.5	/experiments/knapen_aot/videos/S_pexels-cottonbro-6789231.mp4	0.0	278.61603307724	0.09998798370361328
65	195.3467481136322	fix_pre	0		19.0	63.0	2.5	/experiments/knapen_aot/videos/S_yt-s73Xqkcq9Js_285.mp4	0.0	278.7160210609436	0.1583089828491211
65	195.4968330860138	response	0	4		63.0	2.5	/experiments/knapen_aot/videos/S_yt-s73Xqkcq9Js_285.mp4	0.0	278.8661060333252	
65	195.50505709648132	movie	1		298.0	63.0	2.5	/experiments/knapen_aot/videos/S_yt-s73Xqkcq9Js_285.mp4	0.0	278.8743300437927	2.5083868503570557
65	198.01344394683838	fix_post	2		12.0	63.0	2.5	/experiments/knapen_aot/videos/S_yt-s73Xqkcq9Js_285.mp4	0.0	281.3827168941498	0.1000521183013916
66	198.11349606513977	fix_pre	0		89.0	64.0	2.5	/experiments/knapen_aot/videos/R_S_ILSVRC2015_train_00601000.mp4	0.0	281.4827690124512	0.7415659427642822
66	198.8468849658966	response	0	4		64.0	2.5	/experiments/knapen_aot/videos/R_S_ILSVRC2015_train_00601000.mp4	0.0	282.216157913208	
66	198.85506200790405	movie	1		301.0	64.0	2.5	/experiments/knapen_aot/videos/R_S_ILSVRC2015_train_00601000.mp4	0.0	282.22433495521545	2.5083370208740234
66	201.36339902877808	fix_post	2		12.0	64.0	2.5	/experiments/knapen_aot/videos/R_S_ILSVRC2015_train_00601000.mp4	0.0	284.7326719760895	0.10001087188720703
67	201.46340990066528	fix_pre	0		16.0	65.0	2.5	/experiments/knapen_aot/videos/R_S_yt-fymgyhmYnMI_557.mp4	0.0	284.8326828479767	0.13325214385986328
67	201.58848094940186	response	0	4		65.0	2.5	/experiments/knapen_aot/videos/R_S_yt-fymgyhmYnMI_557.mp4	0.0	284.95775389671326	
67	201.59666204452515	movie	1		301.0	65.0	2.5	/experiments/knapen_aot/videos/R_S_yt-fymgyhmYnMI_557.mp4	0.0	284.96593499183655	2.5083909034729004
67	204.10505294799805	fix_post	2		12.0	65.0	2.5	/experiments/knapen_aot/videos/R_S_yt-fymgyhmYnMI_557.mp4	0.0	287.47432589530945	0.1000051498413086
68	204.20505809783936	fix_pre	0		14.0	66.0	2.5	/experiments/knapen_aot/videos/S_yt-2kPrGwVmRfE_169.mp4	0.0	287.57433104515076	0.11668086051940918
68	204.31351709365845	response	0	4		66.0	2.5	/experiments/knapen_aot/videos/S_yt-2kPrGwVmRfE_169.mp4	0.0	287.68279004096985	
68	204.32173895835876	movie	1		300.0	66.0	2.5	/experiments/knapen_aot/videos/S_yt-2kPrGwVmRfE_169.mp4	0.0	287.69101190567017	2.50827693939209
68	206.83001589775085	fix_post	2		12.0	66.0	2.5	/experiments/knapen_aot/videos/S_yt-2kPrGwVmRfE_169.mp4	0.0	290.19928884506226	0.10001111030578613
69	206.93002700805664	fix_pre	0		57.0	67.0	2.5	/experiments/knapen_aot/videos/R_S_yt-4wjGeLyvfjY_223.mp4	0.0	290.29929995536804	0.4748849868774414
69	207.39678311347961	response	0	4		67.0	2.5	/experiments/knapen_aot/videos/R_S_yt-4wjGeLyvfjY_223.mp4	0.0	290.766056060791	
69	207.40491199493408	movie	1		301.0	67.0	2.5	/experiments/knapen_aot/videos/R_S_yt-4wjGeLyvfjY_223.mp4	0.0	290.7741849422455	2.508359909057617
69	209.9132719039917	fix_post	2		12.0	67.0	2.5	/experiments/knapen_aot/videos/R_S_yt-4wjGeLyvfjY_223.mp4	0.0	293.2825448513031	0.1000831127166748
70	210.01335501670837	fix_pre	0		108.0	68.0	2.5	/experiments/knapen_aot/videos/S_pexels-c-technical-6753390.mp4	0.0	293.3826279640198	0.9008939266204834
70	210.90518593788147	response	0	4		68.0	2.5	/experiments/knapen_aot/videos/S_pexels-c-technical-6753390.mp4	0.0	294.27445888519287	
70	210.91424894332886	movie	1		183.0	68.0	2.5	/experiments/knapen_aot/videos/S_pexels-c-technical-6753390.mp4	0.0	294.28352189064026	2.507413148880005
70	213.42166209220886	fix_post	2		12.0	68.0	2.5	/experiments/knapen_aot/videos/S_pexels-c-technical-6753390.mp4	0.0	296.79093503952026	0.09998083114624023
71	213.5216429233551	fix_pre	0		31.0	69.0	2.5	/experiments/knapen_aot/videos/S_yt-UPgF4YAHBQY_33.mp4	0.0	296.8909158706665	0.25829100608825684
71	213.77175211906433	response	0	4		69.0	2.5	/experiments/knapen_aot/videos/S_yt-UPgF4YAHBQY_33.mp4	0.0	297.14102506637573	
71	213.77993392944336	movie	1		301.0	69.0	2.5	/experiments/knapen_aot/videos/S_yt-UPgF4YAHBQY_33.mp4	0.0	297.14920687675476	2.508364200592041
71	216.2882981300354	fix_post	2		12.0	69.0	2.5	/experiments/knapen_aot/videos/S_yt-UPgF4YAHBQY_33.mp4	0.0	299.6575710773468	0.09999895095825195
72	216.38829708099365	fix_pre	0		22.0	70.0	2.5	blank	1.0	299.75757002830505	0.18332695960998535
72	216.56337690353394	response	0	4		70.0	2.5	blank	1.0	299.93264985084534	
72	216.57162404060364	movie	1		301.0	70.0	2.5	blank	1.0	299.94089698791504	2.5082619190216064
72	219.07988595962524	fix_post	2		12.0	70.0	2.5	blank	1.0	302.44915890693665	0.10007405281066895
73	219.1799600124359	fix_pre	0		20.0	71.0	2.5	/experiments/knapen_aot/videos/S_yt-BQixB0mumIk_169.mp4	0.0	302.5492329597473	0.1667020320892334
73	219.3384280204773	response	0	4		71.0	2.5	/experiments/knapen_aot/videos/S_yt-BQixB0mumIk_169.mp4	0.0	302.7077009677887	
73	219.34666204452515	movie	1		298.0	71.0	2.5	/experiments/knapen_aot/videos/S_yt-BQixB0mumIk_169.mp4	0.0	302.71593499183655	2.5082359313964844
73	221.85489797592163	fix_post	2		12.0	71.0	2.5	/experiments/knapen_aot/videos/S_yt-BQixB0mumIk_169.mp4	0.0	305.22417092323303	0.09998297691345215
74	221.95488095283508	fix_pre	0		165.0	72.0	2.5	/experiments/knapen_aot/videos/R_S_yt-2CWrK9nbhTk_211.mp4	0.0	305.3241539001465	1.3758320808410645
74	223.32185101509094	response	0	4		72.0	2.5	/experiments/knapen_aot/videos/R_S_yt-2CWrK9nbhTk_211.mp4	0.0	306.69112396240234	
74	223.33071303367615	movie	1		301.0	72.0	2.5	/experiments/knapen_aot/videos/R_S_yt-2CWrK9nbhTk_211.mp4	0.0	306.69998598098755	2.5074760913848877
74	225.83818912506104	fix_post	2		12.0	72.0	2.5	/experiments/knapen_aot/videos/R_S_yt-2CWrK9nbhTk_211.mp4	0.0	309.20746207237244	0.1000518798828125
75	225.93824100494385	fix_pre	0		35.0	73.0	2.5	/experiments/knapen_aot/videos/R_S_comp_A007_C017_01156B_v02_SDR_PS_20180925_SDR_2K_AVC.mp4	0.0	309.30751395225525	0.29168701171875
75	226.22161102294922	response	0	4		73.0	2.5	/experiments/knapen_aot/videos/R_S_comp_A007_C017_01156B_v02_SDR_PS_20180925_SDR_2K_AVC.mp4	0.0	309.5908839702606	
75	226.2299280166626	movie	1		167.0	73.0	2.5	/experiments/knapen_aot/videos/R_S_comp_A007_C017_01156B_v02_SDR_PS_20180925_SDR_2K_AVC.mp4	0.0	309.599200963974	2.5083510875701904
75	228.7382791042328	fix_post	2		12.0	73.0	2.5	/experiments/knapen_aot/videos/R_S_comp_A007_C017_01156B_v02_SDR_PS_20180925_SDR_2K_AVC.mp4	0.0	312.1075520515442	0.10000085830688477
76	228.83827996253967	fix_pre	0		1.0	74.0	2.5	/experiments/knapen_aot/videos/R_S_yt-dESxu60Cl10_24.mp4	0.0	312.2075529098511	0.008249998092651367
76	228.83996200561523	response	0	4		74.0	2.5	/experiments/knapen_aot/videos/R_S_yt-dESxu60Cl10_24.mp4	0.0	312.20923495292664	
76	228.84652996063232	movie	1		301.0	74.0	2.5	/experiments/knapen_aot/videos/R_S_yt-dESxu60Cl10_24.mp4	0.0	312.2158029079437	2.508305072784424
76	231.35483503341675	fix_post	2		12.0	74.0	2.5	/experiments/knapen_aot/videos/R_S_yt-dESxu60Cl10_24.mp4	0.0	314.72410798072815	0.10014486312866211
77	231.4549798965454	fix_pre	0		85.0	75.0	2.5	/experiments/knapen_aot/videos/R_S_yt-2CWrK9nbhTk_211.mp4	0.0	314.8242528438568	0.7090590000152588
77	232.15511989593506	response	0	4		75.0	2.5	/experiments/knapen_aot/videos/R_S_yt-2CWrK9nbhTk_211.mp4	0.0	315.52439284324646	
77	232.16403889656067	movie	1		301.0	75.0	2.5	/experiments/knapen_aot/videos/R_S_yt-2CWrK9nbhTk_211.mp4	0.0	315.53331184387207	2.507448196411133
77	234.6714870929718	fix_post	2		12.0	75.0	2.5	/experiments/knapen_aot/videos/R_S_yt-2CWrK9nbhTk_211.mp4	0.0	318.0407600402832	0.10007190704345703
78	234.77155900001526	fix_pre	0		52.0	76.0	2.5	blank	1.0	318.14083194732666	0.43402695655822754
78	235.1966691017151	response	0	4		76.0	2.5	blank	1.0	318.5659420490265	
78	235.2055859565735	movie	1		301.0	76.0	2.5	blank	1.0	318.5748589038849	2.5075089931488037
78	237.7130949497223	fix_post	2		12.0	76.0	2.5	blank	1.0	321.0823678970337	0.10010099411010742
79	237.8131959438324	fix_pre	0		45.0	77.0	2.5	/experiments/knapen_aot/videos/R_S_yt-McqS-QObQbk_122.mp4	0.0	321.1824688911438	0.37498903274536133
79	238.17245411872864	response	0	4		77.0	2.5	/experiments/knapen_aot/videos/R_S_yt-McqS-QObQbk_122.mp4	0.0	321.54172706604004	
79	238.18818497657776	movie	1		301.0	77.0	2.5	/experiments/knapen_aot/videos/R_S_yt-McqS-QObQbk_122.mp4	0.0	321.55745792388916	2.5083799362182617
79	240.69656491279602	fix_post	2		12.0	77.0	2.5	/experiments/knapen_aot/videos/R_S_yt-McqS-QObQbk_122.mp4	0.0	324.0658378601074	0.09999513626098633
80	240.796560049057	fix_pre	0		121.0	78.0	2.5	/experiments/knapen_aot/videos/R_S_yt-tQ-hgwTcMqU_43.mp4	0.0	324.1658329963684	1.0082640647888184
80	241.78907895088196	response	0	4		78.0	2.5	/experiments/knapen_aot/videos/R_S_yt-tQ-hgwTcMqU_43.mp4	0.0	325.15835189819336	
80	241.80482411384583	movie	1		298.0	78.0	2.5	/experiments/knapen_aot/videos/R_S_yt-tQ-hgwTcMqU_43.mp4	0.0	325.1740970611572	2.5083229541778564
80	244.31314706802368	fix_post	2		12.0	78.0	2.5	/experiments/knapen_aot/videos/R_S_yt-tQ-hgwTcMqU_43.mp4	0.0	327.6824200153351	0.0999898910522461
81	244.41313695907593	fix_pre	0		47.0	79.0	2.5	/experiments/knapen_aot/videos/R_S_yt-GLK6LniTOK0_69.mp4	0.0	327.78240990638733	0.3917090892791748
81	244.79665112495422	response	0	4		79.0	2.5	/experiments/knapen_aot/videos/R_S_yt-GLK6LniTOK0_69.mp4	0.0	328.1659240722656	
81	244.8048460483551	movie	1		301.0	79.0	2.5	/experiments/knapen_aot/videos/R_S_yt-GLK6LniTOK0_69.mp4	0.0	328.1741189956665	2.5082640647888184
81	247.31311011314392	fix_post	2		11.0	79.0	2.5	/experiments/knapen_aot/videos/R_S_yt-GLK6LniTOK0_69.mp4	0.0	330.6823830604553	0.10004591941833496
82	247.41315603256226	fix_pre	0		121.0	80.0	2.5	/experiments/knapen_aot/videos/S_yt-p0buJEEKeuI_61.mp4	0.0	330.78242897987366	1.008286952972412
82	248.41325211524963	response	0	4		80.0	2.5	/experiments/knapen_aot/videos/S_yt-p0buJEEKeuI_61.mp4	0.0	331.78252506256104	
82	248.42144298553467	movie	1		301.0	80.0	2.5	/experiments/knapen_aot/videos/S_yt-p0buJEEKeuI_61.mp4	0.0	331.79071593284607	2.508388042449951
82	250.92983102798462	fix_post	2		12.0	80.0	2.5	/experiments/knapen_aot/videos/S_yt-p0buJEEKeuI_61.mp4	0.0	334.299103975296	0.09999799728393555
83	251.02982902526855	fix_pre	0		28.0	81.0	2.5	/experiments/knapen_aot/videos/R_S_yt-7Fyu2vr7zbA_31.mp4	0.0	334.39910197257996	0.23331189155578613
83	251.25489592552185	response	0	4		81.0	2.5	/experiments/knapen_aot/videos/R_S_yt-7Fyu2vr7zbA_31.mp4	0.0	334.62416887283325	
83	251.26314091682434	movie	1		301.0	81.0	2.5	/experiments/knapen_aot/videos/R_S_yt-7Fyu2vr7zbA_31.mp4	0.0	334.63241386413574	2.508287191390991
83	253.77142810821533	fix_post	2		12.0	81.0	2.5	/experiments/knapen_aot/videos/R_S_yt-7Fyu2vr7zbA_31.mp4	0.0	337.14070105552673	0.0999748706817627
84	253.8714029788971	fix_pre	0		15.0	82.0	2.5	/experiments/knapen_aot/videos/S_yt-McqS-QObQbk_122.mp4	0.0	337.2406759262085	0.12572193145751953
84	253.988214969635	response	0	4		82.0	2.5	/experiments/knapen_aot/videos/S_yt-McqS-QObQbk_122.mp4	0.0	337.3574879169464	
84	253.99712491035461	movie	1		300.0	82.0	2.5	/experiments/knapen_aot/videos/S_yt-McqS-QObQbk_122.mp4	0.0	337.366397857666	2.5075860023498535
84	256.50471091270447	fix_post	2		12.0	82.0	2.5	/experiments/knapen_aot/videos/S_yt-McqS-QObQbk_122.mp4	0.0	339.87398386001587	0.10008811950683594
85	256.6047990322113	fix_pre	0		23.0	83.0	2.5	blank	1.0	339.9740719795227	0.19158291816711426
85	256.788213968277	response	0	4		83.0	2.5	blank	1.0	340.1574869155884	
85	256.7963819503784	movie	1		301.0	83.0	2.5	blank	1.0	340.1656548976898	2.508373975753784
85	259.3047559261322	fix_post	2		12.0	83.0	2.5	blank	1.0	342.6740288734436	0.10002303123474121
87	259.40477895736694	stim	0		293.0					342.77405190467834	2.441641092300415
87	259.76419591903687	response	0	4						343.13346886634827	
87	261.8406660556793	response	0	space						345.2099390029907	
