trial_nr	onset	event_type	phase	response	nr_frames	movie_index	movie_duration	movie_file	blank	onset_abs	duration
0	0.15825700759887695	stim	0		22.0					172.60085082054138	0.18335318565368652
0	0.33351922035217285	response	0	space						172.77611303329468	
1	0.3416101932525635	stim	0		121.0					172.78420400619507	1.008018970489502
1	0.7251181602478027	response	0	space						173.1677119731903	
1	1.3496291637420654	stim	1		120.0					173.79222297668457	1.000087022781372
1	1.5747811794281006	response	1	space						174.0173749923706	
1	1.7996480464935303	response	1	space						174.24224185943604	
1	2.041356086730957	response	1	space						174.48394989967346	
2	2.3497161865234375	fix_pre	0		3.0	0.0	2.5	/experiments/knapen_aot/oldvideos/S_yt-JVhfcpV7OaY_71.mp4	0.0	174.79230999946594	0.024910926818847656
2	2.3663761615753174	response	0	space		0.0	2.5	/experiments/knapen_aot/oldvideos/S_yt-JVhfcpV7OaY_71.mp4	0.0	174.80896997451782	
2	2.374627113342285	movie	1		299.0	0.0	2.5	/experiments/knapen_aot/oldvideos/S_yt-JVhfcpV7OaY_71.mp4	0.0	174.8172209262848	2.508397102355957
2	4.883024215698242	fix_post	2		12.0	0.0	2.5	/experiments/knapen_aot/oldvideos/S_yt-JVhfcpV7OaY_71.mp4	0.0	177.32561802864075	0.0999608039855957
3	4.982985019683838	fix_pre	0		17.0	1.0	2.5	/experiments/knapen_aot/oldvideos/S_ILSVRC2015_train_00469000.mp4	0.0	177.42557883262634	0.14574718475341797
3	5.118812084197998	response	0	4		1.0	2.5	/experiments/knapen_aot/oldvideos/S_ILSVRC2015_train_00469000.mp4	0.0	177.5614058971405	
3	5.128732204437256	movie	1		300.0	1.0	2.5	/experiments/knapen_aot/oldvideos/S_ILSVRC2015_train_00469000.mp4	0.0	177.57132601737976	2.504244804382324
3	7.63297700881958	fix_post	2		12.0	1.0	2.5	/experiments/knapen_aot/oldvideos/S_ILSVRC2015_train_00469000.mp4	0.0	180.07557082176208	0.09995698928833008
4	7.73293399810791	fix_pre	0		12.0	2.0	2.5	/experiments/knapen_aot/oldvideos/R_S_yt-fqbi4rGc9dk_65.mp4	0.0	180.17552781105042	0.09995603561401367
4	7.82475209236145	response	0	2		2.0	2.5	/experiments/knapen_aot/oldvideos/R_S_yt-fqbi4rGc9dk_65.mp4	0.0	180.26734590530396	
4	7.832890033721924	movie	1		301.0	2.0	2.5	/experiments/knapen_aot/oldvideos/R_S_yt-fqbi4rGc9dk_65.mp4	0.0	180.27548384666443	2.5084290504455566
4	10.34131908416748	fix_post	2		12.0	2.0	2.5	/experiments/knapen_aot/oldvideos/R_S_yt-fqbi4rGc9dk_65.mp4	0.0	182.78391289710999	0.10019803047180176
5	10.441517114639282	fix_pre	0		24.0	3.0	2.5	/experiments/knapen_aot/oldvideos/S_yt-iAQ98zgVlds_97.mp4	0.0	182.8841109275818	0.19972896575927734
5	10.633031129837036	response	0	4		3.0	2.5	/experiments/knapen_aot/oldvideos/S_yt-iAQ98zgVlds_97.mp4	0.0	183.07562494277954	
5	10.64124608039856	movie	1		301.0	3.0	2.5	/experiments/knapen_aot/oldvideos/S_yt-iAQ98zgVlds_97.mp4	0.0	183.08383989334106	2.508423089981079
5	13.149669170379639	fix_post	2		12.0	3.0	2.5	/experiments/knapen_aot/oldvideos/S_yt-iAQ98zgVlds_97.mp4	0.0	185.59226298332214	0.09995484352111816
6	13.249624013900757	fix_pre	0		34.0	4.0	2.5	/experiments/knapen_aot/oldvideos/S_b4-3.mp4	0.0	185.69221782684326	0.28331613540649414
6	13.52469515800476	response	0	2		4.0	2.5	/experiments/knapen_aot/oldvideos/S_b4-3.mp4	0.0	185.96728897094727	
6	13.532940149307251	movie	1		165.0	4.0	2.5	/experiments/knapen_aot/oldvideos/S_b4-3.mp4	0.0	185.97553396224976	2.5083470344543457
6	16.041287183761597	fix_post	2		12.0	4.0	2.5	/experiments/knapen_aot/oldvideos/S_b4-3.mp4	0.0	188.4838809967041	0.10000395774841309
7	16.14129114151001	fix_pre	0		32.0	5.0	2.5	/experiments/knapen_aot/oldvideos/S_yt-fGN7sGPy8BA_13.mp4	0.0	188.58388495445251	0.26661086082458496
7	16.399757146835327	response	0	4		5.0	2.5	/experiments/knapen_aot/oldvideos/S_yt-fGN7sGPy8BA_13.mp4	0.0	188.84235095977783	
7	16.407902002334595	movie	1		301.0	5.0	2.5	/experiments/knapen_aot/oldvideos/S_yt-fGN7sGPy8BA_13.mp4	0.0	188.8504958152771	2.5083141326904297
7	18.916216135025024	fix_post	2		12.0	5.0	2.5	/experiments/knapen_aot/oldvideos/S_yt-fGN7sGPy8BA_13.mp4	0.0	191.35880994796753	0.1000368595123291
8	19.016252994537354	fix_pre	0		24.0	6.0	2.5	blank	1.0	191.45884680747986	0.19995903968811035
8	19.20803213119507	response	0	2		6.0	2.5	blank	1.0	191.65062594413757	
8	19.216212034225464	movie	1		301.0	6.0	2.5	blank	1.0	191.65880584716797	2.5083580017089844
8	21.72457003593445	fix_post	2		12.0	6.0	2.5	blank	1.0	194.16716384887695	0.09994006156921387
9	21.824510097503662	fix_pre	0		36.0	7.0	2.5	/experiments/knapen_aot/oldvideos/S_yt-McqS-QObQbk_122.mp4	0.0	194.26710391044617	0.30000805854797363
9	22.1163330078125	response	0	4		7.0	2.5	/experiments/knapen_aot/oldvideos/S_yt-McqS-QObQbk_122.mp4	0.0	194.558926820755	
9	22.124518156051636	movie	1		301.0	7.0	2.5	/experiments/knapen_aot/oldvideos/S_yt-McqS-QObQbk_122.mp4	0.0	194.56711196899414	2.5083730220794678
9	24.632891178131104	fix_post	2		12.0	7.0	2.5	/experiments/knapen_aot/oldvideos/S_yt-McqS-QObQbk_122.mp4	0.0	197.0754849910736	0.10001301765441895
10	24.732904195785522	fix_pre	0		8.0	8.0	2.5	/experiments/knapen_aot/oldvideos/S_ILSVRC2015_train_00632002.mp4	0.0	197.17549800872803	0.06657099723815918
10	24.791321992874146	response	0	2		8.0	2.5	/experiments/knapen_aot/oldvideos/S_ILSVRC2015_train_00632002.mp4	0.0	197.23391580581665	
10	24.79947519302368	movie	1		301.0	8.0	2.5	/experiments/knapen_aot/oldvideos/S_ILSVRC2015_train_00632002.mp4	0.0	197.2420690059662	2.508378028869629
10	27.30785322189331	fix_post	2		12.0	8.0	2.5	/experiments/knapen_aot/oldvideos/S_ILSVRC2015_train_00632002.mp4	0.0	199.75044703483582	0.10001587867736816
11	27.40786910057068	fix_pre	0		25.0	9.0	2.5	/experiments/knapen_aot/oldvideos/R_S_yt-isJga8ec5UM_32.mp4	0.0	199.85046291351318	0.20821595191955566
11	27.607914209365845	response	0	4		9.0	2.5	/experiments/knapen_aot/oldvideos/R_S_yt-isJga8ec5UM_32.mp4	0.0	200.05050802230835	
11	27.616085052490234	movie	1		301.0	9.0	2.5	/experiments/knapen_aot/oldvideos/R_S_yt-isJga8ec5UM_32.mp4	0.0	200.05867886543274	2.508471965789795
11	30.12455701828003	fix_post	2		12.0	9.0	2.5	/experiments/knapen_aot/oldvideos/R_S_yt-isJga8ec5UM_32.mp4	0.0	202.56715083122253	0.09998416900634766
12	30.224541187286377	fix_pre	0		20.0	10.0	2.5	/experiments/knapen_aot/oldvideos/R_S_production_ID_3735542.mp4	0.0	202.66713500022888	0.16661381721496582
12	30.38290500640869	response	0	2		10.0	2.5	/experiments/knapen_aot/oldvideos/R_S_production_ID_3735542.mp4	0.0	202.8254988193512	
12	30.391155004501343	movie	1		162.0	10.0	2.5	/experiments/knapen_aot/oldvideos/R_S_production_ID_3735542.mp4	0.0	202.83374881744385	2.508376121520996
12	31.066325187683105	response	1	4		10.0	2.5	/experiments/knapen_aot/oldvideos/R_S_production_ID_3735542.mp4	0.0	203.5089190006256	
12	32.89953112602234	fix_post	2		12.0	10.0	2.5	/experiments/knapen_aot/oldvideos/R_S_production_ID_3735542.mp4	0.0	205.34212493896484	0.09997797012329102
13	32.99950909614563	fix_pre	0		13.0	11.0	2.5	/experiments/knapen_aot/oldvideos/S_yt-VfASxEzDrvc_145.mp4	0.0	205.44210290908813	0.10831594467163086
13	33.09954309463501	response	0	4		11.0	2.5	/experiments/knapen_aot/oldvideos/S_yt-VfASxEzDrvc_145.mp4	0.0	205.54213690757751	
13	33.10782504081726	movie	1		301.0	11.0	2.5	/experiments/knapen_aot/oldvideos/S_yt-VfASxEzDrvc_145.mp4	0.0	205.55041885375977	2.5083510875701904
13	35.61617612838745	fix_post	2		12.0	11.0	2.5	/experiments/knapen_aot/oldvideos/S_yt-VfASxEzDrvc_145.mp4	0.0	208.05876994132996	0.0999290943145752
14	35.716105222702026	fix_pre	0		45.0	12.0	2.5	/experiments/knapen_aot/oldvideos/S_yt-uWeU2s6JYyk_10.mp4	0.0	208.15869903564453	0.3750448226928711
14	36.07541799545288	response	0	2		12.0	2.5	/experiments/knapen_aot/oldvideos/S_yt-uWeU2s6JYyk_10.mp4	0.0	208.51801180839539	
14	36.0911500453949	movie	1		301.0	12.0	2.5	/experiments/knapen_aot/oldvideos/S_yt-uWeU2s6JYyk_10.mp4	0.0	208.5337438583374	2.508319139480591
14	38.59946918487549	fix_post	2		12.0	12.0	2.5	/experiments/knapen_aot/oldvideos/S_yt-uWeU2s6JYyk_10.mp4	0.0	211.042062997818	0.1000359058380127
15	38.6995050907135	fix_pre	0		28.0	13.0	2.5	blank	1.0	211.142098903656	0.23334693908691406
15	38.924575090408325	response	0	4		13.0	2.5	blank	1.0	211.36716890335083	
15	38.932852029800415	movie	1		301.0	13.0	2.5	blank	1.0	211.37544584274292	2.508308172225952
15	41.44116020202637	fix_post	2		12.0	13.0	2.5	blank	1.0	213.88375401496887	0.09990286827087402
16	41.54106307029724	fix_pre	0		44.0	14.0	2.5	/experiments/knapen_aot/oldvideos/S_yt--Ra34zJ69AU_68.mp4	0.0	213.98365688323975	0.36666107177734375
16	41.89955806732178	response	0	2		14.0	2.5	/experiments/knapen_aot/oldvideos/S_yt--Ra34zJ69AU_68.mp4	0.0	214.34215188026428	
16	41.907724142074585	movie	1		301.0	14.0	2.5	/experiments/knapen_aot/oldvideos/S_yt--Ra34zJ69AU_68.mp4	0.0	214.3503179550171	2.5083608627319336
16	44.41608500480652	fix_post	2		12.0	14.0	2.5	/experiments/knapen_aot/oldvideos/S_yt--Ra34zJ69AU_68.mp4	0.0	216.85867881774902	0.10003113746643066
17	44.51611614227295	fix_pre	0		28.0	15.0	2.5	/experiments/knapen_aot/oldvideos/S_yt-BFA07F4L4S0_22.mp4	0.0	216.95870995521545	0.2332899570465088
17	44.741178035736084	response	0	4		15.0	2.5	/experiments/knapen_aot/oldvideos/S_yt-BFA07F4L4S0_22.mp4	0.0	217.1837718486786	
17	44.74940609931946	movie	1		301.0	15.0	2.5	/experiments/knapen_aot/oldvideos/S_yt-BFA07F4L4S0_22.mp4	0.0	217.19199991226196	2.508384943008423
17	47.25779104232788	fix_post	2		12.0	15.0	2.5	/experiments/knapen_aot/oldvideos/S_yt-BFA07F4L4S0_22.mp4	0.0	219.70038485527039	0.09997296333312988
17	47.34221410751343	response	2	2		15.0	2.5	/experiments/knapen_aot/oldvideos/S_yt-BFA07F4L4S0_22.mp4	0.0	219.78480792045593	
18	47.35776400566101	fix_pre	0		244.0	16.0	2.5	/experiments/knapen_aot/oldvideos/R_S_yt-ycfVJyrFgB4_15.mp4	0.0	219.80035781860352	2.034475088119507
18	49.38292717933655	response	0	2		16.0	2.5	/experiments/knapen_aot/oldvideos/R_S_yt-ycfVJyrFgB4_15.mp4	0.0	221.82552099227905	
18	49.39223909378052	movie	1		301.0	16.0	2.5	/experiments/knapen_aot/oldvideos/R_S_yt-ycfVJyrFgB4_15.mp4	0.0	221.83483290672302	2.5071630477905273
18	51.899402141571045	fix_post	2		12.0	16.0	2.5	/experiments/knapen_aot/oldvideos/R_S_yt-ycfVJyrFgB4_15.mp4	0.0	224.34199595451355	0.10001397132873535
19	51.99941611289978	fix_pre	0		8.0	17.0	2.5	/experiments/knapen_aot/oldvideos/S_yt-c5IgOXX8YZ0_24.mp4	0.0	224.44200992584229	0.06665706634521484
19	52.05785608291626	response	0	4		17.0	2.5	/experiments/knapen_aot/oldvideos/S_yt-c5IgOXX8YZ0_24.mp4	0.0	224.50044989585876	
19	52.066073179244995	movie	1		301.0	17.0	2.5	/experiments/knapen_aot/oldvideos/S_yt-c5IgOXX8YZ0_24.mp4	0.0	224.5086669921875	2.50833797454834
19	54.574411153793335	fix_post	2		12.0	17.0	2.5	/experiments/knapen_aot/oldvideos/S_yt-c5IgOXX8YZ0_24.mp4	0.0	227.01700496673584	0.09997797012329102
20	54.674389123916626	fix_pre	0		16.0	18.0	2.5	/experiments/knapen_aot/oldvideos/S_PA_A001_C007_SDR_20190717_SDR_2K_AVC.mp4	0.0	227.11698293685913	0.13445496559143066
20	54.79206204414368	response	0	2		18.0	2.5	/experiments/knapen_aot/oldvideos/S_PA_A001_C007_SDR_20190717_SDR_2K_AVC.mp4	0.0	227.23465585708618	
20	54.80884408950806	movie	1		165.0	18.0	2.5	/experiments/knapen_aot/oldvideos/S_PA_A001_C007_SDR_20190717_SDR_2K_AVC.mp4	0.0	227.25143790245056	2.5072379112243652
20	57.31608200073242	fix_post	2		12.0	18.0	2.5	/experiments/knapen_aot/oldvideos/S_PA_A001_C007_SDR_20190717_SDR_2K_AVC.mp4	0.0	229.75867581367493	0.09992098808288574
21	57.41600298881531	fix_pre	0		15.0	19.0	2.5	/experiments/knapen_aot/oldvideos/S_yt-0xzYSBvVfYM_197.mp4	0.0	229.8585968017578	0.12505722045898438
21	57.53282618522644	response	0	4		19.0	2.5	/experiments/knapen_aot/oldvideos/S_yt-0xzYSBvVfYM_197.mp4	0.0	229.97541999816895	
21	57.54106020927429	movie	1		301.0	19.0	2.5	/experiments/knapen_aot/oldvideos/S_yt-0xzYSBvVfYM_197.mp4	0.0	229.9836540222168	2.50837779045105
21	60.04943799972534	fix_post	2		12.0	19.0	2.5	/experiments/knapen_aot/oldvideos/S_yt-0xzYSBvVfYM_197.mp4	0.0	232.49203181266785	0.09998202323913574
22	60.14942002296448	fix_pre	0		12.0	20.0	2.5	blank	1.0	232.59201383590698	0.09994912147521973
22	60.241164207458496	response	0	2		20.0	2.5	blank	1.0	232.683758020401	
22	60.2493691444397	movie	1		301.0	20.0	2.5	blank	1.0	232.6919629573822	2.5085020065307617
22	62.75787115097046	fix_post	2		12.0	20.0	2.5	blank	1.0	235.20046496391296	0.09986090660095215
23	62.85773205757141	fix_pre	0		34.0	21.0	2.5	/experiments/knapen_aot/oldvideos/S_yt-_68FWLGgPYE_25.mp4	0.0	235.30032587051392	0.2843480110168457
23	63.132819175720215	response	0	4		21.0	2.5	/experiments/knapen_aot/oldvideos/S_yt-_68FWLGgPYE_25.mp4	0.0	235.57541298866272	
23	63.14208006858826	movie	1		301.0	21.0	2.5	/experiments/knapen_aot/oldvideos/S_yt-_68FWLGgPYE_25.mp4	0.0	235.58467388153076	2.507343053817749
23	65.649423122406	fix_post	2		12.0	21.0	2.5	/experiments/knapen_aot/oldvideos/S_yt-_68FWLGgPYE_25.mp4	0.0	238.0920169353485	0.09988808631896973
24	65.74931120872498	fix_pre	0		23.0	22.0	2.5	/experiments/knapen_aot/oldvideos/S_DL_B002_C011_SDR_20191122_SDR_2K_AVC.mp4	0.0	238.19190502166748	0.19169378280639648
24	65.93285202980042	response	0	2		22.0	2.5	/experiments/knapen_aot/oldvideos/S_DL_B002_C011_SDR_20191122_SDR_2K_AVC.mp4	0.0	238.37544584274292	
24	65.94100499153137	movie	1		166.0	22.0	2.5	/experiments/knapen_aot/oldvideos/S_DL_B002_C011_SDR_20191122_SDR_2K_AVC.mp4	0.0	238.38359880447388	2.5083532333374023
24	68.44935822486877	fix_post	2		12.0	22.0	2.5	/experiments/knapen_aot/oldvideos/S_DL_B002_C011_SDR_20191122_SDR_2K_AVC.mp4	0.0	240.89195203781128	0.09993886947631836
25	68.54929709434509	fix_pre	0		15.0	23.0	2.5	/experiments/knapen_aot/oldvideos/S_pexels-cottonbro-6789228.mp4	0.0	240.9918909072876	0.12500691413879395
25	68.66607809066772	response	0	4		23.0	2.5	/experiments/knapen_aot/oldvideos/S_pexels-cottonbro-6789228.mp4	0.0	241.10867190361023	
25	68.67430400848389	movie	1		203.0	23.0	2.5	/experiments/knapen_aot/oldvideos/S_pexels-cottonbro-6789228.mp4	0.0	241.1168978214264	2.5085201263427734
25	71.18282413482666	fix_post	2		12.0	23.0	2.5	/experiments/knapen_aot/oldvideos/S_pexels-cottonbro-6789228.mp4	0.0	243.62541794776917	0.0997920036315918
26	71.28261613845825	fix_pre	0		19.0	24.0	2.5	/experiments/knapen_aot/oldvideos/R_S_S005_C015_SDR_2K_AVC.mp4	0.0	243.72520995140076	0.15833687782287598
26	71.43274521827698	response	0	2		24.0	2.5	/experiments/knapen_aot/oldvideos/R_S_S005_C015_SDR_2K_AVC.mp4	0.0	243.87533903121948	
26	71.44095301628113	movie	1		175.0	24.0	2.5	/experiments/knapen_aot/oldvideos/R_S_S005_C015_SDR_2K_AVC.mp4	0.0	243.88354682922363	2.508366107940674
26	73.9493191242218	fix_post	2		12.0	24.0	2.5	/experiments/knapen_aot/oldvideos/R_S_S005_C015_SDR_2K_AVC.mp4	0.0	246.3919129371643	0.10002994537353516
27	74.04934906959534	fix_pre	0		5.0	25.0	2.5	/experiments/knapen_aot/oldvideos/R_S_yt-QI6k6mhpxLo_453.mp4	0.0	246.49194288253784	0.041587114334106445
27	74.08282709121704	response	0	4		25.0	2.5	/experiments/knapen_aot/oldvideos/R_S_yt-QI6k6mhpxLo_453.mp4	0.0	246.52542090415955	
27	74.09093618392944	movie	1		301.0	25.0	2.5	/experiments/knapen_aot/oldvideos/R_S_yt-QI6k6mhpxLo_453.mp4	0.0	246.53352999687195	2.5084028244018555
27	76.5993390083313	fix_post	2		12.0	25.0	2.5	/experiments/knapen_aot/oldvideos/R_S_yt-QI6k6mhpxLo_453.mp4	0.0	249.0419328212738	0.10002708435058594
28	76.69936609268188	fix_pre	0		11.0	26.0	2.5	/experiments/knapen_aot/oldvideos/S_g201_CA_A016_C002_SDR_20191114_SDR_2K_AVC.mp4	0.0	249.1419599056244	0.09157991409301758
28	76.78275203704834	response	0	2		26.0	2.5	/experiments/knapen_aot/oldvideos/S_g201_CA_A016_C002_SDR_20191114_SDR_2K_AVC.mp4	0.0	249.22534584999084	
28	76.7909460067749	movie	1		166.0	26.0	2.5	/experiments/knapen_aot/oldvideos/S_g201_CA_A016_C002_SDR_20191114_SDR_2K_AVC.mp4	0.0	249.2335398197174	2.5083601474761963
28	79.2993061542511	fix_post	2		12.0	26.0	2.5	/experiments/knapen_aot/oldvideos/S_g201_CA_A016_C002_SDR_20191114_SDR_2K_AVC.mp4	0.0	251.7418999671936	0.09994387626647949
28	79.38271999359131	response	2	4		26.0	2.5	/experiments/knapen_aot/oldvideos/S_g201_CA_A016_C002_SDR_20191114_SDR_2K_AVC.mp4	0.0	251.8253138065338	
29	79.39925003051758	fix_pre	0		187.0	27.0	2.5	/experiments/knapen_aot/oldvideos/R_S_yt-pO5SVq-9EhU_114.mp4	0.0	251.84184384346008	1.5582890510559082
29	80.94940304756165	response	0	4		27.0	2.5	/experiments/knapen_aot/oldvideos/R_S_yt-pO5SVq-9EhU_114.mp4	0.0	253.39199686050415	
29	80.95753908157349	movie	1		300.0	27.0	2.5	/experiments/knapen_aot/oldvideos/R_S_yt-pO5SVq-9EhU_114.mp4	0.0	253.400132894516	2.508431911468506
29	83.46597099304199	fix_post	2		12.0	27.0	2.5	/experiments/knapen_aot/oldvideos/R_S_yt-pO5SVq-9EhU_114.mp4	0.0	255.9085648059845	0.09991717338562012
30	83.56588816642761	fix_pre	0		25.0	28.0	2.5	blank	1.0	256.0084819793701	0.2084028720855713
30	83.76608300209045	response	0	2		28.0	2.5	blank	1.0	256.20867681503296	
30	83.77429103851318	movie	1		301.0	28.0	2.5	blank	1.0	256.2168848514557	2.5083999633789062
30	86.28269100189209	fix_post	2		12.0	28.0	2.5	blank	1.0	258.7252848148346	0.09992408752441406
31	86.3826150894165	fix_pre	0		211.0	29.0	2.5	/experiments/knapen_aot/oldvideos/S_yt-o_Hakzj8PRg_2864.mp4	0.0	258.825208902359	1.7592051029205322
31	88.13273000717163	response	0	4		29.0	2.5	/experiments/knapen_aot/oldvideos/S_yt-o_Hakzj8PRg_2864.mp4	0.0	260.57532382011414	
31	88.14182019233704	movie	1		301.0	29.0	2.5	/experiments/knapen_aot/oldvideos/S_yt-o_Hakzj8PRg_2864.mp4	0.0	260.58441400527954	2.5074069499969482
31	90.64922714233398	fix_post	2		12.0	29.0	2.5	/experiments/knapen_aot/oldvideos/S_yt-o_Hakzj8PRg_2864.mp4	0.0	263.0918209552765	0.10013794898986816
32	90.74936509132385	fix_pre	0		19.0	30.0	2.5	/experiments/knapen_aot/oldvideos/S_wc-eJe3wXMgTLRV_20.mp4	0.0	263.19195890426636	0.15817904472351074
32	90.89932513237	response	0	2		30.0	2.5	/experiments/knapen_aot/oldvideos/S_wc-eJe3wXMgTLRV_20.mp4	0.0	263.3419189453125	
32	90.90754413604736	movie	1		162.0	30.0	2.5	/experiments/knapen_aot/oldvideos/S_wc-eJe3wXMgTLRV_20.mp4	0.0	263.35013794898987	2.5083630084991455
32	93.41590714454651	fix_post	2		12.0	30.0	2.5	/experiments/knapen_aot/oldvideos/S_wc-eJe3wXMgTLRV_20.mp4	0.0	265.858500957489	0.10009884834289551
33	93.5160059928894	fix_pre	0		201.0	31.0	2.5	/experiments/knapen_aot/oldvideos/R_S_yt_R-lST38EdfMMQ_5.mp4	0.0	265.9585998058319	1.6748461723327637
33	95.18275213241577	response	0	4		31.0	2.5	/experiments/knapen_aot/oldvideos/R_S_yt_R-lST38EdfMMQ_5.mp4	0.0	267.6253459453583	
33	95.19085216522217	movie	1		301.0	31.0	2.5	/experiments/knapen_aot/oldvideos/R_S_yt_R-lST38EdfMMQ_5.mp4	0.0	267.6334459781647	2.5084619522094727
33	97.69931411743164	fix_post	2		12.0	31.0	2.5	/experiments/knapen_aot/oldvideos/R_S_yt_R-lST38EdfMMQ_5.mp4	0.0	270.14190793037415	0.09992289543151855
34	97.79923701286316	fix_pre	0		8.0	32.0	2.5	/experiments/knapen_aot/oldvideos/R_S_yt-BQixB0mumIk_169.mp4	0.0	270.24183082580566	0.06662702560424805
34	97.8576591014862	response	0	2		32.0	2.5	/experiments/knapen_aot/oldvideos/R_S_yt-BQixB0mumIk_169.mp4	0.0	270.3002529144287	
34	97.86586403846741	movie	1		301.0	32.0	2.5	/experiments/knapen_aot/oldvideos/R_S_yt-BQixB0mumIk_169.mp4	0.0	270.3084578514099	2.508350133895874
34	100.37421417236328	fix_post	2		12.0	32.0	2.5	/experiments/knapen_aot/oldvideos/R_S_yt-BQixB0mumIk_169.mp4	0.0	272.8168079853058	0.10001587867736816
35	100.47423005104065	fix_pre	0		16.0	33.0	2.5	/experiments/knapen_aot/oldvideos/R_S_yt-i-1Gou9SA5U_3.mp4	0.0	272.91682386398315	0.13329815864562988
35	100.59187507629395	response	0	4		33.0	2.5	/experiments/knapen_aot/oldvideos/R_S_yt-i-1Gou9SA5U_3.mp4	0.0	273.03446888923645	
35	100.60752820968628	movie	1		301.0	33.0	2.5	/experiments/knapen_aot/oldvideos/R_S_yt-i-1Gou9SA5U_3.mp4	0.0	273.0501220226288	2.5083389282226562
35	103.11586713790894	fix_post	2		12.0	33.0	2.5	/experiments/knapen_aot/oldvideos/R_S_yt-i-1Gou9SA5U_3.mp4	0.0	275.55846095085144	0.0999300479888916
36	103.21579718589783	fix_pre	0		302.0	34.0	2.5	blank	1.0	275.65839099884033	2.5167298316955566
36	105.72439217567444	response	0	2		34.0	2.5	blank	1.0	278.16698598861694	
36	105.73252701759338	movie	1		301.0	34.0	2.5	blank	1.0	278.1751208305359	2.508324146270752
36	108.24085116386414	fix_post	2		12.0	34.0	2.5	blank	1.0	280.68344497680664	0.10005784034729004
37	108.34090900421143	fix_pre	0		8.0	35.0	2.5	/experiments/knapen_aot/oldvideos/R_S_yt-BCFGCganiuE_8.mp4	0.0	280.78350281715393	0.06661200523376465
37	108.3991641998291	response	0	4		35.0	2.5	/experiments/knapen_aot/oldvideos/R_S_yt-BCFGCganiuE_8.mp4	0.0	280.8417580127716	
37	108.40752100944519	movie	1		301.0	35.0	2.5	/experiments/knapen_aot/oldvideos/R_S_yt-BCFGCganiuE_8.mp4	0.0	280.8501148223877	2.5083160400390625
37	110.91583704948425	fix_post	2		12.0	35.0	2.5	/experiments/knapen_aot/oldvideos/R_S_yt-BCFGCganiuE_8.mp4	0.0	283.35843086242676	0.10003113746643066
38	111.01586818695068	fix_pre	0		9.0	36.0	2.5	/experiments/knapen_aot/oldvideos/S_yt-8QCcmqaEMPI_16.mp4	0.0	283.4584619998932	0.07496094703674316
38	111.08261513710022	response	0	2		36.0	2.5	/experiments/knapen_aot/oldvideos/S_yt-8QCcmqaEMPI_16.mp4	0.0	283.5252089500427	
38	111.09082913398743	movie	1		301.0	36.0	2.5	/experiments/knapen_aot/oldvideos/S_yt-8QCcmqaEMPI_16.mp4	0.0	283.53342294692993	2.508378028869629
38	113.59920716285706	fix_post	2		12.0	36.0	2.5	/experiments/knapen_aot/oldvideos/S_yt-8QCcmqaEMPI_16.mp4	0.0	286.04180097579956	0.09997797012329102
39	113.69918513298035	fix_pre	0		92.0	37.0	2.5	/experiments/knapen_aot/oldvideos/S_yt-_Hnr82bYGEQ_103.mp4	0.0	286.14177894592285	0.766618013381958
39	114.4576210975647	response	0	4		37.0	2.5	/experiments/knapen_aot/oldvideos/S_yt-_Hnr82bYGEQ_103.mp4	0.0	286.9002149105072	
39	114.4658031463623	movie	1		301.0	37.0	2.5	/experiments/knapen_aot/oldvideos/S_yt-_Hnr82bYGEQ_103.mp4	0.0	286.9083969593048	2.508286952972412
39	116.97409009933472	fix_post	2		12.0	37.0	2.5	/experiments/knapen_aot/oldvideos/S_yt-_Hnr82bYGEQ_103.mp4	0.0	289.4166839122772	0.09998798370361328
40	117.07407808303833	fix_pre	0		29.0	38.0	2.5	/experiments/knapen_aot/oldvideos/R_S_b2-2.mp4	0.0	289.51667189598083	0.24177813529968262
40	117.30758905410767	response	0	2		38.0	2.5	/experiments/knapen_aot/oldvideos/R_S_b2-2.mp4	0.0	289.75018286705017	
40	117.31585621833801	movie	1		169.0	38.0	2.5	/experiments/knapen_aot/oldvideos/R_S_b2-2.mp4	0.0	289.7584500312805	2.5082929134368896
40	119.8241491317749	fix_post	2		12.0	38.0	2.5	/experiments/knapen_aot/oldvideos/R_S_b2-2.mp4	0.0	292.2667429447174	0.1000978946685791
41	119.92424702644348	fix_pre	0		127.0	39.0	2.5	/experiments/knapen_aot/oldvideos/R_S_pexels-koolshooters-7327405.mp4	0.0	292.366840839386	1.0581800937652588
41	120.97427320480347	response	0	4		39.0	2.5	/experiments/knapen_aot/oldvideos/R_S_pexels-koolshooters-7327405.mp4	0.0	293.416867017746	
41	120.98242712020874	movie	1		163.0	39.0	2.5	/experiments/knapen_aot/oldvideos/R_S_pexels-koolshooters-7327405.mp4	0.0	293.42502093315125	2.508373975753784
41	123.49080109596252	fix_post	2		12.0	39.0	2.5	/experiments/knapen_aot/oldvideos/R_S_pexels-koolshooters-7327405.mp4	0.0	295.93339490890503	0.10001802444458008
42	123.5908191204071	fix_pre	0		29.0	40.0	2.5	/experiments/knapen_aot/oldvideos/R_S_MEX_A006_C008_SDR_20190923_SDR_2K_AVC.mp4	0.0	296.0334129333496	0.24159908294677734
42	123.82418012619019	response	0	2		40.0	2.5	/experiments/knapen_aot/oldvideos/R_S_MEX_A006_C008_SDR_20190923_SDR_2K_AVC.mp4	0.0	296.2667739391327	
42	123.83241820335388	movie	1		166.0	40.0	2.5	/experiments/knapen_aot/oldvideos/R_S_MEX_A006_C008_SDR_20190923_SDR_2K_AVC.mp4	0.0	296.2750120162964	2.508309841156006
42	126.34072804450989	fix_post	2		12.0	40.0	2.5	/experiments/knapen_aot/oldvideos/R_S_MEX_A006_C008_SDR_20190923_SDR_2K_AVC.mp4	0.0	298.7833218574524	0.10004711151123047
43	126.44077515602112	fix_pre	0		16.0	41.0	2.5	blank	1.0	298.8833689689636	0.13334202766418457
43	126.5659282207489	response	0	4		41.0	2.5	blank	1.0	299.0085220336914	
43	126.5741171836853	movie	1		301.0	41.0	2.5	blank	1.0	299.0167109966278	2.508342981338501
43	129.0824601650238	fix_post	2		12.0	41.0	2.5	blank	1.0	301.5250539779663	0.1000058650970459
44	129.18246603012085	fix_pre	0		163.0	42.0	2.5	/experiments/knapen_aot/oldvideos/R_S_ILSVRC2015_train_00545000.mp4	0.0	301.62505984306335	1.358273983001709
44	130.53247499465942	response	0	2		42.0	2.5	/experiments/knapen_aot/oldvideos/R_S_ILSVRC2015_train_00545000.mp4	0.0	302.97506880760193	
44	130.54074001312256	movie	1		301.0	42.0	2.5	/experiments/knapen_aot/oldvideos/R_S_ILSVRC2015_train_00545000.mp4	0.0	302.98333382606506	2.508376121520996
44	133.04911613464355	fix_post	2		12.0	42.0	2.5	/experiments/knapen_aot/oldvideos/R_S_ILSVRC2015_train_00545000.mp4	0.0	305.49170994758606	0.09999799728393555
45	133.1491141319275	fix_pre	0		20.0	43.0	2.5	/experiments/knapen_aot/oldvideos/S_yt-BQixB0mumIk_169.mp4	0.0	305.59170794487	0.1665818691253662
45	133.30753016471863	response	0	4		43.0	2.5	/experiments/knapen_aot/oldvideos/S_yt-BQixB0mumIk_169.mp4	0.0	305.75012397766113	
45	133.31569600105286	movie	1		301.0	43.0	2.5	/experiments/knapen_aot/oldvideos/S_yt-BQixB0mumIk_169.mp4	0.0	305.75828981399536	2.5084140300750732
45	135.82411003112793	fix_post	2		12.0	43.0	2.5	/experiments/knapen_aot/oldvideos/S_yt-BQixB0mumIk_169.mp4	0.0	308.26670384407043	0.09993100166320801
46	135.92404103279114	fix_pre	0		126.0	44.0	2.5	/experiments/knapen_aot/oldvideos/R_S_yt-c5IgOXX8YZ0_24.mp4	0.0	308.36663484573364	1.0506420135498047
46	136.96586298942566	response	0	2		44.0	2.5	/experiments/knapen_aot/oldvideos/R_S_yt-c5IgOXX8YZ0_24.mp4	0.0	309.40845680236816	
46	136.97468304634094	movie	1		301.0	44.0	2.5	/experiments/knapen_aot/oldvideos/R_S_yt-c5IgOXX8YZ0_24.mp4	0.0	309.41727685928345	2.507730007171631
46	139.48241305351257	fix_post	2		12.0	44.0	2.5	/experiments/knapen_aot/oldvideos/R_S_yt-c5IgOXX8YZ0_24.mp4	0.0	311.9250068664551	0.09994006156921387
47	139.5823531150818	fix_pre	0		23.0	45.0	2.5	/experiments/knapen_aot/oldvideos/S_yt-mDil5vGZb14_4049.mp4	0.0	312.0249469280243	0.19165897369384766
47	139.76580500602722	response	0	4		45.0	2.5	/experiments/knapen_aot/oldvideos/S_yt-mDil5vGZb14_4049.mp4	0.0	312.2083988189697	
47	139.77401208877563	movie	1		301.0	45.0	2.5	/experiments/knapen_aot/oldvideos/S_yt-mDil5vGZb14_4049.mp4	0.0	312.21660590171814	2.5086090564727783
47	142.2826211452484	fix_post	2		12.0	45.0	2.5	/experiments/knapen_aot/oldvideos/S_yt-mDil5vGZb14_4049.mp4	0.0	314.7252149581909	0.09973907470703125
48	142.38236021995544	fix_pre	0		183.0	46.0	2.5	/experiments/knapen_aot/oldvideos/S_yt-isJga8ec5UM_32.mp4	0.0	314.82495403289795	1.5249857902526855
48	143.89927911758423	response	0	2		46.0	2.5	/experiments/knapen_aot/oldvideos/S_yt-isJga8ec5UM_32.mp4	0.0	316.34187293052673	
48	143.90734601020813	movie	1		301.0	46.0	2.5	/experiments/knapen_aot/oldvideos/S_yt-isJga8ec5UM_32.mp4	0.0	316.34993982315063	2.508338212966919
48	146.41568422317505	fix_post	2		12.0	46.0	2.5	/experiments/knapen_aot/oldvideos/S_yt-isJga8ec5UM_32.mp4	0.0	318.85827803611755	0.10043478012084961
49	146.5161190032959	fix_pre	0		21.0	47.0	2.5	/experiments/knapen_aot/oldvideos/S_production_ID_4584682.mp4	0.0	318.9587128162384	0.1745741367340088
49	146.68245720863342	response	0	4		47.0	2.5	/experiments/knapen_aot/oldvideos/S_production_ID_4584682.mp4	0.0	319.1250510215759	
49	146.6906931400299	movie	1		166.0	47.0	2.5	/experiments/knapen_aot/oldvideos/S_production_ID_4584682.mp4	0.0	319.1332869529724	2.5082669258117676
49	149.19896006584167	fix_post	2		12.0	47.0	2.5	/experiments/knapen_aot/oldvideos/S_production_ID_4584682.mp4	0.0	321.6415538787842	0.10005307197570801
50	149.29901313781738	fix_pre	0		122.0	48.0	2.5	/experiments/knapen_aot/oldvideos/S_wc-jujp1kJRHrkJ_54.mp4	0.0	321.7416069507599	1.0165979862213135
50	150.30748510360718	response	0	2		48.0	2.5	/experiments/knapen_aot/oldvideos/S_wc-jujp1kJRHrkJ_54.mp4	0.0	322.7500789165497	
50	150.3156111240387	movie	1		301.0	48.0	2.5	/experiments/knapen_aot/oldvideos/S_wc-jujp1kJRHrkJ_54.mp4	0.0	322.7582049369812	2.5083909034729004
50	152.8240020275116	fix_post	2		12.0	48.0	2.5	/experiments/knapen_aot/oldvideos/S_wc-jujp1kJRHrkJ_54.mp4	0.0	325.2665958404541	0.10000109672546387
51	152.92400312423706	fix_pre	0		29.0	49.0	2.5	blank	1.0	325.36659693717957	0.24174189567565918
51	153.1574170589447	response	0	4		49.0	2.5	blank	1.0	325.6000108718872	
51	153.16574501991272	movie	1		301.0	49.0	2.5	blank	1.0	325.6083388328552	2.5083630084991455
51	155.67410802841187	fix_post	2		12.0	49.0	2.5	blank	1.0	328.11670184135437	0.09990715980529785
52	155.77401518821716	fix_pre	0		141.0	50.0	2.5	/experiments/knapen_aot/oldvideos/R_S_yt-osz-TXlRdXs_2.mp4	0.0	328.21660900115967	1.1749329566955566
52	156.94081616401672	response	0	2		50.0	2.5	/experiments/knapen_aot/oldvideos/R_S_yt-osz-TXlRdXs_2.mp4	0.0	329.38340997695923	
52	156.94894814491272	movie	1		301.0	50.0	2.5	/experiments/knapen_aot/oldvideos/R_S_yt-osz-TXlRdXs_2.mp4	0.0	329.3915419578552	2.5083630084991455
52	159.45731115341187	fix_post	2		12.0	50.0	2.5	/experiments/knapen_aot/oldvideos/R_S_yt-osz-TXlRdXs_2.mp4	0.0	331.89990496635437	0.09998488426208496
53	159.55729603767395	fix_pre	0		7.0	51.0	2.5	/experiments/knapen_aot/oldvideos/S_yt--cAfxH1WnPo_3.mp4	0.0	331.99988985061646	0.0582890510559082
53	159.60745120048523	response	0	4		51.0	2.5	/experiments/knapen_aot/oldvideos/S_yt--cAfxH1WnPo_3.mp4	0.0	332.05004501342773	
53	159.61558508872986	movie	1		301.0	51.0	2.5	/experiments/knapen_aot/oldvideos/S_yt--cAfxH1WnPo_3.mp4	0.0	332.05817890167236	2.5084500312805176
53	162.12403512001038	fix_post	2		12.0	51.0	2.5	/experiments/knapen_aot/oldvideos/S_yt--cAfxH1WnPo_3.mp4	0.0	334.5666289329529	0.09991002082824707
54	162.22394514083862	fix_pre	0		11.0	52.0	2.5	/experiments/knapen_aot/oldvideos/S_yt-nlfwzxlwRfk_12.mp4	0.0	334.6665389537811	0.09177994728088379
54	162.30732917785645	response	0	2		52.0	2.5	/experiments/knapen_aot/oldvideos/S_yt-nlfwzxlwRfk_12.mp4	0.0	334.74992299079895	
54	162.3157250881195	movie	1		301.0	52.0	2.5	/experiments/knapen_aot/oldvideos/S_yt-nlfwzxlwRfk_12.mp4	0.0	334.758318901062	2.50819993019104
54	164.82392501831055	fix_post	2		12.0	52.0	2.5	/experiments/knapen_aot/oldvideos/S_yt-nlfwzxlwRfk_12.mp4	0.0	337.26651883125305	0.09999608993530273
55	164.92392110824585	fix_pre	0		12.0	53.0	2.5	/experiments/knapen_aot/oldvideos/S_production_ID_3927047.mp4	0.0	337.36651492118835	0.10000205039978027
55	165.0157401561737	response	0	4		53.0	2.5	/experiments/knapen_aot/oldvideos/S_production_ID_3927047.mp4	0.0	337.4583339691162	
55	165.02392315864563	movie	1		186.0	53.0	2.5	/experiments/knapen_aot/oldvideos/S_production_ID_3927047.mp4	0.0	337.46651697158813	2.5088119506835938
55	167.53273510932922	fix_post	2		12.0	53.0	2.5	/experiments/knapen_aot/oldvideos/S_production_ID_3927047.mp4	0.0	339.97532892227173	0.09964799880981445
56	167.63238310813904	fix_pre	0		391.0	54.0	2.5	blank	1.0	340.07497692108154	3.2586750984191895
56	170.88235807418823	response	0	2		54.0	2.5	blank	1.0	343.32495188713074	
56	170.89105820655823	movie	1		301.0	54.0	2.5	blank	1.0	343.33365201950073	2.5077919960021973
56	173.39885020256042	fix_post	2		12.0	54.0	2.5	blank	1.0	345.84144401550293	0.10014486312866211
57	173.4989950656891	fix_pre	0		55.0	55.0	2.5	/experiments/knapen_aot/oldvideos/S_ILSVRC2015_train_00465000.mp4	0.0	345.9415888786316	0.45821714401245117
57	173.94896912574768	response	0	4		55.0	2.5	/experiments/knapen_aot/oldvideos/S_ILSVRC2015_train_00465000.mp4	0.0	346.3915629386902	
57	173.95721220970154	movie	1		301.0	55.0	2.5	/experiments/knapen_aot/oldvideos/S_ILSVRC2015_train_00465000.mp4	0.0	346.39980602264404	2.5083389282226562
57	176.4655511379242	fix_post	2		12.0	55.0	2.5	/experiments/knapen_aot/oldvideos/S_ILSVRC2015_train_00465000.mp4	0.0	348.9081449508667	0.0999910831451416
58	176.56554222106934	fix_pre	0		23.0	56.0	2.5	/experiments/knapen_aot/oldvideos/S_b2-2.mp4	0.0	349.00813603401184	0.19170784950256348
58	176.74894499778748	response	0	2		56.0	2.5	/experiments/knapen_aot/oldvideos/S_b2-2.mp4	0.0	349.19153881073	
58	176.7572500705719	movie	1		167.0	56.0	2.5	/experiments/knapen_aot/oldvideos/S_b2-2.mp4	0.0	349.1998438835144	2.5082590579986572
58	179.26550912857056	fix_post	2		12.0	56.0	2.5	/experiments/knapen_aot/oldvideos/S_b2-2.mp4	0.0	351.70810294151306	0.10003089904785156
58	179.35728001594543	response	2	4		56.0	2.5	/experiments/knapen_aot/oldvideos/S_b2-2.mp4	0.0	351.79987382888794	
59	179.3655400276184	fix_pre	0		192.0	57.0	2.5	/experiments/knapen_aot/oldvideos/R_S_ILSVRC2015_train_00761000.mp4	0.0	351.8081338405609	1.5999271869659424
59	180.95734119415283	response	0	4		57.0	2.5	/experiments/knapen_aot/oldvideos/R_S_ILSVRC2015_train_00761000.mp4	0.0	353.39993500709534	
59	180.96546721458435	movie	1		301.0	57.0	2.5	/experiments/knapen_aot/oldvideos/R_S_ILSVRC2015_train_00761000.mp4	0.0	353.40806102752686	2.5089428424835205
59	183.47441005706787	fix_post	2		12.0	57.0	2.5	/experiments/knapen_aot/oldvideos/R_S_ILSVRC2015_train_00761000.mp4	0.0	355.9170038700104	0.09969210624694824
60	183.57410216331482	fix_pre	0		42.0	58.0	2.5	/experiments/knapen_aot/oldvideos/R_S_yt-Snha8C5YOiY_26.mp4	0.0	356.0166959762573	0.34976887702941895
60	183.9156219959259	response	0	2		58.0	2.5	/experiments/knapen_aot/oldvideos/R_S_yt-Snha8C5YOiY_26.mp4	0.0	356.3582158088684	
60	183.92387104034424	movie	1		301.0	58.0	2.5	/experiments/knapen_aot/oldvideos/R_S_yt-Snha8C5YOiY_26.mp4	0.0	356.36646485328674	2.508411169052124
60	186.43228220939636	fix_post	2		12.0	58.0	2.5	/experiments/knapen_aot/oldvideos/R_S_yt-Snha8C5YOiY_26.mp4	0.0	358.87487602233887	0.0998988151550293
61	186.5321810245514	fix_pre	0		23.0	59.0	2.5	/experiments/knapen_aot/oldvideos/R_S_yt-v66td-1WO7w_44.mp4	0.0	358.9747748374939	0.19212818145751953
61	186.70808815956116	response	0	4		59.0	2.5	/experiments/knapen_aot/oldvideos/R_S_yt-v66td-1WO7w_44.mp4	0.0	359.15068197250366	
61	186.7243092060089	movie	1		301.0	59.0	2.5	/experiments/knapen_aot/oldvideos/R_S_yt-v66td-1WO7w_44.mp4	0.0	359.1669030189514	2.5078659057617188
61	189.23217511177063	fix_post	2		12.0	59.0	2.5	/experiments/knapen_aot/oldvideos/R_S_yt-v66td-1WO7w_44.mp4	0.0	361.67476892471313	0.10024595260620117
62	189.33242106437683	fix_pre	0		3.0	60.0	2.5	/experiments/knapen_aot/oldvideos/R_S_yt-2i53vKte7SA_117.mp4	0.0	361.77501487731934	0.024749040603637695
62	189.34898710250854	response	0	2		60.0	2.5	/experiments/knapen_aot/oldvideos/R_S_yt-2i53vKte7SA_117.mp4	0.0	361.79158091545105	
62	189.35717010498047	movie	1		301.0	60.0	2.5	/experiments/knapen_aot/oldvideos/R_S_yt-2i53vKte7SA_117.mp4	0.0	361.799763917923	2.508357048034668
62	191.86552715301514	fix_post	2		12.0	60.0	2.5	/experiments/knapen_aot/oldvideos/R_S_yt-2i53vKte7SA_117.mp4	0.0	364.30812096595764	0.10003399848937988
63	191.96556115150452	fix_pre	0		14.0	61.0	2.5	/experiments/knapen_aot/oldvideos/S_yt-hRAqAwRhmwE_58.mp4	0.0	364.408154964447	0.1165468692779541
63	192.07391214370728	response	0	4		61.0	2.5	/experiments/knapen_aot/oldvideos/S_yt-hRAqAwRhmwE_58.mp4	0.0	364.5165059566498	
63	192.08210802078247	movie	1		301.0	61.0	2.5	/experiments/knapen_aot/oldvideos/S_yt-hRAqAwRhmwE_58.mp4	0.0	364.524701833725	2.508406162261963
63	194.59051418304443	fix_post	2		12.0	61.0	2.5	/experiments/knapen_aot/oldvideos/S_yt-hRAqAwRhmwE_58.mp4	0.0	367.03310799598694	0.09997296333312988
64	194.69048714637756	fix_pre	0		12.0	62.0	2.5	/experiments/knapen_aot/oldvideos/R_S_yt-y3tyx6cZjmA_412.mp4	0.0	367.13308095932007	0.09999704360961914
64	194.78225708007812	response	0	2		62.0	2.5	/experiments/knapen_aot/oldvideos/R_S_yt-y3tyx6cZjmA_412.mp4	0.0	367.22485089302063	
64	194.79048418998718	movie	1		301.0	62.0	2.5	/experiments/knapen_aot/oldvideos/R_S_yt-y3tyx6cZjmA_412.mp4	0.0	367.2330780029297	2.50833797454834
64	197.16567206382751	response	1	2		62.0	2.5	/experiments/knapen_aot/oldvideos/R_S_yt-y3tyx6cZjmA_412.mp4	0.0	369.60826587677	
64	197.29882216453552	fix_post	2		12.0	62.0	2.5	/experiments/knapen_aot/oldvideos/R_S_yt-y3tyx6cZjmA_412.mp4	0.0	369.741415977478	0.09995698928833008
65	197.39877915382385	fix_pre	0		42.0	63.0	2.5	blank	1.0	369.84137296676636	0.34993886947631836
65	197.74062609672546	response	0	2		63.0	2.5	blank	1.0	370.18321990966797	
65	197.74871802330017	movie	1		301.0	63.0	2.5	blank	1.0	370.1913118362427	2.5086240768432617
65	200.25734210014343	fix_post	2		12.0	63.0	2.5	blank	1.0	372.69993591308594	0.0998830795288086
66	200.35722517967224	fix_pre	0		28.0	64.0	2.5	/experiments/knapen_aot/oldvideos/S_yt-Snha8C5YOiY_26.mp4	0.0	372.79981899261475	0.23319292068481445
66	200.5821771621704	response	0	2		64.0	2.5	/experiments/knapen_aot/oldvideos/S_yt-Snha8C5YOiY_26.mp4	0.0	373.0247709751129	
66	200.59041810035706	movie	1		301.0	64.0	2.5	/experiments/knapen_aot/oldvideos/S_yt-Snha8C5YOiY_26.mp4	0.0	373.03301191329956	2.5083699226379395
66	203.098788022995	fix_post	2		12.0	64.0	2.5	/experiments/knapen_aot/oldvideos/S_yt-Snha8C5YOiY_26.mp4	0.0	375.5413818359375	0.0999901294708252
67	203.19877815246582	fix_pre	0		22.0	65.0	2.5	/experiments/knapen_aot/oldvideos/S_yt-yJmHtBFyhH4_15.mp4	0.0	375.6413719654083	0.18332290649414062
67	203.373939037323	response	0	2		65.0	2.5	/experiments/knapen_aot/oldvideos/S_yt-yJmHtBFyhH4_15.mp4	0.0	375.8165328502655	
67	203.38210105895996	movie	1		301.0	65.0	2.5	/experiments/knapen_aot/oldvideos/S_yt-yJmHtBFyhH4_15.mp4	0.0	375.82469487190247	2.5083301067352295
67	205.8904311656952	fix_post	2		12.0	65.0	2.5	/experiments/knapen_aot/oldvideos/S_yt-yJmHtBFyhH4_15.mp4	0.0	378.3330249786377	0.10004401206970215
68	205.9904751777649	fix_pre	0		39.0	66.0	2.5	/experiments/knapen_aot/oldvideos/R_S_yt-kYMffy4hTMo_107.mp4	0.0	378.4330689907074	0.32490992546081543
68	206.3071939945221	response	0	2		66.0	2.5	/experiments/knapen_aot/oldvideos/R_S_yt-kYMffy4hTMo_107.mp4	0.0	378.7497878074646	
68	206.3153851032257	movie	1		301.0	66.0	2.5	/experiments/knapen_aot/oldvideos/R_S_yt-kYMffy4hTMo_107.mp4	0.0	378.7579789161682	2.5083699226379395
68	208.82375502586365	fix_post	2		12.0	66.0	2.5	/experiments/knapen_aot/oldvideos/R_S_yt-kYMffy4hTMo_107.mp4	0.0	381.26634883880615	0.10000014305114746
69	208.9237551689148	fix_pre	0		23.0	67.0	2.5	/experiments/knapen_aot/oldvideos/S_yt-s5YONFy3vb4_46.mp4	0.0	381.3663489818573	0.19163084030151367
69	209.1071741580963	response	0	2		67.0	2.5	/experiments/knapen_aot/oldvideos/S_yt-s5YONFy3vb4_46.mp4	0.0	381.5497679710388	
69	209.1153860092163	movie	1		299.0	67.0	2.5	/experiments/knapen_aot/oldvideos/S_yt-s5YONFy3vb4_46.mp4	0.0	381.5579798221588	2.508430004119873
69	211.62381601333618	fix_post	2		12.0	67.0	2.5	/experiments/knapen_aot/oldvideos/S_yt-s5YONFy3vb4_46.mp4	0.0	384.0664098262787	0.10023999214172363
70	211.7240560054779	fix_pre	0		38.0	68.0	2.5	blank	1.0	384.1666498184204	0.3162961006164551
70	212.03224802017212	response	0	2		68.0	2.5	blank	1.0	384.4748418331146	
70	212.04035210609436	movie	1		301.0	68.0	2.5	blank	1.0	384.48294591903687	2.50832200050354
70	214.5486741065979	fix_post	2		12.0	68.0	2.5	blank	1.0	386.9912679195404	0.10003805160522461
71	214.64871215820312	fix_pre	0		120.0	69.0	2.5	/experiments/knapen_aot/oldvideos/R_S_zAKvYNtmhuc_772.mp4	0.0	387.09130597114563	0.999910831451416
71	215.64052820205688	response	0	2		69.0	2.5	/experiments/knapen_aot/oldvideos/R_S_zAKvYNtmhuc_772.mp4	0.0	388.0831220149994	
71	215.64862298965454	movie	1		301.0	69.0	2.5	/experiments/knapen_aot/oldvideos/R_S_zAKvYNtmhuc_772.mp4	0.0	388.09121680259705	2.5083701610565186
71	218.15699315071106	fix_post	2		12.0	69.0	2.5	/experiments/knapen_aot/oldvideos/R_S_zAKvYNtmhuc_772.mp4	0.0	390.59958696365356	0.10004186630249023
72	218.25703501701355	fix_pre	0		27.0	70.0	2.5	/experiments/knapen_aot/oldvideos/R_S_yt-fymgyhmYnMI_76.mp4	0.0	390.69962882995605	0.22502613067626953
72	218.47387409210205	response	0	2		70.0	2.5	/experiments/knapen_aot/oldvideos/R_S_yt-fymgyhmYnMI_76.mp4	0.0	390.91646790504456	
72	218.48206114768982	movie	1		301.0	70.0	2.5	/experiments/knapen_aot/oldvideos/R_S_yt-fymgyhmYnMI_76.mp4	0.0	390.9246549606323	2.5083210468292236
72	220.99038219451904	fix_post	2		12.0	70.0	2.5	/experiments/knapen_aot/oldvideos/R_S_yt-fymgyhmYnMI_76.mp4	0.0	393.43297600746155	0.09996294975280762
73	221.09034514427185	fix_pre	0		36.0	71.0	2.5	/experiments/knapen_aot/oldvideos/S_yt-pO5SVq-9EhU_114.mp4	0.0	393.53293895721436	0.30028486251831055
73	221.38210606575012	response	0	2		71.0	2.5	/experiments/knapen_aot/oldvideos/S_yt-pO5SVq-9EhU_114.mp4	0.0	393.8246998786926	
73	221.39063000679016	movie	1		301.0	71.0	2.5	/experiments/knapen_aot/oldvideos/S_yt-pO5SVq-9EhU_114.mp4	0.0	393.83322381973267	2.5081541538238525
73	223.898784160614	fix_post	2		12.0	71.0	2.5	/experiments/knapen_aot/oldvideos/S_yt-pO5SVq-9EhU_114.mp4	0.0	396.3413779735565	0.09989404678344727
74	223.99867820739746	fix_pre	0		21.0	72.0	2.5	/experiments/knapen_aot/oldvideos/R_S_comp_A001_C001_120530_v04_SDR_FINAL_20180706_SDR_2K_AVC.mp4	0.0	396.44127202033997	0.17502188682556152
74	224.1654200553894	response	0	2		72.0	2.5	/experiments/knapen_aot/oldvideos/R_S_comp_A001_C001_120530_v04_SDR_FINAL_20180706_SDR_2K_AVC.mp4	0.0	396.6080138683319	
74	224.17370009422302	movie	1		167.0	72.0	2.5	/experiments/knapen_aot/oldvideos/R_S_comp_A001_C001_120530_v04_SDR_FINAL_20180706_SDR_2K_AVC.mp4	0.0	396.6162939071655	2.5085299015045166
74	226.68222999572754	fix_post	2		11.0	72.0	2.5	/experiments/knapen_aot/oldvideos/R_S_comp_A001_C001_120530_v04_SDR_FINAL_20180706_SDR_2K_AVC.mp4	0.0	399.12482380867004	0.09147119522094727
74	226.76549816131592	response	2	2		72.0	2.5	/experiments/knapen_aot/oldvideos/R_S_comp_A001_C001_120530_v04_SDR_FINAL_20180706_SDR_2K_AVC.mp4	0.0	399.2080919742584	
75	226.7737011909485	fix_pre	0		91.0	73.0	2.5	/experiments/knapen_aot/oldvideos/S_yt-yJmHtBFyhH4_15.mp4	0.0	399.216295003891	0.75826096534729
75	227.52376198768616	response	0	2		73.0	2.5	/experiments/knapen_aot/oldvideos/S_yt-yJmHtBFyhH4_15.mp4	0.0	399.96635580062866	
75	227.53196215629578	movie	1		301.0	73.0	2.5	/experiments/knapen_aot/oldvideos/S_yt-yJmHtBFyhH4_15.mp4	0.0	399.9745559692383	2.5083980560302734
75	230.04036021232605	fix_post	2		12.0	73.0	2.5	/experiments/knapen_aot/oldvideos/S_yt-yJmHtBFyhH4_15.mp4	0.0	402.48295402526855	0.10022091865539551
76	230.14058113098145	fix_pre	0		61.0	74.0	2.5	/experiments/knapen_aot/oldvideos/R_S_yt-s2PWkCdT-TM_258.mp4	0.0	402.58317494392395	0.5080409049987793
76	230.63288617134094	response	0	2		74.0	2.5	/experiments/knapen_aot/oldvideos/R_S_yt-s2PWkCdT-TM_258.mp4	0.0	403.07547998428345	
76	230.64862203598022	movie	1		301.0	74.0	2.5	/experiments/knapen_aot/oldvideos/R_S_yt-s2PWkCdT-TM_258.mp4	0.0	403.09121584892273	2.5083370208740234
76	233.15695905685425	fix_post	2		12.0	74.0	2.5	/experiments/knapen_aot/oldvideos/R_S_yt-s2PWkCdT-TM_258.mp4	0.0	405.59955286979675	0.10001802444458008
77	233.25697708129883	fix_pre	0		26.0	75.0	2.5	blank	1.0	405.69957089424133	0.21680998802185059
77	233.4654791355133	response	0	2		75.0	2.5	blank	1.0	405.9080729484558	
77	233.47378706932068	movie	1		301.0	75.0	2.5	blank	1.0	405.9163808822632	2.5081679821014404
77	235.98195505142212	fix_post	2		12.0	75.0	2.5	blank	1.0	408.4245488643646	0.09998703002929688
78	236.08194208145142	fix_pre	0		24.0	76.0	2.5	/experiments/knapen_aot/oldvideos/S_MEX_A006_C008_SDR_20190923_SDR_2K_AVC.mp4	0.0	408.5245358943939	0.19992494583129883
78	236.27373218536377	response	0	2		76.0	2.5	/experiments/knapen_aot/oldvideos/S_MEX_A006_C008_SDR_20190923_SDR_2K_AVC.mp4	0.0	408.7163259983063	
78	236.28186702728271	movie	1		169.0	76.0	2.5	/experiments/knapen_aot/oldvideos/S_MEX_A006_C008_SDR_20190923_SDR_2K_AVC.mp4	0.0	408.7244608402252	2.5084140300750732
78	238.7902810573578	fix_post	2		12.0	76.0	2.5	/experiments/knapen_aot/oldvideos/S_MEX_A006_C008_SDR_20190923_SDR_2K_AVC.mp4	0.0	411.2328748703003	0.10017108917236328
79	238.89045214653015	fix_pre	0		30.0	77.0	2.5	/experiments/knapen_aot/oldvideos/R_S_yt-8vm83GUgYxI_1.mp4	0.0	411.33304595947266	0.24988985061645508
79	239.1245059967041	response	0	2		77.0	2.5	/experiments/knapen_aot/oldvideos/R_S_yt-8vm83GUgYxI_1.mp4	0.0	411.5670998096466	
79	239.1403419971466	movie	1		301.0	77.0	2.5	/experiments/knapen_aot/oldvideos/R_S_yt-8vm83GUgYxI_1.mp4	0.0	411.5829358100891	2.50829815864563
79	240.91831707954407	response	1	2		77.0	2.5	/experiments/knapen_aot/oldvideos/R_S_yt-8vm83GUgYxI_1.mp4	0.0	413.3609108924866	
79	241.64864015579224	fix_post	2		12.0	77.0	2.5	/experiments/knapen_aot/oldvideos/R_S_yt-8vm83GUgYxI_1.mp4	0.0	414.09123396873474	0.09999203681945801
80	241.7486321926117	fix_pre	0		12.0	78.0	2.5	/experiments/knapen_aot/oldvideos/R_S_video_inspire_oregon_lone-ranch-beach_00001.1080-h264.mp4	0.0	414.1912260055542	0.10006189346313477
80	241.8403890132904	response	0	2		78.0	2.5	/experiments/knapen_aot/oldvideos/R_S_video_inspire_oregon_lone-ranch-beach_00001.1080-h264.mp4	0.0	414.2829828262329	
80	241.84869408607483	movie	1		169.0	78.0	2.5	/experiments/knapen_aot/oldvideos/R_S_video_inspire_oregon_lone-ranch-beach_00001.1080-h264.mp4	0.0	414.29128789901733	2.508254051208496
80	244.35694813728333	fix_post	2		12.0	78.0	2.5	/experiments/knapen_aot/oldvideos/R_S_video_inspire_oregon_lone-ranch-beach_00001.1080-h264.mp4	0.0	416.79954195022583	0.09993386268615723
81	244.45688199996948	fix_pre	0		38.0	79.0	2.5	/experiments/knapen_aot/oldvideos/S_video-6.mp4	0.0	416.899475812912	0.31668806076049805
81	244.76532411575317	response	0	2		79.0	2.5	/experiments/knapen_aot/oldvideos/S_video-6.mp4	0.0	417.2079179286957	
81	244.77357006072998	movie	1		166.0	79.0	2.5	/experiments/knapen_aot/oldvideos/S_video-6.mp4	0.0	417.2161638736725	2.5085480213165283
81	247.2821180820465	fix_post	2		12.0	79.0	2.5	/experiments/knapen_aot/oldvideos/S_video-6.mp4	0.0	419.724711894989	0.09981513023376465
82	247.38193321228027	fix_pre	0		4.0	80.0	2.5	/experiments/knapen_aot/oldvideos/R_S_yt-bD1U6bo-6bE_465.mp4	0.0	419.8245270252228	0.03330397605895996
82	247.4070761203766	response	0	2		80.0	2.5	/experiments/knapen_aot/oldvideos/R_S_yt-bD1U6bo-6bE_465.mp4	0.0	419.8496699333191	
82	247.41523718833923	movie	1		301.0	80.0	2.5	/experiments/knapen_aot/oldvideos/R_S_yt-bD1U6bo-6bE_465.mp4	0.0	419.85783100128174	2.508373975753784
82	249.92361116409302	fix_post	2		12.0	80.0	2.5	/experiments/knapen_aot/oldvideos/R_S_yt-bD1U6bo-6bE_465.mp4	0.0	422.3662049770355	0.10002493858337402
83	250.0236361026764	fix_pre	0		33.0	81.0	2.5	/experiments/knapen_aot/oldvideos/R_S_yt-ZBk_XFb5PGo_25.mp4	0.0	422.4662299156189	0.2750129699707031
83	250.2903962135315	response	0	4		81.0	2.5	/experiments/knapen_aot/oldvideos/R_S_yt-ZBk_XFb5PGo_25.mp4	0.0	422.732990026474	
83	250.2986490726471	movie	1		301.0	81.0	2.5	/experiments/knapen_aot/oldvideos/R_S_yt-ZBk_XFb5PGo_25.mp4	0.0	422.7412428855896	2.5083770751953125
83	252.8070261478424	fix_post	2		12.0	81.0	2.5	/experiments/knapen_aot/oldvideos/R_S_yt-ZBk_XFb5PGo_25.mp4	0.0	425.2496199607849	0.09988689422607422
84	252.90691304206848	fix_pre	0		24.0	82.0	2.5	/experiments/knapen_aot/oldvideos/R_S_wc-jujp1kJRHrkJ_54.mp4	0.0	425.349506855011	0.19996404647827148
84	253.09870600700378	response	0	4		82.0	2.5	/experiments/knapen_aot/oldvideos/R_S_wc-jujp1kJRHrkJ_54.mp4	0.0	425.5412998199463	
84	253.10687708854675	movie	1		301.0	82.0	2.5	/experiments/knapen_aot/oldvideos/R_S_wc-jujp1kJRHrkJ_54.mp4	0.0	425.54947090148926	2.5082850456237793
84	255.61516213417053	fix_post	2		12.0	82.0	2.5	/experiments/knapen_aot/oldvideos/R_S_wc-jujp1kJRHrkJ_54.mp4	0.0	428.05775594711304	0.10009288787841797
85	255.71525502204895	fix_pre	0		19.0	83.0	2.5	blank	1.0	428.15784883499146	0.15825200080871582
85	255.86533904075623	response	0	4		83.0	2.5	blank	1.0	428.30793285369873	
85	255.87350702285767	movie	1		301.0	83.0	2.5	blank	1.0	428.31610083580017	2.508512020111084
85	258.38201904296875	fix_post	2		12.0	83.0	2.5	blank	1.0	430.82461285591125	0.09987998008728027
87	258.48189902305603	stim	0		313.0					430.92449283599854	2.60976505279541
87	258.6069610118866	response	0	4						431.0495548248291	
87	261.08615016937256	response	0	space						433.52874398231506	
