trial_nr	onset	event_type	phase	response	nr_frames	movie_index	movie_duration	movie_file	blank	onset_abs	duration
0	0.13338518142700195	stim	0		35.0					234.6071960926056	0.2914879322052002
0	0.41683006286621094	response	0	space						234.8906409740448	
1	0.42487311363220215	stim	0		121.0					234.8986840248108	1.0083379745483398
1	0.9171221256256104	response	0	space						235.3909330368042	
1	1.2246510982513428	response	0	space						235.69846200942993	
1	1.433211088180542	stim	1		120.0					235.90702199935913	0.9998691082000732
1	1.5080101490020752	response	1	space						235.98182106018066	
1	1.8004660606384277	response	1	space						236.27427697181702	
1	2.1079890727996826	response	1	space						236.58179998397827	
2	2.4330801963806152	fix_pre	0		1.0	0.0	2.5	/experiments/knapen_aot/videos/R_S_yt-GytLOB9Qjro_76.mp4	0.0	236.9068911075592	0.010899782180786133
2	2.4357640743255615	response	0	space		0.0	2.5	/experiments/knapen_aot/videos/R_S_yt-GytLOB9Qjro_76.mp4	0.0	236.90957498550415	
2	2.4439799785614014	movie	1		300.0	0.0	2.5	/experiments/knapen_aot/videos/R_S_yt-GytLOB9Qjro_76.mp4	0.0	236.91779088974	2.50571608543396
2	4.949696063995361	fix_post	2		12.0	0.0	2.5	/experiments/knapen_aot/videos/R_S_yt-GytLOB9Qjro_76.mp4	0.0	239.42350697517395	0.10001993179321289
3	5.049715995788574	fix_pre	0		3.0	1.0	2.5	/experiments/knapen_aot/videos/R_S_yt-3E02UEHdoZ4_752.mp4	0.0	239.52352690696716	0.02608013153076172
3	5.066565990447998	response	0	2		1.0	2.5	/experiments/knapen_aot/videos/R_S_yt-3E02UEHdoZ4_752.mp4	0.0	239.5403769016266	
3	5.075796127319336	movie	1		301.0	1.0	2.5	/experiments/knapen_aot/videos/R_S_yt-3E02UEHdoZ4_752.mp4	0.0	239.54960703849792	2.507112979888916
3	7.582909107208252	fix_post	2		12.0	1.0	2.5	/experiments/knapen_aot/videos/R_S_yt-3E02UEHdoZ4_752.mp4	0.0	242.05672001838684	0.10000801086425781
4	7.68291711807251	fix_pre	0		3.0	2.0	2.5	/experiments/knapen_aot/videos/S_yt-XbigWWtnGL4_75.mp4	0.0	242.1567280292511	0.02501201629638672
4	7.699772119522095	response	0	2		2.0	2.5	/experiments/knapen_aot/videos/S_yt-XbigWWtnGL4_75.mp4	0.0	242.17358303070068	
4	7.7079291343688965	movie	1		301.0	2.0	2.5	/experiments/knapen_aot/videos/S_yt-XbigWWtnGL4_75.mp4	0.0	242.18174004554749	2.508453845977783
4	10.21638298034668	fix_post	2		12.0	2.0	2.5	/experiments/knapen_aot/videos/S_yt-XbigWWtnGL4_75.mp4	0.0	244.69019389152527	0.09989714622497559
5	10.316280126571655	fix_pre	0		5.0	3.0	2.5	/experiments/knapen_aot/videos/S_ILSVRC2015_train_00469000.mp4	0.0	244.79009103775024	0.0415799617767334
5	10.349717140197754	response	0	2		3.0	2.5	/experiments/knapen_aot/videos/S_ILSVRC2015_train_00469000.mp4	0.0	244.82352805137634	
5	10.357860088348389	movie	1		301.0	3.0	2.5	/experiments/knapen_aot/videos/S_ILSVRC2015_train_00469000.mp4	0.0	244.83167099952698	2.5083329677581787
5	12.866193056106567	fix_post	2		12.0	3.0	2.5	/experiments/knapen_aot/videos/S_ILSVRC2015_train_00469000.mp4	0.0	247.34000396728516	0.10005903244018555
5	12.883008003234863	response	2	2		3.0	2.5	/experiments/knapen_aot/videos/S_ILSVRC2015_train_00469000.mp4	0.0	247.35681891441345	
6	12.966252088546753	fix_pre	0		21.0	4.0	2.5	/experiments/knapen_aot/videos/S_wc-NVeGRb_y_y_5_36.mp4	0.0	247.44006299972534	0.17491793632507324
6	13.133007049560547	response	0	2		4.0	2.5	/experiments/knapen_aot/videos/S_wc-NVeGRb_y_y_5_36.mp4	0.0	247.60681796073914	
6	13.141170024871826	movie	1		172.0	4.0	2.5	/experiments/knapen_aot/videos/S_wc-NVeGRb_y_y_5_36.mp4	0.0	247.61498093605042	2.5083999633789062
6	15.649569988250732	fix_post	2		12.0	4.0	2.5	/experiments/knapen_aot/videos/S_wc-NVeGRb_y_y_5_36.mp4	0.0	250.12338089942932	0.09997415542602539
7	15.749544143676758	fix_pre	0		11.0	5.0	2.5	/experiments/knapen_aot/videos/S_yt-CNq5mTA8oXY_176.mp4	0.0	250.22335505485535	0.09161686897277832
7	15.833018064498901	response	0	2		5.0	2.5	/experiments/knapen_aot/videos/S_yt-CNq5mTA8oXY_176.mp4	0.0	250.3068289756775	
7	15.841161012649536	movie	1		301.0	5.0	2.5	/experiments/knapen_aot/videos/S_yt-CNq5mTA8oXY_176.mp4	0.0	250.31497192382812	2.5083861351013184
7	18.349547147750854	fix_post	2		12.0	5.0	2.5	/experiments/knapen_aot/videos/S_yt-CNq5mTA8oXY_176.mp4	0.0	252.82335805892944	0.10000991821289062
8	18.449557065963745	fix_pre	0		9.0	6.0	2.5	blank	1.0	252.92336797714233	0.07500600814819336
8	18.516295194625854	response	0	2		6.0	2.5	blank	1.0	252.99010610580444	
8	18.52456307411194	movie	1		301.0	6.0	2.5	blank	1.0	252.99837398529053	2.508302927017212
8	21.03286600112915	fix_post	2		12.0	6.0	2.5	blank	1.0	255.50667691230774	0.10007500648498535
9	21.132941007614136	fix_pre	0		20.0	7.0	2.5	/experiments/knapen_aot/videos/S_bing-www_nbcnews_com_storyline_isis-terror_fall-isis-stronghold-raqqa-will-change-war-extremists-not-end-n808621_86.mp4	0.0	255.60675191879272	0.16651010513305664
9	21.291300058364868	response	0	2		7.0	2.5	/experiments/knapen_aot/videos/S_bing-www_nbcnews_com_storyline_isis-terror_fall-isis-stronghold-raqqa-will-change-war-extremists-not-end-n808621_86.mp4	0.0	255.76511096954346	
9	21.299451112747192	movie	1		163.0	7.0	2.5	/experiments/knapen_aot/videos/S_bing-www_nbcnews_com_storyline_isis-terror_fall-isis-stronghold-raqqa-will-change-war-extremists-not-end-n808621_86.mp4	0.0	255.77326202392578	2.5084409713745117
9	23.807892084121704	fix_post	2		12.0	7.0	2.5	/experiments/knapen_aot/videos/S_bing-www_nbcnews_com_storyline_isis-terror_fall-isis-stronghold-raqqa-will-change-war-extremists-not-end-n808621_86.mp4	0.0	258.2817029953003	0.09993791580200195
9	23.849600076675415	response	2	2		7.0	2.5	/experiments/knapen_aot/videos/S_bing-www_nbcnews_com_storyline_isis-terror_fall-isis-stronghold-raqqa-will-change-war-extremists-not-end-n808621_86.mp4	0.0	258.323410987854	
10	23.907829999923706	fix_pre	0		34.0	8.0	2.5	/experiments/knapen_aot/videos/S_yt-DWsFRl5bXs8_23.mp4	0.0	258.3816409111023	0.2835090160369873
10	24.18297505378723	response	0	2		8.0	2.5	/experiments/knapen_aot/videos/S_yt-DWsFRl5bXs8_23.mp4	0.0	258.6567859649658	
10	24.191339015960693	movie	1		301.0	8.0	2.5	/experiments/knapen_aot/videos/S_yt-DWsFRl5bXs8_23.mp4	0.0	258.6651499271393	2.5081980228424072
10	26.6995370388031	fix_post	2		12.0	8.0	2.5	/experiments/knapen_aot/videos/S_yt-DWsFRl5bXs8_23.mp4	0.0	261.1733479499817	0.09991812705993652
11	26.799455165863037	fix_pre	0		8.0	9.0	2.5	/experiments/knapen_aot/videos/S_yt-PP93D7b7Ni4_10.mp4	0.0	261.2732660770416	0.066802978515625
11	26.85793399810791	response	0	2		9.0	2.5	/experiments/knapen_aot/videos/S_yt-PP93D7b7Ni4_10.mp4	0.0	261.3317449092865	
11	26.866258144378662	movie	1		301.0	9.0	2.5	/experiments/knapen_aot/videos/S_yt-PP93D7b7Ni4_10.mp4	0.0	261.34006905555725	2.508251905441284
11	29.374510049819946	fix_post	2		12.0	9.0	2.5	/experiments/knapen_aot/videos/S_yt-PP93D7b7Ni4_10.mp4	0.0	263.84832096099854	0.09991598129272461
12	29.47442603111267	fix_pre	0		6.0	10.0	2.5	/experiments/knapen_aot/videos/S_video.mp4	0.0	263.94823694229126	0.050061941146850586
12	29.516314029693604	response	0	2		10.0	2.5	/experiments/knapen_aot/videos/S_video.mp4	0.0	263.9901249408722	
12	29.52448797225952	movie	1		166.0	10.0	2.5	/experiments/knapen_aot/videos/S_video.mp4	0.0	263.9982988834381	2.5083401203155518
12	32.03282809257507	fix_post	2		12.0	10.0	2.5	/experiments/knapen_aot/videos/S_video.mp4	0.0	266.50663900375366	0.09999704360961914
13	32.13282513618469	fix_pre	0		7.0	11.0	2.5	/experiments/knapen_aot/videos/R_S_yt-mDil5vGZb14_4049.mp4	0.0	266.6066360473633	0.05828499794006348
13	32.182921171188354	response	0	2		11.0	2.5	/experiments/knapen_aot/videos/R_S_yt-mDil5vGZb14_4049.mp4	0.0	266.65673208236694	
13	32.191110134124756	movie	1		301.0	11.0	2.5	/experiments/knapen_aot/videos/R_S_yt-mDil5vGZb14_4049.mp4	0.0	266.66492104530334	2.5083038806915283
13	34.699414014816284	fix_post	2		12.0	11.0	2.5	/experiments/knapen_aot/videos/R_S_yt-mDil5vGZb14_4049.mp4	0.0	269.1732249259949	0.10005402565002441
13	34.724661111831665	response	2	2		11.0	2.5	/experiments/knapen_aot/videos/R_S_yt-mDil5vGZb14_4049.mp4	0.0	269.19847202301025	
14	34.79946804046631	fix_pre	0		42.0	12.0	2.5	/experiments/knapen_aot/videos/R_S_yt-jUGt_Byqczw_599.mp4	0.0	269.2732789516449	0.34999895095825195
14	35.13371801376343	response	0	2		12.0	2.5	/experiments/knapen_aot/videos/R_S_yt-jUGt_Byqczw_599.mp4	0.0	269.607528924942	
14	35.14946699142456	movie	1		301.0	12.0	2.5	/experiments/knapen_aot/videos/R_S_yt-jUGt_Byqczw_599.mp4	0.0	269.62327790260315	2.508338212966919
14	36.86041212081909	response	1	2		12.0	2.5	/experiments/knapen_aot/videos/R_S_yt-jUGt_Byqczw_599.mp4	0.0	271.3342230319977	
14	37.65780520439148	fix_post	2		12.0	12.0	2.5	/experiments/knapen_aot/videos/R_S_yt-jUGt_Byqczw_599.mp4	0.0	272.13161611557007	0.10008692741394043
15	37.75789213180542	fix_pre	0		4.0	13.0	2.5	/experiments/knapen_aot/videos/R_S_yt-xSGPe0KemD4_384.mp4	0.0	272.231703042984	0.03326106071472168
15	37.782883167266846	response	0	2		13.0	2.5	/experiments/knapen_aot/videos/R_S_yt-xSGPe0KemD4_384.mp4	0.0	272.25669407844543	
15	37.79115319252014	movie	1		301.0	13.0	2.5	/experiments/knapen_aot/videos/R_S_yt-xSGPe0KemD4_384.mp4	0.0	272.26496410369873	2.508668899536133
15	40.299822092056274	fix_post	2		12.0	13.0	2.5	/experiments/knapen_aot/videos/R_S_yt-xSGPe0KemD4_384.mp4	0.0	274.77363300323486	0.09959697723388672
16	40.39941906929016	fix_pre	0		19.0	14.0	2.5	blank	1.0	274.87322998046875	0.15837693214416504
16	40.549522161483765	response	0	2		14.0	2.5	blank	1.0	275.02333307266235	
16	40.557796001434326	movie	1		301.0	14.0	2.5	blank	1.0	275.0316069126129	2.508331060409546
16	43.06612706184387	fix_post	2		12.0	14.0	2.5	blank	1.0	277.53993797302246	0.10001111030578613
17	43.16613817214966	fix_pre	0		19.0	15.0	2.5	/experiments/knapen_aot/videos/R_S_yt-HFiRYTnMZxE_338.mp4	0.0	277.63994908332825	0.15931391716003418
17	43.31613802909851	response	0	2		15.0	2.5	/experiments/knapen_aot/videos/R_S_yt-HFiRYTnMZxE_338.mp4	0.0	277.7899489402771	
17	43.32545208930969	movie	1		301.0	15.0	2.5	/experiments/knapen_aot/videos/R_S_yt-HFiRYTnMZxE_338.mp4	0.0	277.7992630004883	2.507309913635254
17	45.832762002944946	fix_post	2		12.0	15.0	2.5	/experiments/knapen_aot/videos/R_S_yt-HFiRYTnMZxE_338.mp4	0.0	280.30657291412354	0.09993720054626465
18	45.93269920349121	fix_pre	0		11.0	16.0	2.5	/experiments/knapen_aot/videos/S_yt-FsylDeYfcxU_24.mp4	0.0	280.4065101146698	0.09167885780334473
18	46.016242027282715	response	0	2		16.0	2.5	/experiments/knapen_aot/videos/S_yt-FsylDeYfcxU_24.mp4	0.0	280.4900529384613	
18	46.024378061294556	movie	1		301.0	16.0	2.5	/experiments/knapen_aot/videos/S_yt-FsylDeYfcxU_24.mp4	0.0	280.49818897247314	2.508368968963623
18	48.53274703025818	fix_post	2		12.0	16.0	2.5	/experiments/knapen_aot/videos/S_yt-FsylDeYfcxU_24.mp4	0.0	283.00655794143677	0.10001206398010254
19	48.63275909423828	fix_pre	0		6.0	17.0	2.5	/experiments/knapen_aot/videos/S_yt-ujTY1igjc3E_2.mp4	0.0	283.10657000541687	0.04992389678955078
19	48.6745810508728	response	0	2		17.0	2.5	/experiments/knapen_aot/videos/S_yt-ujTY1igjc3E_2.mp4	0.0	283.1483919620514	
19	48.68268299102783	movie	1		301.0	17.0	2.5	/experiments/knapen_aot/videos/S_yt-ujTY1igjc3E_2.mp4	0.0	283.1564939022064	2.508404016494751
19	51.19108700752258	fix_post	2		12.0	17.0	2.5	/experiments/knapen_aot/videos/S_yt-ujTY1igjc3E_2.mp4	0.0	285.6648979187012	0.10002398490905762
20	51.29111099243164	fix_pre	0		6.0	18.0	2.5	/experiments/knapen_aot/videos/S_yt-Mjm5smrurQI_125.mp4	0.0	285.76492190361023	0.04998302459716797
20	51.325380086898804	response	0	2		18.0	2.5	/experiments/knapen_aot/videos/S_yt-Mjm5smrurQI_125.mp4	0.0	285.7991909980774	
20	51.34109401702881	movie	1		301.0	18.0	2.5	/experiments/knapen_aot/videos/S_yt-Mjm5smrurQI_125.mp4	0.0	285.8149049282074	2.5082709789276123
20	53.84936499595642	fix_post	2		12.0	18.0	2.5	/experiments/knapen_aot/videos/S_yt-Mjm5smrurQI_125.mp4	0.0	288.323175907135	0.10001111030578613
21	53.94937610626221	fix_pre	0		22.0	19.0	2.5	blank	1.0	288.4231870174408	0.1832890510559082
21	54.124486207962036	response	0	2		19.0	2.5	blank	1.0	288.5982971191406	
21	54.132665157318115	movie	1		301.0	19.0	2.5	blank	1.0	288.6064760684967	2.508378028869629
21	56.36616802215576	response	1	2		19.0	2.5	blank	1.0	290.83997893333435	
21	56.641043186187744	fix_post	2		12.0	19.0	2.5	blank	1.0	291.11485409736633	0.1000058650970459
21	56.65782809257507	response	2	2		19.0	2.5	blank	1.0	291.13163900375366	
22	56.74104905128479	fix_pre	0		37.0	20.0	2.5	/experiments/knapen_aot/videos/S_yt-IX6uxR5DSKk_2.mp4	0.0	291.2148599624634	0.3083209991455078
22	57.03364109992981	response	0	2		20.0	2.5	/experiments/knapen_aot/videos/S_yt-IX6uxR5DSKk_2.mp4	0.0	291.5074520111084	
22	57.0493700504303	movie	1		301.0	20.0	2.5	/experiments/knapen_aot/videos/S_yt-IX6uxR5DSKk_2.mp4	0.0	291.5231809616089	2.508394956588745
22	59.55776500701904	fix_post	2		12.0	20.0	2.5	/experiments/knapen_aot/videos/S_yt-IX6uxR5DSKk_2.mp4	0.0	294.03157591819763	0.09993910789489746
23	59.65770411491394	fix_pre	0		1.0	21.0	2.5	/experiments/knapen_aot/videos/R_S_ILSVRC2015_train_00369002.mp4	0.0	294.13151502609253	0.008327960968017578
23	59.6593701839447	response	0	2		21.0	2.5	/experiments/knapen_aot/videos/R_S_ILSVRC2015_train_00369002.mp4	0.0	294.1331810951233	
23	59.66603207588196	movie	1		301.0	21.0	2.5	/experiments/knapen_aot/videos/R_S_ILSVRC2015_train_00369002.mp4	0.0	294.13984298706055	2.5083210468292236
23	62.17435312271118	fix_post	2		12.0	21.0	2.5	/experiments/knapen_aot/videos/R_S_ILSVRC2015_train_00369002.mp4	0.0	296.64816403388977	0.10009193420410156
24	62.27444505691528	fix_pre	0		6.0	22.0	2.5	/experiments/knapen_aot/videos/R_S_fHdEaNT0gA0_35.mp4	0.0	296.7482559680939	0.05080914497375488
24	62.30858898162842	response	0	2		22.0	2.5	/experiments/knapen_aot/videos/R_S_fHdEaNT0gA0_35.mp4	0.0	296.782399892807	
24	62.32525420188904	movie	1		301.0	22.0	2.5	/experiments/knapen_aot/videos/R_S_fHdEaNT0gA0_35.mp4	0.0	296.7990651130676	2.5074517726898193
24	64.83270597457886	fix_post	2		12.0	22.0	2.5	/experiments/knapen_aot/videos/R_S_fHdEaNT0gA0_35.mp4	0.0	299.30651688575745	0.09998106956481934
25	64.93268704414368	fix_pre	0		7.0	23.0	2.5	/experiments/knapen_aot/videos/S_ILSVRC2015_train_00745000.mp4	0.0	299.40649795532227	0.059281110763549805
25	64.98278999328613	response	0	2		23.0	2.5	/experiments/knapen_aot/videos/S_ILSVRC2015_train_00745000.mp4	0.0	299.4566009044647	
25	64.99196815490723	movie	1		301.0	23.0	2.5	/experiments/knapen_aot/videos/S_ILSVRC2015_train_00745000.mp4	0.0	299.4657790660858	2.5073719024658203
25	67.49934005737305	fix_post	2		12.0	23.0	2.5	/experiments/knapen_aot/videos/S_ILSVRC2015_train_00745000.mp4	0.0	301.97315096855164	0.10020112991333008
26	67.59954118728638	fix_pre	0		8.0	24.0	2.5	/experiments/knapen_aot/videos/R_S_yt-2lnxIdOTxog_157.mp4	0.0	302.07335209846497	0.06644082069396973
26	67.65776205062866	response	0	2		24.0	2.5	/experiments/knapen_aot/videos/R_S_yt-2lnxIdOTxog_157.mp4	0.0	302.13157296180725	
26	67.66598200798035	movie	1		300.0	24.0	2.5	/experiments/knapen_aot/videos/R_S_yt-2lnxIdOTxog_157.mp4	0.0	302.13979291915894	2.5084171295166016
26	70.17439913749695	fix_post	2		12.0	24.0	2.5	/experiments/knapen_aot/videos/R_S_yt-2lnxIdOTxog_157.mp4	0.0	304.64821004867554	0.1000058650970459
27	70.274405002594	fix_pre	0		5.0	25.0	2.5	/experiments/knapen_aot/videos/S_yt-IigHVUksnw8_7.mp4	0.0	304.7482159137726	0.04176211357116699
27	70.3077940940857	response	0	2		25.0	2.5	/experiments/knapen_aot/videos/S_yt-IigHVUksnw8_7.mp4	0.0	304.7816050052643	
27	70.31616711616516	movie	1		301.0	25.0	2.5	/experiments/knapen_aot/videos/S_yt-IigHVUksnw8_7.mp4	0.0	304.78997802734375	2.50813889503479
27	72.82430601119995	fix_post	2		12.0	25.0	2.5	/experiments/knapen_aot/videos/S_yt-IigHVUksnw8_7.mp4	0.0	307.29811692237854	0.09994912147521973
28	72.92425513267517	fix_pre	0		22.0	26.0	2.5	/experiments/knapen_aot/videos/R_S_production_ID_4101244.mp4	0.0	307.39806604385376	0.18330597877502441
28	73.09197998046875	response	0	2		26.0	2.5	/experiments/knapen_aot/videos/R_S_production_ID_4101244.mp4	0.0	307.56579089164734	
28	73.1075611114502	movie	1		206.0	26.0	2.5	/experiments/knapen_aot/videos/R_S_production_ID_4101244.mp4	0.0	307.5813720226288	2.508455991744995
28	75.61601710319519	fix_post	2		12.0	26.0	2.5	/experiments/knapen_aot/videos/R_S_production_ID_4101244.mp4	0.0	310.0898280143738	0.09993410110473633
29	75.71595120429993	fix_pre	0		7.0	27.0	2.5	blank	1.0	310.1897621154785	0.05838894844055176
29	75.76606011390686	response	0	2		27.0	2.5	blank	1.0	310.23987102508545	
29	75.77434015274048	movie	1		301.0	27.0	2.5	blank	1.0	310.24815106391907	2.5083138942718506
29	78.28265404701233	fix_post	2		12.0	27.0	2.5	blank	1.0	312.7564649581909	0.10001897811889648
29	78.33275103569031	response	2	2		27.0	2.5	blank	1.0	312.8065619468689	
30	78.38267302513123	fix_pre	0		19.0	28.0	2.5	/experiments/knapen_aot/videos/R_S_yt-eLQydFSMGCU_75.mp4	0.0	312.8564839363098	0.15830016136169434
30	78.53272914886475	response	0	2		28.0	2.5	/experiments/knapen_aot/videos/R_S_yt-eLQydFSMGCU_75.mp4	0.0	313.00654006004333	
30	78.54097318649292	movie	1		301.0	28.0	2.5	/experiments/knapen_aot/videos/R_S_yt-eLQydFSMGCU_75.mp4	0.0	313.0147840976715	2.508347988128662
30	81.04932117462158	fix_post	2		12.0	28.0	2.5	/experiments/knapen_aot/videos/R_S_yt-eLQydFSMGCU_75.mp4	0.0	315.52313208580017	0.10001897811889648
31	81.14934015274048	fix_pre	0		16.0	29.0	2.5	/experiments/knapen_aot/videos/R_S_3WAnGcPubBY_179.mp4	0.0	315.62315106391907	0.13408684730529785
31	81.2745110988617	response	0	2		29.0	2.5	/experiments/knapen_aot/videos/R_S_3WAnGcPubBY_179.mp4	0.0	315.7483220100403	
31	81.28342700004578	movie	1		301.0	29.0	2.5	/experiments/knapen_aot/videos/R_S_3WAnGcPubBY_179.mp4	0.0	315.75723791122437	2.5075089931488037
31	83.79093599319458	fix_post	2		12.0	29.0	2.5	/experiments/knapen_aot/videos/R_S_3WAnGcPubBY_179.mp4	0.0	318.26474690437317	0.0999600887298584
32	83.89089608192444	fix_pre	0		37.0	30.0	2.5	/experiments/knapen_aot/videos/S_yt-y3tyx6cZjmA_412.mp4	0.0	318.364706993103	0.3092789649963379
32	84.19101214408875	response	0	2		30.0	2.5	/experiments/knapen_aot/videos/S_yt-y3tyx6cZjmA_412.mp4	0.0	318.66482305526733	
32	84.20017504692078	movie	1		301.0	30.0	2.5	/experiments/knapen_aot/videos/S_yt-y3tyx6cZjmA_412.mp4	0.0	318.67398595809937	2.5074450969696045
32	86.70762014389038	fix_post	2		12.0	30.0	2.5	/experiments/knapen_aot/videos/S_yt-y3tyx6cZjmA_412.mp4	0.0	321.18143105506897	0.09997892379760742
33	86.80759906768799	fix_pre	0		17.0	31.0	2.5	/experiments/knapen_aot/videos/S_yt-TBY8F6UMnJQ_51.mp4	0.0	321.2814099788666	0.14246511459350586
33	86.94099402427673	response	0	2		31.0	2.5	/experiments/knapen_aot/videos/S_yt-TBY8F6UMnJQ_51.mp4	0.0	321.4148049354553	
33	86.9500641822815	movie	1		301.0	31.0	2.5	/experiments/knapen_aot/videos/S_yt-TBY8F6UMnJQ_51.mp4	0.0	321.4238750934601	2.5075228214263916
33	89.45758700370789	fix_post	2		12.0	31.0	2.5	/experiments/knapen_aot/videos/S_yt-TBY8F6UMnJQ_51.mp4	0.0	323.9313979148865	0.09996700286865234
34	89.55755400657654	fix_pre	0		9.0	32.0	2.5	/experiments/knapen_aot/videos/R_S_yt-TBY8F6UMnJQ_51.mp4	0.0	324.0313649177551	0.07497596740722656
34	89.62435698509216	response	0	2		32.0	2.5	/experiments/knapen_aot/videos/R_S_yt-TBY8F6UMnJQ_51.mp4	0.0	324.09816789627075	
34	89.63252997398376	movie	1		301.0	32.0	2.5	/experiments/knapen_aot/videos/R_S_yt-TBY8F6UMnJQ_51.mp4	0.0	324.10634088516235	2.5083611011505127
34	92.14089107513428	fix_post	2		12.0	32.0	2.5	/experiments/knapen_aot/videos/R_S_yt-TBY8F6UMnJQ_51.mp4	0.0	326.61470198631287	0.10000205039978027
35	92.24089312553406	fix_pre	0		11.0	33.0	2.5	/experiments/knapen_aot/videos/S_yt-v9WGfC67DPk_50.mp4	0.0	326.71470403671265	0.09164905548095703
35	92.32424998283386	response	0	2		33.0	2.5	/experiments/knapen_aot/videos/S_yt-v9WGfC67DPk_50.mp4	0.0	326.79806089401245	
35	92.33254218101501	movie	1		301.0	33.0	2.5	/experiments/knapen_aot/videos/S_yt-v9WGfC67DPk_50.mp4	0.0	326.8063530921936	2.50834584236145
35	94.84088802337646	fix_post	2		12.0	33.0	2.5	/experiments/knapen_aot/videos/S_yt-v9WGfC67DPk_50.mp4	0.0	329.31469893455505	0.09999513626098633
36	94.94088315963745	fix_pre	0		20.0	34.0	2.5	blank	1.0	329.41469407081604	0.16654396057128906
36	95.09931707382202	response	0	2		34.0	2.5	blank	1.0	329.5731279850006	
36	95.10742712020874	movie	1		301.0	34.0	2.5	blank	1.0	329.58123803138733	2.508409023284912
36	97.61583614349365	fix_post	2		12.0	34.0	2.5	blank	1.0	332.08964705467224	0.10004687309265137
37	97.7158830165863	fix_pre	0		23.0	35.0	2.5	/experiments/knapen_aot/videos/S_yt-T_qmGKyeKNU_32.mp4	0.0	332.1896939277649	0.19252395629882812
37	97.89931917190552	response	0	2		35.0	2.5	/experiments/knapen_aot/videos/S_yt-T_qmGKyeKNU_32.mp4	0.0	332.3731300830841	
37	97.90840697288513	movie	1		301.0	35.0	2.5	/experiments/knapen_aot/videos/S_yt-T_qmGKyeKNU_32.mp4	0.0	332.3822178840637	2.507481098175049
37	100.41588807106018	fix_post	2		12.0	35.0	2.5	/experiments/knapen_aot/videos/S_yt-T_qmGKyeKNU_32.mp4	0.0	334.88969898223877	0.09999608993530273
38	100.51588416099548	fix_pre	0		33.0	36.0	2.5	/experiments/knapen_aot/videos/R_S_wc-auTIuWLTxxkn_5.mp4	0.0	334.9896950721741	0.274946928024292
38	100.78266215324402	response	0	2		36.0	2.5	/experiments/knapen_aot/videos/R_S_wc-auTIuWLTxxkn_5.mp4	0.0	335.2564730644226	
38	100.79083108901978	movie	1		162.0	36.0	2.5	/experiments/knapen_aot/videos/R_S_wc-auTIuWLTxxkn_5.mp4	0.0	335.26464200019836	2.5083160400390625
38	103.29914712905884	fix_post	2		12.0	36.0	2.5	/experiments/knapen_aot/videos/R_S_wc-auTIuWLTxxkn_5.mp4	0.0	337.7729580402374	0.10004591941833496
39	103.39919304847717	fix_pre	0		11.0	37.0	2.5	/experiments/knapen_aot/videos/S_b6-4.mp4	0.0	337.87300395965576	0.09238696098327637
39	103.47517418861389	response	0	2		37.0	2.5	/experiments/knapen_aot/videos/S_b6-4.mp4	0.0	337.9489850997925	
39	103.49158000946045	movie	1		165.0	37.0	2.5	/experiments/knapen_aot/videos/S_b6-4.mp4	0.0	337.96539092063904	2.507580041885376
39	105.99916005134583	fix_post	2		12.0	37.0	2.5	/experiments/knapen_aot/videos/S_b6-4.mp4	0.0	340.4729709625244	0.10014200210571289
40	106.09930205345154	fix_pre	0		1.0	38.0	2.5	/experiments/knapen_aot/videos/R_S_pexels-roman-odintsov-8233166.mp4	0.0	340.5731129646301	0.010306119918823242
40	106.10094809532166	response	0	2		38.0	2.5	/experiments/knapen_aot/videos/R_S_pexels-roman-odintsov-8233166.mp4	0.0	340.57475900650024	
40	106.10960817337036	movie	1		196.0	38.0	2.5	/experiments/knapen_aot/videos/R_S_pexels-roman-odintsov-8233166.mp4	0.0	340.58341908454895	2.5064518451690674
40	108.61606001853943	fix_post	2		12.0	38.0	2.5	/experiments/knapen_aot/videos/R_S_pexels-roman-odintsov-8233166.mp4	0.0	343.089870929718	0.09980916976928711
41	108.71586918830872	fix_pre	0		4.0	39.0	2.5	/experiments/knapen_aot/videos/R_S_yt--cAfxH1WnPo_3.mp4	0.0	343.1896800994873	0.033223867416381836
41	108.74097418785095	response	0	2		39.0	2.5	/experiments/knapen_aot/videos/R_S_yt--cAfxH1WnPo_3.mp4	0.0	343.21478509902954	
41	108.7490930557251	movie	1		301.0	39.0	2.5	/experiments/knapen_aot/videos/R_S_yt--cAfxH1WnPo_3.mp4	0.0	343.2229039669037	2.508342981338501
41	111.2574360370636	fix_post	2		12.0	39.0	2.5	/experiments/knapen_aot/videos/R_S_yt--cAfxH1WnPo_3.mp4	0.0	345.7312469482422	0.10005712509155273
42	111.35749316215515	fix_pre	0		12.0	40.0	2.5	blank	1.0	345.83130407333374	0.09996485710144043
42	111.44927406311035	response	0	2		40.0	2.5	blank	1.0	345.92308497428894	
42	111.45745801925659	movie	1		301.0	40.0	2.5	blank	1.0	345.9312689304352	2.508345127105713
42	113.9658031463623	fix_post	2		12.0	40.0	2.5	blank	1.0	348.4396140575409	0.10011982917785645
43	114.06592297554016	fix_pre	0		20.0	41.0	2.5	/experiments/knapen_aot/videos/S_video-5.mp4	0.0	348.53973388671875	0.16650009155273438
43	114.21674513816833	response	0	2		41.0	2.5	/experiments/knapen_aot/videos/S_video-5.mp4	0.0	348.6905560493469	
43	114.2324230670929	movie	1		179.0	41.0	2.5	/experiments/knapen_aot/videos/S_video-5.mp4	0.0	348.7062339782715	2.508431911468506
43	116.7408549785614	fix_post	2		12.0	41.0	2.5	/experiments/knapen_aot/videos/S_video-5.mp4	0.0	351.21466588974	0.10000300407409668
43	116.81589412689209	response	2	2		41.0	2.5	/experiments/knapen_aot/videos/S_video-5.mp4	0.0	351.2897050380707	
44	116.8408579826355	fix_pre	0		47.0	42.0	2.5	/experiments/knapen_aot/videos/R_S_yt-HFiRYTnMZxE_338.mp4	0.0	351.3146688938141	0.39156508445739746
44	117.22422814369202	response	0	2		42.0	2.5	/experiments/knapen_aot/videos/R_S_yt-HFiRYTnMZxE_338.mp4	0.0	351.6980390548706	
44	117.2324230670929	movie	1		301.0	42.0	2.5	/experiments/knapen_aot/videos/R_S_yt-HFiRYTnMZxE_338.mp4	0.0	351.7062339782715	2.508502960205078
44	119.74092602729797	fix_post	2		12.0	42.0	2.5	/experiments/knapen_aot/videos/R_S_yt-HFiRYTnMZxE_338.mp4	0.0	354.21473693847656	0.0999460220336914
45	119.84087204933167	fix_pre	0		9.0	43.0	2.5	/experiments/knapen_aot/videos/S_yt-K_gHa2x2OQA_319.mp4	0.0	354.31468296051025	0.07488298416137695
45	119.90002012252808	response	0	2		43.0	2.5	/experiments/knapen_aot/videos/S_yt-K_gHa2x2OQA_319.mp4	0.0	354.37383103370667	
45	119.91575503349304	movie	1		301.0	43.0	2.5	/experiments/knapen_aot/videos/S_yt-K_gHa2x2OQA_319.mp4	0.0	354.38956594467163	2.508336067199707
45	122.42409110069275	fix_post	2		12.0	43.0	2.5	/experiments/knapen_aot/videos/S_yt-K_gHa2x2OQA_319.mp4	0.0	356.89790201187134	0.09999990463256836
46	122.52409100532532	fix_pre	0		17.0	44.0	2.5	/experiments/knapen_aot/videos/S_wc-auTIuWLTxxkn_5.mp4	0.0	356.9979019165039	0.1416611671447754
46	122.65756106376648	response	0	2		44.0	2.5	/experiments/knapen_aot/videos/S_wc-auTIuWLTxxkn_5.mp4	0.0	357.13137197494507	
46	122.66575217247009	movie	1		163.0	44.0	2.5	/experiments/knapen_aot/videos/S_wc-auTIuWLTxxkn_5.mp4	0.0	357.1395630836487	2.5085768699645996
46	125.17432904243469	fix_post	2		12.0	44.0	2.5	/experiments/knapen_aot/videos/S_wc-auTIuWLTxxkn_5.mp4	0.0	359.6481399536133	0.0998070240020752
47	125.27413606643677	fix_pre	0		22.0	45.0	2.5	/experiments/knapen_aot/videos/R_S_yt-mmvWYAttrIw_2.mp4	0.0	359.74794697761536	0.18324613571166992
47	125.44173097610474	response	0	2		45.0	2.5	/experiments/knapen_aot/videos/R_S_yt-mmvWYAttrIw_2.mp4	0.0	359.9155418872833	
47	125.45738220214844	movie	1		301.0	45.0	2.5	/experiments/knapen_aot/videos/R_S_yt-mmvWYAttrIw_2.mp4	0.0	359.931193113327	2.508384943008423
47	127.96576714515686	fix_post	2		12.0	45.0	2.5	/experiments/knapen_aot/videos/R_S_yt-mmvWYAttrIw_2.mp4	0.0	362.43957805633545	0.10001587867736816
48	128.06578302383423	fix_pre	0		31.0	46.0	2.5	/experiments/knapen_aot/videos/R_S_yt-7v3kHYBe7-E_8.mp4	0.0	362.5395939350128	0.25886106491088867
48	128.30834698677063	response	0	2		46.0	2.5	/experiments/knapen_aot/videos/R_S_yt-7v3kHYBe7-E_8.mp4	0.0	362.7821578979492	
48	128.32464408874512	movie	1		301.0	46.0	2.5	/experiments/knapen_aot/videos/R_S_yt-7v3kHYBe7-E_8.mp4	0.0	362.7984549999237	2.50769305229187
48	130.832337141037	fix_post	2		12.0	46.0	2.5	/experiments/knapen_aot/videos/R_S_yt-7v3kHYBe7-E_8.mp4	0.0	365.3061480522156	0.10013890266418457
49	130.93247604370117	fix_pre	0		19.0	47.0	2.5	/experiments/knapen_aot/videos/S_yt-Xq6uX1jfFRk_21.mp4	0.0	365.40628695487976	0.158189058303833
49	131.0826551914215	response	0	2		47.0	2.5	/experiments/knapen_aot/videos/S_yt-Xq6uX1jfFRk_21.mp4	0.0	365.5564661026001	
49	131.090665102005	movie	1		301.0	47.0	2.5	/experiments/knapen_aot/videos/S_yt-Xq6uX1jfFRk_21.mp4	0.0	365.5644760131836	2.5083301067352295
49	133.59899520874023	fix_post	2		12.0	47.0	2.5	/experiments/knapen_aot/videos/S_yt-Xq6uX1jfFRk_21.mp4	0.0	368.0728061199188	0.10007095336914062
50	133.69906616210938	fix_pre	0		14.0	48.0	2.5	/experiments/knapen_aot/videos/S_yt-H-2Vvouw9VI_85.mp4	0.0	368.17287707328796	0.1166079044342041
50	133.80745720863342	response	0	2		48.0	2.5	/experiments/knapen_aot/videos/S_yt-H-2Vvouw9VI_85.mp4	0.0	368.281268119812	
50	133.81567406654358	movie	1		301.0	48.0	2.5	/experiments/knapen_aot/videos/S_yt-H-2Vvouw9VI_85.mp4	0.0	368.28948497772217	2.508376121520996
50	136.32405018806458	fix_post	2		12.0	48.0	2.5	/experiments/knapen_aot/videos/S_yt-H-2Vvouw9VI_85.mp4	0.0	370.79786109924316	0.09994101524353027
51	136.4239912033081	fix_pre	0		17.0	49.0	2.5	blank	1.0	370.8978021144867	0.14169979095458984
51	136.55746603012085	response	0	2		49.0	2.5	blank	1.0	371.03127694129944	
51	136.5656909942627	movie	1		301.0	49.0	2.5	blank	1.0	371.0395019054413	2.5083930492401123
51	139.0740840435028	fix_post	2		12.0	49.0	2.5	blank	1.0	373.5478949546814	0.09998703002929688
52	139.1740710735321	fix_pre	0		28.0	50.0	2.5	/experiments/knapen_aot/videos/R_S_pexels-sora-shimazaki-5925295.mp4	0.0	373.6478819847107	0.2337779998779297
52	139.39910411834717	response	0	2		50.0	2.5	/experiments/knapen_aot/videos/R_S_pexels-sora-shimazaki-5925295.mp4	0.0	373.87291502952576	
52	139.40784907341003	movie	1		161.0	50.0	2.5	/experiments/knapen_aot/videos/R_S_pexels-sora-shimazaki-5925295.mp4	0.0	373.8816599845886	2.5080931186676025
52	141.91594219207764	fix_post	2		12.0	50.0	2.5	/experiments/knapen_aot/videos/R_S_pexels-sora-shimazaki-5925295.mp4	0.0	376.3897531032562	0.09986591339111328
53	142.01580810546875	fix_pre	0		16.0	51.0	2.5	/experiments/knapen_aot/videos/S_video-9.mp4	0.0	376.48961901664734	0.13316702842712402
53	142.14082407951355	response	0	2		51.0	2.5	/experiments/knapen_aot/videos/S_video-9.mp4	0.0	376.61463499069214	
53	142.14897513389587	movie	1		210.0	51.0	2.5	/experiments/knapen_aot/videos/S_video-9.mp4	0.0	376.62278604507446	2.5084829330444336
53	144.6574580669403	fix_post	2		12.0	51.0	2.5	/experiments/knapen_aot/videos/S_video-9.mp4	0.0	379.1312689781189	0.10004496574401855
54	144.75750303268433	fix_pre	0		14.0	52.0	2.5	/experiments/knapen_aot/videos/R_S_ILSVRC2015_train_00165013.mp4	0.0	379.2313139438629	0.11649394035339355
54	144.86580300331116	response	0	2		52.0	2.5	/experiments/knapen_aot/videos/R_S_ILSVRC2015_train_00165013.mp4	0.0	379.33961391448975	
54	144.87399697303772	movie	1		301.0	52.0	2.5	/experiments/knapen_aot/videos/R_S_ILSVRC2015_train_00165013.mp4	0.0	379.3478078842163	2.5082859992980957
54	147.38228297233582	fix_post	2		12.0	52.0	2.5	/experiments/knapen_aot/videos/R_S_ILSVRC2015_train_00165013.mp4	0.0	381.8560938835144	0.10004901885986328
55	147.48233199119568	fix_pre	0		10.0	53.0	2.5	/experiments/knapen_aot/videos/S_yt-CJeyOFsd3lg_80.mp4	0.0	381.95614290237427	0.08329606056213379
55	147.55741500854492	response	0	2		53.0	2.5	/experiments/knapen_aot/videos/S_yt-CJeyOFsd3lg_80.mp4	0.0	382.0312259197235	
55	147.5656280517578	movie	1		301.0	53.0	2.5	/experiments/knapen_aot/videos/S_yt-CJeyOFsd3lg_80.mp4	0.0	382.0394389629364	2.5084280967712402
55	150.07405614852905	fix_post	2		12.0	53.0	2.5	/experiments/knapen_aot/videos/S_yt-CJeyOFsd3lg_80.mp4	0.0	384.54786705970764	0.09997797012329102
56	150.17403411865234	fix_pre	0		21.0	54.0	2.5	/experiments/knapen_aot/videos/S_production_ID_5020960.mp4	0.0	384.64784502983093	0.17483997344970703
56	150.3331241607666	response	0	2		54.0	2.5	/experiments/knapen_aot/videos/S_production_ID_5020960.mp4	0.0	384.8069350719452	
56	150.34887409210205	movie	1		193.0	54.0	2.5	/experiments/knapen_aot/videos/S_production_ID_5020960.mp4	0.0	384.82268500328064	2.5084640979766846
56	152.85733819007874	fix_post	2		12.0	54.0	2.5	/experiments/knapen_aot/videos/S_production_ID_5020960.mp4	0.0	387.3311491012573	0.0999908447265625
57	152.9573290348053	fix_pre	0		17.0	55.0	2.5	/experiments/knapen_aot/videos/R_S_yt-nn-8LZcafGs_35.mp4	0.0	387.4311399459839	0.14164209365844727
57	153.0907599925995	response	0	2		55.0	2.5	/experiments/knapen_aot/videos/R_S_yt-nn-8LZcafGs_35.mp4	0.0	387.5645709037781	
57	153.09897112846375	movie	1		301.0	55.0	2.5	/experiments/knapen_aot/videos/R_S_yt-nn-8LZcafGs_35.mp4	0.0	387.57278203964233	2.5088279247283936
57	155.60779905319214	fix_post	2		12.0	55.0	2.5	/experiments/knapen_aot/videos/R_S_yt-nn-8LZcafGs_35.mp4	0.0	390.0816099643707	0.09958910942077637
58	155.70738816261292	fix_pre	0		8.0	56.0	2.5	blank	1.0	390.1811990737915	0.06665587425231934
58	155.765771150589	response	0	2		56.0	2.5	blank	1.0	390.2395820617676	
58	155.77404403686523	movie	1		301.0	56.0	2.5	blank	1.0	390.2478549480438	2.508366107940674
58	158.2824101448059	fix_post	2		12.0	56.0	2.5	blank	1.0	392.7562210559845	0.09987688064575195
59	158.38228702545166	fix_pre	0		2.0	57.0	2.5	/experiments/knapen_aot/videos/S_yt-RNPFV7lgAvE_362.mp4	0.0	392.85609793663025	0.01661396026611328
59	158.3907070159912	response	0	2		57.0	2.5	/experiments/knapen_aot/videos/S_yt-RNPFV7lgAvE_362.mp4	0.0	392.8645179271698	
59	158.39890098571777	movie	1		301.0	57.0	2.5	/experiments/knapen_aot/videos/S_yt-RNPFV7lgAvE_362.mp4	0.0	392.87271189689636	2.508419990539551
59	160.90732097625732	fix_post	2		12.0	57.0	2.5	/experiments/knapen_aot/videos/S_yt-RNPFV7lgAvE_362.mp4	0.0	395.3811318874359	0.09998416900634766
60	161.00730514526367	fix_pre	0		15.0	58.0	2.5	/experiments/knapen_aot/videos/R_S_yt-IX6uxR5DSKk_2.mp4	0.0	395.48111605644226	0.12498903274536133
60	161.1240680217743	response	0	2		58.0	2.5	/experiments/knapen_aot/videos/R_S_yt-IX6uxR5DSKk_2.mp4	0.0	395.5978789329529	
60	161.13229417800903	movie	1		301.0	58.0	2.5	/experiments/knapen_aot/videos/R_S_yt-IX6uxR5DSKk_2.mp4	0.0	395.6061050891876	2.5083158016204834
60	163.64060997962952	fix_post	2		12.0	58.0	2.5	/experiments/knapen_aot/videos/R_S_yt-IX6uxR5DSKk_2.mp4	0.0	398.1144208908081	0.10002708435058594
61	163.7406370639801	fix_pre	0		25.0	59.0	2.5	/experiments/knapen_aot/videos/S_yt-GWOOQZ19-oU_331.mp4	0.0	398.2144479751587	0.2086780071258545
61	163.94066905975342	response	0	2		59.0	2.5	/experiments/knapen_aot/videos/S_yt-GWOOQZ19-oU_331.mp4	0.0	398.414479970932	
61	163.94931507110596	movie	1		301.0	59.0	2.5	/experiments/knapen_aot/videos/S_yt-GWOOQZ19-oU_331.mp4	0.0	398.42312598228455	2.507944107055664
61	166.45725917816162	fix_post	2		12.0	59.0	2.5	/experiments/knapen_aot/videos/S_yt-GWOOQZ19-oU_331.mp4	0.0	400.9310700893402	0.10001087188720703
62	166.55727005004883	fix_pre	0		17.0	60.0	2.5	/experiments/knapen_aot/videos/S_ioSkDvwpEaU_35.mp4	0.0	401.0310809612274	0.1419849395751953
62	166.69073009490967	response	0	2		60.0	2.5	/experiments/knapen_aot/videos/S_ioSkDvwpEaU_35.mp4	0.0	401.16454100608826	
62	166.69925498962402	movie	1		301.0	60.0	2.5	/experiments/knapen_aot/videos/S_ioSkDvwpEaU_35.mp4	0.0	401.1730659008026	2.507986068725586
62	169.2072410583496	fix_post	2		12.0	60.0	2.5	/experiments/knapen_aot/videos/S_ioSkDvwpEaU_35.mp4	0.0	403.6810519695282	0.0999441146850586
63	169.30718517303467	fix_pre	0		12.0	61.0	2.5	/experiments/knapen_aot/videos/S_wc-NVeGRb_y_y_5_36.mp4	0.0	403.78099608421326	0.10047698020935059
63	169.39898920059204	response	0	2		61.0	2.5	/experiments/knapen_aot/videos/S_wc-NVeGRb_y_y_5_36.mp4	0.0	403.87280011177063	
63	169.40766215324402	movie	1		165.0	61.0	2.5	/experiments/knapen_aot/videos/S_wc-NVeGRb_y_y_5_36.mp4	0.0	403.8814730644226	2.507863998413086
63	171.9155261516571	fix_post	2		12.0	61.0	2.5	/experiments/knapen_aot/videos/S_wc-NVeGRb_y_y_5_36.mp4	0.0	406.3893370628357	0.1000368595123291
64	172.01556301116943	fix_pre	0		26.0	62.0	2.5	blank	1.0	406.489373922348	0.2166290283203125
64	172.22396898269653	response	0	2		62.0	2.5	blank	1.0	406.6977798938751	
64	172.23219203948975	movie	1		301.0	62.0	2.5	blank	1.0	406.70600295066833	2.5082991123199463
64	174.7404911518097	fix_post	2		12.0	62.0	2.5	blank	1.0	409.2143020629883	0.10015296936035156
65	174.84064412117004	fix_pre	0		24.0	63.0	2.5	/experiments/knapen_aot/videos/S_flickr-hapanine-31880782705_22.mp4	0.0	409.31445503234863	0.1998739242553711
65	175.03224515914917	response	0	2		63.0	2.5	/experiments/knapen_aot/videos/S_flickr-hapanine-31880782705_22.mp4	0.0	409.50605607032776	
65	175.04051804542542	movie	1		164.0	63.0	2.5	/experiments/knapen_aot/videos/S_flickr-hapanine-31880782705_22.mp4	0.0	409.514328956604	2.5083811283111572
65	177.54889917373657	fix_post	2		12.0	63.0	2.5	/experiments/knapen_aot/videos/S_flickr-hapanine-31880782705_22.mp4	0.0	412.02271008491516	0.09999489784240723
66	177.64889407157898	fix_pre	0		1.0	64.0	2.5	/experiments/knapen_aot/videos/S_yt-i-1Gou9SA5U_3.mp4	0.0	412.12270498275757	0.00882101058959961
66	177.6420121192932	response	0	2		64.0	2.5	/experiments/knapen_aot/videos/S_yt-i-1Gou9SA5U_3.mp4	0.0	412.1158230304718	
66	177.65771508216858	movie	1		301.0	64.0	2.5	/experiments/knapen_aot/videos/S_yt-i-1Gou9SA5U_3.mp4	0.0	412.13152599334717	2.507780075073242
66	180.16549515724182	fix_post	2		12.0	64.0	2.5	/experiments/knapen_aot/videos/S_yt-i-1Gou9SA5U_3.mp4	0.0	414.6393060684204	0.10001397132873535
67	180.26550912857056	fix_pre	0		6.0	65.0	2.5	/experiments/knapen_aot/videos/S_yt-RNPFV7lgAvE_362.mp4	0.0	414.73932003974915	0.049967050552368164
67	180.30733108520508	response	0	2		65.0	2.5	/experiments/knapen_aot/videos/S_yt-RNPFV7lgAvE_362.mp4	0.0	414.78114199638367	
67	180.31547617912292	movie	1		301.0	65.0	2.5	/experiments/knapen_aot/videos/S_yt-RNPFV7lgAvE_362.mp4	0.0	414.7892870903015	2.5084118843078613
67	181.29064917564392	response	1	2		65.0	2.5	/experiments/knapen_aot/videos/S_yt-RNPFV7lgAvE_362.mp4	0.0	415.7644600868225	
67	182.8238880634308	fix_post	2		12.0	65.0	2.5	/experiments/knapen_aot/videos/S_yt-RNPFV7lgAvE_362.mp4	0.0	417.2976989746094	0.10010313987731934
68	182.9239912033081	fix_pre	0		56.0	66.0	2.5	/experiments/knapen_aot/videos/S_yt-6B69qmkEdTI_1.mp4	0.0	417.3978021144867	0.4664309024810791
68	183.38227009773254	response	0	2		66.0	2.5	/experiments/knapen_aot/videos/S_yt-6B69qmkEdTI_1.mp4	0.0	417.85608100891113	
68	183.39042210578918	movie	1		301.0	66.0	2.5	/experiments/knapen_aot/videos/S_yt-6B69qmkEdTI_1.mp4	0.0	417.8642330169678	2.508388042449951
68	185.89881014823914	fix_post	2		12.0	66.0	2.5	/experiments/knapen_aot/videos/S_yt-6B69qmkEdTI_1.mp4	0.0	420.3726210594177	0.10003900527954102
69	185.99884915351868	fix_pre	0		8.0	67.0	2.5	/experiments/knapen_aot/videos/R_S_yt-nn-8LZcafGs_35.mp4	0.0	420.47266006469727	0.06662702560424805
69	186.05719208717346	response	0	2		67.0	2.5	/experiments/knapen_aot/videos/R_S_yt-nn-8LZcafGs_35.mp4	0.0	420.53100299835205	
69	186.06547617912292	movie	1		301.0	67.0	2.5	/experiments/knapen_aot/videos/R_S_yt-nn-8LZcafGs_35.mp4	0.0	420.5392870903015	2.508359909057617
69	188.57383608818054	fix_post	2		12.0	67.0	2.5	/experiments/knapen_aot/videos/R_S_yt-nn-8LZcafGs_35.mp4	0.0	423.04764699935913	0.10001707077026367
70	188.6738531589508	fix_pre	0		20.0	68.0	2.5	/experiments/knapen_aot/videos/R_S_yt-PP93D7b7Ni4_10.mp4	0.0	423.1476640701294	0.16663503646850586
70	188.83221697807312	response	0	2		68.0	2.5	/experiments/knapen_aot/videos/R_S_yt-PP93D7b7Ni4_10.mp4	0.0	423.3060278892517	
70	188.8404881954193	movie	1		301.0	68.0	2.5	/experiments/knapen_aot/videos/R_S_yt-PP93D7b7Ni4_10.mp4	0.0	423.3142991065979	2.5083367824554443
70	191.34882497787476	fix_post	2		12.0	68.0	2.5	/experiments/knapen_aot/videos/R_S_yt-PP93D7b7Ni4_10.mp4	0.0	425.82263588905334	0.10031819343566895
70	191.42393898963928	response	2	2		68.0	2.5	/experiments/knapen_aot/videos/R_S_yt-PP93D7b7Ni4_10.mp4	0.0	425.89774990081787	
71	191.44914317131042	fix_pre	0		31.0	69.0	2.5	blank	1.0	425.922954082489	0.2579159736633301
71	191.69893598556519	response	0	2		69.0	2.5	blank	1.0	426.1727468967438	
71	191.70705914497375	movie	1		301.0	69.0	2.5	blank	1.0	426.18087005615234	2.5084218978881836
71	194.21548104286194	fix_post	2		12.0	69.0	2.5	blank	1.0	428.6892919540405	0.10004997253417969
72	194.31553101539612	fix_pre	0		18.0	70.0	2.5	/experiments/knapen_aot/videos/S_comp_GMT329_113NC_396B_1105_CHINA_v04_SDR_FINAL_20180706_F900F2700_SDR_2K_AVC.mp4	0.0	428.7893419265747	0.14992117881774902
72	194.45714402198792	response	0	2		70.0	2.5	/experiments/knapen_aot/videos/S_comp_GMT329_113NC_396B_1105_CHINA_v04_SDR_FINAL_20180706_F900F2700_SDR_2K_AVC.mp4	0.0	428.9309549331665	
72	194.46545219421387	movie	1		164.0	70.0	2.5	/experiments/knapen_aot/videos/S_comp_GMT329_113NC_396B_1105_CHINA_v04_SDR_FINAL_20180706_F900F2700_SDR_2K_AVC.mp4	0.0	428.93926310539246	2.5083649158477783
72	196.97381711006165	fix_post	2		12.0	70.0	2.5	/experiments/knapen_aot/videos/S_comp_GMT329_113NC_396B_1105_CHINA_v04_SDR_FINAL_20180706_F900F2700_SDR_2K_AVC.mp4	0.0	431.44762802124023	0.10023093223571777
73	197.07404804229736	fix_pre	0		4.0	71.0	2.5	/experiments/knapen_aot/videos/R_S_yt-2jVJb1PR2XA_16.mp4	0.0	431.54785895347595	0.03310108184814453
73	197.09884405136108	response	0	2		71.0	2.5	/experiments/knapen_aot/videos/R_S_yt-2jVJb1PR2XA_16.mp4	0.0	431.5726549625397	
73	197.1071491241455	movie	1		301.0	71.0	2.5	/experiments/knapen_aot/videos/R_S_yt-2jVJb1PR2XA_16.mp4	0.0	431.5809600353241	2.50832200050354
73	199.54890513420105	response	1	2		71.0	2.5	/experiments/knapen_aot/videos/R_S_yt-2jVJb1PR2XA_16.mp4	0.0	434.02271604537964	
73	199.61547112464905	fix_post	2		12.0	71.0	2.5	/experiments/knapen_aot/videos/R_S_yt-2jVJb1PR2XA_16.mp4	0.0	434.08928203582764	0.09995102882385254
74	199.7154221534729	fix_pre	0		8.0	72.0	2.5	/experiments/knapen_aot/videos/S_yt-ujTY1igjc3E_2.mp4	0.0	434.1892330646515	0.06686687469482422
74	199.77378916740417	response	0	2		72.0	2.5	/experiments/knapen_aot/videos/S_yt-ujTY1igjc3E_2.mp4	0.0	434.24760007858276	
74	199.78228902816772	movie	1		301.0	72.0	2.5	/experiments/knapen_aot/videos/S_yt-ujTY1igjc3E_2.mp4	0.0	434.2560999393463	2.5082650184631348
74	202.19882607460022	response	1	2		72.0	2.5	/experiments/knapen_aot/videos/S_yt-ujTY1igjc3E_2.mp4	0.0	436.6726369857788	
74	202.29055404663086	fix_post	2		12.0	72.0	2.5	/experiments/knapen_aot/videos/S_yt-ujTY1igjc3E_2.mp4	0.0	436.76436495780945	0.09988713264465332
75	202.3904411792755	fix_pre	0		5.0	73.0	2.5	/experiments/knapen_aot/videos/S_yt-RVoC19C420Y_27.mp4	0.0	436.8642520904541	0.041615962982177734
75	202.4239912033081	response	0	2		73.0	2.5	/experiments/knapen_aot/videos/S_yt-RVoC19C420Y_27.mp4	0.0	436.8978021144867	
75	202.4320571422577	movie	1		301.0	73.0	2.5	/experiments/knapen_aot/videos/S_yt-RVoC19C420Y_27.mp4	0.0	436.9058680534363	2.508336067199707
75	204.49083518981934	response	1	2		73.0	2.5	/experiments/knapen_aot/videos/S_yt-RVoC19C420Y_27.mp4	0.0	438.9646461009979	
75	204.7155749797821	response	1	2		73.0	2.5	/experiments/knapen_aot/videos/S_yt-RVoC19C420Y_27.mp4	0.0	439.1893858909607	
75	204.89880514144897	response	1	2		73.0	2.5	/experiments/knapen_aot/videos/S_yt-RVoC19C420Y_27.mp4	0.0	439.37261605262756	
75	204.9403932094574	fix_post	2		12.0	73.0	2.5	/experiments/knapen_aot/videos/S_yt-RVoC19C420Y_27.mp4	0.0	439.414204120636	0.10008788108825684
76	205.04048109054565	fix_pre	0		5.0	74.0	2.5	/experiments/knapen_aot/videos/R_S_yt-JH6qCYAnX-I_70.mp4	0.0	439.51429200172424	0.04157590866088867
76	205.0738241672516	response	0	2		74.0	2.5	/experiments/knapen_aot/videos/R_S_yt-JH6qCYAnX-I_70.mp4	0.0	439.5476350784302	
76	205.08205699920654	movie	1		301.0	74.0	2.5	/experiments/knapen_aot/videos/R_S_yt-JH6qCYAnX-I_70.mp4	0.0	439.55586791038513	2.5083491802215576
76	207.5904061794281	fix_post	2		12.0	74.0	2.5	/experiments/knapen_aot/videos/R_S_yt-JH6qCYAnX-I_70.mp4	0.0	442.0642170906067	0.09999299049377441
77	207.69039916992188	fix_pre	0		1.0	75.0	2.5	/experiments/knapen_aot/videos/R_S_yt-EAMpitsjbbA_153.mp4	0.0	442.16421008110046	0.008916854858398438
77	207.69209504127502	response	0	2		75.0	2.5	/experiments/knapen_aot/videos/R_S_yt-EAMpitsjbbA_153.mp4	0.0	442.1659059524536	
77	207.69931602478027	movie	1		301.0	75.0	2.5	/experiments/knapen_aot/videos/R_S_yt-EAMpitsjbbA_153.mp4	0.0	442.17312693595886	2.507733106613159
77	207.88218998908997	response	1	2		75.0	2.5	/experiments/knapen_aot/videos/R_S_yt-EAMpitsjbbA_153.mp4	0.0	442.35600090026855	
77	210.20704913139343	fix_post	2		12.0	75.0	2.5	/experiments/knapen_aot/videos/R_S_yt-EAMpitsjbbA_153.mp4	0.0	444.680860042572	0.10028886795043945
78	210.30733799934387	fix_pre	0		4.0	76.0	2.5	blank	1.0	444.78114891052246	0.03307199478149414
78	210.33214497566223	response	0	2		76.0	2.5	blank	1.0	444.8059558868408	
78	210.34040999412537	movie	1		301.0	76.0	2.5	blank	1.0	444.81422090530396	2.508329153060913
78	210.53215718269348	response	1	2		76.0	2.5	blank	1.0	445.00596809387207	
78	212.84873914718628	fix_post	2		12.0	76.0	2.5	blank	1.0	447.32255005836487	0.10016393661499023
79	212.94890308380127	fix_pre	0		18.0	77.0	2.5	/experiments/knapen_aot/videos/R_S_ILSVRC2015_train_00682000.mp4	0.0	447.42271399497986	0.14980697631835938
79	213.09050107002258	response	0	2		77.0	2.5	/experiments/knapen_aot/videos/R_S_ILSVRC2015_train_00682000.mp4	0.0	447.5643119812012	
79	213.09871006011963	movie	1		301.0	77.0	2.5	/experiments/knapen_aot/videos/R_S_ILSVRC2015_train_00682000.mp4	0.0	447.5725209712982	2.5082550048828125
79	213.28227519989014	response	1	2		77.0	2.5	/experiments/knapen_aot/videos/R_S_ILSVRC2015_train_00682000.mp4	0.0	447.7560861110687	
79	215.27544116973877	response	1	2		77.0	2.5	/experiments/knapen_aot/videos/R_S_ILSVRC2015_train_00682000.mp4	0.0	449.74925208091736	
79	215.49130702018738	response	1	2		77.0	2.5	/experiments/knapen_aot/videos/R_S_ILSVRC2015_train_00682000.mp4	0.0	449.96511793136597	
79	215.60696506500244	fix_post	2		12.0	77.0	2.5	/experiments/knapen_aot/videos/R_S_ILSVRC2015_train_00682000.mp4	0.0	450.08077597618103	0.10009002685546875
79	215.69877910614014	response	2	2		77.0	2.5	/experiments/knapen_aot/videos/R_S_ILSVRC2015_train_00682000.mp4	0.0	450.1725900173187	
80	215.7070550918579	fix_pre	0		45.0	78.0	2.5	/experiments/knapen_aot/videos/S_yt-cBCeq1NQgj0_1129.mp4	0.0	450.1808660030365	0.37494492530822754
80	216.07376408576965	response	0	2		78.0	2.5	/experiments/knapen_aot/videos/S_yt-cBCeq1NQgj0_1129.mp4	0.0	450.54757499694824	
80	216.08200001716614	movie	1		301.0	78.0	2.5	/experiments/knapen_aot/videos/S_yt-cBCeq1NQgj0_1129.mp4	0.0	450.5558109283447	2.508392095565796
80	218.59039211273193	fix_post	2		12.0	78.0	2.5	/experiments/knapen_aot/videos/S_yt-cBCeq1NQgj0_1129.mp4	0.0	453.0642030239105	0.10014986991882324
81	218.69054198265076	fix_pre	0		24.0	79.0	2.5	/experiments/knapen_aot/videos/S_yt-BLmwmX-mni8_56.mp4	0.0	453.16435289382935	0.19979500770568848
81	218.88208413124084	response	0	2		79.0	2.5	/experiments/knapen_aot/videos/S_yt-BLmwmX-mni8_56.mp4	0.0	453.35589504241943	
81	218.89033699035645	movie	1		301.0	79.0	2.5	/experiments/knapen_aot/videos/S_yt-BLmwmX-mni8_56.mp4	0.0	453.36414790153503	2.5082921981811523
81	221.3986291885376	fix_post	2		12.0	79.0	2.5	/experiments/knapen_aot/videos/S_yt-BLmwmX-mni8_56.mp4	0.0	455.8724400997162	0.1000518798828125
82	221.4986810684204	fix_pre	0		11.0	80.0	2.5	/experiments/knapen_aot/videos/S_yt-mL3MuCfKtdY_79.mp4	0.0	455.972491979599	0.09166693687438965
82	221.58200120925903	response	0	2		80.0	2.5	/experiments/knapen_aot/videos/S_yt-mL3MuCfKtdY_79.mp4	0.0	456.0558121204376	
82	221.5903480052948	movie	1		301.0	80.0	2.5	/experiments/knapen_aot/videos/S_yt-mL3MuCfKtdY_79.mp4	0.0	456.0641589164734	2.508319139480591
82	224.0986671447754	fix_post	2		12.0	80.0	2.5	/experiments/knapen_aot/videos/S_yt-mL3MuCfKtdY_79.mp4	0.0	458.572478055954	0.10011601448059082
83	224.19878315925598	fix_pre	0		23.0	81.0	2.5	/experiments/knapen_aot/videos/R_S_yt-7W50lcw5FCo_37.mp4	0.0	458.67259407043457	0.19153785705566406
83	224.38208508491516	response	0	2		81.0	2.5	/experiments/knapen_aot/videos/R_S_yt-7W50lcw5FCo_37.mp4	0.0	458.85589599609375	
83	224.39032101631165	movie	1		301.0	81.0	2.5	/experiments/knapen_aot/videos/R_S_yt-7W50lcw5FCo_37.mp4	0.0	458.86413192749023	2.5083401203155518
83	226.8986611366272	fix_post	2		12.0	81.0	2.5	/experiments/knapen_aot/videos/R_S_yt-7W50lcw5FCo_37.mp4	0.0	461.3724720478058	0.10010886192321777
84	226.99876999855042	fix_pre	0		32.0	82.0	2.5	blank	1.0	461.472580909729	0.2665221691131592
84	227.25706005096436	response	0	2		82.0	2.5	blank	1.0	461.73087096214294	
84	227.26529216766357	movie	1		301.0	82.0	2.5	blank	1.0	461.73910307884216	2.50838303565979
84	229.77367520332336	fix_post	2		12.0	82.0	2.5	blank	1.0	464.24748611450195	0.09998798370361328
85	229.87366318702698	fix_pre	0		23.0	83.0	2.5	/experiments/knapen_aot/videos/S_yt-H-2Vvouw9VI_85.mp4	0.0	464.34747409820557	0.19165992736816406
85	230.05704998970032	response	0	2		83.0	2.5	/experiments/knapen_aot/videos/S_yt-H-2Vvouw9VI_85.mp4	0.0	464.5308609008789	
85	230.06532311439514	movie	1		301.0	83.0	2.5	/experiments/knapen_aot/videos/S_yt-H-2Vvouw9VI_85.mp4	0.0	464.53913402557373	2.508375883102417
85	232.57369899749756	fix_post	2		12.0	83.0	2.5	/experiments/knapen_aot/videos/S_yt-H-2Vvouw9VI_85.mp4	0.0	467.04750990867615	0.099945068359375
87	232.67364406585693	stim	0		255.0					467.1474549770355	2.1249589920043945
87	232.83205604553223	response	0	2						467.3058669567108	
87	234.79249215126038	response	0	space						469.26630306243896	
