trial_nr	onset	event_type	phase	response	nr_frames	movie_index	movie_duration	movie_file	blank	onset_abs	duration
0	0.12733101844787598	stim	0		54.0					106.50144004821777	0.44991302490234375
0	0.5696020126342773	response	0	space						106.94371104240417	
1	0.5772440433502197	stim	0		121.0					106.95135307312012	1.008124828338623
1	1.5853688716888428	stim	1		120.0					107.95947790145874	0.9999570846557617
1	2.2029929161071777	response	1	space						108.57710194587708	
2	2.5853259563446045	fix_pre	0		91.0	0.0	2.5	/experiments/knapen_aot/videos/R_S_comp_DB_D001_C001_PSNK_v06_SDR_PS_20180824_SDR_2K_AVC.mp4	0.0	108.9594349861145	0.7583141326904297
2	3.3354740142822266	response	0	space		0.0	2.5	/experiments/knapen_aot/videos/R_S_comp_DB_D001_C001_PSNK_v06_SDR_PS_20180824_SDR_2K_AVC.mp4	0.0	109.70958304405212	
2	3.343640089035034	movie	1		171.0	0.0	2.5	/experiments/knapen_aot/videos/R_S_comp_DB_D001_C001_PSNK_v06_SDR_PS_20180824_SDR_2K_AVC.mp4	0.0	109.71774911880493	2.508316993713379
2	5.851957082748413	fix_post	2		12.0	0.0	2.5	/experiments/knapen_aot/videos/R_S_comp_DB_D001_C001_PSNK_v06_SDR_PS_20180824_SDR_2K_AVC.mp4	0.0	112.22606611251831	0.10004591941833496
3	5.952003002166748	fix_pre	0		17.0	1.0	2.5	/experiments/knapen_aot/videos/S_pexels-koolshooters-7327412_1.mp4	0.0	112.32611203193665	0.14470410346984863
3	6.0907371044158936	response	0	2		1.0	2.5	/experiments/knapen_aot/videos/S_pexels-koolshooters-7327412_1.mp4	0.0	112.46484613418579	
3	6.096707105636597	movie	1		166.0	1.0	2.5	/experiments/knapen_aot/videos/S_pexels-koolshooters-7327412_1.mp4	0.0	112.4708161354065	2.5053019523620605
3	8.602009057998657	fix_post	2		12.0	1.0	2.5	/experiments/knapen_aot/videos/S_pexels-koolshooters-7327412_1.mp4	0.0	114.97611808776855	0.09999585151672363
4	8.70200490951538	fix_pre	0		6.0	2.0	2.5	/experiments/knapen_aot/videos/R_S_yt-rB3YVZvA78w_20.mp4	0.0	115.07611393928528	0.05006599426269531
4	8.737068891525269	response	0	2		2.0	2.5	/experiments/knapen_aot/videos/R_S_yt-rB3YVZvA78w_20.mp4	0.0	115.11117792129517	
4	8.752070903778076	movie	1		301.0	2.0	2.5	/experiments/knapen_aot/videos/R_S_yt-rB3YVZvA78w_20.mp4	0.0	115.12617993354797	2.5082030296325684
4	11.260273933410645	fix_post	2		12.0	2.0	2.5	/experiments/knapen_aot/videos/R_S_yt-rB3YVZvA78w_20.mp4	0.0	117.63438296318054	0.10029911994934082
5	11.360573053359985	fix_pre	0		62.0	3.0	2.5	/experiments/knapen_aot/videos/S_yt-ZtS7ZrJ_rtk_525.mp4	0.0	117.73468208312988	0.5163500308990479
5	11.861284017562866	response	0	2		3.0	2.5	/experiments/knapen_aot/videos/S_yt-ZtS7ZrJ_rtk_525.mp4	0.0	118.23539304733276	
5	11.876923084259033	movie	1		301.0	3.0	2.5	/experiments/knapen_aot/videos/S_yt-ZtS7ZrJ_rtk_525.mp4	0.0	118.25103211402893	2.5082638263702393
5	14.385186910629272	fix_post	2		12.0	3.0	2.5	/experiments/knapen_aot/videos/S_yt-ZtS7ZrJ_rtk_525.mp4	0.0	120.75929594039917	0.10029816627502441
6	14.485485076904297	fix_pre	0		15.0	4.0	2.5	/experiments/knapen_aot/videos/S_yt-PK-Eip9wFr0_24.mp4	0.0	120.8595941066742	0.12497901916503906
6	14.6021249294281	response	0	2		4.0	2.5	/experiments/knapen_aot/videos/S_yt-PK-Eip9wFr0_24.mp4	0.0	120.976233959198	
6	14.610464096069336	movie	1		301.0	4.0	2.5	/experiments/knapen_aot/videos/S_yt-PK-Eip9wFr0_24.mp4	0.0	120.98457312583923	2.5081489086151123
6	17.11861300468445	fix_post	2		12.0	4.0	2.5	/experiments/knapen_aot/videos/S_yt-PK-Eip9wFr0_24.mp4	0.0	123.49272203445435	0.10001897811889648
7	17.218631982803345	fix_pre	0		13.0	5.0	2.5	blank	1.0	123.59274101257324	0.10831689834594727
7	17.31874704360962	response	0	2		5.0	2.5	blank	1.0	123.69285607337952	
7	17.326948881149292	movie	1		301.0	5.0	2.5	blank	1.0	123.70105791091919	2.508291006088257
7	19.735357999801636	response	1	2		5.0	2.5	blank	1.0	126.10946702957153	
7	19.83523988723755	fix_post	2		12.0	5.0	2.5	blank	1.0	126.20934891700745	0.09993720054626465
8	19.935177087783813	fix_pre	0		14.0	6.0	2.5	/experiments/knapen_aot/videos/R_S_yt-CINajD_PVjQ_494.mp4	0.0	126.30928611755371	0.1166989803314209
8	20.04358196258545	response	0	2		6.0	2.5	/experiments/knapen_aot/videos/R_S_yt-CINajD_PVjQ_494.mp4	0.0	126.41769099235535	
8	20.051876068115234	movie	1		297.0	6.0	2.5	/experiments/knapen_aot/videos/R_S_yt-CINajD_PVjQ_494.mp4	0.0	126.42598509788513	2.5083539485931396
8	22.560230016708374	fix_post	2		12.0	6.0	2.5	/experiments/knapen_aot/videos/R_S_yt-CINajD_PVjQ_494.mp4	0.0	128.93433904647827	0.09994387626647949
9	22.660173892974854	fix_pre	0		23.0	7.0	2.5	/experiments/knapen_aot/videos/R_S_yt-JH6qCYAnX-I_70.mp4	0.0	129.03428292274475	0.19168710708618164
9	22.843700885772705	response	0	2		7.0	2.5	/experiments/knapen_aot/videos/R_S_yt-JH6qCYAnX-I_70.mp4	0.0	129.2178099155426	
9	22.851861000061035	movie	1		301.0	7.0	2.5	/experiments/knapen_aot/videos/R_S_yt-JH6qCYAnX-I_70.mp4	0.0	129.22597002983093	2.5084919929504395
9	25.360352993011475	fix_post	2		12.0	7.0	2.5	/experiments/knapen_aot/videos/R_S_yt-JH6qCYAnX-I_70.mp4	0.0	131.73446202278137	0.09983611106872559
10	25.4601891040802	fix_pre	0		110.0	8.0	2.5	/experiments/knapen_aot/videos/R_S_yt-fqbi4rGc9dk_65.mp4	0.0	131.8342981338501	0.9166769981384277
10	26.368738889694214	response	0	2		8.0	2.5	/experiments/knapen_aot/videos/R_S_yt-fqbi4rGc9dk_65.mp4	0.0	132.7428479194641	
10	26.376866102218628	movie	1		301.0	8.0	2.5	/experiments/knapen_aot/videos/R_S_yt-fqbi4rGc9dk_65.mp4	0.0	132.75097513198853	2.508410930633545
10	26.626998901367188	response	1	2		8.0	2.5	/experiments/knapen_aot/videos/R_S_yt-fqbi4rGc9dk_65.mp4	0.0	133.00110793113708	
10	28.885277032852173	fix_post	2		12.0	8.0	2.5	/experiments/knapen_aot/videos/R_S_yt-fqbi4rGc9dk_65.mp4	0.0	135.25938606262207	0.10014700889587402
11	28.985424041748047	fix_pre	0		24.0	9.0	2.5	/experiments/knapen_aot/videos/R_S_wc-lItGMdwvEd_l_7.mp4	0.0	135.35953307151794	0.19984793663024902
11	29.177042961120605	response	0	2		9.0	2.5	/experiments/knapen_aot/videos/R_S_wc-lItGMdwvEd_l_7.mp4	0.0	135.5511519908905	
11	29.185271978378296	movie	1		163.0	9.0	2.5	/experiments/knapen_aot/videos/R_S_wc-lItGMdwvEd_l_7.mp4	0.0	135.5593810081482	2.5082480907440186
11	31.693520069122314	fix_post	2		12.0	9.0	2.5	/experiments/knapen_aot/videos/R_S_wc-lItGMdwvEd_l_7.mp4	0.0	138.0676290988922	0.10001587867736816
12	31.793535947799683	fix_pre	0		9.0	10.0	2.5	/experiments/knapen_aot/videos/S_yt-F2x6e7e7cAE_70.mp4	0.0	138.16764497756958	0.07493805885314941
12	31.852720022201538	response	0	2		10.0	2.5	/experiments/knapen_aot/videos/S_yt-F2x6e7e7cAE_70.mp4	0.0	138.22682905197144	
12	31.868474006652832	movie	1		301.0	10.0	2.5	/experiments/knapen_aot/videos/S_yt-F2x6e7e7cAE_70.mp4	0.0	138.24258303642273	2.5084140300750732
12	34.376888036727905	fix_post	2		12.0	10.0	2.5	/experiments/knapen_aot/videos/S_yt-F2x6e7e7cAE_70.mp4	0.0	140.7509970664978	0.09997296333312988
13	34.476861000061035	fix_pre	0		89.0	11.0	2.5	/experiments/knapen_aot/videos/R_S_yt-i-1Gou9SA5U_3.mp4	0.0	140.85097002983093	0.7416598796844482
13	35.20284295082092	response	0	2		11.0	2.5	/experiments/knapen_aot/videos/R_S_yt-i-1Gou9SA5U_3.mp4	0.0	141.57695198059082	
13	35.21852087974548	movie	1		301.0	11.0	2.5	/experiments/knapen_aot/videos/R_S_yt-i-1Gou9SA5U_3.mp4	0.0	141.59262990951538	2.5084240436553955
13	37.72694492340088	fix_post	2		12.0	11.0	2.5	/experiments/knapen_aot/videos/R_S_yt-i-1Gou9SA5U_3.mp4	0.0	144.10105395317078	0.09990501403808594
14	37.826849937438965	fix_pre	0		22.0	12.0	2.5	blank	1.0	144.20095896720886	0.18331503868103027
14	38.0019268989563	response	0	2		12.0	2.5	blank	1.0	144.3760359287262	
14	38.010164976119995	movie	1		301.0	12.0	2.5	blank	1.0	144.3842740058899	2.5082669258117676
14	40.51843190193176	fix_post	2		12.0	12.0	2.5	blank	1.0	146.89254093170166	0.10004210472106934
15	40.61847400665283	fix_pre	0		17.0	13.0	2.5	/experiments/knapen_aot/videos/S_yt-npaE4fe6A6Y_26.mp4	0.0	146.99258303642273	0.14163708686828613
15	40.75194001197815	response	0	2		13.0	2.5	/experiments/knapen_aot/videos/S_yt-npaE4fe6A6Y_26.mp4	0.0	147.12604904174805	
15	40.76011109352112	movie	1		301.0	13.0	2.5	/experiments/knapen_aot/videos/S_yt-npaE4fe6A6Y_26.mp4	0.0	147.13422012329102	2.5083839893341064
15	43.268495082855225	fix_post	2		12.0	13.0	2.5	/experiments/knapen_aot/videos/S_yt-npaE4fe6A6Y_26.mp4	0.0	149.64260411262512	0.10000491142272949
16	43.368499994277954	fix_pre	0		27.0	14.0	2.5	/experiments/knapen_aot/videos/S_yt-tMP5WhHMtWE_55.mp4	0.0	149.74260902404785	0.22495794296264648
16	43.585241079330444	response	0	2		14.0	2.5	/experiments/knapen_aot/videos/S_yt-tMP5WhHMtWE_55.mp4	0.0	149.95935010910034	
16	43.5934579372406	movie	1		300.0	14.0	2.5	/experiments/knapen_aot/videos/S_yt-tMP5WhHMtWE_55.mp4	0.0	149.9675669670105	2.508303165435791
16	46.10176110267639	fix_post	2		12.0	14.0	2.5	/experiments/knapen_aot/videos/S_yt-tMP5WhHMtWE_55.mp4	0.0	152.4758701324463	0.10000395774841309
17	46.201765060424805	fix_pre	0		29.0	15.0	2.5	/experiments/knapen_aot/videos/S_yt-fnE8kgUHUMI_64.mp4	0.0	152.5758740901947	0.24172687530517578
17	46.43520998954773	response	0	2		15.0	2.5	/experiments/knapen_aot/videos/S_yt-fnE8kgUHUMI_64.mp4	0.0	152.80931901931763	
17	46.44349193572998	movie	1		301.0	15.0	2.5	/experiments/knapen_aot/videos/S_yt-fnE8kgUHUMI_64.mp4	0.0	152.81760096549988	2.508286952972412
17	48.95177888870239	fix_post	2		12.0	15.0	2.5	/experiments/knapen_aot/videos/S_yt-fnE8kgUHUMI_64.mp4	0.0	155.3258879184723	0.09993720054626465
18	49.05171608924866	fix_pre	0		90.0	16.0	2.5	/experiments/knapen_aot/videos/R_S_yt-ObT9gF8E_tU_250.mp4	0.0	155.42582511901855	0.7500119209289551
18	49.79360795021057	response	0	2		16.0	2.5	/experiments/knapen_aot/videos/R_S_yt-ObT9gF8E_tU_250.mp4	0.0	156.16771697998047	
18	49.80172801017761	movie	1		301.0	16.0	2.5	/experiments/knapen_aot/videos/R_S_yt-ObT9gF8E_tU_250.mp4	0.0	156.1758370399475	2.5084409713745117
18	52.310168981552124	fix_post	2		12.0	16.0	2.5	/experiments/knapen_aot/videos/R_S_yt-ObT9gF8E_tU_250.mp4	0.0	158.68427801132202	0.09993505477905273
19	52.41010403633118	fix_pre	0		170.0	17.0	2.5	/experiments/knapen_aot/videos/R_S_cST9H3zu3zQ_126.mp4	0.0	158.78421306610107	1.416640043258667
19	53.818572998046875	response	0	2		17.0	2.5	/experiments/knapen_aot/videos/R_S_cST9H3zu3zQ_126.mp4	0.0	160.19268202781677	
19	53.826744079589844	movie	1		301.0	17.0	2.5	/experiments/knapen_aot/videos/R_S_cST9H3zu3zQ_126.mp4	0.0	160.20085310935974	2.5082848072052
19	56.335028886795044	fix_post	2		12.0	17.0	2.5	/experiments/knapen_aot/videos/R_S_cST9H3zu3zQ_126.mp4	0.0	162.70913791656494	0.10009503364562988
20	56.435123920440674	fix_pre	0		163.0	18.0	2.5	/experiments/knapen_aot/videos/R_S_yt-9CY7rDYBYUI_40.mp4	0.0	162.80923295021057	1.3582179546356201
20	57.785237073898315	response	0	2		18.0	2.5	/experiments/knapen_aot/videos/R_S_yt-9CY7rDYBYUI_40.mp4	0.0	164.1593461036682	
20	57.793341875076294	movie	1		301.0	18.0	2.5	/experiments/knapen_aot/videos/R_S_yt-9CY7rDYBYUI_40.mp4	0.0	164.1674509048462	2.508409023284912
20	60.301750898361206	fix_post	2		12.0	18.0	2.5	/experiments/knapen_aot/videos/R_S_yt-9CY7rDYBYUI_40.mp4	0.0	166.6758599281311	0.1000070571899414
21	60.40175795555115	fix_pre	0		70.0	19.0	2.5	/experiments/knapen_aot/videos/R_S_yt-QQPv17nfR_E_2.mp4	0.0	166.77586698532104	0.5832500457763672
21	60.97685408592224	response	0	2		19.0	2.5	/experiments/knapen_aot/videos/R_S_yt-QQPv17nfR_E_2.mp4	0.0	167.35096311569214	
21	60.985008001327515	movie	1		298.0	19.0	2.5	/experiments/knapen_aot/videos/R_S_yt-QQPv17nfR_E_2.mp4	0.0	167.3591170310974	2.508378028869629
21	63.493386030197144	fix_post	2		12.0	19.0	2.5	/experiments/knapen_aot/videos/R_S_yt-QQPv17nfR_E_2.mp4	0.0	169.86749505996704	0.0999748706817627
22	63.593360900878906	fix_pre	0		11.0	20.0	2.5	blank	1.0	169.9674699306488	0.09163713455200195
22	63.66939997673035	response	0	2		20.0	2.5	blank	1.0	170.04350900650024	
22	63.68499803543091	movie	1		301.0	20.0	2.5	blank	1.0	170.0591070652008	2.50834584236145
22	65.58512306213379	response	1	2		20.0	2.5	blank	1.0	171.9592320919037	
22	66.19334387779236	fix_post	2		12.0	20.0	2.5	blank	1.0	172.56745290756226	0.10003519058227539
23	66.29337906837463	fix_pre	0		18.0	21.0	2.5	/experiments/knapen_aot/videos/R_S_yt-UPgF4YAHBQY_33.mp4	0.0	172.66748809814453	0.14998197555541992
23	66.4352159500122	response	0	2		21.0	2.5	/experiments/knapen_aot/videos/R_S_yt-UPgF4YAHBQY_33.mp4	0.0	172.8093249797821	
23	66.44336104393005	movie	1		301.0	21.0	2.5	/experiments/knapen_aot/videos/R_S_yt-UPgF4YAHBQY_33.mp4	0.0	172.81747007369995	2.5083420276641846
23	68.95170307159424	fix_post	2		12.0	21.0	2.5	/experiments/knapen_aot/videos/R_S_yt-UPgF4YAHBQY_33.mp4	0.0	175.32581210136414	0.09995484352111816
24	69.05165791511536	fix_pre	0		18.0	22.0	2.5	/experiments/knapen_aot/videos/R_S_yt-fqbi4rGc9dk_65.mp4	0.0	175.42576694488525	0.1500999927520752
24	69.19346904754639	response	0	2		22.0	2.5	/experiments/knapen_aot/videos/R_S_yt-fqbi4rGc9dk_65.mp4	0.0	175.56757807731628	
24	69.20175790786743	movie	1		300.0	22.0	2.5	/experiments/knapen_aot/videos/R_S_yt-fqbi4rGc9dk_65.mp4	0.0	175.57586693763733	2.508294105529785
24	71.71005201339722	fix_post	2		12.0	22.0	2.5	/experiments/knapen_aot/videos/R_S_yt-fqbi4rGc9dk_65.mp4	0.0	178.08416104316711	0.10001802444458008
25	71.8100700378418	fix_pre	0		75.0	23.0	2.5	/experiments/knapen_aot/videos/R_S_yt-W00vtWnXgIk_73.mp4	0.0	178.1841790676117	0.6262960433959961
25	72.42687487602234	response	0	2		23.0	2.5	/experiments/knapen_aot/videos/R_S_yt-W00vtWnXgIk_73.mp4	0.0	178.80098390579224	
25	72.4363660812378	movie	1		301.0	23.0	2.5	/experiments/knapen_aot/videos/R_S_yt-W00vtWnXgIk_73.mp4	0.0	178.8104751110077	2.5070269107818604
25	74.94339299201965	fix_post	2		12.0	23.0	2.5	/experiments/knapen_aot/videos/R_S_yt-W00vtWnXgIk_73.mp4	0.0	181.31750202178955	0.10009598731994629
26	75.0434889793396	fix_pre	0		16.0	24.0	2.5	/experiments/knapen_aot/videos/R_S_yt-H-qQ0oE1kwM_6.mp4	0.0	181.4175980091095	0.13316702842712402
26	75.16847491264343	response	0	2		24.0	2.5	/experiments/knapen_aot/videos/R_S_yt-H-qQ0oE1kwM_6.mp4	0.0	181.54258394241333	
26	75.17665600776672	movie	1		301.0	24.0	2.5	/experiments/knapen_aot/videos/R_S_yt-H-qQ0oE1kwM_6.mp4	0.0	181.55076503753662	2.5083720684051514
26	77.68502807617188	fix_post	2		12.0	24.0	2.5	/experiments/knapen_aot/videos/R_S_yt-H-qQ0oE1kwM_6.mp4	0.0	184.05913710594177	0.1000068187713623
27	77.78503489494324	fix_pre	0		5.0	25.0	2.5	/experiments/knapen_aot/videos/S_yt-jbvXEFk2Gyw_12.mp4	0.0	184.15914392471313	0.04166603088378906
27	77.81850910186768	response	0	2		25.0	2.5	/experiments/knapen_aot/videos/S_yt-jbvXEFk2Gyw_12.mp4	0.0	184.19261813163757	
27	77.82670092582703	movie	1		301.0	25.0	2.5	/experiments/knapen_aot/videos/S_yt-jbvXEFk2Gyw_12.mp4	0.0	184.20080995559692	2.508296012878418
27	80.33499693870544	fix_post	2		12.0	25.0	2.5	/experiments/knapen_aot/videos/S_yt-jbvXEFk2Gyw_12.mp4	0.0	186.70910596847534	0.09990906715393066
28	80.43490600585938	fix_pre	0		26.0	26.0	2.5	/experiments/knapen_aot/videos/S_yt-QQPv17nfR_E_2.mp4	0.0	186.80901503562927	0.21669888496398926
28	80.64338898658752	response	0	2		26.0	2.5	/experiments/knapen_aot/videos/S_yt-QQPv17nfR_E_2.mp4	0.0	187.01749801635742	
28	80.65160489082336	movie	1		301.0	26.0	2.5	/experiments/knapen_aot/videos/S_yt-QQPv17nfR_E_2.mp4	0.0	187.02571392059326	2.508470058441162
28	83.16007494926453	fix_post	2		12.0	26.0	2.5	/experiments/knapen_aot/videos/S_yt-QQPv17nfR_E_2.mp4	0.0	189.53418397903442	0.09988903999328613
29	83.25996398925781	fix_pre	0		119.0	27.0	2.5	/experiments/knapen_aot/videos/S_ILSVRC2015_train_00479002.mp4	0.0	189.6340730190277	0.9916269779205322
29	84.23591804504395	response	0	2		27.0	2.5	/experiments/knapen_aot/videos/S_ILSVRC2015_train_00479002.mp4	0.0	190.61002707481384	
29	84.25159096717834	movie	1		301.0	27.0	2.5	/experiments/knapen_aot/videos/S_ILSVRC2015_train_00479002.mp4	0.0	190.62569999694824	2.5083911418914795
29	86.75998210906982	fix_post	2		12.0	27.0	2.5	/experiments/knapen_aot/videos/S_ILSVRC2015_train_00479002.mp4	0.0	193.13409113883972	0.09996795654296875
30	86.8599500656128	fix_pre	0		25.0	28.0	2.5	blank	1.0	193.2340590953827	0.20827698707580566
30	87.0600700378418	response	0	2		28.0	2.5	blank	1.0	193.4341790676117	
30	87.0682270526886	movie	1		301.0	28.0	2.5	blank	1.0	193.4423360824585	2.508388042449951
30	89.57661509513855	fix_post	2		12.0	28.0	2.5	blank	1.0	195.95072412490845	0.0999908447265625
31	89.67660593986511	fix_pre	0		26.0	29.0	2.5	/experiments/knapen_aot/videos/R_S_yt-oVrkSsEpuvk_118.mp4	0.0	196.050714969635	0.21788907051086426
31	89.88511610031128	response	0	2		29.0	2.5	/experiments/knapen_aot/videos/R_S_yt-oVrkSsEpuvk_118.mp4	0.0	196.25922513008118	
31	89.89449501037598	movie	1		301.0	29.0	2.5	/experiments/knapen_aot/videos/R_S_yt-oVrkSsEpuvk_118.mp4	0.0	196.26860404014587	2.5071189403533936
31	92.40161395072937	fix_post	2		12.0	29.0	2.5	/experiments/knapen_aot/videos/R_S_yt-oVrkSsEpuvk_118.mp4	0.0	198.77572298049927	0.09998607635498047
32	92.50160002708435	fix_pre	0		15.0	30.0	2.5	/experiments/knapen_aot/videos/R_S_yt-be7r-ha8BpA_1045.mp4	0.0	198.87570905685425	0.12496805191040039
32	92.61834192276001	response	0	2		30.0	2.5	/experiments/knapen_aot/videos/R_S_yt-be7r-ha8BpA_1045.mp4	0.0	198.9924509525299	
32	92.62656807899475	movie	1		301.0	30.0	2.5	/experiments/knapen_aot/videos/R_S_yt-be7r-ha8BpA_1045.mp4	0.0	199.00067710876465	2.5083179473876953
32	95.13488602638245	fix_post	2		12.0	30.0	2.5	/experiments/knapen_aot/videos/R_S_yt-be7r-ha8BpA_1045.mp4	0.0	201.50899505615234	0.1000368595123291
33	95.23492288589478	fix_pre	0		13.0	31.0	2.5	/experiments/knapen_aot/videos/R_S_yt-j3Sk8ZnAiEA_32.mp4	0.0	201.60903191566467	0.10831499099731445
33	95.33506608009338	response	0	2		31.0	2.5	/experiments/knapen_aot/videos/R_S_yt-j3Sk8ZnAiEA_32.mp4	0.0	201.70917510986328	
33	95.34323787689209	movie	1		301.0	31.0	2.5	/experiments/knapen_aot/videos/R_S_yt-j3Sk8ZnAiEA_32.mp4	0.0	201.717346906662	2.5084750652313232
33	97.85171294212341	fix_post	2		12.0	31.0	2.5	/experiments/knapen_aot/videos/R_S_yt-j3Sk8ZnAiEA_32.mp4	0.0	204.2258219718933	0.09988594055175781
34	97.95159888267517	fix_pre	0		12.0	32.0	2.5	/experiments/knapen_aot/videos/S_yt-KpOAdMtPGFs_17.mp4	0.0	204.32570791244507	0.09998106956481934
34	98.04333710670471	response	0	2		32.0	2.5	/experiments/knapen_aot/videos/S_yt-KpOAdMtPGFs_17.mp4	0.0	204.4174461364746	
34	98.05157995223999	movie	1		301.0	32.0	2.5	/experiments/knapen_aot/videos/S_yt-KpOAdMtPGFs_17.mp4	0.0	204.4256889820099	2.50826096534729
34	100.55984091758728	fix_post	2		12.0	32.0	2.5	/experiments/knapen_aot/videos/S_yt-KpOAdMtPGFs_17.mp4	0.0	206.93394994735718	0.09994196891784668
35	100.65978288650513	fix_pre	0		73.0	33.0	2.5	/experiments/knapen_aot/videos/S_yt-n1snPiGfg0A_45.mp4	0.0	207.03389191627502	0.6095831394195557
35	101.26001501083374	response	0	2		33.0	2.5	/experiments/knapen_aot/videos/S_yt-n1snPiGfg0A_45.mp4	0.0	207.63412404060364	
35	101.26936602592468	movie	1		301.0	33.0	2.5	/experiments/knapen_aot/videos/S_yt-n1snPiGfg0A_45.mp4	0.0	207.64347505569458	2.5072240829467773
35	103.77659010887146	fix_post	2		12.0	33.0	2.5	/experiments/knapen_aot/videos/S_yt-n1snPiGfg0A_45.mp4	0.0	210.15069913864136	0.0999917984008789
36	103.87658190727234	fix_pre	0		29.0	34.0	2.5	/experiments/knapen_aot/videos/S_yt-oVS_k_9upmo_205.mp4	0.0	210.25069093704224	0.24164319038391113
36	104.11002898216248	response	0	2		34.0	2.5	/experiments/knapen_aot/videos/S_yt-oVS_k_9upmo_205.mp4	0.0	210.48413801193237	
36	104.11822509765625	movie	1		301.0	34.0	2.5	/experiments/knapen_aot/videos/S_yt-oVS_k_9upmo_205.mp4	0.0	210.49233412742615	2.508417844772339
36	106.62664294242859	fix_post	2		12.0	34.0	2.5	/experiments/knapen_aot/videos/S_yt-oVS_k_9upmo_205.mp4	0.0	213.0007519721985	0.09992814064025879
37	106.72657108306885	fix_pre	0		93.0	35.0	2.5	blank	1.0	213.10068011283875	0.7750258445739746
37	107.48598003387451	response	0	2		35.0	2.5	blank	1.0	213.8600890636444	
37	107.50159692764282	movie	1		301.0	35.0	2.5	blank	1.0	213.87570595741272	2.5083179473876953
37	110.00991487503052	fix_post	2		12.0	35.0	2.5	blank	1.0	216.38402390480042	0.0999600887298584
38	110.10987496376038	fix_pre	0		29.0	36.0	2.5	/experiments/knapen_aot/videos/R_S_comp_A105_C002_v06_SDR_FINAL_25062018_SDR_2K_AVC.mp4	0.0	216.48398399353027	0.2427680492401123
38	110.34333395957947	response	0	2		36.0	2.5	/experiments/knapen_aot/videos/R_S_comp_A105_C002_v06_SDR_FINAL_25062018_SDR_2K_AVC.mp4	0.0	216.71744298934937	
38	110.35264301300049	movie	1		165.0	36.0	2.5	/experiments/knapen_aot/videos/R_S_comp_A105_C002_v06_SDR_FINAL_25062018_SDR_2K_AVC.mp4	0.0	216.72675204277039	2.5071818828582764
38	112.85982489585876	fix_post	2		12.0	36.0	2.5	/experiments/knapen_aot/videos/R_S_comp_A105_C002_v06_SDR_FINAL_25062018_SDR_2K_AVC.mp4	0.0	219.23393392562866	0.10000205039978027
39	112.95982694625854	fix_pre	0		58.0	37.0	2.5	/experiments/knapen_aot/videos/R_S_yt-aSEKRE_FNaI_62.mp4	0.0	219.33393597602844	0.48331308364868164
39	113.43493795394897	response	0	2		37.0	2.5	/experiments/knapen_aot/videos/R_S_yt-aSEKRE_FNaI_62.mp4	0.0	219.80904698371887	
39	113.44314002990723	movie	1		301.0	37.0	2.5	/experiments/knapen_aot/videos/R_S_yt-aSEKRE_FNaI_62.mp4	0.0	219.81724905967712	2.508368968963623
39	115.95150899887085	fix_post	2		12.0	37.0	2.5	/experiments/knapen_aot/videos/R_S_yt-aSEKRE_FNaI_62.mp4	0.0	222.32561802864075	0.09997987747192383
40	116.05148887634277	fix_pre	0		33.0	38.0	2.5	/experiments/knapen_aot/videos/R_S_bing-www_yahoo_com_entertainment_anastasia-karanikolaou-chantel-jeffries-discuss-182400502_html_9.mp4	0.0	222.42559790611267	0.2749950885772705
40	116.31824803352356	response	0	2		38.0	2.5	/experiments/knapen_aot/videos/R_S_bing-www_yahoo_com_entertainment_anastasia-karanikolaou-chantel-jeffries-discuss-182400502_html_9.mp4	0.0	222.69235706329346	
40	116.32648396492004	movie	1		166.0	38.0	2.5	/experiments/knapen_aot/videos/R_S_bing-www_yahoo_com_entertainment_anastasia-karanikolaou-chantel-jeffries-discuss-182400502_html_9.mp4	0.0	222.70059299468994	2.5083229541778564
40	118.8348069190979	fix_post	2		12.0	38.0	2.5	/experiments/knapen_aot/videos/R_S_bing-www_yahoo_com_entertainment_anastasia-karanikolaou-chantel-jeffries-discuss-182400502_html_9.mp4	0.0	225.2089159488678	0.10004997253417969
41	118.93485689163208	fix_pre	0		1.0	39.0	2.5	/experiments/knapen_aot/videos/S_-IkGMlLHrOI_108.mp4	0.0	225.30896592140198	0.008367061614990234
41	118.93648290634155	response	0	2		39.0	2.5	/experiments/knapen_aot/videos/S_-IkGMlLHrOI_108.mp4	0.0	225.31059193611145	
41	118.94322395324707	movie	1		301.0	39.0	2.5	/experiments/knapen_aot/videos/S_-IkGMlLHrOI_108.mp4	0.0	225.31733298301697	2.5082449913024902
41	121.45146894454956	fix_post	2		12.0	39.0	2.5	/experiments/knapen_aot/videos/S_-IkGMlLHrOI_108.mp4	0.0	227.82557797431946	0.10253214836120605
41	121.54324388504028	response	2	2		39.0	2.5	/experiments/knapen_aot/videos/S_-IkGMlLHrOI_108.mp4	0.0	227.91735291481018	
42	121.55400109291077	fix_pre	0		76.0	40.0	2.5	blank	1.0	227.92811012268066	0.6307418346405029
42	122.16921210289001	response	0	2		40.0	2.5	blank	1.0	228.5433211326599	
42	122.18474292755127	movie	1		301.0	40.0	2.5	blank	1.0	228.55885195732117	2.5083160400390625
42	124.69305896759033	fix_post	2		12.0	40.0	2.5	blank	1.0	231.06716799736023	0.09995913505554199
43	124.79301810264587	fix_pre	0		69.0	41.0	2.5	/experiments/knapen_aot/videos/S_yt-_Hnr82bYGEQ_103.mp4	0.0	231.16712713241577	0.5750858783721924
43	125.3598120212555	response	0	2		41.0	2.5	/experiments/knapen_aot/videos/S_yt-_Hnr82bYGEQ_103.mp4	0.0	231.7339210510254	
43	125.36810398101807	movie	1		299.0	41.0	2.5	/experiments/knapen_aot/videos/S_yt-_Hnr82bYGEQ_103.mp4	0.0	231.74221301078796	2.5083279609680176
43	127.87643194198608	fix_post	2		12.0	41.0	2.5	/experiments/knapen_aot/videos/S_yt-_Hnr82bYGEQ_103.mp4	0.0	234.25054097175598	0.09997010231018066
44	127.97640204429626	fix_pre	0		19.0	42.0	2.5	/experiments/knapen_aot/videos/R_S_-IkGMlLHrOI_108.mp4	0.0	234.35051107406616	0.15834903717041016
44	128.12650609016418	response	0	2		42.0	2.5	/experiments/knapen_aot/videos/R_S_-IkGMlLHrOI_108.mp4	0.0	234.50061511993408	
44	128.13475108146667	movie	1		301.0	42.0	2.5	/experiments/knapen_aot/videos/R_S_-IkGMlLHrOI_108.mp4	0.0	234.50886011123657	2.5083539485931396
44	130.64310503005981	fix_post	2		12.0	42.0	2.5	/experiments/knapen_aot/videos/R_S_-IkGMlLHrOI_108.mp4	0.0	237.0172140598297	0.10001587867736816
45	130.74312090873718	fix_pre	0		10.0	43.0	2.5	/experiments/knapen_aot/videos/R_S_yt-c5_SFS4aaJI_1102.mp4	0.0	237.11722993850708	0.08331298828125
45	130.81073307991028	response	0	2		43.0	2.5	/experiments/knapen_aot/videos/R_S_yt-c5_SFS4aaJI_1102.mp4	0.0	237.18484210968018	
45	130.82643389701843	movie	1		299.0	43.0	2.5	/experiments/knapen_aot/videos/R_S_yt-c5_SFS4aaJI_1102.mp4	0.0	237.20054292678833	2.5083320140838623
45	133.3347659111023	fix_post	2		12.0	43.0	2.5	/experiments/knapen_aot/videos/R_S_yt-c5_SFS4aaJI_1102.mp4	0.0	239.7088749408722	0.0999600887298584
46	133.43472599983215	fix_pre	0		81.0	44.0	2.5	/experiments/knapen_aot/videos/S_DV6V38rplag_215.mp4	0.0	239.80883502960205	0.6750359535217285
46	134.10154104232788	response	0	2		44.0	2.5	/experiments/knapen_aot/videos/S_DV6V38rplag_215.mp4	0.0	240.47565007209778	
46	134.10976195335388	movie	1		301.0	44.0	2.5	/experiments/knapen_aot/videos/S_DV6V38rplag_215.mp4	0.0	240.48387098312378	2.5083329677581787
46	136.61809492111206	fix_post	2		12.0	44.0	2.5	/experiments/knapen_aot/videos/S_DV6V38rplag_215.mp4	0.0	242.99220395088196	0.0998849868774414
47	136.7179799079895	fix_pre	0		14.0	45.0	2.5	/experiments/knapen_aot/videos/R_S_yt-O6W6CZPXvlA_15.mp4	0.0	243.0920889377594	0.11674213409423828
47	136.82650709152222	response	0	2		45.0	2.5	/experiments/knapen_aot/videos/R_S_yt-O6W6CZPXvlA_15.mp4	0.0	243.20061612129211	
47	136.83472204208374	movie	1		301.0	45.0	2.5	/experiments/knapen_aot/videos/R_S_yt-O6W6CZPXvlA_15.mp4	0.0	243.20883107185364	2.508301019668579
47	139.34302306175232	fix_post	2		12.0	45.0	2.5	/experiments/knapen_aot/videos/R_S_yt-O6W6CZPXvlA_15.mp4	0.0	245.71713209152222	0.09998798370361328
48	139.44301104545593	fix_pre	0		11.0	46.0	2.5	/experiments/knapen_aot/videos/R_S_yt-J2PiBa1MXI0_210.mp4	0.0	245.81712007522583	0.09172582626342773
48	139.52664589881897	response	0	2		46.0	2.5	/experiments/knapen_aot/videos/R_S_yt-J2PiBa1MXI0_210.mp4	0.0	245.90075492858887	
48	139.53473687171936	movie	1		301.0	46.0	2.5	/experiments/knapen_aot/videos/R_S_yt-J2PiBa1MXI0_210.mp4	0.0	245.90884590148926	2.5082921981811523
48	142.0430290699005	fix_post	2		12.0	46.0	2.5	/experiments/knapen_aot/videos/R_S_yt-J2PiBa1MXI0_210.mp4	0.0	248.4171380996704	0.09991192817687988
49	142.1429409980774	fix_pre	0		28.0	47.0	2.5	/experiments/knapen_aot/videos/S_yt-BlWfK4MkjWA_469.mp4	0.0	248.5170500278473	0.23339295387268066
49	142.3681709766388	response	0	2		47.0	2.5	/experiments/knapen_aot/videos/S_yt-BlWfK4MkjWA_469.mp4	0.0	248.7422800064087	
49	142.37633395195007	movie	1		301.0	47.0	2.5	/experiments/knapen_aot/videos/S_yt-BlWfK4MkjWA_469.mp4	0.0	248.75044298171997	2.5083401203155518
49	144.88467407226562	fix_post	2		12.0	47.0	2.5	/experiments/knapen_aot/videos/S_yt-BlWfK4MkjWA_469.mp4	0.0	251.25878310203552	0.0999288558959961
50	144.98460292816162	fix_pre	0		19.0	48.0	2.5	blank	1.0	251.35871195793152	0.1593930721282959
50	145.13488698005676	response	0	2		48.0	2.5	blank	1.0	251.50899600982666	
50	145.14399600028992	movie	1		301.0	48.0	2.5	blank	1.0	251.51810503005981	2.5073330402374268
50	147.37644696235657	response	1	2		48.0	2.5	blank	1.0	253.75055599212646	
50	147.65132904052734	fix_post	2		12.0	48.0	2.5	blank	1.0	254.02543807029724	0.09994292259216309
51	147.7512719631195	fix_pre	0		18.0	49.0	2.5	/experiments/knapen_aot/videos/R_S_yt-9aKqMX9IHPg_242.mp4	0.0	254.1253809928894	0.1500411033630371
51	147.89310002326965	response	0	2		49.0	2.5	/experiments/knapen_aot/videos/R_S_yt-9aKqMX9IHPg_242.mp4	0.0	254.26720905303955	
51	147.90131306648254	movie	1		301.0	49.0	2.5	/experiments/knapen_aot/videos/R_S_yt-9aKqMX9IHPg_242.mp4	0.0	254.27542209625244	2.5083348751068115
51	150.40964794158936	fix_post	2		12.0	49.0	2.5	/experiments/knapen_aot/videos/R_S_yt-9aKqMX9IHPg_242.mp4	0.0	256.78375697135925	0.10002803802490234
52	150.50967597961426	fix_pre	0		74.0	50.0	2.5	/experiments/knapen_aot/videos/R_S_yt-Q5Mfl5NdT7g_3.mp4	0.0	256.88378500938416	0.616657018661499
52	151.11813807487488	response	0	2		50.0	2.5	/experiments/knapen_aot/videos/R_S_yt-Q5Mfl5NdT7g_3.mp4	0.0	257.4922471046448	
52	151.12633299827576	movie	1		300.0	50.0	2.5	/experiments/knapen_aot/videos/R_S_yt-Q5Mfl5NdT7g_3.mp4	0.0	257.50044202804565	2.5082900524139404
52	153.6346230506897	fix_post	2		12.0	50.0	2.5	/experiments/knapen_aot/videos/R_S_yt-Q5Mfl5NdT7g_3.mp4	0.0	260.0087320804596	0.10003495216369629
52	153.6931710243225	response	2	2		50.0	2.5	/experiments/knapen_aot/videos/R_S_yt-Q5Mfl5NdT7g_3.mp4	0.0	260.0672800540924	
53	153.7346580028534	fix_pre	0		36.0	51.0	2.5	/experiments/knapen_aot/videos/R_S_yt-QQPv17nfR_E_2.mp4	0.0	260.1087670326233	0.3000020980834961
53	154.02642607688904	response	0	2		51.0	2.5	/experiments/knapen_aot/videos/R_S_yt-QQPv17nfR_E_2.mp4	0.0	260.40053510665894	
53	154.0346601009369	movie	1		301.0	51.0	2.5	/experiments/knapen_aot/videos/R_S_yt-QQPv17nfR_E_2.mp4	0.0	260.4087691307068	2.5083858966827393
53	156.54304599761963	fix_post	2		12.0	51.0	2.5	/experiments/knapen_aot/videos/R_S_yt-QQPv17nfR_E_2.mp4	0.0	262.9171550273895	0.0999600887298584
54	156.6430060863495	fix_pre	0		60.0	52.0	2.5	/experiments/knapen_aot/videos/S_Y004_C015_SDR_2K_AVC.mp4	0.0	263.0171151161194	0.500870943069458
54	157.1347839832306	response	0	2		52.0	2.5	/experiments/knapen_aot/videos/S_Y004_C015_SDR_2K_AVC.mp4	0.0	263.5088930130005	
54	157.14387702941895	movie	1		165.0	52.0	2.5	/experiments/knapen_aot/videos/S_Y004_C015_SDR_2K_AVC.mp4	0.0	263.51798605918884	2.5073599815368652
54	159.6512370109558	fix_post	2		12.0	52.0	2.5	/experiments/knapen_aot/videos/S_Y004_C015_SDR_2K_AVC.mp4	0.0	266.0253460407257	0.10012388229370117
55	159.7513608932495	fix_pre	0		4.0	53.0	2.5	/experiments/knapen_aot/videos/R_S_Y004_C015_SDR_2K_AVC.mp4	0.0	266.1254699230194	0.033274173736572266
55	159.77642107009888	response	0	2		53.0	2.5	/experiments/knapen_aot/videos/R_S_Y004_C015_SDR_2K_AVC.mp4	0.0	266.1505300998688	
55	159.78463506698608	movie	1		170.0	53.0	2.5	/experiments/knapen_aot/videos/R_S_Y004_C015_SDR_2K_AVC.mp4	0.0	266.158744096756	2.5083110332489014
55	162.29294610023499	fix_post	2		12.0	53.0	2.5	/experiments/knapen_aot/videos/R_S_Y004_C015_SDR_2K_AVC.mp4	0.0	268.6670551300049	0.10003995895385742
56	162.39298605918884	fix_pre	0		3.0	54.0	2.5	/experiments/knapen_aot/videos/S_yt-5DD4XtHSA9Q_171.mp4	0.0	268.76709508895874	0.025064945220947266
56	162.4102659225464	response	0	2		54.0	2.5	/experiments/knapen_aot/videos/S_yt-5DD4XtHSA9Q_171.mp4	0.0	268.7843749523163	
56	162.4180510044098	movie	1		300.0	54.0	2.5	/experiments/knapen_aot/videos/S_yt-5DD4XtHSA9Q_171.mp4	0.0	268.7921600341797	2.508117914199829
56	164.92616891860962	fix_post	2		12.0	54.0	2.5	/experiments/knapen_aot/videos/S_yt-5DD4XtHSA9Q_171.mp4	0.0	271.3002779483795	0.100128173828125
57	165.02629709243774	fix_pre	0		30.0	55.0	2.5	blank	1.0	271.40040612220764	0.24997782707214355
57	165.26802492141724	response	0	2		55.0	2.5	blank	1.0	271.64213395118713	
57	165.2762749195099	movie	1		301.0	55.0	2.5	blank	1.0	271.6503839492798	2.5082550048828125
57	166.81803393363953	response	1	2		55.0	2.5	blank	1.0	273.1921429634094	
57	167.25132203102112	response	1	2		55.0	2.5	blank	1.0	273.625431060791	
57	167.7346489429474	response	1	2		55.0	2.5	blank	1.0	274.1087579727173	
57	167.7845299243927	fix_post	2		12.0	55.0	2.5	blank	1.0	274.1586389541626	0.10008406639099121
58	167.8846139907837	fix_pre	0		37.0	56.0	2.5	/experiments/knapen_aot/videos/R_S_video_inspire_sanfrancisco_castro_005.1080-h264.mp4	0.0	274.2587230205536	0.3083369731903076
58	168.18474793434143	response	0	2		56.0	2.5	/experiments/knapen_aot/videos/R_S_video_inspire_sanfrancisco_castro_005.1080-h264.mp4	0.0	274.5588569641113	
58	168.192950963974	movie	1		167.0	56.0	2.5	/experiments/knapen_aot/videos/R_S_video_inspire_sanfrancisco_castro_005.1080-h264.mp4	0.0	274.5670599937439	2.508310079574585
58	170.70126104354858	fix_post	2		12.0	56.0	2.5	/experiments/knapen_aot/videos/R_S_video_inspire_sanfrancisco_castro_005.1080-h264.mp4	0.0	277.0753700733185	0.10004496574401855
59	170.8013060092926	fix_pre	0		25.0	57.0	2.5	/experiments/knapen_aot/videos/S_yt-H-qQ0oE1kwM_6.mp4	0.0	277.1754150390625	0.2083110809326172
59	171.00139689445496	response	0	2		57.0	2.5	/experiments/knapen_aot/videos/S_yt-H-qQ0oE1kwM_6.mp4	0.0	277.37550592422485	
59	171.00961709022522	movie	1		301.0	57.0	2.5	/experiments/knapen_aot/videos/S_yt-H-qQ0oE1kwM_6.mp4	0.0	277.3837261199951	2.5083048343658447
59	173.51792192459106	fix_post	2		12.0	57.0	2.5	/experiments/knapen_aot/videos/S_yt-H-qQ0oE1kwM_6.mp4	0.0	279.89203095436096	0.09998917579650879
60	173.61791110038757	fix_pre	0		38.0	58.0	2.5	/experiments/knapen_aot/videos/R_S_ILSVRC2015_train_00574000.mp4	0.0	279.99202013015747	0.31747889518737793
60	173.9262580871582	response	0	2		58.0	2.5	/experiments/knapen_aot/videos/R_S_ILSVRC2015_train_00574000.mp4	0.0	280.3003671169281	
60	173.93538999557495	movie	1		301.0	58.0	2.5	/experiments/knapen_aot/videos/R_S_ILSVRC2015_train_00574000.mp4	0.0	280.30949902534485	2.5074849128723145
60	176.28468108177185	response	1	2		58.0	2.5	/experiments/knapen_aot/videos/R_S_ILSVRC2015_train_00574000.mp4	0.0	282.65879011154175	
60	176.44287490844727	fix_post	2		12.0	58.0	2.5	/experiments/knapen_aot/videos/R_S_ILSVRC2015_train_00574000.mp4	0.0	282.81698393821716	0.100128173828125
61	176.5430030822754	fix_pre	0		30.0	59.0	2.5	/experiments/knapen_aot/videos/R_S_yt-7NjoFHBdP7c_102.mp4	0.0	282.9171121120453	0.2498619556427002
61	176.78460597991943	response	0	2		59.0	2.5	/experiments/knapen_aot/videos/R_S_yt-7NjoFHBdP7c_102.mp4	0.0	283.15871500968933	
61	176.7928650379181	movie	1		300.0	59.0	2.5	/experiments/knapen_aot/videos/R_S_yt-7NjoFHBdP7c_102.mp4	0.0	283.166974067688	2.508296012878418
61	179.3011610507965	fix_post	2		12.0	59.0	2.5	/experiments/knapen_aot/videos/R_S_yt-7NjoFHBdP7c_102.mp4	0.0	285.6752700805664	0.1000058650970459
62	179.40116691589355	fix_pre	0		11.0	60.0	2.5	/experiments/knapen_aot/videos/S_ILSVRC2015_train_00457000.mp4	0.0	285.77527594566345	0.09170699119567871
62	179.47704601287842	response	0	2		60.0	2.5	/experiments/knapen_aot/videos/S_ILSVRC2015_train_00457000.mp4	0.0	285.8511550426483	
62	179.49287390708923	movie	1		301.0	60.0	2.5	/experiments/knapen_aot/videos/S_ILSVRC2015_train_00457000.mp4	0.0	285.86698293685913	2.5083141326904297
62	182.00118803977966	fix_post	2		12.0	60.0	2.5	/experiments/knapen_aot/videos/S_ILSVRC2015_train_00457000.mp4	0.0	288.37529706954956	0.09998798370361328
63	182.10117602348328	fix_pre	0		89.0	61.0	2.5	/experiments/knapen_aot/videos/R_S_pexels-mikhail-nilov-8410088.mp4	0.0	288.4752850532532	0.7416908740997314
63	182.83468890190125	response	0	2		61.0	2.5	/experiments/knapen_aot/videos/R_S_pexels-mikhail-nilov-8410088.mp4	0.0	289.20879793167114	
63	182.842866897583	movie	1		162.0	61.0	2.5	/experiments/knapen_aot/videos/R_S_pexels-mikhail-nilov-8410088.mp4	0.0	289.2169759273529	2.5082781314849854
63	185.351145029068	fix_post	2		12.0	61.0	2.5	/experiments/knapen_aot/videos/R_S_pexels-mikhail-nilov-8410088.mp4	0.0	291.7252540588379	0.10001897811889648
64	185.4511640071869	fix_pre	0		4.0	62.0	2.5	blank	1.0	291.8252730369568	0.033403873443603516
64	185.47628092765808	response	0	2		62.0	2.5	blank	1.0	291.850389957428	
64	185.4845678806305	movie	1		301.0	62.0	2.5	blank	1.0	291.8586769104004	2.5082600116729736
64	187.99282789230347	fix_post	2		12.0	62.0	2.5	blank	1.0	294.36693692207336	0.0999460220336914
65	188.09277391433716	fix_pre	0		31.0	63.0	2.5	/experiments/knapen_aot/videos/S_flickr-53807584@N00-5566422012_16.mp4	0.0	294.46688294410706	0.25907206535339355
65	188.34295392036438	response	0	2		63.0	2.5	/experiments/knapen_aot/videos/S_flickr-53807584@N00-5566422012_16.mp4	0.0	294.7170629501343	
65	188.35184597969055	movie	1		301.0	63.0	2.5	/experiments/knapen_aot/videos/S_flickr-53807584@N00-5566422012_16.mp4	0.0	294.72595500946045	2.5075759887695312
65	190.85942196846008	fix_post	2		12.0	63.0	2.5	/experiments/knapen_aot/videos/S_flickr-53807584@N00-5566422012_16.mp4	0.0	297.23353099823	0.10006999969482422
66	190.9594919681549	fix_pre	0		36.0	64.0	2.5	/experiments/knapen_aot/videos/S_DV6V38rplag_215.mp4	0.0	297.3336009979248	0.30011701583862305
66	191.24368810653687	response	0	2		64.0	2.5	/experiments/knapen_aot/videos/S_DV6V38rplag_215.mp4	0.0	297.61779713630676	
66	191.25960898399353	movie	1		301.0	64.0	2.5	/experiments/knapen_aot/videos/S_DV6V38rplag_215.mp4	0.0	297.6337180137634	2.508263111114502
66	193.76787209510803	fix_post	2		12.0	64.0	2.5	/experiments/knapen_aot/videos/S_DV6V38rplag_215.mp4	0.0	300.14198112487793	0.09998178482055664
67	193.8678538799286	fix_pre	0		22.0	65.0	2.5	/experiments/knapen_aot/videos/R_S_yt-_Hnr82bYGEQ_103.mp4	0.0	300.2419629096985	0.18329310417175293
67	194.04299092292786	response	0	2		65.0	2.5	/experiments/knapen_aot/videos/R_S_yt-_Hnr82bYGEQ_103.mp4	0.0	300.41709995269775	
67	194.05114698410034	movie	1		297.0	65.0	2.5	/experiments/knapen_aot/videos/R_S_yt-_Hnr82bYGEQ_103.mp4	0.0	300.42525601387024	2.5082149505615234
67	196.55936193466187	fix_post	2		12.0	65.0	2.5	/experiments/knapen_aot/videos/R_S_yt-_Hnr82bYGEQ_103.mp4	0.0	302.93347096443176	0.10010409355163574
68	196.6594660282135	fix_pre	0		13.0	66.0	2.5	/experiments/knapen_aot/videos/R_S_yt-5DD4XtHSA9Q_171.mp4	0.0	303.0335750579834	0.10897588729858398
68	196.75957107543945	response	0	2		66.0	2.5	/experiments/knapen_aot/videos/R_S_yt-5DD4XtHSA9Q_171.mp4	0.0	303.13368010520935	
68	196.76844191551208	movie	1		301.0	66.0	2.5	/experiments/knapen_aot/videos/R_S_yt-5DD4XtHSA9Q_171.mp4	0.0	303.142550945282	2.507678985595703
68	199.2761209011078	fix_post	2		12.0	66.0	2.5	/experiments/knapen_aot/videos/R_S_yt-5DD4XtHSA9Q_171.mp4	0.0	305.6502299308777	0.09997105598449707
69	199.37609195709229	fix_pre	0		20.0	67.0	2.5	/experiments/knapen_aot/videos/R_S_yt-npaE4fe6A6Y_26.mp4	0.0	305.7502009868622	0.16668415069580078
69	199.53457307815552	response	0	2		67.0	2.5	/experiments/knapen_aot/videos/R_S_yt-npaE4fe6A6Y_26.mp4	0.0	305.9086821079254	
69	199.5427761077881	movie	1		300.0	67.0	2.5	/experiments/knapen_aot/videos/R_S_yt-npaE4fe6A6Y_26.mp4	0.0	305.916885137558	2.508518934249878
69	202.05129504203796	fix_post	2		12.0	67.0	2.5	/experiments/knapen_aot/videos/R_S_yt-npaE4fe6A6Y_26.mp4	0.0	308.42540407180786	0.09978604316711426
70	202.15108108520508	fix_pre	0		66.0	68.0	2.5	blank	1.0	308.525190114975	0.5499927997589111
70	202.68550896644592	response	0	2		68.0	2.5	blank	1.0	309.0596179962158	
70	202.701073884964	movie	1		301.0	68.0	2.5	blank	1.0	309.0751829147339	2.508294105529785
70	205.20936799049377	fix_post	2		12.0	68.0	2.5	blank	1.0	311.5834770202637	0.10006403923034668
71	205.30943202972412	fix_pre	0		45.0	69.0	2.5	/experiments/knapen_aot/videos/R_S_flickr-lamujuri-10653517683_4.mp4	0.0	311.683541059494	0.375560998916626
71	205.6762499809265	response	0	2		69.0	2.5	/experiments/knapen_aot/videos/R_S_flickr-lamujuri-10653517683_4.mp4	0.0	312.0503590106964	
71	205.68499302864075	movie	1		167.0	69.0	2.5	/experiments/knapen_aot/videos/R_S_flickr-lamujuri-10653517683_4.mp4	0.0	312.05910205841064	2.5078470706939697
71	208.19284009933472	fix_post	2		12.0	69.0	2.5	/experiments/knapen_aot/videos/R_S_flickr-lamujuri-10653517683_4.mp4	0.0	314.5669491291046	0.09997200965881348
72	208.29281210899353	fix_pre	0		1.0	70.0	2.5	/experiments/knapen_aot/videos/R_S_yt-GLK6LniTOK0_69.mp4	0.0	314.6669211387634	0.010357856750488281
72	208.2944519519806	response	0	2		70.0	2.5	/experiments/knapen_aot/videos/R_S_yt-GLK6LniTOK0_69.mp4	0.0	314.6685609817505	
72	208.30316996574402	movie	1		301.0	70.0	2.5	/experiments/knapen_aot/videos/R_S_yt-GLK6LniTOK0_69.mp4	0.0	314.6772789955139	2.506242036819458
72	210.80941200256348	fix_post	2		12.0	70.0	2.5	/experiments/knapen_aot/videos/R_S_yt-GLK6LniTOK0_69.mp4	0.0	317.1835210323334	0.09993410110473633
73	210.9093461036682	fix_pre	0		52.0	71.0	2.5	/experiments/knapen_aot/videos/S_yt-khmJAQuCRRE_119.mp4	0.0	317.2834551334381	0.43361878395080566
73	211.3345959186554	response	0	2		71.0	2.5	/experiments/knapen_aot/videos/S_yt-khmJAQuCRRE_119.mp4	0.0	317.7087049484253	
73	211.34296488761902	movie	1		301.0	71.0	2.5	/experiments/knapen_aot/videos/S_yt-khmJAQuCRRE_119.mp4	0.0	317.7170739173889	2.5080912113189697
73	213.851056098938	fix_post	2		12.0	71.0	2.5	/experiments/knapen_aot/videos/S_yt-khmJAQuCRRE_119.mp4	0.0	320.2251651287079	0.0999000072479248
74	213.9509561061859	fix_pre	0		11.0	72.0	2.5	/experiments/knapen_aot/videos/R_S_comp_GMT110_112NC_364D_1054_AURORA_ANTARTICA__COMP_FINAL_v34_PS_SDR_20181107_SDR_2K_AVC.mp4	0.0	320.3250651359558	0.0916748046875
74	214.03457188606262	response	0	2		72.0	2.5	/experiments/knapen_aot/videos/R_S_comp_GMT110_112NC_364D_1054_AURORA_ANTARTICA__COMP_FINAL_v34_PS_SDR_20181107_SDR_2K_AVC.mp4	0.0	320.4086809158325	
74	214.0426309108734	movie	1		165.0	72.0	2.5	/experiments/knapen_aot/videos/R_S_comp_GMT110_112NC_364D_1054_AURORA_ANTARTICA__COMP_FINAL_v34_PS_SDR_20181107_SDR_2K_AVC.mp4	0.0	320.4167399406433	2.5085301399230957
74	216.5511610507965	fix_post	2		12.0	72.0	2.5	/experiments/knapen_aot/videos/R_S_comp_GMT110_112NC_364D_1054_AURORA_ANTARTICA__COMP_FINAL_v34_PS_SDR_20181107_SDR_2K_AVC.mp4	0.0	322.9252700805664	0.09997296333312988
75	216.65113401412964	fix_pre	0		9.0	73.0	2.5	/experiments/knapen_aot/videos/S_yt-JtR6WZXT2kU_8.mp4	0.0	323.02524304389954	0.07553386688232422
75	216.7181670665741	response	0	2		73.0	2.5	/experiments/knapen_aot/videos/S_yt-JtR6WZXT2kU_8.mp4	0.0	323.092276096344	
75	216.72666788101196	movie	1		301.0	73.0	2.5	/experiments/knapen_aot/videos/S_yt-JtR6WZXT2kU_8.mp4	0.0	323.10077691078186	2.5076911449432373
75	219.2343590259552	fix_post	2		12.0	73.0	2.5	/experiments/knapen_aot/videos/S_yt-JtR6WZXT2kU_8.mp4	0.0	325.6084680557251	0.10005807876586914
76	219.33441710472107	fix_pre	0		10.0	74.0	2.5	/experiments/knapen_aot/videos/S_yt-i-1Gou9SA5U_3.mp4	0.0	325.70852613449097	0.0832509994506836
76	219.40951299667358	response	0	2		74.0	2.5	/experiments/knapen_aot/videos/S_yt-i-1Gou9SA5U_3.mp4	0.0	325.7836220264435	
76	219.41766810417175	movie	1		301.0	74.0	2.5	/experiments/knapen_aot/videos/S_yt-i-1Gou9SA5U_3.mp4	0.0	325.79177713394165	2.508326768875122
76	221.92599487304688	fix_post	2		12.0	74.0	2.5	/experiments/knapen_aot/videos/S_yt-i-1Gou9SA5U_3.mp4	0.0	328.3001039028168	0.10007500648498535
77	222.02606987953186	fix_pre	0		14.0	75.0	2.5	/experiments/knapen_aot/videos/S_yt-mL3MuCfKtdY_79.mp4	0.0	328.40017890930176	0.1171731948852539
77	222.1345090866089	response	0	2		75.0	2.5	/experiments/knapen_aot/videos/S_yt-mL3MuCfKtdY_79.mp4	0.0	328.5086181163788	
77	222.14324307441711	movie	1		301.0	75.0	2.5	/experiments/knapen_aot/videos/S_yt-mL3MuCfKtdY_79.mp4	0.0	328.517352104187	2.5077450275421143
77	224.65098810195923	fix_post	2		12.0	75.0	2.5	/experiments/knapen_aot/videos/S_yt-mL3MuCfKtdY_79.mp4	0.0	331.0250971317291	0.09997177124023438
78	224.75095987319946	fix_pre	0		27.0	76.0	2.5	/experiments/knapen_aot/videos/S_yt-bwSRV1Vr21s_435.mp4	0.0	331.12506890296936	0.2256300449371338
78	224.9603419303894	response	0	2		76.0	2.5	/experiments/knapen_aot/videos/S_yt-bwSRV1Vr21s_435.mp4	0.0	331.3344509601593	
78	224.9765899181366	movie	1		301.0	76.0	2.5	/experiments/knapen_aot/videos/S_yt-bwSRV1Vr21s_435.mp4	0.0	331.3506989479065	2.5077741146087646
78	227.48436403274536	fix_post	2		12.0	76.0	2.5	/experiments/knapen_aot/videos/S_yt-bwSRV1Vr21s_435.mp4	0.0	333.85847306251526	0.09997105598449707
79	227.58433508872986	fix_pre	0		17.0	77.0	2.5	blank	1.0	333.95844411849976	0.14231181144714355
79	227.71788692474365	response	0	2		77.0	2.5	blank	1.0	334.09199595451355	
79	227.726646900177	movie	1		301.0	77.0	2.5	blank	1.0	334.1007559299469	2.5077171325683594
79	230.06782293319702	response	1	2		77.0	2.5	blank	1.0	336.4419319629669	
79	230.23436403274536	fix_post	2		12.0	77.0	2.5	blank	1.0	336.60847306251526	0.09995603561401367
80	230.33432006835938	fix_pre	0		37.0	78.0	2.5	/experiments/knapen_aot/videos/S_comp_A012_C014_1223PT_v53_SDR_PS_FINAL_20180709_F0F8700_SDR_2K_AVC.mp4	0.0	336.7084290981293	0.308851957321167
80	230.6344530582428	response	0	2		78.0	2.5	/experiments/knapen_aot/videos/S_comp_A012_C014_1223PT_v53_SDR_PS_FINAL_20180709_F0F8700_SDR_2K_AVC.mp4	0.0	337.0085620880127	
80	230.64317202568054	movie	1		167.0	78.0	2.5	/experiments/knapen_aot/videos/S_comp_A012_C014_1223PT_v53_SDR_PS_FINAL_20180709_F0F8700_SDR_2K_AVC.mp4	0.0	337.01728105545044	2.507840871810913
80	233.15101289749146	fix_post	2		12.0	78.0	2.5	/experiments/knapen_aot/videos/S_comp_A012_C014_1223PT_v53_SDR_PS_FINAL_20180709_F0F8700_SDR_2K_AVC.mp4	0.0	339.52512192726135	0.09994912147521973
81	233.25096201896667	fix_pre	0		21.0	79.0	2.5	/experiments/knapen_aot/videos/R_S_yt-Q6BFO3Yz0zY_363.mp4	0.0	339.6250710487366	0.1750500202178955
81	233.41782188415527	response	0	2		79.0	2.5	/experiments/knapen_aot/videos/R_S_yt-Q6BFO3Yz0zY_363.mp4	0.0	339.79193091392517	
81	233.42601203918457	movie	1		301.0	79.0	2.5	/experiments/knapen_aot/videos/R_S_yt-Q6BFO3Yz0zY_363.mp4	0.0	339.80012106895447	2.5083508491516113
81	235.93436288833618	fix_post	2		12.0	79.0	2.5	/experiments/knapen_aot/videos/R_S_yt-Q6BFO3Yz0zY_363.mp4	0.0	342.3084719181061	0.09993314743041992
82	236.0342960357666	fix_pre	0		12.0	80.0	2.5	/experiments/knapen_aot/videos/R_S_yt-ycfVJyrFgB4_15.mp4	0.0	342.4084050655365	0.10005497932434082
82	236.1261019706726	response	0	2		80.0	2.5	/experiments/knapen_aot/videos/R_S_yt-ycfVJyrFgB4_15.mp4	0.0	342.5002110004425	
82	236.13435101509094	movie	1		301.0	80.0	2.5	/experiments/knapen_aot/videos/R_S_yt-ycfVJyrFgB4_15.mp4	0.0	342.50846004486084	2.508275032043457
82	238.6426260471344	fix_post	2		12.0	80.0	2.5	/experiments/knapen_aot/videos/R_S_yt-ycfVJyrFgB4_15.mp4	0.0	345.0167350769043	0.10001993179321289
83	238.7426459789276	fix_pre	0		22.0	81.0	2.5	/experiments/knapen_aot/videos/S_yt-ujdFTAUE8rc_34.mp4	0.0	345.1167550086975	0.18331408500671387
83	238.91766691207886	response	0	2		81.0	2.5	/experiments/knapen_aot/videos/S_yt-ujdFTAUE8rc_34.mp4	0.0	345.29177594184875	
83	238.92596006393433	movie	1		301.0	81.0	2.5	/experiments/knapen_aot/videos/S_yt-ujdFTAUE8rc_34.mp4	0.0	345.3000690937042	2.5082809925079346
83	241.43424105644226	fix_post	2		12.0	81.0	2.5	/experiments/knapen_aot/videos/S_yt-ujdFTAUE8rc_34.mp4	0.0	347.80835008621216	0.1000208854675293
84	241.5342619419098	fix_pre	0		66.0	82.0	2.5	/experiments/knapen_aot/videos/R_S_yt-mWlx1SIXl5M_850.mp4	0.0	347.9083709716797	0.5499629974365234
84	242.0761079788208	response	0	2		82.0	2.5	/experiments/knapen_aot/videos/R_S_yt-mWlx1SIXl5M_850.mp4	0.0	348.4502170085907	
84	242.0842249393463	movie	1		301.0	82.0	2.5	/experiments/knapen_aot/videos/R_S_yt-mWlx1SIXl5M_850.mp4	0.0	348.4583339691162	2.508363962173462
84	244.59258890151978	fix_post	2		12.0	82.0	2.5	/experiments/knapen_aot/videos/R_S_yt-mWlx1SIXl5M_850.mp4	0.0	350.9666979312897	0.10000014305114746
85	244.69258904457092	fix_pre	0		28.0	83.0	2.5	blank	1.0	351.0666980743408	0.23333406448364258
85	244.91767501831055	response	0	2		83.0	2.5	blank	1.0	351.29178404808044	
85	244.92592310905457	movie	1		301.0	83.0	2.5	blank	1.0	351.30003213882446	2.508347988128662
85	247.43427109718323	fix_post	2		12.0	83.0	2.5	blank	1.0	353.8083801269531	0.09988999366760254
87	247.53416109085083	stim	0		283.0					353.9082701206207	2.35890793800354
87	249.88840103149414	response	0	space						356.26251006126404	
