trial_nr	onset	event_type	phase	response	nr_frames	movie_index	movie_duration	movie_file	blank	onset_abs	duration
0	0.15951800346374512	stim	0		33.0					61.99525690078735	0.2717430591583252
0	0.42357492446899414	response	0	space						62.2593138217926	
1	0.4312610626220703	stim	0		121.0					62.26699995994568	1.008173942565918
1	1.4394350051879883	stim	1		120.0					63.2751739025116	0.9996280670166016
2	2.43906307220459	fix_pre	0		94.0	0.0	2.5	/experiments/knapen_aot/videos/S_yt-h8wy6x6oytA_25.mp4	0.0	64.2748019695282	0.7832870483398438
2	3.214184045791626	response	0	space		0.0	2.5	/experiments/knapen_aot/videos/S_yt-h8wy6x6oytA_25.mp4	0.0	65.04992294311523	
2	3.2223501205444336	movie	1		300.0	0.0	2.5	/experiments/knapen_aot/videos/S_yt-h8wy6x6oytA_25.mp4	0.0	65.05808901786804	2.5083749294281006
2	5.730725049972534	fix_post	2		12.0	0.0	2.5	/experiments/knapen_aot/videos/S_yt-h8wy6x6oytA_25.mp4	0.0	67.56646394729614	0.10002398490905762
3	5.830749034881592	fix_pre	0		211.0	1.0	2.5	/experiments/knapen_aot/videos/R_S_yt-FhnT_42bV7M_11.mp4	0.0	67.6664879322052	1.758971929550171
3	7.585474967956543	response	0	4		1.0	2.5	/experiments/knapen_aot/videos/R_S_yt-FhnT_42bV7M_11.mp4	0.0	69.42121386528015	
3	7.589720964431763	movie	1		297.0	1.0	2.5	/experiments/knapen_aot/videos/R_S_yt-FhnT_42bV7M_11.mp4	0.0	69.42545986175537	2.5076310634613037
3	10.097352027893066	fix_post	2		12.0	1.0	2.5	/experiments/knapen_aot/videos/R_S_yt-FhnT_42bV7M_11.mp4	0.0	71.93309092521667	0.10001206398010254
4	10.197364091873169	fix_pre	0		352.0	2.0	2.5	/experiments/knapen_aot/videos/R_S_yt-ejSzwn8tY8g_49.mp4	0.0	72.03310298919678	2.933924913406372
4	13.12251615524292	response	0	4		2.0	2.5	/experiments/knapen_aot/videos/R_S_yt-ejSzwn8tY8g_49.mp4	0.0	74.95825505256653	
4	13.131289005279541	movie	1		301.0	2.0	2.5	/experiments/knapen_aot/videos/R_S_yt-ejSzwn8tY8g_49.mp4	0.0	74.96702790260315	2.507833957672119
4	15.63912296295166	fix_post	2		12.0	2.0	2.5	/experiments/knapen_aot/videos/R_S_yt-ejSzwn8tY8g_49.mp4	0.0	77.47486186027527	0.09991598129272461
5	15.739038944244385	fix_pre	0		20.0	3.0	2.5	/experiments/knapen_aot/videos/S_yt-D6fhzH21T_E_26.mp4	0.0	77.574777841568	0.16667509078979492
5	15.897465944290161	response	0	4		3.0	2.5	/experiments/knapen_aot/videos/S_yt-D6fhzH21T_E_26.mp4	0.0	77.73320484161377	
5	15.90571403503418	movie	1		301.0	3.0	2.5	/experiments/knapen_aot/videos/S_yt-D6fhzH21T_E_26.mp4	0.0	77.74145293235779	2.508286952972412
5	18.414000988006592	fix_post	2		12.0	3.0	2.5	/experiments/knapen_aot/videos/S_yt-D6fhzH21T_E_26.mp4	0.0	80.2497398853302	0.09999299049377441
6	18.513993978500366	fix_pre	0		20.0	4.0	2.5	/experiments/knapen_aot/videos/R_S_yt-hRAqAwRhmwE_58.mp4	0.0	80.34973287582397	0.16664600372314453
6	18.665033102035522	response	0	4		4.0	2.5	/experiments/knapen_aot/videos/R_S_yt-hRAqAwRhmwE_58.mp4	0.0	80.50077199935913	
6	18.68063998222351	movie	1		301.0	4.0	2.5	/experiments/knapen_aot/videos/R_S_yt-hRAqAwRhmwE_58.mp4	0.0	80.51637887954712	2.50838303565979
6	21.1890230178833	fix_post	2		12.0	4.0	2.5	/experiments/knapen_aot/videos/R_S_yt-hRAqAwRhmwE_58.mp4	0.0	83.02476191520691	0.09999299049377441
7	21.289016008377075	fix_pre	0		35.0	5.0	2.5	/experiments/knapen_aot/videos/R_S_yt-wrfAMDCg93Y_8.mp4	0.0	83.12475490570068	0.29163503646850586
7	21.572463035583496	response	0	4		5.0	2.5	/experiments/knapen_aot/videos/R_S_yt-wrfAMDCg93Y_8.mp4	0.0	83.4082019329071	
7	21.58065104484558	movie	1		301.0	5.0	2.5	/experiments/knapen_aot/videos/R_S_yt-wrfAMDCg93Y_8.mp4	0.0	83.41638994216919	2.5083179473876953
7	24.088968992233276	fix_post	2		12.0	5.0	2.5	/experiments/knapen_aot/videos/R_S_yt-wrfAMDCg93Y_8.mp4	0.0	85.92470788955688	0.09994792938232422
8	24.1889169216156	fix_pre	0		69.0	6.0	2.5	/experiments/knapen_aot/videos/S_ILSVRC2015_train_00379000.mp4	0.0	86.02465581893921	0.5749931335449219
8	24.755779027938843	response	0	4		6.0	2.5	/experiments/knapen_aot/videos/S_ILSVRC2015_train_00379000.mp4	0.0	86.59151792526245	
8	24.763910055160522	movie	1		301.0	6.0	2.5	/experiments/knapen_aot/videos/S_ILSVRC2015_train_00379000.mp4	0.0	86.59964895248413	2.5083999633789062
8	27.27231001853943	fix_post	2		12.0	6.0	2.5	/experiments/knapen_aot/videos/S_ILSVRC2015_train_00379000.mp4	0.0	89.10804891586304	0.10006594657897949
9	27.372375965118408	fix_pre	0		102.0	7.0	2.5	blank	1.0	89.20811486244202	0.8498489856719971
9	28.214115142822266	response	0	4		7.0	2.5	blank	1.0	90.04985404014587	
9	28.222224950790405	movie	1		301.0	7.0	2.5	blank	1.0	90.05796384811401	2.5083770751953125
9	30.67237901687622	response	1	4		7.0	2.5	blank	1.0	92.50811791419983	
9	30.730602025985718	fix_post	2		12.0	7.0	2.5	blank	1.0	92.56634092330933	0.10003495216369629
10	30.830636978149414	fix_pre	0		159.0	8.0	2.5	/experiments/knapen_aot/videos/S_yt-wVMhACNFF-M_154.mp4	0.0	92.66637587547302	1.3249220848083496
10	32.14740705490112	response	0	4		8.0	2.5	/experiments/knapen_aot/videos/S_yt-wVMhACNFF-M_154.mp4	0.0	93.98314595222473	
10	32.155559062957764	movie	1		301.0	8.0	2.5	/experiments/knapen_aot/videos/S_yt-wVMhACNFF-M_154.mp4	0.0	93.99129796028137	2.50839900970459
10	34.66395807266235	fix_post	2		12.0	8.0	2.5	/experiments/knapen_aot/videos/S_yt-wVMhACNFF-M_154.mp4	0.0	96.49969696998596	0.09997797012329102
11	34.763936042785645	fix_pre	0		265.0	9.0	2.5	/experiments/knapen_aot/videos/R_S_yt-TZ107yBhXoA_1.mp4	0.0	96.59967494010925	2.2083210945129395
11	36.96415615081787	response	0	4		9.0	2.5	/experiments/knapen_aot/videos/R_S_yt-TZ107yBhXoA_1.mp4	0.0	98.79989504814148	
11	36.972257137298584	movie	1		301.0	9.0	2.5	/experiments/knapen_aot/videos/R_S_yt-TZ107yBhXoA_1.mp4	0.0	98.80799603462219	2.508358955383301
11	39.480616092681885	fix_post	2		12.0	9.0	2.5	/experiments/knapen_aot/videos/R_S_yt-TZ107yBhXoA_1.mp4	0.0	101.3163549900055	0.09994697570800781
12	39.58056306838989	fix_pre	0		114.0	10.0	2.5	/experiments/knapen_aot/videos/S_yt-WTxvvlP8xnw_113.mp4	0.0	101.4163019657135	0.950016975402832
12	40.52247095108032	response	0	4		10.0	2.5	/experiments/knapen_aot/videos/S_yt-WTxvvlP8xnw_113.mp4	0.0	102.35820984840393	
12	40.530580043792725	movie	1		301.0	10.0	2.5	/experiments/knapen_aot/videos/S_yt-WTxvvlP8xnw_113.mp4	0.0	102.36631894111633	2.5082809925079346
12	43.03886103630066	fix_post	2		12.0	10.0	2.5	/experiments/knapen_aot/videos/S_yt-WTxvvlP8xnw_113.mp4	0.0	104.87459993362427	0.0999910831451416
13	43.1388521194458	fix_pre	0		65.0	11.0	2.5	/experiments/knapen_aot/videos/R_S_yt-qazCIJqjxUU_3.mp4	0.0	104.97459101676941	0.5416169166564941
13	43.6725389957428	response	0	4		11.0	2.5	/experiments/knapen_aot/videos/R_S_yt-qazCIJqjxUU_3.mp4	0.0	105.5082778930664	
13	43.680469036102295	movie	1		301.0	11.0	2.5	/experiments/knapen_aot/videos/R_S_yt-qazCIJqjxUU_3.mp4	0.0	105.5162079334259	2.5084071159362793
13	46.188876152038574	fix_post	2		12.0	11.0	2.5	/experiments/knapen_aot/videos/R_S_yt-qazCIJqjxUU_3.mp4	0.0	108.02461504936218	0.09999799728393555
14	46.28887414932251	fix_pre	0		56.0	12.0	2.5	/experiments/knapen_aot/videos/R_S_yt-CR86bVrRwfo_13.mp4	0.0	108.12461304664612	0.46711182594299316
14	46.747321128845215	response	0	4		12.0	2.5	/experiments/knapen_aot/videos/R_S_yt-CR86bVrRwfo_13.mp4	0.0	108.58306002616882	
14	46.7559859752655	movie	1		300.0	12.0	2.5	/experiments/knapen_aot/videos/R_S_yt-CR86bVrRwfo_13.mp4	0.0	108.59172487258911	2.50791597366333
14	49.26390194892883	fix_post	2		12.0	12.0	2.5	/experiments/knapen_aot/videos/R_S_yt-CR86bVrRwfo_13.mp4	0.0	111.09964084625244	0.09996819496154785
15	49.36387014389038	fix_pre	0		482.0	13.0	2.5	/experiments/knapen_aot/videos/S_EFR8AteY59I_15.mp4	0.0	111.19960904121399	4.017055988311768
15	53.372300148010254	response	0	4		13.0	2.5	/experiments/knapen_aot/videos/S_EFR8AteY59I_15.mp4	0.0	115.20803904533386	
15	53.38092613220215	movie	1		299.0	13.0	2.5	/experiments/knapen_aot/videos/S_EFR8AteY59I_15.mp4	0.0	115.21666502952576	2.5079288482666016
15	55.88885498046875	fix_post	2		12.0	13.0	2.5	/experiments/knapen_aot/videos/S_EFR8AteY59I_15.mp4	0.0	117.72459387779236	0.09991812705993652
16	55.98877310752869	fix_pre	0		305.0	14.0	2.5	blank	1.0	117.8245120048523	2.541705846786499
16	58.52231693267822	response	0	4		14.0	2.5	blank	1.0	120.35805583000183	
16	58.530478954315186	movie	1		301.0	14.0	2.5	blank	1.0	120.3662178516388	2.508336067199707
16	61.03881502151489	fix_post	2		12.0	14.0	2.5	blank	1.0	122.8745539188385	0.09995508193969727
17	61.13877010345459	fix_pre	0		96.0	15.0	2.5	/experiments/knapen_aot/videos/R_S_EFR8AteY59I_15.mp4	0.0	122.9745090007782	0.8000140190124512
17	61.93064999580383	response	0	4		15.0	2.5	/experiments/knapen_aot/videos/R_S_EFR8AteY59I_15.mp4	0.0	123.76638889312744	
17	61.93878412246704	movie	1		301.0	15.0	2.5	/experiments/knapen_aot/videos/R_S_EFR8AteY59I_15.mp4	0.0	123.77452301979065	2.50839900970459
17	64.44718313217163	fix_post	2		12.0	15.0	2.5	/experiments/knapen_aot/videos/R_S_EFR8AteY59I_15.mp4	0.0	126.28292202949524	0.1003727912902832
18	64.54755592346191	fix_pre	0		71.0	16.0	2.5	/experiments/knapen_aot/videos/S_production_ID_4510883.mp4	0.0	126.38329482078552	0.5912351608276367
18	65.1305799484253	response	0	4		16.0	2.5	/experiments/knapen_aot/videos/S_production_ID_4510883.mp4	0.0	126.9663188457489	
18	65.13879108428955	movie	1		166.0	16.0	2.5	/experiments/knapen_aot/videos/S_production_ID_4510883.mp4	0.0	126.97452998161316	2.508362054824829
18	67.64715313911438	fix_post	2		12.0	16.0	2.5	/experiments/knapen_aot/videos/S_production_ID_4510883.mp4	0.0	129.482892036438	0.0999908447265625
19	67.74714398384094	fix_pre	0		192.0	17.0	2.5	/experiments/knapen_aot/videos/S_yt-m8HxO_-RRq0_127.mp4	0.0	129.58288288116455	1.5999159812927246
19	69.33900594711304	response	0	4		17.0	2.5	/experiments/knapen_aot/videos/S_yt-m8HxO_-RRq0_127.mp4	0.0	131.17474484443665	
19	69.34705996513367	movie	1		301.0	17.0	2.5	/experiments/knapen_aot/videos/S_yt-m8HxO_-RRq0_127.mp4	0.0	131.18279886245728	2.508373975753784
19	71.85543394088745	fix_post	2		12.0	17.0	2.5	/experiments/knapen_aot/videos/S_yt-m8HxO_-RRq0_127.mp4	0.0	133.69117283821106	0.1000051498413086
20	71.95543909072876	fix_pre	0		27.0	18.0	2.5	/experiments/knapen_aot/videos/R_S_yt-2pRKCSgdXXU_30.mp4	0.0	133.79117798805237	0.22497105598449707
20	72.17218708992004	response	0	4		18.0	2.5	/experiments/knapen_aot/videos/R_S_yt-2pRKCSgdXXU_30.mp4	0.0	134.00792598724365	
20	72.18041014671326	movie	1		301.0	18.0	2.5	/experiments/knapen_aot/videos/R_S_yt-2pRKCSgdXXU_30.mp4	0.0	134.01614904403687	2.508347988128662
20	74.68875813484192	fix_post	2		12.0	18.0	2.5	/experiments/knapen_aot/videos/R_S_yt-2pRKCSgdXXU_30.mp4	0.0	136.52449703216553	0.09991979598999023
21	74.78867793083191	fix_pre	0		183.0	19.0	2.5	/experiments/knapen_aot/videos/S_yt-f9iXELY0EJ0_344.mp4	0.0	136.62441682815552	1.5250191688537598
21	76.30554413795471	response	0	4		19.0	2.5	/experiments/knapen_aot/videos/S_yt-f9iXELY0EJ0_344.mp4	0.0	138.14128303527832	
21	76.31369709968567	movie	1		301.0	19.0	2.5	/experiments/knapen_aot/videos/S_yt-f9iXELY0EJ0_344.mp4	0.0	138.14943599700928	2.508389949798584
21	78.82208704948425	fix_post	2		12.0	19.0	2.5	/experiments/knapen_aot/videos/S_yt-f9iXELY0EJ0_344.mp4	0.0	140.65782594680786	0.10032510757446289
22	78.92241215705872	fix_pre	0		26.0	20.0	2.5	/experiments/knapen_aot/videos/S_comp_A001_C004_1207W5_v23_SDR_FINAL_20180706_SDR_2K_AVC.mp4	0.0	140.75815105438232	0.21627187728881836
22	79.13045406341553	response	0	4		20.0	2.5	/experiments/knapen_aot/videos/S_comp_A001_C004_1207W5_v23_SDR_FINAL_20180706_SDR_2K_AVC.mp4	0.0	140.96619296073914	
22	79.13868403434753	movie	1		167.0	20.0	2.5	/experiments/knapen_aot/videos/S_comp_A001_C004_1207W5_v23_SDR_FINAL_20180706_SDR_2K_AVC.mp4	0.0	140.97442293167114	2.508366107940674
22	81.64705014228821	fix_post	2		12.0	20.0	2.5	/experiments/knapen_aot/videos/S_comp_A001_C004_1207W5_v23_SDR_FINAL_20180706_SDR_2K_AVC.mp4	0.0	143.48278903961182	0.09999394416809082
23	81.7470440864563	fix_pre	0		154.0	21.0	2.5	blank	1.0	143.5827829837799	1.283336877822876
23	83.02214813232422	response	0	4		21.0	2.5	blank	1.0	144.85788702964783	
23	83.03038096427917	movie	1		301.0	21.0	2.5	blank	1.0	144.86611986160278	2.5082809925079346
23	85.29712200164795	response	1	4		21.0	2.5	blank	1.0	147.13286089897156	
23	85.53866195678711	fix_post	2		12.0	21.0	2.5	blank	1.0	147.37440085411072	0.09996318817138672
24	85.6386251449585	fix_pre	0		159.0	22.0	2.5	/experiments/knapen_aot/videos/R_S_yt-fnE8kgUHUMI_64.mp4	0.0	147.4743640422821	1.3253169059753418
24	86.95550298690796	response	0	4		22.0	2.5	/experiments/knapen_aot/videos/R_S_yt-fnE8kgUHUMI_64.mp4	0.0	148.79124188423157	
24	86.96394205093384	movie	1		298.0	22.0	2.5	/experiments/knapen_aot/videos/R_S_yt-fnE8kgUHUMI_64.mp4	0.0	148.79968094825745	2.5080840587615967
24	89.47202610969543	fix_post	2		12.0	22.0	2.5	/experiments/knapen_aot/videos/R_S_yt-fnE8kgUHUMI_64.mp4	0.0	151.30776500701904	0.09999585151672363
25	89.57202196121216	fix_pre	0		114.0	23.0	2.5	/experiments/knapen_aot/videos/R_S_yt-GWOOQZ19-oU_331.mp4	0.0	151.40776085853577	0.9500219821929932
25	90.50634407997131	response	0	4		23.0	2.5	/experiments/knapen_aot/videos/R_S_yt-GWOOQZ19-oU_331.mp4	0.0	152.34208297729492	
25	90.52204394340515	movie	1		301.0	23.0	2.5	/experiments/knapen_aot/videos/R_S_yt-GWOOQZ19-oU_331.mp4	0.0	152.35778284072876	2.508294105529785
25	93.03033804893494	fix_post	2		12.0	23.0	2.5	/experiments/knapen_aot/videos/R_S_yt-GWOOQZ19-oU_331.mp4	0.0	154.86607694625854	0.10016989707946777
26	93.1305079460144	fix_pre	0		183.0	24.0	2.5	/experiments/knapen_aot/videos/S_production_ID_4720614.mp4	0.0	154.966246843338	1.5248041152954102
26	94.6472840309143	response	0	4		24.0	2.5	/experiments/knapen_aot/videos/S_production_ID_4720614.mp4	0.0	156.48302292823792	
26	94.65531206130981	movie	1		195.0	24.0	2.5	/experiments/knapen_aot/videos/S_production_ID_4720614.mp4	0.0	156.49105095863342	2.508284091949463
26	97.16359615325928	fix_post	2		12.0	24.0	2.5	/experiments/knapen_aot/videos/S_production_ID_4720614.mp4	0.0	158.99933505058289	0.1001119613647461
27	97.26370811462402	fix_pre	0		207.0	25.0	2.5	/experiments/knapen_aot/videos/R_S_yt-h8wy6x6oytA_25.mp4	0.0	159.09944701194763	1.724998950958252
27	98.98044514656067	response	0	4		25.0	2.5	/experiments/knapen_aot/videos/R_S_yt-h8wy6x6oytA_25.mp4	0.0	160.81618404388428	
27	98.98870706558228	movie	1		301.0	25.0	2.5	/experiments/knapen_aot/videos/R_S_yt-h8wy6x6oytA_25.mp4	0.0	160.82444596290588	2.508307933807373
27	101.49701499938965	fix_post	2		12.0	25.0	2.5	/experiments/knapen_aot/videos/R_S_yt-h8wy6x6oytA_25.mp4	0.0	163.33275389671326	0.09996604919433594
28	101.59698104858398	fix_pre	0		136.0	26.0	2.5	/experiments/knapen_aot/videos/S_flickr-53807584@N00-5565833509_7.mp4	0.0	163.4327199459076	1.1333250999450684
28	102.72203707695007	response	0	4		26.0	2.5	/experiments/knapen_aot/videos/S_flickr-53807584@N00-5565833509_7.mp4	0.0	164.55777597427368	
28	102.73030614852905	movie	1		301.0	26.0	2.5	/experiments/knapen_aot/videos/S_flickr-53807584@N00-5565833509_7.mp4	0.0	164.56604504585266	2.508366823196411
28	105.23867297172546	fix_post	2		12.0	26.0	2.5	/experiments/knapen_aot/videos/S_flickr-53807584@N00-5565833509_7.mp4	0.0	167.07441186904907	0.1000971794128418
29	105.3387701511383	fix_pre	0		156.0	27.0	2.5	/experiments/knapen_aot/videos/S_yt-0qfEA1ZFWjA_123.mp4	0.0	167.1745090484619	1.2997899055480957
29	106.63044595718384	response	0	4		27.0	2.5	/experiments/knapen_aot/videos/S_yt-0qfEA1ZFWjA_123.mp4	0.0	168.46618485450745	
29	106.6385600566864	movie	1		301.0	27.0	2.5	/experiments/knapen_aot/videos/S_yt-0qfEA1ZFWjA_123.mp4	0.0	168.47429895401	2.508310079574585
29	109.14687013626099	fix_post	2		12.0	27.0	2.5	/experiments/knapen_aot/videos/S_yt-0qfEA1ZFWjA_123.mp4	0.0	170.9826090335846	0.10007786750793457
30	109.24694800376892	fix_pre	0		133.0	28.0	2.5	blank	1.0	171.08268690109253	1.1082370281219482
30	110.34709215164185	response	0	4		28.0	2.5	blank	1.0	172.18283104896545	
30	110.35518503189087	movie	1		301.0	28.0	2.5	blank	1.0	172.19092392921448	2.5084381103515625
30	112.86362314224243	fix_post	2		12.0	28.0	2.5	blank	1.0	174.69936203956604	0.10006999969482422
31	112.96369314193726	fix_pre	0		402.0	29.0	2.5	/experiments/knapen_aot/videos/R_S_g201_TH_803_A001_8_SDR_20191031_SDR_2K_AVC.mp4	0.0	174.79943203926086	3.349829912185669
31	116.30537104606628	response	0	4		29.0	2.5	/experiments/knapen_aot/videos/R_S_g201_TH_803_A001_8_SDR_20191031_SDR_2K_AVC.mp4	0.0	178.1411099433899	
31	116.31352305412292	movie	1		167.0	29.0	2.5	/experiments/knapen_aot/videos/R_S_g201_TH_803_A001_8_SDR_20191031_SDR_2K_AVC.mp4	0.0	178.14926195144653	2.5083320140838623
31	118.82185506820679	fix_post	2		12.0	29.0	2.5	/experiments/knapen_aot/videos/R_S_g201_TH_803_A001_8_SDR_20191031_SDR_2K_AVC.mp4	0.0	180.6575939655304	0.10013294219970703
32	118.9219880104065	fix_pre	0		161.0	30.0	2.5	/experiments/knapen_aot/videos/R_S_yt-14tjqjjjAEI_15.mp4	0.0	180.7577269077301	1.3415069580078125
32	120.25535106658936	response	0	4		30.0	2.5	/experiments/knapen_aot/videos/R_S_yt-14tjqjjjAEI_15.mp4	0.0	182.09108996391296	
32	120.2634949684143	movie	1		301.0	30.0	2.5	/experiments/knapen_aot/videos/R_S_yt-14tjqjjjAEI_15.mp4	0.0	182.09923386573792	2.5083601474761963
32	122.7718551158905	fix_post	2		12.0	30.0	2.5	/experiments/knapen_aot/videos/R_S_yt-14tjqjjjAEI_15.mp4	0.0	184.6075940132141	0.09995198249816895
33	122.87180709838867	fix_pre	0		11.0	31.0	2.5	/experiments/knapen_aot/videos/R_S_g201_TH_803_A001_8_SDR_20191031_SDR_2K_AVC.mp4	0.0	184.70754599571228	0.09172487258911133
33	122.9553530216217	response	0	4		31.0	2.5	/experiments/knapen_aot/videos/R_S_g201_TH_803_A001_8_SDR_20191031_SDR_2K_AVC.mp4	0.0	184.7910919189453	
33	122.96353197097778	movie	1		168.0	31.0	2.5	/experiments/knapen_aot/videos/R_S_g201_TH_803_A001_8_SDR_20191031_SDR_2K_AVC.mp4	0.0	184.7992708683014	2.508368968963623
33	125.4719009399414	fix_post	2		12.0	31.0	2.5	/experiments/knapen_aot/videos/R_S_g201_TH_803_A001_8_SDR_20191031_SDR_2K_AVC.mp4	0.0	187.30763983726501	0.10000300407409668
34	125.5719039440155	fix_pre	0		123.0	32.0	2.5	/experiments/knapen_aot/videos/R_S_ILSVRC2015_train_00569007.mp4	0.0	187.4076428413391	1.0250170230865479
34	126.58873701095581	response	0	4		32.0	2.5	/experiments/knapen_aot/videos/R_S_ILSVRC2015_train_00569007.mp4	0.0	188.42447590827942	
34	126.59692096710205	movie	1		301.0	32.0	2.5	/experiments/knapen_aot/videos/R_S_ILSVRC2015_train_00569007.mp4	0.0	188.43265986442566	2.508329153060913
34	129.10525012016296	fix_post	2		12.0	32.0	2.5	/experiments/knapen_aot/videos/R_S_ILSVRC2015_train_00569007.mp4	0.0	190.94098901748657	0.09998583793640137
35	129.20523595809937	fix_pre	0		119.0	33.0	2.5	/experiments/knapen_aot/videos/S_yt-TbdZrcl_Jso_5.mp4	0.0	191.04097485542297	0.9917101860046387
35	130.18870306015015	response	0	4		33.0	2.5	/experiments/knapen_aot/videos/S_yt-TbdZrcl_Jso_5.mp4	0.0	192.02444195747375	
35	130.196946144104	movie	1		300.0	33.0	2.5	/experiments/knapen_aot/videos/S_yt-TbdZrcl_Jso_5.mp4	0.0	192.0326850414276	2.508246898651123
35	132.70519304275513	fix_post	2		12.0	33.0	2.5	/experiments/knapen_aot/videos/S_yt-TbdZrcl_Jso_5.mp4	0.0	194.54093194007874	0.09993791580200195
36	132.80513095855713	fix_pre	0		131.0	34.0	2.5	blank	1.0	194.64086985588074	1.091771125793457
36	133.88110995292664	response	0	4		34.0	2.5	blank	1.0	195.71684885025024	
36	133.8969020843506	movie	1		301.0	34.0	2.5	blank	1.0	195.7326409816742	2.5082650184631348
36	135.61356711387634	response	1	4		34.0	2.5	blank	1.0	197.44930601119995	
36	136.40516710281372	fix_post	2		12.0	34.0	2.5	blank	1.0	198.24090600013733	0.0999460220336914
37	136.5051131248474	fix_pre	0		212.0	35.0	2.5	/experiments/knapen_aot/videos/S_ILSVRC2015_train_00411000.mp4	0.0	198.34085202217102	1.7666988372802734
37	138.26349401474	response	0	4		35.0	2.5	/experiments/knapen_aot/videos/S_ILSVRC2015_train_00411000.mp4	0.0	200.0992329120636	
37	138.27181196212769	movie	1		301.0	35.0	2.5	/experiments/knapen_aot/videos/S_ILSVRC2015_train_00411000.mp4	0.0	200.1075508594513	2.5083260536193848
37	140.78013801574707	fix_post	2		12.0	35.0	2.5	/experiments/knapen_aot/videos/S_ILSVRC2015_train_00411000.mp4	0.0	202.61587691307068	0.09995913505554199
38	140.8800971508026	fix_pre	0		33.0	36.0	2.5	/experiments/knapen_aot/videos/S_ILSVRC2015_train_00318000.mp4	0.0	202.71583604812622	0.27496981620788574
38	141.14695405960083	response	0	4		36.0	2.5	/experiments/knapen_aot/videos/S_ILSVRC2015_train_00318000.mp4	0.0	202.98269295692444	
38	141.1550669670105	movie	1		299.0	36.0	2.5	/experiments/knapen_aot/videos/S_ILSVRC2015_train_00318000.mp4	0.0	202.9908058643341	2.5083701610565186
38	143.66343712806702	fix_post	2		12.0	36.0	2.5	/experiments/knapen_aot/videos/S_ILSVRC2015_train_00318000.mp4	0.0	205.49917602539062	0.1000218391418457
39	143.76345896720886	fix_pre	0		22.0	37.0	2.5	/experiments/knapen_aot/videos/R_S_ILSVRC2015_train_00613000.mp4	0.0	205.59919786453247	0.18333196640014648
39	143.938472032547	response	0	4		37.0	2.5	/experiments/knapen_aot/videos/R_S_ILSVRC2015_train_00613000.mp4	0.0	205.7742109298706	
39	143.946790933609	movie	1		301.0	37.0	2.5	/experiments/knapen_aot/videos/R_S_ILSVRC2015_train_00613000.mp4	0.0	205.78252983093262	2.5083260536193848
39	146.4551169872284	fix_post	2		12.0	37.0	2.5	/experiments/knapen_aot/videos/R_S_ILSVRC2015_train_00613000.mp4	0.0	208.290855884552	0.09998011589050293
40	146.5550971031189	fix_pre	0		405.0	38.0	2.5	/experiments/knapen_aot/videos/S_yt-158C6xUMi5Y_75.mp4	0.0	208.3908360004425	3.374943971633911
40	149.92188811302185	response	0	4		38.0	2.5	/experiments/knapen_aot/videos/S_yt-158C6xUMi5Y_75.mp4	0.0	211.75762701034546	
40	149.9300410747528	movie	1		301.0	38.0	2.5	/experiments/knapen_aot/videos/S_yt-158C6xUMi5Y_75.mp4	0.0	211.76577997207642	2.508373975753784
40	152.4384150505066	fix_post	2		12.0	38.0	2.5	/experiments/knapen_aot/videos/S_yt-158C6xUMi5Y_75.mp4	0.0	214.2741539478302	0.09999394416809082
41	152.53840899467468	fix_pre	0		146.0	39.0	2.5	/experiments/knapen_aot/videos/R_S_yt-wUqpCtBOFBA_89.mp4	0.0	214.3741478919983	1.216599941253662
41	153.74681210517883	response	0	4		39.0	2.5	/experiments/knapen_aot/videos/R_S_yt-wUqpCtBOFBA_89.mp4	0.0	215.58255100250244	
41	153.75500893592834	movie	1		301.0	39.0	2.5	/experiments/knapen_aot/videos/R_S_yt-wUqpCtBOFBA_89.mp4	0.0	215.59074783325195	2.508423089981079
41	156.26343202590942	fix_post	2		12.0	39.0	2.5	/experiments/knapen_aot/videos/R_S_yt-wUqpCtBOFBA_89.mp4	0.0	218.09917092323303	0.1000070571899414
42	156.36343908309937	fix_pre	0		147.0	40.0	2.5	blank	1.0	218.19917798042297	1.2249879837036133
42	157.58028101921082	response	0	4		40.0	2.5	blank	1.0	219.41601991653442	
42	157.58842706680298	movie	1		301.0	40.0	2.5	blank	1.0	219.4241659641266	2.5085060596466064
42	160.09693312644958	fix_post	2		12.0	40.0	2.5	blank	1.0	221.9326720237732	0.09979987144470215
43	160.1967329978943	fix_pre	0		30.0	41.0	2.5	/experiments/knapen_aot/videos/S_video-8.mp4	0.0	222.0324718952179	0.249985933303833
43	160.43858313560486	response	0	4		41.0	2.5	/experiments/knapen_aot/videos/S_video-8.mp4	0.0	222.27432203292847	
43	160.44671893119812	movie	1		205.0	41.0	2.5	/experiments/knapen_aot/videos/S_video-8.mp4	0.0	222.28245782852173	2.5083529949188232
43	162.95507192611694	fix_post	2		12.0	41.0	2.5	/experiments/knapen_aot/videos/S_video-8.mp4	0.0	224.79081082344055	0.09996509552001953
44	163.05503702163696	fix_pre	0		121.0	42.0	2.5	/experiments/knapen_aot/videos/R_S_yt-f9iXELY0EJ0_344.mp4	0.0	224.89077591896057	1.0082859992980957
44	164.05518913269043	response	0	4		42.0	2.5	/experiments/knapen_aot/videos/R_S_yt-f9iXELY0EJ0_344.mp4	0.0	225.89092803001404	
44	164.06332302093506	movie	1		299.0	42.0	2.5	/experiments/knapen_aot/videos/R_S_yt-f9iXELY0EJ0_344.mp4	0.0	225.89906191825867	2.5083329677581787
44	166.57165598869324	fix_post	2		12.0	42.0	2.5	/experiments/knapen_aot/videos/R_S_yt-f9iXELY0EJ0_344.mp4	0.0	228.40739488601685	0.10007309913635254
45	166.6717290878296	fix_pre	0		24.0	43.0	2.5	/experiments/knapen_aot/videos/S_I003_C008_SDR_2K_AVC.mp4	0.0	228.5074679851532	0.19994187355041504
45	166.8633930683136	response	0	4		43.0	2.5	/experiments/knapen_aot/videos/S_I003_C008_SDR_2K_AVC.mp4	0.0	228.6991319656372	
45	166.87167096138	movie	1		183.0	43.0	2.5	/experiments/knapen_aot/videos/S_I003_C008_SDR_2K_AVC.mp4	0.0	228.7074098587036	2.5083420276641846
45	169.3800129890442	fix_post	2		12.0	43.0	2.5	/experiments/knapen_aot/videos/S_I003_C008_SDR_2K_AVC.mp4	0.0	231.2157518863678	0.10001516342163086
46	169.48002815246582	fix_pre	0		208.0	44.0	2.5	/experiments/knapen_aot/videos/S_yt-zh2yLr-o_8A_953.mp4	0.0	231.31576704978943	1.7332777976989746
46	171.20512199401855	response	0	4		44.0	2.5	/experiments/knapen_aot/videos/S_yt-zh2yLr-o_8A_953.mp4	0.0	233.04086089134216	
46	171.2133059501648	movie	1		301.0	44.0	2.5	/experiments/knapen_aot/videos/S_yt-zh2yLr-o_8A_953.mp4	0.0	233.0490448474884	2.5084121227264404
46	173.72171807289124	fix_post	2		12.0	44.0	2.5	/experiments/knapen_aot/videos/S_yt-zh2yLr-o_8A_953.mp4	0.0	235.55745697021484	0.10003495216369629
47	173.82175302505493	fix_pre	0		105.0	45.0	2.5	/experiments/knapen_aot/videos/R_S_yt-9yxWUrtQJnw_11.mp4	0.0	235.65749192237854	0.8748650550842285
47	174.68834710121155	response	0	4		45.0	2.5	/experiments/knapen_aot/videos/R_S_yt-9yxWUrtQJnw_11.mp4	0.0	236.52408599853516	
47	174.69661808013916	movie	1		301.0	45.0	2.5	/experiments/knapen_aot/videos/R_S_yt-9yxWUrtQJnw_11.mp4	0.0	236.53235697746277	2.50833797454834
47	177.2049560546875	fix_post	2		12.0	45.0	2.5	/experiments/knapen_aot/videos/R_S_yt-9yxWUrtQJnw_11.mp4	0.0	239.0406949520111	0.10004591941833496
48	177.30500197410583	fix_pre	0		124.0	46.0	2.5	/experiments/knapen_aot/videos/S_yt-alGXD2Drh_g_19.mp4	0.0	239.14074087142944	1.033277988433838
48	178.33012413978577	response	0	4		46.0	2.5	/experiments/knapen_aot/videos/S_yt-alGXD2Drh_g_19.mp4	0.0	240.16586303710938	
48	178.33827996253967	movie	1		301.0	46.0	2.5	/experiments/knapen_aot/videos/S_yt-alGXD2Drh_g_19.mp4	0.0	240.17401885986328	2.508345127105713
48	180.84662508964539	fix_post	2		12.0	46.0	2.5	/experiments/knapen_aot/videos/S_yt-alGXD2Drh_g_19.mp4	0.0	242.682363986969	0.09999394416809082
49	180.94661903381348	fix_pre	0		150.0	47.0	2.5	/experiments/knapen_aot/videos/S_yt-QJ2k6vA8aco_12.mp4	0.0	242.78235793113708	1.2498939037322998
49	182.18087196350098	response	0	4		47.0	2.5	/experiments/knapen_aot/videos/S_yt-QJ2k6vA8aco_12.mp4	0.0	244.01661086082458	
49	182.19651293754578	movie	1		301.0	47.0	2.5	/experiments/knapen_aot/videos/S_yt-QJ2k6vA8aco_12.mp4	0.0	244.03225183486938	2.508324146270752
49	184.70483708381653	fix_post	2		12.0	47.0	2.5	/experiments/knapen_aot/videos/S_yt-QJ2k6vA8aco_12.mp4	0.0	246.54057598114014	0.10004591941833496
50	184.80488300323486	fix_pre	0		90.0	48.0	2.5	blank	1.0	246.64062190055847	0.7500770092010498
50	185.53919792175293	response	0	4		48.0	2.5	blank	1.0	247.37493681907654	
50	185.5549600124359	movie	1		301.0	48.0	2.5	blank	1.0	247.39069890975952	2.508358955383301
50	188.0633189678192	fix_post	2		12.0	48.0	2.5	blank	1.0	249.89905786514282	0.09997010231018066
51	188.1632890701294	fix_pre	0		35.0	49.0	2.5	/experiments/knapen_aot/videos/R_S_yt-NOnR6C2sjpI_97.mp4	0.0	249.999027967453	0.29277992248535156
51	188.4467589855194	response	0	4		49.0	2.5	/experiments/knapen_aot/videos/R_S_yt-NOnR6C2sjpI_97.mp4	0.0	250.28249788284302	
51	188.45606899261475	movie	1		301.0	49.0	2.5	/experiments/knapen_aot/videos/R_S_yt-NOnR6C2sjpI_97.mp4	0.0	250.29180788993835	2.5071589946746826
51	190.96322798728943	fix_post	2		12.0	49.0	2.5	/experiments/knapen_aot/videos/R_S_yt-NOnR6C2sjpI_97.mp4	0.0	252.79896688461304	0.09999203681945801
52	191.0632200241089	fix_pre	0		86.0	50.0	2.5	/experiments/knapen_aot/videos/S_comp_DB_D002_C003_PSNK_v04_SDR_PS_20180914_SDR_2K_AVC.mp4	0.0	252.8989589214325	0.716641902923584
52	191.7716829776764	response	0	4		50.0	2.5	/experiments/knapen_aot/videos/S_comp_DB_D002_C003_PSNK_v04_SDR_PS_20180914_SDR_2K_AVC.mp4	0.0	253.607421875	
52	191.77986192703247	movie	1		167.0	50.0	2.5	/experiments/knapen_aot/videos/S_comp_DB_D002_C003_PSNK_v04_SDR_PS_20180914_SDR_2K_AVC.mp4	0.0	253.61560082435608	2.5082831382751465
52	194.28814506530762	fix_post	2		12.0	50.0	2.5	/experiments/knapen_aot/videos/S_comp_DB_D002_C003_PSNK_v04_SDR_PS_20180914_SDR_2K_AVC.mp4	0.0	256.1238839626312	0.10007596015930176
53	194.38822102546692	fix_pre	0		119.0	51.0	2.5	/experiments/knapen_aot/videos/S_yt-H45g6700wbc_159.mp4	0.0	256.2239599227905	0.9917449951171875
53	195.37169098854065	response	0	4		51.0	2.5	/experiments/knapen_aot/videos/S_yt-H45g6700wbc_159.mp4	0.0	257.20742988586426	
53	195.3799660205841	movie	1		301.0	51.0	2.5	/experiments/knapen_aot/videos/S_yt-H45g6700wbc_159.mp4	0.0	257.2157049179077	2.5082409381866455
53	197.88820695877075	fix_post	2		12.0	51.0	2.5	/experiments/knapen_aot/videos/S_yt-H45g6700wbc_159.mp4	0.0	259.72394585609436	0.09992218017578125
54	197.98812913894653	fix_pre	0		137.0	52.0	2.5	/experiments/knapen_aot/videos/R_S_comp_H012_C009_PS_v01_SDR_PS_20180925_SDR_2K_AVC.mp4	0.0	259.82386803627014	1.1417148113250732
54	199.12170004844666	response	0	4		52.0	2.5	/experiments/knapen_aot/videos/R_S_comp_H012_C009_PS_v01_SDR_PS_20180925_SDR_2K_AVC.mp4	0.0	260.95743894577026	
54	199.1298439502716	movie	1		170.0	52.0	2.5	/experiments/knapen_aot/videos/R_S_comp_H012_C009_PS_v01_SDR_PS_20180925_SDR_2K_AVC.mp4	0.0	260.9655828475952	2.5082671642303467
54	201.63811111450195	fix_post	2		12.0	52.0	2.5	/experiments/knapen_aot/videos/R_S_comp_H012_C009_PS_v01_SDR_PS_20180925_SDR_2K_AVC.mp4	0.0	263.47385001182556	0.10006880760192871
55	201.73817992210388	fix_pre	0		143.0	53.0	2.5	/experiments/knapen_aot/videos/R_S_yt-x6tYi0lRGqU_114.mp4	0.0	263.5739188194275	1.191615104675293
55	202.92157101631165	response	0	4		53.0	2.5	/experiments/knapen_aot/videos/R_S_yt-x6tYi0lRGqU_114.mp4	0.0	264.75730991363525	
55	202.92979502677917	movie	1		301.0	53.0	2.5	/experiments/knapen_aot/videos/R_S_yt-x6tYi0lRGqU_114.mp4	0.0	264.7655339241028	2.5083699226379395
55	205.43816494941711	fix_post	2		12.0	53.0	2.5	/experiments/knapen_aot/videos/R_S_yt-x6tYi0lRGqU_114.mp4	0.0	267.2739038467407	0.09996414184570312
56	205.53812909126282	fix_pre	0		188.0	54.0	2.5	blank	1.0	267.3738679885864	1.5667359828948975
56	207.09658908843994	response	0	4		54.0	2.5	blank	1.0	268.93232798576355	
56	207.10486507415771	movie	1		301.0	54.0	2.5	blank	1.0	268.9406039714813	2.50827693939209
56	209.6131420135498	fix_post	2		12.0	54.0	2.5	blank	1.0	271.4488809108734	0.1000509262084961
57	209.7131929397583	fix_pre	0		27.0	55.0	2.5	/experiments/knapen_aot/videos/R_S_production_ID_4101244.mp4	0.0	271.5489318370819	0.22497200965881348
57	209.92989802360535	response	0	4		55.0	2.5	/experiments/knapen_aot/videos/R_S_production_ID_4101244.mp4	0.0	271.76563692092896	
57	209.93816494941711	movie	1		196.0	55.0	2.5	/experiments/knapen_aot/videos/R_S_production_ID_4101244.mp4	0.0	271.7739038467407	2.5082290172576904
57	212.4463939666748	fix_post	2		12.0	55.0	2.5	/experiments/knapen_aot/videos/R_S_production_ID_4101244.mp4	0.0	274.2821328639984	0.1000661849975586
58	212.54646015167236	fix_pre	0		130.0	56.0	2.5	/experiments/knapen_aot/videos/R_S_yt-o_Hakzj8PRg_2864.mp4	0.0	274.382199048996	1.0833427906036377
58	213.62160301208496	response	0	4		56.0	2.5	/experiments/knapen_aot/videos/R_S_yt-o_Hakzj8PRg_2864.mp4	0.0	275.45734190940857	
58	213.629802942276	movie	1		301.0	56.0	2.5	/experiments/knapen_aot/videos/R_S_yt-o_Hakzj8PRg_2864.mp4	0.0	275.4655418395996	2.5083491802215576
58	216.13815212249756	fix_post	2		12.0	56.0	2.5	/experiments/knapen_aot/videos/R_S_yt-o_Hakzj8PRg_2864.mp4	0.0	277.97389101982117	0.10000181198120117
59	216.23815393447876	fix_pre	0		52.0	57.0	2.5	/experiments/knapen_aot/videos/R_S_yt-a5TGHnldsKg_102.mp4	0.0	278.07389283180237	0.43329811096191406
59	216.663241147995	response	0	4		57.0	2.5	/experiments/knapen_aot/videos/R_S_yt-a5TGHnldsKg_102.mp4	0.0	278.4989800453186	
59	216.67145204544067	movie	1		301.0	57.0	2.5	/experiments/knapen_aot/videos/R_S_yt-a5TGHnldsKg_102.mp4	0.0	278.5071909427643	2.508362054824829
59	219.1798141002655	fix_post	2		12.0	57.0	2.5	/experiments/knapen_aot/videos/R_S_yt-a5TGHnldsKg_102.mp4	0.0	281.0155529975891	0.09992694854736328
60	219.27974104881287	fix_pre	0		94.0	58.0	2.5	/experiments/knapen_aot/videos/S_yt-OPzchvF7jO8_53.mp4	0.0	281.1154799461365	0.7833600044250488
60	220.05490398406982	response	0	4		58.0	2.5	/experiments/knapen_aot/videos/S_yt-OPzchvF7jO8_53.mp4	0.0	281.89064288139343	
60	220.06310105323792	movie	1		301.0	58.0	2.5	/experiments/knapen_aot/videos/S_yt-OPzchvF7jO8_53.mp4	0.0	281.8988399505615	2.5083189010620117
60	222.57141995429993	fix_post	2		12.0	58.0	2.5	/experiments/knapen_aot/videos/S_yt-OPzchvF7jO8_53.mp4	0.0	284.40715885162354	0.09994316101074219
61	222.67136311531067	fix_pre	0		111.0	59.0	2.5	/experiments/knapen_aot/videos/R_S_yt-sXy_bKQE-8U_7.mp4	0.0	284.5071020126343	0.9250359535217285
61	223.5882740020752	response	0	4		59.0	2.5	/experiments/knapen_aot/videos/R_S_yt-sXy_bKQE-8U_7.mp4	0.0	285.4240128993988	
61	223.5963990688324	movie	1		301.0	59.0	2.5	/experiments/knapen_aot/videos/R_S_yt-sXy_bKQE-8U_7.mp4	0.0	285.432137966156	2.5083959102630615
61	226.10479497909546	fix_post	2		12.0	59.0	2.5	/experiments/knapen_aot/videos/R_S_yt-sXy_bKQE-8U_7.mp4	0.0	287.94053387641907	0.09996795654296875
62	226.20476293563843	fix_pre	0		141.0	60.0	2.5	/experiments/knapen_aot/videos/R_S_yt-8vm83GUgYxI_1.mp4	0.0	288.04050183296204	1.1749680042266846
62	227.37159514427185	response	0	4		60.0	2.5	/experiments/knapen_aot/videos/R_S_yt-8vm83GUgYxI_1.mp4	0.0	289.20733404159546	
62	227.3797309398651	movie	1		301.0	60.0	2.5	/experiments/knapen_aot/videos/R_S_yt-8vm83GUgYxI_1.mp4	0.0	289.2154698371887	2.5082921981811523
62	229.88802313804626	fix_post	2		12.0	60.0	2.5	/experiments/knapen_aot/videos/R_S_yt-8vm83GUgYxI_1.mp4	0.0	291.7237620353699	0.09997987747192383
63	229.9880030155182	fix_pre	0		19.0	61.0	2.5	/experiments/knapen_aot/videos/R_S_I003_C008_SDR_2K_AVC.mp4	0.0	291.8237419128418	0.15831613540649414
63	230.13817405700684	response	0	4		61.0	2.5	/experiments/knapen_aot/videos/R_S_I003_C008_SDR_2K_AVC.mp4	0.0	291.97391295433044	
63	230.14631915092468	movie	1		184.0	61.0	2.5	/experiments/knapen_aot/videos/R_S_I003_C008_SDR_2K_AVC.mp4	0.0	291.9820580482483	2.5084409713745117
63	232.6547601222992	fix_post	2		12.0	61.0	2.5	/experiments/knapen_aot/videos/R_S_I003_C008_SDR_2K_AVC.mp4	0.0	294.4904990196228	0.10000801086425781
64	232.75476813316345	fix_pre	0		215.0	62.0	2.5	blank	1.0	294.59050703048706	1.7915458679199219
64	234.53813695907593	response	0	4		62.0	2.5	blank	1.0	296.37387585639954	
64	234.54631400108337	movie	1		301.0	62.0	2.5	blank	1.0	296.382052898407	2.5083699226379395
64	237.0546839237213	fix_post	2		12.0	62.0	2.5	blank	1.0	298.8904228210449	0.10002422332763672
65	237.15470814704895	fix_pre	0		75.0	63.0	2.5	/experiments/knapen_aot/videos/S_comp_GMT060_117NC_363D_1034_AUSTRALIA_v35_SDR_PS_FINAL_20180731_SDR_2K_AVC.mp4	0.0	298.99044704437256	0.6249339580535889
65	237.77152609825134	response	0	4		63.0	2.5	/experiments/knapen_aot/videos/S_comp_GMT060_117NC_363D_1034_AUSTRALIA_v35_SDR_PS_FINAL_20180731_SDR_2K_AVC.mp4	0.0	299.60726499557495	
65	237.77964210510254	movie	1		169.0	63.0	2.5	/experiments/knapen_aot/videos/S_comp_GMT060_117NC_363D_1034_AUSTRALIA_v35_SDR_PS_FINAL_20180731_SDR_2K_AVC.mp4	0.0	299.61538100242615	2.508363962173462
65	240.288006067276	fix_post	2		12.0	63.0	2.5	/experiments/knapen_aot/videos/S_comp_GMT060_117NC_363D_1034_AUSTRALIA_v35_SDR_PS_FINAL_20180731_SDR_2K_AVC.mp4	0.0	302.1237449645996	0.10000491142272949
66	240.38801097869873	fix_pre	0		146.0	64.0	2.5	/experiments/knapen_aot/videos/S_yt-wrfAMDCg93Y_8.mp4	0.0	302.22374987602234	1.2166221141815186
66	241.5964801311493	response	0	4		64.0	2.5	/experiments/knapen_aot/videos/S_yt-wrfAMDCg93Y_8.mp4	0.0	303.4322190284729	
66	241.60463309288025	movie	1		301.0	64.0	2.5	/experiments/knapen_aot/videos/S_yt-wrfAMDCg93Y_8.mp4	0.0	303.44037199020386	2.508349895477295
66	244.11298298835754	fix_post	2		12.0	64.0	2.5	/experiments/knapen_aot/videos/S_yt-wrfAMDCg93Y_8.mp4	0.0	305.94872188568115	0.10002493858337402
67	244.21300792694092	fix_pre	0		182.0	65.0	2.5	/experiments/knapen_aot/videos/R_S_yt-bQRBtP9zkms_111.mp4	0.0	306.0487468242645	1.516625165939331
67	245.72145199775696	response	0	4		65.0	2.5	/experiments/knapen_aot/videos/R_S_yt-bQRBtP9zkms_111.mp4	0.0	307.55719089508057	
67	245.72963309288025	movie	1		301.0	65.0	2.5	/experiments/knapen_aot/videos/R_S_yt-bQRBtP9zkms_111.mp4	0.0	307.56537199020386	2.5083670616149902
67	248.23800015449524	fix_post	2		12.0	65.0	2.5	/experiments/knapen_aot/videos/R_S_yt-bQRBtP9zkms_111.mp4	0.0	310.07373905181885	0.10000181198120117
68	248.33800196647644	fix_pre	0		136.0	66.0	2.5	/experiments/knapen_aot/videos/S_yt-s2tZ2NIQrxg_175.mp4	0.0	310.17374086380005	1.133316993713379
68	249.46310210227966	response	0	4		66.0	2.5	/experiments/knapen_aot/videos/S_yt-s2tZ2NIQrxg_175.mp4	0.0	311.29884099960327	
68	249.47131896018982	movie	1		301.0	66.0	2.5	/experiments/knapen_aot/videos/S_yt-s2tZ2NIQrxg_175.mp4	0.0	311.3070578575134	2.508329153060913
68	251.97964811325073	fix_post	2		12.0	66.0	2.5	/experiments/knapen_aot/videos/S_yt-s2tZ2NIQrxg_175.mp4	0.0	313.81538701057434	0.0999150276184082
69	252.07956314086914	fix_pre	0		282.0	67.0	2.5	/experiments/knapen_aot/videos/S_yt-tOOaOzYvtKE_79.mp4	0.0	313.91530203819275	2.350044012069702
69	254.42160296440125	response	0	4		67.0	2.5	/experiments/knapen_aot/videos/S_yt-tOOaOzYvtKE_79.mp4	0.0	316.25734186172485	
69	254.42960715293884	movie	1		301.0	67.0	2.5	/experiments/knapen_aot/videos/S_yt-tOOaOzYvtKE_79.mp4	0.0	316.26534605026245	2.5082898139953613
69	256.9378969669342	fix_post	2		12.0	67.0	2.5	/experiments/knapen_aot/videos/S_yt-tOOaOzYvtKE_79.mp4	0.0	318.7736358642578	0.100067138671875
70	257.0379641056061	fix_pre	0		110.0	68.0	2.5	blank	1.0	318.8737030029297	0.9173898696899414
70	257.94643902778625	response	0	4		68.0	2.5	blank	1.0	319.78217792510986	
70	257.955353975296	movie	1		301.0	68.0	2.5	blank	1.0	319.79109287261963	2.5075740814208984
70	260.4629280567169	fix_post	2		12.0	68.0	2.5	blank	1.0	322.2986669540405	0.0999760627746582
71	260.5629041194916	fix_pre	0		186.0	69.0	2.5	/experiments/knapen_aot/videos/S_yt-158C6xUMi5Y_75.mp4	0.0	322.3986430168152	1.5501229763031006
71	262.1047661304474	response	0	4		69.0	2.5	/experiments/knapen_aot/videos/S_yt-158C6xUMi5Y_75.mp4	0.0	323.940505027771	
71	262.1130270957947	movie	1		301.0	69.0	2.5	/experiments/knapen_aot/videos/S_yt-158C6xUMi5Y_75.mp4	0.0	323.9487659931183	2.508183002471924
71	264.6212100982666	fix_post	2		12.0	69.0	2.5	/experiments/knapen_aot/videos/S_yt-158C6xUMi5Y_75.mp4	0.0	326.4569489955902	0.09997391700744629
72	264.72118401527405	fix_pre	0		153.0	70.0	2.5	/experiments/knapen_aot/videos/R_S_production_ID_4802716.mp4	0.0	326.55692291259766	1.2757899761199951
72	265.9880349636078	response	0	4		70.0	2.5	/experiments/knapen_aot/videos/R_S_production_ID_4802716.mp4	0.0	327.8237738609314	
72	265.99697399139404	movie	1		171.0	70.0	2.5	/experiments/knapen_aot/videos/R_S_production_ID_4802716.mp4	0.0	327.83271288871765	2.5076651573181152
72	268.50463914871216	fix_post	2		12.0	70.0	2.5	/experiments/knapen_aot/videos/R_S_production_ID_4802716.mp4	0.0	330.34037804603577	0.09994983673095703
73	268.6045889854431	fix_pre	0		86.0	71.0	2.5	/experiments/knapen_aot/videos/R_S_yt-bQRBtP9zkms_111.mp4	0.0	330.4403278827667	0.7165889739990234
73	269.3130371570587	response	0	4		71.0	2.5	/experiments/knapen_aot/videos/R_S_yt-bQRBtP9zkms_111.mp4	0.0	331.1487760543823	
73	269.32117795944214	movie	1		300.0	71.0	2.5	/experiments/knapen_aot/videos/R_S_yt-bQRBtP9zkms_111.mp4	0.0	331.15691685676575	2.508355140686035
73	271.8295331001282	fix_post	2		12.0	71.0	2.5	/experiments/knapen_aot/videos/R_S_yt-bQRBtP9zkms_111.mp4	0.0	333.6652719974518	0.10005998611450195
74	271.9295930862427	fix_pre	0		24.0	72.0	2.5	/experiments/knapen_aot/videos/R_S_yt-b0IfGcoHfD0_83.mp4	0.0	333.7653319835663	0.19989585876464844
74	272.1212739944458	response	0	4		72.0	2.5	/experiments/knapen_aot/videos/R_S_yt-b0IfGcoHfD0_83.mp4	0.0	333.9570128917694	
74	272.1294889450073	movie	1		301.0	72.0	2.5	/experiments/knapen_aot/videos/R_S_yt-b0IfGcoHfD0_83.mp4	0.0	333.96522784233093	2.5083751678466797
74	274.637864112854	fix_post	2		12.0	72.0	2.5	/experiments/knapen_aot/videos/R_S_yt-b0IfGcoHfD0_83.mp4	0.0	336.4736030101776	0.10001397132873535
75	274.73787808418274	fix_pre	0		117.0	73.0	2.5	/experiments/knapen_aot/videos/R_S_yt-b29VtKvlnWE_430.mp4	0.0	336.57361698150635	0.974937915802002
75	275.7046549320221	response	0	4		73.0	2.5	/experiments/knapen_aot/videos/R_S_yt-b29VtKvlnWE_430.mp4	0.0	337.5403938293457	
75	275.71281599998474	movie	1		297.0	73.0	2.5	/experiments/knapen_aot/videos/R_S_yt-b29VtKvlnWE_430.mp4	0.0	337.54855489730835	2.508296012878418
75	278.22111201286316	fix_post	2		12.0	73.0	2.5	/experiments/knapen_aot/videos/R_S_yt-b29VtKvlnWE_430.mp4	0.0	340.05685091018677	0.10004901885986328
76	278.321161031723	fix_pre	0		246.0	74.0	2.5	/experiments/knapen_aot/videos/S_yt-b29VtKvlnWE_430.mp4	0.0	340.15689992904663	2.0506250858306885
76	280.36289405822754	response	0	4		74.0	2.5	/experiments/knapen_aot/videos/S_yt-b29VtKvlnWE_430.mp4	0.0	342.19863295555115	
76	280.3717861175537	movie	1		301.0	74.0	2.5	/experiments/knapen_aot/videos/S_yt-b29VtKvlnWE_430.mp4	0.0	342.2075250148773	2.5077309608459473
76	282.87951707839966	fix_post	2		12.0	74.0	2.5	/experiments/knapen_aot/videos/S_yt-b29VtKvlnWE_430.mp4	0.0	344.71525597572327	0.09997987747192383
77	282.9794969558716	fix_pre	0		132.0	75.0	2.5	/experiments/knapen_aot/videos/S_pexels-cottonbro-10640532.mp4	0.0	344.8152358531952	1.100579023361206
77	284.0713369846344	response	0	4		75.0	2.5	/experiments/knapen_aot/videos/S_pexels-cottonbro-10640532.mp4	0.0	345.907075881958	
77	284.0800759792328	movie	1		189.0	75.0	2.5	/experiments/knapen_aot/videos/S_pexels-cottonbro-10640532.mp4	0.0	345.9158148765564	2.5077600479125977
77	286.5878360271454	fix_post	2		12.0	75.0	2.5	/experiments/knapen_aot/videos/S_pexels-cottonbro-10640532.mp4	0.0	348.423574924469	0.09991312026977539
78	286.68774914741516	fix_pre	0		14.0	76.0	2.5	blank	1.0	348.52348804473877	0.11666679382324219
78	286.7962501049042	response	0	4		76.0	2.5	blank	1.0	348.6319890022278	
78	286.8044159412384	movie	1		301.0	76.0	2.5	blank	1.0	348.640154838562	2.5084002017974854
78	289.3128161430359	fix_post	2		12.0	76.0	2.5	blank	1.0	351.1485550403595	0.09997081756591797
79	289.4127869606018	fix_pre	0		387.0	77.0	2.5	/experiments/knapen_aot/videos/R_S_ILSVRC2015_train_00369004.mp4	0.0	351.2485258579254	3.224946975708008
79	292.62958312034607	response	0	4		77.0	2.5	/experiments/knapen_aot/videos/R_S_ILSVRC2015_train_00369004.mp4	0.0	354.4653220176697	
79	292.6377339363098	movie	1		301.0	77.0	2.5	/experiments/knapen_aot/videos/R_S_ILSVRC2015_train_00369004.mp4	0.0	354.4734728336334	2.508376121520996
79	295.1461100578308	fix_post	2		12.0	77.0	2.5	/experiments/knapen_aot/videos/R_S_ILSVRC2015_train_00369004.mp4	0.0	356.9818489551544	0.09999394416809082
80	295.2461040019989	fix_pre	0		36.0	78.0	2.5	/experiments/knapen_aot/videos/R_S_yt-QJ2k6vA8aco_12.mp4	0.0	357.0818428993225	0.29994702339172363
80	295.53793001174927	response	0	4		78.0	2.5	/experiments/knapen_aot/videos/R_S_yt-QJ2k6vA8aco_12.mp4	0.0	357.3736689090729	
80	295.5460510253906	movie	1		301.0	78.0	2.5	/experiments/knapen_aot/videos/R_S_yt-QJ2k6vA8aco_12.mp4	0.0	357.38178992271423	2.508420944213867
80	298.0544719696045	fix_post	2		12.0	78.0	2.5	/experiments/knapen_aot/videos/R_S_yt-QJ2k6vA8aco_12.mp4	0.0	359.8902108669281	0.09990096092224121
81	298.15437293052673	fix_pre	0		173.0	79.0	2.5	/experiments/knapen_aot/videos/S_production_ID_5020960.mp4	0.0	359.99011182785034	1.441711187362671
81	299.5879020690918	response	0	4		79.0	2.5	/experiments/knapen_aot/videos/S_production_ID_5020960.mp4	0.0	361.4236409664154	
81	299.5960841178894	movie	1		200.0	79.0	2.5	/experiments/knapen_aot/videos/S_production_ID_5020960.mp4	0.0	361.431823015213	2.5083258152008057
81	302.1044099330902	fix_post	2		12.0	79.0	2.5	/experiments/knapen_aot/videos/S_production_ID_5020960.mp4	0.0	363.9401488304138	0.09999418258666992
82	302.2044041156769	fix_pre	0		113.0	80.0	2.5	/experiments/knapen_aot/videos/R_S_flickr-53807584@N00-5565833509_7.mp4	0.0	364.0401430130005	0.9416320323944092
82	303.1378719806671	response	0	4		80.0	2.5	/experiments/knapen_aot/videos/R_S_flickr-53807584@N00-5565833509_7.mp4	0.0	364.9736108779907	
82	303.1460361480713	movie	1		301.0	80.0	2.5	/experiments/knapen_aot/videos/R_S_flickr-53807584@N00-5565833509_7.mp4	0.0	364.9817750453949	2.5083889961242676
82	305.65442514419556	fix_post	2		12.0	80.0	2.5	/experiments/knapen_aot/videos/R_S_flickr-53807584@N00-5565833509_7.mp4	0.0	367.49016404151917	0.09991979598999023
83	305.75434494018555	fix_pre	0		235.0	81.0	2.5	/experiments/knapen_aot/videos/R_S_yt-O_4DgW-XKvA_35.mp4	0.0	367.59008383750916	1.9583711624145508
83	307.7045531272888	response	0	4		81.0	2.5	/experiments/knapen_aot/videos/R_S_yt-O_4DgW-XKvA_35.mp4	0.0	369.5402920246124	
83	307.7127161026001	movie	1		301.0	81.0	2.5	/experiments/knapen_aot/videos/R_S_yt-O_4DgW-XKvA_35.mp4	0.0	369.5484549999237	2.5083389282226562
83	310.22105503082275	fix_post	2		11.0	81.0	2.5	/experiments/knapen_aot/videos/R_S_yt-O_4DgW-XKvA_35.mp4	0.0	372.05679392814636	0.09995603561401367
84	310.32101106643677	fix_pre	0		243.0	82.0	2.5	/experiments/knapen_aot/videos/S_yt-WrwPgZYBXlA_34.mp4	0.0	372.1567499637604	2.025014877319336
84	312.3304491043091	response	0	4		82.0	2.5	/experiments/knapen_aot/videos/S_yt-WrwPgZYBXlA_34.mp4	0.0	374.1661880016327	
84	312.3460259437561	movie	1		301.0	82.0	2.5	/experiments/knapen_aot/videos/S_yt-WrwPgZYBXlA_34.mp4	0.0	374.1817648410797	2.5083091259002686
84	314.8543350696564	fix_post	2		12.0	82.0	2.5	/experiments/knapen_aot/videos/S_yt-WrwPgZYBXlA_34.mp4	0.0	376.69007396698	0.10051798820495605
85	314.9548530578613	fix_pre	0		666.0	83.0	2.5	blank	1.0	376.79059195518494	5.549386024475098
85	320.49610114097595	response	0	4		83.0	2.5	blank	1.0	382.33184003829956	
85	320.5042390823364	movie	1		301.0	83.0	2.5	blank	1.0	382.33997797966003	2.5083539485931396
85	323.01259303092957	fix_post	2		12.0	83.0	2.5	blank	1.0	384.8483319282532	0.10013103485107422
87	323.11272406578064	stim	0		410.0					384.94846296310425	3.4183640480041504
87	325.46275210380554	response	0	4						387.29849100112915	
87	326.51960492134094	response	0	space						388.35534381866455	
