trial_nr	onset	event_type	phase	response	nr_frames	movie_index	movie_duration	movie_file	blank	onset_abs	duration
0	0.011656999588012695	stim	0		1831.0					16.463215112686157	15.2570960521698
0	15.260733127593994	response	0	space						31.71229124069214	
1	15.268753051757812	stim	0		121.0					31.720311164855957	1.0083510875701904
1	16.277104139328003	stim	1		120.0					32.72866225242615	0.9999690055847168
1	17.26876211166382	response	1	space						33.72032022476196	
2	17.27707314491272	fix_pre	0		49.0	0.0	2.5	/experiments/knapen_aot/videos/R_S_yt-mQESmS4uqRU_208.mp4	0.0	33.728631258010864	0.4083080291748047
2	17.677250146865845	response	0	space		0.0	2.5	/experiments/knapen_aot/videos/R_S_yt-mQESmS4uqRU_208.mp4	0.0	34.12880825996399	
2	17.685381174087524	movie	1		301.0	0.0	2.5	/experiments/knapen_aot/videos/R_S_yt-mQESmS4uqRU_208.mp4	0.0	34.13693928718567	2.5084228515625
2	17.874258041381836	response	1	space		0.0	2.5	/experiments/knapen_aot/videos/R_S_yt-mQESmS4uqRU_208.mp4	0.0	34.32581615447998	
2	20.193804025650024	fix_post	2		12.0	0.0	2.5	/experiments/knapen_aot/videos/R_S_yt-mQESmS4uqRU_208.mp4	0.0	36.64536213874817	0.09985113143920898
3	20.293655157089233	fix_pre	0		290.0	1.0	2.5	/experiments/knapen_aot/videos/R_S_ILSVRC2015_train_00693000.mp4	0.0	36.74521327018738	2.4176130294799805
3	22.70217514038086	response	0	space		1.0	2.5	/experiments/knapen_aot/videos/R_S_ILSVRC2015_train_00693000.mp4	0.0	39.153733253479004	
3	22.711268186569214	movie	1		301.0	1.0	2.5	/experiments/knapen_aot/videos/R_S_ILSVRC2015_train_00693000.mp4	0.0	39.16282629966736	2.5073959827423096
3	25.218664169311523	fix_post	2		12.0	1.0	2.5	/experiments/knapen_aot/videos/R_S_ILSVRC2015_train_00693000.mp4	0.0	41.67022228240967	0.10006284713745117
4	25.318727016448975	fix_pre	0		443.0	2.0	2.5	/experiments/knapen_aot/videos/S_yt-2IN85w8ptmM_51.mp4	0.0	41.77028512954712	3.6915090084075928
4	29.00210404396057	response	0	space		2.0	2.5	/experiments/knapen_aot/videos/S_yt-2IN85w8ptmM_51.mp4	0.0	45.453662157058716	
4	29.010236024856567	movie	1		301.0	2.0	2.5	/experiments/knapen_aot/videos/S_yt-2IN85w8ptmM_51.mp4	0.0	45.46179413795471	2.5084450244903564
4	31.518681049346924	fix_post	2		12.0	2.0	2.5	/experiments/knapen_aot/videos/S_yt-2IN85w8ptmM_51.mp4	0.0	47.97023916244507	0.10004711151123047
5	31.618728160858154	fix_pre	0		288.0	3.0	2.5	/experiments/knapen_aot/videos/S_yt-fCjjH_4i8Fg_115.mp4	0.0	48.0702862739563	2.399940013885498
5	34.0104341506958	response	0	space		3.0	2.5	/experiments/knapen_aot/videos/S_yt-fCjjH_4i8Fg_115.mp4	0.0	50.461992263793945	
5	34.01866817474365	movie	1		301.0	3.0	2.5	/experiments/knapen_aot/videos/S_yt-fCjjH_4i8Fg_115.mp4	0.0	50.4702262878418	2.5083138942718506
5	36.5269820690155	fix_post	2		12.0	3.0	2.5	/experiments/knapen_aot/videos/S_yt-fCjjH_4i8Fg_115.mp4	0.0	52.97854018211365	0.0999600887298584
6	36.62694215774536	fix_pre	0		165.0	4.0	2.5	/experiments/knapen_aot/videos/R_S_yt-ZtS7ZrJ_rtk_525.mp4	0.0	53.078500270843506	1.3757779598236084
6	37.99373006820679	response	0	space		4.0	2.5	/experiments/knapen_aot/videos/R_S_yt-ZtS7ZrJ_rtk_525.mp4	0.0	54.44528818130493	
6	38.00272011756897	movie	1		301.0	4.0	2.5	/experiments/knapen_aot/videos/R_S_yt-ZtS7ZrJ_rtk_525.mp4	0.0	54.454278230667114	2.507652997970581
6	40.51037311553955	fix_post	2		12.0	4.0	2.5	/experiments/knapen_aot/videos/R_S_yt-ZtS7ZrJ_rtk_525.mp4	0.0	56.961931228637695	0.10004687309265137
7	40.6104199886322	fix_pre	0		134.0	5.0	2.5	/experiments/knapen_aot/videos/R_S_video_inspire_california_big-sur_2020_00001.1080-h264.mp4	0.0	57.06197810173035	1.1165270805358887
7	41.718666076660156	response	0	space		5.0	2.5	/experiments/knapen_aot/videos/R_S_video_inspire_california_big-sur_2020_00001.1080-h264.mp4	0.0	58.1702241897583	
7	41.72694706916809	movie	1		172.0	5.0	2.5	/experiments/knapen_aot/videos/R_S_video_inspire_california_big-sur_2020_00001.1080-h264.mp4	0.0	58.178505182266235	2.508233070373535
7	44.235180139541626	fix_post	2		12.0	5.0	2.5	/experiments/knapen_aot/videos/R_S_video_inspire_california_big-sur_2020_00001.1080-h264.mp4	0.0	60.68673825263977	0.10007190704345703
8	44.33525204658508	fix_pre	0		44.0	6.0	2.5	/experiments/knapen_aot/videos/S_yt-BiBS8EO5GPc_4.mp4	0.0	60.78681015968323	0.3666551113128662
