trial_nr	onset	event_type	phase	response	nr_frames	movie_index	movie_duration	movie_file	blank	onset_abs	duration
0	0.13466405868530273	stim	0		15.0					148.00898814201355	0.12521004676818848
0	0.25007200241088867	response	0	space						148.12439608573914	
1	0.2598741054534912	stim	0		121.0					148.13419818878174	1.0067739486694336
1	0.9584240913391113	response	0	space						148.83274817466736	
1	1.2666480541229248	stim	1		120.0					149.14097213745117	0.9996030330657959
1	1.3251159191131592	response	1	space						149.1994400024414	
1	1.7005341053009033	response	1	space						149.57485818862915	
1	1.9746348857879639	response	1	space						149.8489589691162	
2	2.2662510871887207	fix_pre	0		1.0	0.0	2.5	/experiments/knapen_aot/videos/S_yt-B7ZRYVhfW2U_52.mp4	0.0	150.14057517051697	0.00831294059753418
2	2.2690680027008057	response	0	space		0.0	2.5	/experiments/knapen_aot/videos/S_yt-B7ZRYVhfW2U_52.mp4	0.0	150.14339208602905	
2	2.274564027786255	movie	1		297.0	0.0	2.5	/experiments/knapen_aot/videos/S_yt-B7ZRYVhfW2U_52.mp4	0.0	150.1488881111145	2.508352041244507
2	4.782916069030762	fix_post	2		12.0	0.0	2.5	/experiments/knapen_aot/videos/S_yt-B7ZRYVhfW2U_52.mp4	0.0	152.657240152359	0.09992504119873047
3	4.882841110229492	fix_pre	0		88.0	1.0	2.5	/experiments/knapen_aot/videos/S_ILSVRC2015_train_00715000.mp4	0.0	152.75716519355774	0.7374680042266846
3	5.6129279136657715	response	0	2		1.0	2.5	/experiments/knapen_aot/videos/S_ILSVRC2015_train_00715000.mp4	0.0	153.48725199699402	
3	5.620309114456177	movie	1		299.0	1.0	2.5	/experiments/knapen_aot/videos/S_ILSVRC2015_train_00715000.mp4	0.0	153.49463319778442	2.5042459964752197
3	8.124555110931396	fix_post	2		12.0	1.0	2.5	/experiments/knapen_aot/videos/S_ILSVRC2015_train_00715000.mp4	0.0	155.99887919425964	0.10004091262817383
4	8.22459602355957	fix_pre	0		68.0	2.0	2.5	/experiments/knapen_aot/videos/R_S_yt-mWlx1SIXl5M_850.mp4	0.0	156.09892010688782	0.5666348934173584
4	8.775584936141968	response	0	2		2.0	2.5	/experiments/knapen_aot/videos/R_S_yt-mWlx1SIXl5M_850.mp4	0.0	156.64990901947021	
4	8.791230916976929	movie	1		301.0	2.0	2.5	/experiments/knapen_aot/videos/R_S_yt-mWlx1SIXl5M_850.mp4	0.0	156.66555500030518	2.5082690715789795
4	11.299499988555908	fix_post	2		12.0	2.0	2.5	/experiments/knapen_aot/videos/R_S_yt-mWlx1SIXl5M_850.mp4	0.0	159.17382407188416	0.1000509262084961
5	11.399550914764404	fix_pre	0		70.0	3.0	2.5	/experiments/knapen_aot/videos/S_comp_DB_D008_C010_PSNK_v21_SDR_PS_20180914_F0F16157_SDR_2K_AVC.mp4	0.0	159.27387499809265	0.5833261013031006
5	11.974634885787964	response	0	2		3.0	2.5	/experiments/knapen_aot/videos/S_comp_DB_D008_C010_PSNK_v21_SDR_PS_20180914_F0F16157_SDR_2K_AVC.mp4	0.0	159.8489589691162	
5	11.982877016067505	movie	1		174.0	3.0	2.5	/experiments/knapen_aot/videos/S_comp_DB_D008_C010_PSNK_v21_SDR_PS_20180914_F0F16157_SDR_2K_AVC.mp4	0.0	159.85720109939575	2.508316993713379
5	14.491194009780884	fix_post	2		12.0	3.0	2.5	/experiments/knapen_aot/videos/S_comp_DB_D008_C010_PSNK_v21_SDR_PS_20180914_F0F16157_SDR_2K_AVC.mp4	0.0	162.36551809310913	0.10003304481506348
6	14.591227054595947	fix_pre	0		65.0	4.0	2.5	/experiments/knapen_aot/videos/R_S_yt-T7RmOAme5dU_213.mp4	0.0	162.4655511379242	0.5428919792175293
6	15.124687910079956	response	0	2		4.0	2.5	/experiments/knapen_aot/videos/R_S_yt-T7RmOAme5dU_213.mp4	0.0	162.9990119934082	
6	15.134119033813477	movie	1		301.0	4.0	2.5	/experiments/knapen_aot/videos/R_S_yt-T7RmOAme5dU_213.mp4	0.0	163.00844311714172	2.5070810317993164
6	17.641200065612793	fix_post	2		12.0	4.0	2.5	/experiments/knapen_aot/videos/R_S_yt-T7RmOAme5dU_213.mp4	0.0	165.51552414894104	0.10003495216369629
7	17.74123501777649	fix_pre	0		89.0	5.0	2.5	/experiments/knapen_aot/videos/R_S_yt-_HuBzj8EPBc_62.mp4	0.0	165.61555910110474	0.7416400909423828
7	18.474644899368286	response	0	2		5.0	2.5	/experiments/knapen_aot/videos/R_S_yt-_HuBzj8EPBc_62.mp4	0.0	166.34896898269653	
7	18.482875108718872	movie	1		301.0	5.0	2.5	/experiments/knapen_aot/videos/R_S_yt-_HuBzj8EPBc_62.mp4	0.0	166.35719919204712	2.508342981338501
7	20.991218090057373	fix_post	2		12.0	5.0	2.5	/experiments/knapen_aot/videos/R_S_yt-_HuBzj8EPBc_62.mp4	0.0	168.86554217338562	0.10002779960632324
8	21.091245889663696	fix_pre	0		69.0	6.0	2.5	/experiments/knapen_aot/videos/R_S_yt-d5jBQ-LOW2I_17.mp4	0.0	168.96556997299194	0.5749092102050781
8	21.65043592453003	response	0	2		6.0	2.5	/experiments/knapen_aot/videos/R_S_yt-d5jBQ-LOW2I_17.mp4	0.0	169.52476000785828	
8	21.666155099868774	movie	1		301.0	6.0	2.5	/experiments/knapen_aot/videos/R_S_yt-d5jBQ-LOW2I_17.mp4	0.0	169.54047918319702	2.5083539485931396
8	24.174509048461914	fix_post	2		12.0	6.0	2.5	/experiments/knapen_aot/videos/R_S_yt-d5jBQ-LOW2I_17.mp4	0.0	172.04883313179016	0.09995388984680176
9	24.274462938308716	fix_pre	0		73.0	7.0	2.5	blank	1.0	172.14878702163696	0.6082589626312256
9	24.874659061431885	response	0	2		7.0	2.5	blank	1.0	172.74898314476013	
9	24.88272190093994	movie	1		301.0	7.0	2.5	blank	1.0	172.7570459842682	2.5084681510925293
9	27.39119005203247	fix_post	2		12.0	7.0	2.5	blank	1.0	175.26551413536072	0.09992194175720215
10	27.491111993789673	fix_pre	0		69.0	8.0	2.5	/experiments/knapen_aot/videos/R_S_yt-0Ut9QANGX20_35.mp4	0.0	175.36543607711792	0.5751159191131592
10	28.050461053848267	response	0	2		8.0	2.5	/experiments/knapen_aot/videos/R_S_yt-0Ut9QANGX20_35.mp4	0.0	175.9247851371765	
10	28.066227912902832	movie	1		301.0	8.0	2.5	/experiments/knapen_aot/videos/R_S_yt-0Ut9QANGX20_35.mp4	0.0	175.94055199623108	2.508212089538574
10	30.574440002441406	fix_post	2		12.0	8.0	2.5	/experiments/knapen_aot/videos/R_S_yt-0Ut9QANGX20_35.mp4	0.0	178.44876408576965	0.09993791580200195
11	30.674377918243408	fix_pre	0		64.0	9.0	2.5	/experiments/knapen_aot/videos/R_S_pexels-mart-production-7277934.mp4	0.0	178.54870200157166	0.5334110260009766
11	31.199551105499268	response	0	2		9.0	2.5	/experiments/knapen_aot/videos/R_S_pexels-mart-production-7277934.mp4	0.0	179.07387518882751	
11	31.207788944244385	movie	1		169.0	9.0	2.5	/experiments/knapen_aot/videos/R_S_pexels-mart-production-7277934.mp4	0.0	179.08211302757263	2.5083401203155518
11	33.71612906455994	fix_post	2		12.0	9.0	2.5	/experiments/knapen_aot/videos/R_S_pexels-mart-production-7277934.mp4	0.0	181.59045314788818	0.10002994537353516
12	33.81615900993347	fix_pre	0		83.0	10.0	2.5	/experiments/knapen_aot/videos/S_yt-ZE8Af60eNsI_15.mp4	0.0	181.69048309326172	0.6927618980407715
12	34.499598026275635	response	0	2		10.0	2.5	/experiments/knapen_aot/videos/S_yt-ZE8Af60eNsI_15.mp4	0.0	182.37392210960388	
12	34.50892090797424	movie	1		301.0	10.0	2.5	/experiments/knapen_aot/videos/S_yt-ZE8Af60eNsI_15.mp4	0.0	182.3832449913025	2.5071651935577393
12	37.01608610153198	fix_post	2		12.0	10.0	2.5	/experiments/knapen_aot/videos/S_yt-ZE8Af60eNsI_15.mp4	0.0	184.89041018486023	0.10001897811889648
13	37.11610507965088	fix_pre	0		88.0	11.0	2.5	/experiments/knapen_aot/videos/R_S_G008_C015_UHD_SDR_2K_AVC.mp4	0.0	184.99042916297913	0.7332868576049805
13	37.841196060180664	response	0	2		11.0	2.5	/experiments/knapen_aot/videos/R_S_G008_C015_UHD_SDR_2K_AVC.mp4	0.0	185.7155201435089	
13	37.84939193725586	movie	1		180.0	11.0	2.5	/experiments/knapen_aot/videos/R_S_G008_C015_UHD_SDR_2K_AVC.mp4	0.0	185.7237160205841	2.5084011554718018
13	40.35779309272766	fix_post	2		12.0	11.0	2.5	/experiments/knapen_aot/videos/R_S_G008_C015_UHD_SDR_2K_AVC.mp4	0.0	188.2321171760559	0.10000181198120117
14	40.45779490470886	fix_pre	0		83.0	12.0	2.5	/experiments/knapen_aot/videos/S_yt-5ws2gxbcjs4_381.mp4	0.0	188.3321189880371	0.6916069984436035
14	41.141233921051025	response	0	2		12.0	2.5	/experiments/knapen_aot/videos/S_yt-5ws2gxbcjs4_381.mp4	0.0	189.01555800437927	
14	41.149401903152466	movie	1		301.0	12.0	2.5	/experiments/knapen_aot/videos/S_yt-5ws2gxbcjs4_381.mp4	0.0	189.0237259864807	2.5083510875701904
14	43.657752990722656	fix_post	2		12.0	12.0	2.5	/experiments/knapen_aot/videos/S_yt-5ws2gxbcjs4_381.mp4	0.0	191.5320770740509	0.10001802444458008
15	43.757771015167236	fix_pre	0		65.0	13.0	2.5	/experiments/knapen_aot/videos/R_S_ILSVRC2015_train_00479001.mp4	0.0	191.63209509849548	0.5427289009094238
15	44.29127097129822	response	0	2		13.0	2.5	/experiments/knapen_aot/videos/R_S_ILSVRC2015_train_00479001.mp4	0.0	192.16559505462646	
15	44.30049991607666	movie	1		301.0	13.0	2.5	/experiments/knapen_aot/videos/R_S_ILSVRC2015_train_00479001.mp4	0.0	192.1748239994049	2.5072481632232666
15	46.80774807929993	fix_post	2		12.0	13.0	2.5	/experiments/knapen_aot/videos/R_S_ILSVRC2015_train_00479001.mp4	0.0	194.68207216262817	0.10005903244018555
16	46.90780711174011	fix_pre	0		80.0	14.0	2.5	blank	1.0	194.78213119506836	0.6665058135986328
16	47.566165924072266	response	0	2		14.0	2.5	blank	1.0	195.4404900074005	
16	47.574312925338745	movie	1		301.0	14.0	2.5	blank	1.0	195.448637008667	2.508491039276123
16	50.08280396461487	fix_post	2		12.0	14.0	2.5	blank	1.0	197.95712804794312	0.0999751091003418
17	50.18277907371521	fix_pre	0		65.0	15.0	2.5	/experiments/knapen_aot/videos/R_S_yt-_68FWLGgPYE_25.mp4	0.0	198.05710315704346	0.5416219234466553
17	50.71622395515442	response	0	2		15.0	2.5	/experiments/knapen_aot/videos/R_S_yt-_68FWLGgPYE_25.mp4	0.0	198.59054803848267	
17	50.724400997161865	movie	1		301.0	15.0	2.5	/experiments/knapen_aot/videos/R_S_yt-_68FWLGgPYE_25.mp4	0.0	198.5987250804901	2.5083370208740234
17	53.23273801803589	fix_post	2		12.0	15.0	2.5	/experiments/knapen_aot/videos/R_S_yt-_68FWLGgPYE_25.mp4	0.0	201.10706210136414	0.09995198249816895
18	53.33269000053406	fix_pre	0		83.0	16.0	2.5	/experiments/knapen_aot/videos/S_yt-bH4nJibL4Jo_164.mp4	0.0	201.2070140838623	0.6916859149932861
18	54.00869107246399	response	0	2		16.0	2.5	/experiments/knapen_aot/videos/S_yt-bH4nJibL4Jo_164.mp4	0.0	201.88301515579224	
18	54.024375915527344	movie	1		299.0	16.0	2.5	/experiments/knapen_aot/videos/S_yt-bH4nJibL4Jo_164.mp4	0.0	201.8986999988556	2.5083019733428955
18	56.53267788887024	fix_post	2		12.0	16.0	2.5	/experiments/knapen_aot/videos/S_yt-bH4nJibL4Jo_164.mp4	0.0	204.4070019721985	0.10005521774291992
19	56.63273310661316	fix_pre	0		72.0	17.0	2.5	/experiments/knapen_aot/videos/R_S_yt-zam74qlzGtQ_122.mp4	0.0	204.5070571899414	0.5998809337615967
19	57.224534034729004	response	0	2		17.0	2.5	/experiments/knapen_aot/videos/R_S_yt-zam74qlzGtQ_122.mp4	0.0	205.09885811805725	
19	57.232614040374756	movie	1		301.0	17.0	2.5	/experiments/knapen_aot/videos/R_S_yt-zam74qlzGtQ_122.mp4	0.0	205.106938123703	2.508453845977783
19	59.74106788635254	fix_post	2		12.0	17.0	2.5	/experiments/knapen_aot/videos/R_S_yt-zam74qlzGtQ_122.mp4	0.0	207.6153919696808	0.10001420974731445
20	59.84108209609985	fix_pre	0		57.0	18.0	2.5	/experiments/knapen_aot/videos/R_S_yt-_68FWLGgPYE_25.mp4	0.0	207.7154061794281	0.48345398902893066
20	60.30784010887146	response	0	2		18.0	2.5	/experiments/knapen_aot/videos/R_S_yt-_68FWLGgPYE_25.mp4	0.0	208.1821641921997	
20	60.324536085128784	movie	1		300.0	18.0	2.5	/experiments/knapen_aot/videos/R_S_yt-_68FWLGgPYE_25.mp4	0.0	208.19886016845703	2.499785900115967
20	62.82432198524475	fix_post	2		12.0	18.0	2.5	/experiments/knapen_aot/videos/R_S_yt-_68FWLGgPYE_25.mp4	0.0	210.698646068573	0.10005712509155273
21	62.924379110336304	fix_pre	0		46.0	19.0	2.5	/experiments/knapen_aot/videos/S_yt-9yxWUrtQJnw_11.mp4	0.0	210.79870319366455	0.3833158016204834
21	63.299516916275024	response	0	2		19.0	2.5	/experiments/knapen_aot/videos/S_yt-9yxWUrtQJnw_11.mp4	0.0	211.17384099960327	
21	63.30769491195679	movie	1		301.0	19.0	2.5	/experiments/knapen_aot/videos/S_yt-9yxWUrtQJnw_11.mp4	0.0	211.18201899528503	2.50835919380188
21	65.81605410575867	fix_post	2		12.0	19.0	2.5	/experiments/knapen_aot/videos/S_yt-9yxWUrtQJnw_11.mp4	0.0	213.6903781890869	0.09998297691345215
22	65.91603708267212	fix_pre	0		54.0	20.0	2.5	blank	1.0	213.79036116600037	0.4499819278717041
22	66.3578040599823	response	0	2		20.0	2.5	blank	1.0	214.23212814331055	
22	66.36601901054382	movie	1		301.0	20.0	2.5	blank	1.0	214.24034309387207	2.5082690715789795
22	68.8742880821228	fix_post	2		12.0	20.0	2.5	blank	1.0	216.74861216545105	0.09998798370361328
23	68.97427606582642	fix_pre	0		64.0	21.0	2.5	/experiments/knapen_aot/videos/S_yt-tHBOlYmaBuk_96.mp4	0.0	216.84860014915466	0.5342998504638672
23	69.49178099632263	response	0	2		21.0	2.5	/experiments/knapen_aot/videos/S_yt-tHBOlYmaBuk_96.mp4	0.0	217.36610507965088	
23	69.50857591629028	movie	1		301.0	21.0	2.5	/experiments/knapen_aot/videos/S_yt-tHBOlYmaBuk_96.mp4	0.0	217.38289999961853	2.507387161254883
23	72.01596307754517	fix_post	2		12.0	21.0	2.5	/experiments/knapen_aot/videos/S_yt-tHBOlYmaBuk_96.mp4	0.0	219.8902871608734	0.10002303123474121
24	72.11598610877991	fix_pre	0		52.0	22.0	2.5	/experiments/knapen_aot/videos/S_yt-HwEfWfFJhRo_126.mp4	0.0	219.99031019210815	0.434237003326416
24	72.5411159992218	response	0	2		22.0	2.5	/experiments/knapen_aot/videos/S_yt-HwEfWfFJhRo_126.mp4	0.0	220.41544008255005	
24	72.55022311210632	movie	1		301.0	22.0	2.5	/experiments/knapen_aot/videos/S_yt-HwEfWfFJhRo_126.mp4	0.0	220.42454719543457	2.507361888885498
24	75.05758500099182	fix_post	2		12.0	22.0	2.5	/experiments/knapen_aot/videos/S_yt-HwEfWfFJhRo_126.mp4	0.0	222.93190908432007	0.10006499290466309
25	75.15764999389648	fix_pre	0		46.0	23.0	2.5	/experiments/knapen_aot/videos/S_yt-_HuBzj8EPBc_62.mp4	0.0	223.03197407722473	0.3833019733428955
25	75.53272294998169	response	0	2		23.0	2.5	/experiments/knapen_aot/videos/S_yt-_HuBzj8EPBc_62.mp4	0.0	223.40704703330994	
25	75.54095196723938	movie	1		301.0	23.0	2.5	/experiments/knapen_aot/videos/S_yt-_HuBzj8EPBc_62.mp4	0.0	223.41527605056763	2.508355140686035
25	78.04930710792542	fix_post	2		12.0	23.0	2.5	/experiments/knapen_aot/videos/S_yt-_HuBzj8EPBc_62.mp4	0.0	225.92363119125366	0.10002994537353516
26	78.14933705329895	fix_pre	0		76.0	24.0	2.5	/experiments/knapen_aot/videos/R_S_comp_C003_C003_PS_v01_SDR_PS_20180925_SDR_2K_AVC.mp4	0.0	226.0236611366272	0.6332859992980957
26	78.7744140625	response	0	2		24.0	2.5	/experiments/knapen_aot/videos/R_S_comp_C003_C003_PS_v01_SDR_PS_20180925_SDR_2K_AVC.mp4	0.0	226.64873814582825	
26	78.78262305259705	movie	1		162.0	24.0	2.5	/experiments/knapen_aot/videos/R_S_comp_C003_C003_PS_v01_SDR_PS_20180925_SDR_2K_AVC.mp4	0.0	226.6569471359253	2.5082149505615234
26	81.29083800315857	fix_post	2		12.0	24.0	2.5	/experiments/knapen_aot/videos/R_S_comp_C003_C003_PS_v01_SDR_PS_20180925_SDR_2K_AVC.mp4	0.0	229.16516208648682	0.10009598731994629
27	81.39093399047852	fix_pre	0		56.0	25.0	2.5	/experiments/knapen_aot/videos/S_yt-Tt_LkR4iAt4_11.mp4	0.0	229.26525807380676	0.46657395362854004
27	81.8493959903717	response	0	2		25.0	2.5	/experiments/knapen_aot/videos/S_yt-Tt_LkR4iAt4_11.mp4	0.0	229.72372007369995	
27	81.85750794410706	movie	1		301.0	25.0	2.5	/experiments/knapen_aot/videos/S_yt-Tt_LkR4iAt4_11.mp4	0.0	229.7318320274353	2.508418083190918
27	84.36592602729797	fix_post	2		12.0	25.0	2.5	/experiments/knapen_aot/videos/S_yt-Tt_LkR4iAt4_11.mp4	0.0	232.24025011062622	0.09997701644897461
28	84.46590304374695	fix_pre	0		49.0	26.0	2.5	blank	1.0	232.3402271270752	0.4083130359649658
28	84.86606097221375	response	0	2		26.0	2.5	blank	1.0	232.740385055542	
28	84.87421607971191	movie	1		301.0	26.0	2.5	blank	1.0	232.74854016304016	2.5083630084991455
28	87.38257908821106	fix_post	2		12.0	26.0	2.5	blank	1.0	235.2569031715393	0.0999898910522461
29	87.4825689792633	fix_pre	0		66.0	27.0	2.5	/experiments/knapen_aot/videos/S_production_ID_4873122.mp4	0.0	235.35689306259155	0.5499820709228516
29	88.01690292358398	response	0	2		27.0	2.5	/experiments/knapen_aot/videos/S_production_ID_4873122.mp4	0.0	235.89122700691223	
29	88.03255105018616	movie	1		167.0	27.0	2.5	/experiments/knapen_aot/videos/S_production_ID_4873122.mp4	0.0	235.9068751335144	2.508344888687134
29	90.54089593887329	fix_post	2		12.0	27.0	2.5	/experiments/knapen_aot/videos/S_production_ID_4873122.mp4	0.0	238.41522002220154	0.09998106956481934
30	90.64087700843811	fix_pre	0		47.0	28.0	2.5	/experiments/knapen_aot/videos/R_S_production_ID_4765899.mp4	0.0	238.51520109176636	0.3916280269622803
30	91.02429509162903	response	0	2		28.0	2.5	/experiments/knapen_aot/videos/R_S_production_ID_4765899.mp4	0.0	238.89861917495728	
30	91.03250503540039	movie	1		164.0	28.0	2.5	/experiments/knapen_aot/videos/R_S_production_ID_4765899.mp4	0.0	238.90682911872864	2.508405923843384
30	93.54091095924377	fix_post	2		12.0	28.0	2.5	/experiments/knapen_aot/videos/R_S_production_ID_4765899.mp4	0.0	241.41523504257202	0.10000395774841309
31	93.64091491699219	fix_pre	0		69.0	29.0	2.5	/experiments/knapen_aot/videos/S_yt-cjndulbUtRc_51.mp4	0.0	241.51523900032043	0.5757830142974854
31	94.20926094055176	response	0	2		29.0	2.5	/experiments/knapen_aot/videos/S_yt-cjndulbUtRc_51.mp4	0.0	242.08358502388	
31	94.21669793128967	movie	1		301.0	29.0	2.5	/experiments/knapen_aot/videos/S_yt-cjndulbUtRc_51.mp4	0.0	242.09102201461792	2.5075111389160156
31	96.72420907020569	fix_post	2		12.0	29.0	2.5	/experiments/knapen_aot/videos/S_yt-cjndulbUtRc_51.mp4	0.0	244.59853315353394	0.10001182556152344
32	96.82422089576721	fix_pre	0		77.0	30.0	2.5	/experiments/knapen_aot/videos/R_S_yt-f9iXELY0EJ0_344.mp4	0.0	244.69854497909546	0.6425120830535889
32	97.45763897895813	response	0	2		30.0	2.5	/experiments/knapen_aot/videos/R_S_yt-f9iXELY0EJ0_344.mp4	0.0	245.33196306228638	
32	97.4667329788208	movie	1		301.0	30.0	2.5	/experiments/knapen_aot/videos/R_S_yt-f9iXELY0EJ0_344.mp4	0.0	245.34105706214905	2.5074880123138428
32	99.97422099113464	fix_post	2		12.0	30.0	2.5	/experiments/knapen_aot/videos/R_S_yt-f9iXELY0EJ0_344.mp4	0.0	247.8485450744629	0.10000300407409668
33	100.07422399520874	fix_pre	0		97.0	31.0	2.5	/experiments/knapen_aot/videos/S_yt-2IN85w8ptmM_51.mp4	0.0	247.948548078537	0.8091170787811279
33	100.87433695793152	response	0	2		31.0	2.5	/experiments/knapen_aot/videos/S_yt-2IN85w8ptmM_51.mp4	0.0	248.74866104125977	
33	100.88334107398987	movie	1		301.0	31.0	2.5	/experiments/knapen_aot/videos/S_yt-2IN85w8ptmM_51.mp4	0.0	248.75766515731812	2.5075039863586426
33	103.39084506034851	fix_post	2		12.0	31.0	2.5	/experiments/knapen_aot/videos/S_yt-2IN85w8ptmM_51.mp4	0.0	251.26516914367676	0.09998583793640137
34	103.49083089828491	fix_pre	0		117.0	32.0	2.5	/experiments/knapen_aot/videos/R_S_ILSVRC2015_train_00339001.mp4	0.0	251.36515498161316	0.9757812023162842
34	104.45758295059204	response	0	2		32.0	2.5	/experiments/knapen_aot/videos/R_S_ILSVRC2015_train_00339001.mp4	0.0	252.3319070339203	
34	104.4666121006012	movie	1		301.0	32.0	2.5	/experiments/knapen_aot/videos/R_S_ILSVRC2015_train_00339001.mp4	0.0	252.34093618392944	2.5075860023498535
34	106.97419810295105	fix_post	2		12.0	32.0	2.5	/experiments/knapen_aot/videos/R_S_ILSVRC2015_train_00339001.mp4	0.0	254.8485221862793	0.0999748706817627
35	107.07417297363281	fix_pre	0		55.0	33.0	2.5	/experiments/knapen_aot/videos/R_S_ILSVRC2015_train_00584001.mp4	0.0	254.94849705696106	0.45832014083862305
35	107.52432894706726	response	0	2		33.0	2.5	/experiments/knapen_aot/videos/R_S_ILSVRC2015_train_00584001.mp4	0.0	255.3986530303955	
35	107.53249311447144	movie	1		301.0	33.0	2.5	/experiments/knapen_aot/videos/R_S_ILSVRC2015_train_00584001.mp4	0.0	255.40681719779968	2.5083019733428955
35	110.04079508781433	fix_post	2		12.0	33.0	2.5	/experiments/knapen_aot/videos/R_S_ILSVRC2015_train_00584001.mp4	0.0	257.9151191711426	0.10002303123474121
36	110.14081811904907	fix_pre	0		54.0	34.0	2.5	/experiments/knapen_aot/videos/R_S_yt-BCFGCganiuE_8.mp4	0.0	258.0151422023773	0.45074987411499023
36	110.58265495300293	response	0	2		34.0	2.5	/experiments/knapen_aot/videos/R_S_yt-BCFGCganiuE_8.mp4	0.0	258.4569790363312	
36	110.59156799316406	movie	1		301.0	34.0	2.5	/experiments/knapen_aot/videos/R_S_yt-BCFGCganiuE_8.mp4	0.0	258.4658920764923	2.507625102996826
36	113.09919309616089	fix_post	2		12.0	34.0	2.5	/experiments/knapen_aot/videos/R_S_yt-BCFGCganiuE_8.mp4	0.0	260.97351717948914	0.09991788864135742
37	113.19911098480225	fix_pre	0		56.0	35.0	2.5	blank	1.0	261.0734350681305	0.4667320251464844
37	113.65755200386047	response	0	2		35.0	2.5	blank	1.0	261.5318760871887	
37	113.66584300994873	movie	1		301.0	35.0	2.5	blank	1.0	261.540167093277	2.5083189010620117
37	116.17416191101074	fix_post	2		12.0	35.0	2.5	blank	1.0	264.048485994339	0.09998416900634766
38	116.27414608001709	fix_pre	0		56.0	36.0	2.5	/experiments/knapen_aot/videos/S_yt-s2tZ2NIQrxg_175.mp4	0.0	264.14847016334534	0.46667003631591797
38	116.732577085495	response	0	2		36.0	2.5	/experiments/knapen_aot/videos/S_yt-s2tZ2NIQrxg_175.mp4	0.0	264.60690116882324	
38	116.74081611633301	movie	1		301.0	36.0	2.5	/experiments/knapen_aot/videos/S_yt-s2tZ2NIQrxg_175.mp4	0.0	264.61514019966125	2.5083279609680176
38	119.24914407730103	fix_post	2		12.0	36.0	2.5	/experiments/knapen_aot/videos/S_yt-s2tZ2NIQrxg_175.mp4	0.0	267.1234681606293	0.10002303123474121
39	119.34916710853577	fix_pre	0		83.0	37.0	2.5	/experiments/knapen_aot/videos/S_yt-BAQ3Xhm_PPE_23.mp4	0.0	267.223491191864	0.6915938854217529
39	120.03260588645935	response	0	2		37.0	2.5	/experiments/knapen_aot/videos/S_yt-BAQ3Xhm_PPE_23.mp4	0.0	267.9069299697876	
39	120.04076099395752	movie	1		301.0	37.0	2.5	/experiments/knapen_aot/videos/S_yt-BAQ3Xhm_PPE_23.mp4	0.0	267.91508507728577	2.5083799362182617
39	122.54914093017578	fix_post	2		12.0	37.0	2.5	/experiments/knapen_aot/videos/S_yt-BAQ3Xhm_PPE_23.mp4	0.0	270.423465013504	0.09996414184570312
40	122.64910507202148	fix_pre	0		63.0	38.0	2.5	/experiments/knapen_aot/videos/S_yt-9EnchawJ3pA_90.mp4	0.0	270.52342915534973	0.5258278846740723
40	123.16595005989075	response	0	2		38.0	2.5	/experiments/knapen_aot/videos/S_yt-9EnchawJ3pA_90.mp4	0.0	271.040274143219	
40	123.17493295669556	movie	1		301.0	38.0	2.5	/experiments/knapen_aot/videos/S_yt-9EnchawJ3pA_90.mp4	0.0	271.0492570400238	2.507528066635132
40	125.68246102333069	fix_post	2		12.0	38.0	2.5	/experiments/knapen_aot/videos/S_yt-9EnchawJ3pA_90.mp4	0.0	273.55678510665894	0.09995794296264648
41	125.78241896629333	fix_pre	0		60.0	39.0	2.5	/experiments/knapen_aot/videos/R_S_yt-bH4nJibL4Jo_164.mp4	0.0	273.6567430496216	0.5000231266021729
41	126.27431988716125	response	0	2		39.0	2.5	/experiments/knapen_aot/videos/R_S_yt-bH4nJibL4Jo_164.mp4	0.0	274.1486439704895	
41	126.28244209289551	movie	1		301.0	39.0	2.5	/experiments/knapen_aot/videos/R_S_yt-bH4nJibL4Jo_164.mp4	0.0	274.15676617622375	2.508347988128662
41	128.79079008102417	fix_post	2		12.0	39.0	2.5	/experiments/knapen_aot/videos/R_S_yt-bH4nJibL4Jo_164.mp4	0.0	276.6651141643524	0.10001993179321289
42	128.89081001281738	fix_pre	0		74.0	40.0	2.5	/experiments/knapen_aot/videos/R_S_yt-TxU1H5A6BaQ_52.mp4	0.0	276.76513409614563	0.6173150539398193
42	129.49928307533264	response	0	2		40.0	2.5	/experiments/knapen_aot/videos/R_S_yt-TxU1H5A6BaQ_52.mp4	0.0	277.3736071586609	
42	129.5081250667572	movie	1		300.0	40.0	2.5	/experiments/knapen_aot/videos/R_S_yt-TxU1H5A6BaQ_52.mp4	0.0	277.38244915008545	2.5076420307159424
42	132.01576709747314	fix_post	2		12.0	40.0	2.5	/experiments/knapen_aot/videos/R_S_yt-TxU1H5A6BaQ_52.mp4	0.0	279.8900911808014	0.09999394416809082
43	132.11576104164124	fix_pre	0		62.0	41.0	2.5	/experiments/knapen_aot/videos/R_S_yt-VinOD6g7xEc_135.mp4	0.0	279.9900851249695	0.5173180103302002
43	132.62425589561462	response	0	2		41.0	2.5	/experiments/knapen_aot/videos/R_S_yt-VinOD6g7xEc_135.mp4	0.0	280.49857997894287	
43	132.63307905197144	movie	1		301.0	41.0	2.5	/experiments/knapen_aot/videos/R_S_yt-VinOD6g7xEc_135.mp4	0.0	280.5074031352997	2.5076310634613037
43	135.14071011543274	fix_post	2		12.0	41.0	2.5	/experiments/knapen_aot/videos/R_S_yt-VinOD6g7xEc_135.mp4	0.0	283.015034198761	0.1000359058380127
44	135.24074602127075	fix_pre	0		57.0	42.0	2.5	blank	1.0	283.115070104599	0.4756500720977783
44	135.70762705802917	response	0	2		42.0	2.5	blank	1.0	283.5819511413574	
44	135.71639609336853	movie	1		301.0	42.0	2.5	blank	1.0	283.5907201766968	2.507668972015381
44	138.2240650653839	fix_post	2		12.0	42.0	2.5	blank	1.0	286.09838914871216	0.09999203681945801
45	138.32405710220337	fix_pre	0		66.0	43.0	2.5	/experiments/knapen_aot/videos/S_ILSVRC2015_train_00538000.mp4	0.0	286.1983811855316	0.5499849319458008
45	138.86582589149475	response	0	2		43.0	2.5	/experiments/knapen_aot/videos/S_ILSVRC2015_train_00538000.mp4	0.0	286.740149974823	
45	138.87404203414917	movie	1		301.0	43.0	2.5	/experiments/knapen_aot/videos/S_ILSVRC2015_train_00538000.mp4	0.0	286.7483661174774	2.5083000659942627
45	141.38234210014343	fix_post	2		12.0	43.0	2.5	/experiments/knapen_aot/videos/S_ILSVRC2015_train_00538000.mp4	0.0	289.2566661834717	0.09993481636047363
46	141.4822769165039	fix_pre	0		66.0	44.0	2.5	/experiments/knapen_aot/videos/R_S_ILSVRC2015_train_00715000.mp4	0.0	289.35660099983215	0.5499889850616455
46	142.0241630077362	response	0	2		44.0	2.5	/experiments/knapen_aot/videos/R_S_ILSVRC2015_train_00715000.mp4	0.0	289.89848709106445	
46	142.03226590156555	movie	1		301.0	44.0	2.5	/experiments/knapen_aot/videos/R_S_ILSVRC2015_train_00715000.mp4	0.0	289.9065899848938	2.5084381103515625
46	144.54070401191711	fix_post	2		12.0	44.0	2.5	/experiments/knapen_aot/videos/R_S_ILSVRC2015_train_00715000.mp4	0.0	292.41502809524536	0.1000220775604248
47	144.64072608947754	fix_pre	0		62.0	45.0	2.5	/experiments/knapen_aot/videos/R_S_yt-2IxVZeiSv3g_28.mp4	0.0	292.5150501728058	0.5165989398956299
47	145.14908003807068	response	0	2		45.0	2.5	/experiments/knapen_aot/videos/R_S_yt-2IxVZeiSv3g_28.mp4	0.0	293.0234041213989	
47	145.15732502937317	movie	1		301.0	45.0	2.5	/experiments/knapen_aot/videos/R_S_yt-2IxVZeiSv3g_28.mp4	0.0	293.0316491127014	2.508380889892578
47	147.66570591926575	fix_post	2		12.0	45.0	2.5	/experiments/knapen_aot/videos/R_S_yt-2IxVZeiSv3g_28.mp4	0.0	295.540030002594	0.09993815422058105
48	147.76564407348633	fix_pre	0		49.0	46.0	2.5	/experiments/knapen_aot/videos/S_yt-J-tkAYy40uY_84.mp4	0.0	295.6399681568146	0.40884995460510254
48	148.16579699516296	response	0	2		46.0	2.5	/experiments/knapen_aot/videos/S_yt-J-tkAYy40uY_84.mp4	0.0	296.0401210784912	
48	148.17449402809143	movie	1		301.0	46.0	2.5	/experiments/knapen_aot/videos/S_yt-J-tkAYy40uY_84.mp4	0.0	296.0488181114197	2.507866859436035
48	150.68236088752747	fix_post	2		12.0	46.0	2.5	/experiments/knapen_aot/videos/S_yt-J-tkAYy40uY_84.mp4	0.0	298.5566849708557	0.09998607635498047
49	150.78234696388245	fix_pre	0		57.0	47.0	2.5	blank	1.0	298.6566710472107	0.47559094429016113
49	151.24914693832397	response	0	2		47.0	2.5	blank	1.0	299.1234710216522	
49	151.2579379081726	movie	1		301.0	47.0	2.5	blank	1.0	299.13226199150085	2.507697105407715
49	153.76563501358032	fix_post	2		12.0	47.0	2.5	blank	1.0	301.63995909690857	0.10007786750793457
50	153.86571288108826	fix_pre	0		68.0	48.0	2.5	/experiments/knapen_aot/videos/R_S_pexels-cottonbro-10640532.mp4	0.0	301.7400369644165	0.5666160583496094
50	154.4240939617157	response	0	2		48.0	2.5	/experiments/knapen_aot/videos/R_S_pexels-cottonbro-10640532.mp4	0.0	302.29841804504395	
50	154.43232893943787	movie	1		196.0	48.0	2.5	/experiments/knapen_aot/videos/R_S_pexels-cottonbro-10640532.mp4	0.0	302.3066530227661	2.5083680152893066
50	156.94069695472717	fix_post	2		12.0	48.0	2.5	/experiments/knapen_aot/videos/R_S_pexels-cottonbro-10640532.mp4	0.0	304.8150210380554	0.10014200210571289
51	157.04083895683289	fix_pre	0		41.0	49.0	2.5	/experiments/knapen_aot/videos/R_S_yt--DXkjCUzThU_413.mp4	0.0	304.91516304016113	0.3420119285583496
51	157.37420296669006	response	0	2		49.0	2.5	/experiments/knapen_aot/videos/R_S_yt--DXkjCUzThU_413.mp4	0.0	305.2485270500183	
51	157.38285088539124	movie	1		301.0	49.0	2.5	/experiments/knapen_aot/videos/R_S_yt--DXkjCUzThU_413.mp4	0.0	305.2571749687195	2.5078232288360596
51	159.8906741142273	fix_post	2		12.0	49.0	2.5	/experiments/knapen_aot/videos/R_S_yt--DXkjCUzThU_413.mp4	0.0	307.76499819755554	0.0999758243560791
52	159.99064993858337	fix_pre	0		104.0	50.0	2.5	/experiments/knapen_aot/videos/S_yt-McqS-QObQbk_122.mp4	0.0	307.8649740219116	0.8666410446166992
52	160.84153199195862	response	0	2		50.0	2.5	/experiments/knapen_aot/videos/S_yt-McqS-QObQbk_122.mp4	0.0	308.71585607528687	
52	160.85729098320007	movie	1		301.0	50.0	2.5	/experiments/knapen_aot/videos/S_yt-McqS-QObQbk_122.mp4	0.0	308.7316150665283	2.5082781314849854
52	163.36556911468506	fix_post	2		12.0	50.0	2.5	/experiments/knapen_aot/videos/S_yt-McqS-QObQbk_122.mp4	0.0	311.2398931980133	0.09998488426208496
53	163.46555399894714	fix_pre	0		65.0	51.0	2.5	/experiments/knapen_aot/videos/S_ILSVRC2015_train_00568000.mp4	0.0	311.3398780822754	0.5423510074615479
53	163.9990589618683	response	0	2		51.0	2.5	/experiments/knapen_aot/videos/S_ILSVRC2015_train_00568000.mp4	0.0	311.87338304519653	
53	164.0079050064087	movie	1		301.0	51.0	2.5	/experiments/knapen_aot/videos/S_ILSVRC2015_train_00568000.mp4	0.0	311.88222908973694	2.5076539516448975
53	166.5155589580536	fix_post	2		12.0	51.0	2.5	/experiments/knapen_aot/videos/S_ILSVRC2015_train_00568000.mp4	0.0	314.38988304138184	0.09998512268066406
54	166.61554408073425	fix_pre	0		77.0	52.0	2.5	/experiments/knapen_aot/videos/R_S_ILSVRC2015_train_00460000.mp4	0.0	314.4898681640625	0.6421279907226562
54	167.2490689754486	response	0	2		52.0	2.5	/experiments/knapen_aot/videos/R_S_ILSVRC2015_train_00460000.mp4	0.0	315.12339305877686	
54	167.2576720714569	movie	1		301.0	52.0	2.5	/experiments/knapen_aot/videos/R_S_ILSVRC2015_train_00460000.mp4	0.0	315.13199615478516	2.5078928470611572
54	169.76556491851807	fix_post	2		12.0	52.0	2.5	/experiments/knapen_aot/videos/R_S_ILSVRC2015_train_00460000.mp4	0.0	317.6398890018463	0.10002017021179199
55	169.86558508872986	fix_pre	0		54.0	53.0	2.5	/experiments/knapen_aot/videos/S_pexels-anthony-shkraba-production-8135459.mp4	0.0	317.7399091720581	0.4499838352203369
55	170.30740904808044	response	0	2		53.0	2.5	/experiments/knapen_aot/videos/S_pexels-anthony-shkraba-production-8135459.mp4	0.0	318.1817331314087	
55	170.3155689239502	movie	1		162.0	53.0	2.5	/experiments/knapen_aot/videos/S_pexels-anthony-shkraba-production-8135459.mp4	0.0	318.18989300727844	2.508352041244507
55	172.8239209651947	fix_post	2		12.0	53.0	2.5	/experiments/knapen_aot/videos/S_pexels-anthony-shkraba-production-8135459.mp4	0.0	320.69824504852295	0.09991598129272461
56	172.92383694648743	fix_pre	0		44.0	54.0	2.5	/experiments/knapen_aot/videos/S_cST9H3zu3zQ_126.mp4	0.0	320.7981610298157	0.36663103103637695
56	173.2823839187622	response	0	2		54.0	2.5	/experiments/knapen_aot/videos/S_cST9H3zu3zQ_126.mp4	0.0	321.15670800209045	
56	173.2904679775238	movie	1		301.0	54.0	2.5	/experiments/knapen_aot/videos/S_cST9H3zu3zQ_126.mp4	0.0	321.16479206085205	2.508376121520996
56	175.7988440990448	fix_post	2		12.0	54.0	2.5	/experiments/knapen_aot/videos/S_cST9H3zu3zQ_126.mp4	0.0	323.67316818237305	0.10003089904785156
57	175.89887499809265	fix_pre	0		79.0	55.0	2.5	/experiments/knapen_aot/videos/S_3dzza09VbXY_235.mp4	0.0	323.7731990814209	0.6582999229431152
57	176.5488998889923	response	0	2		55.0	2.5	/experiments/knapen_aot/videos/S_3dzza09VbXY_235.mp4	0.0	324.42322397232056	
57	176.55717492103577	movie	1		301.0	55.0	2.5	/experiments/knapen_aot/videos/S_3dzza09VbXY_235.mp4	0.0	324.431499004364	2.508319139480591
57	179.06549406051636	fix_post	2		12.0	55.0	2.5	/experiments/knapen_aot/videos/S_3dzza09VbXY_235.mp4	0.0	326.9398181438446	0.10016894340515137
58	179.1656630039215	fix_pre	0		53.0	56.0	2.5	blank	1.0	327.03998708724976	0.44158196449279785
58	179.59905695915222	response	0	2		56.0	2.5	blank	1.0	327.47338104248047	
58	179.6072449684143	movie	1		301.0	56.0	2.5	blank	1.0	327.48156905174255	2.50832200050354
58	182.11556696891785	fix_post	2		12.0	56.0	2.5	blank	1.0	329.9898910522461	0.10040497779846191
59	182.2159719467163	fix_pre	0		70.0	57.0	2.5	/experiments/knapen_aot/videos/R_S_yt-PvWkOmfZuSY_4.mp4	0.0	330.09029603004456	0.5832960605621338
59	182.7906711101532	response	0	2		57.0	2.5	/experiments/knapen_aot/videos/R_S_yt-PvWkOmfZuSY_4.mp4	0.0	330.66499519348145	
59	182.79926800727844	movie	1		301.0	57.0	2.5	/experiments/knapen_aot/videos/R_S_yt-PvWkOmfZuSY_4.mp4	0.0	330.6735920906067	2.5079429149627686
59	185.3072109222412	fix_post	2		12.0	57.0	2.5	/experiments/knapen_aot/videos/R_S_yt-PvWkOmfZuSY_4.mp4	0.0	333.18153500556946	0.10000896453857422
60	185.40721988677979	fix_pre	0		50.0	58.0	2.5	/experiments/knapen_aot/videos/R_S_production_ID_5102663.mp4	0.0	333.28154397010803	0.41666316986083984
60	185.8157138824463	response	0	2		58.0	2.5	/experiments/knapen_aot/videos/R_S_production_ID_5102663.mp4	0.0	333.69003796577454	
60	185.82388305664062	movie	1		206.0	58.0	2.5	/experiments/knapen_aot/videos/R_S_production_ID_5102663.mp4	0.0	333.6982071399689	2.5083110332489014
60	188.33219408988953	fix_post	2		12.0	58.0	2.5	/experiments/knapen_aot/videos/R_S_production_ID_5102663.mp4	0.0	336.2065181732178	0.10002684593200684
61	188.43222093582153	fix_pre	0		48.0	59.0	2.5	/experiments/knapen_aot/videos/R_S_yt-TvU-aYjNa2c_21.mp4	0.0	336.3065450191498	0.3999800682067871
61	188.8239688873291	response	0	2		59.0	2.5	/experiments/knapen_aot/videos/R_S_yt-TvU-aYjNa2c_21.mp4	0.0	336.69829297065735	
61	188.83220100402832	movie	1		301.0	59.0	2.5	/experiments/knapen_aot/videos/R_S_yt-TvU-aYjNa2c_21.mp4	0.0	336.70652508735657	2.5083138942718506
61	191.34051489830017	fix_post	2		12.0	59.0	2.5	/experiments/knapen_aot/videos/R_S_yt-TvU-aYjNa2c_21.mp4	0.0	339.2148389816284	0.1000971794128418
62	191.440612077713	fix_pre	0		65.0	60.0	2.5	/experiments/knapen_aot/videos/S_yt-5MyvZYFlc9g_125.mp4	0.0	339.31493616104126	0.5415549278259277
62	191.97401094436646	response	0	2		60.0	2.5	/experiments/knapen_aot/videos/S_yt-5MyvZYFlc9g_125.mp4	0.0	339.8483350276947	
62	191.98216700553894	movie	1		300.0	60.0	2.5	/experiments/knapen_aot/videos/S_yt-5MyvZYFlc9g_125.mp4	0.0	339.8564910888672	2.508286952972412
62	194.49045395851135	fix_post	2		12.0	60.0	2.5	/experiments/knapen_aot/videos/S_yt-5MyvZYFlc9g_125.mp4	0.0	342.3647780418396	0.10051298141479492
63	194.59096693992615	fix_pre	0		71.0	61.0	2.5	/experiments/knapen_aot/videos/S_yt--DXkjCUzThU_413.mp4	0.0	342.4652910232544	0.591163158416748
63	195.1739740371704	response	0	2		61.0	2.5	/experiments/knapen_aot/videos/S_yt--DXkjCUzThU_413.mp4	0.0	343.04829812049866	
63	195.1821300983429	movie	1		301.0	61.0	2.5	/experiments/knapen_aot/videos/S_yt--DXkjCUzThU_413.mp4	0.0	343.05645418167114	2.508293867111206
63	197.6904239654541	fix_post	2		12.0	61.0	2.5	/experiments/knapen_aot/videos/S_yt--DXkjCUzThU_413.mp4	0.0	345.56474804878235	0.09999799728393555
64	197.79042196273804	fix_pre	0		64.0	62.0	2.5	blank	1.0	345.6647460460663	0.53336501121521
64	198.31557488441467	response	0	2		62.0	2.5	blank	1.0	346.1898989677429	
64	198.32378697395325	movie	1		301.0	62.0	2.5	blank	1.0	346.1981110572815	2.508366107940674
64	200.83215308189392	fix_post	2		12.0	62.0	2.5	blank	1.0	348.70647716522217	0.09996986389160156
65	200.93212294578552	fix_pre	0		49.0	63.0	2.5	/experiments/knapen_aot/videos/S_ILSVRC2015_train_00185002.mp4	0.0	348.80644702911377	0.40856003761291504
65	201.33226203918457	response	0	2		63.0	2.5	/experiments/knapen_aot/videos/S_ILSVRC2015_train_00185002.mp4	0.0	349.2065861225128	
65	201.34068298339844	movie	1		299.0	63.0	2.5	/experiments/knapen_aot/videos/S_ILSVRC2015_train_00185002.mp4	0.0	349.2150070667267	2.5081610679626465
65	203.84884405136108	fix_post	2		12.0	63.0	2.5	/experiments/knapen_aot/videos/S_ILSVRC2015_train_00185002.mp4	0.0	351.72316813468933	0.09998297691345215
66	203.94882702827454	fix_pre	0		54.0	64.0	2.5	/experiments/knapen_aot/videos/R_S_yt-Dwgpjoikt84_122.mp4	0.0	351.8231511116028	0.4500250816345215
66	204.3906009197235	response	0	2		64.0	2.5	/experiments/knapen_aot/videos/R_S_yt-Dwgpjoikt84_122.mp4	0.0	352.26492500305176	
66	204.39885210990906	movie	1		301.0	64.0	2.5	/experiments/knapen_aot/videos/R_S_yt-Dwgpjoikt84_122.mp4	0.0	352.2731761932373	2.5083439350128174
66	206.90719604492188	fix_post	2		12.0	64.0	2.5	/experiments/knapen_aot/videos/R_S_yt-Dwgpjoikt84_122.mp4	0.0	354.7815201282501	0.1002340316772461
67	207.00743007659912	fix_pre	0		67.0	65.0	2.5	/experiments/knapen_aot/videos/S_yt-VinOD6g7xEc_135.mp4	0.0	354.88175415992737	0.5580239295959473
67	207.55729293823242	response	0	2		65.0	2.5	/experiments/knapen_aot/videos/S_yt-VinOD6g7xEc_135.mp4	0.0	355.43161702156067	
67	207.56545400619507	movie	1		301.0	65.0	2.5	/experiments/knapen_aot/videos/S_yt-VinOD6g7xEc_135.mp4	0.0	355.4397780895233	2.50833797454834
67	210.0737919807434	fix_post	2		12.0	65.0	2.5	/experiments/knapen_aot/videos/S_yt-VinOD6g7xEc_135.mp4	0.0	357.94811606407166	0.1002650260925293
68	210.17405700683594	fix_pre	0		62.0	66.0	2.5	/experiments/knapen_aot/videos/S_ILSVRC2015_train_00610000.mp4	0.0	358.0483810901642	0.5163049697875977
68	210.68222188949585	response	0	2		66.0	2.5	/experiments/knapen_aot/videos/S_ILSVRC2015_train_00610000.mp4	0.0	358.5565459728241	
68	210.69036197662354	movie	1		301.0	66.0	2.5	/experiments/knapen_aot/videos/S_ILSVRC2015_train_00610000.mp4	0.0	358.5646860599518	2.508394956588745
68	213.19875693321228	fix_post	2		12.0	66.0	2.5	/experiments/knapen_aot/videos/S_ILSVRC2015_train_00610000.mp4	0.0	361.0730810165405	0.10020899772644043
69	213.29896593093872	fix_pre	0		45.0	67.0	2.5	/experiments/knapen_aot/videos/S_yt-SjPYdaUBi7A_37.mp4	0.0	361.17329001426697	0.37494897842407227
69	213.66551399230957	response	0	2		67.0	2.5	/experiments/knapen_aot/videos/S_yt-SjPYdaUBi7A_37.mp4	0.0	361.5398380756378	
69	213.6739149093628	movie	1		301.0	67.0	2.5	/experiments/knapen_aot/videos/S_yt-SjPYdaUBi7A_37.mp4	0.0	361.54823899269104	2.508174180984497
69	216.1820890903473	fix_post	2		12.0	67.0	2.5	/experiments/knapen_aot/videos/S_yt-SjPYdaUBi7A_37.mp4	0.0	364.05641317367554	0.10000991821289062
70	216.28209900856018	fix_pre	0		67.0	68.0	2.5	/experiments/knapen_aot/videos/S_yt-T7RmOAme5dU_213.mp4	0.0	364.1564230918884	0.5585219860076904
70	216.83225798606873	response	0	2		68.0	2.5	/experiments/knapen_aot/videos/S_yt-T7RmOAme5dU_213.mp4	0.0	364.706582069397	
70	216.84062099456787	movie	1		301.0	68.0	2.5	/experiments/knapen_aot/videos/S_yt-T7RmOAme5dU_213.mp4	0.0	364.7149450778961	2.508126974105835
70	219.3487479686737	fix_post	2		12.0	68.0	2.5	/experiments/knapen_aot/videos/S_yt-T7RmOAme5dU_213.mp4	0.0	367.22307205200195	0.1000051498413086
71	219.44875311851501	fix_pre	0		53.0	69.0	2.5	/experiments/knapen_aot/videos/R_S_yt-5rC42egLl5E_387.mp4	0.0	367.32307720184326	0.44164180755615234
71	219.88224005699158	response	0	2		69.0	2.5	/experiments/knapen_aot/videos/R_S_yt-5rC42egLl5E_387.mp4	0.0	367.7565641403198	
71	219.89039492607117	movie	1		301.0	69.0	2.5	/experiments/knapen_aot/videos/R_S_yt-5rC42egLl5E_387.mp4	0.0	367.7647190093994	2.508308172225952
71	222.39870309829712	fix_post	2		11.0	69.0	2.5	/experiments/knapen_aot/videos/R_S_yt-5rC42egLl5E_387.mp4	0.0	370.27302718162537	0.09999394416809082
72	222.4986970424652	fix_pre	0		60.0	70.0	2.5	blank	1.0	370.37302112579346	0.500108003616333
72	222.99046397209167	response	0	2		70.0	2.5	blank	1.0	370.8647880554199	
72	222.99880504608154	movie	1		301.0	70.0	2.5	blank	1.0	370.8731291294098	2.5083720684051514
72	225.5071771144867	fix_post	2		12.0	70.0	2.5	blank	1.0	373.38150119781494	0.09986996650695801
73	225.60704708099365	fix_pre	0		95.0	71.0	2.5	/experiments/knapen_aot/videos/R_S_yt-9t5-3Qe_t9A_591.mp4	0.0	373.4813711643219	0.7916100025177002
73	226.39047503471375	response	0	2		71.0	2.5	/experiments/knapen_aot/videos/R_S_yt-9t5-3Qe_t9A_591.mp4	0.0	374.264799118042	
73	226.39865708351135	movie	1		299.0	71.0	2.5	/experiments/knapen_aot/videos/R_S_yt-9t5-3Qe_t9A_591.mp4	0.0	374.2729811668396	2.508359909057617
73	228.90701699256897	fix_post	2		12.0	71.0	2.5	/experiments/knapen_aot/videos/R_S_yt-9t5-3Qe_t9A_591.mp4	0.0	376.7813410758972	0.10014200210571289
74	229.00715899467468	fix_pre	0		86.0	72.0	2.5	/experiments/knapen_aot/videos/R_S_production_ID_5119260.mp4	0.0	376.88148307800293	0.7165100574493408
74	229.71548700332642	response	0	2		72.0	2.5	/experiments/knapen_aot/videos/R_S_production_ID_5119260.mp4	0.0	377.58981108665466	
74	229.72366905212402	movie	1		167.0	72.0	2.5	/experiments/knapen_aot/videos/R_S_production_ID_5119260.mp4	0.0	377.59799313545227	2.508335828781128
74	232.23200488090515	fix_post	2		12.0	72.0	2.5	/experiments/knapen_aot/videos/R_S_production_ID_5119260.mp4	0.0	380.1063289642334	0.09988617897033691
75	232.3318910598755	fix_pre	0		41.0	73.0	2.5	/experiments/knapen_aot/videos/S_yt-4x2eUikn9rw_212.mp4	0.0	380.20621514320374	0.34186697006225586
75	232.66548490524292	response	0	2		73.0	2.5	/experiments/knapen_aot/videos/S_yt-4x2eUikn9rw_212.mp4	0.0	380.53980898857117	
75	232.67375802993774	movie	1		301.0	73.0	2.5	/experiments/knapen_aot/videos/S_yt-4x2eUikn9rw_212.mp4	0.0	380.548082113266	2.508236885070801
75	235.18199491500854	fix_post	2		12.0	73.0	2.5	/experiments/knapen_aot/videos/S_yt-4x2eUikn9rw_212.mp4	0.0	383.0563189983368	0.10001611709594727
76	235.2820110321045	fix_pre	0		51.0	74.0	2.5	/experiments/knapen_aot/videos/R_S_ILSVRC2015_train_00610000.mp4	0.0	383.15633511543274	0.42499399185180664
76	235.69886207580566	response	0	2		74.0	2.5	/experiments/knapen_aot/videos/R_S_ILSVRC2015_train_00610000.mp4	0.0	383.5731861591339	
76	235.7070050239563	movie	1		301.0	74.0	2.5	/experiments/knapen_aot/videos/R_S_ILSVRC2015_train_00610000.mp4	0.0	383.58132910728455	2.5084409713745117
76	238.2154459953308	fix_post	2		12.0	74.0	2.5	/experiments/knapen_aot/videos/R_S_ILSVRC2015_train_00610000.mp4	0.0	386.08977007865906	0.09981703758239746
77	238.3152630329132	fix_pre	0		31.0	75.0	2.5	/experiments/knapen_aot/videos/S_ILSVRC2015_train_00545000.mp4	0.0	386.18958711624146	0.25835204124450684
77	238.56542897224426	response	0	2		75.0	2.5	/experiments/knapen_aot/videos/S_ILSVRC2015_train_00545000.mp4	0.0	386.4397530555725	
77	238.57361507415771	movie	1		301.0	75.0	2.5	/experiments/knapen_aot/videos/S_ILSVRC2015_train_00545000.mp4	0.0	386.44793915748596	2.508375883102417
77	241.08199095726013	fix_post	2		12.0	75.0	2.5	/experiments/knapen_aot/videos/S_ILSVRC2015_train_00545000.mp4	0.0	388.9563150405884	0.0999760627746582
78	241.1819670200348	fix_pre	0		38.0	76.0	2.5	/experiments/knapen_aot/videos/R_S_ILSVRC2015_train_00638001.mp4	0.0	389.05629110336304	0.3166930675506592
78	241.4904749393463	response	0	2		76.0	2.5	/experiments/knapen_aot/videos/R_S_ILSVRC2015_train_00638001.mp4	0.0	389.36479902267456	
78	241.49866008758545	movie	1		301.0	76.0	2.5	/experiments/knapen_aot/videos/R_S_ILSVRC2015_train_00638001.mp4	0.0	389.3729841709137	2.508410930633545
78	244.007071018219	fix_post	2		12.0	76.0	2.5	/experiments/knapen_aot/videos/R_S_ILSVRC2015_train_00638001.mp4	0.0	391.88139510154724	0.09990501403808594
79	244.10697603225708	fix_pre	0		52.0	77.0	2.5	blank	1.0	391.9813001155853	0.4333460330963135
79	244.52455592155457	response	0	2		77.0	2.5	blank	1.0	392.3988800048828	
79	244.5403220653534	movie	1		301.0	77.0	2.5	blank	1.0	392.41464614868164	2.508323907852173
79	247.04864597320557	fix_post	2		12.0	77.0	2.5	blank	1.0	394.9229700565338	0.09997200965881348
80	247.14861798286438	fix_pre	0		57.0	78.0	2.5	/experiments/knapen_aot/videos/R_S_BsNCrwV7d8Q_9.mp4	0.0	395.0229420661926	0.47498297691345215
80	247.61535692214966	response	0	2		78.0	2.5	/experiments/knapen_aot/videos/R_S_BsNCrwV7d8Q_9.mp4	0.0	395.4896810054779	
80	247.62360095977783	movie	1		300.0	78.0	2.5	/experiments/knapen_aot/videos/R_S_BsNCrwV7d8Q_9.mp4	0.0	395.4979250431061	2.5084140300750732
80	250.1320149898529	fix_post	2		12.0	78.0	2.5	/experiments/knapen_aot/videos/R_S_BsNCrwV7d8Q_9.mp4	0.0	398.00633907318115	0.09999203681945801
81	250.23200702667236	fix_pre	0		89.0	79.0	2.5	/experiments/knapen_aot/videos/S_flickr-hapanine-31880782705_22.mp4	0.0	398.1063311100006	0.7415640354156494
81	250.96539998054504	response	0	2		79.0	2.5	/experiments/knapen_aot/videos/S_flickr-hapanine-31880782705_22.mp4	0.0	398.8397240638733	
81	250.973571062088	movie	1		164.0	79.0	2.5	/experiments/knapen_aot/videos/S_flickr-hapanine-31880782705_22.mp4	0.0	398.84789514541626	2.508401870727539
81	253.48197293281555	fix_post	2		12.0	79.0	2.5	/experiments/knapen_aot/videos/S_flickr-hapanine-31880782705_22.mp4	0.0	401.3562970161438	0.10000801086425781
82	253.5819809436798	fix_pre	0		39.0	80.0	2.5	/experiments/knapen_aot/videos/S_yt-9Q7SZR0mgMA_155.mp4	0.0	401.45630502700806	0.32491207122802734
82	253.8987410068512	response	0	2		80.0	2.5	/experiments/knapen_aot/videos/S_yt-9Q7SZR0mgMA_155.mp4	0.0	401.77306509017944	
82	253.90689301490784	movie	1		300.0	80.0	2.5	/experiments/knapen_aot/videos/S_yt-9Q7SZR0mgMA_155.mp4	0.0	401.7812170982361	2.508359909057617
82	256.41525292396545	fix_post	2		12.0	80.0	2.5	/experiments/knapen_aot/videos/S_yt-9Q7SZR0mgMA_155.mp4	0.0	404.2895770072937	0.09999513626098633
83	256.51524806022644	fix_pre	0		68.0	81.0	2.5	/experiments/knapen_aot/videos/S_pexels-koolshooters-7327401.mp4	0.0	404.3895721435547	0.5666048526763916
83	257.07368206977844	response	0	2		81.0	2.5	/experiments/knapen_aot/videos/S_pexels-koolshooters-7327401.mp4	0.0	404.9480061531067	
83	257.08185291290283	movie	1		164.0	81.0	2.5	/experiments/knapen_aot/videos/S_pexels-koolshooters-7327401.mp4	0.0	404.9561769962311	2.5083751678466797
83	259.5902280807495	fix_post	2		12.0	81.0	2.5	/experiments/knapen_aot/videos/S_pexels-koolshooters-7327401.mp4	0.0	407.46455216407776	0.09997296333312988
84	259.69020104408264	fix_pre	0		36.0	82.0	2.5	/experiments/knapen_aot/videos/S_G009_C014_UHD_SDR_2K_AVC.mp4	0.0	407.5645251274109	0.2999708652496338
84	259.9820239543915	response	0	2		82.0	2.5	/experiments/knapen_aot/videos/S_G009_C014_UHD_SDR_2K_AVC.mp4	0.0	407.8563480377197	
84	259.9901719093323	movie	1		170.0	82.0	2.5	/experiments/knapen_aot/videos/S_G009_C014_UHD_SDR_2K_AVC.mp4	0.0	407.8644959926605	2.508308172225952
84	262.4984800815582	fix_post	2		12.0	82.0	2.5	/experiments/knapen_aot/videos/S_G009_C014_UHD_SDR_2K_AVC.mp4	0.0	410.3728041648865	0.10003495216369629
85	262.5985150337219	fix_pre	0		41.0	83.0	2.5	blank	1.0	410.47283911705017	0.3416569232940674
85	262.9320430755615	response	0	2		83.0	2.5	blank	1.0	410.80636715888977	
85	262.940171957016	movie	1		301.0	83.0	2.5	blank	1.0	410.81449604034424	2.5083539485931396
85	265.44852590560913	fix_post	2		12.0	83.0	2.5	blank	1.0	413.3228499889374	0.100006103515625
87	265.54853200912476	stim	0		525.0					413.422856092453	4.3749470710754395
87	269.91696190834045	response	0	space						417.7912859916687	
