trial_nr	onset	event_type	phase	response	nr_frames	movie_index	movie_duration	movie_file	blank	onset_abs	duration
0	0.1253371238708496	stim	0		87.0					206.63212299346924	0.7263588905334473
0	0.8419129848480225	response	0	space						207.3486988544464	
1	0.8516960144042969	stim	0		121.0					207.35848188400269	1.0063471794128418
1	1.8580431938171387	stim	1		120.0					208.36482906341553	0.999985933303833
1	2.7748351097106934	response	1	space						209.28162097930908	
2	2.8580291271209717	fix_pre	0		52.0	0.0	2.5	/experiments/knapen_aot/videos/S_video_inspire_california_vineyard_sierra-mar_sunrise_110.1080-h264.mp4	0.0	209.36481499671936	0.43323206901550293
2	3.283125162124634	response	0	space		0.0	2.5	/experiments/knapen_aot/videos/S_video_inspire_california_vineyard_sierra-mar_sunrise_110.1080-h264.mp4	0.0	209.78991103172302	
2	3.2912611961364746	movie	1		167.0	0.0	2.5	/experiments/knapen_aot/videos/S_video_inspire_california_vineyard_sierra-mar_sunrise_110.1080-h264.mp4	0.0	209.79804706573486	2.5084168910980225
2	5.799678087234497	fix_post	2		12.0	0.0	2.5	/experiments/knapen_aot/videos/S_video_inspire_california_vineyard_sierra-mar_sunrise_110.1080-h264.mp4	0.0	212.30646395683289	0.10005688667297363
3	5.899734973907471	fix_pre	0		27.0	1.0	2.5	/experiments/knapen_aot/videos/R_S_pexels-rodnae-productions-5993654.mp4	0.0	212.40652084350586	0.22496604919433594
3	6.116744041442871	response	0	2		1.0	2.5	/experiments/knapen_aot/videos/R_S_pexels-rodnae-productions-5993654.mp4	0.0	212.62352991104126	
3	6.124701023101807	movie	1		165.0	1.0	2.5	/experiments/knapen_aot/videos/R_S_pexels-rodnae-productions-5993654.mp4	0.0	212.6314868927002	2.508247137069702
3	8.632948160171509	fix_post	2		12.0	1.0	2.5	/experiments/knapen_aot/videos/R_S_pexels-rodnae-productions-5993654.mp4	0.0	215.1397340297699	0.10028481483459473
4	8.733232975006104	fix_pre	0		26.0	2.0	2.5	/experiments/knapen_aot/videos/S_yt-qurTr1BJMec_244.mp4	0.0	215.2400188446045	0.21639013290405273
4	8.941486120223999	response	0	2		2.0	2.5	/experiments/knapen_aot/videos/S_yt-qurTr1BJMec_244.mp4	0.0	215.4482719898224	
4	8.949623107910156	movie	1		301.0	2.0	2.5	/experiments/knapen_aot/videos/S_yt-qurTr1BJMec_244.mp4	0.0	215.45640897750854	2.5086028575897217
4	11.458225965499878	fix_post	2		12.0	2.0	2.5	/experiments/knapen_aot/videos/S_yt-qurTr1BJMec_244.mp4	0.0	217.96501183509827	0.09976506233215332
5	11.557991027832031	fix_pre	0		54.0	3.0	2.5	/experiments/knapen_aot/videos/S_yt-KNdCiW8m1uY_168.mp4	0.0	218.06477689743042	0.45000314712524414
5	11.992278099060059	response	0	2		3.0	2.5	/experiments/knapen_aot/videos/S_yt-KNdCiW8m1uY_168.mp4	0.0	218.49906396865845	
5	12.007994174957275	movie	1		301.0	3.0	2.5	/experiments/knapen_aot/videos/S_yt-KNdCiW8m1uY_168.mp4	0.0	218.51478004455566	2.5084638595581055
5	14.51645803451538	fix_post	2		12.0	3.0	2.5	/experiments/knapen_aot/videos/S_yt-KNdCiW8m1uY_168.mp4	0.0	221.02324390411377	0.09991216659545898
6	14.61637020111084	fix_pre	0		47.0	4.0	2.5	/experiments/knapen_aot/videos/R_S_3WAnGcPubBY_179.mp4	0.0	221.12315607070923	0.39159679412841797
6	14.999803066253662	response	0	2		4.0	2.5	/experiments/knapen_aot/videos/R_S_3WAnGcPubBY_179.mp4	0.0	221.50658893585205	
6	15.007966995239258	movie	1		301.0	4.0	2.5	/experiments/knapen_aot/videos/R_S_3WAnGcPubBY_179.mp4	0.0	221.51475286483765	2.5082881450653076
6	17.516255140304565	fix_post	2		12.0	4.0	2.5	/experiments/knapen_aot/videos/R_S_3WAnGcPubBY_179.mp4	0.0	224.02304100990295	0.10005688667297363
7	17.61631202697754	fix_pre	0		50.0	5.0	2.5	/experiments/knapen_aot/videos/R_S_m-aeoYPMqfg_185.mp4	0.0	224.12309789657593	0.4166531562805176
7	18.017343044281006	response	0	2		5.0	2.5	/experiments/knapen_aot/videos/R_S_m-aeoYPMqfg_185.mp4	0.0	224.5241289138794	
7	18.032965183258057	movie	1		301.0	5.0	2.5	/experiments/knapen_aot/videos/R_S_m-aeoYPMqfg_185.mp4	0.0	224.53975105285645	2.5083320140838623
7	20.54129719734192	fix_post	2		12.0	5.0	2.5	/experiments/knapen_aot/videos/R_S_m-aeoYPMqfg_185.mp4	0.0	227.0480830669403	0.10000181198120117
8	20.64129900932312	fix_pre	0		31.0	6.0	2.5	/experiments/knapen_aot/videos/R_S_yt-AbJBxqEYoMg_105.mp4	0.0	227.1480848789215	0.2589380741119385
8	20.891388177871704	response	0	2		6.0	2.5	/experiments/knapen_aot/videos/R_S_yt-AbJBxqEYoMg_105.mp4	0.0	227.3981740474701	
8	20.90023708343506	movie	1		301.0	6.0	2.5	/experiments/knapen_aot/videos/R_S_yt-AbJBxqEYoMg_105.mp4	0.0	227.40702295303345	2.5077290534973145
8	23.407966136932373	fix_post	2		12.0	6.0	2.5	/experiments/knapen_aot/videos/R_S_yt-AbJBxqEYoMg_105.mp4	0.0	229.91475200653076	0.09995698928833008
9	23.507923126220703	fix_pre	0		46.0	7.0	2.5	blank	1.0	230.0147089958191	0.3833439350128174
9	23.883100032806396	response	0	2		7.0	2.5	blank	1.0	230.38988590240479	
9	23.89126706123352	movie	1		301.0	7.0	2.5	blank	1.0	230.3980529308319	2.5083930492401123
9	26.399660110473633	fix_post	2		12.0	7.0	2.5	blank	1.0	232.90644598007202	0.0999760627746582
10	26.49963617324829	fix_pre	0		29.0	8.0	2.5	/experiments/knapen_aot/videos/R_S_Y005_C003_SDR_2K_AVC.mp4	0.0	233.00642204284668	0.24167895317077637
10	26.732999086380005	response	0	2		8.0	2.5	/experiments/knapen_aot/videos/R_S_Y005_C003_SDR_2K_AVC.mp4	0.0	233.2397849559784	
10	26.741315126419067	movie	1		167.0	8.0	2.5	/experiments/knapen_aot/videos/R_S_Y005_C003_SDR_2K_AVC.mp4	0.0	233.24810099601746	2.5083019733428955
10	29.249617099761963	fix_post	2		12.0	8.0	2.5	/experiments/knapen_aot/videos/R_S_Y005_C003_SDR_2K_AVC.mp4	0.0	235.75640296936035	0.09999799728393555
11	29.3496150970459	fix_pre	0		31.0	9.0	2.5	/experiments/knapen_aot/videos/S_MEX_A006_C008_SDR_20190923_SDR_2K_AVC.mp4	0.0	235.8564009666443	0.25885510444641113
11	29.599733114242554	response	0	2		9.0	2.5	/experiments/knapen_aot/videos/S_MEX_A006_C008_SDR_20190923_SDR_2K_AVC.mp4	0.0	236.10651898384094	
11	29.60847020149231	movie	1		163.0	9.0	2.5	/experiments/knapen_aot/videos/S_MEX_A006_C008_SDR_20190923_SDR_2K_AVC.mp4	0.0	236.1152560710907	2.5079097747802734
11	32.11637997627258	fix_post	2		12.0	9.0	2.5	/experiments/knapen_aot/videos/S_MEX_A006_C008_SDR_20190923_SDR_2K_AVC.mp4	0.0	238.62316584587097	0.09994316101074219
12	32.216323137283325	fix_pre	0		22.0	10.0	2.5	/experiments/knapen_aot/videos/S_ILSVRC2015_train_00417000.mp4	0.0	238.7231090068817	0.18361186981201172
12	32.39136600494385	response	0	2		10.0	2.5	/experiments/knapen_aot/videos/S_ILSVRC2015_train_00417000.mp4	0.0	238.89815187454224	
12	32.39993500709534	movie	1		301.0	10.0	2.5	/experiments/knapen_aot/videos/S_ILSVRC2015_train_00417000.mp4	0.0	238.90672087669373	2.5079779624938965
12	34.90791296958923	fix_post	2		12.0	10.0	2.5	/experiments/knapen_aot/videos/S_ILSVRC2015_train_00417000.mp4	0.0	241.41469883918762	0.09999203681945801
13	35.00790500640869	fix_pre	0		31.0	11.0	2.5	/experiments/knapen_aot/videos/R_S_ILSVRC2015_train_00042003.mp4	0.0	241.51469087600708	0.25830912590026855
13	35.25806903839111	response	0	2		11.0	2.5	/experiments/knapen_aot/videos/R_S_ILSVRC2015_train_00042003.mp4	0.0	241.7648549079895	
13	35.26621413230896	movie	1		301.0	11.0	2.5	/experiments/knapen_aot/videos/R_S_ILSVRC2015_train_00042003.mp4	0.0	241.77300000190735	2.508370876312256
13	37.774585008621216	fix_post	2		12.0	11.0	2.5	/experiments/knapen_aot/videos/R_S_ILSVRC2015_train_00042003.mp4	0.0	244.2813708782196	0.10004997253417969
14	37.874634981155396	fix_pre	0		53.0	12.0	2.5	blank	1.0	244.38142085075378	0.44202208518981934
14	38.30804204940796	response	0	2		12.0	2.5	blank	1.0	244.81482791900635	
14	38.316657066345215	movie	1		301.0	12.0	2.5	blank	1.0	244.8234429359436	2.507923126220703
14	40.82458019256592	fix_post	2		12.0	12.0	2.5	blank	1.0	247.3313660621643	0.09998393058776855
15	40.92456412315369	fix_pre	0		48.0	13.0	2.5	/experiments/knapen_aot/videos/S_comp_L007_C007_PS_v01_SDR_PS_20180925_SDR_2K_AVC.mp4	0.0	247.43134999275208	0.39997005462646484
15	41.31636309623718	response	0	2		13.0	2.5	/experiments/knapen_aot/videos/S_comp_L007_C007_PS_v01_SDR_PS_20180925_SDR_2K_AVC.mp4	0.0	247.82314896583557	
15	41.32453417778015	movie	1		167.0	13.0	2.5	/experiments/knapen_aot/videos/S_comp_L007_C007_PS_v01_SDR_PS_20180925_SDR_2K_AVC.mp4	0.0	247.83132004737854	2.5086159706115723
15	43.833150148391724	fix_post	2		12.0	13.0	2.5	/experiments/knapen_aot/videos/S_comp_L007_C007_PS_v01_SDR_PS_20180925_SDR_2K_AVC.mp4	0.0	250.3399360179901	0.09971499443054199
16	43.932865142822266	fix_pre	0		48.0	14.0	2.5	/experiments/knapen_aot/videos/S_yt-kINZMjys3O4_112.mp4	0.0	250.43965101242065	0.3999519348144531
16	44.32464909553528	response	0	2		14.0	2.5	/experiments/knapen_aot/videos/S_yt-kINZMjys3O4_112.mp4	0.0	250.83143496513367	
16	44.33281707763672	movie	1		301.0	14.0	2.5	/experiments/knapen_aot/videos/S_yt-kINZMjys3O4_112.mp4	0.0	250.8396029472351	2.5083060264587402
16	46.84112310409546	fix_post	2		12.0	14.0	2.5	/experiments/knapen_aot/videos/S_yt-kINZMjys3O4_112.mp4	0.0	253.34790897369385	0.10062503814697266
17	46.94174814224243	fix_pre	0		33.0	15.0	2.5	/experiments/knapen_aot/videos/R_S_yt-PK-Eip9wFr0_24.mp4	0.0	253.44853401184082	0.274385929107666
17	47.20040416717529	response	0	2		15.0	2.5	/experiments/knapen_aot/videos/R_S_yt-PK-Eip9wFr0_24.mp4	0.0	253.70719003677368	
17	47.2161340713501	movie	1		301.0	15.0	2.5	/experiments/knapen_aot/videos/R_S_yt-PK-Eip9wFr0_24.mp4	0.0	253.7229199409485	2.5084381103515625
17	49.72457218170166	fix_post	2		12.0	15.0	2.5	/experiments/knapen_aot/videos/R_S_yt-PK-Eip9wFr0_24.mp4	0.0	256.23135805130005	0.09991693496704102
18	49.8244891166687	fix_pre	0		51.0	16.0	2.5	/experiments/knapen_aot/videos/R_S_yt-9mWz93En7Gw_97.mp4	0.0	256.3312749862671	0.425029993057251
18	50.24135208129883	response	0	2		16.0	2.5	/experiments/knapen_aot/videos/R_S_yt-9mWz93En7Gw_97.mp4	0.0	256.7481379508972	
18	50.24951910972595	movie	1		301.0	16.0	2.5	/experiments/knapen_aot/videos/R_S_yt-9mWz93En7Gw_97.mp4	0.0	256.75630497932434	2.5083529949188232
18	52.757872104644775	fix_post	2		12.0	16.0	2.5	/experiments/knapen_aot/videos/R_S_yt-9mWz93En7Gw_97.mp4	0.0	259.26465797424316	0.1003110408782959
19	52.85818314552307	fix_pre	0		46.0	17.0	2.5	/experiments/knapen_aot/videos/S_yt-ol2u_-gd0-o_13.mp4	0.0	259.36496901512146	0.38302087783813477
19	53.23294997215271	response	0	2		17.0	2.5	/experiments/knapen_aot/videos/S_yt-ol2u_-gd0-o_13.mp4	0.0	259.7397358417511	
19	53.241204023361206	movie	1		301.0	17.0	2.5	/experiments/knapen_aot/videos/S_yt-ol2u_-gd0-o_13.mp4	0.0	259.7479898929596	2.508284091949463
19	55.74948811531067	fix_post	2		12.0	17.0	2.5	/experiments/knapen_aot/videos/S_yt-ol2u_-gd0-o_13.mp4	0.0	262.25627398490906	0.0999288558959961
20	55.849416971206665	fix_pre	0		27.0	18.0	2.5	/experiments/knapen_aot/videos/R_S_yt-GWO7FHN1Jb4_142.mp4	0.0	262.35620284080505	0.22501420974731445
20	56.06630802154541	response	0	2		18.0	2.5	/experiments/knapen_aot/videos/R_S_yt-GWO7FHN1Jb4_142.mp4	0.0	262.5730938911438	
20	56.07443118095398	movie	1		301.0	18.0	2.5	/experiments/knapen_aot/videos/R_S_yt-GWO7FHN1Jb4_142.mp4	0.0	262.58121705055237	2.5084009170532227
20	58.5828320980072	fix_post	2		12.0	18.0	2.5	/experiments/knapen_aot/videos/R_S_yt-GWO7FHN1Jb4_142.mp4	0.0	265.0896179676056	0.10000109672546387
21	58.682833194732666	fix_pre	0		44.0	19.0	2.5	blank	1.0	265.18961906433105	0.3667128086090088
21	59.041258096694946	response	0	2		19.0	2.5	blank	1.0	265.54804396629333	
21	59.049546003341675	movie	1		301.0	19.0	2.5	blank	1.0	265.55633187294006	2.5082411766052246
21	61.5577871799469	fix_post	2		12.0	19.0	2.5	blank	1.0	268.0645730495453	0.09993481636047363
22	61.65772199630737	fix_pre	0		33.0	20.0	2.5	/experiments/knapen_aot/videos/R_S_yt-qurTr1BJMec_244.mp4	0.0	268.16450786590576	0.2750120162963867
22	61.92477607727051	response	0	2		20.0	2.5	/experiments/knapen_aot/videos/R_S_yt-qurTr1BJMec_244.mp4	0.0	268.4315619468689	
22	61.93273401260376	movie	1		300.0	20.0	2.5	/experiments/knapen_aot/videos/R_S_yt-qurTr1BJMec_244.mp4	0.0	268.43951988220215	2.5084190368652344
22	64.441153049469	fix_post	2		12.0	20.0	2.5	/experiments/knapen_aot/videos/R_S_yt-qurTr1BJMec_244.mp4	0.0	270.9479389190674	0.09993910789489746
23	64.54109215736389	fix_pre	0		29.0	21.0	2.5	/experiments/knapen_aot/videos/R_S_yt-PP93D7b7Ni4_10.mp4	0.0	271.0478780269623	0.24166488647460938
23	64.77456212043762	response	0	2		21.0	2.5	/experiments/knapen_aot/videos/R_S_yt-PP93D7b7Ni4_10.mp4	0.0	271.281347990036	
23	64.7827570438385	movie	1		301.0	21.0	2.5	/experiments/knapen_aot/videos/R_S_yt-PP93D7b7Ni4_10.mp4	0.0	271.2895429134369	2.508409023284912
23	67.29116606712341	fix_post	2		12.0	21.0	2.5	/experiments/knapen_aot/videos/R_S_yt-PP93D7b7Ni4_10.mp4	0.0	273.7979519367218	0.09996795654296875
24	67.39113402366638	fix_pre	0		43.0	22.0	2.5	/experiments/knapen_aot/videos/S_Y009_C015_SDR_2K_AVC.mp4	0.0	273.89791989326477	0.35828113555908203
24	67.74121809005737	response	0	2		22.0	2.5	/experiments/knapen_aot/videos/S_Y009_C015_SDR_2K_AVC.mp4	0.0	274.24800395965576	
24	67.74941515922546	movie	1		168.0	22.0	2.5	/experiments/knapen_aot/videos/S_Y009_C015_SDR_2K_AVC.mp4	0.0	274.25620102882385	2.5083699226379395
24	70.2577850818634	fix_post	2		12.0	22.0	2.5	/experiments/knapen_aot/videos/S_Y009_C015_SDR_2K_AVC.mp4	0.0	276.7645709514618	0.10045409202575684
25	70.35823917388916	fix_pre	0		40.0	23.0	2.5	/experiments/knapen_aot/videos/R_S_yt-TNtO8RPd3iE_25.mp4	0.0	276.86502504348755	0.33299684524536133
25	70.67535519599915	response	0	2		23.0	2.5	/experiments/knapen_aot/videos/R_S_yt-TNtO8RPd3iE_25.mp4	0.0	277.18214106559753	
25	70.69123601913452	movie	1		301.0	23.0	2.5	/experiments/knapen_aot/videos/R_S_yt-TNtO8RPd3iE_25.mp4	0.0	277.1980218887329	2.5081710815429688
25	73.19940710067749	fix_post	2		12.0	23.0	2.5	/experiments/knapen_aot/videos/R_S_yt-TNtO8RPd3iE_25.mp4	0.0	279.7061929702759	0.10000896453857422
26	73.29941606521606	fix_pre	0		31.0	24.0	2.5	/experiments/knapen_aot/videos/R_S_yt-XY1n_Oze1kQ_9.mp4	0.0	279.80620193481445	0.2582828998565674
26	73.5494601726532	response	0	2		24.0	2.5	/experiments/knapen_aot/videos/R_S_yt-XY1n_Oze1kQ_9.mp4	0.0	280.0562460422516	
26	73.55769896507263	movie	1		301.0	24.0	2.5	/experiments/knapen_aot/videos/R_S_yt-XY1n_Oze1kQ_9.mp4	0.0	280.064484834671	2.5083870887756348
26	76.06608605384827	fix_post	2		12.0	24.0	2.5	/experiments/knapen_aot/videos/R_S_yt-XY1n_Oze1kQ_9.mp4	0.0	282.57287192344666	0.1000070571899414
27	76.16609311103821	fix_pre	0		37.0	25.0	2.5	/experiments/knapen_aot/videos/R_S_yt-1sn8u-rQRas_7.mp4	0.0	282.6728789806366	0.30826497077941895
27	76.46610808372498	response	0	2		25.0	2.5	/experiments/knapen_aot/videos/R_S_yt-1sn8u-rQRas_7.mp4	0.0	282.97289395332336	
27	76.47435808181763	movie	1		301.0	25.0	2.5	/experiments/knapen_aot/videos/R_S_yt-1sn8u-rQRas_7.mp4	0.0	282.981143951416	2.5088260173797607
27	78.98318409919739	fix_post	2		12.0	25.0	2.5	/experiments/knapen_aot/videos/R_S_yt-1sn8u-rQRas_7.mp4	0.0	285.4899699687958	0.0995950698852539
28	79.08277916908264	fix_pre	0		26.0	26.0	2.5	/experiments/knapen_aot/videos/R_S_yt-7Z6Kmp0n7L8_145.mp4	0.0	285.58956503868103	0.2166149616241455
28	79.2836401462555	response	0	2		26.0	2.5	/experiments/knapen_aot/videos/R_S_yt-7Z6Kmp0n7L8_145.mp4	0.0	285.7904260158539	
28	79.29939413070679	movie	1		301.0	26.0	2.5	/experiments/knapen_aot/videos/R_S_yt-7Z6Kmp0n7L8_145.mp4	0.0	285.8061800003052	2.5084469318389893
28	81.80784106254578	fix_post	2		12.0	26.0	2.5	/experiments/knapen_aot/videos/R_S_yt-7Z6Kmp0n7L8_145.mp4	0.0	288.31462693214417	0.09988808631896973
29	81.90772914886475	fix_pre	0		34.0	27.0	2.5	/experiments/knapen_aot/videos/S_yt-7bSTxOajpjc_58.mp4	0.0	288.41451501846313	0.28345394134521484
29	82.18282914161682	response	0	2		27.0	2.5	/experiments/knapen_aot/videos/S_yt-7bSTxOajpjc_58.mp4	0.0	288.6896150112152	
29	82.19118309020996	movie	1		301.0	27.0	2.5	/experiments/knapen_aot/videos/S_yt-7bSTxOajpjc_58.mp4	0.0	288.69796895980835	2.508181095123291
29	84.69936418533325	fix_post	2		12.0	27.0	2.5	/experiments/knapen_aot/videos/S_yt-7bSTxOajpjc_58.mp4	0.0	291.20615005493164	0.0999917984008789
30	84.79935598373413	fix_pre	0		39.0	28.0	2.5	blank	1.0	291.3061418533325	0.324937105178833
30	85.11611604690552	response	0	2		28.0	2.5	blank	1.0	291.6229019165039	
30	85.12429308891296	movie	1		301.0	28.0	2.5	blank	1.0	291.63107895851135	2.508591890335083
30	87.63288497924805	fix_post	2		12.0	28.0	2.5	blank	1.0	294.13967084884644	0.09996414184570312
31	87.73284912109375	fix_pre	0		37.0	29.0	2.5	/experiments/knapen_aot/videos/R_S_wc-DcFDe419cL3d_17.mp4	0.0	294.23963499069214	0.3081028461456299
31	88.03280305862427	response	0	2		29.0	2.5	/experiments/knapen_aot/videos/R_S_wc-DcFDe419cL3d_17.mp4	0.0	294.53958892822266	
31	88.04095196723938	movie	1		163.0	29.0	2.5	/experiments/knapen_aot/videos/R_S_wc-DcFDe419cL3d_17.mp4	0.0	294.54773783683777	2.5084052085876465
31	90.54935717582703	fix_post	2		12.0	29.0	2.5	/experiments/knapen_aot/videos/R_S_wc-DcFDe419cL3d_17.mp4	0.0	297.0561430454254	0.10015487670898438
32	90.64951205253601	fix_pre	0		43.0	30.0	2.5	/experiments/knapen_aot/videos/R_S_yt-xrWo3lnbshw_80.mp4	0.0	297.1562979221344	0.3581070899963379
32	90.99933099746704	response	0	2		30.0	2.5	/experiments/knapen_aot/videos/R_S_yt-xrWo3lnbshw_80.mp4	0.0	297.50611686706543	
32	91.00761914253235	movie	1		301.0	30.0	2.5	/experiments/knapen_aot/videos/R_S_yt-xrWo3lnbshw_80.mp4	0.0	297.51440501213074	2.5085549354553223
32	93.51617407798767	fix_post	2		12.0	30.0	2.5	/experiments/knapen_aot/videos/R_S_yt-xrWo3lnbshw_80.mp4	0.0	300.02295994758606	0.09988093376159668
33	93.61605501174927	fix_pre	0		42.0	31.0	2.5	/experiments/knapen_aot/videos/R_S_WCwb-DeQOSg_85.mp4	0.0	300.12284088134766	0.3499159812927246
33	93.95774006843567	response	0	2		31.0	2.5	/experiments/knapen_aot/videos/R_S_WCwb-DeQOSg_85.mp4	0.0	300.46452593803406	
33	93.96597099304199	movie	1		301.0	31.0	2.5	/experiments/knapen_aot/videos/R_S_WCwb-DeQOSg_85.mp4	0.0	300.4727568626404	2.5083281993865967
33	96.47429919242859	fix_post	2		12.0	31.0	2.5	/experiments/knapen_aot/videos/R_S_WCwb-DeQOSg_85.mp4	0.0	302.981085062027	0.10000777244567871
34	96.57430696487427	fix_pre	0		69.0	32.0	2.5	/experiments/knapen_aot/videos/S_comp_A009_C001_010181A_v09_SDR_PS_FINAL_20180725_SDR_2K_AVC.mp4	0.0	303.08109283447266	0.5751831531524658
34	97.14109110832214	response	0	2		32.0	2.5	/experiments/knapen_aot/videos/S_comp_A009_C001_010181A_v09_SDR_PS_FINAL_20180725_SDR_2K_AVC.mp4	0.0	303.64787697792053	
34	97.14949011802673	movie	1		164.0	32.0	2.5	/experiments/knapen_aot/videos/S_comp_A009_C001_010181A_v09_SDR_PS_FINAL_20180725_SDR_2K_AVC.mp4	0.0	303.6562759876251	2.5081260204315186
34	99.65761613845825	fix_post	2		12.0	32.0	2.5	/experiments/knapen_aot/videos/S_comp_A009_C001_010181A_v09_SDR_PS_FINAL_20180725_SDR_2K_AVC.mp4	0.0	306.16440200805664	0.10002803802490234
35	99.75764417648315	fix_pre	0		37.0	33.0	2.5	/experiments/knapen_aot/videos/R_S_yt-wnQFgNEnHUI_109.mp4	0.0	306.26443004608154	0.30830979347229004
35	100.05771613121033	response	0	2		33.0	2.5	/experiments/knapen_aot/videos/R_S_yt-wnQFgNEnHUI_109.mp4	0.0	306.5645020008087	
35	100.06595396995544	movie	1		301.0	33.0	2.5	/experiments/knapen_aot/videos/R_S_yt-wnQFgNEnHUI_109.mp4	0.0	306.57273983955383	2.5083160400390625
35	102.5742700099945	fix_post	2		12.0	33.0	2.5	/experiments/knapen_aot/videos/R_S_yt-wnQFgNEnHUI_109.mp4	0.0	309.0810558795929	0.10005712509155273
36	102.67432713508606	fix_pre	0		32.0	34.0	2.5	/experiments/knapen_aot/videos/S_yt-uE9XoCLZlFo_1.mp4	0.0	309.18111300468445	0.26674389839172363
36	102.93274211883545	response	0	2		34.0	2.5	/experiments/knapen_aot/videos/S_yt-uE9XoCLZlFo_1.mp4	0.0	309.43952798843384	
36	102.94107103347778	movie	1		301.0	34.0	2.5	/experiments/knapen_aot/videos/S_yt-uE9XoCLZlFo_1.mp4	0.0	309.4478569030762	2.508254051208496
36	105.44932508468628	fix_post	2		12.0	34.0	2.5	/experiments/knapen_aot/videos/S_yt-uE9XoCLZlFo_1.mp4	0.0	311.95611095428467	0.09989595413208008
37	105.54922103881836	fix_pre	0		84.0	35.0	2.5	blank	1.0	312.05600690841675	0.7000141143798828
37	106.24105215072632	response	0	2		35.0	2.5	blank	1.0	312.7478380203247	
37	106.24923515319824	movie	1		301.0	35.0	2.5	blank	1.0	312.75602102279663	2.5083839893341064
37	108.75761914253235	fix_post	2		12.0	35.0	2.5	blank	1.0	315.26440501213074	0.10027289390563965
38	108.85789203643799	fix_pre	0		33.0	36.0	2.5	/experiments/knapen_aot/videos/S_yt-uE9XoCLZlFo_1.mp4	0.0	315.3646779060364	0.2746889591217041
38	109.12433218955994	response	0	2		36.0	2.5	/experiments/knapen_aot/videos/S_yt-uE9XoCLZlFo_1.mp4	0.0	315.6311180591583	
38	109.13258099555969	movie	1		301.0	36.0	2.5	/experiments/knapen_aot/videos/S_yt-uE9XoCLZlFo_1.mp4	0.0	315.6393668651581	2.508362054824829
38	111.64094305038452	fix_post	2		12.0	36.0	2.5	/experiments/knapen_aot/videos/S_yt-uE9XoCLZlFo_1.mp4	0.0	318.1477289199829	0.0999610424041748
39	111.7409040927887	fix_pre	0		41.0	37.0	2.5	/experiments/knapen_aot/videos/R_S_yt-s73Xqkcq9Js_285.mp4	0.0	318.2476899623871	0.34168004989624023
39	112.07436013221741	response	0	2		37.0	2.5	/experiments/knapen_aot/videos/R_S_yt-s73Xqkcq9Js_285.mp4	0.0	318.5811460018158	
39	112.08258414268494	movie	1		301.0	37.0	2.5	/experiments/knapen_aot/videos/R_S_yt-s73Xqkcq9Js_285.mp4	0.0	318.5893700122833	2.508359909057617
39	114.59094405174255	fix_post	2		12.0	37.0	2.5	/experiments/knapen_aot/videos/R_S_yt-s73Xqkcq9Js_285.mp4	0.0	321.09772992134094	0.09996795654296875
40	114.69091200828552	fix_pre	0		29.0	38.0	2.5	/experiments/knapen_aot/videos/R_S_wc-dwTccI0TNwps_15.mp4	0.0	321.1976978778839	0.24163818359375
40	114.91685104370117	response	0	2		38.0	2.5	/experiments/knapen_aot/videos/R_S_wc-dwTccI0TNwps_15.mp4	0.0	321.42363691329956	
40	114.93255019187927	movie	1		301.0	38.0	2.5	/experiments/knapen_aot/videos/R_S_wc-dwTccI0TNwps_15.mp4	0.0	321.43933606147766	2.50848388671875
40	117.44103407859802	fix_post	2		12.0	38.0	2.5	/experiments/knapen_aot/videos/R_S_wc-dwTccI0TNwps_15.mp4	0.0	323.9478199481964	0.09987092018127441
41	117.5409049987793	fix_pre	0		21.0	39.0	2.5	/experiments/knapen_aot/videos/S_ILSVRC2015_train_00394000.mp4	0.0	324.0476908683777	0.17493200302124023
41	117.70767402648926	response	0	2		39.0	2.5	/experiments/knapen_aot/videos/S_ILSVRC2015_train_00394000.mp4	0.0	324.21445989608765	
41	117.71583700180054	movie	1		301.0	39.0	2.5	/experiments/knapen_aot/videos/S_ILSVRC2015_train_00394000.mp4	0.0	324.2226228713989	2.508319139480591
41	120.22415614128113	fix_post	2		12.0	39.0	2.5	/experiments/knapen_aot/videos/S_ILSVRC2015_train_00394000.mp4	0.0	326.7309420108795	0.10010290145874023
42	120.32425904273987	fix_pre	0		38.0	40.0	2.5	blank	1.0	326.83104491233826	0.3165781497955322
42	120.63268899917603	response	0	2		40.0	2.5	blank	1.0	327.1394748687744	
42	120.6408371925354	movie	1		301.0	40.0	2.5	blank	1.0	327.1476230621338	2.508327007293701
42	123.1491641998291	fix_post	2		12.0	40.0	2.5	blank	1.0	329.6559500694275	0.10015082359313965
43	123.24931502342224	fix_pre	0		61.0	41.0	2.5	/experiments/knapen_aot/videos/R_S_yt-2jVJb1PR2XA_16.mp4	0.0	329.75610089302063	0.5081729888916016
43	123.74925518035889	response	0	2		41.0	2.5	/experiments/knapen_aot/videos/R_S_yt-2jVJb1PR2XA_16.mp4	0.0	330.2560410499573	
43	123.75748801231384	movie	1		301.0	41.0	2.5	/experiments/knapen_aot/videos/R_S_yt-2jVJb1PR2XA_16.mp4	0.0	330.26427388191223	2.5083420276641846
43	126.26583003997803	fix_post	2		12.0	41.0	2.5	/experiments/knapen_aot/videos/R_S_yt-2jVJb1PR2XA_16.mp4	0.0	332.7726159095764	0.10002899169921875
44	126.36585903167725	fix_pre	0		47.0	42.0	2.5	/experiments/knapen_aot/videos/R_S_yt-EFrazkRaYbs_21.mp4	0.0	332.87264490127563	0.3916170597076416
44	126.74919700622559	response	0	2		42.0	2.5	/experiments/knapen_aot/videos/R_S_yt-EFrazkRaYbs_21.mp4	0.0	333.255982875824	
44	126.75747609138489	movie	1		301.0	42.0	2.5	/experiments/knapen_aot/videos/R_S_yt-EFrazkRaYbs_21.mp4	0.0	333.2642619609833	2.508526086807251
44	129.26600217819214	fix_post	2		12.0	42.0	2.5	/experiments/knapen_aot/videos/R_S_yt-EFrazkRaYbs_21.mp4	0.0	335.7727880477905	0.09981584548950195
45	129.36581802368164	fix_pre	0		19.0	43.0	2.5	/experiments/knapen_aot/videos/R_S_yt-YMI27rk5qUQ_117.mp4	0.0	335.87260389328003	0.15829110145568848
45	129.51593804359436	response	0	2		43.0	2.5	/experiments/knapen_aot/videos/R_S_yt-YMI27rk5qUQ_117.mp4	0.0	336.02272391319275	
45	129.52410912513733	movie	1		301.0	43.0	2.5	/experiments/knapen_aot/videos/R_S_yt-YMI27rk5qUQ_117.mp4	0.0	336.0308949947357	2.508380889892578
45	132.0324900150299	fix_post	2		12.0	43.0	2.5	/experiments/knapen_aot/videos/R_S_yt-YMI27rk5qUQ_117.mp4	0.0	338.5392758846283	0.10030508041381836
46	132.13279509544373	fix_pre	0		58.0	44.0	2.5	/experiments/knapen_aot/videos/S_yt-YMI27rk5qUQ_117.mp4	0.0	338.6395809650421	0.48298192024230957
46	132.60770106315613	response	0	2		44.0	2.5	/experiments/knapen_aot/videos/S_yt-YMI27rk5qUQ_117.mp4	0.0	339.1144869327545	
46	132.61577701568604	movie	1		301.0	44.0	2.5	/experiments/knapen_aot/videos/S_yt-YMI27rk5qUQ_117.mp4	0.0	339.1225628852844	2.5083510875701904
46	135.12412810325623	fix_post	2		12.0	44.0	2.5	/experiments/knapen_aot/videos/S_yt-YMI27rk5qUQ_117.mp4	0.0	341.6309139728546	0.10002398490905762
47	135.22415208816528	fix_pre	0		40.0	45.0	2.5	/experiments/knapen_aot/videos/S_pexels-mikhail-nilov-8410063_1.mp4	0.0	341.7309379577637	0.3332829475402832
47	135.5416431427002	response	0	2		45.0	2.5	/experiments/knapen_aot/videos/S_pexels-mikhail-nilov-8410063_1.mp4	0.0	342.0484290122986	
47	135.55743503570557	movie	1		164.0	45.0	2.5	/experiments/knapen_aot/videos/S_pexels-mikhail-nilov-8410063_1.mp4	0.0	342.06422090530396	2.508362054824829
47	138.0657970905304	fix_post	2		12.0	45.0	2.5	/experiments/knapen_aot/videos/S_pexels-mikhail-nilov-8410063_1.mp4	0.0	344.5725829601288	0.09995293617248535
48	138.16575002670288	fix_pre	0		16.0	46.0	2.5	/experiments/knapen_aot/videos/S_ILSVRC2015_train_00414000.mp4	0.0	344.67253589630127	0.13332915306091309
48	138.2908811569214	response	0	2		46.0	2.5	/experiments/knapen_aot/videos/S_ILSVRC2015_train_00414000.mp4	0.0	344.7976670265198	
48	138.2990791797638	movie	1		301.0	46.0	2.5	/experiments/knapen_aot/videos/S_ILSVRC2015_train_00414000.mp4	0.0	344.8058650493622	2.508380889892578
48	140.80746006965637	fix_post	2		12.0	46.0	2.5	/experiments/knapen_aot/videos/S_ILSVRC2015_train_00414000.mp4	0.0	347.31424593925476	0.10000491142272949
48	140.88252305984497	response	2	2		46.0	2.5	/experiments/knapen_aot/videos/S_ILSVRC2015_train_00414000.mp4	0.0	347.38930892944336	
49	140.9074649810791	fix_pre	0		197.0	47.0	2.5	blank	1.0	347.4142508506775	1.6415650844573975
49	142.5408821105957	response	0	2		47.0	2.5	blank	1.0	349.0476679801941	
49	142.5490300655365	movie	1		301.0	47.0	2.5	blank	1.0	349.0558159351349	2.508457899093628
49	145.05748796463013	fix_post	2		12.0	47.0	2.5	blank	1.0	351.5642738342285	0.09993314743041992
50	145.15742111206055	fix_pre	0		23.0	48.0	2.5	/experiments/knapen_aot/videos/S_pexels-rodnae-productions-5544703.mp4	0.0	351.66420698165894	0.1916508674621582
50	145.34080600738525	response	0	2		48.0	2.5	/experiments/knapen_aot/videos/S_pexels-rodnae-productions-5544703.mp4	0.0	351.84759187698364	
50	145.3490719795227	movie	1		164.0	48.0	2.5	/experiments/knapen_aot/videos/S_pexels-rodnae-productions-5544703.mp4	0.0	351.8558578491211	2.5083792209625244
50	147.85745120048523	fix_post	2		12.0	48.0	2.5	/experiments/knapen_aot/videos/S_pexels-rodnae-productions-5544703.mp4	0.0	354.3642370700836	0.09998083114624023
51	147.95743203163147	fix_pre	0		22.0	49.0	2.5	/experiments/knapen_aot/videos/R_S_video_inspire_oregon_lone-ranch-beach_00021.1080-h264.mp4	0.0	354.46421790122986	0.18454194068908691
51	148.13255214691162	response	0	2		49.0	2.5	/experiments/knapen_aot/videos/R_S_video_inspire_oregon_lone-ranch-beach_00021.1080-h264.mp4	0.0	354.63933801651	
51	148.14197397232056	movie	1		166.0	49.0	2.5	/experiments/knapen_aot/videos/R_S_video_inspire_oregon_lone-ranch-beach_00021.1080-h264.mp4	0.0	354.64875984191895	2.5072200298309326
51	150.6491940021515	fix_post	2		12.0	49.0	2.5	/experiments/knapen_aot/videos/R_S_video_inspire_oregon_lone-ranch-beach_00021.1080-h264.mp4	0.0	357.1559798717499	0.09988617897033691
52	150.74908018112183	fix_pre	0		31.0	50.0	2.5	/experiments/knapen_aot/videos/S_yt-JPsTqfqfPIY_319.mp4	0.0	357.2558660507202	0.2582888603210449
52	150.99932098388672	response	0	2		50.0	2.5	/experiments/knapen_aot/videos/S_yt-JPsTqfqfPIY_319.mp4	0.0	357.5061068534851	
52	151.00736904144287	movie	1		301.0	50.0	2.5	/experiments/knapen_aot/videos/S_yt-JPsTqfqfPIY_319.mp4	0.0	357.51415491104126	2.5082859992980957
52	153.51565504074097	fix_post	2		12.0	50.0	2.5	/experiments/knapen_aot/videos/S_yt-JPsTqfqfPIY_319.mp4	0.0	360.02244091033936	0.1000521183013916
53	153.61570715904236	fix_pre	0		31.0	51.0	2.5	/experiments/knapen_aot/videos/S_ILSVRC2015_train_00042002.mp4	0.0	360.12249302864075	0.25832080841064453
53	153.8657991886139	response	0	2		51.0	2.5	/experiments/knapen_aot/videos/S_ILSVRC2015_train_00042002.mp4	0.0	360.3725850582123	
53	153.874027967453	movie	1		301.0	51.0	2.5	/experiments/knapen_aot/videos/S_ILSVRC2015_train_00042002.mp4	0.0	360.3808138370514	2.5083601474761963
53	156.3823881149292	fix_post	2		12.0	51.0	2.5	/experiments/knapen_aot/videos/S_ILSVRC2015_train_00042002.mp4	0.0	362.8891739845276	0.10040903091430664
54	156.4827971458435	fix_pre	0		34.0	52.0	2.5	/experiments/knapen_aot/videos/R_S_ILSVRC2015_train_00384000.mp4	0.0	362.9895830154419	0.28403592109680176
54	156.7574760913849	response	0	2		52.0	2.5	/experiments/knapen_aot/videos/R_S_ILSVRC2015_train_00384000.mp4	0.0	363.2642619609833	
54	156.7668330669403	movie	1		301.0	52.0	2.5	/experiments/knapen_aot/videos/R_S_ILSVRC2015_train_00384000.mp4	0.0	363.2736189365387	2.5071849822998047
54	159.2740180492401	fix_post	2		12.0	52.0	2.5	/experiments/knapen_aot/videos/R_S_ILSVRC2015_train_00384000.mp4	0.0	365.7808039188385	0.09999608993530273
55	159.37401413917542	fix_pre	0		84.0	53.0	2.5	/experiments/knapen_aot/videos/S_video_inspire_oregon_lone-ranch-beach_00021.1080-h264.mp4	0.0	365.8808000087738	0.700031042098999
55	160.06585311889648	response	0	2		53.0	2.5	/experiments/knapen_aot/videos/S_video_inspire_oregon_lone-ranch-beach_00021.1080-h264.mp4	0.0	366.5726389884949	
55	160.0740451812744	movie	1		163.0	53.0	2.5	/experiments/knapen_aot/videos/S_video_inspire_oregon_lone-ranch-beach_00021.1080-h264.mp4	0.0	366.5808310508728	2.508288860321045
55	162.58233404159546	fix_post	2		12.0	53.0	2.5	/experiments/knapen_aot/videos/S_video_inspire_oregon_lone-ranch-beach_00021.1080-h264.mp4	0.0	369.08911991119385	0.10010194778442383
56	162.68243598937988	fix_pre	0		24.0	54.0	2.5	/experiments/knapen_aot/videos/R_S_yt-J2PiBa1MXI0_210.mp4	0.0	369.18922185897827	0.19989800453186035
56	162.8741271495819	response	0	2		54.0	2.5	/experiments/knapen_aot/videos/R_S_yt-J2PiBa1MXI0_210.mp4	0.0	369.3809130191803	
56	162.88233399391174	movie	1		301.0	54.0	2.5	/experiments/knapen_aot/videos/R_S_yt-J2PiBa1MXI0_210.mp4	0.0	369.38911986351013	2.508362054824829
56	165.39069604873657	fix_post	2		12.0	54.0	2.5	/experiments/knapen_aot/videos/R_S_yt-J2PiBa1MXI0_210.mp4	0.0	371.89748191833496	0.09999394416809082
57	165.49068999290466	fix_pre	0		23.0	55.0	2.5	blank	1.0	371.99747586250305	0.1916639804840088
57	165.674143075943	response	0	2		55.0	2.5	blank	1.0	372.1809289455414	
57	165.68235397338867	movie	1		301.0	55.0	2.5	blank	1.0	372.18913984298706	2.508324146270752
57	168.19067811965942	fix_post	2		12.0	55.0	2.5	blank	1.0	374.6974639892578	0.09998202323913574
58	168.29066014289856	fix_pre	0		61.0	56.0	2.5	/experiments/knapen_aot/videos/R_S_yt-fk-z6WCvjjA_3.mp4	0.0	374.79744601249695	0.5083098411560059
58	168.78321313858032	response	0	2		56.0	2.5	/experiments/knapen_aot/videos/R_S_yt-fk-z6WCvjjA_3.mp4	0.0	375.2899990081787	
58	168.79896998405457	movie	1		301.0	56.0	2.5	/experiments/knapen_aot/videos/R_S_yt-fk-z6WCvjjA_3.mp4	0.0	375.30575585365295	2.5083510875701904
58	171.30732107162476	fix_post	2		12.0	56.0	2.5	/experiments/knapen_aot/videos/R_S_yt-fk-z6WCvjjA_3.mp4	0.0	377.81410694122314	0.10000395774841309
59	171.40732502937317	fix_pre	0		45.0	57.0	2.5	/experiments/knapen_aot/videos/S_ILSVRC2015_train_00292006.mp4	0.0	377.91411089897156	0.3749699592590332
59	171.77409100532532	response	0	2		57.0	2.5	/experiments/knapen_aot/videos/S_ILSVRC2015_train_00292006.mp4	0.0	378.2808768749237	
59	171.7822949886322	movie	1		301.0	57.0	2.5	/experiments/knapen_aot/videos/S_ILSVRC2015_train_00292006.mp4	0.0	378.2890808582306	2.508329153060913
59	174.29062414169312	fix_post	2		12.0	57.0	2.5	/experiments/knapen_aot/videos/S_ILSVRC2015_train_00292006.mp4	0.0	380.7974100112915	0.1002049446105957
60	174.3908290863037	fix_pre	0		32.0	58.0	2.5	/experiments/knapen_aot/videos/S_yt-YLcmfyfIokU_64.mp4	0.0	380.8976149559021	0.26647305488586426
60	174.64902114868164	response	0	2		58.0	2.5	/experiments/knapen_aot/videos/S_yt-YLcmfyfIokU_64.mp4	0.0	381.15580701828003	
60	174.65730214118958	movie	1		301.0	58.0	2.5	/experiments/knapen_aot/videos/S_yt-YLcmfyfIokU_64.mp4	0.0	381.16408801078796	2.508312940597534
60	177.1656150817871	fix_post	2		12.0	58.0	2.5	/experiments/knapen_aot/videos/S_yt-YLcmfyfIokU_64.mp4	0.0	383.6724009513855	0.09997105598449707
61	177.2655861377716	fix_pre	0		27.0	59.0	2.5	/experiments/knapen_aot/videos/R_S_yt-JVhfcpV7OaY_71.mp4	0.0	383.77237200737	0.2249619960784912
61	177.48239612579346	response	0	2		59.0	2.5	/experiments/knapen_aot/videos/R_S_yt-JVhfcpV7OaY_71.mp4	0.0	383.98918199539185	
61	177.4905481338501	movie	1		301.0	59.0	2.5	/experiments/knapen_aot/videos/R_S_yt-JVhfcpV7OaY_71.mp4	0.0	383.9973340034485	2.5083658695220947
61	179.9989140033722	fix_post	2		12.0	59.0	2.5	/experiments/knapen_aot/videos/R_S_yt-JVhfcpV7OaY_71.mp4	0.0	386.5056998729706	0.10020112991333008
62	180.09911513328552	fix_pre	0		62.0	60.0	2.5	/experiments/knapen_aot/videos/R_S_yt-KNdCiW8m1uY_168.mp4	0.0	386.6059010028839	0.5164780616760254
62	180.60732316970825	response	0	2		60.0	2.5	/experiments/knapen_aot/videos/R_S_yt-KNdCiW8m1uY_168.mp4	0.0	387.11410903930664	
62	180.61559319496155	movie	1		301.0	60.0	2.5	/experiments/knapen_aot/videos/R_S_yt-KNdCiW8m1uY_168.mp4	0.0	387.12237906455994	2.5084269046783447
62	183.1240200996399	fix_post	2		12.0	60.0	2.5	/experiments/knapen_aot/videos/R_S_yt-KNdCiW8m1uY_168.mp4	0.0	389.6308059692383	0.09991097450256348
63	183.22393107414246	fix_pre	0		36.0	61.0	2.5	/experiments/knapen_aot/videos/R_S_ILSVRC2015_train_00042002.mp4	0.0	389.73071694374084	0.29996395111083984
63	183.51568818092346	response	0	2		61.0	2.5	/experiments/knapen_aot/videos/R_S_ILSVRC2015_train_00042002.mp4	0.0	390.02247405052185	
63	183.5238950252533	movie	1		301.0	61.0	2.5	/experiments/knapen_aot/videos/R_S_ILSVRC2015_train_00042002.mp4	0.0	390.0306808948517	2.5084221363067627
63	186.03231716156006	fix_post	2		12.0	61.0	2.5	/experiments/knapen_aot/videos/R_S_ILSVRC2015_train_00042002.mp4	0.0	392.53910303115845	0.09999799728393555
64	186.132315158844	fix_pre	0		24.0	62.0	2.5	/experiments/knapen_aot/videos/R_S_yt-0Zze3Ff12Ys_58.mp4	0.0	392.6391010284424	0.19986701011657715
64	186.32396912574768	response	0	2		62.0	2.5	/experiments/knapen_aot/videos/R_S_yt-0Zze3Ff12Ys_58.mp4	0.0	392.83075499534607	
64	186.33218216896057	movie	1		301.0	62.0	2.5	/experiments/knapen_aot/videos/R_S_yt-0Zze3Ff12Ys_58.mp4	0.0	392.83896803855896	2.508373975753784
64	188.84055614471436	fix_post	2		12.0	62.0	2.5	/experiments/knapen_aot/videos/R_S_yt-0Zze3Ff12Ys_58.mp4	0.0	395.34734201431274	0.10004496574401855
65	188.94060111045837	fix_pre	0		34.0	63.0	2.5	blank	1.0	395.44738698005676	0.28328800201416016
65	189.2157039642334	response	0	2		63.0	2.5	blank	1.0	395.7224898338318	
65	189.22388911247253	movie	1		301.0	63.0	2.5	blank	1.0	395.7306749820709	2.5083580017089844
65	191.73224711418152	fix_post	2		12.0	63.0	2.5	blank	1.0	398.2390329837799	0.10004186630249023
66	191.832288980484	fix_pre	0		35.0	64.0	2.5	/experiments/knapen_aot/videos/S_yt-s73Xqkcq9Js_285.mp4	0.0	398.3390748500824	0.291593074798584
66	192.1156120300293	response	0	2		64.0	2.5	/experiments/knapen_aot/videos/S_yt-s73Xqkcq9Js_285.mp4	0.0	398.6223978996277	
66	192.1238820552826	movie	1		301.0	64.0	2.5	/experiments/knapen_aot/videos/S_yt-s73Xqkcq9Js_285.mp4	0.0	398.630667924881	2.508296012878418
66	194.632178068161	fix_post	2		12.0	64.0	2.5	/experiments/knapen_aot/videos/S_yt-s73Xqkcq9Js_285.mp4	0.0	401.1389639377594	0.10003805160522461
67	194.73221611976624	fix_pre	0		33.0	65.0	2.5	/experiments/knapen_aot/videos/R_S_yt-8LO59eN9om4_16.mp4	0.0	401.2390019893646	0.2749450206756592
67	194.99145197868347	response	0	2		65.0	2.5	/experiments/knapen_aot/videos/R_S_yt-8LO59eN9om4_16.mp4	0.0	401.49823784828186	
67	195.0071611404419	movie	1		301.0	65.0	2.5	/experiments/knapen_aot/videos/R_S_yt-8LO59eN9om4_16.mp4	0.0	401.5139470100403	2.5084228515625
67	197.5155839920044	fix_post	2		12.0	65.0	2.5	/experiments/knapen_aot/videos/R_S_yt-8LO59eN9om4_16.mp4	0.0	404.0223698616028	0.09997820854187012
68	197.61556220054626	fix_pre	0		26.0	66.0	2.5	/experiments/knapen_aot/videos/R_S_P005_C002_UHD_SDR_2K_AVC.mp4	0.0	404.12234807014465	0.21656584739685059
68	197.8241150379181	response	0	2		66.0	2.5	/experiments/knapen_aot/videos/R_S_P005_C002_UHD_SDR_2K_AVC.mp4	0.0	404.3309009075165	
68	197.83212804794312	movie	1		170.0	66.0	2.5	/experiments/knapen_aot/videos/R_S_P005_C002_UHD_SDR_2K_AVC.mp4	0.0	404.3389139175415	2.5083789825439453
68	200.34050703048706	fix_post	2		12.0	66.0	2.5	/experiments/knapen_aot/videos/R_S_P005_C002_UHD_SDR_2K_AVC.mp4	0.0	406.84729290008545	0.09998297691345215
69	200.4404900074005	fix_pre	0		20.0	67.0	2.5	/experiments/knapen_aot/videos/S_yt-2jVJb1PR2XA_16.mp4	0.0	406.9472758769989	0.16668009757995605
69	200.59888219833374	response	0	2		67.0	2.5	/experiments/knapen_aot/videos/S_yt-2jVJb1PR2XA_16.mp4	0.0	407.10566806793213	
69	200.60717010498047	movie	1		301.0	67.0	2.5	/experiments/knapen_aot/videos/S_yt-2jVJb1PR2XA_16.mp4	0.0	407.11395597457886	2.508323907852173
69	203.11549401283264	fix_post	2		12.0	67.0	2.5	/experiments/knapen_aot/videos/S_yt-2jVJb1PR2XA_16.mp4	0.0	409.62227988243103	0.09998798370361328
70	203.21548199653625	fix_pre	0		51.0	68.0	2.5	blank	1.0	409.72226786613464	0.42493104934692383
70	203.63230419158936	response	0	2		68.0	2.5	blank	1.0	410.13909006118774	
70	203.64041304588318	movie	1		301.0	68.0	2.5	blank	1.0	410.14719891548157	2.5083980560302734
70	206.14881110191345	fix_post	2		12.0	68.0	2.5	blank	1.0	412.65559697151184	0.09999489784240723
71	206.24880599975586	fix_pre	0		35.0	69.0	2.5	/experiments/knapen_aot/videos/S_P005_C002_UHD_SDR_2K_AVC.mp4	0.0	412.75559186935425	0.2916431427001953
71	206.53229999542236	response	0	2		69.0	2.5	/experiments/knapen_aot/videos/S_P005_C002_UHD_SDR_2K_AVC.mp4	0.0	413.03908586502075	
71	206.54044914245605	movie	1		167.0	69.0	2.5	/experiments/knapen_aot/videos/S_P005_C002_UHD_SDR_2K_AVC.mp4	0.0	413.04723501205444	2.508296012878418
71	209.04874515533447	fix_post	2		12.0	69.0	2.5	/experiments/knapen_aot/videos/S_P005_C002_UHD_SDR_2K_AVC.mp4	0.0	415.55553102493286	0.10012602806091309
72	209.14887118339539	fix_pre	0		5.0	70.0	2.5	/experiments/knapen_aot/videos/S_yt-GWOOQZ19-oU_331.mp4	0.0	415.6556570529938	0.04161882400512695
72	209.18227815628052	response	0	2		70.0	2.5	/experiments/knapen_aot/videos/S_yt-GWOOQZ19-oU_331.mp4	0.0	415.6890640258789	
72	209.1904900074005	movie	1		301.0	70.0	2.5	/experiments/knapen_aot/videos/S_yt-GWOOQZ19-oU_331.mp4	0.0	415.6972758769989	2.5083160400390625
72	211.69880604743958	fix_post	2		12.0	70.0	2.5	/experiments/knapen_aot/videos/S_yt-GWOOQZ19-oU_331.mp4	0.0	418.20559191703796	0.10003304481506348
73	211.79883909225464	fix_pre	0		40.0	71.0	2.5	/experiments/knapen_aot/videos/R_S_yt-MEfljVFL0xw_375.mp4	0.0	418.305624961853	0.3358418941497803
73	212.12393999099731	response	0	2		71.0	2.5	/experiments/knapen_aot/videos/R_S_yt-MEfljVFL0xw_375.mp4	0.0	418.6307258605957	
73	212.13468098640442	movie	1		301.0	71.0	2.5	/experiments/knapen_aot/videos/R_S_yt-MEfljVFL0xw_375.mp4	0.0	418.6414668560028	2.5057640075683594
73	214.64044499397278	fix_post	2		12.0	71.0	2.5	/experiments/knapen_aot/videos/R_S_yt-MEfljVFL0xw_375.mp4	0.0	421.14723086357117	0.09999418258666992
74	214.74043917655945	fix_pre	0		46.0	72.0	2.5	/experiments/knapen_aot/videos/R_S_pexels-diva-plavalaguna-6985395.mp4	0.0	421.24722504615784	0.383342981338501
74	215.1155650615692	response	0	2		72.0	2.5	/experiments/knapen_aot/videos/R_S_pexels-diva-plavalaguna-6985395.mp4	0.0	421.6223509311676	
74	215.12378215789795	movie	1		164.0	72.0	2.5	/experiments/knapen_aot/videos/R_S_pexels-diva-plavalaguna-6985395.mp4	0.0	421.63056802749634	2.50832200050354
74	217.6321041584015	fix_post	2		12.0	72.0	2.5	/experiments/knapen_aot/videos/R_S_pexels-diva-plavalaguna-6985395.mp4	0.0	424.1388900279999	0.10005998611450195
75	217.732164144516	fix_pre	0		72.0	73.0	2.5	/experiments/knapen_aot/videos/S_yt-yB7mPODPTVw_74.mp4	0.0	424.2389500141144	0.599937915802002
75	218.32388615608215	response	0	2		73.0	2.5	/experiments/knapen_aot/videos/S_yt-yB7mPODPTVw_74.mp4	0.0	424.83067202568054	
75	218.332102060318	movie	1		301.0	73.0	2.5	/experiments/knapen_aot/videos/S_yt-yB7mPODPTVw_74.mp4	0.0	424.8388879299164	2.5083420276641846
75	220.84044408798218	fix_post	2		12.0	73.0	2.5	/experiments/knapen_aot/videos/S_yt-yB7mPODPTVw_74.mp4	0.0	427.34722995758057	0.099945068359375
76	220.94038915634155	fix_pre	0		40.0	74.0	2.5	/experiments/knapen_aot/videos/S_video_inspire_oregon_lone-ranch-beach_00021.1080-h264.mp4	0.0	427.44717502593994	0.33331894874572754
76	221.26556706428528	response	0	2		74.0	2.5	/experiments/knapen_aot/videos/S_video_inspire_oregon_lone-ranch-beach_00021.1080-h264.mp4	0.0	427.77235293388367	
76	221.27370810508728	movie	1		165.0	74.0	2.5	/experiments/knapen_aot/videos/S_video_inspire_oregon_lone-ranch-beach_00021.1080-h264.mp4	0.0	427.78049397468567	2.508435010910034
76	223.78214311599731	fix_post	2		12.0	74.0	2.5	/experiments/knapen_aot/videos/S_video_inspire_oregon_lone-ranch-beach_00021.1080-h264.mp4	0.0	430.2889289855957	0.09996199607849121
77	223.8821051120758	fix_pre	0		31.0	75.0	2.5	/experiments/knapen_aot/videos/S_yt-JtR6WZXT2kU_8.mp4	0.0	430.3888909816742	0.25914597511291504
77	224.13214302062988	response	0	2		75.0	2.5	/experiments/knapen_aot/videos/S_yt-JtR6WZXT2kU_8.mp4	0.0	430.63892889022827	
77	224.14125108718872	movie	1		301.0	75.0	2.5	/experiments/knapen_aot/videos/S_yt-JtR6WZXT2kU_8.mp4	0.0	430.6480369567871	2.5074830055236816
77	226.6487340927124	fix_post	2		12.0	75.0	2.5	/experiments/knapen_aot/videos/S_yt-JtR6WZXT2kU_8.mp4	0.0	433.1555199623108	0.10010194778442383
78	226.74883604049683	fix_pre	0		33.0	76.0	2.5	/experiments/knapen_aot/videos/S_yt-pPIHiIYSjW8_653.mp4	0.0	433.2556219100952	0.2748899459838867
78	227.00807213783264	response	0	2		76.0	2.5	/experiments/knapen_aot/videos/S_yt-pPIHiIYSjW8_653.mp4	0.0	433.51485800743103	
78	227.0237259864807	movie	1		301.0	76.0	2.5	/experiments/knapen_aot/videos/S_yt-pPIHiIYSjW8_653.mp4	0.0	433.5305118560791	2.5083510875701904
78	229.5320770740509	fix_post	2		12.0	76.0	2.5	/experiments/knapen_aot/videos/S_yt-pPIHiIYSjW8_653.mp4	0.0	436.0388629436493	0.09999799728393555
79	229.63207507133484	fix_pre	0		45.0	77.0	2.5	blank	1.0	436.1388609409332	0.3749871253967285
79	229.99878597259521	response	0	2		77.0	2.5	blank	1.0	436.5055718421936	
79	230.00706219673157	movie	1		301.0	77.0	2.5	blank	1.0	436.51384806632996	2.5083119869232178
79	232.51537418365479	fix_post	2		12.0	77.0	2.5	blank	1.0	439.0221600532532	0.09992480278015137
80	232.61529898643494	fix_pre	0		51.0	78.0	2.5	/experiments/knapen_aot/videos/R_S_ILSVRC2015_train_00556000.mp4	0.0	439.1220848560333	0.42508602142333984
80	233.02453804016113	response	0	2		78.0	2.5	/experiments/knapen_aot/videos/R_S_ILSVRC2015_train_00556000.mp4	0.0	439.5313239097595	
80	233.04038500785828	movie	1		301.0	78.0	2.5	/experiments/knapen_aot/videos/R_S_ILSVRC2015_train_00556000.mp4	0.0	439.54717087745667	2.508310079574585
80	235.54869508743286	fix_post	2		12.0	78.0	2.5	/experiments/knapen_aot/videos/R_S_ILSVRC2015_train_00556000.mp4	0.0	442.05548095703125	0.10000205039978027
81	235.64869713783264	fix_pre	0		31.0	79.0	2.5	/experiments/knapen_aot/videos/R_S_yt-0Zze3Ff12Ys_58.mp4	0.0	442.15548300743103	0.2582879066467285
81	235.8987991809845	response	0	2		79.0	2.5	/experiments/knapen_aot/videos/R_S_yt-0Zze3Ff12Ys_58.mp4	0.0	442.4055850505829	
81	235.90698504447937	movie	1		301.0	79.0	2.5	/experiments/knapen_aot/videos/R_S_yt-0Zze3Ff12Ys_58.mp4	0.0	442.41377091407776	2.508362054824829
81	238.4153470993042	fix_post	2		12.0	79.0	2.5	/experiments/knapen_aot/videos/R_S_yt-0Zze3Ff12Ys_58.mp4	0.0	444.9221329689026	0.10014986991882324
82	238.51549696922302	fix_pre	0		18.0	80.0	2.5	/experiments/knapen_aot/videos/R_S_yt-YLcmfyfIokU_64.mp4	0.0	445.0222828388214	0.14979004859924316
82	238.6571261882782	response	0	2		80.0	2.5	/experiments/knapen_aot/videos/R_S_yt-YLcmfyfIokU_64.mp4	0.0	445.1639120578766	
82	238.66528701782227	movie	1		301.0	80.0	2.5	/experiments/knapen_aot/videos/R_S_yt-YLcmfyfIokU_64.mp4	0.0	445.17207288742065	2.508357048034668
82	241.17364406585693	fix_post	2		12.0	80.0	2.5	/experiments/knapen_aot/videos/R_S_yt-YLcmfyfIokU_64.mp4	0.0	447.6804299354553	0.10001111030578613
83	241.27365517616272	fix_pre	0		47.0	81.0	2.5	/experiments/knapen_aot/videos/S_yt-JH6qCYAnX-I_70.mp4	0.0	447.7804410457611	0.3916208744049072
83	241.65713906288147	response	0	2		81.0	2.5	/experiments/knapen_aot/videos/S_yt-JH6qCYAnX-I_70.mp4	0.0	448.16392493247986	
83	241.66527605056763	movie	1		301.0	81.0	2.5	/experiments/knapen_aot/videos/S_yt-JH6qCYAnX-I_70.mp4	0.0	448.172061920166	2.508394956588745
83	244.17367100715637	fix_post	2		12.0	81.0	2.5	/experiments/knapen_aot/videos/S_yt-JH6qCYAnX-I_70.mp4	0.0	450.68045687675476	0.0999910831451416
84	244.2736620903015	fix_pre	0		40.0	82.0	2.5	/experiments/knapen_aot/videos/S_ILSVRC2015_train_00756000.mp4	0.0	450.7804479598999	0.3333261013031006
84	244.59876418113708	response	0	2		82.0	2.5	/experiments/knapen_aot/videos/S_ILSVRC2015_train_00756000.mp4	0.0	451.1055500507355	
84	244.60698819160461	movie	1		301.0	82.0	2.5	/experiments/knapen_aot/videos/S_ILSVRC2015_train_00756000.mp4	0.0	451.113774061203	2.508309841156006
84	247.11529803276062	fix_post	2		12.0	82.0	2.5	/experiments/knapen_aot/videos/S_ILSVRC2015_train_00756000.mp4	0.0	453.622083902359	0.1000370979309082
85	247.21533513069153	fix_pre	0		34.0	83.0	2.5	blank	1.0	453.7221210002899	0.2833058834075928
85	247.49054408073425	response	0	2		83.0	2.5	blank	1.0	453.99732995033264	
85	247.49864101409912	movie	1		301.0	83.0	2.5	blank	1.0	454.0054268836975	2.508319139480591
85	250.0069601535797	fix_post	2		12.0	83.0	2.5	blank	1.0	456.5137460231781	0.09999704360961914
87	250.10695719718933	stim	0		283.0					456.6137430667877	2.3603389263153076
87	252.454204082489	response	0	space						458.9609899520874	
