trial_nr	onset	event_type	phase	response	nr_frames	movie_index	movie_duration	movie_file	blank	onset_abs	duration
0	0.13206911087036133	stim	0		14.0					60.09265732765198	0.1182401180267334
0	0.24059009552001953	response	0	space						60.201178312301636	
1	0.2503092288970947	stim	0		121.0					60.21089744567871	1.00649094581604
1	0.7490091323852539	response	0	space						60.70959734916687	
1	1.2568001747131348	stim	1		120.0					61.21738839149475	1.0000050067901611
1	1.4243171215057373	response	1	space						61.38490533828735	
1	2.1235101222991943	response	1	space						62.08409833908081	
2	2.256805181503296	fix_pre	0		21.0	0.0	2.5	/experiments/knapen_aot/videos/S_yt-jbvXEFk2Gyw_12.mp4	0.0	62.21739339828491	0.17493700981140137
2	2.41605806350708	response	0	space		0.0	2.5	/experiments/knapen_aot/videos/S_yt-jbvXEFk2Gyw_12.mp4	0.0	62.376646280288696	
2	2.4317421913146973	movie	1		301.0	0.0	2.5	/experiments/knapen_aot/videos/S_yt-jbvXEFk2Gyw_12.mp4	0.0	62.39233040809631	2.5083038806915283
2	4.940046072006226	fix_post	2		12.0	0.0	2.5	/experiments/knapen_aot/videos/S_yt-jbvXEFk2Gyw_12.mp4	0.0	64.90063428878784	0.1000220775604248
3	5.04006814956665	fix_pre	0		77.0	1.0	2.5	/experiments/knapen_aot/videos/R_S_pexels-mikhail-nilov-8410063.mp4	0.0	65.00065636634827	0.6416490077972412
3	5.675871133804321	response	0	2		1.0	2.5	/experiments/knapen_aot/videos/R_S_pexels-mikhail-nilov-8410063.mp4	0.0	65.63645935058594	
3	5.681717157363892	movie	1		166.0	1.0	2.5	/experiments/knapen_aot/videos/R_S_pexels-mikhail-nilov-8410063.mp4	0.0	65.64230537414551	2.5082528591156006
3	8.189970016479492	fix_post	2		12.0	1.0	2.5	/experiments/knapen_aot/videos/R_S_pexels-mikhail-nilov-8410063.mp4	0.0	68.15055823326111	0.1000211238861084
4	8.2899911403656	fix_pre	0		73.0	2.0	2.5	/experiments/knapen_aot/videos/S_yt-3NMDWrZr1Z4_255.mp4	0.0	68.25057935714722	0.6083788871765137
4	8.89018201828003	response	0	2		2.0	2.5	/experiments/knapen_aot/videos/S_yt-3NMDWrZr1Z4_255.mp4	0.0	68.85077023506165	
4	8.898370027542114	movie	1		300.0	2.0	2.5	/experiments/knapen_aot/videos/S_yt-3NMDWrZr1Z4_255.mp4	0.0	68.85895824432373	2.508413076400757
4	11.406783103942871	fix_post	2		12.0	2.0	2.5	/experiments/knapen_aot/videos/S_yt-3NMDWrZr1Z4_255.mp4	0.0	71.36737132072449	0.09991312026977539
5	11.506696224212646	fix_pre	0		56.0	3.0	2.5	/experiments/knapen_aot/videos/S_pexels-anastasia-shuraeva-601407_2.mp4	0.0	71.46728444099426	0.46662378311157227
5	11.957801103591919	response	0	2		3.0	2.5	/experiments/knapen_aot/videos/S_pexels-anastasia-shuraeva-601407_2.mp4	0.0	71.91838932037354	
5	11.973320007324219	movie	1		210.0	3.0	2.5	/experiments/knapen_aot/videos/S_pexels-anastasia-shuraeva-601407_2.mp4	0.0	71.93390822410583	2.508437156677246
5	14.481757164001465	fix_post	2		12.0	3.0	2.5	/experiments/knapen_aot/videos/S_pexels-anastasia-shuraeva-601407_2.mp4	0.0	74.44234538078308	0.09995889663696289
6	14.581716060638428	fix_pre	0		76.0	4.0	2.5	/experiments/knapen_aot/videos/S_wc-dwTccI0TNwps_15.mp4	0.0	74.54230427742004	0.6332790851593018
6	15.206778049468994	response	0	2		4.0	2.5	/experiments/knapen_aot/videos/S_wc-dwTccI0TNwps_15.mp4	0.0	75.16736626625061	
6	15.21499514579773	movie	1		301.0	4.0	2.5	/experiments/knapen_aot/videos/S_wc-dwTccI0TNwps_15.mp4	0.0	75.17558336257935	2.5083298683166504
6	17.72332501411438	fix_post	2		12.0	4.0	2.5	/experiments/knapen_aot/videos/S_wc-dwTccI0TNwps_15.mp4	0.0	77.683913230896	0.10007715225219727
7	17.823402166366577	fix_pre	0		57.0	5.0	2.5	/experiments/knapen_aot/videos/R_S_yt-JG2OY_7B-gI_537.mp4	0.0	77.7839903831482	0.4749150276184082
7	18.2901611328125	response	0	2		5.0	2.5	/experiments/knapen_aot/videos/R_S_yt-JG2OY_7B-gI_537.mp4	0.0	78.25074934959412	
7	18.298317193984985	movie	1		301.0	5.0	2.5	/experiments/knapen_aot/videos/R_S_yt-JG2OY_7B-gI_537.mp4	0.0	78.2589054107666	2.5083649158477783
7	20.806682109832764	fix_post	2		12.0	5.0	2.5	/experiments/knapen_aot/videos/R_S_yt-JG2OY_7B-gI_537.mp4	0.0	80.76727032661438	0.09995603561401367
8	20.906638145446777	fix_pre	0		67.0	6.0	2.5	/experiments/knapen_aot/videos/S_comp_A008_C007_011550_CC_v01_SDR_PS_FINAL_20180709_SDR_2K_AVC.mp4	0.0	80.8672263622284	0.5583670139312744
8	21.45674419403076	response	0	2		6.0	2.5	/experiments/knapen_aot/videos/S_comp_A008_C007_011550_CC_v01_SDR_PS_FINAL_20180709_SDR_2K_AVC.mp4	0.0	81.41733241081238	
8	21.46500515937805	movie	1		163.0	6.0	2.5	/experiments/knapen_aot/videos/S_comp_A008_C007_011550_CC_v01_SDR_PS_FINAL_20180709_SDR_2K_AVC.mp4	0.0	81.42559337615967	2.5083818435668945
8	23.973387002944946	fix_post	2		12.0	6.0	2.5	/experiments/knapen_aot/videos/S_comp_A008_C007_011550_CC_v01_SDR_PS_FINAL_20180709_SDR_2K_AVC.mp4	0.0	83.93397521972656	0.10000419616699219
9	24.07339119911194	fix_pre	0		74.0	7.0	2.5	blank	1.0	84.03397941589355	0.6166548728942871
9	24.68317222595215	response	0	2		7.0	2.5	blank	1.0	84.64376044273376	
9	24.690046072006226	movie	1		301.0	7.0	2.5	blank	1.0	84.65063428878784	2.508223056793213
9	27.19826912879944	fix_post	2		12.0	7.0	2.5	blank	1.0	87.15885734558105	0.10002398490905762
10	27.298293113708496	fix_pre	0		60.0	8.0	2.5	/experiments/knapen_aot/videos/R_S_pexels-rodnae-productions-5993237.mp4	0.0	87.25888133049011	0.49993205070495605
10	27.790064096450806	response	0	2		8.0	2.5	/experiments/knapen_aot/videos/R_S_pexels-rodnae-productions-5993237.mp4	0.0	87.75065231323242	
10	27.798225164413452	movie	1		165.0	8.0	2.5	/experiments/knapen_aot/videos/R_S_pexels-rodnae-productions-5993237.mp4	0.0	87.75881338119507	2.5084190368652344
10	30.306644201278687	fix_post	2		12.0	8.0	2.5	/experiments/knapen_aot/videos/R_S_pexels-rodnae-productions-5993237.mp4	0.0	90.2672324180603	0.09999799728393555
11	30.406642198562622	fix_pre	0		99.0	9.0	2.5	/experiments/knapen_aot/videos/R_S_yt-deiWoIfK6vg_44.mp4	0.0	90.36723041534424	0.8249378204345703
11	31.216074228286743	response	0	2		9.0	2.5	/experiments/knapen_aot/videos/R_S_yt-deiWoIfK6vg_44.mp4	0.0	91.17666244506836	
11	31.231580018997192	movie	1		301.0	9.0	2.5	/experiments/knapen_aot/videos/R_S_yt-deiWoIfK6vg_44.mp4	0.0	91.19216823577881	2.5083811283111572
11	33.73996114730835	fix_post	2		12.0	9.0	2.5	/experiments/knapen_aot/videos/R_S_yt-deiWoIfK6vg_44.mp4	0.0	93.70054936408997	0.09995794296264648
12	33.839919090270996	fix_pre	0		83.0	10.0	2.5	/experiments/knapen_aot/videos/S_yt-lADkWM79teI_18.mp4	0.0	93.80050730705261	0.6916649341583252
12	34.52340912818909	response	0	2		10.0	2.5	/experiments/knapen_aot/videos/S_yt-lADkWM79teI_18.mp4	0.0	94.4839973449707	
12	34.53158402442932	movie	1		301.0	10.0	2.5	/experiments/knapen_aot/videos/S_yt-lADkWM79teI_18.mp4	0.0	94.49217224121094	2.50833797454834
12	37.03992199897766	fix_post	2		12.0	10.0	2.5	/experiments/knapen_aot/videos/S_yt-lADkWM79teI_18.mp4	0.0	97.00051021575928	0.10024809837341309
13	37.140170097351074	fix_pre	0		90.0	11.0	2.5	/experiments/knapen_aot/videos/S_WCwb-DeQOSg_85.mp4	0.0	97.10075831413269	0.7497611045837402
13	37.88173317909241	response	0	2		11.0	2.5	/experiments/knapen_aot/videos/S_WCwb-DeQOSg_85.mp4	0.0	97.84232139587402	
13	37.889931201934814	movie	1		301.0	11.0	2.5	/experiments/knapen_aot/videos/S_WCwb-DeQOSg_85.mp4	0.0	97.85051941871643	2.508281946182251
13	40.398213148117065	fix_post	2		12.0	11.0	2.5	/experiments/knapen_aot/videos/S_WCwb-DeQOSg_85.mp4	0.0	100.35880136489868	0.09992790222167969
14	40.498141050338745	fix_pre	0		62.0	12.0	2.5	blank	1.0	100.45872926712036	0.5167710781097412
14	41.00672006607056	response	0	2		12.0	2.5	blank	1.0	100.96730828285217	
14	41.014912128448486	movie	1		301.0	12.0	2.5	blank	1.0	100.9755003452301	2.5082390308380127
14	43.5231511592865	fix_post	2		12.0	12.0	2.5	blank	1.0	103.48373937606812	0.10003900527954102
15	43.62319016456604	fix_pre	0		82.0	13.0	2.5	/experiments/knapen_aot/videos/S_g201_AK_A003_C014_SDR_20191113_SDR_2K_AVC.mp4	0.0	103.58377838134766	0.6833269596099854
15	44.298378229141235	response	0	2		13.0	2.5	/experiments/knapen_aot/videos/S_g201_AK_A003_C014_SDR_20191113_SDR_2K_AVC.mp4	0.0	104.25896644592285	
15	44.306517124176025	movie	1		177.0	13.0	2.5	/experiments/knapen_aot/videos/S_g201_AK_A003_C014_SDR_20191113_SDR_2K_AVC.mp4	0.0	104.26710534095764	2.508363962173462
15	46.81488108634949	fix_post	2		12.0	13.0	2.5	/experiments/knapen_aot/videos/S_g201_AK_A003_C014_SDR_20191113_SDR_2K_AVC.mp4	0.0	106.7754693031311	0.1000211238861084
16	46.914902210235596	fix_pre	0		51.0	14.0	2.5	/experiments/knapen_aot/videos/S_yt-_zDYi2P-QxY_128.mp4	0.0	106.87549042701721	0.42491984367370605
16	47.33174419403076	response	0	2		14.0	2.5	/experiments/knapen_aot/videos/S_yt-_zDYi2P-QxY_128.mp4	0.0	107.29233241081238	
16	47.3398220539093	movie	1		301.0	14.0	2.5	/experiments/knapen_aot/videos/S_yt-_zDYi2P-QxY_128.mp4	0.0	107.30041027069092	2.5083460807800293
16	49.84816813468933	fix_post	2		12.0	14.0	2.5	/experiments/knapen_aot/videos/S_yt-_zDYi2P-QxY_128.mp4	0.0	109.80875635147095	0.10003495216369629
17	49.94820308685303	fix_pre	0		48.0	15.0	2.5	/experiments/knapen_aot/videos/R_S_yt-FE5srhxadno_73.mp4	0.0	109.90879130363464	0.3999769687652588
17	50.33998203277588	response	0	2		15.0	2.5	/experiments/knapen_aot/videos/R_S_yt-FE5srhxadno_73.mp4	0.0	110.3005702495575	
17	50.348180055618286	movie	1		301.0	15.0	2.5	/experiments/knapen_aot/videos/R_S_yt-FE5srhxadno_73.mp4	0.0	110.3087682723999	2.5083160400390625
17	52.85649609565735	fix_post	2		12.0	15.0	2.5	/experiments/knapen_aot/videos/R_S_yt-FE5srhxadno_73.mp4	0.0	112.81708431243896	0.10005712509155273
18	52.9565532207489	fix_pre	0		62.0	16.0	2.5	/experiments/knapen_aot/videos/R_S_pexels-anastasia-shuraeva-601407_2.mp4	0.0	112.91714143753052	0.5167419910430908
18	53.46494221687317	response	0	2		16.0	2.5	/experiments/knapen_aot/videos/R_S_pexels-anastasia-shuraeva-601407_2.mp4	0.0	113.42553043365479	
18	53.47329521179199	movie	1		197.0	16.0	2.5	/experiments/knapen_aot/videos/R_S_pexels-anastasia-shuraeva-601407_2.mp4	0.0	113.43388342857361	2.50821590423584
18	55.98151111602783	fix_post	2		12.0	16.0	2.5	/experiments/knapen_aot/videos/R_S_pexels-anastasia-shuraeva-601407_2.mp4	0.0	115.94209933280945	0.09993910789489746
19	56.08145022392273	fix_pre	0		29.0	17.0	2.5	/experiments/knapen_aot/videos/S_ILSVRC2015_train_00568002.mp4	0.0	116.04203844070435	0.2416849136352539
19	56.315078020095825	response	0	2		17.0	2.5	/experiments/knapen_aot/videos/S_ILSVRC2015_train_00568002.mp4	0.0	116.27566623687744	
19	56.32313513755798	movie	1		301.0	17.0	2.5	/experiments/knapen_aot/videos/S_ILSVRC2015_train_00568002.mp4	0.0	116.2837233543396	2.5083460807800293
19	58.83148121833801	fix_post	2		12.0	17.0	2.5	/experiments/knapen_aot/videos/S_ILSVRC2015_train_00568002.mp4	0.0	118.79206943511963	0.10006499290466309
20	58.931546211242676	fix_pre	0		39.0	18.0	2.5	/experiments/knapen_aot/videos/S_yt-nS2QqSQbjOQ_39.mp4	0.0	118.89213442802429	0.3249058723449707
20	59.248252153396606	response	0	2		18.0	2.5	/experiments/knapen_aot/videos/S_yt-nS2QqSQbjOQ_39.mp4	0.0	119.20884037017822	
20	59.25645208358765	movie	1		301.0	18.0	2.5	/experiments/knapen_aot/videos/S_yt-nS2QqSQbjOQ_39.mp4	0.0	119.21704030036926	2.5083999633789062
20	61.76485204696655	fix_post	2		12.0	18.0	2.5	/experiments/knapen_aot/videos/S_yt-nS2QqSQbjOQ_39.mp4	0.0	121.72544026374817	0.0999910831451416
21	61.864843130111694	fix_pre	0		46.0	19.0	2.5	blank	1.0	121.82543134689331	0.38425588607788086
21	62.23999500274658	response	0	2		19.0	2.5	blank	1.0	122.2005832195282	
21	62.249099016189575	movie	1		301.0	19.0	2.5	blank	1.0	122.20968723297119	2.5074100494384766
21	64.75650906562805	fix_post	2		12.0	19.0	2.5	blank	1.0	124.71709728240967	0.09994912147521973
22	64.85645818710327	fix_pre	0		74.0	20.0	2.5	/experiments/knapen_aot/videos/S_ILSVRC2015_train_00411001.mp4	0.0	124.81704640388489	0.6166348457336426
22	65.46499013900757	response	0	2		20.0	2.5	/experiments/knapen_aot/videos/S_ILSVRC2015_train_00411001.mp4	0.0	125.42557835578918	
22	65.47309303283691	movie	1		301.0	20.0	2.5	/experiments/knapen_aot/videos/S_ILSVRC2015_train_00411001.mp4	0.0	125.43368124961853	2.5083930492401123
22	67.98148608207703	fix_post	2		12.0	20.0	2.5	/experiments/knapen_aot/videos/S_ILSVRC2015_train_00411001.mp4	0.0	127.94207429885864	0.09995102882385254
23	68.08143711090088	fix_pre	0		61.0	21.0	2.5	/experiments/knapen_aot/videos/R_S_yt-ejSzwn8tY8g_49.mp4	0.0	128.0420253276825	0.5083270072937012
23	68.58158707618713	response	0	2		21.0	2.5	/experiments/knapen_aot/videos/R_S_yt-ejSzwn8tY8g_49.mp4	0.0	128.54217529296875	
23	68.58976411819458	movie	1		301.0	21.0	2.5	/experiments/knapen_aot/videos/R_S_yt-ejSzwn8tY8g_49.mp4	0.0	128.5503523349762	2.5084049701690674
23	71.09816908836365	fix_post	2		12.0	21.0	2.5	/experiments/knapen_aot/videos/R_S_yt-ejSzwn8tY8g_49.mp4	0.0	131.05875730514526	0.0999910831451416
24	71.19816017150879	fix_pre	0		71.0	22.0	2.5	/experiments/knapen_aot/videos/R_S_yt-wIZprsJwxBM_298.mp4	0.0	131.1587483882904	0.5924959182739258
24	71.77401804924011	response	0	2		22.0	2.5	/experiments/knapen_aot/videos/R_S_yt-wIZprsJwxBM_298.mp4	0.0	131.73460626602173	
24	71.79065608978271	movie	1		300.0	22.0	2.5	/experiments/knapen_aot/videos/R_S_yt-wIZprsJwxBM_298.mp4	0.0	131.75124430656433	2.5074589252471924
24	74.29811501502991	fix_post	2		12.0	22.0	2.5	/experiments/knapen_aot/videos/R_S_yt-wIZprsJwxBM_298.mp4	0.0	134.25870323181152	0.10001111030578613
25	74.3981261253357	fix_pre	0		53.0	23.0	2.5	/experiments/knapen_aot/videos/R_S_ILSVRC2015_train_00384000.mp4	0.0	134.3587143421173	0.44159507751464844
25	74.83151507377625	response	0	2		23.0	2.5	/experiments/knapen_aot/videos/R_S_ILSVRC2015_train_00384000.mp4	0.0	134.79210329055786	
25	74.83972120285034	movie	1		301.0	23.0	2.5	/experiments/knapen_aot/videos/R_S_ILSVRC2015_train_00384000.mp4	0.0	134.80030941963196	2.5084569454193115
25	77.34817814826965	fix_post	2		12.0	23.0	2.5	/experiments/knapen_aot/videos/R_S_ILSVRC2015_train_00384000.mp4	0.0	137.30876636505127	0.10004591941833496
26	77.44822406768799	fix_pre	0		82.0	24.0	2.5	/experiments/knapen_aot/videos/R_S_yt-kKRGgUhVRzc_74.mp4	0.0	137.4088122844696	0.6831769943237305
26	78.12318110466003	response	0	2		24.0	2.5	/experiments/knapen_aot/videos/R_S_yt-kKRGgUhVRzc_74.mp4	0.0	138.08376932144165	
26	78.13140106201172	movie	1		301.0	24.0	2.5	/experiments/knapen_aot/videos/R_S_yt-kKRGgUhVRzc_74.mp4	0.0	138.09198927879333	2.5083811283111572
26	80.63978219032288	fix_post	2		12.0	24.0	2.5	/experiments/knapen_aot/videos/R_S_yt-kKRGgUhVRzc_74.mp4	0.0	140.6003704071045	0.09999394416809082
27	80.73977613449097	fix_pre	0		66.0	25.0	2.5	/experiments/knapen_aot/videos/S_comp_C003_C003_PS_v01_SDR_PS_20180925_SDR_2K_AVC.mp4	0.0	140.70036435127258	0.5508370399475098
27	81.28159523010254	response	0	2		25.0	2.5	/experiments/knapen_aot/videos/S_comp_C003_C003_PS_v01_SDR_PS_20180925_SDR_2K_AVC.mp4	0.0	141.24218344688416	
27	81.29061317443848	movie	1		162.0	25.0	2.5	/experiments/knapen_aot/videos/S_comp_C003_C003_PS_v01_SDR_PS_20180925_SDR_2K_AVC.mp4	0.0	141.2512013912201	2.50746488571167
27	83.79807806015015	fix_post	2		12.0	25.0	2.5	/experiments/knapen_aot/videos/S_comp_C003_C003_PS_v01_SDR_PS_20180925_SDR_2K_AVC.mp4	0.0	143.75866627693176	0.09993910789489746
28	83.89801716804504	fix_pre	0		61.0	26.0	2.5	/experiments/knapen_aot/videos/R_S_production_ID_3944248.mp4	0.0	143.85860538482666	0.5084078311920166
28	84.39815211296082	response	0	2		26.0	2.5	/experiments/knapen_aot/videos/R_S_production_ID_3944248.mp4	0.0	144.35874032974243	
28	84.40642499923706	movie	1		203.0	26.0	2.5	/experiments/knapen_aot/videos/R_S_production_ID_3944248.mp4	0.0	144.36701321601868	2.5083110332489014
28	86.91473603248596	fix_post	2		12.0	26.0	2.5	/experiments/knapen_aot/videos/R_S_production_ID_3944248.mp4	0.0	146.87532424926758	0.09998512268066406
29	87.01472115516663	fix_pre	0		56.0	27.0	2.5	blank	1.0	146.97530937194824	0.46666884422302246
29	87.4656572341919	response	0	2		27.0	2.5	blank	1.0	147.4262454509735	
29	87.48138999938965	movie	1		301.0	27.0	2.5	blank	1.0	147.44197821617126	2.5082991123199463
29	89.9896891117096	fix_post	2		12.0	27.0	2.5	blank	1.0	149.9502773284912	0.10015201568603516
30	90.08984112739563	fix_pre	0		36.0	28.0	2.5	/experiments/knapen_aot/videos/R_S_yt-eczLsCTIyn0_553.mp4	0.0	150.05042934417725	0.2998321056365967
30	90.38148212432861	response	0	2		28.0	2.5	/experiments/knapen_aot/videos/R_S_yt-eczLsCTIyn0_553.mp4	0.0	150.34207034111023	
30	90.38967323303223	movie	1		301.0	28.0	2.5	/experiments/knapen_aot/videos/R_S_yt-eczLsCTIyn0_553.mp4	0.0	150.35026144981384	2.5083467960357666
30	92.898020029068	fix_post	2		12.0	28.0	2.5	/experiments/knapen_aot/videos/R_S_yt-eczLsCTIyn0_553.mp4	0.0	152.8586082458496	0.1000211238861084
31	92.9980411529541	fix_pre	0		70.0	29.0	2.5	/experiments/knapen_aot/videos/S_yt-bZfmqTZ-d2k_112.mp4	0.0	152.95862936973572	0.584069013595581
31	93.57317900657654	response	0	2		29.0	2.5	/experiments/knapen_aot/videos/S_yt-bZfmqTZ-d2k_112.mp4	0.0	153.53376722335815	
31	93.58211016654968	movie	1		301.0	29.0	2.5	/experiments/knapen_aot/videos/S_yt-bZfmqTZ-d2k_112.mp4	0.0	153.5426983833313	2.5075199604034424
31	96.08963012695312	fix_post	2		12.0	29.0	2.5	/experiments/knapen_aot/videos/S_yt-bZfmqTZ-d2k_112.mp4	0.0	156.05021834373474	0.10008096694946289
32	96.18971109390259	fix_pre	0		60.0	30.0	2.5	/experiments/knapen_aot/videos/S_pexels-anthony-shkraba-production-8135459.mp4	0.0	156.1502993106842	0.49996399879455566
32	96.68155813217163	response	0	2		30.0	2.5	/experiments/knapen_aot/videos/S_pexels-anthony-shkraba-production-8135459.mp4	0.0	156.64214634895325	
32	96.68967509269714	movie	1		165.0	30.0	2.5	/experiments/knapen_aot/videos/S_pexels-anthony-shkraba-production-8135459.mp4	0.0	156.65026330947876	2.508345127105713
32	99.19802021980286	fix_post	2		12.0	30.0	2.5	/experiments/knapen_aot/videos/S_pexels-anthony-shkraba-production-8135459.mp4	0.0	159.15860843658447	0.1000218391418457
33	99.2980420589447	fix_pre	0		68.0	31.0	2.5	/experiments/knapen_aot/videos/R_S_production_ID_5020953.mp4	0.0	159.25863027572632	0.5681190490722656
33	99.85648012161255	response	0	2		31.0	2.5	/experiments/knapen_aot/videos/R_S_production_ID_5020953.mp4	0.0	159.81706833839417	
33	99.86616110801697	movie	1		201.0	31.0	2.5	/experiments/knapen_aot/videos/R_S_production_ID_5020953.mp4	0.0	159.82674932479858	2.506916046142578
33	102.37307715415955	fix_post	2		12.0	31.0	2.5	/experiments/knapen_aot/videos/R_S_production_ID_5020953.mp4	0.0	162.33366537094116	0.0998690128326416
34	102.47294616699219	fix_pre	0		51.0	32.0	2.5	/experiments/knapen_aot/videos/S_yt-l_pvPAznG1A_20.mp4	0.0	162.4335343837738	0.4250009059906006
34	102.88983607292175	response	0	2		32.0	2.5	/experiments/knapen_aot/videos/S_yt-l_pvPAznG1A_20.mp4	0.0	162.85042428970337	
34	102.89794707298279	movie	1		301.0	32.0	2.5	/experiments/knapen_aot/videos/S_yt-l_pvPAznG1A_20.mp4	0.0	162.8585352897644	2.508362054824829
34	105.40630912780762	fix_post	2		12.0	32.0	2.5	/experiments/knapen_aot/videos/S_yt-l_pvPAznG1A_20.mp4	0.0	165.36689734458923	0.09997200965881348
35	105.50628113746643	fix_pre	0		68.0	33.0	2.5	/experiments/knapen_aot/videos/S_ILSVRC2015_train_00434000.mp4	0.0	165.46686935424805	0.5666730403900146
35	106.06474304199219	response	0	2		33.0	2.5	/experiments/knapen_aot/videos/S_ILSVRC2015_train_00434000.mp4	0.0	166.0253312587738	
35	106.07295417785645	movie	1		301.0	33.0	2.5	/experiments/knapen_aot/videos/S_ILSVRC2015_train_00434000.mp4	0.0	166.03354239463806	2.5083439350128174
35	108.58129811286926	fix_post	2		12.0	33.0	2.5	/experiments/knapen_aot/videos/S_ILSVRC2015_train_00434000.mp4	0.0	168.54188632965088	0.10003209114074707
36	108.68133020401001	fix_pre	0		68.0	34.0	2.5	blank	1.0	168.64191842079163	0.5673580169677734
36	109.23983311653137	response	0	2		34.0	2.5	blank	1.0	169.200421333313	
36	109.24868822097778	movie	1		301.0	34.0	2.5	blank	1.0	169.2092764377594	2.507598876953125
36	111.75628709793091	fix_post	2		12.0	34.0	2.5	blank	1.0	171.71687531471252	0.09993505477905273
37	111.85622215270996	fix_pre	0		97.0	35.0	2.5	/experiments/knapen_aot/videos/R_S_yt-BF80IX4r8x4_106.mp4	0.0	171.81681036949158	0.8090338706970215
37	112.65642309188843	response	0	2		35.0	2.5	/experiments/knapen_aot/videos/R_S_yt-BF80IX4r8x4_106.mp4	0.0	172.61701130867004	
37	112.66525602340698	movie	1		301.0	35.0	2.5	/experiments/knapen_aot/videos/R_S_yt-BF80IX4r8x4_106.mp4	0.0	172.6258442401886	2.5076451301574707
37	115.17290115356445	fix_post	2		12.0	35.0	2.5	/experiments/knapen_aot/videos/R_S_yt-BF80IX4r8x4_106.mp4	0.0	175.13348937034607	0.10007190704345703
38	115.27297306060791	fix_pre	0		78.0	36.0	2.5	/experiments/knapen_aot/videos/S_yt-nS2QqSQbjOQ_39.mp4	0.0	175.23356127738953	0.6499061584472656
38	115.91474413871765	response	0	2		36.0	2.5	/experiments/knapen_aot/videos/S_yt-nS2QqSQbjOQ_39.mp4	0.0	175.87533235549927	
38	115.92287921905518	movie	1		301.0	36.0	2.5	/experiments/knapen_aot/videos/S_yt-nS2QqSQbjOQ_39.mp4	0.0	175.8834674358368	2.50833797454834
38	118.43121719360352	fix_post	2		12.0	36.0	2.5	/experiments/knapen_aot/videos/S_yt-nS2QqSQbjOQ_39.mp4	0.0	178.39180541038513	0.09999585151672363
39	118.53121304512024	fix_pre	0		86.0	37.0	2.5	/experiments/knapen_aot/videos/R_S_production_ID_4154238.mp4	0.0	178.49180126190186	0.7173271179199219
39	119.23971605300903	response	0	2		37.0	2.5	/experiments/knapen_aot/videos/R_S_production_ID_4154238.mp4	0.0	179.20030426979065	
39	119.24854016304016	movie	1		200.0	37.0	2.5	/experiments/knapen_aot/videos/R_S_production_ID_4154238.mp4	0.0	179.20912837982178	2.5076558589935303
39	121.75619602203369	fix_post	2		12.0	37.0	2.5	/experiments/knapen_aot/videos/R_S_production_ID_4154238.mp4	0.0	181.7167842388153	0.10005712509155273
40	121.85625314712524	fix_pre	0		75.0	38.0	2.5	/experiments/knapen_aot/videos/R_S_yt-hOtj2y9VWrc_354.mp4	0.0	181.81684136390686	0.6249430179595947
40	122.47309517860413	response	0	2		38.0	2.5	/experiments/knapen_aot/videos/R_S_yt-hOtj2y9VWrc_354.mp4	0.0	182.43368339538574	
40	122.48119616508484	movie	1		300.0	38.0	2.5	/experiments/knapen_aot/videos/R_S_yt-hOtj2y9VWrc_354.mp4	0.0	182.44178438186646	2.508384943008423
40	124.98958110809326	fix_post	2		12.0	38.0	2.5	/experiments/knapen_aot/videos/R_S_yt-hOtj2y9VWrc_354.mp4	0.0	184.95016932487488	0.09996604919433594
41	125.0895471572876	fix_pre	0		74.0	39.0	2.5	/experiments/knapen_aot/videos/R_S_yt--cAfxH1WnPo_3.mp4	0.0	185.0501353740692	0.6172809600830078
41	125.69806623458862	response	0	2		39.0	2.5	/experiments/knapen_aot/videos/R_S_yt--cAfxH1WnPo_3.mp4	0.0	185.65865445137024	
41	125.7068281173706	movie	1		301.0	39.0	2.5	/experiments/knapen_aot/videos/R_S_yt--cAfxH1WnPo_3.mp4	0.0	185.66741633415222	2.507711887359619
41	128.21454000473022	fix_post	2		12.0	39.0	2.5	/experiments/knapen_aot/videos/R_S_yt--cAfxH1WnPo_3.mp4	0.0	188.17512822151184	0.09994101524353027
42	128.31448101997375	fix_pre	0		58.0	40.0	2.5	/experiments/knapen_aot/videos/R_S_comp_LW_L001_C006_PSNK_DENOISE_v02_SDR_PS_FINAL_20180709_SDR_2K_AVC.mp4	0.0	188.27506923675537	0.48343801498413086
42	128.7896490097046	response	0	2		40.0	2.5	/experiments/knapen_aot/videos/R_S_comp_LW_L001_C006_PSNK_DENOISE_v02_SDR_PS_FINAL_20180709_SDR_2K_AVC.mp4	0.0	188.7502372264862	
42	128.79791903495789	movie	1		171.0	40.0	2.5	/experiments/knapen_aot/videos/R_S_comp_LW_L001_C006_PSNK_DENOISE_v02_SDR_PS_FINAL_20180709_SDR_2K_AVC.mp4	0.0	188.7585072517395	2.5083091259002686
42	131.30622816085815	fix_post	2		12.0	40.0	2.5	/experiments/knapen_aot/videos/R_S_comp_LW_L001_C006_PSNK_DENOISE_v02_SDR_PS_FINAL_20180709_SDR_2K_AVC.mp4	0.0	191.26681637763977	0.09999799728393555
43	131.4062261581421	fix_pre	0		64.0	41.0	2.5	/experiments/knapen_aot/videos/R_S_yt-VQtbKGzI9SE_431.mp4	0.0	191.3668143749237	0.5333268642425537
43	131.93141102790833	response	0	2		41.0	2.5	/experiments/knapen_aot/videos/R_S_yt-VQtbKGzI9SE_431.mp4	0.0	191.89199924468994	
43	131.93955302238464	movie	1		301.0	41.0	2.5	/experiments/knapen_aot/videos/R_S_yt-VQtbKGzI9SE_431.mp4	0.0	191.90014123916626	2.5083742141723633
43	134.447927236557	fix_post	2		12.0	41.0	2.5	/experiments/knapen_aot/videos/R_S_yt-VQtbKGzI9SE_431.mp4	0.0	194.40851545333862	0.09997081756591797
44	134.54789805412292	fix_pre	0		84.0	42.0	2.5	blank	1.0	194.50848627090454	0.700577974319458
44	135.23968315124512	response	0	2		42.0	2.5	blank	1.0	195.20027136802673	
44	135.24847602844238	movie	1		301.0	42.0	2.5	blank	1.0	195.209064245224	2.507740020751953
44	137.75621604919434	fix_post	2		12.0	42.0	2.5	blank	1.0	197.71680426597595	0.10001397132873535
45	137.85623002052307	fix_pre	0		87.0	43.0	2.5	/experiments/knapen_aot/videos/R_S_yt-fq7m668hqZo_39.mp4	0.0	197.8168182373047	0.7254860401153564
45	138.57308220863342	response	0	2		43.0	2.5	/experiments/knapen_aot/videos/R_S_yt-fq7m668hqZo_39.mp4	0.0	198.53367042541504	
45	138.58171606063843	movie	1		301.0	43.0	2.5	/experiments/knapen_aot/videos/R_S_yt-fq7m668hqZo_39.mp4	0.0	198.54230427742004	2.507781982421875
45	141.0894980430603	fix_post	2		12.0	43.0	2.5	/experiments/knapen_aot/videos/R_S_yt-fq7m668hqZo_39.mp4	0.0	201.05008625984192	0.09996414184570312
46	141.189462184906	fix_pre	0		91.0	44.0	2.5	/experiments/knapen_aot/videos/R_S_comp_LW_L001_C006_PSNK_DENOISE_v02_SDR_PS_FINAL_20180709_SDR_2K_AVC.mp4	0.0	201.15005040168762	0.7582879066467285
46	141.93215703964233	response	0	2		44.0	2.5	/experiments/knapen_aot/videos/R_S_comp_LW_L001_C006_PSNK_DENOISE_v02_SDR_PS_FINAL_20180709_SDR_2K_AVC.mp4	0.0	201.89274525642395	
46	141.94775009155273	movie	1		165.0	44.0	2.5	/experiments/knapen_aot/videos/R_S_comp_LW_L001_C006_PSNK_DENOISE_v02_SDR_PS_FINAL_20180709_SDR_2K_AVC.mp4	0.0	201.90833830833435	2.5084071159362793
46	144.456157207489	fix_post	2		12.0	44.0	2.5	/experiments/knapen_aot/videos/R_S_comp_LW_L001_C006_PSNK_DENOISE_v02_SDR_PS_FINAL_20180709_SDR_2K_AVC.mp4	0.0	204.41674542427063	0.09999394416809082
47	144.5561511516571	fix_pre	0		61.0	45.0	2.5	/experiments/knapen_aot/videos/R_S_comp_A083_C002_1130KZ_v04_SDR_PS_FINAL_20180725_SDR_2K_AVC.mp4	0.0	204.51673936843872	0.5082619190216064
47	145.05634713172913	response	0	2		45.0	2.5	/experiments/knapen_aot/videos/R_S_comp_A083_C002_1130KZ_v04_SDR_PS_FINAL_20180725_SDR_2K_AVC.mp4	0.0	205.01693534851074	
47	145.0644130706787	movie	1		164.0	45.0	2.5	/experiments/knapen_aot/videos/R_S_comp_A083_C002_1130KZ_v04_SDR_PS_FINAL_20180725_SDR_2K_AVC.mp4	0.0	205.02500128746033	2.5083980560302734
47	147.57281112670898	fix_post	2		12.0	45.0	2.5	/experiments/knapen_aot/videos/R_S_comp_A083_C002_1130KZ_v04_SDR_PS_FINAL_20180725_SDR_2K_AVC.mp4	0.0	207.5333993434906	0.09998703002929688
48	147.67279815673828	fix_pre	0		88.0	46.0	2.5	/experiments/knapen_aot/videos/S_yt-B7ZRYVhfW2U_52.mp4	0.0	207.6333863735199	0.7333469390869141
48	148.39795923233032	response	0	2		46.0	2.5	/experiments/knapen_aot/videos/S_yt-B7ZRYVhfW2U_52.mp4	0.0	208.35854744911194	
48	148.4061450958252	movie	1		298.0	46.0	2.5	/experiments/knapen_aot/videos/S_yt-B7ZRYVhfW2U_52.mp4	0.0	208.3667333126068	2.508352041244507
48	150.9144971370697	fix_post	2		12.0	46.0	2.5	/experiments/knapen_aot/videos/S_yt-B7ZRYVhfW2U_52.mp4	0.0	210.87508535385132	0.10000300407409668
49	151.0145001411438	fix_pre	0		63.0	47.0	2.5	/experiments/knapen_aot/videos/R_S_production_ID_5020953.mp4	0.0	210.97508835792542	0.5253689289093018
49	151.53125619888306	response	0	2		47.0	2.5	/experiments/knapen_aot/videos/R_S_production_ID_5020953.mp4	0.0	211.49184441566467	
49	151.5398690700531	movie	1		208.0	47.0	2.5	/experiments/knapen_aot/videos/R_S_production_ID_5020953.mp4	0.0	211.50045728683472	2.507873058319092
49	154.0477421283722	fix_post	2		12.0	47.0	2.5	/experiments/knapen_aot/videos/R_S_production_ID_5020953.mp4	0.0	214.0083303451538	0.1000208854675293
50	154.14776301383972	fix_pre	0		103.0	48.0	2.5	/experiments/knapen_aot/videos/S_yt-VQtbKGzI9SE_431.mp4	0.0	214.10835123062134	0.858328104019165
50	154.99803709983826	response	0	2		48.0	2.5	/experiments/knapen_aot/videos/S_yt-VQtbKGzI9SE_431.mp4	0.0	214.95862531661987	
50	155.0060911178589	movie	1		301.0	48.0	2.5	/experiments/knapen_aot/videos/S_yt-VQtbKGzI9SE_431.mp4	0.0	214.9666793346405	2.50832200050354
50	157.51441311836243	fix_post	2		12.0	48.0	2.5	/experiments/knapen_aot/videos/S_yt-VQtbKGzI9SE_431.mp4	0.0	217.47500133514404	0.10006403923034668
51	157.61447715759277	fix_pre	0		91.0	49.0	2.5	blank	1.0	217.5750653743744	0.7587440013885498
51	158.36461305618286	response	0	2		49.0	2.5	blank	1.0	218.32520127296448	
51	158.37322115898132	movie	1		301.0	49.0	2.5	blank	1.0	218.33380937576294	2.50785493850708
51	160.8810760974884	fix_post	2		12.0	49.0	2.5	blank	1.0	220.84166431427002	0.10002994537353516
52	160.98110604286194	fix_pre	0		79.0	50.0	2.5	/experiments/knapen_aot/videos/S_yt-LYnwnfi1JJ4_120.mp4	0.0	220.94169425964355	0.6582601070404053
52	161.6312131881714	response	0	2		50.0	2.5	/experiments/knapen_aot/videos/S_yt-LYnwnfi1JJ4_120.mp4	0.0	221.591801404953	
52	161.63936614990234	movie	1		301.0	50.0	2.5	/experiments/knapen_aot/videos/S_yt-LYnwnfi1JJ4_120.mp4	0.0	221.59995436668396	2.5083279609680176
52	164.14769411087036	fix_post	2		12.0	50.0	2.5	/experiments/knapen_aot/videos/S_yt-LYnwnfi1JJ4_120.mp4	0.0	224.10828232765198	0.1004340648651123
53	164.24812817573547	fix_pre	0		79.0	51.0	2.5	/experiments/knapen_aot/videos/S_comp_A008_C007_011550_CC_v01_SDR_PS_FINAL_20180709_SDR_2K_AVC.mp4	0.0	224.2087163925171	0.657912015914917
53	164.89784121513367	response	0	2		51.0	2.5	/experiments/knapen_aot/videos/S_comp_A008_C007_011550_CC_v01_SDR_PS_FINAL_20180709_SDR_2K_AVC.mp4	0.0	224.85842943191528	
53	164.9060401916504	movie	1		164.0	51.0	2.5	/experiments/knapen_aot/videos/S_comp_A008_C007_011550_CC_v01_SDR_PS_FINAL_20180709_SDR_2K_AVC.mp4	0.0	224.866628408432	2.508286952972412
53	167.4143271446228	fix_post	2		12.0	51.0	2.5	/experiments/knapen_aot/videos/S_comp_A008_C007_011550_CC_v01_SDR_PS_FINAL_20180709_SDR_2K_AVC.mp4	0.0	227.37491536140442	0.10011601448059082
54	167.5144431591034	fix_pre	0		90.0	52.0	2.5	/experiments/knapen_aot/videos/R_S_yt-EFrazkRaYbs_21.mp4	0.0	227.475031375885	0.7500100135803223
54	168.25619912147522	response	0	2		52.0	2.5	/experiments/knapen_aot/videos/R_S_yt-EFrazkRaYbs_21.mp4	0.0	228.21678733825684	
54	168.26445317268372	movie	1		299.0	52.0	2.5	/experiments/knapen_aot/videos/R_S_yt-EFrazkRaYbs_21.mp4	0.0	228.22504138946533	2.508319854736328
54	170.77277302742004	fix_post	2		12.0	52.0	2.5	/experiments/knapen_aot/videos/R_S_yt-EFrazkRaYbs_21.mp4	0.0	230.73336124420166	0.1000070571899414
55	170.87278008460999	fix_pre	0		91.0	53.0	2.5	/experiments/knapen_aot/videos/R_S_yt-FE5srhxadno_73.mp4	0.0	230.8333683013916	0.758275032043457
55	171.61533117294312	response	0	2		53.0	2.5	/experiments/knapen_aot/videos/R_S_yt-FE5srhxadno_73.mp4	0.0	231.57591938972473	
55	171.63105511665344	movie	1		301.0	53.0	2.5	/experiments/knapen_aot/videos/R_S_yt-FE5srhxadno_73.mp4	0.0	231.59164333343506	2.5083041191101074
55	174.13935923576355	fix_post	2		12.0	53.0	2.5	/experiments/knapen_aot/videos/R_S_yt-FE5srhxadno_73.mp4	0.0	234.09994745254517	0.10000991821289062
56	174.23936915397644	fix_pre	0		102.0	54.0	2.5	/experiments/knapen_aot/videos/S_yt-158C6xUMi5Y_75.mp4	0.0	234.19995737075806	0.8498928546905518
56	175.0811731815338	response	0	2		54.0	2.5	/experiments/knapen_aot/videos/S_yt-158C6xUMi5Y_75.mp4	0.0	235.04176139831543	
56	175.089262008667	movie	1		301.0	54.0	2.5	/experiments/knapen_aot/videos/S_yt-158C6xUMi5Y_75.mp4	0.0	235.0498502254486	2.5084521770477295
56	177.59771418571472	fix_post	2		12.0	54.0	2.5	/experiments/knapen_aot/videos/S_yt-158C6xUMi5Y_75.mp4	0.0	237.55830240249634	0.10000801086425781
57	177.69772219657898	fix_pre	0		101.0	55.0	2.5	blank	1.0	237.6583104133606	0.8419969081878662
57	178.5311300754547	response	0	2		55.0	2.5	blank	1.0	238.49171829223633	
57	178.53971910476685	movie	1		301.0	55.0	2.5	blank	1.0	238.50030732154846	2.507896900177002
57	181.04761600494385	fix_post	2		12.0	55.0	2.5	blank	1.0	241.00820422172546	0.10007214546203613
58	181.14768815040588	fix_pre	0		83.0	56.0	2.5	/experiments/knapen_aot/videos/S_yt-n1snPiGfg0A_45.mp4	0.0	241.1082763671875	0.6916179656982422
58	181.82359313964844	response	0	2		56.0	2.5	/experiments/knapen_aot/videos/S_yt-n1snPiGfg0A_45.mp4	0.0	241.78418135643005	
58	181.83930611610413	movie	1		301.0	56.0	2.5	/experiments/knapen_aot/videos/S_yt-n1snPiGfg0A_45.mp4	0.0	241.79989433288574	2.5083730220794678
58	184.3476791381836	fix_post	2		12.0	56.0	2.5	/experiments/knapen_aot/videos/S_yt-n1snPiGfg0A_45.mp4	0.0	244.3082673549652	0.10008597373962402
59	184.44776511192322	fix_pre	0		119.0	57.0	2.5	/experiments/knapen_aot/videos/S_pexels-mart-production-7277934.mp4	0.0	244.40835332870483	0.9915668964385986
59	185.43114709854126	response	0	2		57.0	2.5	/experiments/knapen_aot/videos/S_pexels-mart-production-7277934.mp4	0.0	245.39173531532288	
59	185.43933200836182	movie	1		163.0	57.0	2.5	/experiments/knapen_aot/videos/S_pexels-mart-production-7277934.mp4	0.0	245.39992022514343	2.508369207382202
59	187.94770121574402	fix_post	2		12.0	57.0	2.5	/experiments/knapen_aot/videos/S_pexels-mart-production-7277934.mp4	0.0	247.90828943252563	0.09995579719543457
60	188.04765701293945	fix_pre	0		71.0	58.0	2.5	/experiments/knapen_aot/videos/S_yt-xrPrnzvWUkY_7.mp4	0.0	248.00824522972107	0.5916731357574463
60	188.63267707824707	response	0	2		58.0	2.5	/experiments/knapen_aot/videos/S_yt-xrPrnzvWUkY_7.mp4	0.0	248.5932652950287	
60	188.6393301486969	movie	1		301.0	58.0	2.5	/experiments/knapen_aot/videos/S_yt-xrPrnzvWUkY_7.mp4	0.0	248.59991836547852	2.5083179473876953
60	191.1476480960846	fix_post	2		12.0	58.0	2.5	/experiments/knapen_aot/videos/S_yt-xrPrnzvWUkY_7.mp4	0.0	251.1082363128662	0.10023903846740723
61	191.247887134552	fix_pre	0		86.0	59.0	2.5	/experiments/knapen_aot/videos/S_yt-tX5U0Lyo6Gs_376.mp4	0.0	251.20847535133362	0.7163980007171631
61	191.94872617721558	response	0	2		59.0	2.5	/experiments/knapen_aot/videos/S_yt-tX5U0Lyo6Gs_376.mp4	0.0	251.9093143939972	
61	191.96428513526917	movie	1		301.0	59.0	2.5	/experiments/knapen_aot/videos/S_yt-tX5U0Lyo6Gs_376.mp4	0.0	251.92487335205078	2.5083179473876953
61	194.47260308265686	fix_post	2		12.0	59.0	2.5	/experiments/knapen_aot/videos/S_yt-tX5U0Lyo6Gs_376.mp4	0.0	254.43319129943848	0.10002994537353516
62	194.5726330280304	fix_pre	0		71.0	60.0	2.5	/experiments/knapen_aot/videos/R_S_yt-xqjVM0Vj4mI_161.mp4	0.0	254.533221244812	0.591871976852417
62	195.15603017807007	response	0	2		60.0	2.5	/experiments/knapen_aot/videos/R_S_yt-xqjVM0Vj4mI_161.mp4	0.0	255.11661839485168	
62	195.1645050048828	movie	1		301.0	60.0	2.5	/experiments/knapen_aot/videos/R_S_yt-xqjVM0Vj4mI_161.mp4	0.0	255.12509322166443	2.508127212524414
62	197.67263221740723	fix_post	2		12.0	60.0	2.5	/experiments/knapen_aot/videos/R_S_yt-xqjVM0Vj4mI_161.mp4	0.0	257.63322043418884	0.09995198249816895
63	197.7725841999054	fix_pre	0		56.0	61.0	2.5	/experiments/knapen_aot/videos/S_yt-GWgG8PVM1iw_34.mp4	0.0	257.733172416687	0.46663784980773926
63	198.23108911514282	response	0	2		61.0	2.5	/experiments/knapen_aot/videos/S_yt-GWgG8PVM1iw_34.mp4	0.0	258.19167733192444	
63	198.23922204971313	movie	1		301.0	61.0	2.5	/experiments/knapen_aot/videos/S_yt-GWgG8PVM1iw_34.mp4	0.0	258.19981026649475	2.508584976196289
63	200.74780702590942	fix_post	2		12.0	61.0	2.5	/experiments/knapen_aot/videos/S_yt-GWgG8PVM1iw_34.mp4	0.0	260.70839524269104	0.09977412223815918
64	200.84758114814758	fix_pre	0		74.0	62.0	2.5	blank	1.0	260.8081693649292	0.6166460514068604
64	201.4560730457306	response	0	2		62.0	2.5	blank	1.0	261.4166612625122	
64	201.46422719955444	movie	1		301.0	62.0	2.5	blank	1.0	261.42481541633606	2.508368968963623
64	203.97259616851807	fix_post	2		12.0	62.0	2.5	blank	1.0	263.9331843852997	0.09998798370361328
65	204.07258415222168	fix_pre	0		66.0	63.0	2.5	/experiments/knapen_aot/videos/S_pexels-mart-production-7277934.mp4	0.0	264.0331723690033	0.5501840114593506
65	204.61441016197205	response	0	2		63.0	2.5	/experiments/knapen_aot/videos/S_pexels-mart-production-7277934.mp4	0.0	264.57499837875366	
65	204.62276816368103	movie	1		165.0	63.0	2.5	/experiments/knapen_aot/videos/S_pexels-mart-production-7277934.mp4	0.0	264.58335638046265	2.508152961730957
65	207.130921125412	fix_post	2		12.0	63.0	2.5	/experiments/knapen_aot/videos/S_pexels-mart-production-7277934.mp4	0.0	267.0915093421936	0.1000518798828125
66	207.2309730052948	fix_pre	0		92.0	64.0	2.5	/experiments/knapen_aot/videos/R_S_59eT4XDXNno_25.mp4	0.0	267.1915612220764	0.7667250633239746
66	207.98938417434692	response	0	2		64.0	2.5	/experiments/knapen_aot/videos/R_S_59eT4XDXNno_25.mp4	0.0	267.94997239112854	
66	207.99769806861877	movie	1		301.0	64.0	2.5	/experiments/knapen_aot/videos/R_S_59eT4XDXNno_25.mp4	0.0	267.9582862854004	2.5081989765167236
66	210.5058970451355	fix_post	2		12.0	64.0	2.5	/experiments/knapen_aot/videos/R_S_59eT4XDXNno_25.mp4	0.0	270.4664852619171	0.09992003440856934
67	210.60581707954407	fix_pre	0		52.0	65.0	2.5	/experiments/knapen_aot/videos/S_yt-sxZ_ONShI7U_75.mp4	0.0	270.5664052963257	0.4335179328918457
67	211.02359318733215	response	0	2		65.0	2.5	/experiments/knapen_aot/videos/S_yt-sxZ_ONShI7U_75.mp4	0.0	270.98418140411377	
67	211.0393350124359	movie	1		300.0	65.0	2.5	/experiments/knapen_aot/videos/S_yt-sxZ_ONShI7U_75.mp4	0.0	270.99992322921753	2.5082151889801025
67	213.54755020141602	fix_post	2		12.0	65.0	2.5	/experiments/knapen_aot/videos/S_yt-sxZ_ONShI7U_75.mp4	0.0	273.50813841819763	0.09995698928833008
68	213.64750719070435	fix_pre	0		73.0	66.0	2.5	/experiments/knapen_aot/videos/R_S_yt-LYnwnfi1JJ4_120.mp4	0.0	273.60809540748596	0.608273983001709
68	214.2477011680603	response	0	2		66.0	2.5	/experiments/knapen_aot/videos/R_S_yt-LYnwnfi1JJ4_120.mp4	0.0	274.2082893848419	
68	214.25578117370605	movie	1		301.0	66.0	2.5	/experiments/knapen_aot/videos/R_S_yt-LYnwnfi1JJ4_120.mp4	0.0	274.21636939048767	2.50833797454834
68	216.7641191482544	fix_post	2		12.0	66.0	2.5	/experiments/knapen_aot/videos/R_S_yt-LYnwnfi1JJ4_120.mp4	0.0	276.724707365036	0.10002708435058594
69	216.86414623260498	fix_pre	0		77.0	67.0	2.5	/experiments/knapen_aot/videos/R_S_yt-9qXwehMoX7o_50.mp4	0.0	276.8247344493866	0.6416687965393066
69	217.4976851940155	response	0	2		67.0	2.5	/experiments/knapen_aot/videos/R_S_yt-9qXwehMoX7o_50.mp4	0.0	277.4582734107971	
69	217.5058150291443	movie	1		301.0	67.0	2.5	/experiments/knapen_aot/videos/R_S_yt-9qXwehMoX7o_50.mp4	0.0	277.4664032459259	2.5083110332489014
69	220.0141260623932	fix_post	2		12.0	67.0	2.5	/experiments/knapen_aot/videos/R_S_yt-9qXwehMoX7o_50.mp4	0.0	279.9747142791748	0.09997010231018066
70	220.11409616470337	fix_pre	0		76.0	68.0	2.5	/experiments/knapen_aot/videos/S_yt-5doJmCcFL7s_3.mp4	0.0	280.074684381485	0.6335139274597168
70	220.73923921585083	response	0	2		68.0	2.5	/experiments/knapen_aot/videos/S_yt-5doJmCcFL7s_3.mp4	0.0	280.69982743263245	
70	220.7476100921631	movie	1		301.0	68.0	2.5	/experiments/knapen_aot/videos/S_yt-5doJmCcFL7s_3.mp4	0.0	280.7081983089447	2.5082380771636963
70	223.25584816932678	fix_post	2		12.0	68.0	2.5	/experiments/knapen_aot/videos/S_yt-5doJmCcFL7s_3.mp4	0.0	283.2164363861084	0.10000491142272949
71	223.3558530807495	fix_pre	0		72.0	69.0	2.5	/experiments/knapen_aot/videos/S_yt-kuzdrmHa-W0_39.mp4	0.0	283.3164412975311	0.6000490188598633
71	223.94766902923584	response	0	2		69.0	2.5	/experiments/knapen_aot/videos/S_yt-kuzdrmHa-W0_39.mp4	0.0	283.90825724601746	
71	223.95590209960938	movie	1		301.0	69.0	2.5	/experiments/knapen_aot/videos/S_yt-kuzdrmHa-W0_39.mp4	0.0	283.916490316391	2.5082039833068848
71	226.46410608291626	fix_post	2		12.0	69.0	2.5	/experiments/knapen_aot/videos/S_yt-kuzdrmHa-W0_39.mp4	0.0	286.4246942996979	0.100006103515625
72	226.56411218643188	fix_pre	0		97.0	70.0	2.5	blank	1.0	286.5247004032135	0.8083949089050293
72	227.36428308486938	response	0	2		70.0	2.5	blank	1.0	287.324871301651	
72	227.3725070953369	movie	1		301.0	70.0	2.5	blank	1.0	287.33309531211853	2.508289098739624
72	229.88079619407654	fix_post	2		12.0	70.0	2.5	blank	1.0	289.84138441085815	0.10001301765441895
73	229.98080921173096	fix_pre	0		106.0	71.0	2.5	/experiments/knapen_aot/videos/R_S_video-6.mp4	0.0	289.9413974285126	0.8847320079803467
73	230.85587310791016	response	0	2		71.0	2.5	/experiments/knapen_aot/videos/R_S_video-6.mp4	0.0	290.8164613246918	
73	230.8655412197113	movie	1		171.0	71.0	2.5	/experiments/knapen_aot/videos/R_S_video-6.mp4	0.0	290.8261294364929	2.5069568157196045
73	233.3724980354309	fix_post	2		12.0	71.0	2.5	/experiments/knapen_aot/videos/R_S_video-6.mp4	0.0	293.3330862522125	0.09991312026977539
74	233.47241115570068	fix_pre	0		61.0	72.0	2.5	/experiments/knapen_aot/videos/R_S_pexels-anthony-shkraba-production-8135459.mp4	0.0	293.4329993724823	0.5083460807800293
74	233.9725341796875	response	0	2		72.0	2.5	/experiments/knapen_aot/videos/R_S_pexels-anthony-shkraba-production-8135459.mp4	0.0	293.9331223964691	
74	233.9807572364807	movie	1		166.0	72.0	2.5	/experiments/knapen_aot/videos/R_S_pexels-anthony-shkraba-production-8135459.mp4	0.0	293.94134545326233	2.508356809616089
74	236.4891140460968	fix_post	2		12.0	72.0	2.5	/experiments/knapen_aot/videos/R_S_pexels-anthony-shkraba-production-8135459.mp4	0.0	296.4497022628784	0.09997701644897461
75	236.58909106254578	fix_pre	0		51.0	73.0	2.5	/experiments/knapen_aot/videos/S_I004_C014_SDR_2K_AVC.mp4	0.0	296.5496792793274	0.4250030517578125
75	237.005930185318	response	0	2		73.0	2.5	/experiments/knapen_aot/videos/S_I004_C014_SDR_2K_AVC.mp4	0.0	296.9665184020996	
75	237.0140941143036	movie	1		172.0	73.0	2.5	/experiments/knapen_aot/videos/S_I004_C014_SDR_2K_AVC.mp4	0.0	296.9746823310852	2.5082850456237793
75	239.52237915992737	fix_post	2		12.0	73.0	2.5	/experiments/knapen_aot/videos/S_I004_C014_SDR_2K_AVC.mp4	0.0	299.482967376709	0.10003900527954102
76	239.6224181652069	fix_pre	0		68.0	74.0	2.5	/experiments/knapen_aot/videos/R_S_comp_CH_C007_C011_PSNK_v02_SDR_PS_FINAL_20180709_SDR_2K_AVC.mp4	0.0	299.5830063819885	0.566709041595459
76	240.1733841896057	response	0	2		74.0	2.5	/experiments/knapen_aot/videos/R_S_comp_CH_C007_C011_PSNK_v02_SDR_PS_FINAL_20180709_SDR_2K_AVC.mp4	0.0	300.13397240638733	
76	240.18912720680237	movie	1		171.0	74.0	2.5	/experiments/knapen_aot/videos/R_S_comp_CH_C007_C011_PSNK_v02_SDR_PS_FINAL_20180709_SDR_2K_AVC.mp4	0.0	300.149715423584	2.508328914642334
76	242.6974561214447	fix_post	2		12.0	74.0	2.5	/experiments/knapen_aot/videos/R_S_comp_CH_C007_C011_PSNK_v02_SDR_PS_FINAL_20180709_SDR_2K_AVC.mp4	0.0	302.6580443382263	0.09993600845336914
77	242.79739212989807	fix_pre	0		58.0	75.0	2.5	/experiments/knapen_aot/videos/R_S_yt-etQaTgGOhR4_69.mp4	0.0	302.7579803466797	0.48470187187194824
77	243.27246809005737	response	0	2		75.0	2.5	/experiments/knapen_aot/videos/R_S_yt-etQaTgGOhR4_69.mp4	0.0	303.233056306839	
77	243.28209400177002	movie	1		301.0	75.0	2.5	/experiments/knapen_aot/videos/R_S_yt-etQaTgGOhR4_69.mp4	0.0	303.24268221855164	2.5070102214813232
77	245.78910422325134	fix_post	2		12.0	75.0	2.5	/experiments/knapen_aot/videos/R_S_yt-etQaTgGOhR4_69.mp4	0.0	305.74969244003296	0.09995794296264648
78	245.889062166214	fix_pre	0		74.0	76.0	2.5	blank	1.0	305.8496503829956	0.6166548728942871
78	246.49751710891724	response	0	2		76.0	2.5	blank	1.0	306.45810532569885	
78	246.50571703910828	movie	1		301.0	76.0	2.5	blank	1.0	306.4663052558899	2.5083391666412354
78	249.0140562057495	fix_post	2		12.0	76.0	2.5	blank	1.0	308.9746444225311	0.09999990463256836
79	249.11405611038208	fix_pre	0		71.0	77.0	2.5	/experiments/knapen_aot/videos/R_S_yt-wjBwgccZM5k_150.mp4	0.0	309.0746443271637	0.59163498878479
79	249.69753217697144	response	0	2		77.0	2.5	/experiments/knapen_aot/videos/R_S_yt-wjBwgccZM5k_150.mp4	0.0	309.65812039375305	
79	249.70569109916687	movie	1		301.0	77.0	2.5	/experiments/knapen_aot/videos/R_S_yt-wjBwgccZM5k_150.mp4	0.0	309.6662793159485	2.5083699226379395
79	252.2140610218048	fix_post	2		12.0	77.0	2.5	/experiments/knapen_aot/videos/R_S_yt-wjBwgccZM5k_150.mp4	0.0	312.1746492385864	0.09993815422058105
80	252.3139991760254	fix_pre	0		66.0	78.0	2.5	/experiments/knapen_aot/videos/S_yt-wEbfIR14zZ8_7.mp4	0.0	312.274587392807	0.5500059127807617
80	252.85583114624023	response	0	2		78.0	2.5	/experiments/knapen_aot/videos/S_yt-wEbfIR14zZ8_7.mp4	0.0	312.81641936302185	
80	252.86400508880615	movie	1		301.0	78.0	2.5	/experiments/knapen_aot/videos/S_yt-wEbfIR14zZ8_7.mp4	0.0	312.82459330558777	2.508333921432495
80	255.37233901023865	fix_post	2		12.0	78.0	2.5	/experiments/knapen_aot/videos/S_yt-wEbfIR14zZ8_7.mp4	0.0	315.33292722702026	0.09992218017578125
81	255.47226119041443	fix_pre	0		67.0	79.0	2.5	/experiments/knapen_aot/videos/R_S_yt-LsCCAQ8BRO8_7.mp4	0.0	315.43284940719604	0.55843186378479
81	256.0224401950836	response	0	2		79.0	2.5	/experiments/knapen_aot/videos/R_S_yt-LsCCAQ8BRO8_7.mp4	0.0	315.98302841186523	
81	256.0306930541992	movie	1		301.0	79.0	2.5	/experiments/knapen_aot/videos/R_S_yt-LsCCAQ8BRO8_7.mp4	0.0	315.99128127098083	2.5083940029144287
81	258.53908705711365	fix_post	2		12.0	79.0	2.5	/experiments/knapen_aot/videos/R_S_yt-LsCCAQ8BRO8_7.mp4	0.0	318.49967527389526	0.0999910831451416
82	258.6390781402588	fix_pre	0		97.0	80.0	2.5	/experiments/knapen_aot/videos/R_S_pexels-mart-production-7277934.mp4	0.0	318.5996663570404	0.8095650672912598
82	259.43918013572693	response	0	2		80.0	2.5	/experiments/knapen_aot/videos/R_S_pexels-mart-production-7277934.mp4	0.0	319.39976835250854	
82	259.44864320755005	movie	1		164.0	80.0	2.5	/experiments/knapen_aot/videos/R_S_pexels-mart-production-7277934.mp4	0.0	319.40923142433167	2.507053852081299
82	261.95569705963135	fix_post	2		12.0	80.0	2.5	/experiments/knapen_aot/videos/R_S_pexels-mart-production-7277934.mp4	0.0	321.91628527641296	0.09992313385009766
83	262.05562019348145	fix_pre	0		66.0	81.0	2.5	/experiments/knapen_aot/videos/S_yt-gikcYT6ZLzA_7.mp4	0.0	322.01620841026306	0.5499918460845947
83	262.59745717048645	response	0	2		81.0	2.5	/experiments/knapen_aot/videos/S_yt-gikcYT6ZLzA_7.mp4	0.0	322.55804538726807	
83	262.60561203956604	movie	1		301.0	81.0	2.5	/experiments/knapen_aot/videos/S_yt-gikcYT6ZLzA_7.mp4	0.0	322.56620025634766	2.508301019668579
83	265.1139130592346	fix_post	2		12.0	81.0	2.5	/experiments/knapen_aot/videos/S_yt-gikcYT6ZLzA_7.mp4	0.0	325.07450127601624	0.10008502006530762
84	265.2139980792999	fix_pre	0		61.0	82.0	2.5	/experiments/knapen_aot/videos/R_S_flickr-53807584@N00-5566422012_16.mp4	0.0	325.17458629608154	0.5082731246948242
84	265.71425914764404	response	0	2		82.0	2.5	/experiments/knapen_aot/videos/R_S_flickr-53807584@N00-5566422012_16.mp4	0.0	325.67484736442566	
84	265.72227120399475	movie	1		301.0	82.0	2.5	/experiments/knapen_aot/videos/R_S_flickr-53807584@N00-5566422012_16.mp4	0.0	325.68285942077637	2.5082709789276123
84	268.23054218292236	fix_post	2		12.0	82.0	2.5	/experiments/knapen_aot/videos/R_S_flickr-53807584@N00-5566422012_16.mp4	0.0	328.191130399704	0.10011100769042969
85	268.3306531906128	fix_pre	0		100.0	83.0	2.5	blank	1.0	328.2912414073944	0.8332870006561279
85	269.15578413009644	response	0	2		83.0	2.5	blank	1.0	329.11637234687805	
85	269.1639401912689	movie	1		301.0	83.0	2.5	blank	1.0	329.12452840805054	2.508328914642334
85	271.67226910591125	fix_post	2		12.0	83.0	2.5	blank	1.0	331.63285732269287	0.1000669002532959
87	271.77233600616455	stim	0		352.0					331.73292422294617	2.9332661628723145
87	274.70169615745544	response	0	space						334.66228437423706	
