trial_nr	onset	event_type	phase	response	nr_frames	movie_index	movie_duration	movie_file	blank	onset_abs	duration
0	0.1246800422668457	stim	0		57.0					63.743613958358765	0.47428297996520996
0	0.5911421775817871	response	0	space						64.2100760936737	
1	0.5989630222320557	stim	0		121.0					64.21789693832397	1.0081219673156738
1	1.6070849895477295	stim	1		120.0					65.22601890563965	0.99993896484375
2	2.6070239543914795	fix_pre	0		639.0	0.0	2.5	/experiments/knapen_aot/videos/R_S_b3TCugtX0h0_108.mp4	0.0	66.2259578704834	5.324918031692505
2	7.927014112472534	response	0	2		0.0	2.5	/experiments/knapen_aot/videos/R_S_b3TCugtX0h0_108.mp4	0.0	71.54594802856445	
2	7.931941986083984	movie	1		296.0	0.0	2.5	/experiments/knapen_aot/videos/R_S_b3TCugtX0h0_108.mp4	0.0	71.5508759021759	2.508371114730835
2	10.44031310081482	fix_post	2		12.0	0.0	2.5	/experiments/knapen_aot/videos/R_S_b3TCugtX0h0_108.mp4	0.0	74.05924701690674	0.09993886947631836
3	10.540251970291138	fix_pre	0		1.0	1.0	2.5	/experiments/knapen_aot/videos/R_S_pexels-mikhail-nilov-8410084.mp4	0.0	74.15918588638306	0.008402109146118164
3	10.54182505607605	response	0	2		1.0	2.5	/experiments/knapen_aot/videos/R_S_pexels-mikhail-nilov-8410084.mp4	0.0	74.16075897216797	
3	10.548654079437256	movie	1		166.0	1.0	2.5	/experiments/knapen_aot/videos/R_S_pexels-mikhail-nilov-8410084.mp4	0.0	74.16758799552917	2.508272886276245
3	13.056926965713501	fix_post	2		12.0	1.0	2.5	/experiments/knapen_aot/videos/R_S_pexels-mikhail-nilov-8410084.mp4	0.0	76.67586088180542	0.10004806518554688
3	13.132092952728271	response	2	2		1.0	2.5	/experiments/knapen_aot/videos/R_S_pexels-mikhail-nilov-8410084.mp4	0.0	76.75102686882019	
4	13.156975030899048	fix_pre	0		37.0	2.0	2.5	/experiments/knapen_aot/videos/R_S_yt-qE70lj3-A78_228.mp4	0.0	76.77590894699097	0.308333158493042
4	13.456969022750854	response	0	2		2.0	2.5	/experiments/knapen_aot/videos/R_S_yt-qE70lj3-A78_228.mp4	0.0	77.07590293884277	
4	13.46530818939209	movie	1		301.0	2.0	2.5	/experiments/knapen_aot/videos/R_S_yt-qE70lj3-A78_228.mp4	0.0	77.08424210548401	2.5082948207855225
4	15.973603010177612	fix_post	2		12.0	2.0	2.5	/experiments/knapen_aot/videos/R_S_yt-qE70lj3-A78_228.mp4	0.0	79.59253692626953	0.09997296333312988
5	16.073575973510742	fix_pre	0		2.0	3.0	2.5	/experiments/knapen_aot/videos/S_yt-2pRKCSgdXXU_30.mp4	0.0	79.69250988960266	0.016681194305419922
5	16.08283305168152	response	0	2		3.0	2.5	/experiments/knapen_aot/videos/S_yt-2pRKCSgdXXU_30.mp4	0.0	79.70176696777344	
5	16.090257167816162	movie	1		301.0	3.0	2.5	/experiments/knapen_aot/videos/S_yt-2pRKCSgdXXU_30.mp4	0.0	79.70919108390808	2.5083258152008057
5	18.598582983016968	fix_post	2		12.0	3.0	2.5	/experiments/knapen_aot/videos/S_yt-2pRKCSgdXXU_30.mp4	0.0	82.21751689910889	0.10002517700195312
6	18.69860816001892	fix_pre	0		5.0	4.0	2.5	/experiments/knapen_aot/videos/R_S_video_inspire_california_big-sur_bixby_005.1080-h264.mp4	0.0	82.31754207611084	0.04168391227722168
6	18.73197102546692	response	0	2		4.0	2.5	/experiments/knapen_aot/videos/R_S_video_inspire_california_big-sur_bixby_005.1080-h264.mp4	0.0	82.35090494155884	
6	18.740292072296143	movie	1		173.0	4.0	2.5	/experiments/knapen_aot/videos/R_S_video_inspire_california_big-sur_bixby_005.1080-h264.mp4	0.0	82.35922598838806	2.5089640617370605
6	21.2403621673584	response	1	2		4.0	2.5	/experiments/knapen_aot/videos/R_S_video_inspire_california_big-sur_bixby_005.1080-h264.mp4	0.0	84.85929608345032	
6	21.249256134033203	fix_post	2		12.0	4.0	2.5	/experiments/knapen_aot/videos/R_S_video_inspire_california_big-sur_bixby_005.1080-h264.mp4	0.0	84.86819005012512	0.09932589530944824
7	21.34858202934265	fix_pre	0		21.0	5.0	2.5	blank	1.0	84.96751594543457	0.1750171184539795
7	21.515345096588135	response	0	2		5.0	2.5	blank	1.0	85.13427901268005	
7	21.52359914779663	movie	1		301.0	5.0	2.5	blank	1.0	85.14253306388855	2.50832200050354
7	24.03192114830017	fix_post	2		12.0	5.0	2.5	blank	1.0	87.65085506439209	0.09998083114624023
8	24.13190197944641	fix_pre	0		6.0	6.0	2.5	/experiments/knapen_aot/videos/R_S_bing-www_nbcnews_com_storyline_isis-terror_fall-isis-stronghold-raqqa-will-change-war-extremists-not-end-n808621_86.mp4	0.0	87.75083589553833	0.05001020431518555
8	24.173683166503906	response	0	2		6.0	2.5	/experiments/knapen_aot/videos/R_S_bing-www_nbcnews_com_storyline_isis-terror_fall-isis-stronghold-raqqa-will-change-war-extremists-not-end-n808621_86.mp4	0.0	87.79261708259583	
8	24.181912183761597	movie	1		165.0	6.0	2.5	/experiments/knapen_aot/videos/R_S_bing-www_nbcnews_com_storyline_isis-terror_fall-isis-stronghold-raqqa-will-change-war-extremists-not-end-n808621_86.mp4	0.0	87.80084609985352	2.508302927017212
8	26.69021511077881	fix_post	2		12.0	6.0	2.5	/experiments/knapen_aot/videos/R_S_bing-www_nbcnews_com_storyline_isis-terror_fall-isis-stronghold-raqqa-will-change-war-extremists-not-end-n808621_86.mp4	0.0	90.30914902687073	0.1006309986114502
8	26.782034158706665	response	2	2		6.0	2.5	/experiments/knapen_aot/videos/R_S_bing-www_nbcnews_com_storyline_isis-terror_fall-isis-stronghold-raqqa-will-change-war-extremists-not-end-n808621_86.mp4	0.0	90.40096807479858	
9	26.79084610939026	fix_pre	0		38.0	7.0	2.5	/experiments/knapen_aot/videos/S_yt-TvU-aYjNa2c_21.mp4	0.0	90.40978002548218	0.3160579204559326
9	27.098708152770996	response	0	2		7.0	2.5	/experiments/knapen_aot/videos/S_yt-TvU-aYjNa2c_21.mp4	0.0	90.71764206886292	
9	27.10690402984619	movie	1		301.0	7.0	2.5	/experiments/knapen_aot/videos/S_yt-TvU-aYjNa2c_21.mp4	0.0	90.72583794593811	2.5082850456237793
9	29.61518907546997	fix_post	2		12.0	7.0	2.5	/experiments/knapen_aot/videos/S_yt-TvU-aYjNa2c_21.mp4	0.0	93.23412299156189	0.10003495216369629
10	29.715224027633667	fix_pre	0		13.0	8.0	2.5	/experiments/knapen_aot/videos/S_ILSVRC2015_train_00364000.mp4	0.0	93.33415794372559	0.10828709602355957
10	29.81528115272522	response	0	2		8.0	2.5	/experiments/knapen_aot/videos/S_ILSVRC2015_train_00364000.mp4	0.0	93.43421506881714	
10	29.823511123657227	movie	1		301.0	8.0	2.5	/experiments/knapen_aot/videos/S_ILSVRC2015_train_00364000.mp4	0.0	93.44244503974915	2.5083179473876953
10	32.33182907104492	fix_post	2		12.0	8.0	2.5	/experiments/knapen_aot/videos/S_ILSVRC2015_train_00364000.mp4	0.0	95.95076298713684	0.09999299049377441
11	32.431822061538696	fix_pre	0		9.0	9.0	2.5	/experiments/knapen_aot/videos/R_S_yt-zSSnQYeO_DE_338.mp4	0.0	96.05075597763062	0.0751650333404541
11	32.4996440410614	response	0	2		9.0	2.5	/experiments/knapen_aot/videos/R_S_yt-zSSnQYeO_DE_338.mp4	0.0	96.11857795715332	
11	32.50698709487915	movie	1		301.0	9.0	2.5	/experiments/knapen_aot/videos/R_S_yt-zSSnQYeO_DE_338.mp4	0.0	96.12592101097107	2.508183002471924
11	35.015170097351074	fix_post	2		12.0	9.0	2.5	/experiments/knapen_aot/videos/R_S_yt-zSSnQYeO_DE_338.mp4	0.0	98.634104013443	0.0999288558959961
12	35.11509895324707	fix_pre	0		15.0	10.0	2.5	/experiments/knapen_aot/videos/R_S_-vPHq-7BJ70_15.mp4	0.0	98.73403286933899	0.12500309944152832
12	35.23196601867676	response	0	2		10.0	2.5	/experiments/knapen_aot/videos/R_S_-vPHq-7BJ70_15.mp4	0.0	98.85089993476868	
12	35.2401020526886	movie	1		301.0	10.0	2.5	/experiments/knapen_aot/videos/R_S_-vPHq-7BJ70_15.mp4	0.0	98.85903596878052	2.5084989070892334
12	37.74860095977783	fix_post	2		12.0	10.0	2.5	/experiments/knapen_aot/videos/R_S_-vPHq-7BJ70_15.mp4	0.0	101.36753487586975	0.09997320175170898
13	37.84857416152954	fix_pre	0		8.0	11.0	2.5	/experiments/knapen_aot/videos/R_S_pexels-anthony-shkraba-7569650.mp4	0.0	101.46750807762146	0.0671238899230957
13	37.9070520401001	response	0	2		11.0	2.5	/experiments/knapen_aot/videos/R_S_pexels-anthony-shkraba-7569650.mp4	0.0	101.52598595619202	
13	37.91569805145264	movie	1		177.0	11.0	2.5	/experiments/knapen_aot/videos/R_S_pexels-anthony-shkraba-7569650.mp4	0.0	101.53463196754456	2.50779390335083
13	40.42349195480347	fix_post	2		12.0	11.0	2.5	/experiments/knapen_aot/videos/R_S_pexels-anthony-shkraba-7569650.mp4	0.0	104.04242587089539	0.09997701644897461
14	40.52346897125244	fix_pre	0		5.0	12.0	2.5	/experiments/knapen_aot/videos/S_yt-M_ApPnq00iE_67.mp4	0.0	104.14240288734436	0.041723012924194336
14	40.54955506324768	response	0	2		12.0	2.5	/experiments/knapen_aot/videos/S_yt-M_ApPnq00iE_67.mp4	0.0	104.1684889793396	
14	40.565191984176636	movie	1		300.0	12.0	2.5	/experiments/knapen_aot/videos/S_yt-M_ApPnq00iE_67.mp4	0.0	104.18412590026855	2.5083041191101074
14	43.07349610328674	fix_post	2		12.0	12.0	2.5	/experiments/knapen_aot/videos/S_yt-M_ApPnq00iE_67.mp4	0.0	106.69243001937866	0.09990596771240234
15	43.173402070999146	fix_pre	0		13.0	13.0	2.5	/experiments/knapen_aot/videos/R_S_bing-www_nytimes_com_video_dining_1247468118505_grilled-chicken-breasts-with-herb-butter_html_132.mp4	0.0	106.79233598709106	0.10837888717651367
15	43.27354097366333	response	0	2		13.0	2.5	/experiments/knapen_aot/videos/R_S_bing-www_nytimes_com_video_dining_1247468118505_grilled-chicken-breasts-with-herb-butter_html_132.mp4	0.0	106.89247488975525	
15	43.28178095817566	movie	1		168.0	13.0	2.5	/experiments/knapen_aot/videos/R_S_bing-www_nytimes_com_video_dining_1247468118505_grilled-chicken-breasts-with-herb-butter_html_132.mp4	0.0	106.90071487426758	2.5083701610565186
15	45.79015111923218	fix_post	2		12.0	13.0	2.5	/experiments/knapen_aot/videos/R_S_bing-www_nytimes_com_video_dining_1247468118505_grilled-chicken-breasts-with-herb-butter_html_132.mp4	0.0	109.4090850353241	0.09992384910583496
15	45.86541509628296	response	2	2		13.0	2.5	/experiments/knapen_aot/videos/R_S_bing-www_nytimes_com_video_dining_1247468118505_grilled-chicken-breasts-with-herb-butter_html_132.mp4	0.0	109.48434901237488	
16	45.89007496833801	fix_pre	0		41.0	14.0	2.5	blank	1.0	109.50900888442993	0.3417332172393799
16	46.223528146743774	response	0	2		14.0	2.5	blank	1.0	109.8424620628357	
16	46.23180818557739	movie	1		301.0	14.0	2.5	blank	1.0	109.85074210166931	2.5083417892456055
16	48.740149974823	fix_post	2		12.0	14.0	2.5	blank	1.0	112.35908389091492	0.09995412826538086
17	48.84010410308838	fix_pre	0		17.0	15.0	2.5	/experiments/knapen_aot/videos/S_yt-Dwgpjoikt84_122.mp4	0.0	112.4590380191803	0.1416618824005127
17	48.97354817390442	response	0	2		15.0	2.5	/experiments/knapen_aot/videos/S_yt-Dwgpjoikt84_122.mp4	0.0	112.59248208999634	
17	48.98176598548889	movie	1		301.0	15.0	2.5	/experiments/knapen_aot/videos/S_yt-Dwgpjoikt84_122.mp4	0.0	112.60069990158081	2.508294105529785
17	51.49006009101868	fix_post	2		12.0	15.0	2.5	/experiments/knapen_aot/videos/S_yt-Dwgpjoikt84_122.mp4	0.0	115.1089940071106	0.10006999969482422
18	51.5901300907135	fix_pre	0		1.0	16.0	2.5	/experiments/knapen_aot/videos/R_S_yt-IyxCMODHSSE_29.mp4	0.0	115.20906400680542	0.008333921432495117
18	51.583428144454956	response	0	2		16.0	2.5	/experiments/knapen_aot/videos/R_S_yt-IyxCMODHSSE_29.mp4	0.0	115.20236206054688	
18	51.598464012145996	movie	1		301.0	16.0	2.5	/experiments/knapen_aot/videos/R_S_yt-IyxCMODHSSE_29.mp4	0.0	115.21739792823792	2.508303165435791
18	54.10676717758179	fix_post	2		12.0	16.0	2.5	/experiments/knapen_aot/videos/R_S_yt-IyxCMODHSSE_29.mp4	0.0	117.7257010936737	0.10045886039733887
19	54.207226037979126	fix_pre	0		8.0	17.0	2.5	/experiments/knapen_aot/videos/R_S_-vPHq-7BJ70_15.mp4	0.0	117.82615995407104	0.06621599197387695
19	54.265244007110596	response	0	2		17.0	2.5	/experiments/knapen_aot/videos/R_S_-vPHq-7BJ70_15.mp4	0.0	117.88417792320251	
19	54.273442029953	movie	1		301.0	17.0	2.5	/experiments/knapen_aot/videos/R_S_-vPHq-7BJ70_15.mp4	0.0	117.89237594604492	2.5083401203155518
19	56.781782150268555	fix_post	2		12.0	17.0	2.5	/experiments/knapen_aot/videos/R_S_-vPHq-7BJ70_15.mp4	0.0	120.40071606636047	0.09996986389160156
20	56.881752014160156	fix_pre	0		16.0	18.0	2.5	/experiments/knapen_aot/videos/R_S_yt-uY5xsUKn8zU_17.mp4	0.0	120.50068593025208	0.13334012031555176
20	57.006803035736084	response	0	2		18.0	2.5	/experiments/knapen_aot/videos/R_S_yt-uY5xsUKn8zU_17.mp4	0.0	120.625736951828	
20	57.01509213447571	movie	1		300.0	18.0	2.5	/experiments/knapen_aot/videos/R_S_yt-uY5xsUKn8zU_17.mp4	0.0	120.63402605056763	2.508359909057617
20	59.523452043533325	fix_post	2		12.0	18.0	2.5	/experiments/knapen_aot/videos/R_S_yt-uY5xsUKn8zU_17.mp4	0.0	123.14238595962524	0.10038900375366211
21	59.62384104728699	fix_pre	0		17.0	19.0	2.5	/experiments/knapen_aot/videos/S_yt-xvIZtEVkebk_462.mp4	0.0	123.2427749633789	0.14131999015808105
21	59.7568039894104	response	0	2		19.0	2.5	/experiments/knapen_aot/videos/S_yt-xvIZtEVkebk_462.mp4	0.0	123.37573790550232	
21	59.76516103744507	movie	1		301.0	19.0	2.5	/experiments/knapen_aot/videos/S_yt-xvIZtEVkebk_462.mp4	0.0	123.38409495353699	2.5083110332489014
21	62.27347207069397	fix_post	2		12.0	19.0	2.5	/experiments/knapen_aot/videos/S_yt-xvIZtEVkebk_462.mp4	0.0	125.89240598678589	0.10033798217773438
22	62.373810052871704	fix_pre	0		19.0	20.0	2.5	/experiments/knapen_aot/videos/S_yt-mDil5vGZb14_4049.mp4	0.0	125.99274396896362	0.1579129695892334
22	62.523643016815186	response	0	2		20.0	2.5	/experiments/knapen_aot/videos/S_yt-mDil5vGZb14_4049.mp4	0.0	126.1425769329071	
22	62.53172302246094	movie	1		301.0	20.0	2.5	/experiments/knapen_aot/videos/S_yt-mDil5vGZb14_4049.mp4	0.0	126.15065693855286	2.5082969665527344
22	65.04001998901367	fix_post	2		12.0	20.0	2.5	/experiments/knapen_aot/videos/S_yt-mDil5vGZb14_4049.mp4	0.0	128.6589539051056	0.10007214546203613
23	65.14009213447571	fix_pre	0		7.0	21.0	2.5	blank	1.0	128.75902605056763	0.05825996398925781
23	65.19021797180176	response	0	2		21.0	2.5	blank	1.0	128.80915188789368	
23	65.19835209846497	movie	1		301.0	21.0	2.5	blank	1.0	128.81728601455688	2.5083930492401123
23	67.70674514770508	fix_post	2		12.0	21.0	2.5	blank	1.0	131.325679063797	0.09998798370361328
24	67.80673313140869	fix_pre	0		17.0	22.0	2.5	/experiments/knapen_aot/videos/S_-vPHq-7BJ70_15.mp4	0.0	131.4256670475006	0.14165401458740234
24	67.93254804611206	response	0	2		22.0	2.5	/experiments/knapen_aot/videos/S_-vPHq-7BJ70_15.mp4	0.0	131.55148196220398	
24	67.9483871459961	movie	1		297.0	22.0	2.5	/experiments/knapen_aot/videos/S_-vPHq-7BJ70_15.mp4	0.0	131.567321062088	2.5083389282226562
24	70.45672607421875	fix_post	2		12.0	22.0	2.5	/experiments/knapen_aot/videos/S_-vPHq-7BJ70_15.mp4	0.0	134.07565999031067	0.10000395774841309
25	70.55673003196716	fix_pre	0		9.0	23.0	2.5	/experiments/knapen_aot/videos/R_S_yt-Q6BFO3Yz0zY_363.mp4	0.0	134.17566394805908	0.07495403289794922
25	70.6234769821167	response	0	2		23.0	2.5	/experiments/knapen_aot/videos/R_S_yt-Q6BFO3Yz0zY_363.mp4	0.0	134.24241089820862	
25	70.63168406486511	movie	1		301.0	23.0	2.5	/experiments/knapen_aot/videos/R_S_yt-Q6BFO3Yz0zY_363.mp4	0.0	134.25061798095703	2.5084269046783447
25	73.14011096954346	fix_post	2		12.0	23.0	2.5	/experiments/knapen_aot/videos/R_S_yt-Q6BFO3Yz0zY_363.mp4	0.0	136.75904488563538	0.09992408752441406
26	73.24003505706787	fix_pre	0		13.0	24.0	2.5	/experiments/knapen_aot/videos/S_yt-foGMTdxewBI_43.mp4	0.0	136.8589689731598	0.10829997062683105
26	73.34015011787415	response	0	2		24.0	2.5	/experiments/knapen_aot/videos/S_yt-foGMTdxewBI_43.mp4	0.0	136.95908403396606	
26	73.3483350276947	movie	1		301.0	24.0	2.5	/experiments/knapen_aot/videos/S_yt-foGMTdxewBI_43.mp4	0.0	136.96726894378662	2.5083601474761963
26	75.8566951751709	fix_post	2		12.0	24.0	2.5	/experiments/knapen_aot/videos/S_yt-foGMTdxewBI_43.mp4	0.0	139.47562909126282	0.10035395622253418
27	75.95704913139343	fix_pre	0		26.0	25.0	2.5	/experiments/knapen_aot/videos/S_g201_TH_803_A001_8_SDR_20191031_SDR_2K_AVC.mp4	0.0	139.57598304748535	0.21632790565490723
27	76.15771913528442	response	0	2		25.0	2.5	/experiments/knapen_aot/videos/S_g201_TH_803_A001_8_SDR_20191031_SDR_2K_AVC.mp4	0.0	139.77665305137634	
27	76.17337703704834	movie	1		167.0	25.0	2.5	/experiments/knapen_aot/videos/S_g201_TH_803_A001_8_SDR_20191031_SDR_2K_AVC.mp4	0.0	139.79231095314026	2.50832200050354
27	78.68169903755188	fix_post	2		12.0	25.0	2.5	/experiments/knapen_aot/videos/S_g201_TH_803_A001_8_SDR_20191031_SDR_2K_AVC.mp4	0.0	142.3006329536438	0.09995508193969727
28	78.78165411949158	fix_pre	0		5.0	26.0	2.5	blank	1.0	142.4005880355835	0.04167890548706055
28	78.80753207206726	response	0	2		26.0	2.5	blank	1.0	142.42646598815918	
28	78.82333302497864	movie	1		301.0	26.0	2.5	blank	1.0	142.44226694107056	2.5082831382751465
28	81.33161616325378	fix_post	2		12.0	26.0	2.5	blank	1.0	144.9505500793457	0.10006880760192871
29	81.43168497085571	fix_pre	0		26.0	27.0	2.5	/experiments/knapen_aot/videos/S_yt-Pc1ZlCvsPpc_5.mp4	0.0	145.05061888694763	0.21663117408752441
29	81.64007806777954	response	0	2		27.0	2.5	/experiments/knapen_aot/videos/S_yt-Pc1ZlCvsPpc_5.mp4	0.0	145.25901198387146	
29	81.64831614494324	movie	1		298.0	27.0	2.5	/experiments/knapen_aot/videos/S_yt-Pc1ZlCvsPpc_5.mp4	0.0	145.26725006103516	2.5083320140838623
29	84.1566481590271	fix_post	2		12.0	27.0	2.5	/experiments/knapen_aot/videos/S_yt-Pc1ZlCvsPpc_5.mp4	0.0	147.77558207511902	0.1000509262084961
30	84.2566990852356	fix_pre	0		8.0	28.0	2.5	/experiments/knapen_aot/videos/R_S_yt-hMyqUMAbFAk_303.mp4	0.0	147.87563300132751	0.06657791137695312
30	84.3150851726532	response	0	2		28.0	2.5	/experiments/knapen_aot/videos/R_S_yt-hMyqUMAbFAk_303.mp4	0.0	147.93401908874512	
30	84.32327699661255	movie	1		301.0	28.0	2.5	/experiments/knapen_aot/videos/R_S_yt-hMyqUMAbFAk_303.mp4	0.0	147.94221091270447	2.5086870193481445
30	86.8319640159607	fix_post	2		12.0	28.0	2.5	/experiments/knapen_aot/videos/R_S_yt-hMyqUMAbFAk_303.mp4	0.0	150.4508979320526	0.09973406791687012
31	86.93169808387756	fix_pre	0		8.0	29.0	2.5	/experiments/knapen_aot/videos/R_S_yt-qazCIJqjxUU_3.mp4	0.0	150.55063199996948	0.0668940544128418
31	86.99019503593445	response	0	2		29.0	2.5	/experiments/knapen_aot/videos/R_S_yt-qazCIJqjxUU_3.mp4	0.0	150.60912895202637	
31	86.9985921382904	movie	1		301.0	29.0	2.5	/experiments/knapen_aot/videos/R_S_yt-qazCIJqjxUU_3.mp4	0.0	150.61752605438232	2.5080809593200684
31	89.50667309761047	fix_post	2		12.0	29.0	2.5	/experiments/knapen_aot/videos/R_S_yt-qazCIJqjxUU_3.mp4	0.0	153.1256070137024	0.10002994537353516
32	89.60670304298401	fix_pre	0		3.0	30.0	2.5	/experiments/knapen_aot/videos/S_yt-6aqg1P9YqR8_38.mp4	0.0	153.22563695907593	0.025043964385986328
32	89.62367296218872	response	0	2		30.0	2.5	/experiments/knapen_aot/videos/S_yt-6aqg1P9YqR8_38.mp4	0.0	153.24260687828064	
32	89.63174700737	movie	1		300.0	30.0	2.5	/experiments/knapen_aot/videos/S_yt-6aqg1P9YqR8_38.mp4	0.0	153.2506809234619	2.5081751346588135
32	92.13992214202881	fix_post	2		12.0	30.0	2.5	/experiments/knapen_aot/videos/S_yt-6aqg1P9YqR8_38.mp4	0.0	155.75885605812073	0.10006999969482422
32	92.15675711631775	response	2	2		30.0	2.5	/experiments/knapen_aot/videos/S_yt-6aqg1P9YqR8_38.mp4	0.0	155.77569103240967	
33	92.23999214172363	fix_pre	0		27.0	31.0	2.5	/experiments/knapen_aot/videos/R_S_comp_N003_C006_PS_v01_SDR_PS_20180925_SDR_2K_AVC.mp4	0.0	155.85892605781555	0.22499489784240723
33	92.45678400993347	response	0	2		31.0	2.5	/experiments/knapen_aot/videos/R_S_comp_N003_C006_PS_v01_SDR_PS_20180925_SDR_2K_AVC.mp4	0.0	156.0757179260254	
33	92.46498703956604	movie	1		171.0	31.0	2.5	/experiments/knapen_aot/videos/R_S_comp_N003_C006_PS_v01_SDR_PS_20180925_SDR_2K_AVC.mp4	0.0	156.08392095565796	2.508427143096924
33	94.97341418266296	fix_post	2		12.0	31.0	2.5	/experiments/knapen_aot/videos/R_S_comp_N003_C006_PS_v01_SDR_PS_20180925_SDR_2K_AVC.mp4	0.0	158.59234809875488	0.09989500045776367
34	95.07330918312073	fix_pre	0		4.0	32.0	2.5	/experiments/knapen_aot/videos/S_ILSVRC2015_train_00628000.mp4	0.0	158.69224309921265	0.03330183029174805
34	95.09839296340942	response	0	2		32.0	2.5	/experiments/knapen_aot/videos/S_ILSVRC2015_train_00628000.mp4	0.0	158.71732687950134	
34	95.10661101341248	movie	1		301.0	32.0	2.5	/experiments/knapen_aot/videos/S_ILSVRC2015_train_00628000.mp4	0.0	158.7255449295044	2.508291006088257
34	97.61490201950073	fix_post	2		12.0	32.0	2.5	/experiments/knapen_aot/videos/S_ILSVRC2015_train_00628000.mp4	0.0	161.23383593559265	0.09999299049377441
35	97.7148950099945	fix_pre	0		12.0	33.0	2.5	blank	1.0	161.33382892608643	0.10001397132873535
35	97.80672097206116	response	0	2		33.0	2.5	blank	1.0	161.42565488815308	
35	97.81490898132324	movie	1		301.0	33.0	2.5	blank	1.0	161.43384289741516	2.508316993713379
35	100.32322597503662	fix_post	2		12.0	33.0	2.5	blank	1.0	163.94215989112854	0.09998607635498047
36	100.4232120513916	fix_pre	0		19.0	34.0	2.5	/experiments/knapen_aot/videos/R_S_video-4.mp4	0.0	164.04214596748352	0.15867996215820312
36	100.57335305213928	response	0	2		34.0	2.5	/experiments/knapen_aot/videos/R_S_video-4.mp4	0.0	164.1922869682312	
36	100.5818920135498	movie	1		165.0	34.0	2.5	/experiments/knapen_aot/videos/R_S_video-4.mp4	0.0	164.20082592964172	2.5079610347747803
36	103.08985304832458	fix_post	2		12.0	34.0	2.5	/experiments/knapen_aot/videos/R_S_video-4.mp4	0.0	166.7087869644165	0.09995913505554199
37	103.18981218338013	fix_pre	0		13.0	35.0	2.5	/experiments/knapen_aot/videos/R_S_yt-I2n2eo2zoZs_94.mp4	0.0	166.80874609947205	0.1083979606628418
37	103.29005002975464	response	0	2		35.0	2.5	/experiments/knapen_aot/videos/R_S_yt-I2n2eo2zoZs_94.mp4	0.0	166.90898394584656	
37	103.29821014404297	movie	1		301.0	35.0	2.5	/experiments/knapen_aot/videos/R_S_yt-I2n2eo2zoZs_94.mp4	0.0	166.9171440601349	2.5083110332489014
37	105.80652117729187	fix_post	2		12.0	35.0	2.5	/experiments/knapen_aot/videos/R_S_yt-I2n2eo2zoZs_94.mp4	0.0	169.4254550933838	0.09998798370361328
38	105.90650916099548	fix_pre	0		15.0	36.0	2.5	/experiments/knapen_aot/videos/R_S_yt-CJeyOFsd3lg_80.mp4	0.0	169.5254430770874	0.1250009536743164
38	106.02334117889404	response	0	2		36.0	2.5	/experiments/knapen_aot/videos/R_S_yt-CJeyOFsd3lg_80.mp4	0.0	169.64227509498596	
38	106.0315101146698	movie	1		301.0	36.0	2.5	/experiments/knapen_aot/videos/R_S_yt-CJeyOFsd3lg_80.mp4	0.0	169.65044403076172	2.5082778930664062
38	108.5397880077362	fix_post	2		12.0	36.0	2.5	/experiments/knapen_aot/videos/R_S_yt-CJeyOFsd3lg_80.mp4	0.0	172.15872192382812	0.10008001327514648
39	108.63986802101135	fix_pre	0		18.0	37.0	2.5	/experiments/knapen_aot/videos/R_S_yt-O4wUEZwHLyI_114.mp4	0.0	172.25880193710327	0.15018606185913086
39	108.78156518936157	response	0	2		37.0	2.5	/experiments/knapen_aot/videos/R_S_yt-O4wUEZwHLyI_114.mp4	0.0	172.4004991054535	
39	108.79005408287048	movie	1		301.0	37.0	2.5	/experiments/knapen_aot/videos/R_S_yt-O4wUEZwHLyI_114.mp4	0.0	172.4089879989624	2.508147954940796
39	111.29820203781128	fix_post	2		12.0	37.0	2.5	/experiments/knapen_aot/videos/R_S_yt-O4wUEZwHLyI_114.mp4	0.0	174.9171359539032	0.09997797012329102
40	111.39818000793457	fix_pre	0		21.0	38.0	2.5	/experiments/knapen_aot/videos/R_S_yt-FMIevUic_XY_50.mp4	0.0	175.0171139240265	0.17505717277526855
40	111.56493401527405	response	0	2		38.0	2.5	/experiments/knapen_aot/videos/R_S_yt-FMIevUic_XY_50.mp4	0.0	175.18386793136597	
40	111.57323718070984	movie	1		301.0	38.0	2.5	/experiments/knapen_aot/videos/R_S_yt-FMIevUic_XY_50.mp4	0.0	175.19217109680176	2.508335828781128
40	114.08157300949097	fix_post	2		12.0	38.0	2.5	/experiments/knapen_aot/videos/R_S_yt-FMIevUic_XY_50.mp4	0.0	177.70050692558289	0.09989714622497559
41	114.18147015571594	fix_pre	0		8.0	39.0	2.5	/experiments/knapen_aot/videos/S_yt-NqyG4Ar2JWo_10.mp4	0.0	177.80040407180786	0.06728482246398926
41	114.24014711380005	response	0	2		39.0	2.5	/experiments/knapen_aot/videos/S_yt-NqyG4Ar2JWo_10.mp4	0.0	177.85908102989197	
41	114.24875497817993	movie	1		301.0	39.0	2.5	/experiments/knapen_aot/videos/S_yt-NqyG4Ar2JWo_10.mp4	0.0	177.86768889427185	2.50777006149292
41	116.75652503967285	fix_post	2		12.0	39.0	2.5	/experiments/knapen_aot/videos/S_yt-NqyG4Ar2JWo_10.mp4	0.0	180.37545895576477	0.0999910831451416
42	116.856516122818	fix_pre	0		14.0	40.0	2.5	/experiments/knapen_aot/videos/S_comp_1223LV_FLARE_v21_SDR_PS_FINAL_20180709_F0F5700_SDR_2K_AVC.mp4	0.0	180.4754500389099	0.11665701866149902
42	116.96501111984253	response	0	2		40.0	2.5	/experiments/knapen_aot/videos/S_comp_1223LV_FLARE_v21_SDR_PS_FINAL_20180709_F0F5700_SDR_2K_AVC.mp4	0.0	180.58394503593445	
42	116.97317314147949	movie	1		164.0	40.0	2.5	/experiments/knapen_aot/videos/S_comp_1223LV_FLARE_v21_SDR_PS_FINAL_20180709_F0F5700_SDR_2K_AVC.mp4	0.0	180.5921070575714	2.5082619190216064
42	119.4814350605011	fix_post	2		12.0	40.0	2.5	/experiments/knapen_aot/videos/S_comp_1223LV_FLARE_v21_SDR_PS_FINAL_20180709_F0F5700_SDR_2K_AVC.mp4	0.0	183.10036897659302	0.10020709037780762
43	119.5816421508789	fix_pre	0		5.0	41.0	2.5	blank	1.0	183.20057606697083	0.042543888092041016
43	119.61497616767883	response	0	2		41.0	2.5	blank	1.0	183.23391008377075	
43	119.62418603897095	movie	1		301.0	41.0	2.5	blank	1.0	183.24311995506287	2.507319927215576
43	122.13150596618652	fix_post	2		12.0	41.0	2.5	blank	1.0	185.75043988227844	0.0999140739440918
44	122.23142004013062	fix_pre	0		17.0	42.0	2.5	/experiments/knapen_aot/videos/R_S_Pexels_Videos_2786546.mp4	0.0	185.85035395622253	0.14180994033813477
44	122.36498999595642	response	0	2		42.0	2.5	/experiments/knapen_aot/videos/R_S_Pexels_Videos_2786546.mp4	0.0	185.98392391204834	
44	122.37322998046875	movie	1		163.0	42.0	2.5	/experiments/knapen_aot/videos/R_S_Pexels_Videos_2786546.mp4	0.0	185.99216389656067	2.5082931518554688
44	124.88152313232422	fix_post	2		12.0	42.0	2.5	/experiments/knapen_aot/videos/R_S_Pexels_Videos_2786546.mp4	0.0	188.50045704841614	0.10001897811889648
45	124.98154211044312	fix_pre	0		2.0	43.0	2.5	/experiments/knapen_aot/videos/S_yt-SkIJvj6KNOo_33.mp4	0.0	188.60047602653503	0.01664590835571289
45	124.99142217636108	response	0	2		43.0	2.5	/experiments/knapen_aot/videos/S_yt-SkIJvj6KNOo_33.mp4	0.0	188.610356092453	
45	124.99818801879883	movie	1		301.0	43.0	2.5	/experiments/knapen_aot/videos/S_yt-SkIJvj6KNOo_33.mp4	0.0	188.61712193489075	2.5083320140838623
45	127.50652003288269	fix_post	2		12.0	43.0	2.5	/experiments/knapen_aot/videos/S_yt-SkIJvj6KNOo_33.mp4	0.0	191.1254539489746	0.09985899925231934
46	127.60637903213501	fix_pre	0		16.0	44.0	2.5	/experiments/knapen_aot/videos/R_S_yt-CJeyOFsd3lg_80.mp4	0.0	191.22531294822693	0.13346314430236816
46	127.72409105300903	response	0	2		44.0	2.5	/experiments/knapen_aot/videos/R_S_yt-CJeyOFsd3lg_80.mp4	0.0	191.34302496910095	
46	127.73984217643738	movie	1		301.0	44.0	2.5	/experiments/knapen_aot/videos/R_S_yt-CJeyOFsd3lg_80.mp4	0.0	191.3587760925293	2.5083518028259277
46	130.2481939792633	fix_post	2		12.0	44.0	2.5	/experiments/knapen_aot/videos/R_S_yt-CJeyOFsd3lg_80.mp4	0.0	193.86712789535522	0.10015320777893066
47	130.34834718704224	fix_pre	0		11.0	45.0	2.5	/experiments/knapen_aot/videos/R_S_yt-dO0OuozAgt0_225.mp4	0.0	193.96728110313416	0.09148883819580078
47	130.42416095733643	response	0	2		45.0	2.5	/experiments/knapen_aot/videos/R_S_yt-dO0OuozAgt0_225.mp4	0.0	194.04309487342834	
47	130.43983602523804	movie	1		301.0	45.0	2.5	/experiments/knapen_aot/videos/R_S_yt-dO0OuozAgt0_225.mp4	0.0	194.05876994132996	2.508310079574585
47	132.94814610481262	fix_post	2		12.0	45.0	2.5	/experiments/knapen_aot/videos/R_S_yt-dO0OuozAgt0_225.mp4	0.0	196.56708002090454	0.09992790222167969
48	133.0480740070343	fix_pre	0		6.0	46.0	2.5	/experiments/knapen_aot/videos/R_S_ILSVRC2015_train_00371012.mp4	0.0	196.66700792312622	0.05006814002990723
48	133.08322715759277	response	0	2		46.0	2.5	/experiments/knapen_aot/videos/R_S_ILSVRC2015_train_00371012.mp4	0.0	196.7021610736847	
48	133.0981421470642	movie	1		301.0	46.0	2.5	/experiments/knapen_aot/videos/R_S_ILSVRC2015_train_00371012.mp4	0.0	196.71707606315613	2.50833797454834
48	135.60648012161255	fix_post	2		12.0	46.0	2.5	/experiments/knapen_aot/videos/R_S_ILSVRC2015_train_00371012.mp4	0.0	199.22541403770447	0.09999585151672363
49	135.70647597312927	fix_pre	0		10.0	47.0	2.5	blank	1.0	199.3254098892212	0.08338809013366699
49	135.78159308433533	response	0	2		47.0	2.5	blank	1.0	199.40052700042725	
49	135.78986406326294	movie	1		301.0	47.0	2.5	blank	1.0	199.40879797935486	2.5083019733428955
49	138.29816603660583	fix_post	2		12.0	47.0	2.5	blank	1.0	201.91709995269775	0.0999441146850586
50	138.3981101512909	fix_pre	0		16.0	48.0	2.5	/experiments/knapen_aot/videos/S_yt-JmmyeMOFpII_29.mp4	0.0	202.0170440673828	0.13334202766418457
50	138.51578307151794	response	0	2		48.0	2.5	/experiments/knapen_aot/videos/S_yt-JmmyeMOFpII_29.mp4	0.0	202.13471698760986	
50	138.53145217895508	movie	1		301.0	48.0	2.5	/experiments/knapen_aot/videos/S_yt-JmmyeMOFpII_29.mp4	0.0	202.150386095047	2.508323907852173
50	141.03977608680725	fix_post	2		12.0	48.0	2.5	/experiments/knapen_aot/videos/S_yt-JmmyeMOFpII_29.mp4	0.0	204.65871000289917	0.10003995895385742
51	141.1398160457611	fix_pre	0		8.0	49.0	2.5	/experiments/knapen_aot/videos/S_ILSVRC2015_test_00001002.mp4	0.0	204.75874996185303	0.0666799545288086
51	141.19827699661255	response	0	2		49.0	2.5	/experiments/knapen_aot/videos/S_ILSVRC2015_test_00001002.mp4	0.0	204.81721091270447	
51	141.20649600028992	movie	1		301.0	49.0	2.5	/experiments/knapen_aot/videos/S_ILSVRC2015_test_00001002.mp4	0.0	204.82542991638184	2.508234977722168
51	143.71473097801208	fix_post	2		12.0	49.0	2.5	/experiments/knapen_aot/videos/S_ILSVRC2015_test_00001002.mp4	0.0	207.333664894104	0.10005998611450195
52	143.8147909641266	fix_pre	0		14.0	50.0	2.5	/experiments/knapen_aot/videos/S_yt-kawmL3oVw8c_2.mp4	0.0	207.4337248802185	0.11661505699157715
52	143.92326498031616	response	0	2		50.0	2.5	/experiments/knapen_aot/videos/S_yt-kawmL3oVw8c_2.mp4	0.0	207.54219889640808	
52	143.93140602111816	movie	1		301.0	50.0	2.5	/experiments/knapen_aot/videos/S_yt-kawmL3oVw8c_2.mp4	0.0	207.55033993721008	2.5083980560302734
52	146.43980407714844	fix_post	2		12.0	50.0	2.5	/experiments/knapen_aot/videos/S_yt-kawmL3oVw8c_2.mp4	0.0	210.05873799324036	0.09998106956481934
53	146.53978514671326	fix_pre	0		13.0	51.0	2.5	/experiments/knapen_aot/videos/S_yt-bQRBtP9zkms_111.mp4	0.0	210.15871906280518	0.10829687118530273
53	146.6398720741272	response	0	2		51.0	2.5	/experiments/knapen_aot/videos/S_yt-bQRBtP9zkms_111.mp4	0.0	210.25880599021912	
53	146.64808201789856	movie	1		301.0	51.0	2.5	/experiments/knapen_aot/videos/S_yt-bQRBtP9zkms_111.mp4	0.0	210.26701593399048	2.5083019733428955
53	149.15638399124146	fix_post	2		12.0	51.0	2.5	/experiments/knapen_aot/videos/S_yt-bQRBtP9zkms_111.mp4	0.0	212.77531790733337	0.10005807876586914
54	149.25644207000732	fix_pre	0		26.0	52.0	2.5	/experiments/knapen_aot/videos/R_S_yt-NqyG4Ar2JWo_10.mp4	0.0	212.87537598609924	0.21662592887878418
54	149.46493411064148	response	0	2		52.0	2.5	/experiments/knapen_aot/videos/R_S_yt-NqyG4Ar2JWo_10.mp4	0.0	213.0838680267334	
54	149.4730679988861	movie	1		301.0	52.0	2.5	/experiments/knapen_aot/videos/R_S_yt-NqyG4Ar2JWo_10.mp4	0.0	213.09200191497803	2.5083401203155518
54	151.98140811920166	fix_post	2		12.0	52.0	2.5	/experiments/knapen_aot/videos/R_S_yt-NqyG4Ar2JWo_10.mp4	0.0	215.60034203529358	0.09998798370361328
55	152.08139610290527	fix_pre	0		21.0	53.0	2.5	/experiments/knapen_aot/videos/R_S_yt-c6kLumgTX54_7.mp4	0.0	215.7003300189972	0.17498397827148438
55	152.24823999404907	response	0	2		53.0	2.5	/experiments/knapen_aot/videos/R_S_yt-c6kLumgTX54_7.mp4	0.0	215.867173910141	
55	152.25638008117676	movie	1		301.0	53.0	2.5	/experiments/knapen_aot/videos/R_S_yt-c6kLumgTX54_7.mp4	0.0	215.87531399726868	2.508341073989868
55	154.76472115516663	fix_post	2		12.0	53.0	2.5	/experiments/knapen_aot/videos/R_S_yt-c6kLumgTX54_7.mp4	0.0	218.38365507125854	0.09993100166320801
56	154.86465215682983	fix_pre	0		15.0	54.0	2.5	/experiments/knapen_aot/videos/R_S_yt-a9bnYU0Gnxg_59.mp4	0.0	218.48358607292175	0.12506580352783203
56	154.9814510345459	response	0	2		54.0	2.5	/experiments/knapen_aot/videos/R_S_yt-a9bnYU0Gnxg_59.mp4	0.0	218.60038495063782	
56	154.98971796035767	movie	1		301.0	54.0	2.5	/experiments/knapen_aot/videos/R_S_yt-a9bnYU0Gnxg_59.mp4	0.0	218.60865187644958	2.5083401203155518
56	157.49805808067322	fix_post	2		12.0	54.0	2.5	/experiments/knapen_aot/videos/R_S_yt-a9bnYU0Gnxg_59.mp4	0.0	221.11699199676514	0.09999394416809082
57	157.5980520248413	fix_pre	0		10.0	55.0	2.5	blank	1.0	221.21698594093323	0.08335208892822266
57	157.67318511009216	response	0	2		55.0	2.5	blank	1.0	221.29211902618408	
57	157.68140411376953	movie	1		301.0	55.0	2.5	blank	1.0	221.30033802986145	2.5083110332489014
57	160.18971514701843	fix_post	2		12.0	55.0	2.5	blank	1.0	223.80864906311035	0.10000181198120117
58	160.28971695899963	fix_pre	0		27.0	56.0	2.5	/experiments/knapen_aot/videos/S_yt-VJ65ukWmdxQ_193.mp4	0.0	223.90865087509155	0.22488713264465332
58	160.50641703605652	response	0	2		56.0	2.5	/experiments/knapen_aot/videos/S_yt-VJ65ukWmdxQ_193.mp4	0.0	224.12535095214844	
58	160.5146040916443	movie	1		300.0	56.0	2.5	/experiments/knapen_aot/videos/S_yt-VJ65ukWmdxQ_193.mp4	0.0	224.1335380077362	2.508354902267456
58	163.02295899391174	fix_post	2		12.0	56.0	2.5	/experiments/knapen_aot/videos/S_yt-VJ65ukWmdxQ_193.mp4	0.0	226.64189291000366	0.10000205039978027
59	163.12296104431152	fix_pre	0		4.0	57.0	2.5	/experiments/knapen_aot/videos/S_yt-ZzC953ahaxs_195.mp4	0.0	226.74189496040344	0.034631967544555664
59	163.14816999435425	response	0	2		57.0	2.5	/experiments/knapen_aot/videos/S_yt-ZzC953ahaxs_195.mp4	0.0	226.76710391044617	
59	163.15759301185608	movie	1		301.0	57.0	2.5	/experiments/knapen_aot/videos/S_yt-ZzC953ahaxs_195.mp4	0.0	226.776526927948	2.5070371627807617
59	165.66463017463684	fix_post	2		12.0	57.0	2.5	/experiments/knapen_aot/videos/S_yt-ZzC953ahaxs_195.mp4	0.0	229.28356409072876	0.10002589225769043
60	165.76465606689453	fix_pre	0		6.0	58.0	2.5	/experiments/knapen_aot/videos/R_S_ILSVRC2015_train_00067005.mp4	0.0	229.38358998298645	0.05001711845397949
60	165.80647206306458	response	0	2		58.0	2.5	/experiments/knapen_aot/videos/R_S_ILSVRC2015_train_00067005.mp4	0.0	229.4254059791565	
60	165.8146731853485	movie	1		301.0	58.0	2.5	/experiments/knapen_aot/videos/R_S_ILSVRC2015_train_00067005.mp4	0.0	229.43360710144043	2.5082969665527344
60	168.32297015190125	fix_post	2		12.0	58.0	2.5	/experiments/knapen_aot/videos/R_S_ILSVRC2015_train_00067005.mp4	0.0	231.94190406799316	0.09995698928833008
61	168.42292714118958	fix_pre	0		13.0	59.0	2.5	/experiments/knapen_aot/videos/R_S_yt-dO0OuozAgt0_225.mp4	0.0	232.0418610572815	0.10961294174194336
61	168.52304697036743	response	0	2		59.0	2.5	/experiments/knapen_aot/videos/R_S_yt-dO0OuozAgt0_225.mp4	0.0	232.14198088645935	
61	168.53254008293152	movie	1		301.0	59.0	2.5	/experiments/knapen_aot/videos/R_S_yt-dO0OuozAgt0_225.mp4	0.0	232.15147399902344	2.5071098804473877
61	171.0396499633789	fix_post	2		12.0	59.0	2.5	/experiments/knapen_aot/videos/R_S_yt-dO0OuozAgt0_225.mp4	0.0	234.65858387947083	0.09988808631896973
62	171.13953804969788	fix_pre	0		8.0	60.0	2.5	/experiments/knapen_aot/videos/R_S_yt-hRAqAwRhmwE_58.mp4	0.0	234.7584719657898	0.0667409896850586
62	171.1909990310669	response	0	2		60.0	2.5	/experiments/knapen_aot/videos/R_S_yt-hRAqAwRhmwE_58.mp4	0.0	234.8099329471588	
62	171.20627903938293	movie	1		301.0	60.0	2.5	/experiments/knapen_aot/videos/R_S_yt-hRAqAwRhmwE_58.mp4	0.0	234.82521295547485	2.508324146270752
62	173.7146031856537	fix_post	2		12.0	60.0	2.5	/experiments/knapen_aot/videos/R_S_yt-hRAqAwRhmwE_58.mp4	0.0	237.3335371017456	0.09989786148071289
63	173.8145010471344	fix_pre	0		9.0	61.0	2.5	blank	1.0	237.43343496322632	0.07505393028259277
63	173.88154315948486	response	0	2		61.0	2.5	blank	1.0	237.50047707557678	
63	173.889554977417	movie	1		301.0	61.0	2.5	blank	1.0	237.5084888935089	2.5082790851593018
63	176.3978340625763	fix_post	2		12.0	61.0	2.5	blank	1.0	240.0167679786682	0.10008096694946289
64	176.49791502952576	fix_pre	0		14.0	62.0	2.5	/experiments/knapen_aot/videos/S_yt-T9Vwt7wFvPk_100.mp4	0.0	240.11684894561768	0.11788105964660645
64	176.6063370704651	response	0	2		62.0	2.5	/experiments/knapen_aot/videos/S_yt-T9Vwt7wFvPk_100.mp4	0.0	240.225270986557	
64	176.61579608917236	movie	1		301.0	62.0	2.5	/experiments/knapen_aot/videos/S_yt-T9Vwt7wFvPk_100.mp4	0.0	240.23473000526428	2.5071210861206055
64	179.12291717529297	fix_post	2		12.0	62.0	2.5	/experiments/knapen_aot/videos/S_yt-T9Vwt7wFvPk_100.mp4	0.0	242.7418510913849	0.09995889663696289
65	179.22287607192993	fix_pre	0		16.0	63.0	2.5	/experiments/knapen_aot/videos/S_yt-mdLT282PVbE_6.mp4	0.0	242.84180998802185	0.13332104682922363
65	179.34803700447083	response	0	2		63.0	2.5	/experiments/knapen_aot/videos/S_yt-mdLT282PVbE_6.mp4	0.0	242.96697092056274	
65	179.35619711875916	movie	1		301.0	63.0	2.5	/experiments/knapen_aot/videos/S_yt-mdLT282PVbE_6.mp4	0.0	242.97513103485107	2.5084099769592285
65	181.86460709571838	fix_post	2		12.0	63.0	2.5	/experiments/knapen_aot/videos/S_yt-mdLT282PVbE_6.mp4	0.0	245.4835410118103	0.09996891021728516
66	181.96457600593567	fix_pre	0		10.0	64.0	2.5	/experiments/knapen_aot/videos/S_I004_C014_SDR_2K_AVC.mp4	0.0	245.5835099220276	0.08327817916870117
66	182.03971695899963	response	0	2		64.0	2.5	/experiments/knapen_aot/videos/S_I004_C014_SDR_2K_AVC.mp4	0.0	245.65865087509155	
66	182.04785418510437	movie	1		169.0	64.0	2.5	/experiments/knapen_aot/videos/S_I004_C014_SDR_2K_AVC.mp4	0.0	245.6667881011963	2.508323907852173
66	184.55617809295654	fix_post	2		12.0	64.0	2.5	/experiments/knapen_aot/videos/S_I004_C014_SDR_2K_AVC.mp4	0.0	248.17511200904846	0.10003900527954102
66	184.60638999938965	response	2	2		64.0	2.5	/experiments/knapen_aot/videos/S_I004_C014_SDR_2K_AVC.mp4	0.0	248.22532391548157	
67	184.65621709823608	fix_pre	0		34.0	65.0	2.5	/experiments/knapen_aot/videos/R_S_yt--OkafQ5VFHs_51.mp4	0.0	248.275151014328	0.2833709716796875
67	184.93131709098816	response	0	2		65.0	2.5	/experiments/knapen_aot/videos/R_S_yt--OkafQ5VFHs_51.mp4	0.0	248.55025100708008	
67	184.93958806991577	movie	1		300.0	65.0	2.5	/experiments/knapen_aot/videos/R_S_yt--OkafQ5VFHs_51.mp4	0.0	248.5585219860077	2.50832200050354
67	187.4479100704193	fix_post	2		12.0	65.0	2.5	/experiments/knapen_aot/videos/R_S_yt--OkafQ5VFHs_51.mp4	0.0	251.06684398651123	0.09996509552001953
68	187.54787516593933	fix_pre	0		20.0	66.0	2.5	/experiments/knapen_aot/videos/S_yt-bH4nJibL4Jo_164.mp4	0.0	251.16680908203125	0.16667890548706055
68	187.70640516281128	response	0	2		66.0	2.5	/experiments/knapen_aot/videos/S_yt-bH4nJibL4Jo_164.mp4	0.0	251.3253390789032	
68	187.7145540714264	movie	1		301.0	66.0	2.5	/experiments/knapen_aot/videos/S_yt-bH4nJibL4Jo_164.mp4	0.0	251.3334879875183	2.5082859992980957
68	190.2228400707245	fix_post	2		12.0	66.0	2.5	/experiments/knapen_aot/videos/S_yt-bH4nJibL4Jo_164.mp4	0.0	253.8417739868164	0.09998011589050293
69	190.322820186615	fix_pre	0		12.0	67.0	2.5	/experiments/knapen_aot/videos/R_S_yt-FMIevUic_XY_50.mp4	0.0	253.9417541027069	0.1000208854675293
69	190.41465210914612	response	0	2		67.0	2.5	/experiments/knapen_aot/videos/R_S_yt-FMIevUic_XY_50.mp4	0.0	254.03358602523804	
69	190.42284107208252	movie	1		301.0	67.0	2.5	/experiments/knapen_aot/videos/R_S_yt-FMIevUic_XY_50.mp4	0.0	254.04177498817444	2.508342981338501
69	192.93118405342102	fix_post	2		12.0	67.0	2.5	/experiments/knapen_aot/videos/R_S_yt-FMIevUic_XY_50.mp4	0.0	256.55011796951294	0.10013294219970703
70	193.03131699562073	fix_pre	0		41.0	68.0	2.5	blank	1.0	256.65025091171265	0.34157299995422363
70	193.36469316482544	response	0	2		68.0	2.5	blank	1.0	256.98362708091736	
70	193.37288999557495	movie	1		301.0	68.0	2.5	blank	1.0	256.99182391166687	2.5082781314849854
70	195.88116812705994	fix_post	2		12.0	68.0	2.5	blank	1.0	259.50010204315186	0.10000300407409668
71	195.98117113113403	fix_pre	0		35.0	69.0	2.5	/experiments/knapen_aot/videos/R_S_yt-hRAqAwRhmwE_58.mp4	0.0	259.60010504722595	0.2916438579559326
71	196.26466608047485	response	0	2		69.0	2.5	/experiments/knapen_aot/videos/R_S_yt-hRAqAwRhmwE_58.mp4	0.0	259.8835999965668	
71	196.27281498908997	movie	1		301.0	69.0	2.5	/experiments/knapen_aot/videos/R_S_yt-hRAqAwRhmwE_58.mp4	0.0	259.8917489051819	2.508409023284912
71	198.78122401237488	fix_post	2		12.0	69.0	2.5	/experiments/knapen_aot/videos/R_S_yt-hRAqAwRhmwE_58.mp4	0.0	262.4001579284668	0.09991312026977539
71	198.87294816970825	response	2	2		69.0	2.5	/experiments/knapen_aot/videos/R_S_yt-hRAqAwRhmwE_58.mp4	0.0	262.49188208580017	
72	198.88113713264465	fix_pre	0		37.0	70.0	2.5	/experiments/knapen_aot/videos/S_yt-JG2OY_7B-gI_537.mp4	0.0	262.5000710487366	0.30837202072143555
72	199.18131613731384	response	0	2		70.0	2.5	/experiments/knapen_aot/videos/S_yt-JG2OY_7B-gI_537.mp4	0.0	262.80025005340576	
72	199.1895091533661	movie	1		301.0	70.0	2.5	/experiments/knapen_aot/videos/S_yt-JG2OY_7B-gI_537.mp4	0.0	262.808443069458	2.5083529949188232
72	201.6978621482849	fix_post	2		12.0	70.0	2.5	/experiments/knapen_aot/videos/S_yt-JG2OY_7B-gI_537.mp4	0.0	265.31679606437683	0.09997200965881348
73	201.79783415794373	fix_pre	0		5.0	71.0	2.5	/experiments/knapen_aot/videos/R_S_ILSVRC2015_train_00628000.mp4	0.0	265.41676807403564	0.0416719913482666
73	201.82380604743958	response	0	2		71.0	2.5	/experiments/knapen_aot/videos/R_S_ILSVRC2015_train_00628000.mp4	0.0	265.4427399635315	
73	201.839506149292	movie	1		301.0	71.0	2.5	/experiments/knapen_aot/videos/R_S_ILSVRC2015_train_00628000.mp4	0.0	265.4584400653839	2.5083258152008057
73	204.3478319644928	fix_post	2		12.0	71.0	2.5	/experiments/knapen_aot/videos/R_S_ILSVRC2015_train_00628000.mp4	0.0	267.9667658805847	0.09995412826538086
74	204.44778609275818	fix_pre	0		4.0	72.0	2.5	/experiments/knapen_aot/videos/S_bing-www_dailymotion_com_video_x4kcklg_53.mp4	0.0	268.0667200088501	0.03338003158569336
74	204.47290706634521	response	0	2		72.0	2.5	/experiments/knapen_aot/videos/S_bing-www_dailymotion_com_video_x4kcklg_53.mp4	0.0	268.09184098243713	
74	204.48116612434387	movie	1		166.0	72.0	2.5	/experiments/knapen_aot/videos/S_bing-www_dailymotion_com_video_x4kcklg_53.mp4	0.0	268.1001000404358	2.5083189010620117
74	206.98948502540588	fix_post	2		12.0	72.0	2.5	/experiments/knapen_aot/videos/S_bing-www_dailymotion_com_video_x4kcklg_53.mp4	0.0	270.6084189414978	0.09993696212768555
74	207.07289600372314	response	2	2		72.0	2.5	/experiments/knapen_aot/videos/S_bing-www_dailymotion_com_video_x4kcklg_53.mp4	0.0	270.69182991981506	
75	207.08942198753357	fix_pre	0		38.0	73.0	2.5	/experiments/knapen_aot/videos/R_S_yt-SS7pSyb0_d0_32.mp4	0.0	270.7083559036255	0.31772303581237793
75	207.3979241847992	response	0	2		73.0	2.5	/experiments/knapen_aot/videos/R_S_yt-SS7pSyb0_d0_32.mp4	0.0	271.0168581008911	
75	207.40714502334595	movie	1		301.0	73.0	2.5	/experiments/knapen_aot/videos/R_S_yt-SS7pSyb0_d0_32.mp4	0.0	271.02607893943787	2.507370948791504
75	209.91451597213745	fix_post	2		12.0	73.0	2.5	/experiments/knapen_aot/videos/R_S_yt-SS7pSyb0_d0_32.mp4	0.0	273.53344988822937	0.09992504119873047
76	210.01444101333618	fix_pre	0		9.0	74.0	2.5	/experiments/knapen_aot/videos/S_wc-PqINyFk_ku4u_18.mp4	0.0	273.6333749294281	0.07498908042907715
76	210.08127808570862	response	0	2		74.0	2.5	/experiments/knapen_aot/videos/S_wc-PqINyFk_ku4u_18.mp4	0.0	273.70021200180054	
76	210.08943009376526	movie	1		163.0	74.0	2.5	/experiments/knapen_aot/videos/S_wc-PqINyFk_ku4u_18.mp4	0.0	273.7083640098572	2.508310079574585
76	212.59774017333984	fix_post	2		12.0	74.0	2.5	/experiments/knapen_aot/videos/S_wc-PqINyFk_ku4u_18.mp4	0.0	276.21667408943176	0.09999680519104004
77	212.69773697853088	fix_pre	0		15.0	75.0	2.5	/experiments/knapen_aot/videos/S_yt-I2n2eo2zoZs_94.mp4	0.0	276.3166708946228	0.12607407569885254
77	212.81457710266113	response	0	2		75.0	2.5	/experiments/knapen_aot/videos/S_yt-I2n2eo2zoZs_94.mp4	0.0	276.43351101875305	
77	212.82381105422974	movie	1		301.0	75.0	2.5	/experiments/knapen_aot/videos/S_yt-I2n2eo2zoZs_94.mp4	0.0	276.44274497032166	2.5073049068450928
77	215.33111596107483	fix_post	2		12.0	75.0	2.5	/experiments/knapen_aot/videos/S_yt-I2n2eo2zoZs_94.mp4	0.0	278.95004987716675	0.0999300479888916
78	215.43104600906372	fix_pre	0		25.0	76.0	2.5	blank	1.0	279.04997992515564	0.20834016799926758
78	215.6236870288849	response	0	2		76.0	2.5	blank	1.0	279.2426209449768	
78	215.639386177063	movie	1		301.0	76.0	2.5	blank	1.0	279.2583200931549	2.5083858966827393
78	218.14777207374573	fix_post	2		11.0	76.0	2.5	blank	1.0	281.76670598983765	0.09992289543151855
79	218.24769496917725	fix_pre	0		27.0	77.0	2.5	/experiments/knapen_aot/videos/S_yt-jcuaf9iSEkI_169.mp4	0.0	281.86662888526917	0.22495818138122559
79	218.46447110176086	response	0	2		77.0	2.5	/experiments/knapen_aot/videos/S_yt-jcuaf9iSEkI_169.mp4	0.0	282.0834050178528	
79	218.47265315055847	movie	1		301.0	77.0	2.5	/experiments/knapen_aot/videos/S_yt-jcuaf9iSEkI_169.mp4	0.0	282.0915870666504	2.5083868503570557
79	220.98104000091553	fix_post	2		12.0	77.0	2.5	/experiments/knapen_aot/videos/S_yt-jcuaf9iSEkI_169.mp4	0.0	284.59997391700745	0.10005998611450195
80	221.08109998703003	fix_pre	0		4.0	78.0	2.5	/experiments/knapen_aot/videos/R_S_yt-C0INfEJ4Awk_53.mp4	0.0	284.70003390312195	0.03433108329772949
80	221.10643815994263	response	0	2		78.0	2.5	/experiments/knapen_aot/videos/R_S_yt-C0INfEJ4Awk_53.mp4	0.0	284.72537207603455	
80	221.11543107032776	movie	1		301.0	78.0	2.5	/experiments/knapen_aot/videos/R_S_yt-C0INfEJ4Awk_53.mp4	0.0	284.7343649864197	2.507323980331421
80	223.62275505065918	fix_post	2		12.0	78.0	2.5	/experiments/knapen_aot/videos/R_S_yt-C0INfEJ4Awk_53.mp4	0.0	287.2416889667511	0.09998011589050293
80	223.70627212524414	response	2	2		78.0	2.5	/experiments/knapen_aot/videos/R_S_yt-C0INfEJ4Awk_53.mp4	0.0	287.32520604133606	
81	223.72273516654968	fix_pre	0		44.0	79.0	2.5	/experiments/knapen_aot/videos/R_S_wc-PqINyFk_ku4u_18.mp4	0.0	287.3416690826416	0.3666529655456543
81	224.08118295669556	response	0	2		79.0	2.5	/experiments/knapen_aot/videos/R_S_wc-PqINyFk_ku4u_18.mp4	0.0	287.7001168727875	
81	224.08938813209534	movie	1		168.0	79.0	2.5	/experiments/knapen_aot/videos/R_S_wc-PqINyFk_ku4u_18.mp4	0.0	287.70832204818726	2.50833797454834
81	226.59772610664368	fix_post	2		12.0	79.0	2.5	/experiments/knapen_aot/videos/R_S_wc-PqINyFk_ku4u_18.mp4	0.0	290.2166600227356	0.09995603561401367
82	226.6976821422577	fix_pre	0		12.0	80.0	2.5	/experiments/knapen_aot/videos/S_pexels-mikhail-nilov-8410084.mp4	0.0	290.3166160583496	0.10004496574401855
82	226.78949618339539	response	0	2		80.0	2.5	/experiments/knapen_aot/videos/S_pexels-mikhail-nilov-8410084.mp4	0.0	290.4084300994873	
82	226.7977271080017	movie	1		164.0	80.0	2.5	/experiments/knapen_aot/videos/S_pexels-mikhail-nilov-8410084.mp4	0.0	290.4166610240936	2.508342981338501
82	229.3060700893402	fix_post	2		12.0	80.0	2.5	/experiments/knapen_aot/videos/S_pexels-mikhail-nilov-8410084.mp4	0.0	292.92500400543213	0.0999910831451416
83	229.40606117248535	fix_pre	0		2.0	81.0	2.5	/experiments/knapen_aot/videos/R_S_pexels-roman-odintsov-8232443_1.mp4	0.0	293.02499508857727	0.016652822494506836
83	229.41455912590027	response	0	2		81.0	2.5	/experiments/knapen_aot/videos/R_S_pexels-roman-odintsov-8232443_1.mp4	0.0	293.0334930419922	
83	229.42271399497986	movie	1		184.0	81.0	2.5	/experiments/knapen_aot/videos/R_S_pexels-roman-odintsov-8232443_1.mp4	0.0	293.0416479110718	2.5082411766052246
83	231.93095517158508	fix_post	2		12.0	81.0	2.5	/experiments/knapen_aot/videos/R_S_pexels-roman-odintsov-8232443_1.mp4	0.0	295.549889087677	0.10004281997680664
84	232.0309979915619	fix_pre	0		14.0	82.0	2.5	/experiments/knapen_aot/videos/R_S_yt-Pc1ZlCvsPpc_5.mp4	0.0	295.6499319076538	0.1166071891784668
84	232.13947010040283	response	0	2		82.0	2.5	/experiments/knapen_aot/videos/R_S_yt-Pc1ZlCvsPpc_5.mp4	0.0	295.75840401649475	
84	232.14760518074036	movie	1		301.0	82.0	2.5	/experiments/knapen_aot/videos/R_S_yt-Pc1ZlCvsPpc_5.mp4	0.0	295.7665390968323	2.508453845977783
84	234.65605902671814	fix_post	2		12.0	82.0	2.5	/experiments/knapen_aot/videos/R_S_yt-Pc1ZlCvsPpc_5.mp4	0.0	298.27499294281006	0.0999910831451416
85	234.75605010986328	fix_pre	0		13.0	83.0	2.5	blank	1.0	298.3749840259552	0.10919904708862305
85	234.856183052063	response	0	2		83.0	2.5	blank	1.0	298.4751169681549	
85	234.8652491569519	movie	1		301.0	83.0	2.5	blank	1.0	298.4841830730438	2.5073158740997314
85	237.37256503105164	fix_post	2		12.0	83.0	2.5	blank	1.0	300.99149894714355	0.10009098052978516
87	237.47265601158142	stim	0		48.0					301.09158992767334	0.3999600410461426
87	237.8685450553894	response	0	space						301.4874789714813	
