trial_nr	onset	event_type	phase	response	nr_frames	movie_index	movie_duration	movie_file	blank	onset_abs	duration
0	0.1260228157043457	stim	0		36.0					63.098089933395386	0.2987101078033447
0	0.4165689945220947	response	0	space						63.388636112213135	
1	0.42473292350769043	stim	0		121.0					63.39680004119873	1.0080430507659912
1	1.36614990234375	response	0	space						64.33821702003479	
1	1.4327759742736816	stim	1		120.0					64.40484309196472	0.9999868869781494
1	1.7244648933410645	response	1	space						64.6965320110321	
1	2.12434983253479	response	1	space						65.09641695022583	
1	2.391040802001953	response	1	space						65.363107919693	
2	2.432762861251831	fix_pre	0		55.0	0.0	2.5	/experiments/knapen_aot/videos/S_yt-PRqnM7xDsus_24.mp4	0.0	65.40482997894287	0.45816612243652344
2	2.8827638626098633	response	0	space		0.0	2.5	/experiments/knapen_aot/videos/S_yt-PRqnM7xDsus_24.mp4	0.0	65.8548309803009	
2	2.8909289836883545	movie	1		300.0	0.0	2.5	/experiments/knapen_aot/videos/S_yt-PRqnM7xDsus_24.mp4	0.0	65.8629961013794	2.508373975753784
2	5.399302959442139	fix_post	2		12.0	0.0	2.5	/experiments/knapen_aot/videos/S_yt-PRqnM7xDsus_24.mp4	0.0	68.37137007713318	0.09999990463256836
3	5.499302864074707	fix_pre	0		9.0	1.0	2.5	/experiments/knapen_aot/videos/R_S_pexels-mart-production-7698693.mp4	0.0	68.47136998176575	0.07775402069091797
3	5.569939851760864	response	0	2		1.0	2.5	/experiments/knapen_aot/videos/R_S_pexels-mart-production-7698693.mp4	0.0	68.5420069694519	
3	5.577056884765625	movie	1		192.0	1.0	2.5	/experiments/knapen_aot/videos/R_S_pexels-mart-production-7698693.mp4	0.0	68.54912400245667	2.5057151317596436
3	8.082772016525269	fix_post	2		12.0	1.0	2.5	/experiments/knapen_aot/videos/R_S_pexels-mart-production-7698693.mp4	0.0	71.05483913421631	0.0998377799987793
4	8.182609796524048	fix_pre	0		9.0	2.0	2.5	/experiments/knapen_aot/videos/R_S_ILSVRC2015_train_00479001.mp4	0.0	71.15467691421509	0.07500314712524414
4	8.24940299987793	response	0	2		2.0	2.5	/experiments/knapen_aot/videos/R_S_ILSVRC2015_train_00479001.mp4	0.0	71.22147011756897	
4	8.257612943649292	movie	1		301.0	2.0	2.5	/experiments/knapen_aot/videos/R_S_ILSVRC2015_train_00479001.mp4	0.0	71.22968006134033	2.5083489418029785
4	10.76596188545227	fix_post	2		12.0	2.0	2.5	/experiments/knapen_aot/videos/R_S_ILSVRC2015_train_00479001.mp4	0.0	73.73802900314331	0.10020804405212402
5	10.866169929504395	fix_pre	0		13.0	3.0	2.5	/experiments/knapen_aot/videos/R_S_yt-4Qz0m5IYh10_167.mp4	0.0	73.83823704719543	0.10807204246520996
5	10.966072797775269	response	0	2		3.0	2.5	/experiments/knapen_aot/videos/R_S_yt-4Qz0m5IYh10_167.mp4	0.0	73.93813991546631	
5	10.974241971969604	movie	1		301.0	3.0	2.5	/experiments/knapen_aot/videos/R_S_yt-4Qz0m5IYh10_167.mp4	0.0	73.94630908966064	2.5083489418029785
5	13.482590913772583	fix_post	2		12.0	3.0	2.5	/experiments/knapen_aot/videos/R_S_yt-4Qz0m5IYh10_167.mp4	0.0	76.45465803146362	0.09994697570800781
6	13.58253788948059	fix_pre	0		13.0	4.0	2.5	/experiments/knapen_aot/videos/R_S_yt-xQilXyNKsBw_42.mp4	0.0	76.55460500717163	0.10829806327819824
6	13.682665824890137	response	0	2		4.0	2.5	/experiments/knapen_aot/videos/R_S_yt-xQilXyNKsBw_42.mp4	0.0	76.65473294258118	
6	13.690835952758789	movie	1		301.0	4.0	2.5	/experiments/knapen_aot/videos/R_S_yt-xQilXyNKsBw_42.mp4	0.0	76.66290307044983	2.5085339546203613
6	16.19936990737915	fix_post	2		12.0	4.0	2.5	/experiments/knapen_aot/videos/R_S_yt-xQilXyNKsBw_42.mp4	0.0	79.17143702507019	0.09991788864135742
7	16.299287796020508	fix_pre	0		7.0	5.0	2.5	blank	1.0	79.27135491371155	0.05828499794006348
7	16.349315881729126	response	0	2		5.0	2.5	blank	1.0	79.32138299942017	
7	16.35757279396057	movie	1		301.0	5.0	2.5	blank	1.0	79.32963991165161	2.5087621212005615
7	18.866334915161133	fix_post	2		12.0	5.0	2.5	blank	1.0	81.83840203285217	0.09965705871582031
8	18.965991973876953	fix_pre	0		17.0	6.0	2.5	/experiments/knapen_aot/videos/S_yt-zydTlQGCUjQ_277.mp4	0.0	81.938059091568	0.1415400505065918
8	19.09927201271057	response	0	2		6.0	2.5	/experiments/knapen_aot/videos/S_yt-zydTlQGCUjQ_277.mp4	0.0	82.07133913040161	
8	19.107532024383545	movie	1		301.0	6.0	2.5	/experiments/knapen_aot/videos/S_yt-zydTlQGCUjQ_277.mp4	0.0	82.07959914207458	2.5083978176116943
8	21.61592984199524	fix_post	2		12.0	6.0	2.5	/experiments/knapen_aot/videos/S_yt-zydTlQGCUjQ_277.mp4	0.0	84.58799695968628	0.10001206398010254
9	21.715941905975342	fix_pre	0		4.0	7.0	2.5	/experiments/knapen_aot/videos/R_S_yt-aiWUhl8MCto_71.mp4	0.0	84.68800902366638	0.03471803665161133
9	21.741132020950317	response	0	2		7.0	2.5	/experiments/knapen_aot/videos/R_S_yt-aiWUhl8MCto_71.mp4	0.0	84.71319913864136	
9	21.750659942626953	movie	1		301.0	7.0	2.5	/experiments/knapen_aot/videos/R_S_yt-aiWUhl8MCto_71.mp4	0.0	84.722727060318	2.506911039352417
9	24.25757098197937	fix_post	2		12.0	7.0	2.5	/experiments/knapen_aot/videos/R_S_yt-aiWUhl8MCto_71.mp4	0.0	87.22963809967041	0.09992599487304688
10	24.357496976852417	fix_pre	0		11.0	8.0	2.5	/experiments/knapen_aot/videos/R_S_yt-H-2Vvouw9VI_85.mp4	0.0	87.32956409454346	0.09173202514648438
10	24.440951824188232	response	0	2		8.0	2.5	/experiments/knapen_aot/videos/R_S_yt-H-2Vvouw9VI_85.mp4	0.0	87.41301894187927	
10	24.4492290019989	movie	1		301.0	8.0	2.5	/experiments/knapen_aot/videos/R_S_yt-H-2Vvouw9VI_85.mp4	0.0	87.42129611968994	2.508340835571289
10	26.95756983757019	fix_post	2		12.0	8.0	2.5	/experiments/knapen_aot/videos/R_S_yt-H-2Vvouw9VI_85.mp4	0.0	89.92963695526123	0.09996318817138672
11	27.057533025741577	fix_pre	0		9.0	9.0	2.5	/experiments/knapen_aot/videos/R_S_yt-6mRpmfIvdew_1435.mp4	0.0	90.02960014343262	0.07497692108154297
11	27.124364852905273	response	0	2		9.0	2.5	/experiments/knapen_aot/videos/R_S_yt-6mRpmfIvdew_1435.mp4	0.0	90.09643197059631	
11	27.13250994682312	movie	1		301.0	9.0	2.5	/experiments/knapen_aot/videos/R_S_yt-6mRpmfIvdew_1435.mp4	0.0	90.10457706451416	2.5083460807800293
11	29.64085602760315	fix_post	2		12.0	9.0	2.5	/experiments/knapen_aot/videos/R_S_yt-6mRpmfIvdew_1435.mp4	0.0	92.61292314529419	0.1000359058380127
12	29.740891933441162	fix_pre	0		20.0	10.0	2.5	/experiments/knapen_aot/videos/R_S_yt-O6FS0xnF0CU_106.mp4	0.0	92.7129590511322	0.16653203964233398
12	29.899235010147095	response	0	2		10.0	2.5	/experiments/knapen_aot/videos/R_S_yt-O6FS0xnF0CU_106.mp4	0.0	92.87130212783813	
12	29.907423973083496	movie	1		301.0	10.0	2.5	/experiments/knapen_aot/videos/R_S_yt-O6FS0xnF0CU_106.mp4	0.0	92.87949109077454	2.5084519386291504
12	32.41587591171265	fix_post	2		12.0	10.0	2.5	/experiments/knapen_aot/videos/R_S_yt-O6FS0xnF0CU_106.mp4	0.0	95.38794302940369	0.09999394416809082
13	32.51586985588074	fix_pre	0		12.0	11.0	2.5	/experiments/knapen_aot/videos/S_-IkGMlLHrOI_108.mp4	0.0	95.48793697357178	0.09996414184570312
13	32.60763096809387	response	0	2		11.0	2.5	/experiments/knapen_aot/videos/S_-IkGMlLHrOI_108.mp4	0.0	95.57969808578491	
13	32.61583399772644	movie	1		301.0	11.0	2.5	/experiments/knapen_aot/videos/S_-IkGMlLHrOI_108.mp4	0.0	95.58790111541748	2.5083489418029785
13	35.12418293952942	fix_post	2		12.0	11.0	2.5	/experiments/knapen_aot/videos/S_-IkGMlLHrOI_108.mp4	0.0	98.09625005722046	0.09995102882385254
14	35.22413396835327	fix_pre	0		12.0	12.0	2.5	blank	1.0	98.19620108604431	0.10015487670898438
14	35.315900802612305	response	0	2		12.0	2.5	blank	1.0	98.28796792030334	
14	35.324288845062256	movie	1		301.0	12.0	2.5	blank	1.0	98.2963559627533	2.508242130279541
14	37.8325309753418	fix_post	2		12.0	12.0	2.5	blank	1.0	100.80459809303284	0.10003089904785156
15	37.93256187438965	fix_pre	0		14.0	13.0	2.5	/experiments/knapen_aot/videos/R_S_ILSVRC2015_train_00396000.mp4	0.0	100.90462899208069	0.11657905578613281
15	38.04086399078369	response	0	2		13.0	2.5	/experiments/knapen_aot/videos/R_S_ILSVRC2015_train_00396000.mp4	0.0	101.01293110847473	
15	38.04914093017578	movie	1		301.0	13.0	2.5	/experiments/knapen_aot/videos/R_S_ILSVRC2015_train_00396000.mp4	0.0	101.02120804786682	2.5083820819854736
15	40.557523012161255	fix_post	2		12.0	13.0	2.5	/experiments/knapen_aot/videos/R_S_ILSVRC2015_train_00396000.mp4	0.0	103.5295901298523	0.09991288185119629
16	40.65743589401245	fix_pre	0		12.0	14.0	2.5	/experiments/knapen_aot/videos/S_yt-TNtO8RPd3iE_25.mp4	0.0	103.62950301170349	0.10003304481506348
16	40.74169182777405	response	0	2		14.0	2.5	/experiments/knapen_aot/videos/S_yt-TNtO8RPd3iE_25.mp4	0.0	103.71375894546509	
16	40.757468938827515	movie	1		301.0	14.0	2.5	/experiments/knapen_aot/videos/S_yt-TNtO8RPd3iE_25.mp4	0.0	103.72953605651855	2.5083749294281006
16	43.265843868255615	fix_post	2		12.0	14.0	2.5	/experiments/knapen_aot/videos/S_yt-TNtO8RPd3iE_25.mp4	0.0	106.23791098594666	0.09999704360961914
17	43.365840911865234	fix_pre	0		25.0	15.0	2.5	/experiments/knapen_aot/videos/R_S_yt-aiWUhl8MCto_71.mp4	0.0	106.33790802955627	0.2082688808441162
17	43.565945863723755	response	0	2		15.0	2.5	/experiments/knapen_aot/videos/R_S_yt-aiWUhl8MCto_71.mp4	0.0	106.5380129814148	
17	43.57410979270935	movie	1		301.0	15.0	2.5	/experiments/knapen_aot/videos/R_S_yt-aiWUhl8MCto_71.mp4	0.0	106.54617691040039	2.5083250999450684
17	46.08243489265442	fix_post	2		12.0	15.0	2.5	/experiments/knapen_aot/videos/R_S_yt-aiWUhl8MCto_71.mp4	0.0	109.05450201034546	0.1000370979309082
18	46.18247199058533	fix_pre	0		22.0	16.0	2.5	/experiments/knapen_aot/videos/S_pexels-pavel-danilyuk-8626652.mp4	0.0	109.15453910827637	0.18327999114990234
18	46.35759401321411	response	0	2		16.0	2.5	/experiments/knapen_aot/videos/S_pexels-pavel-danilyuk-8626652.mp4	0.0	109.32966113090515	
18	46.36575198173523	movie	1		162.0	16.0	2.5	/experiments/knapen_aot/videos/S_pexels-pavel-danilyuk-8626652.mp4	0.0	109.33781909942627	2.5084829330444336
18	48.87423491477966	fix_post	2		12.0	16.0	2.5	/experiments/knapen_aot/videos/S_pexels-pavel-danilyuk-8626652.mp4	0.0	111.8463020324707	0.10010194778442383
19	48.97433686256409	fix_pre	0		5.0	17.0	2.5	/experiments/knapen_aot/videos/S_P006_C002_UHD_SDR_2K_AVC.mp4	0.0	111.94640398025513	0.0414280891418457
19	49.007611989974976	response	0	2		17.0	2.5	/experiments/knapen_aot/videos/S_P006_C002_UHD_SDR_2K_AVC.mp4	0.0	111.97967910766602	
19	49.01576495170593	movie	1		164.0	17.0	2.5	/experiments/knapen_aot/videos/S_P006_C002_UHD_SDR_2K_AVC.mp4	0.0	111.98783206939697	2.5083930492401123
19	51.524158000946045	fix_post	2		12.0	17.0	2.5	/experiments/knapen_aot/videos/S_P006_C002_UHD_SDR_2K_AVC.mp4	0.0	114.49622511863708	0.09992098808288574
20	51.62407898902893	fix_pre	0		7.0	18.0	2.5	/experiments/knapen_aot/videos/R_S_video-2_copy.mp4	0.0	114.59614610671997	0.0583348274230957
20	51.674245834350586	response	0	2		18.0	2.5	/experiments/knapen_aot/videos/R_S_video-2_copy.mp4	0.0	114.64631295204163	
20	51.682413816452026	movie	1		164.0	18.0	2.5	/experiments/knapen_aot/videos/R_S_video-2_copy.mp4	0.0	114.65448093414307	2.508303165435791
20	54.19071698188782	fix_post	2		12.0	18.0	2.5	/experiments/knapen_aot/videos/R_S_video-2_copy.mp4	0.0	117.16278409957886	0.10003185272216797
21	54.290748834609985	fix_pre	0		16.0	19.0	2.5	/experiments/knapen_aot/videos/S_yt-dj0XQUJos38_14.mp4	0.0	117.26281595230103	0.13336801528930664
21	54.41585683822632	response	0	2		19.0	2.5	/experiments/knapen_aot/videos/S_yt-dj0XQUJos38_14.mp4	0.0	117.38792395591736	
21	54.42411684989929	movie	1		301.0	19.0	2.5	/experiments/knapen_aot/videos/S_yt-dj0XQUJos38_14.mp4	0.0	117.39618396759033	2.508327007293701
21	56.93244385719299	fix_post	2		12.0	19.0	2.5	/experiments/knapen_aot/videos/S_yt-dj0XQUJos38_14.mp4	0.0	119.90451097488403	0.09991216659545898
22	57.03235602378845	fix_pre	0		29.0	20.0	2.5	/experiments/knapen_aot/videos/R_S_yt-O_6CyqHeJig_132.mp4	0.0	120.00442314147949	0.2417128086090088
22	57.26581883430481	response	0	2		20.0	2.5	/experiments/knapen_aot/videos/R_S_yt-O_6CyqHeJig_132.mp4	0.0	120.23788595199585	
22	57.27406883239746	movie	1		301.0	20.0	2.5	/experiments/knapen_aot/videos/R_S_yt-O_6CyqHeJig_132.mp4	0.0	120.2461359500885	2.5083351135253906
22	59.78240394592285	fix_post	2		12.0	20.0	2.5	/experiments/knapen_aot/videos/R_S_yt-O_6CyqHeJig_132.mp4	0.0	122.75447106361389	0.10003304481506348
23	59.882436990737915	fix_pre	0		19.0	21.0	2.5	blank	1.0	122.85450410842896	0.15832781791687012
23	60.03247594833374	response	0	2		21.0	2.5	blank	1.0	123.00454306602478	
23	60.040764808654785	movie	1		301.0	21.0	2.5	blank	1.0	123.01283192634583	2.5083041191101074
23	62.54906892776489	fix_post	2		12.0	21.0	2.5	blank	1.0	125.52113604545593	0.09998393058776855
24	62.64905285835266	fix_pre	0		20.0	22.0	2.5	/experiments/knapen_aot/videos/S_yt-Dlk44AGz-xM_37.mp4	0.0	125.6211199760437	0.16662001609802246
24	62.807469844818115	response	0	2		22.0	2.5	/experiments/knapen_aot/videos/S_yt-Dlk44AGz-xM_37.mp4	0.0	125.77953696250916	
24	62.815672874450684	movie	1		301.0	22.0	2.5	/experiments/knapen_aot/videos/S_yt-Dlk44AGz-xM_37.mp4	0.0	125.78773999214172	2.508388042449951
24	65.32406091690063	fix_post	2		12.0	22.0	2.5	/experiments/knapen_aot/videos/S_yt-Dlk44AGz-xM_37.mp4	0.0	128.29612803459167	0.09998607635498047
25	65.42404699325562	fix_pre	0		13.0	23.0	2.5	/experiments/knapen_aot/videos/R_S_yt-SyePE8wOlxs_321.mp4	0.0	128.39611411094666	0.10841202735900879
25	65.52414679527283	response	0	2		23.0	2.5	/experiments/knapen_aot/videos/R_S_yt-SyePE8wOlxs_321.mp4	0.0	128.49621391296387	
25	65.53245902061462	movie	1		301.0	23.0	2.5	/experiments/knapen_aot/videos/R_S_yt-SyePE8wOlxs_321.mp4	0.0	128.50452613830566	2.5082569122314453
25	68.04071593284607	fix_post	2		12.0	23.0	2.5	/experiments/knapen_aot/videos/R_S_yt-SyePE8wOlxs_321.mp4	0.0	131.0127830505371	0.09999203681945801
26	68.14070796966553	fix_pre	0		24.0	24.0	2.5	/experiments/knapen_aot/videos/S_yt-isJga8ec5UM_32.mp4	0.0	131.11277508735657	0.19995999336242676
26	68.33248281478882	response	0	2		24.0	2.5	/experiments/knapen_aot/videos/S_yt-isJga8ec5UM_32.mp4	0.0	131.30454993247986	
26	68.34066796302795	movie	1		301.0	24.0	2.5	/experiments/knapen_aot/videos/S_yt-isJga8ec5UM_32.mp4	0.0	131.312735080719	2.508368968963623
26	70.84903693199158	fix_post	2		12.0	24.0	2.5	/experiments/knapen_aot/videos/S_yt-isJga8ec5UM_32.mp4	0.0	133.82110404968262	0.099945068359375
27	70.94898200035095	fix_pre	0		34.0	25.0	2.5	/experiments/knapen_aot/videos/S_video-2_copy.mp4	0.0	133.921049118042	0.28334784507751465
27	71.22408294677734	response	0	2		25.0	2.5	/experiments/knapen_aot/videos/S_video-2_copy.mp4	0.0	134.19615006446838	
27	71.23232984542847	movie	1		163.0	25.0	2.5	/experiments/knapen_aot/videos/S_video-2_copy.mp4	0.0	134.2043969631195	2.508355140686035
27	73.7406849861145	fix_post	2		12.0	25.0	2.5	/experiments/knapen_aot/videos/S_video-2_copy.mp4	0.0	136.71275210380554	0.10004782676696777
28	73.84073281288147	fix_pre	0		34.0	26.0	2.5	blank	1.0	136.8127999305725	0.28322410583496094
28	74.11586880683899	response	0	2		26.0	2.5	blank	1.0	137.08793592453003	
28	74.12395691871643	movie	1		301.0	26.0	2.5	blank	1.0	137.09602403640747	2.50844407081604
28	76.63240098953247	fix_post	2		12.0	26.0	2.5	blank	1.0	139.6044681072235	0.10004687309265137
29	76.73244786262512	fix_pre	0		23.0	27.0	2.5	/experiments/knapen_aot/videos/S_yt-SS7pSyb0_d0_32.mp4	0.0	139.70451498031616	0.19148898124694824
29	76.915776014328	response	0	2		27.0	2.5	/experiments/knapen_aot/videos/S_yt-SS7pSyb0_d0_32.mp4	0.0	139.88784313201904	
29	76.92393684387207	movie	1		301.0	27.0	2.5	/experiments/knapen_aot/videos/S_yt-SS7pSyb0_d0_32.mp4	0.0	139.8960039615631	2.5084421634674072
29	79.43237900733948	fix_post	2		12.0	27.0	2.5	/experiments/knapen_aot/videos/S_yt-SS7pSyb0_d0_32.mp4	0.0	142.40444612503052	0.09995889663696289
30	79.53233790397644	fix_pre	0		8.0	28.0	2.5	/experiments/knapen_aot/videos/R_S_yt-tneuR3EtSZE_72.mp4	0.0	142.50440502166748	0.06661391258239746
30	79.59077882766724	response	0	2		28.0	2.5	/experiments/knapen_aot/videos/R_S_yt-tneuR3EtSZE_72.mp4	0.0	142.56284594535828	
30	79.59895181655884	movie	1		301.0	28.0	2.5	/experiments/knapen_aot/videos/R_S_yt-tneuR3EtSZE_72.mp4	0.0	142.57101893424988	2.50829815864563
30	82.10724997520447	fix_post	2		12.0	28.0	2.5	/experiments/knapen_aot/videos/R_S_yt-tneuR3EtSZE_72.mp4	0.0	145.0793170928955	0.10006999969482422
31	82.20731997489929	fix_pre	0		7.0	29.0	2.5	/experiments/knapen_aot/videos/R_S_yt-6DJulOrg2-8_122.mp4	0.0	145.17938709259033	0.0584108829498291
31	82.25736379623413	response	0	2		29.0	2.5	/experiments/knapen_aot/videos/R_S_yt-6DJulOrg2-8_122.mp4	0.0	145.22943091392517	
31	82.26573085784912	movie	1		301.0	29.0	2.5	/experiments/knapen_aot/videos/R_S_yt-6DJulOrg2-8_122.mp4	0.0	145.23779797554016	2.5082969665527344
31	84.77402782440186	fix_post	2		12.0	29.0	2.5	/experiments/knapen_aot/videos/R_S_yt-6DJulOrg2-8_122.mp4	0.0	147.7460949420929	0.0999460220336914
32	84.87397384643555	fix_pre	0		12.0	30.0	2.5	/experiments/knapen_aot/videos/S_yt-IC62JSYpq9w_71.mp4	0.0	147.8460409641266	0.09997701644897461
32	84.96578288078308	response	0	2		30.0	2.5	/experiments/knapen_aot/videos/S_yt-IC62JSYpq9w_71.mp4	0.0	147.93784999847412	
32	84.97395086288452	movie	1		301.0	30.0	2.5	/experiments/knapen_aot/videos/S_yt-IC62JSYpq9w_71.mp4	0.0	147.94601798057556	2.5083630084991455
32	87.48231387138367	fix_post	2		12.0	30.0	2.5	/experiments/knapen_aot/videos/S_yt-IC62JSYpq9w_71.mp4	0.0	150.4543809890747	0.1000361442565918
33	87.58235001564026	fix_pre	0		27.0	31.0	2.5	/experiments/knapen_aot/videos/S_yt-j-ifVbxZePQ_70.mp4	0.0	150.5544171333313	0.22489690780639648
33	87.79908180236816	response	0	2		31.0	2.5	/experiments/knapen_aot/videos/S_yt-j-ifVbxZePQ_70.mp4	0.0	150.7711489200592	
33	87.80724692344666	movie	1		301.0	31.0	2.5	/experiments/knapen_aot/videos/S_yt-j-ifVbxZePQ_70.mp4	0.0	150.7793140411377	2.508486032485962
33	90.31573295593262	fix_post	2		12.0	31.0	2.5	/experiments/knapen_aot/videos/S_yt-j-ifVbxZePQ_70.mp4	0.0	153.28780007362366	0.09991884231567383
34	90.41565179824829	fix_pre	0		26.0	32.0	2.5	/experiments/knapen_aot/videos/R_S_yt-o0Hbe7kcPps_70.mp4	0.0	153.38771891593933	0.2165670394897461
34	90.62406802177429	response	0	2		32.0	2.5	/experiments/knapen_aot/videos/R_S_yt-o0Hbe7kcPps_70.mp4	0.0	153.59613513946533	
34	90.63221883773804	movie	1		301.0	32.0	2.5	/experiments/knapen_aot/videos/R_S_yt-o0Hbe7kcPps_70.mp4	0.0	153.60428595542908	2.5085501670837402
34	93.14076900482178	fix_post	2		12.0	32.0	2.5	/experiments/knapen_aot/videos/R_S_yt-o0Hbe7kcPps_70.mp4	0.0	156.11283612251282	0.09984588623046875
35	93.24061489105225	fix_pre	0		15.0	33.0	2.5	blank	1.0	156.2126820087433	0.12492895126342773
35	93.35736799240112	response	0	2		33.0	2.5	blank	1.0	156.32943511009216	
35	93.36554384231567	movie	1		301.0	33.0	2.5	blank	1.0	156.3376109600067	2.5083720684051514
35	95.87391591072083	fix_post	2		12.0	33.0	2.5	blank	1.0	158.84598302841187	0.09999799728393555
36	95.97391390800476	fix_pre	0		17.0	34.0	2.5	/experiments/knapen_aot/videos/R_S_yt-aTEGTeQuDWM_93.mp4	0.0	158.9459810256958	0.14164304733276367
36	96.10740494728088	response	0	2		34.0	2.5	/experiments/knapen_aot/videos/R_S_yt-aTEGTeQuDWM_93.mp4	0.0	159.07947206497192	
36	96.11555695533752	movie	1		301.0	34.0	2.5	/experiments/knapen_aot/videos/R_S_yt-aTEGTeQuDWM_93.mp4	0.0	159.08762407302856	2.5083529949188232
36	98.62390995025635	fix_post	2		12.0	34.0	2.5	/experiments/knapen_aot/videos/R_S_yt-aTEGTeQuDWM_93.mp4	0.0	161.5959770679474	0.09998202323913574
37	98.72389197349548	fix_pre	0		20.0	35.0	2.5	/experiments/knapen_aot/videos/R_S_yt-Wr5pSPApQDw_235.mp4	0.0	161.69595909118652	0.1666109561920166
37	98.88240385055542	response	0	2		35.0	2.5	/experiments/knapen_aot/videos/R_S_yt-Wr5pSPApQDw_235.mp4	0.0	161.85447096824646	
37	98.8905029296875	movie	1		301.0	35.0	2.5	/experiments/knapen_aot/videos/R_S_yt-Wr5pSPApQDw_235.mp4	0.0	161.86257004737854	2.5084149837493896
37	101.39891791343689	fix_post	2		12.0	35.0	2.5	/experiments/knapen_aot/videos/R_S_yt-Wr5pSPApQDw_235.mp4	0.0	164.37098503112793	0.09999895095825195
38	101.49891686439514	fix_pre	0		20.0	36.0	2.5	/experiments/knapen_aot/videos/R_S_yt-fIEGqReekCM_10.mp4	0.0	164.47098398208618	0.167572021484375
38	101.64980483055115	response	0	2		36.0	2.5	/experiments/knapen_aot/videos/R_S_yt-fIEGqReekCM_10.mp4	0.0	164.6218719482422	
38	101.66648888587952	movie	1		301.0	36.0	2.5	/experiments/knapen_aot/videos/R_S_yt-fIEGqReekCM_10.mp4	0.0	164.63855600357056	2.5074079036712646
38	104.17389678955078	fix_post	2		12.0	36.0	2.5	/experiments/knapen_aot/videos/R_S_yt-fIEGqReekCM_10.mp4	0.0	167.14596390724182	0.1000661849975586
39	104.27396297454834	fix_pre	0		18.0	37.0	2.5	/experiments/knapen_aot/videos/S_pexels-sora-shimazaki-5925295.mp4	0.0	167.24603009223938	0.1499309539794922
39	104.41573882102966	response	0	2		37.0	2.5	/experiments/knapen_aot/videos/S_pexels-sora-shimazaki-5925295.mp4	0.0	167.3878059387207	
39	104.42389392852783	movie	1		162.0	37.0	2.5	/experiments/knapen_aot/videos/S_pexels-sora-shimazaki-5925295.mp4	0.0	167.39596104621887	2.5085020065307617
39	106.9323959350586	fix_post	2		12.0	37.0	2.5	/experiments/knapen_aot/videos/S_pexels-sora-shimazaki-5925295.mp4	0.0	169.90446305274963	0.09978508949279785
40	107.03218102455139	fix_pre	0		17.0	38.0	2.5	/experiments/knapen_aot/videos/S_yt-uXDyvrm0Tw0_17.mp4	0.0	170.00424814224243	0.14169096946716309
40	107.16567492485046	response	0	2		38.0	2.5	/experiments/knapen_aot/videos/S_yt-uXDyvrm0Tw0_17.mp4	0.0	170.1377420425415	
40	107.17387199401855	movie	1		301.0	38.0	2.5	/experiments/knapen_aot/videos/S_yt-uXDyvrm0Tw0_17.mp4	0.0	170.1459391117096	2.5083158016204834
40	109.68218779563904	fix_post	2		12.0	38.0	2.5	/experiments/knapen_aot/videos/S_yt-uXDyvrm0Tw0_17.mp4	0.0	172.65425491333008	0.10001420974731445
41	109.78220200538635	fix_pre	0		16.0	39.0	2.5	/experiments/knapen_aot/videos/R_S_yt-tOOaOzYvtKE_79.mp4	0.0	172.7542691230774	0.13422298431396484
41	109.90723395347595	response	0	2		39.0	2.5	/experiments/knapen_aot/videos/R_S_yt-tOOaOzYvtKE_79.mp4	0.0	172.879301071167	
41	109.91642498970032	movie	1		301.0	39.0	2.5	/experiments/knapen_aot/videos/R_S_yt-tOOaOzYvtKE_79.mp4	0.0	172.88849210739136	2.5074169635772705
41	112.42384195327759	fix_post	2		12.0	39.0	2.5	/experiments/knapen_aot/videos/R_S_yt-tOOaOzYvtKE_79.mp4	0.0	175.39590907096863	0.10012197494506836
42	112.52396392822266	fix_pre	0		7.0	40.0	2.5	/experiments/knapen_aot/videos/S_yt-Gokv9ZtV6zo_70.mp4	0.0	175.4960310459137	0.059092044830322266
42	112.57393980026245	response	0	2		40.0	2.5	/experiments/knapen_aot/videos/S_yt-Gokv9ZtV6zo_70.mp4	0.0	175.5460069179535	
42	112.58305597305298	movie	1		301.0	40.0	2.5	/experiments/knapen_aot/videos/S_yt-Gokv9ZtV6zo_70.mp4	0.0	175.55512309074402	2.5074799060821533
42	115.09053587913513	fix_post	2		12.0	40.0	2.5	/experiments/knapen_aot/videos/S_yt-Gokv9ZtV6zo_70.mp4	0.0	178.06260299682617	0.1000211238861084
43	115.19055700302124	fix_pre	0		14.0	41.0	2.5	/experiments/knapen_aot/videos/R_S_yt-31yLemkW42Q_111.mp4	0.0	178.16262412071228	0.11659598350524902
43	115.29889392852783	response	0	2		41.0	2.5	/experiments/knapen_aot/videos/R_S_yt-31yLemkW42Q_111.mp4	0.0	178.27096104621887	
43	115.30715298652649	movie	1		301.0	41.0	2.5	/experiments/knapen_aot/videos/R_S_yt-31yLemkW42Q_111.mp4	0.0	178.27922010421753	2.508328914642334
43	117.81548190116882	fix_post	2		12.0	41.0	2.5	/experiments/knapen_aot/videos/R_S_yt-31yLemkW42Q_111.mp4	0.0	180.78754901885986	0.09998393058776855
44	117.91546583175659	fix_pre	0		4.0	42.0	2.5	blank	1.0	180.88753294944763	0.03336811065673828
44	117.94062089920044	response	0	2		42.0	2.5	blank	1.0	180.91268801689148	
44	117.94883394241333	movie	1		301.0	42.0	2.5	blank	1.0	180.92090106010437	2.5082650184631348
44	120.45709896087646	fix_post	2		12.0	42.0	2.5	blank	1.0	183.4291660785675	0.10024595260620117
45	120.55734491348267	fix_pre	0		26.0	43.0	2.5	/experiments/knapen_aot/videos/S_yt-1H8sfkZGZK8_3.mp4	0.0	183.5294120311737	0.21648693084716797
45	120.76552391052246	response	0	2		43.0	2.5	/experiments/knapen_aot/videos/S_yt-1H8sfkZGZK8_3.mp4	0.0	183.7375910282135	
45	120.77383184432983	movie	1		301.0	43.0	2.5	/experiments/knapen_aot/videos/S_yt-1H8sfkZGZK8_3.mp4	0.0	183.74589896202087	2.5084991455078125
45	123.28233098983765	fix_post	2		12.0	43.0	2.5	/experiments/knapen_aot/videos/S_yt-1H8sfkZGZK8_3.mp4	0.0	186.2543981075287	0.09983301162719727
46	123.38216400146484	fix_pre	0		41.0	44.0	2.5	/experiments/knapen_aot/videos/R_S_yt-TNtO8RPd3iE_25.mp4	0.0	186.35423111915588	0.34165501594543457
46	123.71562886238098	response	0	2		44.0	2.5	/experiments/knapen_aot/videos/R_S_yt-TNtO8RPd3iE_25.mp4	0.0	186.68769598007202	
46	123.72381901741028	movie	1		301.0	44.0	2.5	/experiments/knapen_aot/videos/R_S_yt-TNtO8RPd3iE_25.mp4	0.0	186.69588613510132	2.508330821990967
46	126.23214983940125	fix_post	2		12.0	44.0	2.5	/experiments/knapen_aot/videos/R_S_yt-TNtO8RPd3iE_25.mp4	0.0	189.20421695709229	0.09998512268066406
47	126.33213496208191	fix_pre	0		19.0	45.0	2.5	/experiments/knapen_aot/videos/S_yt-Wr5pSPApQDw_235.mp4	0.0	189.30420207977295	0.15829086303710938
47	126.48219585418701	response	0	2		45.0	2.5	/experiments/knapen_aot/videos/S_yt-Wr5pSPApQDw_235.mp4	0.0	189.45426297187805	
47	126.49042582511902	movie	1		301.0	45.0	2.5	/experiments/knapen_aot/videos/S_yt-Wr5pSPApQDw_235.mp4	0.0	189.46249294281006	2.508355140686035
47	128.99878096580505	fix_post	2		12.0	45.0	2.5	/experiments/knapen_aot/videos/S_yt-Wr5pSPApQDw_235.mp4	0.0	191.9708480834961	0.10003995895385742
48	129.0988209247589	fix_pre	0		12.0	46.0	2.5	/experiments/knapen_aot/videos/R_S_yt-HwEfWfFJhRo_126.mp4	0.0	192.07088804244995	0.09992003440856934
48	129.19053888320923	response	0	2		46.0	2.5	/experiments/knapen_aot/videos/R_S_yt-HwEfWfFJhRo_126.mp4	0.0	192.16260600090027	
48	129.19874095916748	movie	1		301.0	46.0	2.5	/experiments/knapen_aot/videos/R_S_yt-HwEfWfFJhRo_126.mp4	0.0	192.17080807685852	2.508352041244507
48	131.707093000412	fix_post	2		12.0	46.0	2.5	/experiments/knapen_aot/videos/R_S_yt-HwEfWfFJhRo_126.mp4	0.0	194.67916011810303	0.10002779960632324
49	131.8071208000183	fix_pre	0		5.0	47.0	2.5	/experiments/knapen_aot/videos/S_yt-gPhlnZG-pRY_4.mp4	0.0	194.77918791770935	0.04167318344116211
49	131.84059691429138	response	0	2		47.0	2.5	/experiments/knapen_aot/videos/S_yt-gPhlnZG-pRY_4.mp4	0.0	194.81266403198242	
49	131.84879398345947	movie	1		301.0	47.0	2.5	/experiments/knapen_aot/videos/S_yt-gPhlnZG-pRY_4.mp4	0.0	194.8208611011505	2.508392810821533
49	134.357186794281	fix_post	2		12.0	47.0	2.5	/experiments/knapen_aot/videos/S_yt-gPhlnZG-pRY_4.mp4	0.0	197.32925391197205	0.09987616539001465
50	134.45706295967102	fix_pre	0		35.0	48.0	2.5	blank	1.0	197.42913007736206	0.29245901107788086
50	134.74050879478455	response	0	2		48.0	2.5	blank	1.0	197.7125759124756	
50	134.7495219707489	movie	1		301.0	48.0	2.5	blank	1.0	197.72158908843994	2.507617950439453
50	137.25713992118835	fix_post	2		12.0	48.0	2.5	blank	1.0	200.2292070388794	0.09996199607849121
51	137.35710191726685	fix_pre	0		20.0	49.0	2.5	/experiments/knapen_aot/videos/R_S_yt-m8HxO_-RRq0_127.mp4	0.0	200.32916903495789	0.16659188270568848
51	137.51552295684814	response	0	2		49.0	2.5	/experiments/knapen_aot/videos/R_S_yt-m8HxO_-RRq0_127.mp4	0.0	200.48759007453918	
51	137.52369379997253	movie	1		301.0	49.0	2.5	/experiments/knapen_aot/videos/R_S_yt-m8HxO_-RRq0_127.mp4	0.0	200.49576091766357	2.5084450244903564
51	140.0321388244629	fix_post	2		12.0	49.0	2.5	/experiments/knapen_aot/videos/R_S_yt-m8HxO_-RRq0_127.mp4	0.0	203.00420594215393	0.09998202323913574
52	140.13212084770203	fix_pre	0		14.0	50.0	2.5	/experiments/knapen_aot/videos/R_S_production_ID_5146014.mp4	0.0	203.10418796539307	0.11744809150695801
52	140.24045395851135	response	0	2		50.0	2.5	/experiments/knapen_aot/videos/R_S_production_ID_5146014.mp4	0.0	203.2125210762024	
52	140.24956893920898	movie	1		167.0	50.0	2.5	/experiments/knapen_aot/videos/R_S_production_ID_5146014.mp4	0.0	203.22163605690002	2.50752592086792
52	142.7570948600769	fix_post	2		12.0	50.0	2.5	/experiments/knapen_aot/videos/R_S_production_ID_5146014.mp4	0.0	205.72916197776794	0.09992694854736328
52	142.8155038356781	response	2	2		50.0	2.5	/experiments/knapen_aot/videos/R_S_production_ID_5146014.mp4	0.0	205.78757095336914	
53	142.85702180862427	fix_pre	0		38.0	51.0	2.5	/experiments/knapen_aot/videos/S_ILSVRC2015_train_00661001.mp4	0.0	205.8290889263153	0.31668519973754883
53	143.16536784172058	response	0	2		51.0	2.5	/experiments/knapen_aot/videos/S_ILSVRC2015_train_00661001.mp4	0.0	206.13743495941162	
53	143.17370700836182	movie	1		301.0	51.0	2.5	/experiments/knapen_aot/videos/S_ILSVRC2015_train_00661001.mp4	0.0	206.14577412605286	2.508363962173462
53	145.68207097053528	fix_post	2		12.0	51.0	2.5	/experiments/knapen_aot/videos/S_ILSVRC2015_train_00661001.mp4	0.0	208.65413808822632	0.09998297691345215
54	145.78205394744873	fix_pre	0		17.0	52.0	2.5	/experiments/knapen_aot/videos/S_yt-O6FS0xnF0CU_106.mp4	0.0	208.75412106513977	0.14174985885620117
54	145.91542983055115	response	0	2		52.0	2.5	/experiments/knapen_aot/videos/S_yt-O6FS0xnF0CU_106.mp4	0.0	208.8874969482422	
54	145.92380380630493	movie	1		301.0	52.0	2.5	/experiments/knapen_aot/videos/S_yt-O6FS0xnF0CU_106.mp4	0.0	208.89587092399597	2.5082411766052246
54	148.43204498291016	fix_post	2		12.0	52.0	2.5	/experiments/knapen_aot/videos/S_yt-O6FS0xnF0CU_106.mp4	0.0	211.4041121006012	0.10007286071777344
55	148.53211784362793	fix_pre	0		12.0	53.0	2.5	/experiments/knapen_aot/videos/R_S_yt-aTEGTeQuDWM_93.mp4	0.0	211.50418496131897	0.10003399848937988
55	148.6237919330597	response	0	2		53.0	2.5	/experiments/knapen_aot/videos/R_S_yt-aTEGTeQuDWM_93.mp4	0.0	211.59585905075073	
55	148.6321518421173	movie	1		301.0	53.0	2.5	/experiments/knapen_aot/videos/R_S_yt-aTEGTeQuDWM_93.mp4	0.0	211.60421895980835	2.508118152618408
55	151.14026999473572	fix_post	2		12.0	53.0	2.5	/experiments/knapen_aot/videos/R_S_yt-aTEGTeQuDWM_93.mp4	0.0	214.11233711242676	0.10020685195922852
56	151.24047684669495	fix_pre	0		18.0	54.0	2.5	/experiments/knapen_aot/videos/R_S_yt-0bovQBIUZho_15.mp4	0.0	214.212543964386	0.14982914924621582
56	151.38215279579163	response	0	2		54.0	2.5	/experiments/knapen_aot/videos/R_S_yt-0bovQBIUZho_15.mp4	0.0	214.35421991348267	
56	151.39030599594116	movie	1		301.0	54.0	2.5	/experiments/knapen_aot/videos/R_S_yt-0bovQBIUZho_15.mp4	0.0	214.3623731136322	2.508464813232422
56	153.89877080917358	fix_post	2		12.0	54.0	2.5	/experiments/knapen_aot/videos/R_S_yt-0bovQBIUZho_15.mp4	0.0	216.87083792686462	0.09988117218017578
57	153.99865198135376	fix_pre	0		15.0	55.0	2.5	/experiments/knapen_aot/videos/S_yt-D9uD7yM6bxQ_269.mp4	0.0	216.9707190990448	0.12575483322143555
57	154.10788893699646	response	0	2		55.0	2.5	/experiments/knapen_aot/videos/S_yt-D9uD7yM6bxQ_269.mp4	0.0	217.0799560546875	
57	154.1244068145752	movie	1		301.0	55.0	2.5	/experiments/knapen_aot/videos/S_yt-D9uD7yM6bxQ_269.mp4	0.0	217.09647393226624	2.5079760551452637
57	156.63238286972046	fix_post	2		12.0	55.0	2.5	/experiments/knapen_aot/videos/S_yt-D9uD7yM6bxQ_269.mp4	0.0	219.6044499874115	0.09961199760437012
58	156.73199486732483	fix_pre	0		6.0	56.0	2.5	blank	1.0	219.70406198501587	0.04995608329772949
58	156.7661669254303	response	0	2		56.0	2.5	blank	1.0	219.73823404312134	
58	156.78195095062256	movie	1		301.0	56.0	2.5	blank	1.0	219.7540180683136	2.5083789825439453
58	159.2903299331665	fix_post	2		12.0	56.0	2.5	blank	1.0	222.26239705085754	0.10004806518554688
59	159.39037799835205	fix_pre	0		24.0	57.0	2.5	/experiments/knapen_aot/videos/S_S006_C007_SDR_2K_AVC.mp4	0.0	222.3624451160431	0.20002388954162598
59	159.58199381828308	response	0	2		57.0	2.5	/experiments/knapen_aot/videos/S_S006_C007_SDR_2K_AVC.mp4	0.0	222.55406093597412	
59	159.59040188789368	movie	1		167.0	57.0	2.5	/experiments/knapen_aot/videos/S_S006_C007_SDR_2K_AVC.mp4	0.0	222.56246900558472	2.508328914642334
59	162.098730802536	fix_post	2		12.0	57.0	2.5	/experiments/knapen_aot/videos/S_S006_C007_SDR_2K_AVC.mp4	0.0	225.07079792022705	0.09985804557800293
59	162.19047784805298	response	2	2		57.0	2.5	/experiments/knapen_aot/videos/S_S006_C007_SDR_2K_AVC.mp4	0.0	225.16254496574402	
60	162.198588848114	fix_pre	0		36.0	58.0	2.5	/experiments/knapen_aot/videos/R_S_yt-FLMdajcbjcg_35.mp4	0.0	225.17065596580505	0.30058813095092773
60	162.4904329776764	response	0	2		58.0	2.5	/experiments/knapen_aot/videos/R_S_yt-FLMdajcbjcg_35.mp4	0.0	225.46250009536743	
60	162.49917697906494	movie	1		301.0	58.0	2.5	/experiments/knapen_aot/videos/R_S_yt-FLMdajcbjcg_35.mp4	0.0	225.47124409675598	2.5078799724578857
60	165.00705695152283	fix_post	2		12.0	58.0	2.5	/experiments/knapen_aot/videos/R_S_yt-FLMdajcbjcg_35.mp4	0.0	227.97912406921387	0.09994196891784668
61	165.10699892044067	fix_pre	0		11.0	59.0	2.5	/experiments/knapen_aot/videos/S_ILSVRC2015_train_00479001.mp4	0.0	228.0790660381317	0.09171700477600098
61	165.19037294387817	response	0	2		59.0	2.5	/experiments/knapen_aot/videos/S_ILSVRC2015_train_00479001.mp4	0.0	228.1624400615692	
61	165.19871592521667	movie	1		301.0	59.0	2.5	/experiments/knapen_aot/videos/S_ILSVRC2015_train_00479001.mp4	0.0	228.17078304290771	2.50826096534729
61	167.70697689056396	fix_post	2		12.0	59.0	2.5	/experiments/knapen_aot/videos/S_ILSVRC2015_train_00479001.mp4	0.0	230.679044008255	0.10001707077026367
62	167.80699396133423	fix_pre	0		14.0	60.0	2.5	/experiments/knapen_aot/videos/S_yt-31yLemkW42Q_111.mp4	0.0	230.77906107902527	0.11661791801452637
62	167.9153769016266	response	0	2		60.0	2.5	/experiments/knapen_aot/videos/S_yt-31yLemkW42Q_111.mp4	0.0	230.88744401931763	
62	167.92361187934875	movie	1		301.0	60.0	2.5	/experiments/knapen_aot/videos/S_yt-31yLemkW42Q_111.mp4	0.0	230.8956789970398	2.5082859992980957
62	170.43189787864685	fix_post	2		12.0	60.0	2.5	/experiments/knapen_aot/videos/S_yt-31yLemkW42Q_111.mp4	0.0	233.4039649963379	0.10015511512756348
63	170.5320529937744	fix_pre	0		38.0	61.0	2.5	blank	1.0	233.50412011146545	0.31660890579223633
63	170.83294296264648	response	0	2		61.0	2.5	blank	1.0	233.80501008033752	
63	170.84866189956665	movie	1		301.0	61.0	2.5	blank	1.0	233.8207290172577	2.5083229541778564
63	173.3569848537445	fix_post	2		12.0	61.0	2.5	blank	1.0	236.32905197143555	0.10055899620056152
64	173.45754384994507	fix_pre	0		14.0	62.0	2.5	/experiments/knapen_aot/videos/R_S_yt-kINZMjys3O4_112.mp4	0.0	236.4296109676361	0.11604905128479004
64	173.56530380249023	response	0	2		62.0	2.5	/experiments/knapen_aot/videos/R_S_yt-kINZMjys3O4_112.mp4	0.0	236.53737092018127	
64	173.57359290122986	movie	1		301.0	62.0	2.5	/experiments/knapen_aot/videos/R_S_yt-kINZMjys3O4_112.mp4	0.0	236.5456600189209	2.5083560943603516
64	176.0819489955902	fix_post	2		12.0	62.0	2.5	/experiments/knapen_aot/videos/R_S_yt-kINZMjys3O4_112.mp4	0.0	239.05401611328125	0.10003399848937988
65	176.1819829940796	fix_pre	0		7.0	63.0	2.5	/experiments/knapen_aot/videos/R_S_yt-7bSTxOajpjc_58.mp4	0.0	239.15405011177063	0.05818486213684082
65	176.23202395439148	response	0	2		63.0	2.5	/experiments/knapen_aot/videos/R_S_yt-7bSTxOajpjc_58.mp4	0.0	239.20409107208252	
65	176.24016785621643	movie	1		301.0	63.0	2.5	/experiments/knapen_aot/videos/R_S_yt-7bSTxOajpjc_58.mp4	0.0	239.21223497390747	2.508342981338501
65	178.74851083755493	fix_post	2		12.0	63.0	2.5	/experiments/knapen_aot/videos/R_S_yt-7bSTxOajpjc_58.mp4	0.0	241.72057795524597	0.10016798973083496
66	178.84867882728577	fix_pre	0		19.0	64.0	2.5	/experiments/knapen_aot/videos/S_ILSVRC2015_train_00318000.mp4	0.0	241.8207459449768	0.15812301635742188
66	178.99865984916687	response	0	2		64.0	2.5	/experiments/knapen_aot/videos/S_ILSVRC2015_train_00318000.mp4	0.0	241.9707269668579	
66	179.0068018436432	movie	1		301.0	64.0	2.5	/experiments/knapen_aot/videos/S_ILSVRC2015_train_00318000.mp4	0.0	241.97886896133423	2.508373975753784
66	181.51517581939697	fix_post	2		12.0	64.0	2.5	/experiments/knapen_aot/videos/S_ILSVRC2015_train_00318000.mp4	0.0	244.487242937088	0.10024404525756836
67	181.61541986465454	fix_pre	0		7.0	65.0	2.5	/experiments/knapen_aot/videos/R_S_yt-JG2OY_7B-gI_537.mp4	0.0	244.58748698234558	0.058110952377319336
67	181.66533994674683	response	0	2		65.0	2.5	/experiments/knapen_aot/videos/R_S_yt-JG2OY_7B-gI_537.mp4	0.0	244.63740706443787	
67	181.67353081703186	movie	1		301.0	65.0	2.5	/experiments/knapen_aot/videos/R_S_yt-JG2OY_7B-gI_537.mp4	0.0	244.6455979347229	2.5084331035614014
67	184.18196392059326	fix_post	2		12.0	65.0	2.5	/experiments/knapen_aot/videos/R_S_yt-JG2OY_7B-gI_537.mp4	0.0	247.1540310382843	0.09987998008728027
68	184.28184390068054	fix_pre	0		13.0	66.0	2.5	/experiments/knapen_aot/videos/S_yt-QqSceHxY3d0_356.mp4	0.0	247.25391101837158	0.10830807685852051
68	184.3820149898529	response	0	2		66.0	2.5	/experiments/knapen_aot/videos/S_yt-QqSceHxY3d0_356.mp4	0.0	247.35408210754395	
68	184.39015197753906	movie	1		301.0	66.0	2.5	/experiments/knapen_aot/videos/S_yt-QqSceHxY3d0_356.mp4	0.0	247.3622190952301	2.5085129737854004
68	186.89866495132446	fix_post	2		12.0	66.0	2.5	/experiments/knapen_aot/videos/S_yt-QqSceHxY3d0_356.mp4	0.0	249.8707320690155	0.10006594657897949
69	186.99873089790344	fix_pre	0		22.0	67.0	2.5	/experiments/knapen_aot/videos/R_S_wc-DcFDe419cL3d_17.mp4	0.0	249.97079801559448	0.18325209617614746
69	187.17362999916077	response	0	2		67.0	2.5	/experiments/knapen_aot/videos/R_S_wc-DcFDe419cL3d_17.mp4	0.0	250.1456971168518	
69	187.1819829940796	movie	1		167.0	67.0	2.5	/experiments/knapen_aot/videos/R_S_wc-DcFDe419cL3d_17.mp4	0.0	250.15405011177063	2.5086169242858887
69	189.69059991836548	fix_post	2		12.0	67.0	2.5	/experiments/knapen_aot/videos/R_S_wc-DcFDe419cL3d_17.mp4	0.0	252.66266703605652	0.09961700439453125
70	189.79021692276	fix_pre	0		1.0	68.0	2.5	/experiments/knapen_aot/videos/R_S_yt-QJ2k6vA8aco_12.mp4	0.0	252.76228404045105	0.008265972137451172
70	189.79205799102783	response	0	2		68.0	2.5	/experiments/knapen_aot/videos/R_S_yt-QJ2k6vA8aco_12.mp4	0.0	252.76412510871887	
70	189.79848289489746	movie	1		301.0	68.0	2.5	/experiments/knapen_aot/videos/R_S_yt-QJ2k6vA8aco_12.mp4	0.0	252.7705500125885	2.5084590911865234
70	192.30694198608398	fix_post	2		12.0	68.0	2.5	/experiments/knapen_aot/videos/R_S_yt-QJ2k6vA8aco_12.mp4	0.0	255.27900910377502	0.09990191459655762
71	192.40684390068054	fix_pre	0		18.0	69.0	2.5	/experiments/knapen_aot/videos/R_S_ILSVRC2015_train_00574004.mp4	0.0	255.37891101837158	0.14994406700134277
71	192.5485498905182	response	0	2		69.0	2.5	/experiments/knapen_aot/videos/R_S_ILSVRC2015_train_00574004.mp4	0.0	255.52061700820923	
71	192.55678796768188	movie	1		301.0	69.0	2.5	/experiments/knapen_aot/videos/R_S_ILSVRC2015_train_00574004.mp4	0.0	255.52885508537292	2.508415937423706
71	195.0652039051056	fix_post	2		12.0	69.0	2.5	/experiments/knapen_aot/videos/R_S_ILSVRC2015_train_00574004.mp4	0.0	258.03727102279663	0.09999704360961914
72	195.1652009487152	fix_pre	0		38.0	70.0	2.5	blank	1.0	258.13726806640625	0.3166489601135254
72	195.47368001937866	response	0	2		70.0	2.5	blank	1.0	258.4457471370697	
72	195.48184990882874	movie	1		301.0	70.0	2.5	blank	1.0	258.4539170265198	2.5083389282226562
72	197.9901888370514	fix_post	2		12.0	70.0	2.5	blank	1.0	260.96225595474243	0.09999203681945801
73	198.09018087387085	fix_pre	0		24.0	71.0	2.5	/experiments/knapen_aot/videos/S_ILSVRC2015_train_00165009.mp4	0.0	261.0622479915619	0.2003920078277588
73	198.28189897537231	response	0	2		71.0	2.5	/experiments/knapen_aot/videos/S_ILSVRC2015_train_00165009.mp4	0.0	261.25396609306335	
73	198.2905728816986	movie	1		301.0	71.0	2.5	/experiments/knapen_aot/videos/S_ILSVRC2015_train_00165009.mp4	0.0	261.26263999938965	2.508297920227051
73	200.79887080192566	fix_post	2		12.0	71.0	2.5	/experiments/knapen_aot/videos/S_ILSVRC2015_train_00165009.mp4	0.0	263.7709379196167	0.0996241569519043
74	200.89849495887756	fix_pre	0		26.0	72.0	2.5	/experiments/knapen_aot/videos/R_S_yt-jcuaf9iSEkI_169.mp4	0.0	263.8705620765686	0.2165980339050293
74	201.1069209575653	response	0	2		72.0	2.5	/experiments/knapen_aot/videos/R_S_yt-jcuaf9iSEkI_169.mp4	0.0	264.07898807525635	
74	201.1150929927826	movie	1		301.0	72.0	2.5	/experiments/knapen_aot/videos/R_S_yt-jcuaf9iSEkI_169.mp4	0.0	264.08716011047363	2.509178876876831
74	203.62427186965942	fix_post	2		12.0	72.0	2.5	/experiments/knapen_aot/videos/R_S_yt-jcuaf9iSEkI_169.mp4	0.0	266.59633898735046	0.09915900230407715
75	203.7234308719635	fix_pre	0		7.0	73.0	2.5	/experiments/knapen_aot/videos/S_video-8.mp4	0.0	266.69549798965454	0.05832695960998535
75	203.77371501922607	response	0	2		73.0	2.5	/experiments/knapen_aot/videos/S_video-8.mp4	0.0	266.7457821369171	
75	203.7817578315735	movie	1		203.0	73.0	2.5	/experiments/knapen_aot/videos/S_video-8.mp4	0.0	266.7538249492645	2.508341073989868
75	206.29009890556335	fix_post	2		12.0	73.0	2.5	/experiments/knapen_aot/videos/S_video-8.mp4	0.0	269.2621660232544	0.10012602806091309
76	206.39022493362427	fix_pre	0		17.0	74.0	2.5	/experiments/knapen_aot/videos/S_video-8.mp4	0.0	269.3622920513153	0.1415560245513916
76	206.52355790138245	response	0	2		74.0	2.5	/experiments/knapen_aot/videos/S_video-8.mp4	0.0	269.4956250190735	
76	206.53178095817566	movie	1		204.0	74.0	2.5	/experiments/knapen_aot/videos/S_video-8.mp4	0.0	269.5038480758667	2.50834584236145
76	209.0401268005371	fix_post	2		12.0	74.0	2.5	/experiments/knapen_aot/videos/S_video-8.mp4	0.0	272.01219391822815	0.10002803802490234
77	209.140154838562	fix_pre	0		7.0	75.0	2.5	/experiments/knapen_aot/videos/S_yt-4wjGeLyvfjY_223.mp4	0.0	272.11222195625305	0.058457136154174805
77	209.19023990631104	response	0	2		75.0	2.5	/experiments/knapen_aot/videos/S_yt-4wjGeLyvfjY_223.mp4	0.0	272.1623070240021	
77	209.1986119747162	movie	1		301.0	75.0	2.5	/experiments/knapen_aot/videos/S_yt-4wjGeLyvfjY_223.mp4	0.0	272.1706790924072	2.508168935775757
77	211.70678091049194	fix_post	2		12.0	75.0	2.5	/experiments/knapen_aot/videos/S_yt-4wjGeLyvfjY_223.mp4	0.0	274.678848028183	0.0999910831451416
78	211.80677199363708	fix_pre	0		21.0	76.0	2.5	/experiments/knapen_aot/videos/R_S_yt-gPhlnZG-pRY_4.mp4	0.0	274.7788391113281	0.17498993873596191
78	211.97354793548584	response	0	2		76.0	2.5	/experiments/knapen_aot/videos/R_S_yt-gPhlnZG-pRY_4.mp4	0.0	274.9456150531769	
78	211.98176193237305	movie	1		301.0	76.0	2.5	/experiments/knapen_aot/videos/R_S_yt-gPhlnZG-pRY_4.mp4	0.0	274.9538290500641	2.508707046508789
78	214.49046897888184	fix_post	2		12.0	76.0	2.5	/experiments/knapen_aot/videos/R_S_yt-gPhlnZG-pRY_4.mp4	0.0	277.4625360965729	0.09960198402404785
79	214.59007096290588	fix_pre	0		18.0	77.0	2.5	blank	1.0	277.5621380805969	0.15003204345703125
79	214.7318630218506	response	0	2		77.0	2.5	blank	1.0	277.7039301395416	
79	214.74010300636292	movie	1		301.0	77.0	2.5	blank	1.0	277.71217012405396	2.508283853530884
79	217.2483868598938	fix_post	2		12.0	77.0	2.5	blank	1.0	280.22045397758484	0.10005402565002441
80	217.34844088554382	fix_pre	0		21.0	78.0	2.5	/experiments/knapen_aot/videos/S_ILSVRC2015_train_00743000.mp4	0.0	280.32050800323486	0.17494606971740723
80	217.51517987251282	response	0	2		78.0	2.5	/experiments/knapen_aot/videos/S_ILSVRC2015_train_00743000.mp4	0.0	280.48724699020386	
80	217.52338695526123	movie	1		301.0	78.0	2.5	/experiments/knapen_aot/videos/S_ILSVRC2015_train_00743000.mp4	0.0	280.49545407295227	2.5083210468292236
80	220.03170800209045	fix_post	2		12.0	78.0	2.5	/experiments/knapen_aot/videos/S_ILSVRC2015_train_00743000.mp4	0.0	283.0037751197815	0.10003495216369629
81	220.13174295425415	fix_pre	0		10.0	79.0	2.5	/experiments/knapen_aot/videos/S_flickr-53807584@N00-5565833509_7.mp4	0.0	283.1038100719452	0.08327388763427734
81	220.20683598518372	response	0	2		79.0	2.5	/experiments/knapen_aot/videos/S_flickr-53807584@N00-5565833509_7.mp4	0.0	283.17890310287476	
81	220.21501684188843	movie	1		301.0	79.0	2.5	/experiments/knapen_aot/videos/S_flickr-53807584@N00-5565833509_7.mp4	0.0	283.18708395957947	2.508352041244507
81	222.72336888313293	fix_post	2		12.0	79.0	2.5	/experiments/knapen_aot/videos/S_flickr-53807584@N00-5565833509_7.mp4	0.0	285.695436000824	0.10004210472106934
82	222.823410987854	fix_pre	0		23.0	80.0	2.5	/experiments/knapen_aot/videos/R_S_yt-t8NfuFA7OlM_26.mp4	0.0	285.79547810554504	0.19162583351135254
82	223.00684785842896	response	0	2		80.0	2.5	/experiments/knapen_aot/videos/R_S_yt-t8NfuFA7OlM_26.mp4	0.0	285.97891497612	
82	223.01503682136536	movie	1		301.0	80.0	2.5	/experiments/knapen_aot/videos/R_S_yt-t8NfuFA7OlM_26.mp4	0.0	285.9871039390564	2.5087502002716064
82	225.52378702163696	fix_post	2		12.0	80.0	2.5	/experiments/knapen_aot/videos/R_S_yt-t8NfuFA7OlM_26.mp4	0.0	288.495854139328	0.09994196891784668
83	225.6237289905548	fix_pre	0		4.0	81.0	2.5	/experiments/knapen_aot/videos/S_yt-tEzCpMrjOHs_24.mp4	0.0	288.59579610824585	0.03299593925476074
83	225.6485459804535	response	0	2		81.0	2.5	/experiments/knapen_aot/videos/S_yt-tEzCpMrjOHs_24.mp4	0.0	288.62061309814453	
83	225.65672492980957	movie	1		301.0	81.0	2.5	/experiments/knapen_aot/videos/S_yt-tEzCpMrjOHs_24.mp4	0.0	288.6287920475006	2.508692979812622
83	228.1654179096222	fix_post	2		12.0	81.0	2.5	/experiments/knapen_aot/videos/S_yt-tEzCpMrjOHs_24.mp4	0.0	291.13748502731323	0.09964299201965332
84	228.26506090164185	fix_pre	0		37.0	82.0	2.5	blank	1.0	291.2371280193329	0.30826497077941895
84	228.56510400772095	response	0	2		82.0	2.5	blank	1.0	291.537171125412	
84	228.57332587242126	movie	1		301.0	82.0	2.5	blank	1.0	291.5453929901123	2.508384943008423
84	231.0817108154297	fix_post	2		12.0	82.0	2.5	blank	1.0	294.0537779331207	0.09993219375610352
85	231.1816430091858	fix_pre	0		35.0	83.0	2.5	/experiments/knapen_aot/videos/S_yt-IigHVUksnw8_7.mp4	0.0	294.15371012687683	0.29182982444763184
85	231.46522998809814	response	0	2		83.0	2.5	/experiments/knapen_aot/videos/S_yt-IigHVUksnw8_7.mp4	0.0	294.4372971057892	
85	231.47347283363342	movie	1		301.0	83.0	2.5	/experiments/knapen_aot/videos/S_yt-IigHVUksnw8_7.mp4	0.0	294.44553995132446	2.5082101821899414
85	233.98168301582336	fix_post	2		12.0	83.0	2.5	/experiments/knapen_aot/videos/S_yt-IigHVUksnw8_7.mp4	0.0	296.9537501335144	0.10033297538757324
87	234.08201599121094	stim	0		268.0					297.054083108902	2.2360029220581055
87	234.44846391677856	response	0	2						297.4205310344696	
87	236.31007194519043	response	0	space						299.28213906288147	
