trial_nr	onset	event_type	phase	response	nr_frames	movie_index	movie_duration	movie_file	blank	onset_abs	duration
0	0.12523102760314941	stim	0		24.0					58.14938306808472	0.1999039649963379
0	0.31707191467285156	response	0	space						58.34122395515442	
1	0.3251349925994873	stim	0		121.0					58.349287033081055	1.008120059967041
1	1.3332550525665283	stim	1		120.0					59.357407093048096	0.9997658729553223
1	1.359010934829712	response	1	space						59.38316297531128	
1	1.6668930053710938	response	1	space						59.69104504585266	
1	2.0412869453430176	response	1	space						60.065438985824585	
1	2.3162851333618164	response	1	space						60.340437173843384	
2	2.3330209255218506	fix_pre	0		28.0	0.0	2.5	/experiments/knapen_aot/videos/S_wc-PX_MIe5L43_3_16.mp4	0.0	60.35717296600342	0.23338699340820312
2	2.55800199508667	response	0	space		0.0	2.5	/experiments/knapen_aot/videos/S_wc-PX_MIe5L43_3_16.mp4	0.0	60.58215403556824	
2	2.5664079189300537	movie	1		301.0	0.0	2.5	/experiments/knapen_aot/videos/S_wc-PX_MIe5L43_3_16.mp4	0.0	60.59055995941162	2.5081050395965576
2	5.074512958526611	fix_post	2		12.0	0.0	2.5	/experiments/knapen_aot/videos/S_wc-PX_MIe5L43_3_16.mp4	0.0	63.09866499900818	0.09998106956481934
3	5.174494028091431	fix_pre	0		63.0	1.0	2.5	/experiments/knapen_aot/videos/R_S_yt-P001x88adE4_427.mp4	0.0	63.198646068573	0.5249590873718262
3	5.688544034957886	response	0	2		1.0	2.5	/experiments/knapen_aot/videos/R_S_yt-P001x88adE4_427.mp4	0.0	63.71269607543945	
3	5.699453115463257	movie	1		301.0	1.0	2.5	/experiments/knapen_aot/videos/R_S_yt-P001x88adE4_427.mp4	0.0	63.723605155944824	2.5084149837493896
3	8.207868099212646	fix_post	2		12.0	1.0	2.5	/experiments/knapen_aot/videos/R_S_yt-P001x88adE4_427.mp4	0.0	66.23202013969421	0.10002398490905762
4	8.307892084121704	fix_pre	0		63.0	2.0	2.5	/experiments/knapen_aot/videos/S_yt-31yLemkW42Q_111.mp4	0.0	66.33204412460327	0.5249090194702148
4	8.824773073196411	response	0	2		2.0	2.5	/experiments/knapen_aot/videos/S_yt-31yLemkW42Q_111.mp4	0.0	66.84892511367798	
4	8.832801103591919	movie	1		301.0	2.0	2.5	/experiments/knapen_aot/videos/S_yt-31yLemkW42Q_111.mp4	0.0	66.85695314407349	2.50858998298645
4	11.34139108657837	fix_post	2		12.0	2.0	2.5	/experiments/knapen_aot/videos/S_yt-31yLemkW42Q_111.mp4	0.0	69.36554312705994	0.10006189346313477
5	11.441452980041504	fix_pre	0		68.0	3.0	2.5	/experiments/knapen_aot/videos/S_comp_A083_C002_1130KZ_v04_SDR_PS_FINAL_20180725_SDR_2K_AVC.mp4	0.0	69.46560502052307	0.566352128982544
5	11.999644994735718	response	0	2		3.0	2.5	/experiments/knapen_aot/videos/S_comp_A083_C002_1130KZ_v04_SDR_PS_FINAL_20180725_SDR_2K_AVC.mp4	0.0	70.02379703521729	
5	12.007805109024048	movie	1		166.0	3.0	2.5	/experiments/knapen_aot/videos/S_comp_A083_C002_1130KZ_v04_SDR_PS_FINAL_20180725_SDR_2K_AVC.mp4	0.0	70.03195714950562	2.5084009170532227
5	14.51620602607727	fix_post	2		12.0	3.0	2.5	/experiments/knapen_aot/videos/S_comp_A083_C002_1130KZ_v04_SDR_PS_FINAL_20180725_SDR_2K_AVC.mp4	0.0	72.54035806655884	0.0999751091003418
6	14.616181135177612	fix_pre	0		64.0	4.0	2.5	/experiments/knapen_aot/videos/R_S_yt-44ip3uFe4YM_30.mp4	0.0	72.64033317565918	0.5334999561309814
6	15.141289949417114	response	0	2		4.0	2.5	/experiments/knapen_aot/videos/R_S_yt-44ip3uFe4YM_30.mp4	0.0	73.16544198989868	
6	15.149681091308594	movie	1		301.0	4.0	2.5	/experiments/knapen_aot/videos/R_S_yt-44ip3uFe4YM_30.mp4	0.0	73.17383313179016	2.5082638263702393
6	17.657944917678833	fix_post	2		12.0	4.0	2.5	/experiments/knapen_aot/videos/R_S_yt-44ip3uFe4YM_30.mp4	0.0	75.6820969581604	0.09995913505554199
7	17.757904052734375	fix_pre	0		41.0	5.0	2.5	/experiments/knapen_aot/videos/S_ILSVRC2015_train_00473000.mp4	0.0	75.78205609321594	0.34159302711486816
7	18.091259956359863	response	0	2		5.0	2.5	/experiments/knapen_aot/videos/S_ILSVRC2015_train_00473000.mp4	0.0	76.11541199684143	
7	18.099497079849243	movie	1		301.0	5.0	2.5	/experiments/knapen_aot/videos/S_ILSVRC2015_train_00473000.mp4	0.0	76.12364912033081	2.5086209774017334
7	20.608118057250977	fix_post	2		12.0	5.0	2.5	/experiments/knapen_aot/videos/S_ILSVRC2015_train_00473000.mp4	0.0	78.63227009773254	0.0996859073638916
8	20.707803964614868	fix_pre	0		48.0	6.0	2.5	/experiments/knapen_aot/videos/S_yt-0MB_IYX1fgo_44.mp4	0.0	78.73195600509644	0.40025997161865234
8	21.09204912185669	response	0	2		6.0	2.5	/experiments/knapen_aot/videos/S_yt-0MB_IYX1fgo_44.mp4	0.0	79.11620116233826	
8	21.10806393623352	movie	1		301.0	6.0	2.5	/experiments/knapen_aot/videos/S_yt-0MB_IYX1fgo_44.mp4	0.0	79.13221597671509	2.5080971717834473
8	23.616161108016968	fix_post	2		12.0	6.0	2.5	/experiments/knapen_aot/videos/S_yt-0MB_IYX1fgo_44.mp4	0.0	81.64031314849854	0.10001897811889648
9	23.716180086135864	fix_pre	0		48.0	7.0	2.5	blank	1.0	81.74033212661743	0.3999769687652588
9	24.100434064865112	response	0	2		7.0	2.5	blank	1.0	82.12458610534668	
9	24.116157054901123	movie	1		301.0	7.0	2.5	blank	1.0	82.14030909538269	2.5083260536193848
9	26.624483108520508	fix_post	2		12.0	7.0	2.5	blank	1.0	84.64863514900208	0.09996986389160156
10	26.72445297241211	fix_pre	0		52.0	8.0	2.5	/experiments/knapen_aot/videos/S_yt-EApB0DJ3ECg_119.mp4	0.0	84.74860501289368	0.433351993560791
10	27.1495099067688	response	0	2		8.0	2.5	/experiments/knapen_aot/videos/S_yt-EApB0DJ3ECg_119.mp4	0.0	85.17366194725037	
10	27.1578049659729	movie	1		301.0	8.0	2.5	/experiments/knapen_aot/videos/S_yt-EApB0DJ3ECg_119.mp4	0.0	85.18195700645447	2.508345127105713
10	29.666150093078613	fix_post	2		12.0	8.0	2.5	/experiments/knapen_aot/videos/S_yt-EApB0DJ3ECg_119.mp4	0.0	87.69030213356018	0.1001899242401123
11	29.766340017318726	fix_pre	0		47.0	9.0	2.5	/experiments/knapen_aot/videos/R_S_ILSVRC2015_train_00661001.mp4	0.0	87.7904920578003	0.39140796661376953
11	30.149558067321777	response	0	2		9.0	2.5	/experiments/knapen_aot/videos/R_S_ILSVRC2015_train_00661001.mp4	0.0	88.17371010780334	
11	30.157747983932495	movie	1		301.0	9.0	2.5	/experiments/knapen_aot/videos/R_S_ILSVRC2015_train_00661001.mp4	0.0	88.18190002441406	2.508384943008423
11	32.66613292694092	fix_post	2		12.0	9.0	2.5	/experiments/knapen_aot/videos/R_S_ILSVRC2015_train_00661001.mp4	0.0	90.69028496742249	0.10001206398010254
12	32.76614499092102	fix_pre	0		36.0	10.0	2.5	/experiments/knapen_aot/videos/R_S_yt-316ecr1BT84_44.mp4	0.0	90.79029703140259	0.3000481128692627
12	33.057902097702026	response	0	2		10.0	2.5	/experiments/knapen_aot/videos/R_S_yt-316ecr1BT84_44.mp4	0.0	91.0820541381836	
12	33.06619310379028	movie	1		301.0	10.0	2.5	/experiments/knapen_aot/videos/R_S_yt-316ecr1BT84_44.mp4	0.0	91.09034514427185	2.5083439350128174
12	35.5745370388031	fix_post	2		12.0	10.0	2.5	/experiments/knapen_aot/videos/R_S_yt-316ecr1BT84_44.mp4	0.0	93.59868907928467	0.09995102882385254
13	35.67448806762695	fix_pre	0		54.0	11.0	2.5	/experiments/knapen_aot/videos/R_S_production_ID_5139371.mp4	0.0	93.69864010810852	0.4498789310455322
13	36.11621403694153	response	0	2		11.0	2.5	/experiments/knapen_aot/videos/R_S_production_ID_5139371.mp4	0.0	94.1403660774231	
13	36.124366998672485	movie	1		168.0	11.0	2.5	/experiments/knapen_aot/videos/R_S_production_ID_5139371.mp4	0.0	94.14851903915405	2.50838303565979
13	38.632750034332275	fix_post	2		12.0	11.0	2.5	/experiments/knapen_aot/videos/R_S_production_ID_5139371.mp4	0.0	96.65690207481384	0.10040688514709473
14	38.73315691947937	fix_pre	0		45.0	12.0	2.5	/experiments/knapen_aot/videos/S_SPNvf6JCjGw_123.mp4	0.0	96.75730895996094	0.37468600273132324
14	39.09951996803284	response	0	2		12.0	2.5	/experiments/knapen_aot/videos/S_SPNvf6JCjGw_123.mp4	0.0	97.1236720085144	
14	39.10784292221069	movie	1		301.0	12.0	2.5	/experiments/knapen_aot/videos/S_SPNvf6JCjGw_123.mp4	0.0	97.13199496269226	2.50822114944458
14	41.61606407165527	fix_post	2		12.0	12.0	2.5	/experiments/knapen_aot/videos/S_SPNvf6JCjGw_123.mp4	0.0	99.64021611213684	0.09995293617248535
15	41.71601700782776	fix_pre	0		51.0	13.0	2.5	blank	1.0	99.74016904830933	0.4250059127807617
15	42.13286304473877	response	0	2		13.0	2.5	blank	1.0	100.15701508522034	
15	42.14102292060852	movie	1		301.0	13.0	2.5	blank	1.0	100.16517496109009	2.5084781646728516
15	44.64950108528137	fix_post	2		12.0	13.0	2.5	blank	1.0	102.67365312576294	0.0998678207397461
16	44.74936890602112	fix_pre	0		69.0	14.0	2.5	/experiments/knapen_aot/videos/R_S_yt-j-ifVbxZePQ_70.mp4	0.0	102.77352094650269	0.5750072002410889
16	45.316169023513794	response	0	2		14.0	2.5	/experiments/knapen_aot/videos/R_S_yt-j-ifVbxZePQ_70.mp4	0.0	103.34032106399536	
16	45.32437610626221	movie	1		301.0	14.0	2.5	/experiments/knapen_aot/videos/R_S_yt-j-ifVbxZePQ_70.mp4	0.0	103.34852814674377	2.5083320140838623
16	47.83270812034607	fix_post	2		12.0	14.0	2.5	/experiments/knapen_aot/videos/R_S_yt-j-ifVbxZePQ_70.mp4	0.0	105.85686016082764	0.10002779960632324
17	47.93273591995239	fix_pre	0		103.0	15.0	2.5	/experiments/knapen_aot/videos/R_S_yt-EApB0DJ3ECg_119.mp4	0.0	105.95688796043396	0.8582351207733154
17	48.78286409378052	response	0	2		15.0	2.5	/experiments/knapen_aot/videos/R_S_yt-EApB0DJ3ECg_119.mp4	0.0	106.80701613426208	
17	48.79097104072571	movie	1		301.0	15.0	2.5	/experiments/knapen_aot/videos/R_S_yt-EApB0DJ3ECg_119.mp4	0.0	106.81512308120728	2.508388042449951
17	51.29935908317566	fix_post	2		12.0	15.0	2.5	/experiments/knapen_aot/videos/R_S_yt-EApB0DJ3ECg_119.mp4	0.0	109.32351112365723	0.10008382797241211
18	51.39944291114807	fix_pre	0		46.0	16.0	2.5	/experiments/knapen_aot/videos/R_S_yt-31yLemkW42Q_111.mp4	0.0	109.42359495162964	0.3831801414489746
18	51.774511098861694	response	0	2		16.0	2.5	/experiments/knapen_aot/videos/R_S_yt-31yLemkW42Q_111.mp4	0.0	109.79866313934326	
18	51.782623052597046	movie	1		301.0	16.0	2.5	/experiments/knapen_aot/videos/R_S_yt-31yLemkW42Q_111.mp4	0.0	109.80677509307861	2.5085198879241943
18	54.29114294052124	fix_post	2		12.0	16.0	2.5	/experiments/knapen_aot/videos/R_S_yt-31yLemkW42Q_111.mp4	0.0	112.31529498100281	0.09989809989929199
19	54.39104104042053	fix_pre	0		33.0	17.0	2.5	/experiments/knapen_aot/videos/S_pexels-sora-shimazaki-5925295.mp4	0.0	112.4151930809021	0.2749190330505371
19	54.657761096954346	response	0	2		17.0	2.5	/experiments/knapen_aot/videos/S_pexels-sora-shimazaki-5925295.mp4	0.0	112.68191313743591	
19	54.66596007347107	movie	1		165.0	17.0	2.5	/experiments/knapen_aot/videos/S_pexels-sora-shimazaki-5925295.mp4	0.0	112.69011211395264	2.508388042449951
19	57.17434811592102	fix_post	2		12.0	17.0	2.5	/experiments/knapen_aot/videos/S_pexels-sora-shimazaki-5925295.mp4	0.0	115.19850015640259	0.1000068187713623
20	57.27435493469238	fix_pre	0		47.0	18.0	2.5	/experiments/knapen_aot/videos/S_production_ID_5146014.mp4	0.0	115.29850697517395	0.39161109924316406
20	57.657809019088745	response	0	2		18.0	2.5	/experiments/knapen_aot/videos/S_production_ID_5146014.mp4	0.0	115.68196105957031	
20	57.66596603393555	movie	1		165.0	18.0	2.5	/experiments/knapen_aot/videos/S_production_ID_5146014.mp4	0.0	115.69011807441711	2.508486032485962
20	60.17445206642151	fix_post	2		12.0	18.0	2.5	/experiments/knapen_aot/videos/S_production_ID_5146014.mp4	0.0	118.19860410690308	0.09987998008728027
21	60.27433204650879	fix_pre	0		49.0	19.0	2.5	blank	1.0	118.29848408699036	0.40828990936279297
21	60.67439293861389	response	0	2		19.0	2.5	blank	1.0	118.69854497909546	
21	60.68262195587158	movie	1		301.0	19.0	2.5	blank	1.0	118.70677399635315	2.5083870887756348
21	63.19100904464722	fix_post	2		12.0	19.0	2.5	blank	1.0	121.21516108512878	0.10004591941833496
22	63.29105496406555	fix_pre	0		55.0	20.0	2.5	/experiments/knapen_aot/videos/S_ILSVRC2015_train_00074011.mp4	0.0	121.31520700454712	0.45821404457092285
22	63.741055965423584	response	0	2		20.0	2.5	/experiments/knapen_aot/videos/S_ILSVRC2015_train_00074011.mp4	0.0	121.76520800590515	
22	63.749269008636475	movie	1		301.0	20.0	2.5	/experiments/knapen_aot/videos/S_ILSVRC2015_train_00074011.mp4	0.0	121.77342104911804	2.508371114730835
22	66.25764012336731	fix_post	2		12.0	20.0	2.5	/experiments/knapen_aot/videos/S_ILSVRC2015_train_00074011.mp4	0.0	124.28179216384888	0.09999299049377441
23	66.35763311386108	fix_pre	0		50.0	21.0	2.5	/experiments/knapen_aot/videos/R_S_yt-n1snPiGfg0A_45.mp4	0.0	124.38178515434265	0.4165618419647217
23	66.76609301567078	response	0	2		21.0	2.5	/experiments/knapen_aot/videos/R_S_yt-n1snPiGfg0A_45.mp4	0.0	124.79024505615234	
23	66.7741949558258	movie	1		301.0	21.0	2.5	/experiments/knapen_aot/videos/R_S_yt-n1snPiGfg0A_45.mp4	0.0	124.79834699630737	2.508424997329712
23	69.28261995315552	fix_post	2		12.0	21.0	2.5	/experiments/knapen_aot/videos/R_S_yt-n1snPiGfg0A_45.mp4	0.0	127.30677199363708	0.100006103515625
24	69.38262605667114	fix_pre	0		59.0	22.0	2.5	/experiments/knapen_aot/videos/S_yt-o_CT2MjZ9fA_216.mp4	0.0	127.40677809715271	0.4916050434112549
24	69.86614298820496	response	0	2		22.0	2.5	/experiments/knapen_aot/videos/S_yt-o_CT2MjZ9fA_216.mp4	0.0	127.89029502868652	
24	69.8742311000824	movie	1		300.0	22.0	2.5	/experiments/knapen_aot/videos/S_yt-o_CT2MjZ9fA_216.mp4	0.0	127.89838314056396	2.508275032043457
24	72.38250613212585	fix_post	2		12.0	22.0	2.5	/experiments/knapen_aot/videos/S_yt-o_CT2MjZ9fA_216.mp4	0.0	130.40665817260742	0.10013294219970703
25	72.48263907432556	fix_pre	0		84.0	23.0	2.5	/experiments/knapen_aot/videos/S_ILSVRC2015_train_00251005.mp4	0.0	130.50679111480713	0.6999359130859375
25	73.17434191703796	response	0	2		23.0	2.5	/experiments/knapen_aot/videos/S_ILSVRC2015_train_00251005.mp4	0.0	131.19849395751953	
25	73.1825749874115	movie	1		301.0	23.0	2.5	/experiments/knapen_aot/videos/S_ILSVRC2015_train_00251005.mp4	0.0	131.20672702789307	2.5083980560302734
25	75.69097304344177	fix_post	2		12.0	23.0	2.5	/experiments/knapen_aot/videos/S_ILSVRC2015_train_00251005.mp4	0.0	133.71512508392334	0.09992694854736328
26	75.79089999198914	fix_pre	0		70.0	24.0	2.5	/experiments/knapen_aot/videos/S_ILSVRC2015_train_00460000.mp4	0.0	133.8150520324707	0.5832979679107666
26	76.36606502532959	response	0	2		24.0	2.5	/experiments/knapen_aot/videos/S_ILSVRC2015_train_00460000.mp4	0.0	134.39021706581116	
26	76.3741979598999	movie	1		301.0	24.0	2.5	/experiments/knapen_aot/videos/S_ILSVRC2015_train_00460000.mp4	0.0	134.39835000038147	2.5083751678466797
26	78.88257312774658	fix_post	2		12.0	24.0	2.5	/experiments/knapen_aot/videos/S_ILSVRC2015_train_00460000.mp4	0.0	136.90672516822815	0.1000528335571289
27	78.98262596130371	fix_pre	0		52.0	25.0	2.5	/experiments/knapen_aot/videos/S_yt-2V2tq9-O_Nc_1669.mp4	0.0	137.00677800178528	0.4332549571990967
27	79.40766191482544	response	0	2		25.0	2.5	/experiments/knapen_aot/videos/S_yt-2V2tq9-O_Nc_1669.mp4	0.0	137.431813955307	
27	79.41588091850281	movie	1		301.0	25.0	2.5	/experiments/knapen_aot/videos/S_yt-2V2tq9-O_Nc_1669.mp4	0.0	137.44003295898438	2.5083370208740234
27	81.92421793937683	fix_post	2		12.0	25.0	2.5	/experiments/knapen_aot/videos/S_yt-2V2tq9-O_Nc_1669.mp4	0.0	139.9483699798584	0.10003519058227539
28	82.0242531299591	fix_pre	0		56.0	26.0	2.5	/experiments/knapen_aot/videos/S_yt-N1EsjM9gD5Q_21.mp4	0.0	140.04840517044067	0.4665799140930176
28	82.48270606994629	response	0	2		26.0	2.5	/experiments/knapen_aot/videos/S_yt-N1EsjM9gD5Q_21.mp4	0.0	140.50685811042786	
28	82.49083304405212	movie	1		301.0	26.0	2.5	/experiments/knapen_aot/videos/S_yt-N1EsjM9gD5Q_21.mp4	0.0	140.5149850845337	2.508370876312256
28	84.99920392036438	fix_post	2		12.0	26.0	2.5	/experiments/knapen_aot/videos/S_yt-N1EsjM9gD5Q_21.mp4	0.0	143.02335596084595	0.1002511978149414
29	85.09945511817932	fix_pre	0		64.0	27.0	2.5	blank	1.0	143.1236071586609	0.533087968826294
29	85.62428998947144	response	0	2		27.0	2.5	blank	1.0	143.648442029953	
29	85.63254308700562	movie	1		301.0	27.0	2.5	blank	1.0	143.65669512748718	2.5083529949188232
29	88.14089608192444	fix_post	2		12.0	27.0	2.5	blank	1.0	146.165048122406	0.10029387474060059
30	88.24118995666504	fix_pre	0		44.0	28.0	2.5	/experiments/knapen_aot/videos/S_yt-2ftSsLqRQnA_84.mp4	0.0	146.2653419971466	0.36631298065185547
30	88.59933710098267	response	0	2		28.0	2.5	/experiments/knapen_aot/videos/S_yt-2ftSsLqRQnA_84.mp4	0.0	146.62348914146423	
30	88.6075029373169	movie	1		301.0	28.0	2.5	/experiments/knapen_aot/videos/S_yt-2ftSsLqRQnA_84.mp4	0.0	146.63165497779846	2.5083580017089844
30	91.11586093902588	fix_post	2		12.0	28.0	2.5	/experiments/knapen_aot/videos/S_yt-2ftSsLqRQnA_84.mp4	0.0	149.14001297950745	0.0999910831451416
31	91.21585202217102	fix_pre	0		37.0	29.0	2.5	/experiments/knapen_aot/videos/R_S_yt-tX3slAQb9yY_13.mp4	0.0	149.2400040626526	0.30828309059143066
31	91.51598596572876	response	0	2		29.0	2.5	/experiments/knapen_aot/videos/R_S_yt-tX3slAQb9yY_13.mp4	0.0	149.54013800621033	
31	91.52413511276245	movie	1		301.0	29.0	2.5	/experiments/knapen_aot/videos/R_S_yt-tX3slAQb9yY_13.mp4	0.0	149.54828715324402	2.508391857147217
31	94.03252696990967	fix_post	2		12.0	29.0	2.5	/experiments/knapen_aot/videos/R_S_yt-tX3slAQb9yY_13.mp4	0.0	152.05667901039124	0.10003495216369629
32	94.13256192207336	fix_pre	0		67.0	30.0	2.5	/experiments/knapen_aot/videos/S_yt-x7NWmdlvVIQ_183.mp4	0.0	152.15671396255493	0.5582640171051025
32	94.68266201019287	response	0	2		30.0	2.5	/experiments/knapen_aot/videos/S_yt-x7NWmdlvVIQ_183.mp4	0.0	152.70681405067444	
32	94.69082593917847	movie	1		301.0	30.0	2.5	/experiments/knapen_aot/videos/S_yt-x7NWmdlvVIQ_183.mp4	0.0	152.71497797966003	2.5083701610565186
32	97.19919610023499	fix_post	2		12.0	30.0	2.5	/experiments/knapen_aot/videos/S_yt-x7NWmdlvVIQ_183.mp4	0.0	155.22334814071655	0.10006093978881836
33	97.2992570400238	fix_pre	0		55.0	31.0	2.5	/experiments/knapen_aot/videos/S_yt-RMjo2PPEPEA_112.mp4	0.0	155.32340908050537	0.45823192596435547
33	97.74928903579712	response	0	2		31.0	2.5	/experiments/knapen_aot/videos/S_yt-RMjo2PPEPEA_112.mp4	0.0	155.7734410762787	
33	97.75748896598816	movie	1		301.0	31.0	2.5	/experiments/knapen_aot/videos/S_yt-RMjo2PPEPEA_112.mp4	0.0	155.78164100646973	2.50833797454834
33	100.2658269405365	fix_post	2		12.0	31.0	2.5	/experiments/knapen_aot/videos/S_yt-RMjo2PPEPEA_112.mp4	0.0	158.28997898101807	0.10017609596252441
34	100.36600303649902	fix_pre	0		146.0	32.0	2.5	/experiments/knapen_aot/videos/R_S_ILSVRC2015_train_00373001.mp4	0.0	158.3901550769806	1.2164270877838135
34	101.57429003715515	response	0	2		32.0	2.5	/experiments/knapen_aot/videos/R_S_ILSVRC2015_train_00373001.mp4	0.0	159.59844207763672	
34	101.58243012428284	movie	1		301.0	32.0	2.5	/experiments/knapen_aot/videos/R_S_ILSVRC2015_train_00373001.mp4	0.0	159.6065821647644	2.5083298683166504
34	104.09075999259949	fix_post	2		12.0	32.0	2.5	/experiments/knapen_aot/videos/R_S_ILSVRC2015_train_00373001.mp4	0.0	162.11491203308105	0.1000370979309082
35	104.1907970905304	fix_pre	0		89.0	33.0	2.5	/experiments/knapen_aot/videos/S_yt-sIXdPhfS67U_203.mp4	0.0	162.21494913101196	0.74275803565979
35	104.92423605918884	response	0	2		33.0	2.5	/experiments/knapen_aot/videos/S_yt-sIXdPhfS67U_203.mp4	0.0	162.9483880996704	
35	104.93355512619019	movie	1		301.0	33.0	2.5	/experiments/knapen_aot/videos/S_yt-sIXdPhfS67U_203.mp4	0.0	162.95770716667175	2.5072388648986816
35	107.44079399108887	fix_post	2		12.0	33.0	2.5	/experiments/knapen_aot/videos/S_yt-sIXdPhfS67U_203.mp4	0.0	165.46494603157043	0.10000395774841309
36	107.54079794883728	fix_pre	0		86.0	34.0	2.5	/experiments/knapen_aot/videos/R_S_comp_H007_C003_PS_v01_SDR_PS_20180925_SDR_2K_AVC.mp4	0.0	165.56494998931885	0.7166011333465576
36	108.24923205375671	response	0	2		34.0	2.5	/experiments/knapen_aot/videos/R_S_comp_H007_C003_PS_v01_SDR_PS_20180925_SDR_2K_AVC.mp4	0.0	166.27338409423828	
36	108.25739908218384	movie	1		171.0	34.0	2.5	/experiments/knapen_aot/videos/R_S_comp_H007_C003_PS_v01_SDR_PS_20180925_SDR_2K_AVC.mp4	0.0	166.2815511226654	2.508368968963623
36	110.76576805114746	fix_post	2		12.0	34.0	2.5	/experiments/knapen_aot/videos/R_S_comp_H007_C003_PS_v01_SDR_PS_20180925_SDR_2K_AVC.mp4	0.0	168.78992009162903	0.10024905204772949
37	110.86601710319519	fix_pre	0		75.0	35.0	2.5	blank	1.0	168.89016914367676	0.6247179508209229
37	111.48256301879883	response	0	2		35.0	2.5	blank	1.0	169.5067150592804	
37	111.49073505401611	movie	1		301.0	35.0	2.5	blank	1.0	169.51488709449768	2.5083630084991455
37	113.99909806251526	fix_post	2		12.0	35.0	2.5	blank	1.0	172.02325010299683	0.10003495216369629
38	114.09913301467896	fix_pre	0		56.0	36.0	2.5	/experiments/knapen_aot/videos/S_Oo8otu7cQ20_112.mp4	0.0	172.12328505516052	0.4666140079498291
38	114.55753111839294	response	0	2		36.0	2.5	/experiments/knapen_aot/videos/S_Oo8otu7cQ20_112.mp4	0.0	172.5816831588745	
38	114.56574702262878	movie	1		301.0	36.0	2.5	/experiments/knapen_aot/videos/S_Oo8otu7cQ20_112.mp4	0.0	172.58989906311035	2.508341073989868
38	117.07408809661865	fix_post	2		12.0	36.0	2.5	/experiments/knapen_aot/videos/S_Oo8otu7cQ20_112.mp4	0.0	175.09824013710022	0.09993791580200195
39	117.17402601242065	fix_pre	0		42.0	37.0	2.5	/experiments/knapen_aot/videos/S_production_ID_5139371.mp4	0.0	175.19817805290222	0.3500049114227295
39	117.51600408554077	response	0	2		37.0	2.5	/experiments/knapen_aot/videos/S_production_ID_5139371.mp4	0.0	175.54015612602234	
39	117.52403092384338	movie	1		163.0	37.0	2.5	/experiments/knapen_aot/videos/S_production_ID_5139371.mp4	0.0	175.54818296432495	2.5083930492401123
39	120.0324239730835	fix_post	2		12.0	37.0	2.5	/experiments/knapen_aot/videos/S_production_ID_5139371.mp4	0.0	178.05657601356506	0.0999760627746582
40	120.13240003585815	fix_pre	0		35.0	38.0	2.5	/experiments/knapen_aot/videos/S_yt-fymgyhmYnMI_76.mp4	0.0	178.15655207633972	0.2916600704193115
40	120.41583609580994	response	0	2		38.0	2.5	/experiments/knapen_aot/videos/S_yt-fymgyhmYnMI_76.mp4	0.0	178.4399881362915	
40	120.42406010627747	movie	1		301.0	38.0	2.5	/experiments/knapen_aot/videos/S_yt-fymgyhmYnMI_76.mp4	0.0	178.44821214675903	2.508333921432495
40	122.93239402770996	fix_post	2		12.0	38.0	2.5	/experiments/knapen_aot/videos/S_yt-fymgyhmYnMI_76.mp4	0.0	180.95654606819153	0.10002398490905762
41	123.03241801261902	fix_pre	0		61.0	39.0	2.5	/experiments/knapen_aot/videos/R_S_comp_A083_C002_1130KZ_v04_SDR_PS_FINAL_20180725_SDR_2K_AVC.mp4	0.0	181.0565700531006	0.508357048034668
41	123.53247094154358	response	0	2		39.0	2.5	/experiments/knapen_aot/videos/R_S_comp_A083_C002_1130KZ_v04_SDR_PS_FINAL_20180725_SDR_2K_AVC.mp4	0.0	181.55662298202515	
41	123.54077506065369	movie	1		164.0	39.0	2.5	/experiments/knapen_aot/videos/R_S_comp_A083_C002_1130KZ_v04_SDR_PS_FINAL_20180725_SDR_2K_AVC.mp4	0.0	181.56492710113525	2.5083389282226562
41	126.04911398887634	fix_post	2		12.0	39.0	2.5	/experiments/knapen_aot/videos/R_S_comp_A083_C002_1130KZ_v04_SDR_PS_FINAL_20180725_SDR_2K_AVC.mp4	0.0	184.0732660293579	0.10000014305114746
42	126.14911413192749	fix_pre	0		41.0	40.0	2.5	blank	1.0	184.17326617240906	0.3415219783782959
42	126.48247194290161	response	0	2		40.0	2.5	blank	1.0	184.50662398338318	
42	126.49063611030579	movie	1		301.0	40.0	2.5	blank	1.0	184.51478815078735	2.5085268020629883
42	128.99916291236877	fix_post	2		12.0	40.0	2.5	blank	1.0	187.02331495285034	0.0998380184173584
43	129.09900093078613	fix_pre	0		85.0	41.0	2.5	/experiments/knapen_aot/videos/R_S_yt-RMjo2PPEPEA_112.mp4	0.0	187.1231529712677	0.7094299793243408
43	129.79912996292114	response	0	2		41.0	2.5	/experiments/knapen_aot/videos/R_S_yt-RMjo2PPEPEA_112.mp4	0.0	187.8232820034027	
43	129.80843091011047	movie	1		301.0	41.0	2.5	/experiments/knapen_aot/videos/R_S_yt-RMjo2PPEPEA_112.mp4	0.0	187.83258295059204	2.507296085357666
43	132.31572699546814	fix_post	2		12.0	41.0	2.5	/experiments/knapen_aot/videos/R_S_yt-RMjo2PPEPEA_112.mp4	0.0	190.3398790359497	0.09995102882385254
44	132.415678024292	fix_pre	0		39.0	42.0	2.5	/experiments/knapen_aot/videos/S_yt-G65z8p1YNhw_16.mp4	0.0	190.43983006477356	0.32504796981811523
44	132.732439994812	response	0	2		42.0	2.5	/experiments/knapen_aot/videos/S_yt-G65z8p1YNhw_16.mp4	0.0	190.75659203529358	
44	132.7407259941101	movie	1		301.0	42.0	2.5	/experiments/knapen_aot/videos/S_yt-G65z8p1YNhw_16.mp4	0.0	190.76487803459167	2.508315086364746
44	135.24904108047485	fix_post	2		12.0	42.0	2.5	/experiments/knapen_aot/videos/S_yt-G65z8p1YNhw_16.mp4	0.0	193.27319312095642	0.09996485710144043
45	135.3490059375763	fix_pre	0		44.0	43.0	2.5	/experiments/knapen_aot/videos/R_S_yt--I4Ggi6-QOE_23.mp4	0.0	193.37315797805786	0.3666510581970215
45	135.70745205879211	response	0	2		43.0	2.5	/experiments/knapen_aot/videos/R_S_yt--I4Ggi6-QOE_23.mp4	0.0	193.73160409927368	
45	135.71565699577332	movie	1		301.0	43.0	2.5	/experiments/knapen_aot/videos/R_S_yt--I4Ggi6-QOE_23.mp4	0.0	193.73980903625488	2.5085721015930176
45	138.22422909736633	fix_post	2		12.0	43.0	2.5	/experiments/knapen_aot/videos/R_S_yt--I4Ggi6-QOE_23.mp4	0.0	196.2483811378479	0.09981894493103027
46	138.32404804229736	fix_pre	0		62.0	44.0	2.5	/experiments/knapen_aot/videos/S_ILSVRC2015_train_00661001.mp4	0.0	196.34820008277893	0.5165870189666748
46	138.8324680328369	response	0	2		44.0	2.5	/experiments/knapen_aot/videos/S_ILSVRC2015_train_00661001.mp4	0.0	196.85662007331848	
46	138.84063506126404	movie	1		301.0	44.0	2.5	/experiments/knapen_aot/videos/S_ILSVRC2015_train_00661001.mp4	0.0	196.8647871017456	2.50846791267395
46	141.349102973938	fix_post	2		12.0	44.0	2.5	/experiments/knapen_aot/videos/S_ILSVRC2015_train_00661001.mp4	0.0	199.37325501441956	0.09990596771240234
47	141.4490089416504	fix_pre	0		60.0	45.0	2.5	/experiments/knapen_aot/videos/R_S_yt-kkbtZP78JxQ_96.mp4	0.0	199.47316098213196	0.49993896484375
47	141.94071292877197	response	0	2		45.0	2.5	/experiments/knapen_aot/videos/R_S_yt-kkbtZP78JxQ_96.mp4	0.0	199.96486496925354	
47	141.94894790649414	movie	1		301.0	45.0	2.5	/experiments/knapen_aot/videos/R_S_yt-kkbtZP78JxQ_96.mp4	0.0	199.9730999469757	2.5083930492401123
47	144.45734095573425	fix_post	2		12.0	45.0	2.5	/experiments/knapen_aot/videos/R_S_yt-kkbtZP78JxQ_96.mp4	0.0	202.48149299621582	0.1001131534576416
48	144.5574541091919	fix_pre	0		42.0	46.0	2.5	/experiments/knapen_aot/videos/R_S_yt-2XRGfGc0q44_37.mp4	0.0	202.58160614967346	0.3497889041900635
48	144.89906811714172	response	0	2		46.0	2.5	/experiments/knapen_aot/videos/R_S_yt-2XRGfGc0q44_37.mp4	0.0	202.9232201576233	
48	144.90724301338196	movie	1		301.0	46.0	2.5	/experiments/knapen_aot/videos/R_S_yt-2XRGfGc0q44_37.mp4	0.0	202.93139505386353	2.5084071159362793
48	147.41565012931824	fix_post	2		12.0	46.0	2.5	/experiments/knapen_aot/videos/R_S_yt-2XRGfGc0q44_37.mp4	0.0	205.4398021697998	0.09996986389160156
49	147.51561999320984	fix_pre	0		49.0	47.0	2.5	/experiments/knapen_aot/videos/S_yt--I4Ggi6-QOE_23.mp4	0.0	205.5397720336914	0.40830302238464355
49	147.9157419204712	response	0	2		47.0	2.5	/experiments/knapen_aot/videos/S_yt--I4Ggi6-QOE_23.mp4	0.0	205.93989396095276	
49	147.92392301559448	movie	1		301.0	47.0	2.5	/experiments/knapen_aot/videos/S_yt--I4Ggi6-QOE_23.mp4	0.0	205.94807505607605	2.508388042449951
49	150.43231105804443	fix_post	2		12.0	47.0	2.5	/experiments/knapen_aot/videos/S_yt--I4Ggi6-QOE_23.mp4	0.0	208.456463098526	0.09994101524353027
50	150.53225207328796	fix_pre	0		63.0	48.0	2.5	blank	1.0	208.55640411376953	0.5259339809417725
50	151.04907703399658	response	0	2		48.0	2.5	blank	1.0	209.07322907447815	
50	151.05818605422974	movie	1		301.0	48.0	2.5	blank	1.0	209.0823380947113	2.5074660778045654
50	153.5656521320343	fix_post	2		12.0	48.0	2.5	blank	1.0	211.58980417251587	0.09998583793640137
51	153.6656379699707	fix_pre	0		56.0	49.0	2.5	/experiments/knapen_aot/videos/S_production_ID_3709168.mp4	0.0	211.68979001045227	0.4666321277618408
51	154.11650204658508	response	0	2		49.0	2.5	/experiments/knapen_aot/videos/S_production_ID_3709168.mp4	0.0	212.14065408706665	
51	154.13227009773254	movie	1		192.0	49.0	2.5	/experiments/knapen_aot/videos/S_production_ID_3709168.mp4	0.0	212.1564221382141	2.5083329677581787
51	156.64060306549072	fix_post	2		12.0	49.0	2.5	/experiments/knapen_aot/videos/S_production_ID_3709168.mp4	0.0	214.6647551059723	0.09997200965881348
52	156.74057507514954	fix_pre	0		44.0	50.0	2.5	/experiments/knapen_aot/videos/S_yt-8QCcmqaEMPI_16.mp4	0.0	214.7647271156311	0.36667299270629883
52	157.09910106658936	response	0	2		50.0	2.5	/experiments/knapen_aot/videos/S_yt-8QCcmqaEMPI_16.mp4	0.0	215.12325310707092	
52	157.10724806785583	movie	1		298.0	50.0	2.5	/experiments/knapen_aot/videos/S_yt-8QCcmqaEMPI_16.mp4	0.0	215.1314001083374	2.5083348751068115
52	159.61558294296265	fix_post	2		12.0	50.0	2.5	/experiments/knapen_aot/videos/S_yt-8QCcmqaEMPI_16.mp4	0.0	217.6397349834442	0.0999600887298584
53	159.7155430316925	fix_pre	0		74.0	51.0	2.5	/experiments/knapen_aot/videos/R_S_yt-Ub5Xx5BqIOk_74.mp4	0.0	217.73969507217407	0.6166729927062988
53	160.32400012016296	response	0	2		51.0	2.5	/experiments/knapen_aot/videos/R_S_yt-Ub5Xx5BqIOk_74.mp4	0.0	218.34815216064453	
53	160.3322160243988	movie	1		301.0	51.0	2.5	/experiments/knapen_aot/videos/R_S_yt-Ub5Xx5BqIOk_74.mp4	0.0	218.35636806488037	2.508418083190918
53	162.84063410758972	fix_post	2		12.0	51.0	2.5	/experiments/knapen_aot/videos/R_S_yt-Ub5Xx5BqIOk_74.mp4	0.0	220.8647861480713	0.09993386268615723
54	162.94056797027588	fix_pre	0		51.0	52.0	2.5	/experiments/knapen_aot/videos/R_S_yt-2kPrGwVmRfE_169.mp4	0.0	220.96472001075745	0.42493295669555664
54	163.35734796524048	response	0	2		52.0	2.5	/experiments/knapen_aot/videos/R_S_yt-2kPrGwVmRfE_169.mp4	0.0	221.38150000572205	
54	163.36550092697144	movie	1		301.0	52.0	2.5	/experiments/knapen_aot/videos/R_S_yt-2kPrGwVmRfE_169.mp4	0.0	221.389652967453	2.5083751678466797
54	165.87387609481812	fix_post	2		12.0	52.0	2.5	/experiments/knapen_aot/videos/R_S_yt-2kPrGwVmRfE_169.mp4	0.0	223.89802813529968	0.10087704658508301
55	165.9747531414032	fix_pre	0		51.0	53.0	2.5	/experiments/knapen_aot/videos/S_ahUa35lQM6E_44.mp4	0.0	223.99890518188477	0.4241797924041748
55	166.39066195487976	response	0	2		53.0	2.5	/experiments/knapen_aot/videos/S_ahUa35lQM6E_44.mp4	0.0	224.41481399536133	
55	166.39893293380737	movie	1		301.0	53.0	2.5	/experiments/knapen_aot/videos/S_ahUa35lQM6E_44.mp4	0.0	224.42308497428894	2.5082850456237793
55	168.90721797943115	fix_post	2		12.0	53.0	2.5	/experiments/knapen_aot/videos/S_ahUa35lQM6E_44.mp4	0.0	226.93137001991272	0.09998393058776855
56	169.00720191001892	fix_pre	0		48.0	54.0	2.5	/experiments/knapen_aot/videos/S_yt-AHbFln6blfE_36.mp4	0.0	227.0313539505005	0.3999631404876709
56	169.39901208877563	response	0	2		54.0	2.5	/experiments/knapen_aot/videos/S_yt-AHbFln6blfE_36.mp4	0.0	227.4231641292572	
56	169.4071650505066	movie	1		301.0	54.0	2.5	/experiments/knapen_aot/videos/S_yt-AHbFln6blfE_36.mp4	0.0	227.43131709098816	2.508378028869629
56	171.91554307937622	fix_post	2		12.0	54.0	2.5	/experiments/knapen_aot/videos/S_yt-AHbFln6blfE_36.mp4	0.0	229.9396951198578	0.10001087188720703
57	172.01555395126343	fix_pre	0		71.0	55.0	2.5	blank	1.0	230.039705991745	0.5915400981903076
57	172.59135007858276	response	0	2		55.0	2.5	blank	1.0	230.61550211906433	
57	172.60709404945374	movie	1		301.0	55.0	2.5	blank	1.0	230.6312460899353	2.508431911468506
57	175.11552596092224	fix_post	2		12.0	55.0	2.5	blank	1.0	233.1396780014038	0.09997916221618652
58	175.21550512313843	fix_pre	0		66.0	56.0	2.5	/experiments/knapen_aot/videos/S_yt-XUnZ7FbBtvk_162.mp4	0.0	233.23965716362	0.5508909225463867
58	175.75724291801453	response	0	2		56.0	2.5	/experiments/knapen_aot/videos/S_yt-XUnZ7FbBtvk_162.mp4	0.0	233.7813949584961	
58	175.76639604568481	movie	1		301.0	56.0	2.5	/experiments/knapen_aot/videos/S_yt-XUnZ7FbBtvk_162.mp4	0.0	233.79054808616638	2.5074679851531982
58	178.273864030838	fix_post	2		12.0	56.0	2.5	/experiments/knapen_aot/videos/S_yt-XUnZ7FbBtvk_162.mp4	0.0	236.29801607131958	0.10005402565002441
59	178.37391805648804	fix_pre	0		81.0	57.0	2.5	/experiments/knapen_aot/videos/R_S_yt-EApB0DJ3ECg_119.mp4	0.0	236.3980700969696	0.6748800277709961
59	179.04060006141663	response	0	2		57.0	2.5	/experiments/knapen_aot/videos/R_S_yt-EApB0DJ3ECg_119.mp4	0.0	237.0647521018982	
59	179.04879808425903	movie	1		301.0	57.0	2.5	/experiments/knapen_aot/videos/R_S_yt-EApB0DJ3ECg_119.mp4	0.0	237.0729501247406	2.508430004119873
59	181.5572280883789	fix_post	2		12.0	57.0	2.5	/experiments/knapen_aot/videos/R_S_yt-EApB0DJ3ECg_119.mp4	0.0	239.58138012886047	0.09996199607849121
60	181.6571900844574	fix_pre	0		45.0	58.0	2.5	/experiments/knapen_aot/videos/S_ILSVRC2015_train_00708000.mp4	0.0	239.68134212493896	0.3748819828033447
60	182.01633191108704	response	0	2		58.0	2.5	/experiments/knapen_aot/videos/S_ILSVRC2015_train_00708000.mp4	0.0	240.0404839515686	
60	182.03207206726074	movie	1		301.0	58.0	2.5	/experiments/knapen_aot/videos/S_ILSVRC2015_train_00708000.mp4	0.0	240.0562241077423	2.508410930633545
60	184.5404829978943	fix_post	2		12.0	58.0	2.5	/experiments/knapen_aot/videos/S_ILSVRC2015_train_00708000.mp4	0.0	242.56463503837585	0.100006103515625
61	184.6404891014099	fix_pre	0		48.0	59.0	2.5	/experiments/knapen_aot/videos/S_yt-35i8UeYXjGw_47.mp4	0.0	242.66464114189148	0.3999769687652588
61	185.03224205970764	response	0	2		59.0	2.5	/experiments/knapen_aot/videos/S_yt-35i8UeYXjGw_47.mp4	0.0	243.0563941001892	
61	185.04046607017517	movie	1		301.0	59.0	2.5	/experiments/knapen_aot/videos/S_yt-35i8UeYXjGw_47.mp4	0.0	243.06461811065674	2.508305072784424
61	187.5487711429596	fix_post	2		12.0	59.0	2.5	/experiments/knapen_aot/videos/S_yt-35i8UeYXjGw_47.mp4	0.0	245.57292318344116	0.10003089904785156
62	187.64880204200745	fix_pre	0		61.0	60.0	2.5	/experiments/knapen_aot/videos/S_ILSVRC2015_train_00303008.mp4	0.0	245.672954082489	0.5083670616149902
62	188.14895701408386	response	0	2		60.0	2.5	/experiments/knapen_aot/videos/S_ILSVRC2015_train_00303008.mp4	0.0	246.17310905456543	
62	188.15716910362244	movie	1		301.0	60.0	2.5	/experiments/knapen_aot/videos/S_ILSVRC2015_train_00303008.mp4	0.0	246.181321144104	2.508356809616089
62	190.66552591323853	fix_post	2		12.0	60.0	2.5	/experiments/knapen_aot/videos/S_ILSVRC2015_train_00303008.mp4	0.0	248.6896779537201	0.0999600887298584
63	190.76548600196838	fix_pre	0		68.0	61.0	2.5	/experiments/knapen_aot/videos/S_yt-fymgyhmYnMI_76.mp4	0.0	248.78963804244995	0.5665500164031982
63	191.32389497756958	response	0	2		61.0	2.5	/experiments/knapen_aot/videos/S_yt-fymgyhmYnMI_76.mp4	0.0	249.34804701805115	
63	191.33203601837158	movie	1		301.0	61.0	2.5	/experiments/knapen_aot/videos/S_yt-fymgyhmYnMI_76.mp4	0.0	249.35618805885315	2.5085198879241943
63	193.84055590629578	fix_post	2		12.0	61.0	2.5	/experiments/knapen_aot/videos/S_yt-fymgyhmYnMI_76.mp4	0.0	251.86470794677734	0.09988021850585938
64	193.94043612480164	fix_pre	0		72.0	62.0	2.5	/experiments/knapen_aot/videos/R_S_yt-tX3slAQb9yY_13.mp4	0.0	251.9645881652832	0.5999147891998291
64	194.5247209072113	response	0	2		62.0	2.5	/experiments/knapen_aot/videos/R_S_yt-tX3slAQb9yY_13.mp4	0.0	252.54887294769287	
64	194.54035091400146	movie	1		301.0	62.0	2.5	/experiments/knapen_aot/videos/R_S_yt-tX3slAQb9yY_13.mp4	0.0	252.56450295448303	2.508411169052124
64	197.0487620830536	fix_post	2		12.0	62.0	2.5	/experiments/knapen_aot/videos/R_S_yt-tX3slAQb9yY_13.mp4	0.0	255.07291412353516	0.10000991821289062
65	197.14877200126648	fix_pre	0		33.0	63.0	2.5	blank	1.0	255.17292404174805	0.27497291564941406
65	197.41540503501892	response	0	2		63.0	2.5	blank	1.0	255.4395570755005	
65	197.4237449169159	movie	1		301.0	63.0	2.5	blank	1.0	255.44789695739746	2.5083820819854736
65	199.93212699890137	fix_post	2		12.0	63.0	2.5	blank	1.0	257.95627903938293	0.10018301010131836
66	200.03231000900269	fix_pre	0		56.0	64.0	2.5	/experiments/knapen_aot/videos/S_pexels-sora-shimazaki-5925295.mp4	0.0	258.05646204948425	0.46646690368652344
66	200.49051809310913	response	0	2		64.0	2.5	/experiments/knapen_aot/videos/S_pexels-sora-shimazaki-5925295.mp4	0.0	258.5146701335907	
66	200.4987769126892	movie	1		163.0	64.0	2.5	/experiments/knapen_aot/videos/S_pexels-sora-shimazaki-5925295.mp4	0.0	258.5229289531708	2.5083560943603516
66	203.00713300704956	fix_post	2		12.0	64.0	2.5	/experiments/knapen_aot/videos/S_pexels-sora-shimazaki-5925295.mp4	0.0	261.0312850475311	0.09989190101623535
67	203.1070249080658	fix_pre	0		81.0	65.0	2.5	/experiments/knapen_aot/videos/S_yt-c5KPuyzO-50_4.mp4	0.0	261.13117694854736	0.6749801635742188
67	203.77377009391785	response	0	2		65.0	2.5	/experiments/knapen_aot/videos/S_yt-c5KPuyzO-50_4.mp4	0.0	261.7979221343994	
67	203.78200507164001	movie	1		301.0	65.0	2.5	/experiments/knapen_aot/videos/S_yt-c5KPuyzO-50_4.mp4	0.0	261.8061571121216	2.5083768367767334
67	206.29038190841675	fix_post	2		12.0	65.0	2.5	/experiments/knapen_aot/videos/S_yt-c5KPuyzO-50_4.mp4	0.0	264.3145339488983	0.10000419616699219
68	206.39038610458374	fix_pre	0		48.0	66.0	2.5	/experiments/knapen_aot/videos/R_S_yt-j-ifVbxZePQ_70.mp4	0.0	264.4145381450653	0.4000389575958252
68	206.78216004371643	response	0	2		66.0	2.5	/experiments/knapen_aot/videos/R_S_yt-j-ifVbxZePQ_70.mp4	0.0	264.806312084198	
68	206.79042506217957	movie	1		301.0	66.0	2.5	/experiments/knapen_aot/videos/R_S_yt-j-ifVbxZePQ_70.mp4	0.0	264.81457710266113	2.5082969665527344
68	209.2987220287323	fix_post	2		12.0	66.0	2.5	/experiments/knapen_aot/videos/R_S_yt-j-ifVbxZePQ_70.mp4	0.0	267.32287406921387	0.10007405281066895
69	209.39879608154297	fix_pre	0		69.0	67.0	2.5	/experiments/knapen_aot/videos/R_S_production_ID_4325509.mp4	0.0	267.42294812202454	0.575537919998169
69	209.96550107002258	response	0	2		67.0	2.5	/experiments/knapen_aot/videos/R_S_production_ID_4325509.mp4	0.0	267.98965311050415	
69	209.97433400154114	movie	1		196.0	67.0	2.5	/experiments/knapen_aot/videos/R_S_production_ID_4325509.mp4	0.0	267.9984860420227	2.5076940059661865
69	212.48202800750732	fix_post	2		12.0	67.0	2.5	/experiments/knapen_aot/videos/R_S_production_ID_4325509.mp4	0.0	270.5061800479889	0.1001729965209961
70	212.58220100402832	fix_pre	0		64.0	68.0	2.5	/experiments/knapen_aot/videos/S_yt-G65z8p1YNhw_16.mp4	0.0	270.6063530445099	0.5331320762634277
70	213.10713291168213	response	0	2		68.0	2.5	/experiments/knapen_aot/videos/S_yt-G65z8p1YNhw_16.mp4	0.0	271.1312849521637	
70	213.11533308029175	movie	1		301.0	68.0	2.5	/experiments/knapen_aot/videos/S_yt-G65z8p1YNhw_16.mp4	0.0	271.1394851207733	2.5082509517669678
70	215.62358403205872	fix_post	2		12.0	68.0	2.5	/experiments/knapen_aot/videos/S_yt-G65z8p1YNhw_16.mp4	0.0	273.6477360725403	0.10027790069580078
71	215.72386193275452	fix_pre	0		45.0	69.0	2.5	blank	1.0	273.7480139732361	0.3753361701965332
71	216.0828800201416	response	0	2		69.0	2.5	blank	1.0	274.10703206062317	
71	216.09919810295105	movie	1		301.0	69.0	2.5	blank	1.0	274.1233501434326	2.5078859329223633
71	218.6070840358734	fix_post	2		12.0	69.0	2.5	blank	1.0	276.631236076355	0.10019302368164062
72	218.70727705955505	fix_pre	0		57.0	70.0	2.5	/experiments/knapen_aot/videos/S_yt-y6JsUW0eSW8_32.mp4	0.0	276.7314291000366	0.47522902488708496
72	219.17374300956726	response	0	2		70.0	2.5	/experiments/knapen_aot/videos/S_yt-y6JsUW0eSW8_32.mp4	0.0	277.1978950500488	
72	219.18250608444214	movie	1		301.0	70.0	2.5	/experiments/knapen_aot/videos/S_yt-y6JsUW0eSW8_32.mp4	0.0	277.2066581249237	2.507913827896118
72	221.69041991233826	fix_post	2		12.0	70.0	2.5	/experiments/knapen_aot/videos/S_yt-y6JsUW0eSW8_32.mp4	0.0	279.7145719528198	0.09987711906433105
73	221.7902970314026	fix_pre	0		65.0	71.0	2.5	/experiments/knapen_aot/videos/S_yt-IPiZqn4dG9k_9.mp4	0.0	279.81444907188416	0.5416619777679443
73	222.3237750530243	response	0	2		71.0	2.5	/experiments/knapen_aot/videos/S_yt-IPiZqn4dG9k_9.mp4	0.0	280.34792709350586	
73	222.33195900917053	movie	1		301.0	71.0	2.5	/experiments/knapen_aot/videos/S_yt-IPiZqn4dG9k_9.mp4	0.0	280.3561110496521	2.5083401203155518
73	224.84029912948608	fix_post	2		12.0	71.0	2.5	/experiments/knapen_aot/videos/S_yt-IPiZqn4dG9k_9.mp4	0.0	282.86445116996765	0.09999990463256836
74	224.94029903411865	fix_pre	0		47.0	72.0	2.5	/experiments/knapen_aot/videos/S_yt-etQaTgGOhR4_69.mp4	0.0	282.9644510746002	0.39165306091308594
74	225.32370805740356	response	0	2		72.0	2.5	/experiments/knapen_aot/videos/S_yt-etQaTgGOhR4_69.mp4	0.0	283.34786009788513	
74	225.33195209503174	movie	1		301.0	72.0	2.5	/experiments/knapen_aot/videos/S_yt-etQaTgGOhR4_69.mp4	0.0	283.3561041355133	2.5083699226379395
74	227.84032201766968	fix_post	2		12.0	72.0	2.5	/experiments/knapen_aot/videos/S_yt-etQaTgGOhR4_69.mp4	0.0	285.86447405815125	0.10014009475708008
75	227.94046211242676	fix_pre	0		64.0	73.0	2.5	/experiments/knapen_aot/videos/R_S_video_copy.mp4	0.0	285.9646141529083	0.5336029529571533
75	228.46539497375488	response	0	2		73.0	2.5	/experiments/knapen_aot/videos/R_S_video_copy.mp4	0.0	286.48954701423645	
75	228.4740650653839	movie	1		167.0	73.0	2.5	/experiments/knapen_aot/videos/R_S_video_copy.mp4	0.0	286.4982171058655	2.5078868865966797
75	230.9819519519806	fix_post	2		12.0	73.0	2.5	/experiments/knapen_aot/videos/R_S_video_copy.mp4	0.0	289.00610399246216	0.09994697570800781
76	231.0818989276886	fix_pre	0		43.0	74.0	2.5	/experiments/knapen_aot/videos/S_production_ID_4269182.mp4	0.0	289.10605096817017	0.3583340644836426
76	231.4320719242096	response	0	2		74.0	2.5	/experiments/knapen_aot/videos/S_production_ID_4269182.mp4	0.0	289.45622396469116	
76	231.44023299217224	movie	1		193.0	74.0	2.5	/experiments/knapen_aot/videos/S_production_ID_4269182.mp4	0.0	289.4643850326538	2.508389949798584
76	233.94862294197083	fix_post	2		12.0	74.0	2.5	/experiments/knapen_aot/videos/S_production_ID_4269182.mp4	0.0	291.9727749824524	0.1000070571899414
77	234.04862999916077	fix_pre	0		80.0	75.0	2.5	/experiments/knapen_aot/videos/R_S_yt-7XDVHp75fu4_93.mp4	0.0	292.07278203964233	0.6666219234466553
77	234.70698404312134	response	0	2		75.0	2.5	/experiments/knapen_aot/videos/R_S_yt-7XDVHp75fu4_93.mp4	0.0	292.7311360836029	
77	234.71525192260742	movie	1		301.0	75.0	2.5	/experiments/knapen_aot/videos/R_S_yt-7XDVHp75fu4_93.mp4	0.0	292.739403963089	2.5083541870117188
77	237.22360610961914	fix_post	2		12.0	75.0	2.5	/experiments/knapen_aot/videos/R_S_yt-7XDVHp75fu4_93.mp4	0.0	295.2477581501007	0.10000801086425781
78	237.3236141204834	fix_pre	0		52.0	76.0	2.5	blank	1.0	295.34776616096497	0.43326282501220703
78	237.7487120628357	response	0	2		76.0	2.5	blank	1.0	295.77286410331726	
78	237.7568769454956	movie	1		301.0	76.0	2.5	blank	1.0	295.7810289859772	2.5083651542663574
78	240.26524209976196	fix_post	2		12.0	76.0	2.5	blank	1.0	298.28939414024353	0.10011887550354004
79	240.3653609752655	fix_pre	0		76.0	77.0	2.5	/experiments/knapen_aot/videos/R_S_yt-TSSPDwAQLXs_158.mp4	0.0	298.38951301574707	0.633155107498169
79	240.99032998085022	response	0	2		77.0	2.5	/experiments/knapen_aot/videos/R_S_yt-TSSPDwAQLXs_158.mp4	0.0	299.0144820213318	
79	240.99851608276367	movie	1		301.0	77.0	2.5	/experiments/knapen_aot/videos/R_S_yt-TSSPDwAQLXs_158.mp4	0.0	299.02266812324524	2.5083930492401123
79	243.50690913200378	fix_post	2		12.0	77.0	2.5	/experiments/knapen_aot/videos/R_S_yt-TSSPDwAQLXs_158.mp4	0.0	301.53106117248535	0.0999748706817627
80	243.60688400268555	fix_pre	0		75.0	78.0	2.5	/experiments/knapen_aot/videos/S_ILSVRC2015_train_00417000.mp4	0.0	301.6310360431671	0.6249430179595947
80	244.22366404533386	response	0	2		78.0	2.5	/experiments/knapen_aot/videos/S_ILSVRC2015_train_00417000.mp4	0.0	302.24781608581543	
80	244.23182702064514	movie	1		301.0	78.0	2.5	/experiments/knapen_aot/videos/S_ILSVRC2015_train_00417000.mp4	0.0	302.2559790611267	2.508404016494751
80	246.7402310371399	fix_post	2		12.0	78.0	2.5	/experiments/knapen_aot/videos/S_ILSVRC2015_train_00417000.mp4	0.0	304.76438307762146	0.09999203681945801
81	246.84022307395935	fix_pre	0		47.0	79.0	2.5	/experiments/knapen_aot/videos/R_S_g201_TH_804_A001_8_SDR_20191031_SDR_2K_AVC.mp4	0.0	304.8643751144409	0.39179491996765137
81	247.22369194030762	response	0	2		79.0	2.5	/experiments/knapen_aot/videos/R_S_g201_TH_804_A001_8_SDR_20191031_SDR_2K_AVC.mp4	0.0	305.2478439807892	
81	247.232017993927	movie	1		171.0	79.0	2.5	/experiments/knapen_aot/videos/R_S_g201_TH_804_A001_8_SDR_20191031_SDR_2K_AVC.mp4	0.0	305.25617003440857	2.5085160732269287
81	249.74053406715393	fix_post	2		12.0	79.0	2.5	/experiments/knapen_aot/videos/R_S_g201_TH_804_A001_8_SDR_20191031_SDR_2K_AVC.mp4	0.0	307.7646861076355	0.0996549129486084
82	249.84018898010254	fix_pre	0		68.0	80.0	2.5	/experiments/knapen_aot/videos/S_MEX_A006_C008_SDR_20190923_SDR_2K_AVC.mp4	0.0	307.8643410205841	0.5666790008544922
82	250.39861297607422	response	0	2		80.0	2.5	/experiments/knapen_aot/videos/S_MEX_A006_C008_SDR_20190923_SDR_2K_AVC.mp4	0.0	308.4227650165558	
82	250.40686798095703	movie	1		166.0	80.0	2.5	/experiments/knapen_aot/videos/S_MEX_A006_C008_SDR_20190923_SDR_2K_AVC.mp4	0.0	308.4310200214386	2.5084710121154785
82	252.9153389930725	fix_post	2		12.0	80.0	2.5	/experiments/knapen_aot/videos/S_MEX_A006_C008_SDR_20190923_SDR_2K_AVC.mp4	0.0	310.9394910335541	0.1003420352935791
83	253.0156810283661	fix_pre	0		48.0	81.0	2.5	/experiments/knapen_aot/videos/S_comp_A083_C002_1130KZ_v04_SDR_PS_FINAL_20180725_SDR_2K_AVC.mp4	0.0	311.03983306884766	0.399446964263916
83	253.40695691108704	response	0	2		81.0	2.5	/experiments/knapen_aot/videos/S_comp_A083_C002_1130KZ_v04_SDR_PS_FINAL_20180725_SDR_2K_AVC.mp4	0.0	311.4311089515686	
83	253.41512799263	movie	1		164.0	81.0	2.5	/experiments/knapen_aot/videos/S_comp_A083_C002_1130KZ_v04_SDR_PS_FINAL_20180725_SDR_2K_AVC.mp4	0.0	311.4392800331116	2.5083799362182617
83	255.92350792884827	fix_post	2		12.0	81.0	2.5	/experiments/knapen_aot/videos/S_comp_A083_C002_1130KZ_v04_SDR_PS_FINAL_20180725_SDR_2K_AVC.mp4	0.0	313.94765996932983	0.10010600090026855
84	256.02361392974854	fix_pre	0		36.0	82.0	2.5	blank	1.0	314.0477659702301	0.29983019828796387
84	256.31533002853394	response	0	2		82.0	2.5	blank	1.0	314.3394820690155	
84	256.3234441280365	movie	1		301.0	82.0	2.5	blank	1.0	314.34759616851807	2.5084049701690674
84	258.83184909820557	fix_post	2		12.0	82.0	2.5	blank	1.0	316.85600113868713	0.09996986389160156
85	258.93181896209717	fix_pre	0		59.0	83.0	2.5	/experiments/knapen_aot/videos/R_S_pexels-cottonbro-10639398.mp4	0.0	316.95597100257874	0.4916400909423828
85	259.4152829647064	response	0	2		83.0	2.5	/experiments/knapen_aot/videos/R_S_pexels-cottonbro-10639398.mp4	0.0	317.439435005188	
85	259.42345905303955	movie	1		200.0	83.0	2.5	/experiments/knapen_aot/videos/R_S_pexels-cottonbro-10639398.mp4	0.0	317.4476110935211	2.5085508823394775
85	261.932009935379	fix_post	2		12.0	83.0	2.5	/experiments/knapen_aot/videos/R_S_pexels-cottonbro-10639398.mp4	0.0	319.9561619758606	0.09987211227416992
87	262.0318820476532	stim	0		97.0					320.05603408813477	0.8099510669708252
87	262.83345103263855	response	0	space						320.8576030731201	
