trial_nr	onset	event_type	phase	response	nr_frames	movie_index	movie_duration	movie_file	blank	onset_abs	duration
0	0.15715408325195312	stim	0		42.0					177.15567708015442	0.35001206398010254
0	0.49912309646606445	response	0	space						177.49764609336853	
1	0.5071661472320557	stim	0		121.0					177.50568914413452	1.0081508159637451
1	1.340682029724121	response	0	space						178.3392050266266	
1	1.5153169631958008	stim	1		120.0					178.51383996009827	0.9999489784240723
1	1.6570451259613037	response	1	space						178.65556812286377	
1	2.4820990562438965	response	1	space						179.48062205314636	
2	2.515265941619873	fix_pre	0		29.0	0.0	2.5	/experiments/knapen_aot/videos/R_S_ILSVRC2015_train_00594000.mp4	0.0	179.51378893852234	0.24167609214782715
2	2.7487010955810547	response	0	space		0.0	2.5	/experiments/knapen_aot/videos/R_S_ILSVRC2015_train_00594000.mp4	0.0	179.74722409248352	
2	2.7569420337677	movie	1		301.0	0.0	2.5	/experiments/knapen_aot/videos/R_S_ILSVRC2015_train_00594000.mp4	0.0	179.75546503067017	2.5083069801330566
2	5.265249013900757	fix_post	2		12.0	0.0	2.5	/experiments/knapen_aot/videos/R_S_ILSVRC2015_train_00594000.mp4	0.0	182.26377201080322	0.09996294975280762
3	5.3652119636535645	fix_pre	0		43.0	1.0	2.5	/experiments/knapen_aot/videos/S_yt-dWF89kq2JIA_13.mp4	0.0	182.36373496055603	0.35835909843444824
3	5.719020128250122	response	0	2		1.0	2.5	/experiments/knapen_aot/videos/S_yt-dWF89kq2JIA_13.mp4	0.0	182.7175431251526	
3	5.723571062088013	movie	1		301.0	1.0	2.5	/experiments/knapen_aot/videos/S_yt-dWF89kq2JIA_13.mp4	0.0	182.72209405899048	2.508354902267456
3	8.231925964355469	fix_post	2		12.0	1.0	2.5	/experiments/knapen_aot/videos/S_yt-dWF89kq2JIA_13.mp4	0.0	185.23044896125793	0.09992814064025879
4	8.331854104995728	fix_pre	0		70.0	2.0	2.5	/experiments/knapen_aot/videos/R_S_pexels-diva-plavalaguna-6985395_1.mp4	0.0	185.3303771018982	0.5844449996948242
4	8.907092094421387	response	0	2		2.0	2.5	/experiments/knapen_aot/videos/R_S_pexels-diva-plavalaguna-6985395_1.mp4	0.0	185.90561509132385	
4	8.916299104690552	movie	1		160.0	2.0	2.5	/experiments/knapen_aot/videos/R_S_pexels-diva-plavalaguna-6985395_1.mp4	0.0	185.91482210159302	2.5072178840637207
4	11.423516988754272	fix_post	2		12.0	2.0	2.5	/experiments/knapen_aot/videos/R_S_pexels-diva-plavalaguna-6985395_1.mp4	0.0	188.42203998565674	0.09997916221618652
5	11.523496150970459	fix_pre	0		24.0	3.0	2.5	/experiments/knapen_aot/videos/S_yt-a5TGHnldsKg_102.mp4	0.0	188.52201914787292	0.20004987716674805
5	11.715346097946167	response	0	2		3.0	2.5	/experiments/knapen_aot/videos/S_yt-a5TGHnldsKg_102.mp4	0.0	188.71386909484863	
5	11.723546028137207	movie	1		301.0	3.0	2.5	/experiments/knapen_aot/videos/S_yt-a5TGHnldsKg_102.mp4	0.0	188.72206902503967	2.508347988128662
5	14.23189401626587	fix_post	2		12.0	3.0	2.5	/experiments/knapen_aot/videos/S_yt-a5TGHnldsKg_102.mp4	0.0	191.23041701316833	0.10001802444458008
6	14.33191204071045	fix_pre	0		48.0	4.0	2.5	/experiments/knapen_aot/videos/S_yt-fA0nOetbOJY_580.mp4	0.0	191.33043503761292	0.39994311332702637
6	14.723827123641968	response	0	2		4.0	2.5	/experiments/knapen_aot/videos/S_yt-fA0nOetbOJY_580.mp4	0.0	191.72235012054443	
6	14.731855154037476	movie	1		301.0	4.0	2.5	/experiments/knapen_aot/videos/S_yt-fA0nOetbOJY_580.mp4	0.0	191.73037815093994	2.5083539485931396
6	17.240209102630615	fix_post	2		12.0	4.0	2.5	/experiments/knapen_aot/videos/S_yt-fA0nOetbOJY_580.mp4	0.0	194.23873209953308	0.10002803802490234
7	17.340237140655518	fix_pre	0		28.0	5.0	2.5	/experiments/knapen_aot/videos/S_flickr-clarkstonscamp-4863427159_1.mp4	0.0	194.33876013755798	0.23331093788146973
7	17.565344095230103	response	0	2		5.0	2.5	/experiments/knapen_aot/videos/S_flickr-clarkstonscamp-4863427159_1.mp4	0.0	194.56386709213257	
7	17.573548078536987	movie	1		301.0	5.0	2.5	/experiments/knapen_aot/videos/S_flickr-clarkstonscamp-4863427159_1.mp4	0.0	194.57207107543945	2.508316993713379
7	20.081865072250366	fix_post	2		12.0	5.0	2.5	/experiments/knapen_aot/videos/S_flickr-clarkstonscamp-4863427159_1.mp4	0.0	197.08038806915283	0.09999489784240723
8	20.181859970092773	fix_pre	0		21.0	6.0	2.5	blank	1.0	197.18038296699524	0.1749870777130127
8	20.3486430644989	response	0	2		6.0	2.5	blank	1.0	197.34716606140137	
8	20.356847047805786	movie	1		301.0	6.0	2.5	blank	1.0	197.35537004470825	2.5083138942718506
8	22.865160942077637	fix_post	2		12.0	6.0	2.5	blank	1.0	199.8636839389801	0.10002803802490234
9	22.96518898010254	fix_pre	0		41.0	7.0	2.5	/experiments/knapen_aot/videos/S_yt-hRAqAwRhmwE_58.mp4	0.0	199.963711977005	0.34157800674438477
9	23.298665046691895	response	0	2		7.0	2.5	/experiments/knapen_aot/videos/S_yt-hRAqAwRhmwE_58.mp4	0.0	200.29718804359436	
9	23.306766986846924	movie	1		301.0	7.0	2.5	/experiments/knapen_aot/videos/S_yt-hRAqAwRhmwE_58.mp4	0.0	200.3052899837494	2.508315086364746
9	25.81508207321167	fix_post	2		12.0	7.0	2.5	/experiments/knapen_aot/videos/S_yt-hRAqAwRhmwE_58.mp4	0.0	202.81360507011414	0.10008096694946289
10	25.915163040161133	fix_pre	0		31.0	8.0	2.5	/experiments/knapen_aot/videos/S_yt-hHdxZ26SImA_17.mp4	0.0	202.9136860370636	0.26663994789123535
10	26.17359209060669	response	0	2		8.0	2.5	/experiments/knapen_aot/videos/S_yt-hHdxZ26SImA_17.mp4	0.0	203.17211508750916	
10	26.181802988052368	movie	1		301.0	8.0	2.5	/experiments/knapen_aot/videos/S_yt-hHdxZ26SImA_17.mp4	0.0	203.18032598495483	2.5083940029144287
10	28.690196990966797	fix_post	2		12.0	8.0	2.5	/experiments/knapen_aot/videos/S_yt-hHdxZ26SImA_17.mp4	0.0	205.68871998786926	0.09996294975280762
11	28.790159940719604	fix_pre	0		66.0	9.0	2.5	/experiments/knapen_aot/videos/S_yt-GyMWMiWvuiA_237.mp4	0.0	205.78868293762207	0.5499870777130127
11	29.32445001602173	response	0	2		9.0	2.5	/experiments/knapen_aot/videos/S_yt-GyMWMiWvuiA_237.mp4	0.0	206.3229730129242	
11	29.340147018432617	movie	1		301.0	9.0	2.5	/experiments/knapen_aot/videos/S_yt-GyMWMiWvuiA_237.mp4	0.0	206.33867001533508	2.508305072784424
11	31.84845209121704	fix_post	2		12.0	9.0	2.5	/experiments/knapen_aot/videos/S_yt-GyMWMiWvuiA_237.mp4	0.0	208.8469750881195	0.0999460220336914
12	31.948398113250732	fix_pre	0		23.0	10.0	2.5	/experiments/knapen_aot/videos/R_S_production_ID_4820868.mp4	0.0	208.9469211101532	0.19166803359985352
12	32.13189101219177	response	0	2		10.0	2.5	/experiments/knapen_aot/videos/R_S_production_ID_4820868.mp4	0.0	209.13041400909424	
12	32.140066146850586	movie	1		166.0	10.0	2.5	/experiments/knapen_aot/videos/R_S_production_ID_4820868.mp4	0.0	209.13858914375305	2.50839900970459
12	34.648465156555176	fix_post	2		12.0	10.0	2.5	/experiments/knapen_aot/videos/R_S_production_ID_4820868.mp4	0.0	211.64698815345764	0.09998583793640137
13	34.74845099449158	fix_pre	0		10.0	11.0	2.5	/experiments/knapen_aot/videos/S_comp_GMT110_112NC_364D_1054_AURORA_ANTARTICA__COMP_FINAL_v34_PS_SDR_20181107_SDR_2K_AVC.mp4	0.0	211.74697399139404	0.08427810668945312
13	34.81668710708618	response	0	2		11.0	2.5	/experiments/knapen_aot/videos/S_comp_GMT110_112NC_364D_1054_AURORA_ANTARTICA__COMP_FINAL_v34_PS_SDR_20181107_SDR_2K_AVC.mp4	0.0	211.81521010398865	
13	34.83272910118103	movie	1		162.0	11.0	2.5	/experiments/knapen_aot/videos/S_comp_GMT110_112NC_364D_1054_AURORA_ANTARTICA__COMP_FINAL_v34_PS_SDR_20181107_SDR_2K_AVC.mp4	0.0	211.8312520980835	2.5073790550231934
13	37.340108156204224	fix_post	2		12.0	11.0	2.5	/experiments/knapen_aot/videos/S_comp_GMT110_112NC_364D_1054_AURORA_ANTARTICA__COMP_FINAL_v34_PS_SDR_20181107_SDR_2K_AVC.mp4	0.0	214.3386311531067	0.09997177124023438
14	37.44007992744446	fix_pre	0		35.0	12.0	2.5	/experiments/knapen_aot/videos/S_ILSVRC2015_train_00578001.mp4	0.0	214.43860292434692	0.29172611236572266
14	37.723549127578735	response	0	2		12.0	2.5	/experiments/knapen_aot/videos/S_ILSVRC2015_train_00578001.mp4	0.0	214.7220721244812	
14	37.73180603981018	movie	1		301.0	12.0	2.5	/experiments/knapen_aot/videos/S_ILSVRC2015_train_00578001.mp4	0.0	214.73032903671265	2.5082099437713623
14	40.24001598358154	fix_post	2		12.0	12.0	2.5	/experiments/knapen_aot/videos/S_ILSVRC2015_train_00578001.mp4	0.0	217.238538980484	0.10005712509155273
15	40.340073108673096	fix_pre	0		19.0	13.0	2.5	/experiments/knapen_aot/videos/R_S_comp_GMT329_113NC_396B_1105_ITALY_v03_SDR_FINAL_20180706_SDR_2K_AVC.mp4	0.0	217.33859610557556	0.15926384925842285
15	40.4902400970459	response	0	2		13.0	2.5	/experiments/knapen_aot/videos/R_S_comp_GMT329_113NC_396B_1105_ITALY_v03_SDR_FINAL_20180706_SDR_2K_AVC.mp4	0.0	217.48876309394836	
15	40.49933695793152	movie	1		166.0	13.0	2.5	/experiments/knapen_aot/videos/R_S_comp_GMT329_113NC_396B_1105_ITALY_v03_SDR_FINAL_20180706_SDR_2K_AVC.mp4	0.0	217.49785995483398	2.5073561668395996
15	43.00669312477112	fix_post	2		12.0	13.0	2.5	/experiments/knapen_aot/videos/R_S_comp_GMT329_113NC_396B_1105_ITALY_v03_SDR_FINAL_20180706_SDR_2K_AVC.mp4	0.0	220.00521612167358	0.1000518798828125
16	43.10674500465393	fix_pre	0		35.0	14.0	2.5	blank	1.0	220.1052680015564	0.2916741371154785
16	43.39018201828003	response	0	2		14.0	2.5	blank	1.0	220.3887050151825	
16	43.39841914176941	movie	1		301.0	14.0	2.5	blank	1.0	220.39694213867188	2.5082759857177734
16	45.90669512748718	fix_post	2		12.0	14.0	2.5	blank	1.0	222.90521812438965	0.1000068187713623
17	46.006701946258545	fix_pre	0		28.0	15.0	2.5	/experiments/knapen_aot/videos/S_yt-BDCyXL5e9S4_223.mp4	0.0	223.005224943161	0.23331904411315918
17	46.231717109680176	response	0	2		15.0	2.5	/experiments/knapen_aot/videos/S_yt-BDCyXL5e9S4_223.mp4	0.0	223.23024010658264	
17	46.240020990371704	movie	1		301.0	15.0	2.5	/experiments/knapen_aot/videos/S_yt-BDCyXL5e9S4_223.mp4	0.0	223.23854398727417	2.508376121520996
17	48.7483971118927	fix_post	2		12.0	15.0	2.5	/experiments/knapen_aot/videos/S_yt-BDCyXL5e9S4_223.mp4	0.0	225.74692010879517	0.09988689422607422
18	48.848284006118774	fix_pre	0		38.0	16.0	2.5	/experiments/knapen_aot/videos/R_S_yt_R-lST38EdfMMQ_5.mp4	0.0	225.84680700302124	0.3176140785217285
18	49.1568329334259	response	0	2		16.0	2.5	/experiments/knapen_aot/videos/R_S_yt_R-lST38EdfMMQ_5.mp4	0.0	226.15535593032837	
18	49.1658980846405	movie	1		301.0	16.0	2.5	/experiments/knapen_aot/videos/R_S_yt_R-lST38EdfMMQ_5.mp4	0.0	226.16442108154297	2.5074830055236816
18	51.673381090164185	fix_post	2		12.0	16.0	2.5	/experiments/knapen_aot/videos/R_S_yt_R-lST38EdfMMQ_5.mp4	0.0	228.67190408706665	0.09997296333312988
19	51.773354053497314	fix_pre	0		7.0	17.0	2.5	/experiments/knapen_aot/videos/R_S_yt-2cwARrUMj40_67.mp4	0.0	228.77187705039978	0.059144020080566406
19	51.82346296310425	response	0	2		17.0	2.5	/experiments/knapen_aot/videos/R_S_yt-2cwARrUMj40_67.mp4	0.0	228.8219859600067	
19	51.83249807357788	movie	1		301.0	17.0	2.5	/experiments/knapen_aot/videos/R_S_yt-2cwARrUMj40_67.mp4	0.0	228.83102107048035	2.50752592086792
19	54.3400239944458	fix_post	2		12.0	17.0	2.5	/experiments/knapen_aot/videos/R_S_yt-2cwARrUMj40_67.mp4	0.0	231.33854699134827	0.10001707077026367
20	54.440041065216064	fix_pre	0		17.0	18.0	2.5	/experiments/knapen_aot/videos/R_S_comp_A351_C001_v06_SDR_PS_20180725_SDR_2K_AVC.mp4	0.0	231.43856406211853	0.1424269676208496
20	54.57349514961243	response	0	2		18.0	2.5	/experiments/knapen_aot/videos/R_S_comp_A351_C001_v06_SDR_PS_20180725_SDR_2K_AVC.mp4	0.0	231.5720181465149	
20	54.582468032836914	movie	1		166.0	18.0	2.5	/experiments/knapen_aot/videos/R_S_comp_A351_C001_v06_SDR_PS_20180725_SDR_2K_AVC.mp4	0.0	231.58099102973938	2.507568120956421
20	57.090036153793335	fix_post	2		12.0	18.0	2.5	/experiments/knapen_aot/videos/R_S_comp_A351_C001_v06_SDR_PS_20180725_SDR_2K_AVC.mp4	0.0	234.0885591506958	0.10001182556152344
21	57.19004797935486	fix_pre	0		9.0	19.0	2.5	/experiments/knapen_aot/videos/R_S_yt-hdZEAsVBEEM_19.mp4	0.0	234.18857097625732	0.08332705497741699
21	57.25687003135681	response	0	2		19.0	2.5	/experiments/knapen_aot/videos/R_S_yt-hdZEAsVBEEM_19.mp4	0.0	234.25539302825928	
21	57.273375034332275	movie	1		300.0	19.0	2.5	/experiments/knapen_aot/videos/R_S_yt-hdZEAsVBEEM_19.mp4	0.0	234.27189803123474	2.4999289512634277
21	59.7733039855957	fix_post	2		12.0	19.0	2.5	/experiments/knapen_aot/videos/R_S_yt-hdZEAsVBEEM_19.mp4	0.0	236.77182698249817	0.10017514228820801
22	59.87347912788391	fix_pre	0		26.0	20.0	2.5	blank	1.0	236.87200212478638	0.21660494804382324
22	60.08175015449524	response	0	2		20.0	2.5	blank	1.0	237.0802731513977	
22	60.090084075927734	movie	1		301.0	20.0	2.5	blank	1.0	237.0886070728302	2.5082168579101562
22	62.59830093383789	fix_post	2		12.0	20.0	2.5	blank	1.0	239.59682393074036	0.09998822212219238
23	62.69828915596008	fix_pre	0		45.0	21.0	2.5	/experiments/knapen_aot/videos/S_yt-qjg6kRxNXK8_217.mp4	0.0	239.69681215286255	0.3750479221343994
23	63.05758810043335	response	0	2		21.0	2.5	/experiments/knapen_aot/videos/S_yt-qjg6kRxNXK8_217.mp4	0.0	240.05611109733582	
23	63.07333707809448	movie	1		301.0	21.0	2.5	/experiments/knapen_aot/videos/S_yt-qjg6kRxNXK8_217.mp4	0.0	240.07186007499695	2.508301019668579
23	65.58163809776306	fix_post	2		12.0	21.0	2.5	/experiments/knapen_aot/videos/S_yt-qjg6kRxNXK8_217.mp4	0.0	242.58016109466553	0.09998798370361328
24	65.68162608146667	fix_pre	0		31.0	22.0	2.5	/experiments/knapen_aot/videos/R_S_yt-ZBhTpmrAlUY_70.mp4	0.0	242.68014907836914	0.2583129405975342
24	65.93175601959229	response	0	2		22.0	2.5	/experiments/knapen_aot/videos/R_S_yt-ZBhTpmrAlUY_70.mp4	0.0	242.93027901649475	
24	65.93993902206421	movie	1		301.0	22.0	2.5	/experiments/knapen_aot/videos/R_S_yt-ZBhTpmrAlUY_70.mp4	0.0	242.93846201896667	2.50838303565979
24	68.448322057724	fix_post	2		12.0	22.0	2.5	/experiments/knapen_aot/videos/R_S_yt-ZBhTpmrAlUY_70.mp4	0.0	245.44684505462646	0.09998202323913574
25	68.54830408096313	fix_pre	0		35.0	23.0	2.5	/experiments/knapen_aot/videos/S_yt-UzWRbs9Syf4_7.mp4	0.0	245.5468270778656	0.2915959358215332
25	68.82425808906555	response	0	2		23.0	2.5	/experiments/knapen_aot/videos/S_yt-UzWRbs9Syf4_7.mp4	0.0	245.82278108596802	
25	68.83990001678467	movie	1		301.0	23.0	2.5	/experiments/knapen_aot/videos/S_yt-UzWRbs9Syf4_7.mp4	0.0	245.83842301368713	2.508402109146118
25	71.34830212593079	fix_post	2		12.0	23.0	2.5	/experiments/knapen_aot/videos/S_yt-UzWRbs9Syf4_7.mp4	0.0	248.34682512283325	0.09997296333312988
26	71.44827508926392	fix_pre	0		46.0	24.0	2.5	/experiments/knapen_aot/videos/R_S_yt-4wYTkhggZNM_90.mp4	0.0	248.44679808616638	0.3840968608856201
26	71.82335805892944	response	0	2		24.0	2.5	/experiments/knapen_aot/videos/R_S_yt-4wYTkhggZNM_90.mp4	0.0	248.8218810558319	
26	71.83237195014954	movie	1		301.0	24.0	2.5	/experiments/knapen_aot/videos/R_S_yt-4wYTkhggZNM_90.mp4	0.0	248.830894947052	2.5075531005859375
26	74.33992505073547	fix_post	2		12.0	24.0	2.5	/experiments/knapen_aot/videos/R_S_yt-4wYTkhggZNM_90.mp4	0.0	251.33844804763794	0.09999299049377441
27	74.43991804122925	fix_pre	0		20.0	25.0	2.5	/experiments/knapen_aot/videos/S_pexels-cottonbro-9063801_1.mp4	0.0	251.4384410381317	0.16663098335266113
27	74.59847402572632	response	0	2		25.0	2.5	/experiments/knapen_aot/videos/S_pexels-cottonbro-9063801_1.mp4	0.0	251.59699702262878	
27	74.60654902458191	movie	1		192.0	25.0	2.5	/experiments/knapen_aot/videos/S_pexels-cottonbro-9063801_1.mp4	0.0	251.60507202148438	2.5083720684051514
27	77.11492109298706	fix_post	2		12.0	25.0	2.5	/experiments/knapen_aot/videos/S_pexels-cottonbro-9063801_1.mp4	0.0	254.11344408988953	0.09997105598449707
28	77.21489214897156	fix_pre	0		43.0	26.0	2.5	/experiments/knapen_aot/videos/S_comp_GMT306_139NC_139J_3066_CALI_TO_VEGAS_v08_SDR_PS_20180824_SDR_2K_AVC.mp4	0.0	254.21341514587402	0.35832786560058594
28	77.56503105163574	response	0	2		26.0	2.5	/experiments/knapen_aot/videos/S_comp_GMT306_139NC_139J_3066_CALI_TO_VEGAS_v08_SDR_PS_20180824_SDR_2K_AVC.mp4	0.0	254.5635540485382	
28	77.57322001457214	movie	1		163.0	26.0	2.5	/experiments/knapen_aot/videos/S_comp_GMT306_139NC_139J_3066_CALI_TO_VEGAS_v08_SDR_PS_20180824_SDR_2K_AVC.mp4	0.0	254.5717430114746	2.5083560943603516
28	80.0815761089325	fix_post	2		12.0	26.0	2.5	/experiments/knapen_aot/videos/S_comp_GMT306_139NC_139J_3066_CALI_TO_VEGAS_v08_SDR_PS_20180824_SDR_2K_AVC.mp4	0.0	257.08009910583496	0.0999288558959961
29	80.18150496482849	fix_pre	0		22.0	27.0	2.5	/experiments/knapen_aot/videos/S_wc-0SAXOWjdNVGC_8.mp4	0.0	257.18002796173096	0.18335413932800293
29	80.35681104660034	response	0	2		27.0	2.5	/experiments/knapen_aot/videos/S_wc-0SAXOWjdNVGC_8.mp4	0.0	257.3553340435028	
29	80.3648591041565	movie	1		163.0	27.0	2.5	/experiments/knapen_aot/videos/S_wc-0SAXOWjdNVGC_8.mp4	0.0	257.36338210105896	2.5083818435668945
29	82.87324094772339	fix_post	2		12.0	27.0	2.5	/experiments/knapen_aot/videos/S_wc-0SAXOWjdNVGC_8.mp4	0.0	259.87176394462585	0.0999910831451416
30	82.97323203086853	fix_pre	0		63.0	28.0	2.5	blank	1.0	259.971755027771	0.5256490707397461
30	83.4900860786438	response	0	2		28.0	2.5	blank	1.0	260.48860907554626	
30	83.49888110160828	movie	1		301.0	28.0	2.5	blank	1.0	260.49740409851074	2.507668972015381
30	86.00655007362366	fix_post	2		12.0	28.0	2.5	blank	1.0	263.0050730705261	0.1000058650970459
31	86.1065559387207	fix_pre	0		40.0	29.0	2.5	/experiments/knapen_aot/videos/R_S_ILSVRC2015_train_00067003.mp4	0.0	263.10507893562317	0.33330202102661133
31	86.43161511421204	response	0	2		29.0	2.5	/experiments/knapen_aot/videos/R_S_ILSVRC2015_train_00067003.mp4	0.0	263.4301381111145	
31	86.43985795974731	movie	1		300.0	29.0	2.5	/experiments/knapen_aot/videos/R_S_ILSVRC2015_train_00067003.mp4	0.0	263.4383809566498	2.5083279609680176
31	88.94818592071533	fix_post	2		12.0	29.0	2.5	/experiments/knapen_aot/videos/R_S_ILSVRC2015_train_00067003.mp4	0.0	265.9467089176178	0.10004115104675293
32	89.04822707176208	fix_pre	0		102.0	30.0	2.5	/experiments/knapen_aot/videos/R_S_yt-zpoIiHGRm5k_296.mp4	0.0	266.04675006866455	0.8499588966369629
32	89.89003014564514	response	0	2		30.0	2.5	/experiments/knapen_aot/videos/R_S_yt-zpoIiHGRm5k_296.mp4	0.0	266.8885531425476	
32	89.89818596839905	movie	1		301.0	30.0	2.5	/experiments/knapen_aot/videos/R_S_yt-zpoIiHGRm5k_296.mp4	0.0	266.8967089653015	2.508355140686035
32	92.40654110908508	fix_post	2		12.0	30.0	2.5	/experiments/knapen_aot/videos/R_S_yt-zpoIiHGRm5k_296.mp4	0.0	269.40506410598755	0.1000218391418457
33	92.50656294822693	fix_pre	0		24.0	31.0	2.5	/experiments/knapen_aot/videos/S_pexels-mikhail-nilov-8410063_1.mp4	0.0	269.5050859451294	0.2006092071533203
33	92.69824409484863	response	0	2		31.0	2.5	/experiments/knapen_aot/videos/S_pexels-mikhail-nilov-8410063_1.mp4	0.0	269.6967670917511	
33	92.70717215538025	movie	1		164.0	31.0	2.5	/experiments/knapen_aot/videos/S_pexels-mikhail-nilov-8410063_1.mp4	0.0	269.7056951522827	2.5076489448547363
33	95.21482110023499	fix_post	2		12.0	31.0	2.5	/experiments/knapen_aot/videos/S_pexels-mikhail-nilov-8410063_1.mp4	0.0	272.21334409713745	0.09999895095825195
34	95.31482005119324	fix_pre	0		32.0	32.0	2.5	/experiments/knapen_aot/videos/R_S_yt-F2x6e7e7cAE_70.mp4	0.0	272.3133430480957	0.26727294921875
34	95.57321810722351	response	0	2		32.0	2.5	/experiments/knapen_aot/videos/R_S_yt-F2x6e7e7cAE_70.mp4	0.0	272.571741104126	
34	95.58209300041199	movie	1		301.0	32.0	2.5	/experiments/knapen_aot/videos/R_S_yt-F2x6e7e7cAE_70.mp4	0.0	272.58061599731445	2.507779121398926
34	98.08987212181091	fix_post	2		12.0	32.0	2.5	/experiments/knapen_aot/videos/R_S_yt-F2x6e7e7cAE_70.mp4	0.0	275.0883951187134	0.10010385513305664
35	98.18997597694397	fix_pre	0		15.0	33.0	2.5	blank	1.0	275.18849897384644	0.12497615814208984
35	98.306715965271	response	0	2		33.0	2.5	blank	1.0	275.30523896217346	
35	98.31495213508606	movie	1		301.0	33.0	2.5	blank	1.0	275.3134751319885	2.5082449913024902
35	100.82319712638855	fix_post	2		12.0	33.0	2.5	blank	1.0	277.821720123291	0.09995102882385254
36	100.9231481552124	fix_pre	0		58.0	34.0	2.5	/experiments/knapen_aot/videos/R_S_yt-fQGoTMausn8_88.mp4	0.0	277.92167115211487	0.4833509922027588
36	101.39827108383179	response	0	2		34.0	2.5	/experiments/knapen_aot/videos/R_S_yt-fQGoTMausn8_88.mp4	0.0	278.39679408073425	
36	101.40649914741516	movie	1		301.0	34.0	2.5	/experiments/knapen_aot/videos/R_S_yt-fQGoTMausn8_88.mp4	0.0	278.4050221443176	2.5083749294281006
36	103.91487407684326	fix_post	2		12.0	34.0	2.5	/experiments/knapen_aot/videos/R_S_yt-fQGoTMausn8_88.mp4	0.0	280.9133970737457	0.09998607635498047
37	104.01486015319824	fix_pre	0		13.0	35.0	2.5	/experiments/knapen_aot/videos/R_S_yt-ph1AkIToO4E_46.mp4	0.0	281.0133831501007	0.10889291763305664
37	104.11500406265259	response	0	2		35.0	2.5	/experiments/knapen_aot/videos/R_S_yt-ph1AkIToO4E_46.mp4	0.0	281.11352705955505	
37	104.1237530708313	movie	1		301.0	35.0	2.5	/experiments/knapen_aot/videos/R_S_yt-ph1AkIToO4E_46.mp4	0.0	281.12227606773376	2.507715940475464
37	106.63146901130676	fix_post	2		12.0	35.0	2.5	/experiments/knapen_aot/videos/R_S_yt-ph1AkIToO4E_46.mp4	0.0	283.62999200820923	0.09994101524353027
38	106.7314100265503	fix_pre	0		24.0	36.0	2.5	/experiments/knapen_aot/videos/R_S_yt-YykKZWKmLnQ_386.mp4	0.0	283.72993302345276	0.1999831199645996
38	106.92326593399048	response	0	2		36.0	2.5	/experiments/knapen_aot/videos/R_S_yt-YykKZWKmLnQ_386.mp4	0.0	283.92178893089294	
38	106.93139314651489	movie	1		300.0	36.0	2.5	/experiments/knapen_aot/videos/R_S_yt-YykKZWKmLnQ_386.mp4	0.0	283.92991614341736	2.508347988128662
38	109.43974113464355	fix_post	2		12.0	36.0	2.5	/experiments/knapen_aot/videos/R_S_yt-YykKZWKmLnQ_386.mp4	0.0	286.438264131546	0.10003995895385742
39	109.53978109359741	fix_pre	0		20.0	37.0	2.5	/experiments/knapen_aot/videos/S_ILSVRC2015_train_00594000.mp4	0.0	286.5383040904999	0.1671888828277588
39	109.69076895713806	response	0	2		37.0	2.5	/experiments/knapen_aot/videos/S_ILSVRC2015_train_00594000.mp4	0.0	286.6892919540405	
39	109.70696997642517	movie	1		301.0	37.0	2.5	/experiments/knapen_aot/videos/S_ILSVRC2015_train_00594000.mp4	0.0	286.70549297332764	2.5078320503234863
39	112.21480202674866	fix_post	2		12.0	37.0	2.5	/experiments/knapen_aot/videos/S_ILSVRC2015_train_00594000.mp4	0.0	289.2133250236511	0.1000211238861084
40	112.31482315063477	fix_pre	0		18.0	38.0	2.5	/experiments/knapen_aot/videos/R_S_yt-O6W6CZPXvlA_15.mp4	0.0	289.31334614753723	0.14992594718933105
40	112.44902992248535	response	0	2		38.0	2.5	/experiments/knapen_aot/videos/R_S_yt-O6W6CZPXvlA_15.mp4	0.0	289.4475529193878	
40	112.4647490978241	movie	1		301.0	38.0	2.5	/experiments/knapen_aot/videos/R_S_yt-O6W6CZPXvlA_15.mp4	0.0	289.46327209472656	2.5083248615264893
40	114.97307395935059	fix_post	2		12.0	38.0	2.5	/experiments/knapen_aot/videos/R_S_yt-O6W6CZPXvlA_15.mp4	0.0	291.97159695625305	0.1000511646270752
41	115.07312512397766	fix_pre	0		36.0	39.0	2.5	/experiments/knapen_aot/videos/R_S_production_ID_5102663.mp4	0.0	292.0716481208801	0.3004879951477051
41	115.36492896080017	response	0	2		39.0	2.5	/experiments/knapen_aot/videos/R_S_production_ID_5102663.mp4	0.0	292.36345195770264	
41	115.37361311912537	movie	1		197.0	39.0	2.5	/experiments/knapen_aot/videos/R_S_production_ID_5102663.mp4	0.0	292.37213611602783	2.5078020095825195
41	117.88141512870789	fix_post	2		12.0	39.0	2.5	/experiments/knapen_aot/videos/R_S_production_ID_5102663.mp4	0.0	294.87993812561035	0.09993386268615723
42	117.98134899139404	fix_pre	0		29.0	40.0	2.5	/experiments/knapen_aot/videos/S_yt-PYP0fEQ357c_89.mp4	0.0	294.9798719882965	0.24168896675109863
42	118.21485900878906	response	0	2		40.0	2.5	/experiments/knapen_aot/videos/S_yt-PYP0fEQ357c_89.mp4	0.0	295.2133820056915	
42	118.22303795814514	movie	1		301.0	40.0	2.5	/experiments/knapen_aot/videos/S_yt-PYP0fEQ357c_89.mp4	0.0	295.2215609550476	2.5083580017089844
42	120.73139595985413	fix_post	2		12.0	40.0	2.5	/experiments/knapen_aot/videos/S_yt-PYP0fEQ357c_89.mp4	0.0	297.7299189567566	0.09995198249816895
43	120.8313479423523	fix_pre	0		24.0	41.0	2.5	blank	1.0	297.82987093925476	0.2000560760498047
43	121.02318501472473	response	0	2		41.0	2.5	blank	1.0	298.0217080116272	
43	121.0314040184021	movie	1		301.0	41.0	2.5	blank	1.0	298.02992701530457	2.508352041244507
43	123.5397560596466	fix_post	2		12.0	41.0	2.5	blank	1.0	300.5382790565491	0.0999300479888916
44	123.6396861076355	fix_pre	0		31.0	42.0	2.5	/experiments/knapen_aot/videos/S_pexels-roman-odintsov-8233166.mp4	0.0	300.63820910453796	0.2583320140838623
44	123.88986015319824	response	0	2		42.0	2.5	/experiments/knapen_aot/videos/S_pexels-roman-odintsov-8233166.mp4	0.0	300.8883831501007	
44	123.89801812171936	movie	1		200.0	42.0	2.5	/experiments/knapen_aot/videos/S_pexels-roman-odintsov-8233166.mp4	0.0	300.8965411186218	2.508384943008423
44	126.40640306472778	fix_post	2		12.0	42.0	2.5	/experiments/knapen_aot/videos/S_pexels-roman-odintsov-8233166.mp4	0.0	303.40492606163025	0.09997701644897461
45	126.50638008117676	fix_pre	0		19.0	43.0	2.5	/experiments/knapen_aot/videos/S_yt-_68FWLGgPYE_25.mp4	0.0	303.5049030780792	0.15878891944885254
45	126.65655612945557	response	0	2		43.0	2.5	/experiments/knapen_aot/videos/S_yt-_68FWLGgPYE_25.mp4	0.0	303.65507912635803	
45	126.66516900062561	movie	1		301.0	43.0	2.5	/experiments/knapen_aot/videos/S_yt-_68FWLGgPYE_25.mp4	0.0	303.6636919975281	2.5078530311584473
45	129.17302203178406	fix_post	2		12.0	43.0	2.5	/experiments/knapen_aot/videos/S_yt-_68FWLGgPYE_25.mp4	0.0	306.1715450286865	0.10000300407409668
46	129.27302503585815	fix_pre	0		27.0	44.0	2.5	/experiments/knapen_aot/videos/R_S_yt-BDCyXL5e9S4_223.mp4	0.0	306.2715480327606	0.22542309761047363
46	129.48984813690186	response	0	2		44.0	2.5	/experiments/knapen_aot/videos/R_S_yt-BDCyXL5e9S4_223.mp4	0.0	306.4883711338043	
46	129.49844813346863	movie	1		300.0	44.0	2.5	/experiments/knapen_aot/videos/R_S_yt-BDCyXL5e9S4_223.mp4	0.0	306.4969711303711	2.5079498291015625
46	132.0063979625702	fix_post	2		12.0	44.0	2.5	/experiments/knapen_aot/videos/R_S_yt-BDCyXL5e9S4_223.mp4	0.0	309.00492095947266	0.09994006156921387
47	132.1063380241394	fix_pre	0		51.0	45.0	2.5	/experiments/knapen_aot/videos/S_ILSVRC2015_train_00414000.mp4	0.0	309.10486102104187	0.42501306533813477
47	132.52317905426025	response	0	2		45.0	2.5	/experiments/knapen_aot/videos/S_ILSVRC2015_train_00414000.mp4	0.0	309.5217020511627	
47	132.53135108947754	movie	1		301.0	45.0	2.5	/experiments/knapen_aot/videos/S_ILSVRC2015_train_00414000.mp4	0.0	309.52987408638	2.508378028869629
47	135.03972911834717	fix_post	2		12.0	45.0	2.5	/experiments/knapen_aot/videos/S_ILSVRC2015_train_00414000.mp4	0.0	312.03825211524963	0.10001897811889648
48	135.13974809646606	fix_pre	0		36.0	46.0	2.5	/experiments/knapen_aot/videos/S_yt-F2x6e7e7cAE_70.mp4	0.0	312.13827109336853	0.2999098300933838
48	135.4314661026001	response	0	2		46.0	2.5	/experiments/knapen_aot/videos/S_yt-F2x6e7e7cAE_70.mp4	0.0	312.42998909950256	
48	135.43965792655945	movie	1		301.0	46.0	2.5	/experiments/knapen_aot/videos/S_yt-F2x6e7e7cAE_70.mp4	0.0	312.4381809234619	2.5083370208740234
48	137.94799494743347	fix_post	2		12.0	46.0	2.5	/experiments/knapen_aot/videos/S_yt-F2x6e7e7cAE_70.mp4	0.0	314.94651794433594	0.09998917579650879
49	138.04798412322998	fix_pre	0		16.0	47.0	2.5	blank	1.0	315.04650712013245	0.1333630084991455
49	138.17316699028015	response	0	2		47.0	2.5	blank	1.0	315.1716899871826	
49	138.18134713172913	movie	1		301.0	47.0	2.5	blank	1.0	315.1798701286316	2.5083518028259277
49	140.68969893455505	fix_post	2		12.0	47.0	2.5	blank	1.0	317.6882219314575	0.10000920295715332
50	140.7897081375122	fix_pre	0		32.0	48.0	2.5	/experiments/knapen_aot/videos/S_yt-7bSTxOajpjc_58.mp4	0.0	317.7882311344147	0.2666168212890625
50	141.0481400489807	response	0	2		48.0	2.5	/experiments/knapen_aot/videos/S_yt-7bSTxOajpjc_58.mp4	0.0	318.0466630458832	
50	141.05632495880127	movie	1		301.0	48.0	2.5	/experiments/knapen_aot/videos/S_yt-7bSTxOajpjc_58.mp4	0.0	318.05484795570374	2.508319139480591
50	143.56464409828186	fix_post	2		12.0	48.0	2.5	/experiments/knapen_aot/videos/S_yt-7bSTxOajpjc_58.mp4	0.0	320.5631670951843	0.0999908447265625
51	143.66463494300842	fix_pre	0		36.0	49.0	2.5	/experiments/knapen_aot/videos/R_S_ILSVRC2015_train_00574000.mp4	0.0	320.6631579399109	0.2999851703643799
51	143.95648002624512	response	0	2		49.0	2.5	/experiments/knapen_aot/videos/R_S_ILSVRC2015_train_00574000.mp4	0.0	320.9550030231476	
51	143.9646201133728	movie	1		301.0	49.0	2.5	/experiments/knapen_aot/videos/R_S_ILSVRC2015_train_00574000.mp4	0.0	320.96314311027527	2.5083858966827393
51	146.47300601005554	fix_post	2		12.0	49.0	2.5	/experiments/knapen_aot/videos/R_S_ILSVRC2015_train_00574000.mp4	0.0	323.471529006958	0.10000395774841309
52	146.57300996780396	fix_pre	0		26.0	50.0	2.5	/experiments/knapen_aot/videos/R_S_yt-KLInd-KrK_w_19.mp4	0.0	323.5715329647064	0.21694707870483398
52	146.78149008750916	response	0	2		50.0	2.5	/experiments/knapen_aot/videos/R_S_yt-KLInd-KrK_w_19.mp4	0.0	323.7800130844116	
52	146.7899570465088	movie	1		301.0	50.0	2.5	/experiments/knapen_aot/videos/R_S_yt-KLInd-KrK_w_19.mp4	0.0	323.78848004341125	2.5080111026763916
52	149.29796814918518	fix_post	2		12.0	50.0	2.5	/experiments/knapen_aot/videos/R_S_yt-KLInd-KrK_w_19.mp4	0.0	326.29649114608765	0.10005784034729004
53	149.39802598953247	fix_pre	0		34.0	51.0	2.5	/experiments/knapen_aot/videos/R_S_yt-cgYmOmMzn98_103.mp4	0.0	326.39654898643494	0.2832679748535156
53	149.67315793037415	response	0	2		51.0	2.5	/experiments/knapen_aot/videos/R_S_yt-cgYmOmMzn98_103.mp4	0.0	326.6716809272766	
53	149.681293964386	movie	1		301.0	51.0	2.5	/experiments/knapen_aot/videos/R_S_yt-cgYmOmMzn98_103.mp4	0.0	326.67981696128845	2.5083329677581787
53	152.18962693214417	fix_post	2		12.0	51.0	2.5	/experiments/knapen_aot/videos/R_S_yt-cgYmOmMzn98_103.mp4	0.0	329.18814992904663	0.10002803802490234
54	152.28965497016907	fix_pre	0		51.0	52.0	2.5	/experiments/knapen_aot/videos/R_S_yt-jbvXEFk2Gyw_12.mp4	0.0	329.28817796707153	0.42508697509765625
54	152.70641493797302	response	0	2		52.0	2.5	/experiments/knapen_aot/videos/R_S_yt-jbvXEFk2Gyw_12.mp4	0.0	329.7049379348755	
54	152.71474194526672	movie	1		301.0	52.0	2.5	/experiments/knapen_aot/videos/R_S_yt-jbvXEFk2Gyw_12.mp4	0.0	329.7132649421692	2.5082621574401855
54	155.2230041027069	fix_post	2		12.0	52.0	2.5	/experiments/knapen_aot/videos/R_S_yt-jbvXEFk2Gyw_12.mp4	0.0	332.2215270996094	0.09992504119873047
55	155.32292914390564	fix_pre	0		37.0	53.0	2.5	/experiments/knapen_aot/videos/R_S_yt-vacON8rxZaI_168.mp4	0.0	332.3214521408081	0.3083319664001465
55	155.62312006950378	response	0	2		53.0	2.5	/experiments/knapen_aot/videos/R_S_yt-vacON8rxZaI_168.mp4	0.0	332.62164306640625	
55	155.6312611103058	movie	1		301.0	53.0	2.5	/experiments/knapen_aot/videos/R_S_yt-vacON8rxZaI_168.mp4	0.0	332.62978410720825	2.508330821990967
55	158.13959193229675	fix_post	2		12.0	53.0	2.5	/experiments/knapen_aot/videos/R_S_yt-vacON8rxZaI_168.mp4	0.0	335.1381149291992	0.1000211238861084
56	158.23961305618286	fix_pre	0		22.0	54.0	2.5	/experiments/knapen_aot/videos/S_ILSVRC2015_train_00471000.mp4	0.0	335.2381360530853	0.18326997756958008
56	158.414696931839	response	0	2		54.0	2.5	/experiments/knapen_aot/videos/S_ILSVRC2015_train_00471000.mp4	0.0	335.41321992874146	
56	158.42288303375244	movie	1		301.0	54.0	2.5	/experiments/knapen_aot/videos/S_ILSVRC2015_train_00471000.mp4	0.0	335.4214060306549	2.5083189010620117
56	160.93120193481445	fix_post	2		12.0	54.0	2.5	/experiments/knapen_aot/videos/S_ILSVRC2015_train_00471000.mp4	0.0	337.9297249317169	0.1000521183013916
57	161.03125405311584	fix_pre	0		18.0	55.0	2.5	blank	1.0	338.0297770500183	0.14998292922973633
57	161.17306113243103	response	0	2		55.0	2.5	blank	1.0	338.1715841293335	
57	161.18123698234558	movie	1		301.0	55.0	2.5	blank	1.0	338.17975997924805	2.5083720684051514
57	163.68960905075073	fix_post	2		12.0	55.0	2.5	blank	1.0	340.6881320476532	0.10030698776245117
58	163.78991603851318	fix_pre	0		35.0	56.0	2.5	/experiments/knapen_aot/videos/S_yt-BJsMGxfjrZk_59.mp4	0.0	340.78843903541565	0.29156494140625
58	164.07304096221924	response	0	2		56.0	2.5	/experiments/knapen_aot/videos/S_yt-BJsMGxfjrZk_59.mp4	0.0	341.0715639591217	
58	164.08148097991943	movie	1		301.0	56.0	2.5	/experiments/knapen_aot/videos/S_yt-BJsMGxfjrZk_59.mp4	0.0	341.0800039768219	2.5081069469451904
58	166.58958792686462	fix_post	2		12.0	56.0	2.5	/experiments/knapen_aot/videos/S_yt-BJsMGxfjrZk_59.mp4	0.0	343.5881109237671	0.10001802444458008
59	166.6896059513092	fix_pre	0		29.0	57.0	2.5	/experiments/knapen_aot/videos/S_yt-6UFUeTKci2o_164.mp4	0.0	343.68812894821167	0.24165010452270508
59	166.9230740070343	response	0	2		57.0	2.5	/experiments/knapen_aot/videos/S_yt-6UFUeTKci2o_164.mp4	0.0	343.92159700393677	
59	166.9312560558319	movie	1		301.0	57.0	2.5	/experiments/knapen_aot/videos/S_yt-6UFUeTKci2o_164.mp4	0.0	343.9297790527344	2.508327007293701
59	169.4395830631256	fix_post	2		12.0	57.0	2.5	/experiments/knapen_aot/videos/S_yt-6UFUeTKci2o_164.mp4	0.0	346.4381060600281	0.1002650260925293
60	169.53984808921814	fix_pre	0		41.0	58.0	2.5	/experiments/knapen_aot/videos/S_ILSVRC2015_train_00682009.mp4	0.0	346.5383710861206	0.3413858413696289
60	169.87306714057922	response	0	2		58.0	2.5	/experiments/knapen_aot/videos/S_ILSVRC2015_train_00682009.mp4	0.0	346.8715901374817	
60	169.88123393058777	movie	1		301.0	58.0	2.5	/experiments/knapen_aot/videos/S_ILSVRC2015_train_00682009.mp4	0.0	346.87975692749023	2.508338212966919
60	172.3895721435547	fix_post	2		12.0	58.0	2.5	/experiments/knapen_aot/videos/S_ILSVRC2015_train_00682009.mp4	0.0	349.38809514045715	0.10003399848937988
61	172.48960614204407	fix_pre	0		26.0	59.0	2.5	/experiments/knapen_aot/videos/S_production_ID_4122384.mp4	0.0	349.48812913894653	0.2168409824371338
61	172.69801092147827	response	0	2		59.0	2.5	/experiments/knapen_aot/videos/S_production_ID_4122384.mp4	0.0	349.69653391838074	
61	172.7064471244812	movie	1		166.0	59.0	2.5	/experiments/knapen_aot/videos/S_production_ID_4122384.mp4	0.0	349.70497012138367	2.508119821548462
61	175.21456694602966	fix_post	2		12.0	59.0	2.5	/experiments/knapen_aot/videos/S_production_ID_4122384.mp4	0.0	352.21308994293213	0.09999608993530273
62	175.31456303596497	fix_pre	0		230.0	60.0	2.5	/experiments/knapen_aot/videos/S_yt_R-lST38EdfMMQ_5.mp4	0.0	352.31308603286743	1.9165890216827393
62	177.22306513786316	response	0	2		60.0	2.5	/experiments/knapen_aot/videos/S_yt_R-lST38EdfMMQ_5.mp4	0.0	354.2215881347656	
62	177.2311520576477	movie	1		301.0	60.0	2.5	/experiments/knapen_aot/videos/S_yt_R-lST38EdfMMQ_5.mp4	0.0	354.22967505455017	2.5083839893341064
62	179.7395360469818	fix_post	2		12.0	60.0	2.5	/experiments/knapen_aot/videos/S_yt_R-lST38EdfMMQ_5.mp4	0.0	356.7380590438843	0.10000801086425781
63	179.83954405784607	fix_pre	0		42.0	61.0	2.5	blank	1.0	356.83806705474854	0.349992036819458
63	180.1812620162964	response	0	2		61.0	2.5	blank	1.0	357.17978501319885	
63	180.18953609466553	movie	1		301.0	61.0	2.5	blank	1.0	357.188059091568	2.5083038806915283
63	182.69783997535706	fix_post	2		12.0	61.0	2.5	blank	1.0	359.6963629722595	0.09993600845336914
64	182.79777598381042	fix_pre	0		32.0	62.0	2.5	/experiments/knapen_aot/videos/R_S_yt--WPE_4bqQXc_26.mp4	0.0	359.7962989807129	0.2666749954223633
64	183.056312084198	response	0	2		62.0	2.5	/experiments/knapen_aot/videos/R_S_yt--WPE_4bqQXc_26.mp4	0.0	360.05483508110046	
64	183.0644509792328	movie	1		301.0	62.0	2.5	/experiments/knapen_aot/videos/R_S_yt--WPE_4bqQXc_26.mp4	0.0	360.06297397613525	2.5083701610565186
64	185.5728211402893	fix_post	2		12.0	62.0	2.5	/experiments/knapen_aot/videos/R_S_yt--WPE_4bqQXc_26.mp4	0.0	362.5713441371918	0.09987688064575195
65	185.67269802093506	fix_pre	0		44.0	63.0	2.5	/experiments/knapen_aot/videos/S_bing-www_msn_com_en-us_video_news_tommy-lasorda-salutes-national-league-champs_vp-AAtLThQ_4.mp4	0.0	362.6712210178375	0.3668649196624756
65	186.03126907348633	response	0	2		63.0	2.5	/experiments/knapen_aot/videos/S_bing-www_msn_com_en-us_video_news_tommy-lasorda-salutes-national-league-champs_vp-AAtLThQ_4.mp4	0.0	363.0297920703888	
65	186.03956294059753	movie	1		164.0	63.0	2.5	/experiments/knapen_aot/videos/S_bing-www_msn_com_en-us_video_news_tommy-lasorda-salutes-national-league-champs_vp-AAtLThQ_4.mp4	0.0	363.0380859375	2.5083181858062744
65	188.5478811264038	fix_post	2		12.0	63.0	2.5	/experiments/knapen_aot/videos/S_bing-www_msn_com_en-us_video_news_tommy-lasorda-salutes-national-league-champs_vp-AAtLThQ_4.mp4	0.0	365.5464041233063	0.09996294975280762
66	188.64784407615662	fix_pre	0		12.0	64.0	2.5	/experiments/knapen_aot/videos/R_S_yt-GyMWMiWvuiA_237.mp4	0.0	365.6463670730591	0.10010504722595215
66	188.73961806297302	response	0	2		64.0	2.5	/experiments/knapen_aot/videos/R_S_yt-GyMWMiWvuiA_237.mp4	0.0	365.7381410598755	
66	188.74794912338257	movie	1		301.0	64.0	2.5	/experiments/knapen_aot/videos/R_S_yt-GyMWMiWvuiA_237.mp4	0.0	365.74647212028503	2.508229970932007
66	191.25617909431458	fix_post	2		12.0	64.0	2.5	/experiments/knapen_aot/videos/R_S_yt-GyMWMiWvuiA_237.mp4	0.0	368.25470209121704	0.09993791580200195
67	191.35611701011658	fix_pre	0		41.0	65.0	2.5	/experiments/knapen_aot/videos/R_S_yt-i1h9ZiYZ86U_28.mp4	0.0	368.35464000701904	0.34171199798583984
67	191.68966913223267	response	0	2		65.0	2.5	/experiments/knapen_aot/videos/R_S_yt-i1h9ZiYZ86U_28.mp4	0.0	368.68819212913513	
67	191.69782900810242	movie	1		301.0	65.0	2.5	/experiments/knapen_aot/videos/R_S_yt-i1h9ZiYZ86U_28.mp4	0.0	368.6963520050049	2.508455991744995
67	194.2062849998474	fix_post	2		12.0	65.0	2.5	/experiments/knapen_aot/videos/R_S_yt-i1h9ZiYZ86U_28.mp4	0.0	371.2048079967499	0.09980392456054688
68	194.30608892440796	fix_pre	0		19.0	66.0	2.5	/experiments/knapen_aot/videos/R_S_yt-s-J3C6e5A3Q_18.mp4	0.0	371.3046119213104	0.15839815139770508
68	194.45628595352173	response	0	2		66.0	2.5	/experiments/knapen_aot/videos/R_S_yt-s-J3C6e5A3Q_18.mp4	0.0	371.4548089504242	
68	194.46448707580566	movie	1		301.0	66.0	2.5	/experiments/knapen_aot/videos/R_S_yt-s-J3C6e5A3Q_18.mp4	0.0	371.46301007270813	2.5083508491516113
68	196.97283792495728	fix_post	2		12.0	66.0	2.5	/experiments/knapen_aot/videos/R_S_yt-s-J3C6e5A3Q_18.mp4	0.0	373.97136092185974	0.09989404678344727
69	197.07273197174072	fix_pre	0		32.0	67.0	2.5	/experiments/knapen_aot/videos/S_yt-SS7pSyb0_d0_32.mp4	0.0	374.0712549686432	0.2667510509490967
69	197.33127307891846	response	0	2		67.0	2.5	/experiments/knapen_aot/videos/S_yt-SS7pSyb0_d0_32.mp4	0.0	374.3297960758209	
69	197.33948302268982	movie	1		301.0	67.0	2.5	/experiments/knapen_aot/videos/S_yt-SS7pSyb0_d0_32.mp4	0.0	374.3380060195923	2.508333921432495
69	199.84781694412231	fix_post	2		12.0	67.0	2.5	/experiments/knapen_aot/videos/S_yt-SS7pSyb0_d0_32.mp4	0.0	376.8463399410248	0.09997105598449707
70	199.9477880001068	fix_pre	0		29.0	68.0	2.5	blank	1.0	376.9463109970093	0.24168109893798828
70	200.17382502555847	response	0	2		68.0	2.5	blank	1.0	377.17234802246094	
70	200.1894690990448	movie	1		301.0	68.0	2.5	blank	1.0	377.18799209594727	2.508302927017212
70	202.697772026062	fix_post	2		12.0	68.0	2.5	blank	1.0	379.6962950229645	0.09999489784240723
71	202.79776692390442	fix_pre	0		50.0	69.0	2.5	/experiments/knapen_aot/videos/R_S_yt-QJHe-CoK4iI_170.mp4	0.0	379.7962899208069	0.4166691303253174
71	203.20620608329773	response	0	2		69.0	2.5	/experiments/knapen_aot/videos/R_S_yt-QJHe-CoK4iI_170.mp4	0.0	380.2047290802002	
71	203.21443605422974	movie	1		301.0	69.0	2.5	/experiments/knapen_aot/videos/R_S_yt-QJHe-CoK4iI_170.mp4	0.0	380.2129590511322	2.508328914642334
71	205.72276496887207	fix_post	2		12.0	69.0	2.5	/experiments/knapen_aot/videos/R_S_yt-QJHe-CoK4iI_170.mp4	0.0	382.72128796577454	0.09999299049377441
72	205.82275795936584	fix_pre	0		35.0	70.0	2.5	/experiments/knapen_aot/videos/S_bing-www_yahoo_com_entertainment_anastasia-karanikolaou-chantel-jeffries-discuss-182400502_html_9.mp4	0.0	382.8212809562683	0.29164910316467285
72	206.10613107681274	response	0	2		70.0	2.5	/experiments/knapen_aot/videos/S_bing-www_yahoo_com_entertainment_anastasia-karanikolaou-chantel-jeffries-discuss-182400502_html_9.mp4	0.0	383.1046540737152	
72	206.11440706253052	movie	1		166.0	70.0	2.5	/experiments/knapen_aot/videos/S_bing-www_yahoo_com_entertainment_anastasia-karanikolaou-chantel-jeffries-discuss-182400502_html_9.mp4	0.0	383.112930059433	2.508336067199707
72	208.62274312973022	fix_post	2		12.0	70.0	2.5	/experiments/knapen_aot/videos/S_bing-www_yahoo_com_entertainment_anastasia-karanikolaou-chantel-jeffries-discuss-182400502_html_9.mp4	0.0	385.6212661266327	0.10003089904785156
73	208.72277402877808	fix_pre	0		23.0	71.0	2.5	/experiments/knapen_aot/videos/R_S_yt-Xs7TCzdnUJQ_79.mp4	0.0	385.72129702568054	0.1916179656982422
73	208.90623998641968	response	0	2		71.0	2.5	/experiments/knapen_aot/videos/R_S_yt-Xs7TCzdnUJQ_79.mp4	0.0	385.90476298332214	
73	208.91439199447632	movie	1		301.0	71.0	2.5	/experiments/knapen_aot/videos/R_S_yt-Xs7TCzdnUJQ_79.mp4	0.0	385.9129149913788	2.508244037628174
73	211.4226360321045	fix_post	2		12.0	71.0	2.5	/experiments/knapen_aot/videos/R_S_yt-Xs7TCzdnUJQ_79.mp4	0.0	388.42115902900696	0.1000978946685791
74	211.52273392677307	fix_pre	0		56.0	72.0	2.5	/experiments/knapen_aot/videos/R_S_yt-Bx2kLEUuN0E_456.mp4	0.0	388.52125692367554	0.46654510498046875
74	211.98114395141602	response	0	2		72.0	2.5	/experiments/knapen_aot/videos/R_S_yt-Bx2kLEUuN0E_456.mp4	0.0	388.9796669483185	
74	211.98927903175354	movie	1		301.0	72.0	2.5	/experiments/knapen_aot/videos/R_S_yt-Bx2kLEUuN0E_456.mp4	0.0	388.987802028656	2.508380889892578
74	214.49765992164612	fix_post	2		12.0	72.0	2.5	/experiments/knapen_aot/videos/R_S_yt-Bx2kLEUuN0E_456.mp4	0.0	391.4961829185486	0.10003113746643066
75	214.59769105911255	fix_pre	0		3.0	73.0	2.5	/experiments/knapen_aot/videos/R_S_SPNvf6JCjGw_123.mp4	0.0	391.596214056015	0.02514195442199707
75	214.61446809768677	response	0	2		73.0	2.5	/experiments/knapen_aot/videos/R_S_SPNvf6JCjGw_123.mp4	0.0	391.61299109458923	
75	214.62283301353455	movie	1		301.0	73.0	2.5	/experiments/knapen_aot/videos/R_S_SPNvf6JCjGw_123.mp4	0.0	391.621356010437	2.5081911087036133
75	217.13102412223816	fix_post	2		12.0	73.0	2.5	/experiments/knapen_aot/videos/R_S_SPNvf6JCjGw_123.mp4	0.0	394.1295471191406	0.09996581077575684
76	217.23098993301392	fix_pre	0		37.0	74.0	2.5	/experiments/knapen_aot/videos/S_yt-s-J3C6e5A3Q_18.mp4	0.0	394.2295129299164	0.3083040714263916
76	217.5311279296875	response	0	2		74.0	2.5	/experiments/knapen_aot/videos/S_yt-s-J3C6e5A3Q_18.mp4	0.0	394.52965092658997	
76	217.5392940044403	movie	1		301.0	74.0	2.5	/experiments/knapen_aot/videos/S_yt-s-J3C6e5A3Q_18.mp4	0.0	394.5378170013428	2.508388042449951
76	220.04768204689026	fix_post	2		12.0	74.0	2.5	/experiments/knapen_aot/videos/S_yt-s-J3C6e5A3Q_18.mp4	0.0	397.0462050437927	0.10001301765441895
77	220.14769506454468	fix_pre	0		28.0	75.0	2.5	/experiments/knapen_aot/videos/S_yt-YOLaQ53ooks_195.mp4	0.0	397.14621806144714	0.23329401016235352
77	220.3729031085968	response	0	2		75.0	2.5	/experiments/knapen_aot/videos/S_yt-YOLaQ53ooks_195.mp4	0.0	397.37142610549927	
77	220.38098907470703	movie	1		301.0	75.0	2.5	/experiments/knapen_aot/videos/S_yt-YOLaQ53ooks_195.mp4	0.0	397.3795120716095	2.5082199573516846
77	222.88920903205872	fix_post	2		12.0	75.0	2.5	/experiments/knapen_aot/videos/S_yt-YOLaQ53ooks_195.mp4	0.0	399.8877320289612	0.10006403923034668
78	222.98927307128906	fix_pre	0		15.0	76.0	2.5	/experiments/knapen_aot/videos/S_yt-lkpfs_4qAGE_50.mp4	0.0	399.9877960681915	0.1250629425048828
78	223.10603094100952	response	0	2		76.0	2.5	/experiments/knapen_aot/videos/S_yt-lkpfs_4qAGE_50.mp4	0.0	400.104553937912	
78	223.11433601379395	movie	1		301.0	76.0	2.5	/experiments/knapen_aot/videos/S_yt-lkpfs_4qAGE_50.mp4	0.0	400.1128590106964	2.508289098739624
78	225.62262511253357	fix_post	2		12.0	76.0	2.5	/experiments/knapen_aot/videos/S_yt-lkpfs_4qAGE_50.mp4	0.0	402.62114810943604	0.10008382797241211
79	225.72270894050598	fix_pre	0		39.0	77.0	2.5	blank	1.0	402.72123193740845	0.3249640464782715
79	226.039381980896	response	0	2		77.0	2.5	blank	1.0	403.03790497779846	
79	226.04767298698425	movie	1		301.0	77.0	2.5	blank	1.0	403.0461959838867	2.5082859992980957
79	228.55595898628235	fix_post	2		12.0	77.0	2.5	blank	1.0	405.5544819831848	0.09997200965881348
80	228.65593099594116	fix_pre	0		274.0	78.0	2.5	/experiments/knapen_aot/videos/S_ILSVRC2015_train_00408000.mp4	0.0	405.6544539928436	2.2833919525146484
80	230.93110513687134	response	0	2		78.0	2.5	/experiments/knapen_aot/videos/S_ILSVRC2015_train_00408000.mp4	0.0	407.9296281337738	
80	230.9393229484558	movie	1		301.0	78.0	2.5	/experiments/knapen_aot/videos/S_ILSVRC2015_train_00408000.mp4	0.0	407.9378459453583	2.5083231925964355
80	233.44764614105225	fix_post	2		12.0	78.0	2.5	/experiments/knapen_aot/videos/S_ILSVRC2015_train_00408000.mp4	0.0	410.4461691379547	0.09993886947631836
81	233.54758501052856	fix_pre	0		34.0	79.0	2.5	/experiments/knapen_aot/videos/S_ILSVRC2015_train_00165008.mp4	0.0	410.54610800743103	0.28339099884033203
81	233.8227140903473	response	0	2		79.0	2.5	/experiments/knapen_aot/videos/S_ILSVRC2015_train_00165008.mp4	0.0	410.82123708724976	
81	233.8309760093689	movie	1		301.0	79.0	2.5	/experiments/knapen_aot/videos/S_ILSVRC2015_train_00165008.mp4	0.0	410.82949900627136	2.508347988128662
81	236.33932399749756	fix_post	2		12.0	79.0	2.5	/experiments/knapen_aot/videos/S_ILSVRC2015_train_00165008.mp4	0.0	413.3378469944	0.09995102882385254
82	236.4392750263214	fix_pre	0		57.0	80.0	2.5	/experiments/knapen_aot/videos/R_S_ILSVRC2015_train_00628000.mp4	0.0	413.4377980232239	0.4750180244445801
82	236.90611910820007	response	0	2		80.0	2.5	/experiments/knapen_aot/videos/R_S_ILSVRC2015_train_00628000.mp4	0.0	413.90464210510254	
82	236.914293050766	movie	1		301.0	80.0	2.5	/experiments/knapen_aot/videos/R_S_ILSVRC2015_train_00628000.mp4	0.0	413.91281604766846	2.508401870727539
82	239.42269492149353	fix_post	2		12.0	80.0	2.5	/experiments/knapen_aot/videos/R_S_ILSVRC2015_train_00628000.mp4	0.0	416.421217918396	0.0999290943145752
83	239.5226240158081	fix_pre	0		18.0	81.0	2.5	/experiments/knapen_aot/videos/R_S_ILSVRC2015_train_00479003.mp4	0.0	416.52114701271057	0.1499800682067871
83	239.66444993019104	response	0	2		81.0	2.5	/experiments/knapen_aot/videos/R_S_ILSVRC2015_train_00479003.mp4	0.0	416.6629729270935	
83	239.6726040840149	movie	1		301.0	81.0	2.5	/experiments/knapen_aot/videos/R_S_ILSVRC2015_train_00479003.mp4	0.0	416.67112708091736	2.508349895477295
83	242.1809539794922	fix_post	2		12.0	81.0	2.5	/experiments/knapen_aot/videos/R_S_ILSVRC2015_train_00479003.mp4	0.0	419.17947697639465	0.1000051498413086
84	242.2809591293335	fix_pre	0		18.0	82.0	2.5	/experiments/knapen_aot/videos/S_yt-hdZEAsVBEEM_19.mp4	0.0	419.27948212623596	0.1499319076538086
84	242.4229121208191	response	0	2		82.0	2.5	/experiments/knapen_aot/videos/S_yt-hdZEAsVBEEM_19.mp4	0.0	419.42143511772156	
84	242.4308910369873	movie	1		300.0	82.0	2.5	/experiments/knapen_aot/videos/S_yt-hdZEAsVBEEM_19.mp4	0.0	419.42941403388977	2.5084080696105957
84	244.9392991065979	fix_post	2		12.0	82.0	2.5	/experiments/knapen_aot/videos/S_yt-hdZEAsVBEEM_19.mp4	0.0	421.93782210350037	0.09996795654296875
85	245.03926706314087	fix_pre	0		24.0	83.0	2.5	blank	1.0	422.03779006004333	0.20002388954162598
85	245.23105311393738	response	0	2		83.0	2.5	blank	1.0	422.22957611083984	
85	245.2392909526825	movie	1		301.0	83.0	2.5	blank	1.0	422.23781394958496	2.5082590579986572
85	247.74755001068115	fix_post	2		12.0	83.0	2.5	blank	1.0	424.7460730075836	0.1000370979309082
87	247.84758710861206	stim	0		287.0					424.8461101055145	2.39284086227417
87	248.07278108596802	response	0	2						425.0713040828705	
87	250.23202300071716	response	0	space						427.23054599761963	
