trial_nr	onset	event_type	phase	response	nr_frames	movie_index	movie_duration	movie_file	blank	onset_abs	duration
0	0.1266930103302002	stim	0		44.0					158.4347140789032	0.3650069236755371
0	0.483489990234375	response	0	space						158.79151105880737	
1	0.4916999340057373	stim	0		121.0					158.79972100257874	1.0084021091461182
1	1.0084788799285889	response	0	space						159.3164999485016	
1	1.5001020431518555	stim	1		120.0					159.80812311172485	0.9995160102844238
1	1.766808032989502	response	1	space						160.0748291015625	
2	2.4996180534362793	fix_pre	0		39.0	0.0	2.5	/experiments/knapen_aot/videos/R_S_yt-fymgyhmYnMI_76.mp4	0.0	160.80763912200928	0.3250279426574707
2	2.8164219856262207	response	0	space		0.0	2.5	/experiments/knapen_aot/videos/R_S_yt-fymgyhmYnMI_76.mp4	0.0	161.12444305419922	
2	2.82464599609375	movie	1		301.0	0.0	2.5	/experiments/knapen_aot/videos/R_S_yt-fymgyhmYnMI_76.mp4	0.0	161.13266706466675	2.5083529949188232
2	5.332998991012573	fix_post	2		12.0	0.0	2.5	/experiments/knapen_aot/videos/R_S_yt-fymgyhmYnMI_76.mp4	0.0	163.64102005958557	0.10001802444458008
3	5.433017015457153	fix_pre	0		206.0	1.0	2.5	/experiments/knapen_aot/videos/S_yt-HwZFMTZ7Xko_35.mp4	0.0	163.74103808403015	1.7207930088043213
3	7.144879102706909	response	0	2		1.0	2.5	/experiments/knapen_aot/videos/S_yt-HwZFMTZ7Xko_35.mp4	0.0	165.4529001712799	
3	7.153810024261475	movie	1		294.0	1.0	2.5	/experiments/knapen_aot/videos/S_yt-HwZFMTZ7Xko_35.mp4	0.0	165.46183109283447	2.504189968109131
3	9.657999992370605	fix_post	2		12.0	1.0	2.5	/experiments/knapen_aot/videos/S_yt-HwZFMTZ7Xko_35.mp4	0.0	167.9660210609436	0.10003089904785156
4	9.758030891418457	fix_pre	0		124.0	2.0	2.5	/experiments/knapen_aot/videos/R_S_yt-4NjyKFnwHBo_13.mp4	0.0	168.06605195999146	1.0332660675048828
4	10.775604963302612	response	0	2		2.0	2.5	/experiments/knapen_aot/videos/R_S_yt-4NjyKFnwHBo_13.mp4	0.0	169.0836260318756	
4	10.79129695892334	movie	1		301.0	2.0	2.5	/experiments/knapen_aot/videos/R_S_yt-4NjyKFnwHBo_13.mp4	0.0	169.09931802749634	2.5085809230804443
4	13.299877882003784	fix_post	2		12.0	2.0	2.5	/experiments/knapen_aot/videos/R_S_yt-4NjyKFnwHBo_13.mp4	0.0	171.60789895057678	0.09979414939880371
5	13.399672031402588	fix_pre	0		241.0	3.0	2.5	/experiments/knapen_aot/videos/S_yt-IC62JSYpq9w_71.mp4	0.0	171.7076930999756	2.0082640647888184
5	15.399744033813477	response	0	2		3.0	2.5	/experiments/knapen_aot/videos/S_yt-IC62JSYpq9w_71.mp4	0.0	173.70776510238647	
5	15.407936096191406	movie	1		301.0	3.0	2.5	/experiments/knapen_aot/videos/S_yt-IC62JSYpq9w_71.mp4	0.0	173.7159571647644	2.508435010910034
5	17.91637110710144	fix_post	2		12.0	3.0	2.5	/experiments/knapen_aot/videos/S_yt-IC62JSYpq9w_71.mp4	0.0	176.22439217567444	0.09990191459655762
6	18.016273021697998	fix_pre	0		102.0	4.0	2.5	/experiments/knapen_aot/videos/R_S_yt-F3hhts3bwWg_25.mp4	0.0	176.324294090271	0.8499510288238525
6	18.85809087753296	response	0	2		4.0	2.5	/experiments/knapen_aot/videos/R_S_yt-F3hhts3bwWg_25.mp4	0.0	177.16611194610596	
6	18.86622405052185	movie	1		301.0	4.0	2.5	/experiments/knapen_aot/videos/R_S_yt-F3hhts3bwWg_25.mp4	0.0	177.17424511909485	2.5083999633789062
6	21.374624013900757	fix_post	2		12.0	4.0	2.5	/experiments/knapen_aot/videos/R_S_yt-F3hhts3bwWg_25.mp4	0.0	179.68264508247375	0.09998607635498047
7	21.474610090255737	fix_pre	0		49.0	5.0	2.5	blank	1.0	179.78263115882874	0.40836286544799805
7	21.874752044677734	response	0	2		5.0	2.5	blank	1.0	180.18277311325073	
7	21.882972955703735	movie	1		301.0	5.0	2.5	blank	1.0	180.19099402427673	2.5082149505615234
7	24.383030891418457	response	1	2		5.0	2.5	blank	1.0	182.69105195999146	
7	24.39118790626526	fix_post	2		12.0	5.0	2.5	blank	1.0	182.69920897483826	0.1000661849975586
8	24.491254091262817	fix_pre	0		83.0	6.0	2.5	/experiments/knapen_aot/videos/R_S_ILSVRC2015_train_00518001.mp4	0.0	182.79927515983582	0.6915788650512695
8	25.174712896347046	response	0	2		6.0	2.5	/experiments/knapen_aot/videos/R_S_ILSVRC2015_train_00518001.mp4	0.0	183.48273396492004	
8	25.182832956314087	movie	1		301.0	6.0	2.5	/experiments/knapen_aot/videos/R_S_ILSVRC2015_train_00518001.mp4	0.0	183.49085402488708	2.5084681510925293
8	27.691301107406616	fix_post	2		12.0	6.0	2.5	/experiments/knapen_aot/videos/R_S_ILSVRC2015_train_00518001.mp4	0.0	185.99932217597961	0.09995293617248535
9	27.7912540435791	fix_pre	0		85.0	7.0	2.5	/experiments/knapen_aot/videos/S_ILSVRC2015_train_00405001.mp4	0.0	186.0992751121521	0.7082679271697998
9	28.49132800102234	response	0	2		7.0	2.5	/experiments/knapen_aot/videos/S_ILSVRC2015_train_00405001.mp4	0.0	186.79934906959534	
9	28.4995219707489	movie	1		301.0	7.0	2.5	/experiments/knapen_aot/videos/S_ILSVRC2015_train_00405001.mp4	0.0	186.8075430393219	2.5084691047668457
9	31.007991075515747	fix_post	2		12.0	7.0	2.5	/experiments/knapen_aot/videos/S_ILSVRC2015_train_00405001.mp4	0.0	189.31601214408875	0.0999598503112793
10	31.107950925827026	fix_pre	0		137.0	8.0	2.5	/experiments/knapen_aot/videos/R_S_BsNCrwV7d8Q_9.mp4	0.0	189.41597199440002	1.1416900157928467
10	32.241304874420166	response	0	2		8.0	2.5	/experiments/knapen_aot/videos/R_S_BsNCrwV7d8Q_9.mp4	0.0	190.54932594299316	
10	32.24964094161987	movie	1		301.0	8.0	2.5	/experiments/knapen_aot/videos/R_S_BsNCrwV7d8Q_9.mp4	0.0	190.55766201019287	2.5083510875701904
10	34.75799202919006	fix_post	2		12.0	8.0	2.5	/experiments/knapen_aot/videos/R_S_BsNCrwV7d8Q_9.mp4	0.0	193.06601309776306	0.10003089904785156
11	34.858022928237915	fix_pre	0		37.0	9.0	2.5	/experiments/knapen_aot/videos/R_S_yt-3eQHOLBzOqA_100.mp4	0.0	193.1660439968109	0.3095061779022217
11	35.15796089172363	response	0	2		9.0	2.5	/experiments/knapen_aot/videos/R_S_yt-3eQHOLBzOqA_100.mp4	0.0	193.46598196029663	
11	35.16752910614014	movie	1		301.0	9.0	2.5	/experiments/knapen_aot/videos/R_S_yt-3eQHOLBzOqA_100.mp4	0.0	193.47555017471313	2.507124900817871
11	37.67465400695801	fix_post	2		12.0	9.0	2.5	/experiments/knapen_aot/videos/R_S_yt-3eQHOLBzOqA_100.mp4	0.0	195.982675075531	0.09988093376159668
12	37.774534940719604	fix_pre	0		49.0	10.0	2.5	/experiments/knapen_aot/videos/S_yt-mWlx1SIXl5M_850.mp4	0.0	196.0825560092926	0.4083399772644043
12	38.167076110839844	response	0	2		10.0	2.5	/experiments/knapen_aot/videos/S_yt-mWlx1SIXl5M_850.mp4	0.0	196.47509717941284	
12	38.18287491798401	movie	1		301.0	10.0	2.5	/experiments/knapen_aot/videos/S_yt-mWlx1SIXl5M_850.mp4	0.0	196.490895986557	2.5083000659942627
12	40.69117498397827	fix_post	2		12.0	10.0	2.5	/experiments/knapen_aot/videos/S_yt-mWlx1SIXl5M_850.mp4	0.0	198.99919605255127	0.09998512268066406
13	40.791160106658936	fix_pre	0		58.0	11.0	2.5	/experiments/knapen_aot/videos/S_ILSVRC2015_train_00369002.mp4	0.0	199.09918117523193	0.4833087921142578
13	41.26633095741272	response	0	2		11.0	2.5	/experiments/knapen_aot/videos/S_ILSVRC2015_train_00369002.mp4	0.0	199.57435202598572	
13	41.27446889877319	movie	1		301.0	11.0	2.5	/experiments/knapen_aot/videos/S_ILSVRC2015_train_00369002.mp4	0.0	199.5824899673462	2.508385181427002
13	43.782854080200195	fix_post	2		12.0	11.0	2.5	/experiments/knapen_aot/videos/S_ILSVRC2015_train_00369002.mp4	0.0	202.0908751487732	0.09998703002929688
14	43.88284111022949	fix_pre	0		158.0	12.0	2.5	/experiments/knapen_aot/videos/R_S_yt-feTWuKPZA_k_34.mp4	0.0	202.1908621788025	1.3166718482971191
14	45.19116401672363	response	0	2		12.0	2.5	/experiments/knapen_aot/videos/R_S_yt-feTWuKPZA_k_34.mp4	0.0	203.49918508529663	
14	45.19951295852661	movie	1		301.0	12.0	2.5	/experiments/knapen_aot/videos/R_S_yt-feTWuKPZA_k_34.mp4	0.0	203.5075340270996	2.5083861351013184
14	47.70789909362793	fix_post	2		12.0	12.0	2.5	/experiments/knapen_aot/videos/R_S_yt-feTWuKPZA_k_34.mp4	0.0	206.01592016220093	0.09992289543151855
15	47.80782198905945	fix_pre	0		43.0	13.0	2.5	blank	1.0	206.11584305763245	0.35837602615356445
15	48.1579430103302	response	0	2		13.0	2.5	blank	1.0	206.4659640789032	
15	48.16619801521301	movie	1		301.0	13.0	2.5	blank	1.0	206.474219083786	2.508275032043457
15	50.67447304725647	fix_post	2		12.0	13.0	2.5	blank	1.0	208.98249411582947	0.10007286071777344
16	50.77454590797424	fix_pre	0		49.0	14.0	2.5	/experiments/knapen_aot/videos/R_S_yt-AjyR9--Mx3A_44.mp4	0.0	209.08256697654724	0.40821003913879395
16	51.174521923065186	response	0	2		14.0	2.5	/experiments/knapen_aot/videos/R_S_yt-AjyR9--Mx3A_44.mp4	0.0	209.48254299163818	
16	51.18275594711304	movie	1		301.0	14.0	2.5	/experiments/knapen_aot/videos/R_S_yt-AjyR9--Mx3A_44.mp4	0.0	209.49077701568604	2.508419990539551
16	53.69117593765259	fix_post	2		12.0	14.0	2.5	/experiments/knapen_aot/videos/R_S_yt-AjyR9--Mx3A_44.mp4	0.0	211.9991970062256	0.10018014907836914
17	53.79135608673096	fix_pre	0		22.0	15.0	2.5	/experiments/knapen_aot/videos/S_yt-cgYmOmMzn98_103.mp4	0.0	212.09937715530396	0.1831059455871582
17	53.96625590324402	response	0	2		15.0	2.5	/experiments/knapen_aot/videos/S_yt-cgYmOmMzn98_103.mp4	0.0	212.27427697181702	
17	53.974462032318115	movie	1		301.0	15.0	2.5	/experiments/knapen_aot/videos/S_yt-cgYmOmMzn98_103.mp4	0.0	212.2824831008911	2.5083680152893066
17	56.48283004760742	fix_post	2		12.0	15.0	2.5	/experiments/knapen_aot/videos/S_yt-cgYmOmMzn98_103.mp4	0.0	214.79085111618042	0.09998297691345215
18	56.582813024520874	fix_pre	0		49.0	16.0	2.5	/experiments/knapen_aot/videos/S_yt-nfDPFHUDq8g_136.mp4	0.0	214.89083409309387	0.40824103355407715
18	56.98292303085327	response	0	2		16.0	2.5	/experiments/knapen_aot/videos/S_yt-nfDPFHUDq8g_136.mp4	0.0	215.29094409942627	
18	56.99105405807495	movie	1		301.0	16.0	2.5	/experiments/knapen_aot/videos/S_yt-nfDPFHUDq8g_136.mp4	0.0	215.29907512664795	2.5084550380706787
18	59.49950909614563	fix_post	2		12.0	16.0	2.5	/experiments/knapen_aot/videos/S_yt-nfDPFHUDq8g_136.mp4	0.0	217.80753016471863	0.09992384910583496
19	59.599432945251465	fix_pre	0		68.0	17.0	2.5	/experiments/knapen_aot/videos/R_S_ILSVRC2015_train_00405001.mp4	0.0	217.90745401382446	0.5677840709686279
19	60.15784192085266	response	0	2		17.0	2.5	/experiments/knapen_aot/videos/R_S_ILSVRC2015_train_00405001.mp4	0.0	218.46586298942566	
19	60.16721701622009	movie	1		301.0	17.0	2.5	/experiments/knapen_aot/videos/R_S_ILSVRC2015_train_00405001.mp4	0.0	218.4752380847931	2.5072689056396484
19	62.67448592185974	fix_post	2		12.0	17.0	2.5	/experiments/knapen_aot/videos/R_S_ILSVRC2015_train_00405001.mp4	0.0	220.98250699043274	0.09993696212768555
20	62.77442288398743	fix_pre	0		326.0	18.0	2.5	/experiments/knapen_aot/videos/R_S_yt-aD-EAuBdpUo_163.mp4	0.0	221.08244395256042	2.7165679931640625
20	65.48283290863037	response	0	2		18.0	2.5	/experiments/knapen_aot/videos/R_S_yt-aD-EAuBdpUo_163.mp4	0.0	223.79085397720337	
20	65.49099087715149	movie	1		301.0	18.0	2.5	/experiments/knapen_aot/videos/R_S_yt-aD-EAuBdpUo_163.mp4	0.0	223.7990119457245	2.5084421634674072
20	67.9994330406189	fix_post	2		12.0	18.0	2.5	/experiments/knapen_aot/videos/R_S_yt-aD-EAuBdpUo_163.mp4	0.0	226.3074541091919	0.09996604919433594
21	68.09939908981323	fix_pre	0		82.0	19.0	2.5	blank	1.0	226.40742015838623	0.6833469867706299
21	68.77453303337097	response	0	2		19.0	2.5	blank	1.0	227.08255410194397	
21	68.78274607658386	movie	1		301.0	19.0	2.5	blank	1.0	227.09076714515686	2.5083038806915283
21	71.29104995727539	fix_post	2		12.0	19.0	2.5	blank	1.0	229.5990710258484	0.10000014305114746
22	71.39105010032654	fix_pre	0		10.0	20.0	2.5	/experiments/knapen_aot/videos/R_S_-vPHq-7BJ70_15.mp4	0.0	229.69907116889954	0.08333396911621094
22	71.46625304222107	response	0	2		20.0	2.5	/experiments/knapen_aot/videos/R_S_-vPHq-7BJ70_15.mp4	0.0	229.77427411079407	
22	71.47438406944275	movie	1		301.0	20.0	2.5	/experiments/knapen_aot/videos/R_S_-vPHq-7BJ70_15.mp4	0.0	229.78240513801575	2.5084989070892334
22	73.98288297653198	fix_post	2		12.0	20.0	2.5	/experiments/knapen_aot/videos/R_S_-vPHq-7BJ70_15.mp4	0.0	232.29090404510498	0.09985589981079102
23	74.08273887634277	fix_pre	0		68.0	21.0	2.5	/experiments/knapen_aot/videos/S_wc-zkO_omg3nTvg_5.mp4	0.0	232.39075994491577	0.566627025604248
23	74.6411190032959	response	0	2		21.0	2.5	/experiments/knapen_aot/videos/S_wc-zkO_omg3nTvg_5.mp4	0.0	232.9491400718689	
23	74.64936590194702	movie	1		164.0	21.0	2.5	/experiments/knapen_aot/videos/S_wc-zkO_omg3nTvg_5.mp4	0.0	232.95738697052002	2.508476972579956
23	77.15784287452698	fix_post	2		12.0	21.0	2.5	/experiments/knapen_aot/videos/S_wc-zkO_omg3nTvg_5.mp4	0.0	235.46586394309998	0.09985709190368652
24	77.25769996643066	fix_pre	0		62.0	22.0	2.5	/experiments/knapen_aot/videos/R_S_yt-HMAa2QbfFPI_216.mp4	0.0	235.56572103500366	0.5166139602661133
24	77.76614809036255	response	0	2		22.0	2.5	/experiments/knapen_aot/videos/R_S_yt-HMAa2QbfFPI_216.mp4	0.0	236.07416915893555	
24	77.77431392669678	movie	1		301.0	22.0	2.5	/experiments/knapen_aot/videos/R_S_yt-HMAa2QbfFPI_216.mp4	0.0	236.08233499526978	2.508376121520996
24	80.28269004821777	fix_post	2		12.0	22.0	2.5	/experiments/knapen_aot/videos/R_S_yt-HMAa2QbfFPI_216.mp4	0.0	238.59071111679077	0.10001301765441895
25	80.38270306587219	fix_pre	0		163.0	23.0	2.5	/experiments/knapen_aot/videos/S_ILSVRC2015_train_00518001.mp4	0.0	238.6907241344452	1.3582630157470703
25	81.73277306556702	response	0	2		23.0	2.5	/experiments/knapen_aot/videos/S_ILSVRC2015_train_00518001.mp4	0.0	240.04079413414001	
25	81.74096608161926	movie	1		301.0	23.0	2.5	/experiments/knapen_aot/videos/S_ILSVRC2015_train_00518001.mp4	0.0	240.04898715019226	2.508368968963623
25	84.24933505058289	fix_post	2		12.0	23.0	2.5	/experiments/knapen_aot/videos/S_ILSVRC2015_train_00518001.mp4	0.0	242.55735611915588	0.10000896453857422
26	84.34934401512146	fix_pre	0		57.0	24.0	2.5	/experiments/knapen_aot/videos/R_S_yt-SCzpSxzt0TA_46.mp4	0.0	242.65736508369446	0.474977970123291
26	84.81605505943298	response	0	2		24.0	2.5	/experiments/knapen_aot/videos/R_S_yt-SCzpSxzt0TA_46.mp4	0.0	243.12407612800598	
26	84.82432198524475	movie	1		301.0	24.0	2.5	/experiments/knapen_aot/videos/R_S_yt-SCzpSxzt0TA_46.mp4	0.0	243.13234305381775	2.508344888687134
26	87.33266687393188	fix_post	2		12.0	24.0	2.5	/experiments/knapen_aot/videos/R_S_yt-SCzpSxzt0TA_46.mp4	0.0	245.64068794250488	0.09992313385009766
27	87.43259000778198	fix_pre	0		67.0	25.0	2.5	/experiments/knapen_aot/videos/S_yt-MXLxcvKZDHw_22.mp4	0.0	245.74061107635498	0.5583770275115967
27	87.98269891738892	response	0	2		25.0	2.5	/experiments/knapen_aot/videos/S_yt-MXLxcvKZDHw_22.mp4	0.0	246.2907199859619	
27	87.99096703529358	movie	1		301.0	25.0	2.5	/experiments/knapen_aot/videos/S_yt-MXLxcvKZDHw_22.mp4	0.0	246.29898810386658	2.508342981338501
27	90.49931001663208	fix_post	2		12.0	25.0	2.5	/experiments/knapen_aot/videos/S_yt-MXLxcvKZDHw_22.mp4	0.0	248.80733108520508	0.10005402565002441
28	90.5993640422821	fix_pre	0		49.0	26.0	2.5	/experiments/knapen_aot/videos/S_yt-w_e3sxIzepA_27.mp4	0.0	248.9073851108551	0.40828585624694824
28	90.99943208694458	response	0	2		26.0	2.5	/experiments/knapen_aot/videos/S_yt-w_e3sxIzepA_27.mp4	0.0	249.30745315551758	
28	91.00764989852905	movie	1		301.0	26.0	2.5	/experiments/knapen_aot/videos/S_yt-w_e3sxIzepA_27.mp4	0.0	249.31567096710205	2.5083091259002686
28	93.51595902442932	fix_post	2		12.0	26.0	2.5	/experiments/knapen_aot/videos/S_yt-w_e3sxIzepA_27.mp4	0.0	251.82398009300232	0.10000395774841309
29	93.61596298217773	fix_pre	0		47.0	27.0	2.5	/experiments/knapen_aot/videos/S_pexels-koolshooters-7327401_1.mp4	0.0	251.92398405075073	0.39163708686828613
29	93.99942588806152	response	0	2		27.0	2.5	/experiments/knapen_aot/videos/S_pexels-koolshooters-7327401_1.mp4	0.0	252.30744695663452	
29	94.00760006904602	movie	1		168.0	27.0	2.5	/experiments/knapen_aot/videos/S_pexels-koolshooters-7327401_1.mp4	0.0	252.31562113761902	2.508368968963623
29	96.51596903800964	fix_post	2		12.0	27.0	2.5	/experiments/knapen_aot/videos/S_pexels-koolshooters-7327401_1.mp4	0.0	254.82399010658264	0.09995388984680176
30	96.61592292785645	fix_pre	0		45.0	28.0	2.5	blank	1.0	254.92394399642944	0.37502408027648926
30	96.98269605636597	response	0	2		28.0	2.5	blank	1.0	255.29071712493896	
30	96.99094700813293	movie	1		301.0	28.0	2.5	blank	1.0	255.29896807670593	2.5083179473876953
30	99.49926495552063	fix_post	2		12.0	28.0	2.5	blank	1.0	257.8072860240936	0.10017204284667969
31	99.59943699836731	fix_pre	0		28.0	29.0	2.5	/experiments/knapen_aot/videos/S_DV6V38rplag_215.mp4	0.0	257.9074580669403	0.23409199714660645
31	99.82431507110596	response	0	2		29.0	2.5	/experiments/knapen_aot/videos/S_DV6V38rplag_215.mp4	0.0	258.13233613967896	
31	99.83352899551392	movie	1		301.0	29.0	2.5	/experiments/knapen_aot/videos/S_DV6V38rplag_215.mp4	0.0	258.1415500640869	2.5074119567871094
31	102.34094095230103	fix_post	2		12.0	29.0	2.5	/experiments/knapen_aot/videos/S_DV6V38rplag_215.mp4	0.0	260.648962020874	0.09998512268066406
32	102.44092607498169	fix_pre	0		47.0	30.0	2.5	/experiments/knapen_aot/videos/R_S_yt-w_e3sxIzepA_27.mp4	0.0	260.7489471435547	0.39253687858581543
32	102.82436108589172	response	0	2		30.0	2.5	/experiments/knapen_aot/videos/R_S_yt-w_e3sxIzepA_27.mp4	0.0	261.1323821544647	
32	102.8334629535675	movie	1		301.0	30.0	2.5	/experiments/knapen_aot/videos/R_S_yt-w_e3sxIzepA_27.mp4	0.0	261.1414840221405	2.5075290203094482
32	105.34099197387695	fix_post	2		12.0	30.0	2.5	/experiments/knapen_aot/videos/R_S_yt-w_e3sxIzepA_27.mp4	0.0	263.64901304244995	0.09994006156921387
33	105.44093203544617	fix_pre	0		47.0	31.0	2.5	/experiments/knapen_aot/videos/R_S_yt-PvWkOmfZuSY_4.mp4	0.0	263.74895310401917	0.39261794090270996
33	105.82438206672668	response	0	2		31.0	2.5	/experiments/knapen_aot/videos/R_S_yt-PvWkOmfZuSY_4.mp4	0.0	264.1324031352997	
33	105.83354997634888	movie	1		301.0	31.0	2.5	/experiments/knapen_aot/videos/R_S_yt-PvWkOmfZuSY_4.mp4	0.0	264.1415710449219	2.5073390007019043
33	108.34088897705078	fix_post	2		12.0	31.0	2.5	/experiments/knapen_aot/videos/R_S_yt-PvWkOmfZuSY_4.mp4	0.0	266.6489100456238	0.1000220775604248
34	108.4409110546112	fix_pre	0		34.0	32.0	2.5	/experiments/knapen_aot/videos/S_yt-w_e3sxIzepA_27.mp4	0.0	266.7489321231842	0.2832798957824707
34	108.71604895591736	response	0	2		32.0	2.5	/experiments/knapen_aot/videos/S_yt-w_e3sxIzepA_27.mp4	0.0	267.02407002449036	
34	108.72419095039368	movie	1		301.0	32.0	2.5	/experiments/knapen_aot/videos/S_yt-w_e3sxIzepA_27.mp4	0.0	267.0322120189667	2.5084590911865234
34	111.2326500415802	fix_post	2		12.0	32.0	2.5	/experiments/knapen_aot/videos/S_yt-w_e3sxIzepA_27.mp4	0.0	269.5406711101532	0.09992790222167969
35	111.33257794380188	fix_pre	0		44.0	33.0	2.5	/experiments/knapen_aot/videos/S_ILSVRC2015_train_00549001.mp4	0.0	269.6405990123749	0.3665790557861328
35	111.69100093841553	response	0	2		33.0	2.5	/experiments/knapen_aot/videos/S_ILSVRC2015_train_00549001.mp4	0.0	269.9990220069885	
35	111.69915699958801	movie	1		301.0	33.0	2.5	/experiments/knapen_aot/videos/S_ILSVRC2015_train_00549001.mp4	0.0	270.007178068161	2.5083730220794678
35	114.20753002166748	fix_post	2		12.0	33.0	2.5	/experiments/knapen_aot/videos/S_ILSVRC2015_train_00549001.mp4	0.0	272.5155510902405	0.10003495216369629
36	114.30756497383118	fix_pre	0		24.0	34.0	2.5	blank	1.0	272.6155860424042	0.20000791549682617
36	114.49929308891296	response	0	2		34.0	2.5	blank	1.0	272.80731415748596	
36	114.507572889328	movie	1		301.0	34.0	2.5	blank	1.0	272.815593957901	2.5082900524139404
36	117.01586294174194	fix_post	2		12.0	34.0	2.5	blank	1.0	275.32388401031494	0.09992814064025879
37	117.1157910823822	fix_pre	0		42.0	35.0	2.5	/experiments/knapen_aot/videos/R_S_ILSVRC2015_train_00485001.mp4	0.0	275.4238121509552	0.35001182556152344
37	117.45008206367493	response	0	2		35.0	2.5	/experiments/knapen_aot/videos/R_S_ILSVRC2015_train_00485001.mp4	0.0	275.7581031322479	
37	117.46580290794373	movie	1		301.0	35.0	2.5	/experiments/knapen_aot/videos/R_S_ILSVRC2015_train_00485001.mp4	0.0	275.7738239765167	2.5084099769592285
37	119.97421288490295	fix_post	2		12.0	35.0	2.5	/experiments/knapen_aot/videos/R_S_ILSVRC2015_train_00485001.mp4	0.0	278.28223395347595	0.09996199607849121
38	120.07417488098145	fix_pre	0		29.0	36.0	2.5	/experiments/knapen_aot/videos/R_S_yt-uX7qYKQm_pg_277.mp4	0.0	278.38219594955444	0.24166011810302734
38	120.3076241016388	response	0	2		36.0	2.5	/experiments/knapen_aot/videos/R_S_yt-uX7qYKQm_pg_277.mp4	0.0	278.6156451702118	
38	120.31583499908447	movie	1		301.0	36.0	2.5	/experiments/knapen_aot/videos/R_S_yt-uX7qYKQm_pg_277.mp4	0.0	278.62385606765747	2.50838303565979
38	122.82421803474426	fix_post	2		12.0	36.0	2.5	/experiments/knapen_aot/videos/R_S_yt-uX7qYKQm_pg_277.mp4	0.0	281.13223910331726	0.09994196891784668
39	122.92416000366211	fix_pre	0		46.0	37.0	2.5	/experiments/knapen_aot/videos/R_S_8amznWxLS04_212.mp4	0.0	281.2321810722351	0.38334202766418457
39	123.29929208755493	response	0	2		37.0	2.5	/experiments/knapen_aot/videos/R_S_8amznWxLS04_212.mp4	0.0	281.60731315612793	
39	123.3075020313263	movie	1		301.0	37.0	2.5	/experiments/knapen_aot/videos/R_S_8amznWxLS04_212.mp4	0.0	281.6155230998993	2.5083320140838623
39	125.81583404541016	fix_post	2		12.0	37.0	2.5	/experiments/knapen_aot/videos/R_S_8amznWxLS04_212.mp4	0.0	284.12385511398315	0.10019993782043457
40	125.91603398323059	fix_pre	0		33.0	38.0	2.5	/experiments/knapen_aot/videos/S_ILSVRC2015_train_00595000.mp4	0.0	284.2240550518036	0.27474498748779297
40	126.18258690834045	response	0	2		38.0	2.5	/experiments/knapen_aot/videos/S_ILSVRC2015_train_00595000.mp4	0.0	284.49060797691345	
40	126.19077897071838	movie	1		301.0	38.0	2.5	/experiments/knapen_aot/videos/S_ILSVRC2015_train_00595000.mp4	0.0	284.4988000392914	2.5083789825439453
40	128.69915795326233	fix_post	2		12.0	38.0	2.5	/experiments/knapen_aot/videos/S_ILSVRC2015_train_00595000.mp4	0.0	287.0071790218353	0.09994101524353027
41	128.79909896850586	fix_pre	0		38.0	39.0	2.5	/experiments/knapen_aot/videos/R_S_yt-fk-z6WCvjjA_3.mp4	0.0	287.10712003707886	0.3166971206665039
41	129.1075370311737	response	0	2		39.0	2.5	/experiments/knapen_aot/videos/R_S_yt-fk-z6WCvjjA_3.mp4	0.0	287.4155580997467	
41	129.11579608917236	movie	1		301.0	39.0	2.5	/experiments/knapen_aot/videos/R_S_yt-fk-z6WCvjjA_3.mp4	0.0	287.42381715774536	2.508312940597534
41	131.6241090297699	fix_post	2		12.0	39.0	2.5	/experiments/knapen_aot/videos/R_S_yt-fk-z6WCvjjA_3.mp4	0.0	289.9321300983429	0.10000801086425781
42	131.72411704063416	fix_pre	0		25.0	40.0	2.5	/experiments/knapen_aot/videos/S_yt-HwZFMTZ7Xko_35.mp4	0.0	290.03213810920715	0.20831704139709473
42	131.92421889305115	response	0	2		40.0	2.5	/experiments/knapen_aot/videos/S_yt-HwZFMTZ7Xko_35.mp4	0.0	290.23223996162415	
42	131.93243408203125	movie	1		301.0	40.0	2.5	/experiments/knapen_aot/videos/S_yt-HwZFMTZ7Xko_35.mp4	0.0	290.24045515060425	2.50832200050354
42	134.4407560825348	fix_post	2		12.0	40.0	2.5	/experiments/knapen_aot/videos/S_yt-HwZFMTZ7Xko_35.mp4	0.0	292.7487771511078	0.10008692741394043
43	134.54084300994873	fix_pre	0		87.0	41.0	2.5	/experiments/knapen_aot/videos/R_S_yt-bH4nJibL4Jo_164.mp4	0.0	292.84886407852173	0.7249619960784912
43	135.25756287574768	response	0	2		41.0	2.5	/experiments/knapen_aot/videos/R_S_yt-bH4nJibL4Jo_164.mp4	0.0	293.5655839443207	
43	135.26580500602722	movie	1		301.0	41.0	2.5	/experiments/knapen_aot/videos/R_S_yt-bH4nJibL4Jo_164.mp4	0.0	293.5738260746002	2.508354902267456
43	137.77415990829468	fix_post	2		12.0	41.0	2.5	/experiments/knapen_aot/videos/R_S_yt-bH4nJibL4Jo_164.mp4	0.0	296.0821809768677	0.10016012191772461
44	137.8743200302124	fix_pre	0		63.0	42.0	2.5	blank	1.0	296.1823410987854	0.5247478485107422
44	138.390860080719	response	0	2		42.0	2.5	blank	1.0	296.698881149292	
44	138.39906787872314	movie	1		301.0	42.0	2.5	blank	1.0	296.70708894729614	2.508364200592041
44	140.90743207931519	fix_post	2		12.0	42.0	2.5	blank	1.0	299.2154531478882	0.09998703002929688
45	141.00741910934448	fix_pre	0		24.0	43.0	2.5	/experiments/knapen_aot/videos/R_S_ILSVRC2015_train_00042003.mp4	0.0	299.3154401779175	0.2006998062133789
45	141.19906091690063	response	0	2		43.0	2.5	/experiments/knapen_aot/videos/R_S_ILSVRC2015_train_00042003.mp4	0.0	299.50708198547363	
45	141.20811891555786	movie	1		301.0	43.0	2.5	/experiments/knapen_aot/videos/R_S_ILSVRC2015_train_00042003.mp4	0.0	299.51613998413086	2.5076379776000977
45	143.71575689315796	fix_post	2		12.0	43.0	2.5	/experiments/knapen_aot/videos/R_S_ILSVRC2015_train_00042003.mp4	0.0	302.02377796173096	0.09995913505554199
46	143.8157160282135	fix_pre	0		17.0	44.0	2.5	/experiments/knapen_aot/videos/S_yt-zhQ32_OayBQ_39.mp4	0.0	302.1237370967865	0.1424388885498047
46	143.9491639137268	response	0	2		44.0	2.5	/experiments/knapen_aot/videos/S_yt-zhQ32_OayBQ_39.mp4	0.0	302.2571849822998	
46	143.9581549167633	movie	1		301.0	44.0	2.5	/experiments/knapen_aot/videos/S_yt-zhQ32_OayBQ_39.mp4	0.0	302.2661759853363	2.5075700283050537
46	146.46572494506836	fix_post	2		12.0	44.0	2.5	/experiments/knapen_aot/videos/S_yt-zhQ32_OayBQ_39.mp4	0.0	304.77374601364136	0.10005807876586914
47	146.56578302383423	fix_pre	0		13.0	45.0	2.5	/experiments/knapen_aot/videos/R_S_yt-aD-EAuBdpUo_163.mp4	0.0	304.8738040924072	0.10821700096130371
47	146.66586804389954	response	0	2		45.0	2.5	/experiments/knapen_aot/videos/R_S_yt-aD-EAuBdpUo_163.mp4	0.0	304.97388911247253	
47	146.67400002479553	movie	1		301.0	45.0	2.5	/experiments/knapen_aot/videos/R_S_yt-aD-EAuBdpUo_163.mp4	0.0	304.98202109336853	2.5084068775177
47	149.18240690231323	fix_post	2		11.0	45.0	2.5	/experiments/knapen_aot/videos/R_S_yt-aD-EAuBdpUo_163.mp4	0.0	307.49042797088623	0.0915842056274414
47	149.26581597328186	response	2	2		45.0	2.5	/experiments/knapen_aot/videos/R_S_yt-aD-EAuBdpUo_163.mp4	0.0	307.57383704185486	
48	149.27399110794067	fix_pre	0		98.0	46.0	2.5	/experiments/knapen_aot/videos/R_S_yt-deiWoIfK6vg_44.mp4	0.0	307.5820121765137	0.8167128562927246
48	150.08239889144897	response	0	2		46.0	2.5	/experiments/knapen_aot/videos/R_S_yt-deiWoIfK6vg_44.mp4	0.0	308.390419960022	
48	150.0907039642334	movie	1		301.0	46.0	2.5	/experiments/knapen_aot/videos/R_S_yt-deiWoIfK6vg_44.mp4	0.0	308.3987250328064	2.5083320140838623
48	152.59903597831726	fix_post	2		12.0	46.0	2.5	/experiments/knapen_aot/videos/R_S_yt-deiWoIfK6vg_44.mp4	0.0	310.90705704689026	0.09999394416809082
49	152.69902992248535	fix_pre	0		3.0	47.0	2.5	/experiments/knapen_aot/videos/R_S_yt-QFGyhhr1KSQ_9.mp4	0.0	311.00705099105835	0.025074005126953125
49	152.71588706970215	response	0	2		47.0	2.5	/experiments/knapen_aot/videos/R_S_yt-QFGyhhr1KSQ_9.mp4	0.0	311.02390813827515	
49	152.7241039276123	movie	1		301.0	47.0	2.5	/experiments/knapen_aot/videos/R_S_yt-QFGyhhr1KSQ_9.mp4	0.0	311.0321249961853	2.5082640647888184
49	155.23236799240112	fix_post	2		12.0	47.0	2.5	/experiments/knapen_aot/videos/R_S_yt-QFGyhhr1KSQ_9.mp4	0.0	313.5403890609741	0.09998607635498047
50	155.3323540687561	fix_pre	0		44.0	48.0	2.5	blank	1.0	313.6403751373291	0.366649866104126
50	155.69073104858398	response	0	2		48.0	2.5	blank	1.0	313.998752117157	
50	155.69900393486023	movie	1		301.0	48.0	2.5	blank	1.0	314.0070250034332	2.5083460807800293
50	158.20735001564026	fix_post	2		12.0	48.0	2.5	blank	1.0	316.51537108421326	0.10019588470458984
51	158.30754590034485	fix_pre	0		54.0	49.0	2.5	/experiments/knapen_aot/videos/R_S_yt-kawmL3oVw8c_2.mp4	0.0	316.61556696891785	0.44977402687072754
51	158.7490520477295	response	0	2		49.0	2.5	/experiments/knapen_aot/videos/R_S_yt-kawmL3oVw8c_2.mp4	0.0	317.0570731163025	
51	158.75731992721558	movie	1		301.0	49.0	2.5	/experiments/knapen_aot/videos/R_S_yt-kawmL3oVw8c_2.mp4	0.0	317.0653409957886	2.5083820819854736
51	161.26570200920105	fix_post	2		12.0	49.0	2.5	/experiments/knapen_aot/videos/R_S_yt-kawmL3oVw8c_2.mp4	0.0	319.57372307777405	0.0999150276184082
52	161.36561703681946	fix_pre	0		31.0	50.0	2.5	/experiments/knapen_aot/videos/S_yt-SCzpSxzt0TA_46.mp4	0.0	319.67363810539246	0.2590320110321045
52	161.61585998535156	response	0	2		50.0	2.5	/experiments/knapen_aot/videos/S_yt-SCzpSxzt0TA_46.mp4	0.0	319.92388105392456	
52	161.62464904785156	movie	1		301.0	50.0	2.5	/experiments/knapen_aot/videos/S_yt-SCzpSxzt0TA_46.mp4	0.0	319.93267011642456	2.507801055908203
52	164.13245010375977	fix_post	2		12.0	50.0	2.5	/experiments/knapen_aot/videos/S_yt-SCzpSxzt0TA_46.mp4	0.0	322.44047117233276	0.09991788864135742
53	164.23236799240112	fix_pre	0		38.0	51.0	2.5	/experiments/knapen_aot/videos/S_pexels-anthony-shkraba-production-8135459.mp4	0.0	322.5403890609741	0.3166360855102539
53	164.54082608222961	response	0	2		51.0	2.5	/experiments/knapen_aot/videos/S_pexels-anthony-shkraba-production-8135459.mp4	0.0	322.8488471508026	
53	164.54900407791138	movie	1		167.0	51.0	2.5	/experiments/knapen_aot/videos/S_pexels-anthony-shkraba-production-8135459.mp4	0.0	322.8570251464844	2.5083649158477783
53	167.05736899375916	fix_post	2		12.0	51.0	2.5	/experiments/knapen_aot/videos/S_pexels-anthony-shkraba-production-8135459.mp4	0.0	325.36539006233215	0.09993600845336914
54	167.15730500221252	fix_pre	0		56.0	52.0	2.5	/experiments/knapen_aot/videos/R_S_nTA7B2uHaCQ_1.mp4	0.0	325.4653260707855	0.4672379493713379
54	167.61582493782043	response	0	2		52.0	2.5	/experiments/knapen_aot/videos/R_S_nTA7B2uHaCQ_1.mp4	0.0	325.92384600639343	
54	167.62454295158386	movie	1		301.0	52.0	2.5	/experiments/knapen_aot/videos/R_S_nTA7B2uHaCQ_1.mp4	0.0	325.93256402015686	2.5077340602874756
54	170.13227701187134	fix_post	2		12.0	52.0	2.5	/experiments/knapen_aot/videos/R_S_nTA7B2uHaCQ_1.mp4	0.0	328.44029808044434	0.09997296333312988
55	170.23224997520447	fix_pre	0		40.0	53.0	2.5	/experiments/knapen_aot/videos/R_S_wc-b4Oquu3WQPRz_45.mp4	0.0	328.54027104377747	0.3333160877227783
55	170.55742287635803	response	0	2		53.0	2.5	/experiments/knapen_aot/videos/R_S_wc-b4Oquu3WQPRz_45.mp4	0.0	328.86544394493103	
55	170.56556606292725	movie	1		168.0	53.0	2.5	/experiments/knapen_aot/videos/R_S_wc-b4Oquu3WQPRz_45.mp4	0.0	328.87358713150024	2.508380889892578
55	173.07394695281982	fix_post	2		12.0	53.0	2.5	/experiments/knapen_aot/videos/R_S_wc-b4Oquu3WQPRz_45.mp4	0.0	331.3819680213928	0.10001015663146973
56	173.1739571094513	fix_pre	0		50.0	54.0	2.5	/experiments/knapen_aot/videos/R_S_ILSVRC2015_train_00405001.mp4	0.0	331.4819781780243	0.4165818691253662
56	173.58242011070251	response	0	2		54.0	2.5	/experiments/knapen_aot/videos/R_S_ILSVRC2015_train_00405001.mp4	0.0	331.8904411792755	
56	173.59053897857666	movie	1		301.0	54.0	2.5	/experiments/knapen_aot/videos/R_S_ILSVRC2015_train_00405001.mp4	0.0	331.89856004714966	2.5083980560302734
56	176.09893703460693	fix_post	2		12.0	54.0	2.5	/experiments/knapen_aot/videos/R_S_ILSVRC2015_train_00405001.mp4	0.0	334.40695810317993	0.10002493858337402
57	176.1989619731903	fix_pre	0		40.0	55.0	2.5	blank	1.0	334.5069830417633	0.3334329128265381
57	176.51649594306946	response	0	2		55.0	2.5	blank	1.0	334.82451701164246	
57	176.53239488601685	movie	1		301.0	55.0	2.5	blank	1.0	334.84041595458984	2.508207082748413
57	179.04060196876526	fix_post	2		12.0	55.0	2.5	blank	1.0	337.34862303733826	0.1000070571899414
58	179.1406090259552	fix_pre	0		22.0	56.0	2.5	/experiments/knapen_aot/videos/R_S_yt-wjBwgccZM5k_150.mp4	0.0	337.4486300945282	0.18324804306030273
58	179.31567096710205	response	0	2		56.0	2.5	/experiments/knapen_aot/videos/R_S_yt-wjBwgccZM5k_150.mp4	0.0	337.62369203567505	
58	179.3238570690155	movie	1		301.0	56.0	2.5	/experiments/knapen_aot/videos/R_S_yt-wjBwgccZM5k_150.mp4	0.0	337.6318781375885	2.5085198879241943
58	181.8323769569397	fix_post	2		12.0	56.0	2.5	/experiments/knapen_aot/videos/R_S_yt-wjBwgccZM5k_150.mp4	0.0	340.1403980255127	0.09985494613647461
59	181.93223190307617	fix_pre	0		23.0	57.0	2.5	/experiments/knapen_aot/videos/S_yt-SCzpSxzt0TA_46.mp4	0.0	340.24025297164917	0.19212818145751953
59	182.11571097373962	response	0	2		57.0	2.5	/experiments/knapen_aot/videos/S_yt-SCzpSxzt0TA_46.mp4	0.0	340.4237320423126	
59	182.1243600845337	movie	1		301.0	57.0	2.5	/experiments/knapen_aot/videos/S_yt-SCzpSxzt0TA_46.mp4	0.0	340.4323811531067	2.507866859436035
59	184.63222694396973	fix_post	2		12.0	57.0	2.5	/experiments/knapen_aot/videos/S_yt-SCzpSxzt0TA_46.mp4	0.0	342.9402480125427	0.09994101524353027
60	184.73216795921326	fix_pre	0		32.0	58.0	2.5	/experiments/knapen_aot/videos/S_yt-1CV2cYtUlxE_57.mp4	0.0	343.04018902778625	0.2672591209411621
60	184.99070405960083	response	0	2		58.0	2.5	/experiments/knapen_aot/videos/S_yt-1CV2cYtUlxE_57.mp4	0.0	343.2987251281738	
60	184.99942708015442	movie	1		301.0	58.0	2.5	/experiments/knapen_aot/videos/S_yt-1CV2cYtUlxE_57.mp4	0.0	343.3074481487274	2.5078868865966797
60	187.5073139667511	fix_post	2		12.0	58.0	2.5	/experiments/knapen_aot/videos/S_yt-1CV2cYtUlxE_57.mp4	0.0	345.8153350353241	0.09985613822937012
61	187.60717010498047	fix_pre	0		31.0	59.0	2.5	/experiments/knapen_aot/videos/R_S_yt-8RmEimCI80g_35.mp4	0.0	345.91519117355347	0.25835299491882324
61	187.8572940826416	response	0	2		59.0	2.5	/experiments/knapen_aot/videos/R_S_yt-8RmEimCI80g_35.mp4	0.0	346.1653151512146	
61	187.8655230998993	movie	1		301.0	59.0	2.5	/experiments/knapen_aot/videos/R_S_yt-8RmEimCI80g_35.mp4	0.0	346.1735441684723	2.508368968963623
61	190.37389206886292	fix_post	2		12.0	59.0	2.5	/experiments/knapen_aot/videos/R_S_yt-8RmEimCI80g_35.mp4	0.0	348.6819131374359	0.10003495216369629
62	190.4739270210266	fix_pre	0		27.0	60.0	2.5	/experiments/knapen_aot/videos/R_S_I003_C004_SDR_2K_AVC.mp4	0.0	348.7819480895996	0.22485899925231934
62	190.6906509399414	response	0	2		60.0	2.5	/experiments/knapen_aot/videos/R_S_I003_C004_SDR_2K_AVC.mp4	0.0	348.9986720085144	
62	190.69878602027893	movie	1		172.0	60.0	2.5	/experiments/knapen_aot/videos/R_S_I003_C004_SDR_2K_AVC.mp4	0.0	349.00680708885193	2.5085220336914062
62	193.20730805397034	fix_post	2		12.0	60.0	2.5	/experiments/knapen_aot/videos/R_S_I003_C004_SDR_2K_AVC.mp4	0.0	351.51532912254333	0.10004401206970215
63	193.30735206604004	fix_pre	0		30.0	61.0	2.5	blank	1.0	351.61537313461304	0.2498769760131836
63	193.54898309707642	response	0	2		61.0	2.5	blank	1.0	351.8570041656494	
63	193.55722904205322	movie	1		301.0	61.0	2.5	blank	1.0	351.8652501106262	2.5082828998565674
63	195.89893102645874	response	1	2		61.0	2.5	blank	1.0	354.20695209503174	
63	196.0655119419098	fix_post	2		12.0	61.0	2.5	blank	1.0	354.3735330104828	0.10005903244018555
64	196.16557097434998	fix_pre	0		35.0	62.0	2.5	/experiments/knapen_aot/videos/R_S_yt-fGN7sGPy8BA_13.mp4	0.0	354.473592042923	0.29200291633605957
64	196.44893288612366	response	0	2		62.0	2.5	/experiments/knapen_aot/videos/R_S_yt-fGN7sGPy8BA_13.mp4	0.0	354.75695395469666	
64	196.45757389068604	movie	1		301.0	62.0	2.5	/experiments/knapen_aot/videos/R_S_yt-fGN7sGPy8BA_13.mp4	0.0	354.76559495925903	2.507930040359497
64	198.96550393104553	fix_post	2		12.0	62.0	2.5	/experiments/knapen_aot/videos/R_S_yt-fGN7sGPy8BA_13.mp4	0.0	357.27352499961853	0.10003399848937988
65	199.0655379295349	fix_pre	0		54.0	63.0	2.5	/experiments/knapen_aot/videos/S_yt-UPgF4YAHBQY_33.mp4	0.0	357.3735589981079	0.44991302490234375
65	199.5074200630188	response	0	2		63.0	2.5	/experiments/knapen_aot/videos/S_yt-UPgF4YAHBQY_33.mp4	0.0	357.8154411315918	
65	199.51545095443726	movie	1		301.0	63.0	2.5	/experiments/knapen_aot/videos/S_yt-UPgF4YAHBQY_33.mp4	0.0	357.82347202301025	2.5084190368652344
65	202.0238699913025	fix_post	2		12.0	63.0	2.5	/experiments/knapen_aot/videos/S_yt-UPgF4YAHBQY_33.mp4	0.0	360.3318910598755	0.10019993782043457
66	202.12406992912292	fix_pre	0		46.0	64.0	2.5	/experiments/knapen_aot/videos/S_yt-1n1jTroiwJs_163.mp4	0.0	360.4320909976959	0.3830440044403076
66	202.49892687797546	response	0	2		64.0	2.5	/experiments/knapen_aot/videos/S_yt-1n1jTroiwJs_163.mp4	0.0	360.80694794654846	
66	202.50711393356323	movie	1		301.0	64.0	2.5	/experiments/knapen_aot/videos/S_yt-1n1jTroiwJs_163.mp4	0.0	360.81513500213623	2.508358955383301
66	205.01547288894653	fix_post	2		12.0	64.0	2.5	/experiments/knapen_aot/videos/S_yt-1n1jTroiwJs_163.mp4	0.0	363.32349395751953	0.10001206398010254
67	205.11548495292664	fix_pre	0		79.0	65.0	2.5	/experiments/knapen_aot/videos/S_ILSVRC2015_train_00578001.mp4	0.0	363.42350602149963	0.658344030380249
67	205.765625	response	0	2		65.0	2.5	/experiments/knapen_aot/videos/S_ILSVRC2015_train_00578001.mp4	0.0	364.073646068573	
67	205.77382898330688	movie	1		301.0	65.0	2.5	/experiments/knapen_aot/videos/S_ILSVRC2015_train_00578001.mp4	0.0	364.0818500518799	2.5083069801330566
67	208.28213596343994	fix_post	2		12.0	65.0	2.5	/experiments/knapen_aot/videos/S_ILSVRC2015_train_00578001.mp4	0.0	366.59015703201294	0.09995412826538086
68	208.38209009170532	fix_pre	0		309.0	66.0	2.5	/experiments/knapen_aot/videos/S_nTA7B2uHaCQ_1.mp4	0.0	366.6901111602783	2.57535982131958
68	210.94882988929749	response	0	2		66.0	2.5	/experiments/knapen_aot/videos/S_nTA7B2uHaCQ_1.mp4	0.0	369.2568509578705	
68	210.9574499130249	movie	1		301.0	66.0	2.5	/experiments/knapen_aot/videos/S_nTA7B2uHaCQ_1.mp4	0.0	369.2654709815979	2.5080301761627197
68	213.46548008918762	fix_post	2		12.0	66.0	2.5	/experiments/knapen_aot/videos/S_nTA7B2uHaCQ_1.mp4	0.0	371.7735011577606	0.09995198249816895
69	213.5654320716858	fix_pre	0		50.0	67.0	2.5	/experiments/knapen_aot/videos/S_ILSVRC2015_train_00565000.mp4	0.0	371.8734531402588	0.4166879653930664
69	213.96636295318604	response	0	2		67.0	2.5	/experiments/knapen_aot/videos/S_ILSVRC2015_train_00565000.mp4	0.0	372.27438402175903	
69	213.98212003707886	movie	1		301.0	67.0	2.5	/experiments/knapen_aot/videos/S_ILSVRC2015_train_00565000.mp4	0.0	372.29014110565186	2.50832200050354
69	216.4904420375824	fix_post	2		12.0	67.0	2.5	/experiments/knapen_aot/videos/S_ILSVRC2015_train_00565000.mp4	0.0	374.7984631061554	0.0999908447265625
70	216.59043288230896	fix_pre	0		28.0	68.0	2.5	blank	1.0	374.89845395088196	0.233443021774292
70	216.81552505493164	response	0	2		68.0	2.5	blank	1.0	375.12354612350464	
70	216.82387590408325	movie	1		301.0	68.0	2.5	blank	1.0	375.13189697265625	2.5082690715789795
70	219.33214497566223	fix_post	2		12.0	68.0	2.5	blank	1.0	377.64016604423523	0.09987211227416992
71	219.4320170879364	fix_pre	0		73.0	69.0	2.5	/experiments/knapen_aot/videos/R_S_b1-3.mp4	0.0	377.7400381565094	0.6086709499359131
71	220.02461194992065	response	0	2		69.0	2.5	/experiments/knapen_aot/videos/R_S_b1-3.mp4	0.0	378.33263301849365	
71	220.04068803787231	movie	1		170.0	69.0	2.5	/experiments/knapen_aot/videos/R_S_b1-3.mp4	0.0	378.3487091064453	2.5080959796905518
71	222.1643888950348	response	1	2		69.0	2.5	/experiments/knapen_aot/videos/R_S_b1-3.mp4	0.0	380.4724099636078	
71	222.54878401756287	fix_post	2		12.0	69.0	2.5	/experiments/knapen_aot/videos/R_S_b1-3.mp4	0.0	380.85680508613586	0.09995508193969727
72	222.64873909950256	fix_pre	0		42.0	70.0	2.5	/experiments/knapen_aot/videos/R_S_yt-XA6RBioito4_18.mp4	0.0	380.95676016807556	0.3502638339996338
72	222.99042797088623	response	0	2		70.0	2.5	/experiments/knapen_aot/videos/R_S_yt-XA6RBioito4_18.mp4	0.0	381.29844903945923	
72	222.9990029335022	movie	1		301.0	70.0	2.5	/experiments/knapen_aot/videos/R_S_yt-XA6RBioito4_18.mp4	0.0	381.3070240020752	2.5080971717834473
72	223.95750999450684	response	1	2		70.0	2.5	/experiments/knapen_aot/videos/R_S_yt-XA6RBioito4_18.mp4	0.0	382.26553106307983	
72	225.50710010528564	fix_post	2		12.0	70.0	2.5	/experiments/knapen_aot/videos/R_S_yt-XA6RBioito4_18.mp4	0.0	383.81512117385864	0.09998679161071777
73	225.60708689689636	fix_pre	0		140.0	71.0	2.5	/experiments/knapen_aot/videos/R_S_yt-xvIZtEVkebk_462.mp4	0.0	383.91510796546936	1.1665840148925781
73	226.76545810699463	response	0	2		71.0	2.5	/experiments/knapen_aot/videos/R_S_yt-xvIZtEVkebk_462.mp4	0.0	385.0734791755676	
73	226.77367091178894	movie	1		301.0	71.0	2.5	/experiments/knapen_aot/videos/R_S_yt-xvIZtEVkebk_462.mp4	0.0	385.08169198036194	2.508424997329712
73	229.28209590911865	fix_post	2		12.0	71.0	2.5	/experiments/knapen_aot/videos/R_S_yt-xvIZtEVkebk_462.mp4	0.0	387.59011697769165	0.099884033203125
74	229.38197994232178	fix_pre	0		20.0	72.0	2.5	/experiments/knapen_aot/videos/S_yt-RXqc3JAmmPM_72.mp4	0.0	387.6900010108948	0.1666409969329834
74	229.5328860282898	response	0	2		72.0	2.5	/experiments/knapen_aot/videos/S_yt-RXqc3JAmmPM_72.mp4	0.0	387.8409070968628	
74	229.54862093925476	movie	1		301.0	72.0	2.5	/experiments/knapen_aot/videos/S_yt-RXqc3JAmmPM_72.mp4	0.0	387.85664200782776	2.50844407081604
74	232.0570650100708	fix_post	2		12.0	72.0	2.5	/experiments/knapen_aot/videos/S_yt-RXqc3JAmmPM_72.mp4	0.0	390.3650860786438	0.1000208854675293
75	232.15708589553833	fix_pre	0		29.0	73.0	2.5	/experiments/knapen_aot/videos/R_S_yt-R5wOWRtRmrI_36.mp4	0.0	390.4651069641113	0.24161601066589355
75	232.39060306549072	response	0	2		73.0	2.5	/experiments/knapen_aot/videos/R_S_yt-R5wOWRtRmrI_36.mp4	0.0	390.6986241340637	
75	232.39870190620422	movie	1		301.0	73.0	2.5	/experiments/knapen_aot/videos/R_S_yt-R5wOWRtRmrI_36.mp4	0.0	390.7067229747772	2.5084190368652344
75	234.90712094306946	fix_post	2		12.0	73.0	2.5	/experiments/knapen_aot/videos/R_S_yt-R5wOWRtRmrI_36.mp4	0.0	393.21514201164246	0.10002398490905762
76	235.00714492797852	fix_pre	0		42.0	74.0	2.5	/experiments/knapen_aot/videos/R_S_pexels-cottonbro-9063801_1.mp4	0.0	393.3151659965515	0.3498830795288086
76	235.341295003891	response	0	2		74.0	2.5	/experiments/knapen_aot/videos/R_S_pexels-cottonbro-9063801_1.mp4	0.0	393.649316072464	
76	235.35702800750732	movie	1		196.0	74.0	2.5	/experiments/knapen_aot/videos/R_S_pexels-cottonbro-9063801_1.mp4	0.0	393.6650490760803	2.5083210468292236
76	237.86534905433655	fix_post	2		12.0	74.0	2.5	/experiments/knapen_aot/videos/R_S_pexels-cottonbro-9063801_1.mp4	0.0	396.17337012290955	0.1000070571899414
77	237.9653561115265	fix_pre	0		27.0	75.0	2.5	/experiments/knapen_aot/videos/S_yt-V5iQ3MbihnI_103.mp4	0.0	396.2733771800995	0.22505497932434082
77	238.18210697174072	response	0	2		75.0	2.5	/experiments/knapen_aot/videos/S_yt-V5iQ3MbihnI_103.mp4	0.0	396.4901280403137	
77	238.19041109085083	movie	1		301.0	75.0	2.5	/experiments/knapen_aot/videos/S_yt-V5iQ3MbihnI_103.mp4	0.0	396.4984321594238	2.508248805999756
77	240.6986598968506	fix_post	2		12.0	75.0	2.5	/experiments/knapen_aot/videos/S_yt-V5iQ3MbihnI_103.mp4	0.0	399.0066809654236	0.09995102882385254
78	240.79861092567444	fix_pre	0		36.0	76.0	2.5	/experiments/knapen_aot/videos/S_ILSVRC2015_train_00515001.mp4	0.0	399.10663199424744	0.30001211166381836
78	241.0904769897461	response	0	2		76.0	2.5	/experiments/knapen_aot/videos/S_ILSVRC2015_train_00515001.mp4	0.0	399.3984980583191	
78	241.09862303733826	movie	1		301.0	76.0	2.5	/experiments/knapen_aot/videos/S_ILSVRC2015_train_00515001.mp4	0.0	399.40664410591125	2.5083749294281006
78	243.60699796676636	fix_post	2		12.0	76.0	2.5	/experiments/knapen_aot/videos/S_ILSVRC2015_train_00515001.mp4	0.0	401.91501903533936	0.10019493103027344
79	243.70719289779663	fix_pre	0		193.0	77.0	2.5	blank	1.0	402.01521396636963	1.6081252098083496
79	245.29970502853394	response	0	2		77.0	2.5	blank	1.0	403.60772609710693	
79	245.31531810760498	movie	1		301.0	77.0	2.5	blank	1.0	403.623339176178	2.508408784866333
79	246.64035511016846	response	1	2		77.0	2.5	blank	1.0	404.94837617874146	
79	247.8237268924713	fix_post	2		12.0	77.0	2.5	blank	1.0	406.1317479610443	0.09991002082824707
80	247.92363691329956	fix_pre	0		23.0	78.0	2.5	/experiments/knapen_aot/videos/R_S_yt-Ojy5TMPX8_Q_165.mp4	0.0	406.23165798187256	0.19160699844360352
80	248.1070680618286	response	0	2		78.0	2.5	/experiments/knapen_aot/videos/R_S_yt-Ojy5TMPX8_Q_165.mp4	0.0	406.4150891304016	
80	248.11524391174316	movie	1		301.0	78.0	2.5	/experiments/knapen_aot/videos/R_S_yt-Ojy5TMPX8_Q_165.mp4	0.0	406.42326498031616	2.5083861351013184
80	250.62363004684448	fix_post	2		12.0	78.0	2.5	/experiments/knapen_aot/videos/R_S_yt-Ojy5TMPX8_Q_165.mp4	0.0	408.9316511154175	0.09999704360961914
81	250.7236270904541	fix_pre	0		46.0	79.0	2.5	/experiments/knapen_aot/videos/R_S_yt-iHmshS63rBc_329.mp4	0.0	409.0316481590271	0.38332700729370117
81	251.09881711006165	response	0	2		79.0	2.5	/experiments/knapen_aot/videos/R_S_yt-iHmshS63rBc_329.mp4	0.0	409.40683817863464	
81	251.1069540977478	movie	1		301.0	79.0	2.5	/experiments/knapen_aot/videos/R_S_yt-iHmshS63rBc_329.mp4	0.0	409.4149751663208	2.5083208084106445
81	253.61527490615845	fix_post	2		12.0	79.0	2.5	/experiments/knapen_aot/videos/R_S_yt-iHmshS63rBc_329.mp4	0.0	411.92329597473145	0.09994101524353027
82	253.71521592140198	fix_pre	0		45.0	80.0	2.5	/experiments/knapen_aot/videos/R_S_yt-UPgF4YAHBQY_33.mp4	0.0	412.023236989975	0.37503814697265625
82	254.08202004432678	response	0	2		80.0	2.5	/experiments/knapen_aot/videos/R_S_yt-UPgF4YAHBQY_33.mp4	0.0	412.3900411128998	
82	254.09025406837463	movie	1		301.0	80.0	2.5	/experiments/knapen_aot/videos/R_S_yt-UPgF4YAHBQY_33.mp4	0.0	412.39827513694763	2.508401870727539
82	256.5986559391022	fix_post	2		12.0	80.0	2.5	/experiments/knapen_aot/videos/R_S_yt-UPgF4YAHBQY_33.mp4	0.0	414.90667700767517	0.09996700286865234
83	256.6986229419708	fix_pre	0		21.0	81.0	2.5	/experiments/knapen_aot/videos/R_S_bing-www_dailymotion_com_video_x4kcklg_53.mp4	0.0	415.0066440105438	0.1751570701599121
83	256.8653600215912	response	0	2		81.0	2.5	/experiments/knapen_aot/videos/R_S_bing-www_dailymotion_com_video_x4kcklg_53.mp4	0.0	415.1733810901642	
83	256.87378001213074	movie	1		168.0	81.0	2.5	/experiments/knapen_aot/videos/R_S_bing-www_dailymotion_com_video_x4kcklg_53.mp4	0.0	415.18180108070374	2.508246898651123
83	259.38202691078186	fix_post	2		12.0	81.0	2.5	/experiments/knapen_aot/videos/R_S_bing-www_dailymotion_com_video_x4kcklg_53.mp4	0.0	417.69004797935486	0.09989714622497559
84	259.48192405700684	fix_pre	0		46.0	82.0	2.5	/experiments/knapen_aot/videos/R_S_pexels-artem-podrez-5457692.mp4	0.0	417.78994512557983	0.3833298683166504
84	259.8570520877838	response	0	2		82.0	2.5	/experiments/knapen_aot/videos/R_S_pexels-artem-podrez-5457692.mp4	0.0	418.1650731563568	
84	259.8652539253235	movie	1		167.0	82.0	2.5	/experiments/knapen_aot/videos/R_S_pexels-artem-podrez-5457692.mp4	0.0	418.1732749938965	2.508418083190918
84	262.19865894317627	response	1	2		82.0	2.5	/experiments/knapen_aot/videos/R_S_pexels-artem-podrez-5457692.mp4	0.0	420.50668001174927	
84	262.3736720085144	fix_post	2		12.0	82.0	2.5	/experiments/knapen_aot/videos/R_S_pexels-artem-podrez-5457692.mp4	0.0	420.6816930770874	0.09993410110473633
85	262.47360610961914	fix_pre	0		127.0	83.0	2.5	blank	1.0	420.78162717819214	1.0582709312438965
85	263.5237920284271	response	0	2		83.0	2.5	blank	1.0	421.8318130970001	
85	263.53187704086304	movie	1		301.0	83.0	2.5	blank	1.0	421.83989810943604	2.5084710121154785
85	266.0403480529785	fix_post	2		12.0	83.0	2.5	blank	1.0	424.3483691215515	0.09986686706542969
87	266.14021492004395	stim	0		327.0					424.44823598861694	2.7263970375061035
87	268.8612790107727	response	0	space						427.1693000793457	
