trial_nr	onset	event_type	phase	response	nr_frames	movie_index	movie_duration	movie_file	blank	onset_abs	duration
0	0.12430810928344727	stim	0		20.0					56.534250020980835	0.16662383079528809
0	0.28091907501220703	response	0	space						56.690860986709595	
1	0.29093194007873535	stim	0		121.0					56.70087385177612	1.0069561004638672
1	1.2224559783935547	response	0	space						57.63239789009094	
1	1.2978880405426025	stim	1		120.0					57.70782995223999	0.9996380805969238
1	1.597214937210083	response	1	space						58.00715684890747	
1	2.21382212638855	response	1	space						58.62376403808594	
2	2.2975261211395264	fix_pre	0		23.0	0.0	2.5	/experiments/knapen_aot/videos/S_b4-3.mp4	0.0	58.707468032836914	0.19118595123291016
2	2.4804511070251465	response	0	space		0.0	2.5	/experiments/knapen_aot/videos/S_b4-3.mp4	0.0	58.890393018722534	
2	2.4887120723724365	movie	1		160.0	0.0	2.5	/experiments/knapen_aot/videos/S_b4-3.mp4	0.0	58.898653984069824	2.5083110332489014
2	4.997023105621338	fix_post	2		12.0	0.0	2.5	/experiments/knapen_aot/videos/S_b4-3.mp4	0.0	61.406965017318726	0.09998488426208496
3	5.097007989883423	fix_pre	0		71.0	1.0	2.5	/experiments/knapen_aot/videos/S_yt-2cwARrUMj40_67.mp4	0.0	61.50694990158081	0.5962820053100586
3	5.685851097106934	response	0	2		1.0	2.5	/experiments/knapen_aot/videos/S_yt-2cwARrUMj40_67.mp4	0.0	62.09579300880432	
3	5.6932899951934814	movie	1		297.0	1.0	2.5	/experiments/knapen_aot/videos/S_yt-2cwARrUMj40_67.mp4	0.0	62.10323190689087	2.5038161277770996
3	8.197106122970581	fix_post	2		12.0	1.0	2.5	/experiments/knapen_aot/videos/S_yt-2cwARrUMj40_67.mp4	0.0	64.60704803466797	0.09994196891784668
4	8.297048091888428	fix_pre	0		87.0	2.0	2.5	/experiments/knapen_aot/videos/S_yt-6vkiJedss6g_5.mp4	0.0	64.70699000358582	0.7249069213867188
4	9.013899087905884	response	0	2		2.0	2.5	/experiments/knapen_aot/videos/S_yt-6vkiJedss6g_5.mp4	0.0	65.42384099960327	
4	9.021955013275146	movie	1		298.0	2.0	2.5	/experiments/knapen_aot/videos/S_yt-6vkiJedss6g_5.mp4	0.0	65.43189692497253	2.5084540843963623
4	11.530409097671509	fix_post	2		12.0	2.0	2.5	/experiments/knapen_aot/videos/S_yt-6vkiJedss6g_5.mp4	0.0	67.9403510093689	0.10039997100830078
5	11.63080906867981	fix_pre	0		103.0	3.0	2.5	/experiments/knapen_aot/videos/S_yt-XtzmBXKYEWk_60.mp4	0.0	68.0407509803772	0.8579399585723877
5	12.480585098266602	response	0	2		3.0	2.5	/experiments/knapen_aot/videos/S_yt-XtzmBXKYEWk_60.mp4	0.0	68.89052700996399	
5	12.488749027252197	movie	1		301.0	3.0	2.5	/experiments/knapen_aot/videos/S_yt-XtzmBXKYEWk_60.mp4	0.0	68.89869093894958	2.508220911026001
5	14.996969938278198	fix_post	2		12.0	3.0	2.5	/experiments/knapen_aot/videos/S_yt-XtzmBXKYEWk_60.mp4	0.0	71.40691184997559	0.10002708435058594
6	15.096997022628784	fix_pre	0		88.0	4.0	2.5	/experiments/knapen_aot/videos/S_wc-16LozRfhUGea_49.mp4	0.0	71.50693893432617	0.7333230972290039
6	15.822102069854736	response	0	2		4.0	2.5	/experiments/knapen_aot/videos/S_wc-16LozRfhUGea_49.mp4	0.0	72.23204398155212	
6	15.830320119857788	movie	1		301.0	4.0	2.5	/experiments/knapen_aot/videos/S_wc-16LozRfhUGea_49.mp4	0.0	72.24026203155518	2.5083470344543457
6	18.338667154312134	fix_post	2		12.0	4.0	2.5	/experiments/knapen_aot/videos/S_wc-16LozRfhUGea_49.mp4	0.0	74.74860906600952	0.09997987747192383
7	18.438647031784058	fix_pre	0		99.0	5.0	2.5	blank	1.0	74.84858894348145	0.8249280452728271
7	19.255501985549927	response	0	2		5.0	2.5	blank	1.0	75.66544389724731	
7	19.263575077056885	movie	1		301.0	5.0	2.5	blank	1.0	75.67351698875427	2.508375883102417
7	21.7719509601593	fix_post	2		12.0	5.0	2.5	blank	1.0	78.18189287185669	0.10000014305114746
8	21.87195110321045	fix_pre	0		68.0	6.0	2.5	/experiments/knapen_aot/videos/R_S_ILSVRC2015_train_00087003.mp4	0.0	78.28189301490784	0.5667009353637695
8	22.430429935455322	response	0	2		6.0	2.5	/experiments/knapen_aot/videos/R_S_ILSVRC2015_train_00087003.mp4	0.0	78.84037184715271	
8	22.43865203857422	movie	1		301.0	6.0	2.5	/experiments/knapen_aot/videos/R_S_ILSVRC2015_train_00087003.mp4	0.0	78.8485939502716	2.5082859992980957
8	24.946938037872314	fix_post	2		12.0	6.0	2.5	/experiments/knapen_aot/videos/R_S_ILSVRC2015_train_00087003.mp4	0.0	81.3568799495697	0.0999898910522461
9	25.04692792892456	fix_pre	0		58.0	7.0	2.5	/experiments/knapen_aot/videos/S_yt-5AI_SyK5sg8_112.mp4	0.0	81.45686984062195	0.4832901954650879
9	25.522140979766846	response	0	2		7.0	2.5	/experiments/knapen_aot/videos/S_yt-5AI_SyK5sg8_112.mp4	0.0	81.93208289146423	
9	25.53021812438965	movie	1		298.0	7.0	2.5	/experiments/knapen_aot/videos/S_yt-5AI_SyK5sg8_112.mp4	0.0	81.94016003608704	2.5084359645843506
9	28.038654088974	fix_post	2		12.0	7.0	2.5	/experiments/knapen_aot/videos/S_yt-5AI_SyK5sg8_112.mp4	0.0	84.44859600067139	0.10001301765441895
10	28.138667106628418	fix_pre	0		83.0	8.0	2.5	/experiments/knapen_aot/videos/R_S_yt-XtzmBXKYEWk_60.mp4	0.0	84.5486090183258	0.6915369033813477
10	28.822067975997925	response	0	2		8.0	2.5	/experiments/knapen_aot/videos/R_S_yt-XtzmBXKYEWk_60.mp4	0.0	85.23200988769531	
10	28.830204010009766	movie	1		301.0	8.0	2.5	/experiments/knapen_aot/videos/R_S_yt-XtzmBXKYEWk_60.mp4	0.0	85.24014592170715	2.508435010910034
10	31.3386390209198	fix_post	2		12.0	8.0	2.5	/experiments/knapen_aot/videos/R_S_yt-XtzmBXKYEWk_60.mp4	0.0	87.74858093261719	0.09998393058776855
11	31.43862295150757	fix_pre	0		82.0	9.0	2.5	/experiments/knapen_aot/videos/S_yt-Fm97IY0Z2LU_110.mp4	0.0	87.84856486320496	0.6832971572875977
11	32.11370897293091	response	0	2		9.0	2.5	/experiments/knapen_aot/videos/S_yt-Fm97IY0Z2LU_110.mp4	0.0	88.5236508846283	
11	32.121920108795166	movie	1		299.0	9.0	2.5	/experiments/knapen_aot/videos/S_yt-Fm97IY0Z2LU_110.mp4	0.0	88.53186202049255	2.5083839893341064
11	34.63030409812927	fix_post	2		12.0	9.0	2.5	/experiments/knapen_aot/videos/S_yt-Fm97IY0Z2LU_110.mp4	0.0	91.04024600982666	0.09992790222167969
12	34.73023200035095	fix_pre	0		59.0	10.0	2.5	/experiments/knapen_aot/videos/R_S_ILSVRC2015_train_00318000.mp4	0.0	91.14017391204834	0.491685152053833
12	35.21371603012085	response	0	2		10.0	2.5	/experiments/knapen_aot/videos/R_S_ILSVRC2015_train_00318000.mp4	0.0	91.62365794181824	
12	35.221917152404785	movie	1		301.0	10.0	2.5	/experiments/knapen_aot/videos/R_S_ILSVRC2015_train_00318000.mp4	0.0	91.63185906410217	2.508314847946167
12	37.73023200035095	fix_post	2		12.0	10.0	2.5	/experiments/knapen_aot/videos/R_S_ILSVRC2015_train_00318000.mp4	0.0	94.14017391204834	0.1000370979309082
13	37.83026909828186	fix_pre	0		74.0	11.0	2.5	/experiments/knapen_aot/videos/S_yt-M5qZo3CUXYE_27.mp4	0.0	94.24021100997925	0.6166579723358154
13	38.43138408660889	response	0	2		11.0	2.5	/experiments/knapen_aot/videos/S_yt-M5qZo3CUXYE_27.mp4	0.0	94.84132599830627	
13	38.446927070617676	movie	1		301.0	11.0	2.5	/experiments/knapen_aot/videos/S_yt-M5qZo3CUXYE_27.mp4	0.0	94.85686898231506	2.5083720684051514
13	40.95529913902283	fix_post	2		12.0	11.0	2.5	/experiments/knapen_aot/videos/S_yt-M5qZo3CUXYE_27.mp4	0.0	97.36524105072021	0.10003900527954102
14	41.05533814430237	fix_pre	0		72.0	12.0	2.5	/experiments/knapen_aot/videos/R_S_yt-o0Hbe7kcPps_70.mp4	0.0	97.46528005599976	0.5998809337615967
14	41.647067070007324	response	0	2		12.0	2.5	/experiments/knapen_aot/videos/R_S_yt-o0Hbe7kcPps_70.mp4	0.0	98.05700898170471	
14	41.655219078063965	movie	1		301.0	12.0	2.5	/experiments/knapen_aot/videos/R_S_yt-o0Hbe7kcPps_70.mp4	0.0	98.06516098976135	2.5083420276641846
14	44.16356110572815	fix_post	2		12.0	12.0	2.5	/experiments/knapen_aot/videos/R_S_yt-o0Hbe7kcPps_70.mp4	0.0	100.57350301742554	0.09998583793640137
15	44.26354694366455	fix_pre	0		69.0	13.0	2.5	blank	1.0	100.67348885536194	0.5752460956573486
15	44.83036208152771	response	0	2		13.0	2.5	blank	1.0	101.2403039932251	
15	44.8387930393219	movie	1		301.0	13.0	2.5	blank	1.0	101.24873495101929	2.508107900619507
15	47.346900939941406	fix_post	2		12.0	13.0	2.5	blank	1.0	103.7568428516388	0.09999704360961914
16	47.446897983551025	fix_pre	0		79.0	14.0	2.5	/experiments/knapen_aot/videos/S_yt-rPYBHkUEwwc_10.mp4	0.0	103.85683989524841	0.6582419872283936
16	48.09699511528015	response	0	2		14.0	2.5	/experiments/knapen_aot/videos/S_yt-rPYBHkUEwwc_10.mp4	0.0	104.50693702697754	
16	48.10513997077942	movie	1		301.0	14.0	2.5	/experiments/knapen_aot/videos/S_yt-rPYBHkUEwwc_10.mp4	0.0	104.5150818824768	2.508453130722046
16	50.613593101501465	fix_post	2		12.0	14.0	2.5	/experiments/knapen_aot/videos/S_yt-rPYBHkUEwwc_10.mp4	0.0	107.02353501319885	0.10011982917785645
17	50.71371293067932	fix_pre	0		92.0	15.0	2.5	/experiments/knapen_aot/videos/R_S_comp_A012_C014_1223PT_v53_SDR_PS_FINAL_20180709_F0F8700_SDR_2K_AVC.mp4	0.0	107.12365484237671	0.7664711475372314
17	51.46447706222534	response	0	2		15.0	2.5	/experiments/knapen_aot/videos/R_S_comp_A012_C014_1223PT_v53_SDR_PS_FINAL_20180709_F0F8700_SDR_2K_AVC.mp4	0.0	107.87441897392273	
17	51.48018407821655	movie	1		166.0	15.0	2.5	/experiments/knapen_aot/videos/R_S_comp_A012_C014_1223PT_v53_SDR_PS_FINAL_20180709_F0F8700_SDR_2K_AVC.mp4	0.0	107.89012598991394	2.5083909034729004
17	53.98857498168945	fix_post	2		12.0	15.0	2.5	/experiments/knapen_aot/videos/R_S_comp_A012_C014_1223PT_v53_SDR_PS_FINAL_20180709_F0F8700_SDR_2K_AVC.mp4	0.0	110.39851689338684	0.10014200210571289
18	54.088716983795166	fix_pre	0		82.0	16.0	2.5	/experiments/knapen_aot/videos/S__6qAy77ODUI_175.mp4	0.0	110.49865889549255	0.6831409931182861
18	54.75617504119873	response	0	2		16.0	2.5	/experiments/knapen_aot/videos/S__6qAy77ODUI_175.mp4	0.0	111.16611695289612	
18	54.77185797691345	movie	1		301.0	16.0	2.5	/experiments/knapen_aot/videos/S__6qAy77ODUI_175.mp4	0.0	111.18179988861084	2.5083560943603516
18	57.280214071273804	fix_post	2		12.0	16.0	2.5	/experiments/knapen_aot/videos/S__6qAy77ODUI_175.mp4	0.0	113.69015598297119	0.10067296028137207
19	57.380887031555176	fix_pre	0		81.0	17.0	2.5	/experiments/knapen_aot/videos/S_comp_H007_C003_PS_v01_SDR_PS_20180925_SDR_2K_AVC.mp4	0.0	113.79082894325256	0.6742739677429199
19	58.046956062316895	response	0	2		17.0	2.5	/experiments/knapen_aot/videos/S_comp_H007_C003_PS_v01_SDR_PS_20180925_SDR_2K_AVC.mp4	0.0	114.45689797401428	
19	58.055160999298096	movie	1		172.0	17.0	2.5	/experiments/knapen_aot/videos/S_comp_H007_C003_PS_v01_SDR_PS_20180925_SDR_2K_AVC.mp4	0.0	114.46510291099548	2.508327007293701
19	60.5634880065918	fix_post	2		12.0	17.0	2.5	/experiments/knapen_aot/videos/S_comp_H007_C003_PS_v01_SDR_PS_20180925_SDR_2K_AVC.mp4	0.0	116.97342991828918	0.10007095336914062
20	60.66355895996094	fix_pre	0		66.0	18.0	2.5	/experiments/knapen_aot/videos/R_S_yt-cgwHIb9LAFc_336.mp4	0.0	117.07350087165833	0.5501279830932617
20	61.20524501800537	response	0	2		18.0	2.5	/experiments/knapen_aot/videos/R_S_yt-cgwHIb9LAFc_336.mp4	0.0	117.61518692970276	
20	61.2136869430542	movie	1		301.0	18.0	2.5	/experiments/knapen_aot/videos/R_S_yt-cgwHIb9LAFc_336.mp4	0.0	117.62362885475159	2.5081331729888916
20	63.72182011604309	fix_post	2		12.0	18.0	2.5	/experiments/knapen_aot/videos/R_S_yt-cgwHIb9LAFc_336.mp4	0.0	120.13176202774048	0.10005688667297363
21	63.821877002716064	fix_pre	0		89.0	19.0	2.5	blank	1.0	120.23181891441345	0.74155592918396
21	64.55527210235596	response	0	2		19.0	2.5	blank	1.0	120.96521401405334	
21	64.56343293190002	movie	1		301.0	19.0	2.5	blank	1.0	120.97337484359741	2.5083580017089844
21	67.07179093360901	fix_post	2		12.0	19.0	2.5	blank	1.0	123.4817328453064	0.10008406639099121
22	67.171875	fix_pre	0		125.0	20.0	2.5	/experiments/knapen_aot/videos/R_S_pexels-cottonbro-9063801_1.mp4	0.0	123.58181691169739	1.0416641235351562
22	68.20525193214417	response	0	2		20.0	2.5	/experiments/knapen_aot/videos/R_S_pexels-cottonbro-9063801_1.mp4	0.0	124.61519384384155	
22	68.21353912353516	movie	1		208.0	20.0	2.5	/experiments/knapen_aot/videos/R_S_pexels-cottonbro-9063801_1.mp4	0.0	124.62348103523254	2.5083889961242676
22	70.72192811965942	fix_post	2		12.0	20.0	2.5	/experiments/knapen_aot/videos/R_S_pexels-cottonbro-9063801_1.mp4	0.0	127.13187003135681	0.09988784790039062
23	70.82181596755981	fix_pre	0		133.0	21.0	2.5	/experiments/knapen_aot/videos/R_S_pexels-diva-plavalaguna-6985395.mp4	0.0	127.2317578792572	1.108253002166748
23	71.92190599441528	response	0	2		21.0	2.5	/experiments/knapen_aot/videos/R_S_pexels-diva-plavalaguna-6985395.mp4	0.0	128.33184790611267	
23	71.93006896972656	movie	1		164.0	21.0	2.5	/experiments/knapen_aot/videos/R_S_pexels-diva-plavalaguna-6985395.mp4	0.0	128.34001088142395	2.5083200931549072
23	74.43838906288147	fix_post	2		12.0	21.0	2.5	/experiments/knapen_aot/videos/R_S_pexels-diva-plavalaguna-6985395.mp4	0.0	130.84833097457886	0.10005998611450195
24	74.53844904899597	fix_pre	0		83.0	22.0	2.5	/experiments/knapen_aot/videos/R_S_yt-b7bIulV49DQ_81.mp4	0.0	130.94839096069336	0.6916499137878418
24	75.22184896469116	response	0	2		22.0	2.5	/experiments/knapen_aot/videos/R_S_yt-b7bIulV49DQ_81.mp4	0.0	131.63179087638855	
24	75.23009896278381	movie	1		300.0	22.0	2.5	/experiments/knapen_aot/videos/R_S_yt-b7bIulV49DQ_81.mp4	0.0	131.6400408744812	2.508310079574585
24	77.7384090423584	fix_post	2		12.0	22.0	2.5	/experiments/knapen_aot/videos/R_S_yt-b7bIulV49DQ_81.mp4	0.0	134.1483509540558	0.10008502006530762
25	77.8384940624237	fix_pre	0		74.0	23.0	2.5	/experiments/knapen_aot/videos/S_yt-6vkiJedss6g_5.mp4	0.0	134.2484359741211	0.6165940761566162
25	78.4469690322876	response	0	2		23.0	2.5	/experiments/knapen_aot/videos/S_yt-6vkiJedss6g_5.mp4	0.0	134.85691094398499	
25	78.45508813858032	movie	1		301.0	23.0	2.5	/experiments/knapen_aot/videos/S_yt-6vkiJedss6g_5.mp4	0.0	134.8650300502777	2.5083630084991455
25	80.96345114707947	fix_post	2		12.0	23.0	2.5	/experiments/knapen_aot/videos/S_yt-6vkiJedss6g_5.mp4	0.0	137.37339305877686	0.09999585151672363
26	81.06344699859619	fix_pre	0		61.0	24.0	2.5	/experiments/knapen_aot/videos/R_S_ILSVRC2015_train_00569007.mp4	0.0	137.47338891029358	0.5082659721374512
26	81.5635130405426	response	0	2		24.0	2.5	/experiments/knapen_aot/videos/R_S_ILSVRC2015_train_00569007.mp4	0.0	137.97345495224	
26	81.57171297073364	movie	1		301.0	24.0	2.5	/experiments/knapen_aot/videos/R_S_ILSVRC2015_train_00569007.mp4	0.0	137.98165488243103	2.508342981338501
26	84.08005595207214	fix_post	2		12.0	24.0	2.5	/experiments/knapen_aot/videos/R_S_ILSVRC2015_train_00569007.mp4	0.0	140.48999786376953	0.10000801086425781
27	84.1800639629364	fix_pre	0		111.0	25.0	2.5	/experiments/knapen_aot/videos/S_b4-3.mp4	0.0	140.5900058746338	0.9249560832977295
27	85.09687995910645	response	0	2		25.0	2.5	/experiments/knapen_aot/videos/S_b4-3.mp4	0.0	141.50682187080383	
27	85.10502004623413	movie	1		159.0	25.0	2.5	/experiments/knapen_aot/videos/S_b4-3.mp4	0.0	141.51496195793152	2.508301019668579
27	87.61332106590271	fix_post	2		12.0	25.0	2.5	/experiments/knapen_aot/videos/S_b4-3.mp4	0.0	144.0232629776001	0.10005807876586914
28	87.71337914466858	fix_pre	0		71.0	26.0	2.5	blank	1.0	144.12332105636597	0.5928659439086914
28	88.29686403274536	response	0	2		26.0	2.5	blank	1.0	144.70680594444275	
28	88.30624508857727	movie	1		301.0	26.0	2.5	blank	1.0	144.71618700027466	2.507067918777466
28	90.81331300735474	fix_post	2		12.0	26.0	2.5	blank	1.0	147.22325491905212	0.10004496574401855
29	90.91335797309875	fix_pre	0		85.0	27.0	2.5	/experiments/knapen_aot/videos/S_comp_A012_C014_1223PT_v53_SDR_PS_FINAL_20180709_F0F8700_SDR_2K_AVC.mp4	0.0	147.32329988479614	0.7082991600036621
29	91.60609102249146	response	0	2		27.0	2.5	/experiments/knapen_aot/videos/S_comp_A012_C014_1223PT_v53_SDR_PS_FINAL_20180709_F0F8700_SDR_2K_AVC.mp4	0.0	148.01603293418884	
29	91.62165713310242	movie	1		164.0	27.0	2.5	/experiments/knapen_aot/videos/S_comp_A012_C014_1223PT_v53_SDR_PS_FINAL_20180709_F0F8700_SDR_2K_AVC.mp4	0.0	148.0315990447998	2.508333921432495
29	94.12999105453491	fix_post	2		12.0	27.0	2.5	/experiments/knapen_aot/videos/S_comp_A012_C014_1223PT_v53_SDR_PS_FINAL_20180709_F0F8700_SDR_2K_AVC.mp4	0.0	150.5399329662323	0.09997296333312988
30	94.22996401786804	fix_pre	0		63.0	28.0	2.5	/experiments/knapen_aot/videos/S_yt-6MwA-jx56AQ_612.mp4	0.0	150.63990592956543	0.5250840187072754
30	94.7468421459198	response	0	2		28.0	2.5	/experiments/knapen_aot/videos/S_yt-6MwA-jx56AQ_612.mp4	0.0	151.1567840576172	
30	94.75504803657532	movie	1		301.0	28.0	2.5	/experiments/knapen_aot/videos/S_yt-6MwA-jx56AQ_612.mp4	0.0	151.1649899482727	2.508246898651123
30	97.26329493522644	fix_post	2		12.0	28.0	2.5	/experiments/knapen_aot/videos/S_yt-6MwA-jx56AQ_612.mp4	0.0	153.67323684692383	0.09999299049377441
31	97.36328792572021	fix_pre	0		81.0	29.0	2.5	/experiments/knapen_aot/videos/S_yt-7K5X1G7Cpls_965.mp4	0.0	153.7732298374176	0.6750211715698242
31	98.0301570892334	response	0	2		29.0	2.5	/experiments/knapen_aot/videos/S_yt-7K5X1G7Cpls_965.mp4	0.0	154.4400990009308	
31	98.03830909729004	movie	1		301.0	29.0	2.5	/experiments/knapen_aot/videos/S_yt-7K5X1G7Cpls_965.mp4	0.0	154.44825100898743	2.5083279609680176
31	100.54663705825806	fix_post	2		12.0	29.0	2.5	/experiments/knapen_aot/videos/S_yt-7K5X1G7Cpls_965.mp4	0.0	156.95657896995544	0.09995508193969727
32	100.64659214019775	fix_pre	0		108.0	30.0	2.5	/experiments/knapen_aot/videos/S_yt-gmFYJR5ABNs_305.mp4	0.0	157.05653405189514	0.9000229835510254
32	101.53844714164734	response	0	2		30.0	2.5	/experiments/knapen_aot/videos/S_yt-gmFYJR5ABNs_305.mp4	0.0	157.94838905334473	
32	101.54661512374878	movie	1		301.0	30.0	2.5	/experiments/knapen_aot/videos/S_yt-gmFYJR5ABNs_305.mp4	0.0	157.95655703544617	2.50832200050354
32	104.05493712425232	fix_post	2		12.0	30.0	2.5	/experiments/knapen_aot/videos/S_yt-gmFYJR5ABNs_305.mp4	0.0	160.4648790359497	0.10004091262817383
33	104.1549780368805	fix_pre	0		121.0	31.0	2.5	/experiments/knapen_aot/videos/S_goAwcQiFu1Q_99.mp4	0.0	160.56491994857788	1.0082828998565674
33	105.15504813194275	response	0	2		31.0	2.5	/experiments/knapen_aot/videos/S_goAwcQiFu1Q_99.mp4	0.0	161.56499004364014	
33	105.16326093673706	movie	1		301.0	31.0	2.5	/experiments/knapen_aot/videos/S_goAwcQiFu1Q_99.mp4	0.0	161.57320284843445	2.5083351135253906
33	107.67159605026245	fix_post	2		12.0	31.0	2.5	/experiments/knapen_aot/videos/S_goAwcQiFu1Q_99.mp4	0.0	164.08153796195984	0.09997391700744629
34	107.7715699672699	fix_pre	0		92.0	32.0	2.5	/experiments/knapen_aot/videos/S_yt--UhwpukdyBg_51.mp4	0.0	164.18151187896729	0.7679569721221924
34	108.53008604049683	response	0	2		32.0	2.5	/experiments/knapen_aot/videos/S_yt--UhwpukdyBg_51.mp4	0.0	164.9400279521942	
34	108.53952693939209	movie	1		301.0	32.0	2.5	/experiments/knapen_aot/videos/S_yt--UhwpukdyBg_51.mp4	0.0	164.94946885108948	2.507086992263794
34	111.04661393165588	fix_post	2		12.0	32.0	2.5	/experiments/knapen_aot/videos/S_yt--UhwpukdyBg_51.mp4	0.0	167.45655584335327	0.09993505477905273
35	111.14654898643494	fix_pre	0		72.0	33.0	2.5	/experiments/knapen_aot/videos/R_S_yt-WCT9dyz0-gQ_36.mp4	0.0	167.55649089813232	0.6013050079345703
35	111.73840594291687	response	0	2		33.0	2.5	/experiments/knapen_aot/videos/R_S_yt-WCT9dyz0-gQ_36.mp4	0.0	168.14834785461426	
35	111.7478539943695	movie	1		301.0	33.0	2.5	/experiments/knapen_aot/videos/R_S_yt-WCT9dyz0-gQ_36.mp4	0.0	168.1577959060669	2.5070769786834717
35	114.25493097305298	fix_post	2		12.0	33.0	2.5	/experiments/knapen_aot/videos/R_S_yt-WCT9dyz0-gQ_36.mp4	0.0	170.66487288475037	0.0999460220336914
36	114.35487699508667	fix_pre	0		71.0	34.0	2.5	blank	1.0	170.76481890678406	0.5916979312896729
36	114.93838214874268	response	0	2		34.0	2.5	blank	1.0	171.34832406044006	
36	114.94657492637634	movie	1		301.0	34.0	2.5	blank	1.0	171.35651683807373	2.5083320140838623
36	117.4549069404602	fix_post	2		12.0	34.0	2.5	blank	1.0	173.8648488521576	0.09998416900634766
37	117.55489110946655	fix_pre	0		142.0	35.0	2.5	/experiments/knapen_aot/videos/R_S_yt-BIDHmbneB10_998.mp4	0.0	173.96483302116394	1.1833150386810303
37	118.72254800796509	response	0	2		35.0	2.5	/experiments/knapen_aot/videos/R_S_yt-BIDHmbneB10_998.mp4	0.0	175.13248991966248	
37	118.73820614814758	movie	1		301.0	35.0	2.5	/experiments/knapen_aot/videos/R_S_yt-BIDHmbneB10_998.mp4	0.0	175.14814805984497	2.5082788467407227
37	121.2464849948883	fix_post	2		12.0	35.0	2.5	/experiments/knapen_aot/videos/R_S_yt-BIDHmbneB10_998.mp4	0.0	177.6564269065857	0.10004615783691406
38	121.34653115272522	fix_pre	0		344.0	36.0	2.5	/experiments/knapen_aot/videos/R_S_xTlFOCRvy68_1564.mp4	0.0	177.7564730644226	2.8665947914123535
38	124.1974790096283	response	0	2		36.0	2.5	/experiments/knapen_aot/videos/R_S_xTlFOCRvy68_1564.mp4	0.0	180.60742092132568	
38	124.21312594413757	movie	1		301.0	36.0	2.5	/experiments/knapen_aot/videos/R_S_xTlFOCRvy68_1564.mp4	0.0	180.62306785583496	2.5084340572357178
38	126.72156000137329	fix_post	2		12.0	36.0	2.5	/experiments/knapen_aot/videos/R_S_xTlFOCRvy68_1564.mp4	0.0	183.13150191307068	0.09993195533752441
39	126.82149195671082	fix_pre	0		69.0	37.0	2.5	/experiments/knapen_aot/videos/S_yt-UmLeGNcqouI_718.mp4	0.0	183.2314338684082	0.5750141143798828
39	127.38090014457703	response	0	2		37.0	2.5	/experiments/knapen_aot/videos/S_yt-UmLeGNcqouI_718.mp4	0.0	183.7908420562744	
39	127.3965060710907	movie	1		301.0	37.0	2.5	/experiments/knapen_aot/videos/S_yt-UmLeGNcqouI_718.mp4	0.0	183.8064479827881	2.5083839893341064
39	129.9048900604248	fix_post	2		12.0	37.0	2.5	/experiments/knapen_aot/videos/S_yt-UmLeGNcqouI_718.mp4	0.0	186.3148319721222	0.09996390342712402
40	130.00485396385193	fix_pre	0		86.0	38.0	2.5	/experiments/knapen_aot/videos/S_bing-www_dailymotion_com_video_x4kcklg_53.mp4	0.0	186.41479587554932	0.7166640758514404
40	130.71333193778992	response	0	2		38.0	2.5	/experiments/knapen_aot/videos/S_bing-www_dailymotion_com_video_x4kcklg_53.mp4	0.0	187.1232738494873	
40	130.72151803970337	movie	1		163.0	38.0	2.5	/experiments/knapen_aot/videos/S_bing-www_dailymotion_com_video_x4kcklg_53.mp4	0.0	187.13145995140076	2.5083889961242676
40	133.22990703582764	fix_post	2		12.0	38.0	2.5	/experiments/knapen_aot/videos/S_bing-www_dailymotion_com_video_x4kcklg_53.mp4	0.0	189.63984894752502	0.09996509552001953
41	133.32987213134766	fix_pre	0		119.0	39.0	2.5	/experiments/knapen_aot/videos/R_S_yt-VxTTEZNJWjs_110.mp4	0.0	189.73981404304504	0.9917018413543701
41	134.3133749961853	response	0	2		39.0	2.5	/experiments/knapen_aot/videos/R_S_yt-VxTTEZNJWjs_110.mp4	0.0	190.7233169078827	
41	134.32157397270203	movie	1		301.0	39.0	2.5	/experiments/knapen_aot/videos/R_S_yt-VxTTEZNJWjs_110.mp4	0.0	190.7315158843994	2.5082881450653076
41	136.82986211776733	fix_post	2		12.0	39.0	2.5	/experiments/knapen_aot/videos/R_S_yt-VxTTEZNJWjs_110.mp4	0.0	193.23980402946472	0.1000068187713623
42	136.9298689365387	fix_pre	0		176.0	40.0	2.5	blank	1.0	193.33981084823608	1.4666202068328857
42	138.3883249759674	response	0	2		40.0	2.5	blank	1.0	194.7982668876648	
42	138.39648914337158	movie	1		301.0	40.0	2.5	blank	1.0	194.80643105506897	2.5083367824554443
42	140.90482592582703	fix_post	2		12.0	40.0	2.5	blank	1.0	197.3147678375244	0.09998917579650879
43	141.00481510162354	fix_pre	0		99.0	41.0	2.5	/experiments/knapen_aot/videos/R_S_yt-a9bnYU0Gnxg_59.mp4	0.0	197.41475701332092	0.826077938079834
43	141.82159900665283	response	0	2		41.0	2.5	/experiments/knapen_aot/videos/R_S_yt-a9bnYU0Gnxg_59.mp4	0.0	198.23154091835022	
43	141.83089303970337	movie	1		301.0	41.0	2.5	/experiments/knapen_aot/videos/R_S_yt-a9bnYU0Gnxg_59.mp4	0.0	198.24083495140076	2.5072989463806152
43	144.33819198608398	fix_post	2		12.0	41.0	2.5	/experiments/knapen_aot/videos/R_S_yt-a9bnYU0Gnxg_59.mp4	0.0	200.74813389778137	0.09999895095825195
44	144.43819093704224	fix_pre	0		76.0	42.0	2.5	/experiments/knapen_aot/videos/S_video_inspire_oregon_lone-ranch-beach_00001.1080-h264.mp4	0.0	200.84813284873962	0.6332910060882568
44	145.06334400177002	response	0	2		42.0	2.5	/experiments/knapen_aot/videos/S_video_inspire_oregon_lone-ranch-beach_00001.1080-h264.mp4	0.0	201.4732859134674	
44	145.0714819431305	movie	1		165.0	42.0	2.5	/experiments/knapen_aot/videos/S_video_inspire_oregon_lone-ranch-beach_00001.1080-h264.mp4	0.0	201.48142385482788	2.5083000659942627
44	147.57978200912476	fix_post	2		12.0	42.0	2.5	/experiments/knapen_aot/videos/S_video_inspire_oregon_lone-ranch-beach_00001.1080-h264.mp4	0.0	203.98972392082214	0.10002899169921875
45	147.67981100082397	fix_pre	0		69.0	43.0	2.5	/experiments/knapen_aot/videos/R_S_video-3.mp4	0.0	204.08975291252136	0.5748789310455322
45	148.24772214889526	response	0	2		43.0	2.5	/experiments/knapen_aot/videos/R_S_video-3.mp4	0.0	204.65766406059265	
45	148.2546899318695	movie	1		163.0	43.0	2.5	/experiments/knapen_aot/videos/R_S_video-3.mp4	0.0	204.6646318435669	2.508424997329712
45	150.76311492919922	fix_post	2		12.0	43.0	2.5	/experiments/knapen_aot/videos/R_S_video-3.mp4	0.0	207.1730568408966	0.09995603561401367
46	150.86307096481323	fix_pre	0		84.0	44.0	2.5	/experiments/knapen_aot/videos/S_yt-Xkx53mjgj2E_30.mp4	0.0	207.27301287651062	0.6999921798706055
46	151.55488514900208	response	0	2		44.0	2.5	/experiments/knapen_aot/videos/S_yt-Xkx53mjgj2E_30.mp4	0.0	207.96482706069946	
46	151.56306314468384	movie	1		301.0	44.0	2.5	/experiments/knapen_aot/videos/S_yt-Xkx53mjgj2E_30.mp4	0.0	207.97300505638123	2.508370876312256
46	154.0714340209961	fix_post	2		12.0	44.0	2.5	/experiments/knapen_aot/videos/S_yt-Xkx53mjgj2E_30.mp4	0.0	210.48137593269348	0.10000801086425781
47	154.17144203186035	fix_pre	0		78.0	45.0	2.5	/experiments/knapen_aot/videos/S_yt-BIDHmbneB10_998.mp4	0.0	210.58138394355774	0.6593430042266846
47	154.82156610488892	response	0	2		45.0	2.5	/experiments/knapen_aot/videos/S_yt-BIDHmbneB10_998.mp4	0.0	211.2315080165863	
47	154.83078503608704	movie	1		301.0	45.0	2.5	/experiments/knapen_aot/videos/S_yt-BIDHmbneB10_998.mp4	0.0	211.24072694778442	2.507314920425415
47	157.33809995651245	fix_post	2		12.0	45.0	2.5	/experiments/knapen_aot/videos/S_yt-BIDHmbneB10_998.mp4	0.0	213.74804186820984	0.09998512268066406
48	157.43808507919312	fix_pre	0		89.0	46.0	2.5	/experiments/knapen_aot/videos/S_yt-Fm97IY0Z2LU_110.mp4	0.0	213.8480269908905	0.7416629791259766
48	158.1714370250702	response	0	2		46.0	2.5	/experiments/knapen_aot/videos/S_yt-Fm97IY0Z2LU_110.mp4	0.0	214.58137893676758	
48	158.1797480583191	movie	1		301.0	46.0	2.5	/experiments/knapen_aot/videos/S_yt-Fm97IY0Z2LU_110.mp4	0.0	214.58968997001648	2.5082600116729736
48	160.68800806999207	fix_post	2		12.0	46.0	2.5	/experiments/knapen_aot/videos/S_yt-Fm97IY0Z2LU_110.mp4	0.0	217.09794998168945	0.10005998611450195
49	160.78806805610657	fix_pre	0		111.0	47.0	2.5	blank	1.0	217.19800996780396	0.9249958992004395
49	161.7048740386963	response	0	2		47.0	2.5	blank	1.0	218.11481595039368	
49	161.713063955307	movie	1		301.0	47.0	2.5	blank	1.0	218.1230058670044	2.5082850456237793
49	164.2213490009308	fix_post	2		12.0	47.0	2.5	blank	1.0	220.63129091262817	0.10002708435058594
50	164.32137608528137	fix_pre	0		78.0	48.0	2.5	/experiments/knapen_aot/videos/S_yt-tHBOlYmaBuk_96.mp4	0.0	220.73131799697876	0.6499929428100586
50	164.96315002441406	response	0	2		48.0	2.5	/experiments/knapen_aot/videos/S_yt-tHBOlYmaBuk_96.mp4	0.0	221.37309193611145	
50	164.97136902809143	movie	1		301.0	48.0	2.5	/experiments/knapen_aot/videos/S_yt-tHBOlYmaBuk_96.mp4	0.0	221.38131093978882	2.508268117904663
50	167.4796371459961	fix_post	2		12.0	48.0	2.5	/experiments/knapen_aot/videos/S_yt-tHBOlYmaBuk_96.mp4	0.0	223.88957905769348	0.10003781318664551
51	167.57967495918274	fix_pre	0		62.0	49.0	2.5	/experiments/knapen_aot/videos/R_S_yt-hvuC_2YXsTQ_73.mp4	0.0	223.98961687088013	0.5166530609130859
51	168.08818697929382	response	0	2		49.0	2.5	/experiments/knapen_aot/videos/R_S_yt-hvuC_2YXsTQ_73.mp4	0.0	224.4981288909912	
51	168.09632802009583	movie	1		301.0	49.0	2.5	/experiments/knapen_aot/videos/R_S_yt-hvuC_2YXsTQ_73.mp4	0.0	224.5062699317932	2.5083670616149902
51	170.60469508171082	fix_post	2		12.0	49.0	2.5	/experiments/knapen_aot/videos/R_S_yt-hvuC_2YXsTQ_73.mp4	0.0	227.0146369934082	0.09998798370361328
52	170.70468306541443	fix_pre	0		46.0	50.0	2.5	/experiments/knapen_aot/videos/S_yt-M5qZo3CUXYE_27.mp4	0.0	227.11462497711182	0.3832850456237793
52	171.07980108261108	response	0	2		50.0	2.5	/experiments/knapen_aot/videos/S_yt-M5qZo3CUXYE_27.mp4	0.0	227.48974299430847	
52	171.0879681110382	movie	1		301.0	50.0	2.5	/experiments/knapen_aot/videos/S_yt-M5qZo3CUXYE_27.mp4	0.0	227.4979100227356	2.5082809925079346
52	173.59624910354614	fix_post	2		12.0	50.0	2.5	/experiments/knapen_aot/videos/S_yt-M5qZo3CUXYE_27.mp4	0.0	230.00619101524353	0.10008096694946289
53	173.6963300704956	fix_pre	0		86.0	51.0	2.5	/experiments/knapen_aot/videos/S_yt-QJHe-CoK4iI_170.mp4	0.0	230.106271982193	0.7175710201263428
53	174.40482115745544	response	0	2		51.0	2.5	/experiments/knapen_aot/videos/S_yt-QJHe-CoK4iI_170.mp4	0.0	230.81476306915283	
53	174.41390109062195	movie	1		301.0	51.0	2.5	/experiments/knapen_aot/videos/S_yt-QJHe-CoK4iI_170.mp4	0.0	230.82384300231934	2.5074100494384766
53	176.92131114006042	fix_post	2		12.0	51.0	2.5	/experiments/knapen_aot/videos/S_yt-QJHe-CoK4iI_170.mp4	0.0	233.3312530517578	0.09995794296264648
54	177.02126908302307	fix_pre	0		64.0	52.0	2.5	/experiments/knapen_aot/videos/R_S_yt-jy96-k8drRE_1.mp4	0.0	233.43121099472046	0.5333349704742432
54	177.5464780330658	response	0	2		52.0	2.5	/experiments/knapen_aot/videos/R_S_yt-jy96-k8drRE_1.mp4	0.0	233.95641994476318	
54	177.55460405349731	movie	1		300.0	52.0	2.5	/experiments/knapen_aot/videos/R_S_yt-jy96-k8drRE_1.mp4	0.0	233.9645459651947	2.5083529949188232
54	180.06295704841614	fix_post	2		12.0	52.0	2.5	/experiments/knapen_aot/videos/R_S_yt-jy96-k8drRE_1.mp4	0.0	236.47289896011353	0.10004806518554688
55	180.16300511360168	fix_pre	0		154.0	53.0	2.5	/experiments/knapen_aot/videos/S_yt-BG-G7m5wLZ4_94.mp4	0.0	236.57294702529907	1.2832918167114258
55	181.43112206459045	response	0	2		53.0	2.5	/experiments/knapen_aot/videos/S_yt-BG-G7m5wLZ4_94.mp4	0.0	237.84106397628784	
55	181.4462969303131	movie	1		301.0	53.0	2.5	/experiments/knapen_aot/videos/S_yt-BG-G7m5wLZ4_94.mp4	0.0	237.8562388420105	2.5083870887756348
55	183.95468401908875	fix_post	2		12.0	53.0	2.5	/experiments/knapen_aot/videos/S_yt-BG-G7m5wLZ4_94.mp4	0.0	240.36462593078613	0.09991097450256348
56	184.0545949935913	fix_pre	0		49.0	54.0	2.5	/experiments/knapen_aot/videos/R_S_yt-VxTTEZNJWjs_110.mp4	0.0	240.4645369052887	0.40834498405456543
56	184.45474314689636	response	0	2		54.0	2.5	/experiments/knapen_aot/videos/R_S_yt-VxTTEZNJWjs_110.mp4	0.0	240.86468505859375	
56	184.46293997764587	movie	1		301.0	54.0	2.5	/experiments/knapen_aot/videos/R_S_yt-VxTTEZNJWjs_110.mp4	0.0	240.87288188934326	2.5083210468292236
56	186.9712610244751	fix_post	2		12.0	54.0	2.5	/experiments/knapen_aot/videos/R_S_yt-VxTTEZNJWjs_110.mp4	0.0	243.38120293617249	0.10002899169921875
57	187.07129001617432	fix_pre	0		62.0	55.0	2.5	/experiments/knapen_aot/videos/S_yt--jzScB82vKI_90.mp4	0.0	243.4812319278717	0.5166170597076416
57	187.57220792770386	response	0	2		55.0	2.5	/experiments/knapen_aot/videos/S_yt--jzScB82vKI_90.mp4	0.0	243.98214983940125	
57	187.58790707588196	movie	1		301.0	55.0	2.5	/experiments/knapen_aot/videos/S_yt--jzScB82vKI_90.mp4	0.0	243.99784898757935	2.5083749294281006
57	190.09628200531006	fix_post	2		12.0	55.0	2.5	/experiments/knapen_aot/videos/S_yt--jzScB82vKI_90.mp4	0.0	246.50622391700745	0.09992814064025879
58	190.19621014595032	fix_pre	0		93.0	56.0	2.5	blank	1.0	246.6061520576477	0.7750868797302246
58	190.96306800842285	response	0	2		56.0	2.5	blank	1.0	247.37300992012024	
58	190.97129702568054	movie	1		301.0	56.0	2.5	blank	1.0	247.38123893737793	2.5082850456237793
58	193.47958207130432	fix_post	2		12.0	56.0	2.5	blank	1.0	249.8895239830017	0.0999600887298584
59	193.57954216003418	fix_pre	0		96.0	57.0	2.5	/experiments/knapen_aot/videos/S_yt-bmGWhOCsvJo_128.mp4	0.0	249.98948407173157	0.8000109195709229
59	194.37131905555725	response	0	2		57.0	2.5	/experiments/knapen_aot/videos/S_yt-bmGWhOCsvJo_128.mp4	0.0	250.78126096725464	
59	194.3795530796051	movie	1		301.0	57.0	2.5	/experiments/knapen_aot/videos/S_yt-bmGWhOCsvJo_128.mp4	0.0	250.7894949913025	2.508378028869629
59	196.88793110847473	fix_post	2		12.0	57.0	2.5	/experiments/knapen_aot/videos/S_yt-bmGWhOCsvJo_128.mp4	0.0	253.29787302017212	0.09999299049377441
60	196.9879240989685	fix_pre	0		83.0	58.0	2.5	/experiments/knapen_aot/videos/R_S_yt-qurTr1BJMec_244.mp4	0.0	253.3978660106659	0.6916019916534424
60	197.6712670326233	response	0	2		58.0	2.5	/experiments/knapen_aot/videos/R_S_yt-qurTr1BJMec_244.mp4	0.0	254.08120894432068	
60	197.67952609062195	movie	1		301.0	58.0	2.5	/experiments/knapen_aot/videos/R_S_yt-qurTr1BJMec_244.mp4	0.0	254.08946800231934	2.5083980560302734
60	200.18792414665222	fix_post	2		12.0	58.0	2.5	/experiments/knapen_aot/videos/R_S_yt-qurTr1BJMec_244.mp4	0.0	256.5978660583496	0.09999895095825195
61	200.28792309761047	fix_pre	0		63.0	59.0	2.5	/experiments/knapen_aot/videos/R_S_yt-zhQ32_OayBQ_39.mp4	0.0	256.69786500930786	0.5249650478363037
61	200.80465292930603	response	0	2		59.0	2.5	/experiments/knapen_aot/videos/R_S_yt-zhQ32_OayBQ_39.mp4	0.0	257.2145948410034	
61	200.81288814544678	movie	1		301.0	59.0	2.5	/experiments/knapen_aot/videos/R_S_yt-zhQ32_OayBQ_39.mp4	0.0	257.22283005714417	2.5083818435668945
61	203.32126998901367	fix_post	2		12.0	59.0	2.5	/experiments/knapen_aot/videos/R_S_yt-zhQ32_OayBQ_39.mp4	0.0	259.73121190071106	0.0999300479888916
62	203.42120003700256	fix_pre	0		56.0	60.0	2.5	/experiments/knapen_aot/videos/R_S_video-4.mp4	0.0	259.83114194869995	0.46665310859680176
62	203.87967801094055	response	0	2		60.0	2.5	/experiments/knapen_aot/videos/R_S_video-4.mp4	0.0	260.28961992263794	
62	203.88785314559937	movie	1		165.0	60.0	2.5	/experiments/knapen_aot/videos/R_S_video-4.mp4	0.0	260.29779505729675	2.508298873901367
62	206.39615201950073	fix_post	2		12.0	60.0	2.5	/experiments/knapen_aot/videos/R_S_video-4.mp4	0.0	262.8060939311981	0.10003900527954102
63	206.49619102478027	fix_pre	0		73.0	61.0	2.5	blank	1.0	262.90613293647766	0.6083700656890869
63	207.09631514549255	response	0	2		61.0	2.5	blank	1.0	263.50625705718994	
63	207.10456109046936	movie	1		301.0	61.0	2.5	blank	1.0	263.51450300216675	2.5083529949188232
63	209.61291408538818	fix_post	2		12.0	61.0	2.5	blank	1.0	266.02285599708557	0.09995698928833008
64	209.7128710746765	fix_pre	0		110.0	62.0	2.5	/experiments/knapen_aot/videos/S_yt-ZBhTpmrAlUY_70.mp4	0.0	266.1228129863739	0.9166059494018555
64	210.6213800907135	response	0	2		62.0	2.5	/experiments/knapen_aot/videos/S_yt-ZBhTpmrAlUY_70.mp4	0.0	267.0313220024109	
64	210.62947702407837	movie	1		301.0	62.0	2.5	/experiments/knapen_aot/videos/S_yt-ZBhTpmrAlUY_70.mp4	0.0	267.03941893577576	2.5083000659942627
64	213.13777709007263	fix_post	2		12.0	62.0	2.5	/experiments/knapen_aot/videos/S_yt-ZBhTpmrAlUY_70.mp4	0.0	269.54771900177	0.10006594657897949
65	213.2378430366516	fix_pre	0		88.0	63.0	2.5	/experiments/knapen_aot/videos/R_S_yt-nlfwzxlwRfk_12.mp4	0.0	269.647784948349	0.7415809631347656
65	213.97129607200623	response	0	2		63.0	2.5	/experiments/knapen_aot/videos/R_S_yt-nlfwzxlwRfk_12.mp4	0.0	270.3812379837036	
65	213.97942399978638	movie	1		301.0	63.0	2.5	/experiments/knapen_aot/videos/R_S_yt-nlfwzxlwRfk_12.mp4	0.0	270.38936591148376	2.508423089981079
65	216.48784708976746	fix_post	2		12.0	63.0	2.5	/experiments/knapen_aot/videos/R_S_yt-nlfwzxlwRfk_12.mp4	0.0	272.89778900146484	0.10000205039978027
66	216.58784914016724	fix_pre	0		86.0	64.0	2.5	/experiments/knapen_aot/videos/S_yt-JQOHHL30Y54_101.mp4	0.0	272.9977910518646	0.7165977954864502
66	217.29630398750305	response	0	2		64.0	2.5	/experiments/knapen_aot/videos/S_yt-JQOHHL30Y54_101.mp4	0.0	273.70624589920044	
66	217.3044469356537	movie	1		301.0	64.0	2.5	/experiments/knapen_aot/videos/S_yt-JQOHHL30Y54_101.mp4	0.0	273.7143888473511	2.508380174636841
66	219.81282711029053	fix_post	2		12.0	64.0	2.5	/experiments/knapen_aot/videos/S_yt-JQOHHL30Y54_101.mp4	0.0	276.2227690219879	0.10005593299865723
67	219.91288304328918	fix_pre	0		108.0	65.0	2.5	/experiments/knapen_aot/videos/R_S_PA_A001_C007_SDR_20190717_SDR_2K_AVC.mp4	0.0	276.3228249549866	0.8998889923095703
67	220.80465412139893	response	0	2		65.0	2.5	/experiments/knapen_aot/videos/R_S_PA_A001_C007_SDR_20190717_SDR_2K_AVC.mp4	0.0	277.2145960330963	
67	220.81277203559875	movie	1		166.0	65.0	2.5	/experiments/knapen_aot/videos/R_S_PA_A001_C007_SDR_20190717_SDR_2K_AVC.mp4	0.0	277.22271394729614	2.508362054824829
67	223.32113409042358	fix_post	2		12.0	65.0	2.5	/experiments/knapen_aot/videos/R_S_PA_A001_C007_SDR_20190717_SDR_2K_AVC.mp4	0.0	279.731076002121	0.09989404678344727
68	223.42102813720703	fix_pre	0		89.0	66.0	2.5	/experiments/knapen_aot/videos/S_yt-EBuE7GbFw7U_180.mp4	0.0	279.8309700489044	0.7424449920654297
68	224.15459513664246	response	0	2		66.0	2.5	/experiments/knapen_aot/videos/S_yt-EBuE7GbFw7U_180.mp4	0.0	280.56453704833984	
68	224.16347312927246	movie	1		301.0	66.0	2.5	/experiments/knapen_aot/videos/S_yt-EBuE7GbFw7U_180.mp4	0.0	280.57341504096985	2.5076019763946533
68	226.67107510566711	fix_post	2		12.0	66.0	2.5	/experiments/knapen_aot/videos/S_yt-EBuE7GbFw7U_180.mp4	0.0	283.0810170173645	0.09999799728393555
69	226.77107310295105	fix_pre	0		107.0	67.0	2.5	/experiments/knapen_aot/videos/R_S_yt-G65z8p1YNhw_16.mp4	0.0	283.18101501464844	0.8923609256744385
69	227.65454602241516	response	0	2		67.0	2.5	/experiments/knapen_aot/videos/R_S_yt-G65z8p1YNhw_16.mp4	0.0	284.06448793411255	
69	227.6634340286255	movie	1		301.0	67.0	2.5	/experiments/knapen_aot/videos/R_S_yt-G65z8p1YNhw_16.mp4	0.0	284.0733759403229	2.5076510906219482
69	230.17108511924744	fix_post	2		12.0	67.0	2.5	/experiments/knapen_aot/videos/R_S_yt-G65z8p1YNhw_16.mp4	0.0	286.5810270309448	0.09993481636047363
70	230.2710199356079	fix_pre	0		120.0	68.0	2.5	/experiments/knapen_aot/videos/R_S_yt-y6zr69M0yHI_76.mp4	0.0	286.6809618473053	1.0000360012054443
70	231.2628619670868	response	0	2		68.0	2.5	/experiments/knapen_aot/videos/R_S_yt-y6zr69M0yHI_76.mp4	0.0	287.6728038787842	
70	231.27105593681335	movie	1		301.0	68.0	2.5	/experiments/knapen_aot/videos/R_S_yt-y6zr69M0yHI_76.mp4	0.0	287.68099784851074	2.5083529949188232
70	233.77940893173218	fix_post	2		12.0	68.0	2.5	/experiments/knapen_aot/videos/R_S_yt-y6zr69M0yHI_76.mp4	0.0	290.18935084342957	0.09995412826538086
71	233.87936305999756	fix_pre	0		64.0	69.0	2.5	/experiments/knapen_aot/videos/R_S_yt-aD-EAuBdpUo_163.mp4	0.0	290.28930497169495	0.5339760780334473
71	234.40459609031677	response	0	2		69.0	2.5	/experiments/knapen_aot/videos/R_S_yt-aD-EAuBdpUo_163.mp4	0.0	290.81453800201416	
71	234.413339138031	movie	1		301.0	69.0	2.5	/experiments/knapen_aot/videos/R_S_yt-aD-EAuBdpUo_163.mp4	0.0	290.8232810497284	2.5078208446502686
71	236.92115998268127	fix_post	2		12.0	69.0	2.5	/experiments/knapen_aot/videos/R_S_yt-aD-EAuBdpUo_163.mp4	0.0	293.33110189437866	0.09995603561401367
72	237.0211160182953	fix_pre	0		60.0	70.0	2.5	blank	1.0	293.4310579299927	0.49997997283935547
72	237.51291298866272	response	0	2		70.0	2.5	blank	1.0	293.9228549003601	
72	237.52109599113464	movie	1		301.0	70.0	2.5	blank	1.0	293.93103790283203	2.508358955383301
72	240.02945494651794	fix_post	2		12.0	70.0	2.5	blank	1.0	296.43939685821533	0.09994220733642578
73	240.12939715385437	fix_pre	0		55.0	71.0	2.5	/experiments/knapen_aot/videos/S_yt-aiwDdJm1ek8_90.mp4	0.0	296.53933906555176	0.4583158493041992
73	240.5795681476593	response	0	2		71.0	2.5	/experiments/knapen_aot/videos/S_yt-aiwDdJm1ek8_90.mp4	0.0	296.9895100593567	
73	240.58771300315857	movie	1		301.0	71.0	2.5	/experiments/knapen_aot/videos/S_yt-aiwDdJm1ek8_90.mp4	0.0	296.99765491485596	2.508333921432495
73	243.09604692459106	fix_post	2		12.0	71.0	2.5	/experiments/knapen_aot/videos/S_yt-aiwDdJm1ek8_90.mp4	0.0	299.50598883628845	0.10003900527954102
74	243.1960859298706	fix_pre	0		71.0	72.0	2.5	/experiments/knapen_aot/videos/S_video-4.mp4	0.0	299.606027841568	0.592217206954956
74	243.77214908599854	response	0	2		72.0	2.5	/experiments/knapen_aot/videos/S_video-4.mp4	0.0	300.1820909976959	
74	243.78830313682556	movie	1		173.0	72.0	2.5	/experiments/knapen_aot/videos/S_video-4.mp4	0.0	300.19824504852295	2.507715940475464
74	246.29601907730103	fix_post	2		12.0	72.0	2.5	/experiments/knapen_aot/videos/S_video-4.mp4	0.0	302.7059609889984	0.10003089904785156
75	246.39604997634888	fix_pre	0		91.0	73.0	2.5	/experiments/knapen_aot/videos/S_G009_C014_UHD_SDR_2K_AVC.mp4	0.0	302.80599188804626	0.758289098739624
75	247.1461160182953	response	0	2		73.0	2.5	/experiments/knapen_aot/videos/S_G009_C014_UHD_SDR_2K_AVC.mp4	0.0	303.5560579299927	
75	247.1543390750885	movie	1		185.0	73.0	2.5	/experiments/knapen_aot/videos/S_G009_C014_UHD_SDR_2K_AVC.mp4	0.0	303.5642809867859	2.50846004486084
75	249.66279911994934	fix_post	2		12.0	73.0	2.5	/experiments/knapen_aot/videos/S_G009_C014_UHD_SDR_2K_AVC.mp4	0.0	306.07274103164673	0.09989500045776367
76	249.7626941204071	fix_pre	0		127.0	74.0	2.5	/experiments/knapen_aot/videos/R_S_pexels-diva-plavalaguna-6985395.mp4	0.0	306.1726360321045	1.0583128929138184
76	250.81290006637573	response	0	2		74.0	2.5	/experiments/knapen_aot/videos/R_S_pexels-diva-plavalaguna-6985395.mp4	0.0	307.2228419780731	
76	250.82100701332092	movie	1		166.0	74.0	2.5	/experiments/knapen_aot/videos/R_S_pexels-diva-plavalaguna-6985395.mp4	0.0	307.2309489250183	2.508366107940674
76	253.3293731212616	fix_post	2		12.0	74.0	2.5	/experiments/knapen_aot/videos/R_S_pexels-diva-plavalaguna-6985395.mp4	0.0	309.739315032959	0.09997200965881348
77	253.4293451309204	fix_pre	0		55.0	75.0	2.5	/experiments/knapen_aot/videos/R_S_bing-www_dailymotion_com_video_x64c56w_164.mp4	0.0	309.8392870426178	0.4582829475402832
77	253.87946105003357	response	0	2		75.0	2.5	/experiments/knapen_aot/videos/R_S_bing-www_dailymotion_com_video_x64c56w_164.mp4	0.0	310.28940296173096	
77	253.8876280784607	movie	1		164.0	75.0	2.5	/experiments/knapen_aot/videos/R_S_bing-www_dailymotion_com_video_x64c56w_164.mp4	0.0	310.2975699901581	2.5084140300750732
77	256.39604210853577	fix_post	2		12.0	75.0	2.5	/experiments/knapen_aot/videos/R_S_bing-www_dailymotion_com_video_x64c56w_164.mp4	0.0	312.80598402023315	0.10049200057983398
78	256.4965341091156	fix_pre	0		27.0	76.0	2.5	blank	1.0	312.906476020813	0.22440791130065918
78	256.71271300315857	response	0	2		76.0	2.5	blank	1.0	313.12265491485596	
78	256.72094202041626	movie	1		301.0	76.0	2.5	blank	1.0	313.13088393211365	2.5084140300750732
78	259.22935605049133	fix_post	2		12.0	76.0	2.5	blank	1.0	315.6392979621887	0.09989500045776367
79	259.3292510509491	fix_pre	0		122.0	77.0	2.5	/experiments/knapen_aot/videos/R_S_yt-rPYBHkUEwwc_10.mp4	0.0	315.7391929626465	1.016690969467163
79	260.33772015571594	response	0	2		77.0	2.5	/experiments/knapen_aot/videos/R_S_yt-rPYBHkUEwwc_10.mp4	0.0	316.74766206741333	
79	260.34594202041626	movie	1		301.0	77.0	2.5	/experiments/knapen_aot/videos/R_S_yt-rPYBHkUEwwc_10.mp4	0.0	316.75588393211365	2.508336067199707
79	262.85427808761597	fix_post	2		12.0	77.0	2.5	/experiments/knapen_aot/videos/R_S_yt-rPYBHkUEwwc_10.mp4	0.0	319.26421999931335	0.09997797012329102
80	262.95425605773926	fix_pre	0		72.0	78.0	2.5	/experiments/knapen_aot/videos/S_video-8.mp4	0.0	319.36419796943665	0.6000199317932129
80	263.5386140346527	response	0	2		78.0	2.5	/experiments/knapen_aot/videos/S_video-8.mp4	0.0	319.9485559463501	
80	263.55427598953247	movie	1		201.0	78.0	2.5	/experiments/knapen_aot/videos/S_video-8.mp4	0.0	319.96421790122986	2.5083720684051514
80	266.0626480579376	fix_post	2		12.0	78.0	2.5	/experiments/knapen_aot/videos/S_video-8.mp4	0.0	322.472589969635	0.10050797462463379
81	266.16315603256226	fix_pre	0		76.0	79.0	2.5	/experiments/knapen_aot/videos/S_yt-ZzC953ahaxs_195.mp4	0.0	322.57309794425964	0.632810115814209
81	266.78779911994934	response	0	2		79.0	2.5	/experiments/knapen_aot/videos/S_yt-ZzC953ahaxs_195.mp4	0.0	323.19774103164673	
81	266.79596614837646	movie	1		300.0	79.0	2.5	/experiments/knapen_aot/videos/S_yt-ZzC953ahaxs_195.mp4	0.0	323.20590806007385	2.508347988128662
81	269.3043141365051	fix_post	2		12.0	79.0	2.5	/experiments/knapen_aot/videos/S_yt-ZzC953ahaxs_195.mp4	0.0	325.7142560482025	0.10003185272216797
82	269.4043459892273	fix_pre	0		145.0	80.0	2.5	/experiments/knapen_aot/videos/R_S_yt-9pUeQix6EW8_7.mp4	0.0	325.8142879009247	1.2082810401916504
82	270.60444593429565	response	0	2		80.0	2.5	/experiments/knapen_aot/videos/R_S_yt-9pUeQix6EW8_7.mp4	0.0	327.01438784599304	
82	270.61262702941895	movie	1		301.0	80.0	2.5	/experiments/knapen_aot/videos/R_S_yt-9pUeQix6EW8_7.mp4	0.0	327.02256894111633	2.508354902267456
82	273.1209819316864	fix_post	2		12.0	80.0	2.5	/experiments/knapen_aot/videos/R_S_yt-9pUeQix6EW8_7.mp4	0.0	329.5309238433838	0.09991812705993652
83	273.22090005874634	fix_pre	0		50.0	81.0	2.5	/experiments/knapen_aot/videos/R_S_yt-Wr5vs_0Iypw_161.mp4	0.0	329.6308419704437	0.41669797897338867
83	273.6294410228729	response	0	2		81.0	2.5	/experiments/knapen_aot/videos/R_S_yt-Wr5vs_0Iypw_161.mp4	0.0	330.0393829345703	
83	273.6375980377197	movie	1		301.0	81.0	2.5	/experiments/knapen_aot/videos/R_S_yt-Wr5vs_0Iypw_161.mp4	0.0	330.0475399494171	2.508378028869629
83	276.14597606658936	fix_post	2		12.0	81.0	2.5	/experiments/knapen_aot/videos/R_S_yt-Wr5vs_0Iypw_161.mp4	0.0	332.55591797828674	0.09998703002929688
84	276.24596309661865	fix_pre	0		79.0	82.0	2.5	/experiments/knapen_aot/videos/R_S_yt-T_qmGKyeKNU_32.mp4	0.0	332.65590500831604	0.658297061920166
84	276.8961820602417	response	0	2		82.0	2.5	/experiments/knapen_aot/videos/R_S_yt-T_qmGKyeKNU_32.mp4	0.0	333.3061239719391	
84	276.9042601585388	movie	1		301.0	82.0	2.5	/experiments/knapen_aot/videos/R_S_yt-T_qmGKyeKNU_32.mp4	0.0	333.3142020702362	2.508333921432495
84	279.4125940799713	fix_post	2		12.0	82.0	2.5	/experiments/knapen_aot/videos/R_S_yt-T_qmGKyeKNU_32.mp4	0.0	335.8225359916687	0.10002303123474121
85	279.51261711120605	fix_pre	0		62.0	83.0	2.5	blank	1.0	335.92255902290344	0.5166440010070801
85	280.0135431289673	response	0	2		83.0	2.5	blank	1.0	336.4234850406647	
85	280.02926111221313	movie	1		301.0	83.0	2.5	blank	1.0	336.4392030239105	2.508420944213867
85	282.537682056427	fix_post	2		12.0	83.0	2.5	blank	1.0	338.9476239681244	0.09991288185119629
87	282.6375949382782	stim	0		188.0					339.0475368499756	1.5670051574707031
87	284.19806694984436	response	0	space						340.60800886154175	
