trial_nr	onset	event_type	phase	response	nr_frames	movie_index	movie_duration	movie_file	blank	onset_abs	duration
0	0.1576089859008789	stim	0		45.0					54.35279393196106	0.3771500587463379
0	0.5245611667633057	response	0	space						54.719746112823486	
1	0.5347590446472168	stim	0		121.0					54.7299439907074	1.0059750080108643
1	1.3574490547180176	response	0	space						55.5526340007782	
1	1.540734052658081	stim	1		120.0					55.73591899871826	1.0005629062652588
2	2.54129695892334	fix_pre	0		16.0	0.0	2.5	/experiments/knapen_aot/videos/R_S_yt-y2RUPYKfBZs_12.mp4	0.0	56.73648190498352	0.13274407386779785
2	2.6658191680908203	response	0	space		0.0	2.5	/experiments/knapen_aot/videos/R_S_yt-y2RUPYKfBZs_12.mp4	0.0	56.861004114151	
2	2.6740410327911377	movie	1		301.0	0.0	2.5	/experiments/knapen_aot/videos/R_S_yt-y2RUPYKfBZs_12.mp4	0.0	56.86922597885132	2.508255958557129
2	5.182296991348267	fix_post	2		12.0	0.0	2.5	/experiments/knapen_aot/videos/R_S_yt-y2RUPYKfBZs_12.mp4	0.0	59.37748193740845	0.09995102882385254
3	5.282248020172119	fix_pre	0		42.0	1.0	2.5	/experiments/knapen_aot/videos/R_S_comp_GL_G004_C010_PSNK_v04_SDR_PS_FINAL_20180709_SDR_2K_AVC.mp4	0.0	59.4774329662323	0.35014796257019043
3	5.626079082489014	response	0	2		1.0	2.5	/experiments/knapen_aot/videos/R_S_comp_GL_G004_C010_PSNK_v04_SDR_PS_FINAL_20180709_SDR_2K_AVC.mp4	0.0	59.821264028549194	
3	5.63239598274231	movie	1		167.0	1.0	2.5	/experiments/knapen_aot/videos/R_S_comp_GL_G004_C010_PSNK_v04_SDR_PS_FINAL_20180709_SDR_2K_AVC.mp4	0.0	59.82758092880249	2.5083281993865967
3	8.140724182128906	fix_post	2		12.0	1.0	2.5	/experiments/knapen_aot/videos/R_S_comp_GL_G004_C010_PSNK_v04_SDR_PS_FINAL_20180709_SDR_2K_AVC.mp4	0.0	62.33590912818909	0.10000896453857422
4	8.24073314666748	fix_pre	0		37.0	2.0	2.5	/experiments/knapen_aot/videos/R_S_yt-tOOaOzYvtKE_79.mp4	0.0	62.43591809272766	0.30824899673461914
4	8.540838956832886	response	0	2		2.0	2.5	/experiments/knapen_aot/videos/R_S_yt-tOOaOzYvtKE_79.mp4	0.0	62.736023902893066	
4	8.5489821434021	movie	1		301.0	2.0	2.5	/experiments/knapen_aot/videos/R_S_yt-tOOaOzYvtKE_79.mp4	0.0	62.74416708946228	2.5083258152008057
4	11.057307958602905	fix_post	2		12.0	2.0	2.5	/experiments/knapen_aot/videos/R_S_yt-tOOaOzYvtKE_79.mp4	0.0	65.25249290466309	0.1000821590423584
5	11.157390117645264	fix_pre	0		24.0	3.0	2.5	/experiments/knapen_aot/videos/R_S_ILSVRC2015_train_00001009.mp4	0.0	65.35257506370544	0.19994688034057617
5	11.349178075790405	response	0	2		3.0	2.5	/experiments/knapen_aot/videos/R_S_ILSVRC2015_train_00001009.mp4	0.0	65.54436302185059	
5	11.35733699798584	movie	1		301.0	3.0	2.5	/experiments/knapen_aot/videos/R_S_ILSVRC2015_train_00001009.mp4	0.0	65.55252194404602	2.5083811283111572
5	13.865718126296997	fix_post	2		12.0	3.0	2.5	/experiments/knapen_aot/videos/R_S_ILSVRC2015_train_00001009.mp4	0.0	68.06090307235718	0.09998083114624023
6	13.965698957443237	fix_pre	0		30.0	4.0	2.5	/experiments/knapen_aot/videos/R_S_pexels-cottonbro-10639398.mp4	0.0	68.16088390350342	0.24997806549072266
6	14.20742917060852	response	0	2		4.0	2.5	/experiments/knapen_aot/videos/R_S_pexels-cottonbro-10639398.mp4	0.0	68.4026141166687	
6	14.21567702293396	movie	1		182.0	4.0	2.5	/experiments/knapen_aot/videos/R_S_pexels-cottonbro-10639398.mp4	0.0	68.41086196899414	2.508389949798584
6	16.724066972732544	fix_post	2		12.0	4.0	2.5	/experiments/knapen_aot/videos/R_S_pexels-cottonbro-10639398.mp4	0.0	70.91925191879272	0.09997415542602539
7	16.82404112815857	fix_pre	0		72.0	5.0	2.5	/experiments/knapen_aot/videos/R_S_yt-I2n2eo2zoZs_94.mp4	0.0	71.01922607421875	0.599949836730957
7	17.416337966918945	response	0	2		5.0	2.5	/experiments/knapen_aot/videos/R_S_yt-I2n2eo2zoZs_94.mp4	0.0	71.61152291297913	
7	17.423990964889526	movie	1		297.0	5.0	2.5	/experiments/knapen_aot/videos/R_S_yt-I2n2eo2zoZs_94.mp4	0.0	71.6191759109497	2.508270025253296
7	19.932260990142822	fix_post	2		12.0	5.0	2.5	/experiments/knapen_aot/videos/R_S_yt-I2n2eo2zoZs_94.mp4	0.0	74.127445936203	0.09996414184570312
8	20.032225131988525	fix_pre	0		21.0	6.0	2.5	blank	1.0	74.2274100780487	0.17557883262634277
8	20.199120044708252	response	0	2		6.0	2.5	blank	1.0	74.39430499076843	
8	20.207803964614868	movie	1		301.0	6.0	2.5	blank	1.0	74.40298891067505	2.5078351497650146
8	22.715639114379883	fix_post	2		12.0	6.0	2.5	blank	1.0	76.91082406044006	0.09995102882385254
9	22.815590143203735	fix_pre	0		71.0	7.0	2.5	/experiments/knapen_aot/videos/R_S_comp_C003_C003_PS_v01_SDR_PS_20180925_SDR_2K_AVC.mp4	0.0	77.01077508926392	0.5916869640350342
9	23.399044036865234	response	0	2		7.0	2.5	/experiments/knapen_aot/videos/R_S_comp_C003_C003_PS_v01_SDR_PS_20180925_SDR_2K_AVC.mp4	0.0	77.59422898292542	
9	23.40727710723877	movie	1		163.0	7.0	2.5	/experiments/knapen_aot/videos/R_S_comp_C003_C003_PS_v01_SDR_PS_20180925_SDR_2K_AVC.mp4	0.0	77.60246205329895	2.508344888687134
9	25.915621995925903	fix_post	2		12.0	7.0	2.5	/experiments/knapen_aot/videos/R_S_comp_C003_C003_PS_v01_SDR_PS_20180925_SDR_2K_AVC.mp4	0.0	80.11080694198608	0.10010099411010742
10	26.01572299003601	fix_pre	0		25.0	8.0	2.5	/experiments/knapen_aot/videos/R_S_yt-Y7-umyL036c_507.mp4	0.0	80.21090793609619	0.20822811126708984
10	26.21575117111206	response	0	2		8.0	2.5	/experiments/knapen_aot/videos/R_S_yt-Y7-umyL036c_507.mp4	0.0	80.41093611717224	
10	26.2239511013031	movie	1		301.0	8.0	2.5	/experiments/knapen_aot/videos/R_S_yt-Y7-umyL036c_507.mp4	0.0	80.41913604736328	2.5083680152893066
10	28.732319116592407	fix_post	2		12.0	8.0	2.5	/experiments/knapen_aot/videos/R_S_yt-Y7-umyL036c_507.mp4	0.0	82.92750406265259	0.09998106956481934
11	28.832300186157227	fix_pre	0		24.0	9.0	2.5	/experiments/knapen_aot/videos/R_S_ILSVRC2015_train_00628000.mp4	0.0	83.02748513221741	0.19996285438537598
11	29.024110078811646	response	0	2		9.0	2.5	/experiments/knapen_aot/videos/R_S_ILSVRC2015_train_00628000.mp4	0.0	83.21929502487183	
11	29.032263040542603	movie	1		301.0	9.0	2.5	/experiments/knapen_aot/videos/R_S_ILSVRC2015_train_00628000.mp4	0.0	83.22744798660278	2.5083839893341064
11	31.54064702987671	fix_post	2		12.0	9.0	2.5	/experiments/knapen_aot/videos/R_S_ILSVRC2015_train_00628000.mp4	0.0	85.73583197593689	0.10002994537353516
12	31.640676975250244	fix_pre	0		35.0	10.0	2.5	/experiments/knapen_aot/videos/S_yt-wqdTPz0bLrM_561.mp4	0.0	85.83586192131042	0.2915940284729004
12	31.924074172973633	response	0	2		10.0	2.5	/experiments/knapen_aot/videos/S_yt-wqdTPz0bLrM_561.mp4	0.0	86.11925911903381	
12	31.932271003723145	movie	1		301.0	10.0	2.5	/experiments/knapen_aot/videos/S_yt-wqdTPz0bLrM_561.mp4	0.0	86.12745594978333	2.5083279609680176
12	34.44059896469116	fix_post	2		12.0	10.0	2.5	/experiments/knapen_aot/videos/S_yt-wqdTPz0bLrM_561.mp4	0.0	88.63578391075134	0.10041117668151855
13	34.54101014137268	fix_pre	0		25.0	11.0	2.5	/experiments/knapen_aot/videos/R_S_yt-i1h9ZiYZ86U_28.mp4	0.0	88.73619508743286	0.20831799507141113
13	34.74073815345764	response	0	2		11.0	2.5	/experiments/knapen_aot/videos/R_S_yt-i1h9ZiYZ86U_28.mp4	0.0	88.93592309951782	
13	34.74932813644409	movie	1		300.0	11.0	2.5	/experiments/knapen_aot/videos/R_S_yt-i1h9ZiYZ86U_28.mp4	0.0	88.94451308250427	2.5079219341278076
13	37.2572500705719	fix_post	2		12.0	11.0	2.5	/experiments/knapen_aot/videos/R_S_yt-i1h9ZiYZ86U_28.mp4	0.0	91.45243501663208	0.09992599487304688
14	37.357176065444946	fix_pre	0		21.0	12.0	2.5	blank	1.0	91.55236101150513	0.1751089096069336
14	37.52401304244995	response	0	2		12.0	2.5	blank	1.0	91.71919798851013	
14	37.53228497505188	movie	1		301.0	12.0	2.5	blank	1.0	91.72746992111206	2.5081470012664795
14	40.04043197631836	fix_post	2		12.0	12.0	2.5	blank	1.0	94.23561692237854	0.10006117820739746
15	40.14049315452576	fix_pre	0		39.0	13.0	2.5	/experiments/knapen_aot/videos/S_yt-CEQnXB0LxQU_278.mp4	0.0	94.33567810058594	0.3250010013580322
15	40.4498131275177	response	0	2		13.0	2.5	/experiments/knapen_aot/videos/S_yt-CEQnXB0LxQU_278.mp4	0.0	94.64499807357788	
15	40.46549415588379	movie	1		301.0	13.0	2.5	/experiments/knapen_aot/videos/S_yt-CEQnXB0LxQU_278.mp4	0.0	94.66067910194397	2.508375883102417
15	42.973870038986206	fix_post	2		12.0	13.0	2.5	/experiments/knapen_aot/videos/S_yt-CEQnXB0LxQU_278.mp4	0.0	97.16905498504639	0.09999799728393555
16	43.07386803627014	fix_pre	0		35.0	14.0	2.5	/experiments/knapen_aot/videos/S_wc-AJxbR6daLxMM_5.mp4	0.0	97.26905298233032	0.29163694381713867
16	43.35733914375305	response	0	2		14.0	2.5	/experiments/knapen_aot/videos/S_wc-AJxbR6daLxMM_5.mp4	0.0	97.55252408981323	
16	43.36550498008728	movie	1		169.0	14.0	2.5	/experiments/knapen_aot/videos/S_wc-AJxbR6daLxMM_5.mp4	0.0	97.56068992614746	2.508336067199707
16	45.87384104728699	fix_post	2		12.0	14.0	2.5	/experiments/knapen_aot/videos/S_wc-AJxbR6daLxMM_5.mp4	0.0	100.06902599334717	0.1000370979309082
17	45.973878145217896	fix_pre	0		21.0	15.0	2.5	/experiments/knapen_aot/videos/R_S_pexels-kelly-lacy-6756531.mp4	0.0	100.16906309127808	0.17496585845947266
17	46.140581130981445	response	0	2		15.0	2.5	/experiments/knapen_aot/videos/R_S_pexels-kelly-lacy-6756531.mp4	0.0	100.33576607704163	
17	46.14884400367737	movie	1		166.0	15.0	2.5	/experiments/knapen_aot/videos/R_S_pexels-kelly-lacy-6756531.mp4	0.0	100.34402894973755	2.5083580017089844
17	48.65720200538635	fix_post	2		12.0	15.0	2.5	/experiments/knapen_aot/videos/R_S_pexels-kelly-lacy-6756531.mp4	0.0	102.85238695144653	0.10002708435058594
18	48.75722908973694	fix_pre	0		13.0	16.0	2.5	/experiments/knapen_aot/videos/R_S_I003_C015_SDR_2K_AVC.mp4	0.0	102.95241403579712	0.10831904411315918
18	48.857309103012085	response	0	2		16.0	2.5	/experiments/knapen_aot/videos/R_S_I003_C015_SDR_2K_AVC.mp4	0.0	103.05249404907227	
18	48.8655481338501	movie	1		180.0	16.0	2.5	/experiments/knapen_aot/videos/R_S_I003_C015_SDR_2K_AVC.mp4	0.0	103.06073307991028	2.5083348751068115
18	51.37388300895691	fix_post	2		12.0	16.0	2.5	/experiments/knapen_aot/videos/R_S_I003_C015_SDR_2K_AVC.mp4	0.0	105.56906795501709	0.09996795654296875
19	51.47385096549988	fix_pre	0		32.0	17.0	2.5	/experiments/knapen_aot/videos/R_S_yt-hdZEAsVBEEM_19.mp4	0.0	105.66903591156006	0.26665806770324707
19	51.732314109802246	response	0	2		17.0	2.5	/experiments/knapen_aot/videos/R_S_yt-hdZEAsVBEEM_19.mp4	0.0	105.92749905586243	
19	51.740509033203125	movie	1		301.0	17.0	2.5	/experiments/knapen_aot/videos/R_S_yt-hdZEAsVBEEM_19.mp4	0.0	105.9356939792633	2.5083060264587402
19	54.248815059661865	fix_post	2		12.0	17.0	2.5	/experiments/knapen_aot/videos/R_S_yt-hdZEAsVBEEM_19.mp4	0.0	108.44400000572205	0.09998893737792969
20	54.348803997039795	fix_pre	0		44.0	18.0	2.5	/experiments/knapen_aot/videos/S_pexels-kelly-lacy-6756531.mp4	0.0	108.54398894309998	0.36666107177734375
20	54.70729613304138	response	0	2		18.0	2.5	/experiments/knapen_aot/videos/S_pexels-kelly-lacy-6756531.mp4	0.0	108.90248107910156	
20	54.71546506881714	movie	1		170.0	18.0	2.5	/experiments/knapen_aot/videos/S_pexels-kelly-lacy-6756531.mp4	0.0	108.91065001487732	2.5083401203155518
20	57.22380518913269	fix_post	2		12.0	18.0	2.5	/experiments/knapen_aot/videos/S_pexels-kelly-lacy-6756531.mp4	0.0	111.41899013519287	0.10000491142272949
21	57.32381010055542	fix_pre	0		26.0	19.0	2.5	blank	1.0	111.5189950466156	0.21699285507202148
21	57.5322630405426	response	0	2		19.0	2.5	blank	1.0	111.72744798660278	
21	57.54080295562744	movie	1		301.0	19.0	2.5	blank	1.0	111.73598790168762	2.5079381465911865
21	60.04874110221863	fix_post	2		12.0	19.0	2.5	blank	1.0	114.24392604827881	0.10002994537353516
22	60.14877104759216	fix_pre	0		130.0	20.0	2.5	/experiments/knapen_aot/videos/R_S_yt-9yxWUrtQJnw_11.mp4	0.0	114.34395599365234	1.0833511352539062
22	61.223841190338135	response	0	2		20.0	2.5	/experiments/knapen_aot/videos/R_S_yt-9yxWUrtQJnw_11.mp4	0.0	115.41902613639832	
22	61.23212218284607	movie	1		301.0	20.0	2.5	/experiments/knapen_aot/videos/R_S_yt-9yxWUrtQJnw_11.mp4	0.0	115.42730712890625	2.508274793624878
22	63.74039697647095	fix_post	2		12.0	20.0	2.5	/experiments/knapen_aot/videos/R_S_yt-9yxWUrtQJnw_11.mp4	0.0	117.93558192253113	0.09993910789489746
23	63.840336084365845	fix_pre	0		24.0	21.0	2.5	/experiments/knapen_aot/videos/R_S_comp_GMT306_139NC_139J_3066_CALI_TO_VEGAS_v08_SDR_PS_20180824_SDR_2K_AVC.mp4	0.0	118.03552103042603	0.20043492317199707
23	64.03223013877869	response	0	2		21.0	2.5	/experiments/knapen_aot/videos/R_S_comp_GMT306_139NC_139J_3066_CALI_TO_VEGAS_v08_SDR_PS_20180824_SDR_2K_AVC.mp4	0.0	118.22741508483887	
23	64.04077100753784	movie	1		175.0	21.0	2.5	/experiments/knapen_aot/videos/R_S_comp_GMT306_139NC_139J_3066_CALI_TO_VEGAS_v08_SDR_PS_20180824_SDR_2K_AVC.mp4	0.0	118.23595595359802	2.5079901218414307
23	66.54876112937927	fix_post	2		12.0	21.0	2.5	/experiments/knapen_aot/videos/R_S_comp_GMT306_139NC_139J_3066_CALI_TO_VEGAS_v08_SDR_PS_20180824_SDR_2K_AVC.mp4	0.0	120.74394607543945	0.10000205039978027
24	66.64876317977905	fix_pre	0		18.0	22.0	2.5	/experiments/knapen_aot/videos/S_yt-26009GpQuUg_3.mp4	0.0	120.84394812583923	0.14999079704284668
24	66.79058408737183	response	0	2		22.0	2.5	/experiments/knapen_aot/videos/S_yt-26009GpQuUg_3.mp4	0.0	120.985769033432	
24	66.7987539768219	movie	1		301.0	22.0	2.5	/experiments/knapen_aot/videos/S_yt-26009GpQuUg_3.mp4	0.0	120.99393892288208	2.508345127105713
24	68.8255980014801	response	1	2		22.0	2.5	/experiments/knapen_aot/videos/S_yt-26009GpQuUg_3.mp4	0.0	123.02078294754028	
24	69.30709910392761	fix_post	2		12.0	22.0	2.5	/experiments/knapen_aot/videos/S_yt-26009GpQuUg_3.mp4	0.0	123.5022840499878	0.10007500648498535
25	69.4071741104126	fix_pre	0		122.0	23.0	2.5	/experiments/knapen_aot/videos/R_S_pexels-roman-odintsov-8233166.mp4	0.0	123.60235905647278	1.0165119171142578
25	70.41564702987671	response	0	2		23.0	2.5	/experiments/knapen_aot/videos/R_S_pexels-roman-odintsov-8233166.mp4	0.0	124.61083197593689	
25	70.42368602752686	movie	1		207.0	23.0	2.5	/experiments/knapen_aot/videos/R_S_pexels-roman-odintsov-8233166.mp4	0.0	124.61887097358704	2.508418083190918
25	72.93210411071777	fix_post	2		12.0	23.0	2.5	/experiments/knapen_aot/videos/R_S_pexels-roman-odintsov-8233166.mp4	0.0	127.12728905677795	0.10000801086425781
26	73.03211212158203	fix_pre	0		26.0	24.0	2.5	/experiments/knapen_aot/videos/S_yt-HFiRYTnMZxE_338.mp4	0.0	127.22729706764221	0.21687698364257812
26	73.24057602882385	response	0	2		24.0	2.5	/experiments/knapen_aot/videos/S_yt-HFiRYTnMZxE_338.mp4	0.0	127.43576097488403	
26	73.24898910522461	movie	1		300.0	24.0	2.5	/experiments/knapen_aot/videos/S_yt-HFiRYTnMZxE_338.mp4	0.0	127.44417405128479	2.5081019401550293
26	75.75709104537964	fix_post	2		12.0	24.0	2.5	/experiments/knapen_aot/videos/S_yt-HFiRYTnMZxE_338.mp4	0.0	129.95227599143982	0.10000801086425781
27	75.8570990562439	fix_pre	0		24.0	25.0	2.5	/experiments/knapen_aot/videos/S_ILSVRC2015_train_00371013.mp4	0.0	130.05228400230408	0.1999819278717041
27	76.04886198043823	response	0	2		25.0	2.5	/experiments/knapen_aot/videos/S_ILSVRC2015_train_00371013.mp4	0.0	130.2440469264984	
27	76.0570809841156	movie	1		301.0	25.0	2.5	/experiments/knapen_aot/videos/S_ILSVRC2015_train_00371013.mp4	0.0	130.25226593017578	2.5083510875701904
27	78.56543207168579	fix_post	2		12.0	25.0	2.5	/experiments/knapen_aot/videos/S_ILSVRC2015_train_00371013.mp4	0.0	132.76061701774597	0.1002049446105957
28	78.66563701629639	fix_pre	0		26.0	26.0	2.5	blank	1.0	132.86082196235657	0.2164609432220459
28	78.87382698059082	response	0	2		26.0	2.5	blank	1.0	133.069011926651	
28	78.88209795951843	movie	1		301.0	26.0	2.5	blank	1.0	133.0772829055786	2.508336067199707
28	81.39043402671814	fix_post	2		12.0	26.0	2.5	blank	1.0	135.58561897277832	0.09992408752441406
29	81.49035811424255	fix_pre	0		29.0	27.0	2.5	/experiments/knapen_aot/videos/R_S_wc-7ugQ0V4lxYkJ_131.mp4	0.0	135.68554306030273	0.24172091484069824
29	81.7239191532135	response	0	2		27.0	2.5	/experiments/knapen_aot/videos/R_S_wc-7ugQ0V4lxYkJ_131.mp4	0.0	135.91910409927368	
29	81.73207902908325	movie	1		301.0	27.0	2.5	/experiments/knapen_aot/videos/R_S_wc-7ugQ0V4lxYkJ_131.mp4	0.0	135.92726397514343	2.5083179473876953
29	84.24039697647095	fix_post	2		12.0	27.0	2.5	/experiments/knapen_aot/videos/R_S_wc-7ugQ0V4lxYkJ_131.mp4	0.0	138.43558192253113	0.09999608993530273
30	84.34039306640625	fix_pre	0		16.0	28.0	2.5	/experiments/knapen_aot/videos/R_S_yt-Xs-YKSogfak_24.mp4	0.0	138.53557801246643	0.1333470344543457
30	84.4655511379242	response	0	2		28.0	2.5	/experiments/knapen_aot/videos/R_S_yt-Xs-YKSogfak_24.mp4	0.0	138.66073608398438	
30	84.4737401008606	movie	1		301.0	28.0	2.5	/experiments/knapen_aot/videos/R_S_yt-Xs-YKSogfak_24.mp4	0.0	138.66892504692078	2.50832200050354
30	86.98206210136414	fix_post	2		12.0	28.0	2.5	/experiments/knapen_aot/videos/R_S_yt-Xs-YKSogfak_24.mp4	0.0	141.17724704742432	0.10015487670898438
31	87.08221697807312	fix_pre	0		54.0	29.0	2.5	/experiments/knapen_aot/videos/S_r4Npnob1vds_12.mp4	0.0	141.2774019241333	0.4497840404510498
31	87.52383518218994	response	0	2		29.0	2.5	/experiments/knapen_aot/videos/S_r4Npnob1vds_12.mp4	0.0	141.71902012825012	
31	87.53200101852417	movie	1		301.0	29.0	2.5	/experiments/knapen_aot/videos/S_r4Npnob1vds_12.mp4	0.0	141.72718596458435	2.508523941040039
31	90.04052495956421	fix_post	2		12.0	29.0	2.5	/experiments/knapen_aot/videos/S_r4Npnob1vds_12.mp4	0.0	144.2357099056244	0.09984803199768066
32	90.14037299156189	fix_pre	0		14.0	30.0	2.5	/experiments/knapen_aot/videos/S_yt-9NV8zv2Sdq4_30.mp4	0.0	144.33555793762207	0.1166529655456543
32	90.24884295463562	response	0	2		30.0	2.5	/experiments/knapen_aot/videos/S_yt-9NV8zv2Sdq4_30.mp4	0.0	144.4440279006958	
32	90.25702595710754	movie	1		301.0	30.0	2.5	/experiments/knapen_aot/videos/S_yt-9NV8zv2Sdq4_30.mp4	0.0	144.45221090316772	2.5083210468292236
32	92.76534700393677	fix_post	2		12.0	30.0	2.5	/experiments/knapen_aot/videos/S_yt-9NV8zv2Sdq4_30.mp4	0.0	146.96053194999695	0.10000205039978027
33	92.86534905433655	fix_pre	0		32.0	31.0	2.5	/experiments/knapen_aot/videos/R_S_ILSVRC2015_train_00415005.mp4	0.0	147.06053400039673	0.26666903495788574
33	93.11626696586609	response	0	2		31.0	2.5	/experiments/knapen_aot/videos/R_S_ILSVRC2015_train_00415005.mp4	0.0	147.31145191192627	
33	93.13201808929443	movie	1		301.0	31.0	2.5	/experiments/knapen_aot/videos/R_S_ILSVRC2015_train_00415005.mp4	0.0	147.32720303535461	2.508344888687134
33	95.64036297798157	fix_post	2		12.0	31.0	2.5	/experiments/knapen_aot/videos/R_S_ILSVRC2015_train_00415005.mp4	0.0	149.83554792404175	0.09998297691345215
34	95.74034595489502	fix_pre	0		14.0	32.0	2.5	/experiments/knapen_aot/videos/R_S_yt-etQaTgGOhR4_69.mp4	0.0	149.9355309009552	0.11667013168334961
34	95.84881711006165	response	0	2		32.0	2.5	/experiments/knapen_aot/videos/R_S_yt-etQaTgGOhR4_69.mp4	0.0	150.04400205612183	
34	95.85701608657837	movie	1		301.0	32.0	2.5	/experiments/knapen_aot/videos/R_S_yt-etQaTgGOhR4_69.mp4	0.0	150.05220103263855	2.5083138942718506
34	98.36532998085022	fix_post	2		12.0	32.0	2.5	/experiments/knapen_aot/videos/R_S_yt-etQaTgGOhR4_69.mp4	0.0	152.5605149269104	0.10004019737243652
35	98.46537017822266	fix_pre	0		60.0	33.0	2.5	blank	1.0	152.66055512428284	0.49987292289733887
35	98.95709800720215	response	0	2		33.0	2.5	blank	1.0	153.15228295326233	
35	98.96524310112	movie	1		301.0	33.0	2.5	blank	1.0	153.16042804718018	2.5083510875701904
35	101.47359418869019	fix_post	2		12.0	33.0	2.5	blank	1.0	155.66877913475037	0.10003089904785156
36	101.57362508773804	fix_pre	0		55.0	34.0	2.5	/experiments/knapen_aot/videos/S_yt-7XDVHp75fu4_93.mp4	0.0	155.76881003379822	0.4582810401916504
36	102.02374196052551	response	0	2		34.0	2.5	/experiments/knapen_aot/videos/S_yt-7XDVHp75fu4_93.mp4	0.0	156.2189269065857	
36	102.03190612792969	movie	1		301.0	34.0	2.5	/experiments/knapen_aot/videos/S_yt-7XDVHp75fu4_93.mp4	0.0	156.22709107398987	2.508436918258667
36	104.54034304618835	fix_post	2		12.0	34.0	2.5	/experiments/knapen_aot/videos/S_yt-7XDVHp75fu4_93.mp4	0.0	158.73552799224854	0.09989094734191895
37	104.64023399353027	fix_pre	0		47.0	35.0	2.5	/experiments/knapen_aot/videos/R_S_yt-pbFpqAQJCJo_149.mp4	0.0	158.83541893959045	0.39168405532836914
37	105.02375507354736	response	0	2		35.0	2.5	/experiments/knapen_aot/videos/R_S_yt-pbFpqAQJCJo_149.mp4	0.0	159.21894001960754	
37	105.03191804885864	movie	1		301.0	35.0	2.5	/experiments/knapen_aot/videos/R_S_yt-pbFpqAQJCJo_149.mp4	0.0	159.22710299491882	2.5084590911865234
37	107.54037714004517	fix_post	2		12.0	35.0	2.5	/experiments/knapen_aot/videos/R_S_yt-pbFpqAQJCJo_149.mp4	0.0	161.73556208610535	0.09990501403808594
38	107.64028215408325	fix_pre	0		25.0	36.0	2.5	/experiments/knapen_aot/videos/R_S_yt-NuZy8Rjk4d0_156.mp4	0.0	161.83546710014343	0.20829486846923828
38	107.84037113189697	response	0	2		36.0	2.5	/experiments/knapen_aot/videos/R_S_yt-NuZy8Rjk4d0_156.mp4	0.0	162.03555607795715	
38	107.84857702255249	movie	1		301.0	36.0	2.5	/experiments/knapen_aot/videos/R_S_yt-NuZy8Rjk4d0_156.mp4	0.0	162.04376196861267	2.508303165435791
38	110.35688018798828	fix_post	2		12.0	36.0	2.5	/experiments/knapen_aot/videos/R_S_yt-NuZy8Rjk4d0_156.mp4	0.0	164.55206513404846	0.10008978843688965
39	110.45696997642517	fix_pre	0		34.0	37.0	2.5	/experiments/knapen_aot/videos/S_comp_A012_C014_1223PT_v53_SDR_PS_FINAL_20180709_F0F8700_SDR_2K_AVC.mp4	0.0	164.65215492248535	0.28318119049072266
39	110.73204803466797	response	0	2		37.0	2.5	/experiments/knapen_aot/videos/S_comp_A012_C014_1223PT_v53_SDR_PS_FINAL_20180709_F0F8700_SDR_2K_AVC.mp4	0.0	164.92723298072815	
39	110.7401511669159	movie	1		167.0	37.0	2.5	/experiments/knapen_aot/videos/S_comp_A012_C014_1223PT_v53_SDR_PS_FINAL_20180709_F0F8700_SDR_2K_AVC.mp4	0.0	164.93533611297607	2.5085058212280273
39	113.24865698814392	fix_post	2		12.0	37.0	2.5	/experiments/knapen_aot/videos/S_comp_A012_C014_1223PT_v53_SDR_PS_FINAL_20180709_F0F8700_SDR_2K_AVC.mp4	0.0	167.4438419342041	0.09987211227416992
40	113.34852910041809	fix_pre	0		35.0	38.0	2.5	/experiments/knapen_aot/videos/R_S_yt-cjndulbUtRc_51.mp4	0.0	167.54371404647827	0.2917158603668213
40	113.632071018219	response	0	2		38.0	2.5	/experiments/knapen_aot/videos/R_S_yt-cjndulbUtRc_51.mp4	0.0	167.82725596427917	
40	113.64024496078491	movie	1		301.0	38.0	2.5	/experiments/knapen_aot/videos/R_S_yt-cjndulbUtRc_51.mp4	0.0	167.8354299068451	2.5082499980926514
40	116.14849495887756	fix_post	2		12.0	38.0	2.5	/experiments/knapen_aot/videos/R_S_yt-cjndulbUtRc_51.mp4	0.0	170.34367990493774	0.10012006759643555
41	116.248615026474	fix_pre	0		22.0	39.0	2.5	/experiments/knapen_aot/videos/S_yt-UzWRbs9Syf4_7.mp4	0.0	170.44379997253418	0.18329310417175293
41	116.42358613014221	response	0	2		39.0	2.5	/experiments/knapen_aot/videos/S_yt-UzWRbs9Syf4_7.mp4	0.0	170.6187710762024	
41	116.43190813064575	movie	1		298.0	39.0	2.5	/experiments/knapen_aot/videos/S_yt-UzWRbs9Syf4_7.mp4	0.0	170.62709307670593	2.5083038806915283
41	118.94021201133728	fix_post	2		12.0	39.0	2.5	/experiments/knapen_aot/videos/S_yt-UzWRbs9Syf4_7.mp4	0.0	173.13539695739746	0.10001111030578613
42	119.04022312164307	fix_pre	0		49.0	40.0	2.5	/experiments/knapen_aot/videos/S_yt-9yxWUrtQJnw_11.mp4	0.0	173.23540806770325	0.4082670211791992
42	119.44035816192627	response	0	2		40.0	2.5	/experiments/knapen_aot/videos/S_yt-9yxWUrtQJnw_11.mp4	0.0	173.63554310798645	
42	119.44849014282227	movie	1		301.0	40.0	2.5	/experiments/knapen_aot/videos/S_yt-9yxWUrtQJnw_11.mp4	0.0	173.64367508888245	2.5083279609680176
42	121.95681810379028	fix_post	2		12.0	40.0	2.5	/experiments/knapen_aot/videos/S_yt-9yxWUrtQJnw_11.mp4	0.0	176.15200304985046	0.10004997253417969
43	122.05686807632446	fix_pre	0		26.0	41.0	2.5	blank	1.0	176.25205302238464	0.21666598320007324
43	122.26533913612366	response	0	2		41.0	2.5	blank	1.0	176.46052408218384	
43	122.27353405952454	movie	1		301.0	41.0	2.5	blank	1.0	176.46871900558472	2.508315086364746
43	124.78184914588928	fix_post	2		12.0	41.0	2.5	blank	1.0	178.97703409194946	0.10009002685546875
44	124.88193917274475	fix_pre	0		28.0	42.0	2.5	/experiments/knapen_aot/videos/S_yt-TvU-aYjNa2c_21.mp4	0.0	179.07712411880493	0.23320293426513672
44	125.10692596435547	response	0	2		42.0	2.5	/experiments/knapen_aot/videos/S_yt-TvU-aYjNa2c_21.mp4	0.0	179.30211091041565	
44	125.11514210700989	movie	1		301.0	42.0	2.5	/experiments/knapen_aot/videos/S_yt-TvU-aYjNa2c_21.mp4	0.0	179.31032705307007	2.5083389282226562
44	127.62348103523254	fix_post	2		12.0	42.0	2.5	/experiments/knapen_aot/videos/S_yt-TvU-aYjNa2c_21.mp4	0.0	181.81866598129272	0.0999751091003418
45	127.72345614433289	fix_pre	0		25.0	43.0	2.5	/experiments/knapen_aot/videos/S_yt-BDCyXL5e9S4_223.mp4	0.0	181.91864109039307	0.20836400985717773
45	127.92365407943726	response	0	2		43.0	2.5	/experiments/knapen_aot/videos/S_yt-BDCyXL5e9S4_223.mp4	0.0	182.11883902549744	
45	127.93182015419006	movie	1		301.0	43.0	2.5	/experiments/knapen_aot/videos/S_yt-BDCyXL5e9S4_223.mp4	0.0	182.12700510025024	2.5082919597625732
45	130.44011211395264	fix_post	2		12.0	43.0	2.5	/experiments/knapen_aot/videos/S_yt-BDCyXL5e9S4_223.mp4	0.0	184.63529706001282	0.1000828742980957
46	130.54019498825073	fix_pre	0		16.0	44.0	2.5	/experiments/knapen_aot/videos/S_yt-YyKEeu2gLrI_158.mp4	0.0	184.7353799343109	0.13328003883361816
46	130.6653230190277	response	0	2		44.0	2.5	/experiments/knapen_aot/videos/S_yt-YyKEeu2gLrI_158.mp4	0.0	184.8605079650879	
46	130.67347502708435	movie	1		301.0	44.0	2.5	/experiments/knapen_aot/videos/S_yt-YyKEeu2gLrI_158.mp4	0.0	184.86865997314453	2.5083489418029785
46	133.18182396888733	fix_post	2		12.0	44.0	2.5	/experiments/knapen_aot/videos/S_yt-YyKEeu2gLrI_158.mp4	0.0	187.3770089149475	0.09997105598449707
47	133.28179502487183	fix_pre	0		14.0	45.0	2.5	/experiments/knapen_aot/videos/S_yt-8y7Xhp2_2e0_168.mp4	0.0	187.476979970932	0.11669611930847168
47	133.39019417762756	response	0	2		45.0	2.5	/experiments/knapen_aot/videos/S_yt-8y7Xhp2_2e0_168.mp4	0.0	187.58537912368774	
47	133.3984911441803	movie	1		301.0	45.0	2.5	/experiments/knapen_aot/videos/S_yt-8y7Xhp2_2e0_168.mp4	0.0	187.59367609024048	2.5083718299865723
47	135.90686297416687	fix_post	2		12.0	45.0	2.5	/experiments/knapen_aot/videos/S_yt-8y7Xhp2_2e0_168.mp4	0.0	190.10204792022705	0.10002803802490234
48	136.00689101219177	fix_pre	0		26.0	46.0	2.5	/experiments/knapen_aot/videos/S_yt-KV8X9IBWuJk_48.mp4	0.0	190.20207595825195	0.21659016609191895
48	136.2152349948883	response	0	2		46.0	2.5	/experiments/knapen_aot/videos/S_yt-KV8X9IBWuJk_48.mp4	0.0	190.4104199409485	
48	136.2234811782837	movie	1		301.0	46.0	2.5	/experiments/knapen_aot/videos/S_yt-KV8X9IBWuJk_48.mp4	0.0	190.41866612434387	2.508387804031372
48	138.73186898231506	fix_post	2		12.0	46.0	2.5	/experiments/knapen_aot/videos/S_yt-KV8X9IBWuJk_48.mp4	0.0	192.92705392837524	0.09995412826538086
49	138.83182311058044	fix_pre	0		39.0	47.0	2.5	blank	1.0	193.02700805664062	0.3249499797821045
49	139.1485891342163	response	0	2		47.0	2.5	blank	1.0	193.3437740802765	
49	139.15677309036255	movie	1		301.0	47.0	2.5	blank	1.0	193.35195803642273	2.5083510875701904
49	141.66512417793274	fix_post	2		12.0	47.0	2.5	blank	1.0	195.86030912399292	0.09999299049377441
50	141.7651171684265	fix_pre	0		33.0	48.0	2.5	/experiments/knapen_aot/videos/S_pexels-roman-odintsov-8233166.mp4	0.0	195.9603021144867	0.2750089168548584
50	142.03182005882263	response	0	2		48.0	2.5	/experiments/knapen_aot/videos/S_pexels-roman-odintsov-8233166.mp4	0.0	196.2270050048828	
50	142.04012608528137	movie	1		195.0	48.0	2.5	/experiments/knapen_aot/videos/S_pexels-roman-odintsov-8233166.mp4	0.0	196.23531103134155	2.508328914642334
50	144.5484549999237	fix_post	2		12.0	48.0	2.5	/experiments/knapen_aot/videos/S_pexels-roman-odintsov-8233166.mp4	0.0	198.7436399459839	0.10003304481506348
51	144.64848804473877	fix_pre	0		21.0	49.0	2.5	/experiments/knapen_aot/videos/S_yt-CEQnXB0LxQU_278.mp4	0.0	198.84367299079895	0.17621207237243652
51	144.8152961730957	response	0	2		49.0	2.5	/experiments/knapen_aot/videos/S_yt-CEQnXB0LxQU_278.mp4	0.0	199.01048111915588	
51	144.8247001171112	movie	1		301.0	49.0	2.5	/experiments/knapen_aot/videos/S_yt-CEQnXB0LxQU_278.mp4	0.0	199.0198850631714	2.5070688724517822
51	147.331768989563	fix_post	2		12.0	49.0	2.5	/experiments/knapen_aot/videos/S_yt-CEQnXB0LxQU_278.mp4	0.0	201.52695393562317	0.09997701644897461
52	147.43174600601196	fix_pre	0		33.0	50.0	2.5	/experiments/knapen_aot/videos/R_S_ILSVRC2015_train_00414000.mp4	0.0	201.62693095207214	0.27497410774230957
52	147.69849610328674	response	0	2		50.0	2.5	/experiments/knapen_aot/videos/R_S_ILSVRC2015_train_00414000.mp4	0.0	201.89368104934692	
52	147.70672011375427	movie	1		300.0	50.0	2.5	/experiments/knapen_aot/videos/R_S_ILSVRC2015_train_00414000.mp4	0.0	201.90190505981445	2.5083529949188232
52	150.2150731086731	fix_post	2		12.0	50.0	2.5	/experiments/knapen_aot/videos/R_S_ILSVRC2015_train_00414000.mp4	0.0	204.41025805473328	0.09997200965881348
53	150.3150451183319	fix_pre	0		35.0	51.0	2.5	/experiments/knapen_aot/videos/S_yt-Ilr77XzakaY_95.mp4	0.0	204.5102300643921	0.29163289070129395
53	150.59852409362793	response	0	2		51.0	2.5	/experiments/knapen_aot/videos/S_yt-Ilr77XzakaY_95.mp4	0.0	204.7937090396881	
53	150.6066780090332	movie	1		301.0	51.0	2.5	/experiments/knapen_aot/videos/S_yt-Ilr77XzakaY_95.mp4	0.0	204.80186295509338	2.5083510875701904
53	153.1150290966034	fix_post	2		12.0	51.0	2.5	/experiments/knapen_aot/videos/S_yt-Ilr77XzakaY_95.mp4	0.0	207.31021404266357	0.09999394416809082
54	153.21502304077148	fix_pre	0		12.0	52.0	2.5	/experiments/knapen_aot/videos/S_yt-Bx2kLEUuN0E_456.mp4	0.0	207.41020798683167	0.09999394416809082
54	153.3068971633911	response	0	2		52.0	2.5	/experiments/knapen_aot/videos/S_yt-Bx2kLEUuN0E_456.mp4	0.0	207.5020821094513	
54	153.31501698493958	movie	1		301.0	52.0	2.5	/experiments/knapen_aot/videos/S_yt-Bx2kLEUuN0E_456.mp4	0.0	207.51020193099976	2.5083131790161133
54	155.8233301639557	fix_post	2		12.0	52.0	2.5	/experiments/knapen_aot/videos/S_yt-Bx2kLEUuN0E_456.mp4	0.0	210.01851511001587	0.10005688667297363
55	155.92338705062866	fix_pre	0		31.0	53.0	2.5	/experiments/knapen_aot/videos/S_yt-dWF89kq2JIA_13.mp4	0.0	210.11857199668884	0.25834107398986816
55	156.1734299659729	response	0	2		53.0	2.5	/experiments/knapen_aot/videos/S_yt-dWF89kq2JIA_13.mp4	0.0	210.36861491203308	
55	156.18172812461853	movie	1		301.0	53.0	2.5	/experiments/knapen_aot/videos/S_yt-dWF89kq2JIA_13.mp4	0.0	210.3769130706787	2.508362054824829
55	158.69009017944336	fix_post	2		12.0	53.0	2.5	/experiments/knapen_aot/videos/S_yt-dWF89kq2JIA_13.mp4	0.0	212.88527512550354	0.10002899169921875
56	158.79011917114258	fix_pre	0		39.0	54.0	2.5	blank	1.0	212.98530411720276	0.32496094703674316
56	159.10691213607788	response	0	2		54.0	2.5	blank	1.0	213.30209708213806	
56	159.11508011817932	movie	1		301.0	54.0	2.5	blank	1.0	213.3102650642395	2.508357048034668
56	161.623437166214	fix_post	2		12.0	54.0	2.5	blank	1.0	215.81862211227417	0.09992384910583496
57	161.72336101531982	fix_pre	0		42.0	55.0	2.5	/experiments/knapen_aot/videos/S_yt-ayx4rU9bJrU_179.mp4	0.0	215.91854596138	0.3511850833892822
57	162.0652470588684	response	0	2		55.0	2.5	/experiments/knapen_aot/videos/S_yt-ayx4rU9bJrU_179.mp4	0.0	216.2604320049286	
57	162.0745460987091	movie	1		301.0	55.0	2.5	/experiments/knapen_aot/videos/S_yt-ayx4rU9bJrU_179.mp4	0.0	216.2697310447693	2.5071818828582764
57	164.58172798156738	fix_post	2		12.0	55.0	2.5	/experiments/knapen_aot/videos/S_yt-ayx4rU9bJrU_179.mp4	0.0	218.77691292762756	0.09998416900634766
58	164.68171215057373	fix_pre	0		56.0	56.0	2.5	/experiments/knapen_aot/videos/R_S_ILSVRC2015_train_00578001.mp4	0.0	218.8768970966339	0.46666884422302246
58	165.14020895957947	response	0	2		56.0	2.5	/experiments/knapen_aot/videos/R_S_ILSVRC2015_train_00578001.mp4	0.0	219.33539390563965	
58	165.14838099479675	movie	1		301.0	56.0	2.5	/experiments/knapen_aot/videos/R_S_ILSVRC2015_train_00578001.mp4	0.0	219.34356594085693	2.5082380771636963
58	167.65661907196045	fix_post	2		12.0	56.0	2.5	/experiments/knapen_aot/videos/R_S_ILSVRC2015_train_00578001.mp4	0.0	221.85180401802063	0.10006308555603027
59	167.75668215751648	fix_pre	0		69.0	57.0	2.5	/experiments/knapen_aot/videos/S_ILSVRC2015_train_00479004.mp4	0.0	221.95186710357666	0.5750088691711426
59	168.32344508171082	response	0	2		57.0	2.5	/experiments/knapen_aot/videos/S_ILSVRC2015_train_00479004.mp4	0.0	222.518630027771	
59	168.33169102668762	movie	1		301.0	57.0	2.5	/experiments/knapen_aot/videos/S_ILSVRC2015_train_00479004.mp4	0.0	222.5268759727478	2.5083420276641846
59	170.8400330543518	fix_post	2		12.0	57.0	2.5	/experiments/knapen_aot/videos/S_ILSVRC2015_train_00479004.mp4	0.0	225.035218000412	0.09996390342712402
60	170.93999695777893	fix_pre	0		43.0	58.0	2.5	/experiments/knapen_aot/videos/R_S_ILSVRC2015_train_00479002.mp4	0.0	225.1351819038391	0.35834717750549316
60	171.2901360988617	response	0	2		58.0	2.5	/experiments/knapen_aot/videos/R_S_ILSVRC2015_train_00479002.mp4	0.0	225.48532104492188	
60	171.29834413528442	movie	1		301.0	58.0	2.5	/experiments/knapen_aot/videos/R_S_ILSVRC2015_train_00479002.mp4	0.0	225.4935290813446	2.5083329677581787
60	173.8066771030426	fix_post	2		12.0	58.0	2.5	/experiments/knapen_aot/videos/R_S_ILSVRC2015_train_00479002.mp4	0.0	228.00186204910278	0.09995102882385254
61	173.90662813186646	fix_pre	0		30.0	59.0	2.5	/experiments/knapen_aot/videos/S_yt-l_pvPAznG1A_20.mp4	0.0	228.10181307792664	0.2511270046234131
61	174.14841604232788	response	0	2		59.0	2.5	/experiments/knapen_aot/videos/S_yt-l_pvPAznG1A_20.mp4	0.0	228.34360098838806	
61	174.15775513648987	movie	1		301.0	59.0	2.5	/experiments/knapen_aot/videos/S_yt-l_pvPAznG1A_20.mp4	0.0	228.35294008255005	2.5071940422058105
61	176.66494917869568	fix_post	2		12.0	59.0	2.5	/experiments/knapen_aot/videos/S_yt-l_pvPAznG1A_20.mp4	0.0	230.86013412475586	0.09996294975280762
62	176.7649121284485	fix_pre	0		55.0	60.0	2.5	/experiments/knapen_aot/videos/S_comp_A012_C014_1223PT_v53_SDR_PS_FINAL_20180709_F0F8700_SDR_2K_AVC.mp4	0.0	230.96009707450867	0.45838403701782227
62	177.21510314941406	response	0	2		60.0	2.5	/experiments/knapen_aot/videos/S_comp_A012_C014_1223PT_v53_SDR_PS_FINAL_20180709_F0F8700_SDR_2K_AVC.mp4	0.0	231.41028809547424	
62	177.2232961654663	movie	1		165.0	60.0	2.5	/experiments/knapen_aot/videos/S_comp_A012_C014_1223PT_v53_SDR_PS_FINAL_20180709_F0F8700_SDR_2K_AVC.mp4	0.0	231.4184811115265	2.508335828781128
62	179.73163199424744	fix_post	2		12.0	60.0	2.5	/experiments/knapen_aot/videos/S_comp_A012_C014_1223PT_v53_SDR_PS_FINAL_20180709_F0F8700_SDR_2K_AVC.mp4	0.0	233.92681694030762	0.10002613067626953
63	179.8316581249237	fix_pre	0		30.0	61.0	2.5	blank	1.0	234.0268430709839	0.24997496604919434
63	180.0734670162201	response	0	2		61.0	2.5	blank	1.0	234.26865196228027	
63	180.0816330909729	movie	1		301.0	61.0	2.5	blank	1.0	234.27681803703308	2.5083088874816895
63	182.5899419784546	fix_post	2		12.0	61.0	2.5	blank	1.0	236.78512692451477	0.10002803802490234
64	182.6899700164795	fix_pre	0		39.0	62.0	2.5	/experiments/knapen_aot/videos/S_pexels-cottonbro-10640532.mp4	0.0	236.88515496253967	0.3249650001525879
64	183.00676012039185	response	0	2		62.0	2.5	/experiments/knapen_aot/videos/S_pexels-cottonbro-10640532.mp4	0.0	237.20194506645203	
64	183.01493501663208	movie	1		200.0	62.0	2.5	/experiments/knapen_aot/videos/S_pexels-cottonbro-10640532.mp4	0.0	237.21011996269226	2.5083179473876953
64	185.52325296401978	fix_post	2		12.0	62.0	2.5	/experiments/knapen_aot/videos/S_pexels-cottonbro-10640532.mp4	0.0	239.71843791007996	0.10002303123474121
65	185.62327599525452	fix_pre	0		30.0	63.0	2.5	/experiments/knapen_aot/videos/R_S_yt-BJsMGxfjrZk_59.mp4	0.0	239.8184609413147	0.24994397163391113
65	185.86507415771484	response	0	2		63.0	2.5	/experiments/knapen_aot/videos/R_S_yt-BJsMGxfjrZk_59.mp4	0.0	240.06025910377502	
65	185.87321996688843	movie	1		301.0	63.0	2.5	/experiments/knapen_aot/videos/R_S_yt-BJsMGxfjrZk_59.mp4	0.0	240.0684049129486	2.5084731578826904
65	188.38169312477112	fix_post	2		12.0	63.0	2.5	/experiments/knapen_aot/videos/R_S_yt-BJsMGxfjrZk_59.mp4	0.0	242.5768780708313	0.09989094734191895
66	188.48158407211304	fix_pre	0		20.0	64.0	2.5	/experiments/knapen_aot/videos/S_yt-wnQFgNEnHUI_109.mp4	0.0	242.67676901817322	0.16667389869689941
66	188.64011907577515	response	0	2		64.0	2.5	/experiments/knapen_aot/videos/S_yt-wnQFgNEnHUI_109.mp4	0.0	242.83530402183533	
66	188.64825797080994	movie	1		301.0	64.0	2.5	/experiments/knapen_aot/videos/S_yt-wnQFgNEnHUI_109.mp4	0.0	242.84344291687012	2.508385181427002
66	191.15664315223694	fix_post	2		12.0	64.0	2.5	/experiments/knapen_aot/videos/S_yt-wnQFgNEnHUI_109.mp4	0.0	245.35182809829712	0.09998393058776855
67	191.2566270828247	fix_pre	0		20.0	65.0	2.5	/experiments/knapen_aot/videos/S_yt-31yLemkW42Q_111.mp4	0.0	245.4518120288849	0.1666269302368164
67	191.41501998901367	response	0	2		65.0	2.5	/experiments/knapen_aot/videos/S_yt-31yLemkW42Q_111.mp4	0.0	245.61020493507385	
67	191.42325401306152	movie	1		301.0	65.0	2.5	/experiments/knapen_aot/videos/S_yt-31yLemkW42Q_111.mp4	0.0	245.6184389591217	2.5083730220794678
67	193.931627035141	fix_post	2		12.0	65.0	2.5	/experiments/knapen_aot/videos/S_yt-31yLemkW42Q_111.mp4	0.0	248.12681198120117	0.09996700286865234
68	194.03159403800964	fix_pre	0		52.0	66.0	2.5	/experiments/knapen_aot/videos/R_S_yt--UhwpukdyBg_51.mp4	0.0	248.22677898406982	0.4332890510559082
68	194.4566991329193	response	0	2		66.0	2.5	/experiments/knapen_aot/videos/R_S_yt--UhwpukdyBg_51.mp4	0.0	248.6518840789795	
68	194.46488308906555	movie	1		300.0	66.0	2.5	/experiments/knapen_aot/videos/R_S_yt--UhwpukdyBg_51.mp4	0.0	248.66006803512573	2.5083720684051514
68	196.9732551574707	fix_post	2		12.0	66.0	2.5	/experiments/knapen_aot/videos/R_S_yt--UhwpukdyBg_51.mp4	0.0	251.16844010353088	0.09999990463256836
69	197.07325506210327	fix_pre	0		39.0	67.0	2.5	/experiments/knapen_aot/videos/S_yt-Z4W6l0eZza4_6.mp4	0.0	251.26844000816345	0.3249969482421875
69	197.3900921344757	response	0	2		67.0	2.5	/experiments/knapen_aot/videos/S_yt-Z4W6l0eZza4_6.mp4	0.0	251.5852770805359	
69	197.39825201034546	movie	1		301.0	67.0	2.5	/experiments/knapen_aot/videos/S_yt-Z4W6l0eZza4_6.mp4	0.0	251.59343695640564	2.5083210468292236
69	199.90657305717468	fix_post	2		12.0	67.0	2.5	/experiments/knapen_aot/videos/S_yt-Z4W6l0eZza4_6.mp4	0.0	254.10175800323486	0.09999990463256836
70	200.00657296180725	fix_pre	0		37.0	68.0	2.5	/experiments/knapen_aot/videos/R_S_ILSVRC2015_train_00708000.mp4	0.0	254.20175790786743	0.30833911895751953
70	200.30673599243164	response	0	2		68.0	2.5	/experiments/knapen_aot/videos/R_S_ILSVRC2015_train_00708000.mp4	0.0	254.50192093849182	
70	200.31491208076477	movie	1		301.0	68.0	2.5	/experiments/knapen_aot/videos/R_S_ILSVRC2015_train_00708000.mp4	0.0	254.51009702682495	2.508301019668579
70	202.82321310043335	fix_post	2		12.0	68.0	2.5	/experiments/knapen_aot/videos/R_S_ILSVRC2015_train_00708000.mp4	0.0	257.01839804649353	0.10004687309265137
71	202.923259973526	fix_pre	0		13.0	69.0	2.5	/experiments/knapen_aot/videos/S_yt-22c5eZ1UNME_76.mp4	0.0	257.1184449195862	0.1092841625213623
71	203.0233771800995	response	0	2		69.0	2.5	/experiments/knapen_aot/videos/S_yt-22c5eZ1UNME_76.mp4	0.0	257.21856212615967	
71	203.03254413604736	movie	1		300.0	69.0	2.5	/experiments/knapen_aot/videos/S_yt-22c5eZ1UNME_76.mp4	0.0	257.22772908210754	2.5073509216308594
71	205.53989505767822	fix_post	2		12.0	69.0	2.5	/experiments/knapen_aot/videos/S_yt-22c5eZ1UNME_76.mp4	0.0	259.7350800037384	0.10002398490905762
72	205.63991904258728	fix_pre	0		24.0	70.0	2.5	blank	1.0	259.83510398864746	0.199998140335083
72	205.83167099952698	response	0	2		70.0	2.5	blank	1.0	260.02685594558716	
72	205.83991718292236	movie	1		301.0	70.0	2.5	blank	1.0	260.03510212898254	2.5083298683166504
72	208.348247051239	fix_post	2		12.0	70.0	2.5	blank	1.0	262.5434319972992	0.09996390342712402
73	208.44821095466614	fix_pre	0		43.0	71.0	2.5	/experiments/knapen_aot/videos/R_S_flickr-clarkstonscamp-4863427159_1.mp4	0.0	262.6433959007263	0.3583180904388428
73	208.79836416244507	response	0	2		71.0	2.5	/experiments/knapen_aot/videos/R_S_flickr-clarkstonscamp-4863427159_1.mp4	0.0	262.99354910850525	
73	208.80652904510498	movie	1		299.0	71.0	2.5	/experiments/knapen_aot/videos/R_S_flickr-clarkstonscamp-4863427159_1.mp4	0.0	263.00171399116516	2.508254051208496
73	211.31478309631348	fix_post	2		12.0	71.0	2.5	/experiments/knapen_aot/videos/R_S_flickr-clarkstonscamp-4863427159_1.mp4	0.0	265.50996804237366	0.09999203681945801
74	211.41477513313293	fix_pre	0		89.0	72.0	2.5	/experiments/knapen_aot/videos/R_S_yt-tOOaOzYvtKE_79.mp4	0.0	265.6099600791931	0.7425930500030518
74	212.1482310295105	response	0	2		72.0	2.5	/experiments/knapen_aot/videos/R_S_yt-tOOaOzYvtKE_79.mp4	0.0	266.3434159755707	
74	212.157368183136	movie	1		301.0	72.0	2.5	/experiments/knapen_aot/videos/R_S_yt-tOOaOzYvtKE_79.mp4	0.0	266.35255312919617	2.5074667930603027
74	214.6648349761963	fix_post	2		12.0	72.0	2.5	/experiments/knapen_aot/videos/R_S_yt-tOOaOzYvtKE_79.mp4	0.0	268.86001992225647	0.10000419616699219
75	214.76483917236328	fix_pre	0		13.0	73.0	2.5	/experiments/knapen_aot/videos/S_ILSVRC2015_train_00708000.mp4	0.0	268.96002411842346	0.10829782485961914
75	214.86498999595642	response	0	2		73.0	2.5	/experiments/knapen_aot/videos/S_ILSVRC2015_train_00708000.mp4	0.0	269.0601749420166	
75	214.8731369972229	movie	1		301.0	73.0	2.5	/experiments/knapen_aot/videos/S_ILSVRC2015_train_00708000.mp4	0.0	269.0683219432831	2.5083060264587402
75	217.38144302368164	fix_post	2		12.0	73.0	2.5	/experiments/knapen_aot/videos/S_ILSVRC2015_train_00708000.mp4	0.0	271.5766279697418	0.10002803802490234
76	217.48147106170654	fix_pre	0		17.0	74.0	2.5	/experiments/knapen_aot/videos/R_S_yt-hQ5pge893b4_6.mp4	0.0	271.6766560077667	0.1416339874267578
76	217.61497497558594	response	0	2		74.0	2.5	/experiments/knapen_aot/videos/R_S_yt-hQ5pge893b4_6.mp4	0.0	271.8101599216461	
76	217.6231050491333	movie	1		301.0	74.0	2.5	/experiments/knapen_aot/videos/R_S_yt-hQ5pge893b4_6.mp4	0.0	271.8182899951935	2.508291006088257
76	220.13139605522156	fix_post	2		12.0	74.0	2.5	/experiments/knapen_aot/videos/R_S_yt-hQ5pge893b4_6.mp4	0.0	274.32658100128174	0.1000669002532959
77	220.23146295547485	fix_pre	0		51.0	75.0	2.5	blank	1.0	274.42664790153503	0.42589616775512695
77	220.64827704429626	response	0	2		75.0	2.5	blank	1.0	274.84346199035645	
77	220.65735912322998	movie	1		301.0	75.0	2.5	blank	1.0	274.85254406929016	2.507451057434082
77	223.16481018066406	fix_post	2		12.0	75.0	2.5	blank	1.0	277.35999512672424	0.10000896453857422
78	223.26481914520264	fix_pre	0		30.0	76.0	2.5	/experiments/knapen_aot/videos/S_yt-W00vtWnXgIk_73.mp4	0.0	277.4600040912628	0.24997687339782715
78	223.5065610408783	response	0	2		76.0	2.5	/experiments/knapen_aot/videos/S_yt-W00vtWnXgIk_73.mp4	0.0	277.7017459869385	
78	223.51479601860046	movie	1		301.0	76.0	2.5	/experiments/knapen_aot/videos/S_yt-W00vtWnXgIk_73.mp4	0.0	277.70998096466064	2.508336067199707
78	226.02313208580017	fix_post	2		12.0	76.0	2.5	/experiments/knapen_aot/videos/S_yt-W00vtWnXgIk_73.mp4	0.0	280.21831703186035	0.0999610424041748
79	226.12309312820435	fix_pre	0		23.0	77.0	2.5	/experiments/knapen_aot/videos/S_SPNvf6JCjGw_123.mp4	0.0	280.3182780742645	0.1917729377746582
79	226.3065950870514	response	0	2		77.0	2.5	/experiments/knapen_aot/videos/S_SPNvf6JCjGw_123.mp4	0.0	280.5017800331116	
79	226.314866065979	movie	1		301.0	77.0	2.5	/experiments/knapen_aot/videos/S_SPNvf6JCjGw_123.mp4	0.0	280.5100510120392	2.508207082748413
79	228.82307314872742	fix_post	2		11.0	77.0	2.5	/experiments/knapen_aot/videos/S_SPNvf6JCjGw_123.mp4	0.0	283.0182580947876	0.09992194175720215
80	228.92299509048462	fix_pre	0		22.0	78.0	2.5	/experiments/knapen_aot/videos/S_yt-_68FWLGgPYE_25.mp4	0.0	283.1181800365448	0.18339204788208008
80	229.09822916984558	response	0	2		78.0	2.5	/experiments/knapen_aot/videos/S_yt-_68FWLGgPYE_25.mp4	0.0	283.29341411590576	
80	229.1063871383667	movie	1		301.0	78.0	2.5	/experiments/knapen_aot/videos/S_yt-_68FWLGgPYE_25.mp4	0.0	283.3015720844269	2.5083069801330566
80	231.61469411849976	fix_post	2		12.0	78.0	2.5	/experiments/knapen_aot/videos/S_yt-_68FWLGgPYE_25.mp4	0.0	285.80987906455994	0.10004591941833496
81	231.7147400379181	fix_pre	0		19.0	79.0	2.5	/experiments/knapen_aot/videos/S_yt-Ilr77XzakaY_95.mp4	0.0	285.90992498397827	0.15828299522399902
81	231.85724997520447	response	0	2		79.0	2.5	/experiments/knapen_aot/videos/S_yt-Ilr77XzakaY_95.mp4	0.0	286.05243492126465	
81	231.8730230331421	movie	1		301.0	79.0	2.5	/experiments/knapen_aot/videos/S_yt-Ilr77XzakaY_95.mp4	0.0	286.06820797920227	2.50832200050354
81	234.38134503364563	fix_post	2		12.0	79.0	2.5	/experiments/knapen_aot/videos/S_yt-Ilr77XzakaY_95.mp4	0.0	288.5765299797058	0.10004210472106934
82	234.4813871383667	fix_pre	0		31.0	80.0	2.5	/experiments/knapen_aot/videos/R_S_yt-Mjm5smrurQI_125.mp4	0.0	288.6765720844269	0.259091854095459
82	234.73151111602783	response	0	2		80.0	2.5	/experiments/knapen_aot/videos/R_S_yt-Mjm5smrurQI_125.mp4	0.0	288.926696062088	
82	234.74047899246216	movie	1		301.0	80.0	2.5	/experiments/knapen_aot/videos/R_S_yt-Mjm5smrurQI_125.mp4	0.0	288.93566393852234	2.507578134536743
82	237.2480571269989	fix_post	2		12.0	80.0	2.5	/experiments/knapen_aot/videos/R_S_yt-Mjm5smrurQI_125.mp4	0.0	291.4432420730591	0.09991288185119629
83	237.3479700088501	fix_pre	0		73.0	81.0	2.5	/experiments/knapen_aot/videos/R_S_yt-1sn8u-rQRas_7.mp4	0.0	291.5431549549103	0.608389139175415
83	237.94059896469116	response	0	2		81.0	2.5	/experiments/knapen_aot/videos/R_S_yt-1sn8u-rQRas_7.mp4	0.0	292.13578391075134	
83	237.9563591480255	movie	1		300.0	81.0	2.5	/experiments/knapen_aot/videos/R_S_yt-1sn8u-rQRas_7.mp4	0.0	292.1515440940857	2.508281946182251
83	240.46464109420776	fix_post	2		12.0	81.0	2.5	/experiments/knapen_aot/videos/R_S_yt-1sn8u-rQRas_7.mp4	0.0	294.65982604026794	0.10010290145874023
84	240.5647439956665	fix_pre	0		15.0	82.0	2.5	blank	1.0	294.7599289417267	0.12495303153991699
84	240.681538105011	response	0	2		82.0	2.5	blank	1.0	294.87672305107117	
84	240.68969702720642	movie	1		301.0	82.0	2.5	blank	1.0	294.8848819732666	2.5083651542663574
84	243.19806218147278	fix_post	2		12.0	82.0	2.5	blank	1.0	297.39324712753296	0.10000300407409668
85	243.29806518554688	fix_pre	0		32.0	83.0	2.5	/experiments/knapen_aot/videos/R_S_ILSVRC2015_train_00743002.mp4	0.0	297.49325013160706	0.2666299343109131
85	243.5564591884613	response	0	2		83.0	2.5	/experiments/knapen_aot/videos/R_S_ILSVRC2015_train_00743002.mp4	0.0	297.7516441345215	
85	243.5646951198578	movie	1		301.0	83.0	2.5	/experiments/knapen_aot/videos/R_S_ILSVRC2015_train_00743002.mp4	0.0	297.75988006591797	2.5083398818969727
85	246.07303500175476	fix_post	2		12.0	83.0	2.5	/experiments/knapen_aot/videos/R_S_ILSVRC2015_train_00743002.mp4	0.0	300.26821994781494	0.10006499290466309
87	246.17309999465942	stim	0		179.0					300.3682849407196	1.4915761947631836
87	246.33153295516968	response	0	2						300.52671790122986	
87	247.66116213798523	response	0	space						301.8563470840454	
