trial_nr	onset	event_type	phase	response	nr_frames	movie_index	movie_duration	movie_file	blank	onset_abs	duration
0	0.13100600242614746	stim	0		68.0					70.33953189849854	0.5665440559387207
0	0.6821420192718506	response	0	space						70.89066791534424	
1	0.6975500583648682	stim	0		121.0					70.90607595443726	1.0078959465026855
1	1.7054460048675537	stim	1		120.0					71.91397190093994	1.0001401901245117
2	2.7055861949920654	fix_pre	0		90.0	0.0	2.5	/experiments/knapen_aot/videos/R_S_yt-cvwUZbYSd4Q_35.mp4	0.0	72.91411209106445	0.7498598098754883
2	3.4472570419311523	response	0	space		0.0	2.5	/experiments/knapen_aot/videos/R_S_yt-cvwUZbYSd4Q_35.mp4	0.0	73.65578293800354	
2	3.4554460048675537	movie	1		300.0	0.0	2.5	/experiments/knapen_aot/videos/R_S_yt-cvwUZbYSd4Q_35.mp4	0.0	73.66397190093994	2.508376121520996
2	5.96382212638855	fix_post	2		12.0	0.0	2.5	/experiments/knapen_aot/videos/R_S_yt-cvwUZbYSd4Q_35.mp4	0.0	76.17234802246094	0.10003399848937988
3	6.06385612487793	fix_pre	0		29.0	1.0	2.5	/experiments/knapen_aot/videos/R_S_yt-pB9w3AA-woE_37.mp4	0.0	76.27238202095032	0.24158787727355957
3	6.301533222198486	response	0	2		1.0	2.5	/experiments/knapen_aot/videos/R_S_yt-pB9w3AA-woE_37.mp4	0.0	76.51005911827087	
3	6.305444002151489	movie	1		298.0	1.0	2.5	/experiments/knapen_aot/videos/R_S_yt-pB9w3AA-woE_37.mp4	0.0	76.51396989822388	2.5083441734313965
3	8.813788175582886	fix_post	2		12.0	1.0	2.5	/experiments/knapen_aot/videos/R_S_yt-pB9w3AA-woE_37.mp4	0.0	79.02231407165527	0.09999299049377441
4	8.91378116607666	fix_pre	0		4.0	2.0	2.5	/experiments/knapen_aot/videos/S_yt-6UFUeTKci2o_164.mp4	0.0	79.12230706214905	0.03327488899230957
4	8.938968181610107	response	0	2		2.0	2.5	/experiments/knapen_aot/videos/S_yt-6UFUeTKci2o_164.mp4	0.0	79.1474940776825	
4	8.94705605506897	movie	1		301.0	2.0	2.5	/experiments/knapen_aot/videos/S_yt-6UFUeTKci2o_164.mp4	0.0	79.15558195114136	2.508392095565796
4	11.455448150634766	fix_post	2		12.0	2.0	2.5	/experiments/knapen_aot/videos/S_yt-6UFUeTKci2o_164.mp4	0.0	81.66397404670715	0.0999898910522461
5	11.555438041687012	fix_pre	0		20.0	3.0	2.5	/experiments/knapen_aot/videos/S_yt-3EZOeAbiMQE_10.mp4	0.0	81.7639639377594	0.1666409969329834
5	11.706369161605835	response	0	2		3.0	2.5	/experiments/knapen_aot/videos/S_yt-3EZOeAbiMQE_10.mp4	0.0	81.91489505767822	
5	11.722079038619995	movie	1		301.0	3.0	2.5	/experiments/knapen_aot/videos/S_yt-3EZOeAbiMQE_10.mp4	0.0	81.93060493469238	2.508357048034668
5	14.230436086654663	fix_post	2		12.0	3.0	2.5	/experiments/knapen_aot/videos/S_yt-3EZOeAbiMQE_10.mp4	0.0	84.43896198272705	0.10001397132873535
6	14.330450057983398	fix_pre	0		17.0	4.0	2.5	/experiments/knapen_aot/videos/S_yt-J2PiBa1MXI0_210.mp4	0.0	84.53897595405579	0.141632080078125
6	14.463827133178711	response	0	2		4.0	2.5	/experiments/knapen_aot/videos/S_yt-J2PiBa1MXI0_210.mp4	0.0	84.6723530292511	
6	14.472082138061523	movie	1		301.0	4.0	2.5	/experiments/knapen_aot/videos/S_yt-J2PiBa1MXI0_210.mp4	0.0	84.68060803413391	2.5083298683166504
6	16.980412006378174	fix_post	2		12.0	4.0	2.5	/experiments/knapen_aot/videos/S_yt-J2PiBa1MXI0_210.mp4	0.0	87.18893790245056	0.10004019737243652
7	17.08045220375061	fix_pre	0		7.0	5.0	2.5	/experiments/knapen_aot/videos/R_S_yt-y-boY803u9A_12.mp4	0.0	87.288978099823	0.05826091766357422
7	17.122990131378174	response	0	2		5.0	2.5	/experiments/knapen_aot/videos/R_S_yt-y-boY803u9A_12.mp4	0.0	87.33151602745056	
7	17.138713121414185	movie	1		301.0	5.0	2.5	/experiments/knapen_aot/videos/R_S_yt-y-boY803u9A_12.mp4	0.0	87.34723901748657	2.50846791267395
7	19.647181034088135	fix_post	2		12.0	5.0	2.5	/experiments/knapen_aot/videos/R_S_yt-y-boY803u9A_12.mp4	0.0	89.85570693016052	0.09992098808288574
8	19.74710202217102	fix_pre	0		6.0	6.0	2.5	blank	1.0	89.95562791824341	0.049900054931640625
8	19.788848161697388	response	0	2		6.0	2.5	blank	1.0	89.99737405776978	
8	19.79700207710266	movie	1		301.0	6.0	2.5	blank	1.0	90.00552797317505	2.5084381103515625
8	22.305440187454224	fix_post	2		12.0	6.0	2.5	blank	1.0	92.51396608352661	0.10000085830688477
9	22.40544104576111	fix_pre	0		19.0	7.0	2.5	/experiments/knapen_aot/videos/R_S_yt-s5YONFy3vb4_46.mp4	0.0	92.6139669418335	0.1582951545715332
9	22.55553102493286	response	0	2		7.0	2.5	/experiments/knapen_aot/videos/R_S_yt-s5YONFy3vb4_46.mp4	0.0	92.76405692100525	
9	22.56373620033264	movie	1		301.0	7.0	2.5	/experiments/knapen_aot/videos/R_S_yt-s5YONFy3vb4_46.mp4	0.0	92.77226209640503	2.508330821990967
9	25.07206702232361	fix_post	2		12.0	7.0	2.5	/experiments/knapen_aot/videos/R_S_yt-s5YONFy3vb4_46.mp4	0.0	95.280592918396	0.10004901885986328
10	25.17211604118347	fix_pre	0		4.0	8.0	2.5	/experiments/knapen_aot/videos/R_S_yt-jcuaf9iSEkI_169.mp4	0.0	95.38064193725586	0.033306121826171875
10	25.197200059890747	response	0	2		8.0	2.5	/experiments/knapen_aot/videos/R_S_yt-jcuaf9iSEkI_169.mp4	0.0	95.40572595596313	
10	25.205422163009644	movie	1		301.0	8.0	2.5	/experiments/knapen_aot/videos/R_S_yt-jcuaf9iSEkI_169.mp4	0.0	95.41394805908203	2.508349895477295
10	27.71377205848694	fix_post	2		12.0	8.0	2.5	/experiments/knapen_aot/videos/R_S_yt-jcuaf9iSEkI_169.mp4	0.0	97.92229795455933	0.09994912147521973
10	27.780457019805908	response	2	2		8.0	2.5	/experiments/knapen_aot/videos/R_S_yt-jcuaf9iSEkI_169.mp4	0.0	97.9889829158783	
11	27.813721179962158	fix_pre	0		42.0	9.0	2.5	/experiments/knapen_aot/videos/S_yt-Bx2kLEUuN0E_456.mp4	0.0	98.02224707603455	0.34995603561401367
11	28.155469179153442	response	0	2		9.0	2.5	/experiments/knapen_aot/videos/S_yt-Bx2kLEUuN0E_456.mp4	0.0	98.36399507522583	
11	28.163677215576172	movie	1		301.0	9.0	2.5	/experiments/knapen_aot/videos/S_yt-Bx2kLEUuN0E_456.mp4	0.0	98.37220311164856	2.508413791656494
11	30.672091007232666	fix_post	2		12.0	9.0	2.5	/experiments/knapen_aot/videos/S_yt-Bx2kLEUuN0E_456.mp4	0.0	100.88061690330505	0.09997916221618652
12	30.772070169448853	fix_pre	0		7.0	10.0	2.5	/experiments/knapen_aot/videos/R_S_ILSVRC2015_train_00743002.mp4	0.0	100.98059606552124	0.05830883979797363
12	30.822208166122437	response	0	2		10.0	2.5	/experiments/knapen_aot/videos/R_S_ILSVRC2015_train_00743002.mp4	0.0	101.03073406219482	
12	30.830379009246826	movie	1		301.0	10.0	2.5	/experiments/knapen_aot/videos/R_S_ILSVRC2015_train_00743002.mp4	0.0	101.03890490531921	2.5084471702575684
12	33.338826179504395	fix_post	2		12.0	10.0	2.5	/experiments/knapen_aot/videos/R_S_ILSVRC2015_train_00743002.mp4	0.0	103.54735207557678	0.09993696212768555
13	33.43876314163208	fix_pre	0		18.0	11.0	2.5	/experiments/knapen_aot/videos/R_S_yt-6DJulOrg2-8_122.mp4	0.0	103.64728903770447	0.1508018970489502
13	33.58051609992981	response	0	2		11.0	2.5	/experiments/knapen_aot/videos/R_S_yt-6DJulOrg2-8_122.mp4	0.0	103.7890419960022	
13	33.58956503868103	movie	1		301.0	11.0	2.5	/experiments/knapen_aot/videos/R_S_yt-6DJulOrg2-8_122.mp4	0.0	103.79809093475342	2.5075180530548096
13	36.09708309173584	fix_post	2		12.0	11.0	2.5	/experiments/knapen_aot/videos/R_S_yt-6DJulOrg2-8_122.mp4	0.0	106.30560898780823	0.09994196891784668
14	36.19702506065369	fix_pre	0		15.0	12.0	2.5	blank	1.0	106.40555095672607	0.12502598762512207
14	36.30632400512695	response	0	2		12.0	2.5	blank	1.0	106.51484990119934	
14	36.32205104827881	movie	1		301.0	12.0	2.5	blank	1.0	106.5305769443512	2.508270025253296
14	38.830321073532104	fix_post	2		12.0	12.0	2.5	blank	1.0	109.03884696960449	0.10005903244018555
15	38.93038010597229	fix_pre	0		17.0	13.0	2.5	/experiments/knapen_aot/videos/S_yt-ebajhZwlVJM_32.mp4	0.0	109.13890600204468	0.14165592193603516
15	39.06381607055664	response	0	2		13.0	2.5	/experiments/knapen_aot/videos/S_yt-ebajhZwlVJM_32.mp4	0.0	109.27234196662903	
15	39.072036027908325	movie	1		301.0	13.0	2.5	/experiments/knapen_aot/videos/S_yt-ebajhZwlVJM_32.mp4	0.0	109.28056192398071	2.50829815864563
15	41.580334186553955	fix_post	2		12.0	13.0	2.5	/experiments/knapen_aot/videos/S_yt-ebajhZwlVJM_32.mp4	0.0	111.78886008262634	0.10027885437011719
16	41.68061304092407	fix_pre	0		11.0	14.0	2.5	/experiments/knapen_aot/videos/S_yt-pPIHiIYSjW8_653.mp4	0.0	111.88913893699646	0.09130597114562988
16	41.75618100166321	response	0	2		14.0	2.5	/experiments/knapen_aot/videos/S_yt-pPIHiIYSjW8_653.mp4	0.0	111.9647068977356	
16	41.7719190120697	movie	1		301.0	14.0	2.5	/experiments/knapen_aot/videos/S_yt-pPIHiIYSjW8_653.mp4	0.0	111.98044490814209	2.50852108001709
16	44.28044009208679	fix_post	2		12.0	14.0	2.5	/experiments/knapen_aot/videos/S_yt-pPIHiIYSjW8_653.mp4	0.0	114.48896598815918	0.09987807273864746
17	44.38031816482544	fix_pre	0		17.0	15.0	2.5	/experiments/knapen_aot/videos/R_S_yt-tNCrkObhB6c_17.mp4	0.0	114.58884406089783	0.1417858600616455
17	44.51380801200867	response	0	2		15.0	2.5	/experiments/knapen_aot/videos/R_S_yt-tNCrkObhB6c_17.mp4	0.0	114.72233390808105	
17	44.522104024887085	movie	1		301.0	15.0	2.5	/experiments/knapen_aot/videos/R_S_yt-tNCrkObhB6c_17.mp4	0.0	114.73062992095947	2.508265972137451
17	47.030369997024536	fix_post	2		12.0	15.0	2.5	/experiments/knapen_aot/videos/R_S_yt-tNCrkObhB6c_17.mp4	0.0	117.23889589309692	0.10086417198181152
17	47.12204718589783	response	2	2		15.0	2.5	/experiments/knapen_aot/videos/R_S_yt-tNCrkObhB6c_17.mp4	0.0	117.33057308197021	
18	47.13123416900635	fix_pre	0		40.0	16.0	2.5	/experiments/knapen_aot/videos/R_S_production_ID_4101309.mp4	0.0	117.33976006507874	0.3331739902496338
18	47.45531702041626	response	0	2		16.0	2.5	/experiments/knapen_aot/videos/R_S_production_ID_4101309.mp4	0.0	117.66384291648865	
18	47.46440815925598	movie	1		210.0	16.0	2.5	/experiments/knapen_aot/videos/R_S_production_ID_4101309.mp4	0.0	117.67293405532837	2.5075619220733643
18	49.971970081329346	fix_post	2		12.0	16.0	2.5	/experiments/knapen_aot/videos/R_S_production_ID_4101309.mp4	0.0	120.18049597740173	0.09994912147521973
19	50.071919202804565	fix_pre	0		18.0	17.0	2.5	/experiments/knapen_aot/videos/S_pexels-rodnae-productions-5993237.mp4	0.0	120.28044509887695	0.1499629020690918
19	50.21370506286621	response	0	2		17.0	2.5	/experiments/knapen_aot/videos/S_pexels-rodnae-productions-5993237.mp4	0.0	120.4222309589386	
19	50.22188210487366	movie	1		163.0	17.0	2.5	/experiments/knapen_aot/videos/S_pexels-rodnae-productions-5993237.mp4	0.0	120.43040800094604	2.5083510875701904
19	52.73023319244385	fix_post	2		12.0	17.0	2.5	/experiments/knapen_aot/videos/S_pexels-rodnae-productions-5993237.mp4	0.0	122.93875908851624	0.10001087188720703
20	52.830244064331055	fix_pre	0		9.0	18.0	2.5	/experiments/knapen_aot/videos/S_ILSVRC2015_train_00251005.mp4	0.0	123.03876996040344	0.07499098777770996
20	52.89701819419861	response	0	2		18.0	2.5	/experiments/knapen_aot/videos/S_ILSVRC2015_train_00251005.mp4	0.0	123.105544090271	
20	52.905235052108765	movie	1		301.0	18.0	2.5	/experiments/knapen_aot/videos/S_ILSVRC2015_train_00251005.mp4	0.0	123.11376094818115	2.5083870887756348
20	55.4136221408844	fix_post	2		12.0	18.0	2.5	/experiments/knapen_aot/videos/S_ILSVRC2015_train_00251005.mp4	0.0	125.62214803695679	0.10001707077026367
21	55.51363921165466	fix_pre	0		19.0	19.0	2.5	blank	1.0	125.72216510772705	0.15909099578857422
21	55.66370606422424	response	0	2		19.0	2.5	blank	1.0	125.87223196029663	
21	55.67273020744324	movie	1		301.0	19.0	2.5	blank	1.0	125.88125610351562	2.5075418949127197
21	58.18027210235596	fix_post	2		12.0	19.0	2.5	blank	1.0	128.38879799842834	0.09999489784240723
22	58.280267000198364	fix_pre	0		14.0	20.0	2.5	/experiments/knapen_aot/videos/S_yt-nlfwzxlwRfk_12.mp4	0.0	128.48879289627075	0.11658215522766113
22	58.38865303993225	response	0	2		20.0	2.5	/experiments/knapen_aot/videos/S_yt-nlfwzxlwRfk_12.mp4	0.0	128.59717893600464	
22	58.396849155426025	movie	1		301.0	20.0	2.5	/experiments/knapen_aot/videos/S_yt-nlfwzxlwRfk_12.mp4	0.0	128.6053750514984	2.5084168910980225
22	60.90526604652405	fix_post	2		12.0	20.0	2.5	/experiments/knapen_aot/videos/S_yt-nlfwzxlwRfk_12.mp4	0.0	131.11379194259644	0.09998607635498047
23	61.00525212287903	fix_pre	0		17.0	21.0	2.5	/experiments/knapen_aot/videos/S_yt-mdLT282PVbE_6.mp4	0.0	131.21377801895142	0.14171600341796875
23	61.1386821269989	response	0	2		21.0	2.5	/experiments/knapen_aot/videos/S_yt-mdLT282PVbE_6.mp4	0.0	131.3472080230713	
23	61.146968126297	movie	1		301.0	21.0	2.5	/experiments/knapen_aot/videos/S_yt-mdLT282PVbE_6.mp4	0.0	131.35549402236938	2.5082509517669678
23	63.655219078063965	fix_post	2		12.0	21.0	2.5	/experiments/knapen_aot/videos/S_yt-mdLT282PVbE_6.mp4	0.0	133.86374497413635	0.09999704360961914
24	63.755216121673584	fix_pre	0		10.0	22.0	2.5	/experiments/knapen_aot/videos/S_cST9H3zu3zQ_126.mp4	0.0	133.96374201774597	0.08416390419006348
24	63.830310106277466	response	0	2		22.0	2.5	/experiments/knapen_aot/videos/S_cST9H3zu3zQ_126.mp4	0.0	134.03883600234985	
24	63.83938002586365	movie	1		300.0	22.0	2.5	/experiments/knapen_aot/videos/S_cST9H3zu3zQ_126.mp4	0.0	134.04790592193604	2.507521152496338
24	66.34690117835999	fix_post	2		12.0	22.0	2.5	/experiments/knapen_aot/videos/S_cST9H3zu3zQ_126.mp4	0.0	136.55542707443237	0.10001397132873535
25	66.44691514968872	fix_pre	0		11.0	23.0	2.5	/experiments/knapen_aot/videos/S_yt-z68VLDDCFdw_93.mp4	0.0	136.6554410457611	0.0915689468383789
25	66.53024816513062	response	0	2		23.0	2.5	/experiments/knapen_aot/videos/S_yt-z68VLDDCFdw_93.mp4	0.0	136.738774061203	
25	66.5384840965271	movie	1		301.0	23.0	2.5	/experiments/knapen_aot/videos/S_yt-z68VLDDCFdw_93.mp4	0.0	136.7470099925995	2.5083999633789062
25	69.046884059906	fix_post	2		12.0	23.0	2.5	/experiments/knapen_aot/videos/S_yt-z68VLDDCFdw_93.mp4	0.0	139.2554099559784	0.0999610424041748
26	69.14684510231018	fix_pre	0		12.0	24.0	2.5	/experiments/knapen_aot/videos/S_G010_C026_UHD_SDR_v02_2K_AVC.mp4	0.0	139.35537099838257	0.10002708435058594
26	69.23109602928162	response	0	2		24.0	2.5	/experiments/knapen_aot/videos/S_G010_C026_UHD_SDR_v02_2K_AVC.mp4	0.0	139.439621925354	
26	69.24687218666077	movie	1		168.0	24.0	2.5	/experiments/knapen_aot/videos/S_G010_C026_UHD_SDR_v02_2K_AVC.mp4	0.0	139.45539808273315	2.508232831954956
26	71.75510501861572	fix_post	2		12.0	24.0	2.5	/experiments/knapen_aot/videos/S_G010_C026_UHD_SDR_v02_2K_AVC.mp4	0.0	141.9636309146881	0.10010409355163574
26	71.78947114944458	response	2	2		24.0	2.5	/experiments/knapen_aot/videos/S_G010_C026_UHD_SDR_v02_2K_AVC.mp4	0.0	141.99799704551697	
27	71.85520911216736	fix_pre	0		29.0	25.0	2.5	/experiments/knapen_aot/videos/S_yt-y-boY803u9A_12.mp4	0.0	142.06373500823975	0.2416238784790039
27	72.08857607841492	response	0	2		25.0	2.5	/experiments/knapen_aot/videos/S_yt-y-boY803u9A_12.mp4	0.0	142.2971019744873	
27	72.09683299064636	movie	1		301.0	25.0	2.5	/experiments/knapen_aot/videos/S_yt-y-boY803u9A_12.mp4	0.0	142.30535888671875	2.5084030628204346
27	74.6052360534668	fix_post	2		12.0	25.0	2.5	/experiments/knapen_aot/videos/S_yt-y-boY803u9A_12.mp4	0.0	144.81376194953918	0.09992003440856934
28	74.70515608787537	fix_pre	0		14.0	26.0	2.5	/experiments/knapen_aot/videos/R_S_yt-9aKqMX9IHPg_242.mp4	0.0	144.91368198394775	0.11660909652709961
28	74.81356811523438	response	0	2		26.0	2.5	/experiments/knapen_aot/videos/R_S_yt-9aKqMX9IHPg_242.mp4	0.0	145.02209401130676	
28	74.82176518440247	movie	1		301.0	26.0	2.5	/experiments/knapen_aot/videos/R_S_yt-9aKqMX9IHPg_242.mp4	0.0	145.03029108047485	2.5084078311920166
28	77.33017301559448	fix_post	2		12.0	26.0	2.5	/experiments/knapen_aot/videos/R_S_yt-9aKqMX9IHPg_242.mp4	0.0	147.53869891166687	0.10004210472106934
29	77.43021512031555	fix_pre	0		8.0	27.0	2.5	/experiments/knapen_aot/videos/S_yt-XbigWWtnGL4_75.mp4	0.0	147.63874101638794	0.06657791137695312
29	77.48852801322937	response	0	2		27.0	2.5	/experiments/knapen_aot/videos/S_yt-XbigWWtnGL4_75.mp4	0.0	147.69705390930176	
29	77.4967930316925	movie	1		301.0	27.0	2.5	/experiments/knapen_aot/videos/S_yt-XbigWWtnGL4_75.mp4	0.0	147.7053189277649	2.5087151527404785
29	80.00550818443298	fix_post	2		12.0	27.0	2.5	/experiments/knapen_aot/videos/S_yt-XbigWWtnGL4_75.mp4	0.0	150.21403408050537	0.09963583946228027
30	80.10514402389526	fix_pre	0		6.0	28.0	2.5	blank	1.0	150.31366991996765	0.05001115798950195
30	80.14690208435059	response	0	2		28.0	2.5	blank	1.0	150.35542798042297	
30	80.15515518188477	movie	1		301.0	28.0	2.5	blank	1.0	150.36368107795715	2.508314847946167
30	82.66347002983093	fix_post	2		12.0	28.0	2.5	blank	1.0	152.87199592590332	0.10015702247619629
31	82.76362705230713	fix_pre	0		36.0	29.0	2.5	/experiments/knapen_aot/videos/S_yt-n1snPiGfg0A_45.mp4	0.0	152.97215294837952	0.29981112480163574
31	83.05529618263245	response	0	2		29.0	2.5	/experiments/knapen_aot/videos/S_yt-n1snPiGfg0A_45.mp4	0.0	153.26382207870483	
31	83.06343817710876	movie	1		301.0	29.0	2.5	/experiments/knapen_aot/videos/S_yt-n1snPiGfg0A_45.mp4	0.0	153.27196407318115	2.5084118843078613
31	85.57185006141663	fix_post	2		12.0	29.0	2.5	/experiments/knapen_aot/videos/S_yt-n1snPiGfg0A_45.mp4	0.0	155.780375957489	0.09993815422058105
32	85.6717882156372	fix_pre	0		7.0	30.0	2.5	/experiments/knapen_aot/videos/R_S_yt-wz2opOBqClo_14.mp4	0.0	155.8803141117096	0.058238983154296875
32	85.72191309928894	response	0	2		30.0	2.5	/experiments/knapen_aot/videos/R_S_yt-wz2opOBqClo_14.mp4	0.0	155.93043899536133	
32	85.7300271987915	movie	1		301.0	30.0	2.5	/experiments/knapen_aot/videos/R_S_yt-wz2opOBqClo_14.mp4	0.0	155.9385530948639	2.5084028244018555
32	88.23843002319336	fix_post	2		12.0	30.0	2.5	/experiments/knapen_aot/videos/R_S_yt-wz2opOBqClo_14.mp4	0.0	158.44695591926575	0.10070204734802246
33	88.33913207054138	fix_pre	0		9.0	31.0	2.5	/experiments/knapen_aot/videos/S_yt-ROhKDdF1gV4_21.mp4	0.0	158.54765796661377	0.07424807548522949
33	88.40514707565308	response	0	2		31.0	2.5	/experiments/knapen_aot/videos/S_yt-ROhKDdF1gV4_21.mp4	0.0	158.61367297172546	
33	88.41338014602661	movie	1		301.0	31.0	2.5	/experiments/knapen_aot/videos/S_yt-ROhKDdF1gV4_21.mp4	0.0	158.621906042099	2.5084240436553955
33	90.921804189682	fix_post	2		12.0	31.0	2.5	/experiments/knapen_aot/videos/S_yt-ROhKDdF1gV4_21.mp4	0.0	161.1303300857544	0.09998393058776855
34	91.02178812026978	fix_pre	0		15.0	32.0	2.5	/experiments/knapen_aot/videos/R_S_yt-T7RmOAme5dU_213.mp4	0.0	161.23031401634216	0.12497997283935547
34	91.13857817649841	response	0	2		32.0	2.5	/experiments/knapen_aot/videos/R_S_yt-T7RmOAme5dU_213.mp4	0.0	161.3471040725708	
34	91.14676809310913	movie	1		301.0	32.0	2.5	/experiments/knapen_aot/videos/R_S_yt-T7RmOAme5dU_213.mp4	0.0	161.35529398918152	2.50832200050354
34	93.65509009361267	fix_post	2		12.0	32.0	2.5	/experiments/knapen_aot/videos/R_S_yt-T7RmOAme5dU_213.mp4	0.0	163.86361598968506	0.09993910789489746
35	93.75502920150757	fix_pre	0		4.0	33.0	2.5	blank	1.0	163.96355509757996	0.03341794013977051
35	93.78018116950989	response	0	2		33.0	2.5	blank	1.0	163.98870706558228	
35	93.78844714164734	movie	1		301.0	33.0	2.5	blank	1.0	163.99697303771973	2.508302927017212
35	96.29675006866455	fix_post	2		12.0	33.0	2.5	blank	1.0	166.50527596473694	0.09998607635498047
36	96.39673614501953	fix_pre	0		22.0	34.0	2.5	/experiments/knapen_aot/videos/S_yt-XY1n_Oze1kQ_9.mp4	0.0	166.60526204109192	0.18330788612365723
36	96.57186818122864	response	0	2		34.0	2.5	/experiments/knapen_aot/videos/S_yt-XY1n_Oze1kQ_9.mp4	0.0	166.78039407730103	
36	96.58004403114319	movie	1		301.0	34.0	2.5	/experiments/knapen_aot/videos/S_yt-XY1n_Oze1kQ_9.mp4	0.0	166.78856992721558	2.5083470344543457
36	99.08839106559753	fix_post	2		12.0	34.0	2.5	/experiments/knapen_aot/videos/S_yt-XY1n_Oze1kQ_9.mp4	0.0	169.29691696166992	0.10005903244018555
37	99.18845009803772	fix_pre	0		10.0	35.0	2.5	/experiments/knapen_aot/videos/R_S_yt-AjyR9--Mx3A_44.mp4	0.0	169.3969759941101	0.08327102661132812
37	99.26348114013672	response	0	2		35.0	2.5	/experiments/knapen_aot/videos/R_S_yt-AjyR9--Mx3A_44.mp4	0.0	169.4720070362091	
37	99.27172112464905	movie	1		301.0	35.0	2.5	/experiments/knapen_aot/videos/R_S_yt-AjyR9--Mx3A_44.mp4	0.0	169.48024702072144	2.5082550048828125
37	101.77997612953186	fix_post	2		12.0	35.0	2.5	/experiments/knapen_aot/videos/R_S_yt-AjyR9--Mx3A_44.mp4	0.0	171.98850202560425	0.1000518798828125
38	101.88002800941467	fix_pre	0		10.0	36.0	2.5	/experiments/knapen_aot/videos/R_S_yt-3eQHOLBzOqA_100.mp4	0.0	172.08855390548706	0.08387613296508789
38	101.95515608787537	response	0	2		36.0	2.5	/experiments/knapen_aot/videos/R_S_yt-3eQHOLBzOqA_100.mp4	0.0	172.16368198394775	
38	101.96390414237976	movie	1		301.0	36.0	2.5	/experiments/knapen_aot/videos/R_S_yt-3eQHOLBzOqA_100.mp4	0.0	172.17243003845215	2.5078470706939697
38	104.47175121307373	fix_post	2		12.0	36.0	2.5	/experiments/knapen_aot/videos/R_S_yt-3eQHOLBzOqA_100.mp4	0.0	174.68027710914612	0.1001889705657959
39	104.57194018363953	fix_pre	0		5.0	37.0	2.5	/experiments/knapen_aot/videos/S_ILSVRC2015_train_00417000.mp4	0.0	174.7804660797119	0.04149198532104492
39	104.60515403747559	response	0	2		37.0	2.5	/experiments/knapen_aot/videos/S_ILSVRC2015_train_00417000.mp4	0.0	174.81367993354797	
39	104.61343216896057	movie	1		301.0	37.0	2.5	/experiments/knapen_aot/videos/S_ILSVRC2015_train_00417000.mp4	0.0	174.82195806503296	2.5084829330444336
39	107.121915102005	fix_post	2		12.0	37.0	2.5	/experiments/knapen_aot/videos/S_ILSVRC2015_train_00417000.mp4	0.0	177.3304409980774	0.09967589378356934
40	107.22159099578857	fix_pre	0		38.0	38.0	2.5	/experiments/knapen_aot/videos/R_S_ILSVRC2015_train_00549000.mp4	0.0	177.43011689186096	0.31675004959106445
40	107.5301821231842	response	0	2		38.0	2.5	/experiments/knapen_aot/videos/R_S_ILSVRC2015_train_00549000.mp4	0.0	177.7387080192566	
40	107.53834104537964	movie	1		301.0	38.0	2.5	/experiments/knapen_aot/videos/R_S_ILSVRC2015_train_00549000.mp4	0.0	177.74686694145203	2.5083770751953125
40	110.04671812057495	fix_post	2		12.0	38.0	2.5	/experiments/knapen_aot/videos/R_S_ILSVRC2015_train_00549000.mp4	0.0	180.25524401664734	0.10004687309265137
41	110.1467649936676	fix_pre	0		514.0	39.0	2.5	/experiments/knapen_aot/videos/R_S_yt-dESxu60Cl10_24.mp4	0.0	180.35529088974	4.2831950187683105
41	114.41424417495728	response	0	2		39.0	2.5	/experiments/knapen_aot/videos/R_S_yt-dESxu60Cl10_24.mp4	0.0	184.62277007102966	
41	114.42996001243591	movie	1		301.0	39.0	2.5	/experiments/knapen_aot/videos/R_S_yt-dESxu60Cl10_24.mp4	0.0	184.6384859085083	2.5085601806640625
41	116.93852019309998	fix_post	2		12.0	39.0	2.5	/experiments/knapen_aot/videos/R_S_yt-dESxu60Cl10_24.mp4	0.0	187.14704608917236	0.09979391098022461
42	117.0383141040802	fix_pre	0		11.0	40.0	2.5	/experiments/knapen_aot/videos/S_yt-mJzkLd3Mr_c_35.mp4	0.0	187.2468400001526	0.09210395812988281
42	117.12178301811218	response	0	2		40.0	2.5	/experiments/knapen_aot/videos/S_yt-mJzkLd3Mr_c_35.mp4	0.0	187.33030891418457	
42	117.13041806221008	movie	1		301.0	40.0	2.5	/experiments/knapen_aot/videos/S_yt-mJzkLd3Mr_c_35.mp4	0.0	187.33894395828247	2.5078930854797363
42	119.63831114768982	fix_post	2		12.0	40.0	2.5	/experiments/knapen_aot/videos/S_yt-mJzkLd3Mr_c_35.mp4	0.0	189.8468370437622	0.1000218391418457
43	119.73833298683167	fix_pre	0		18.0	41.0	2.5	/experiments/knapen_aot/videos/R_S_yt-be7r-ha8BpA_1045.mp4	0.0	189.94685888290405	0.1499500274658203
43	119.87998819351196	response	0	2		41.0	2.5	/experiments/knapen_aot/videos/R_S_yt-be7r-ha8BpA_1045.mp4	0.0	190.08851408958435	
43	119.88828301429749	movie	1		301.0	41.0	2.5	/experiments/knapen_aot/videos/R_S_yt-be7r-ha8BpA_1045.mp4	0.0	190.09680891036987	2.5085530281066895
43	122.39683604240417	fix_post	2		12.0	41.0	2.5	/experiments/knapen_aot/videos/R_S_yt-be7r-ha8BpA_1045.mp4	0.0	192.60536193847656	0.09980297088623047
44	122.4966390132904	fix_pre	0		73.0	42.0	2.5	blank	1.0	192.7051649093628	0.608273983001709
44	123.09676718711853	response	0	2		42.0	2.5	blank	1.0	193.30529308319092	
44	123.10491299629211	movie	1		301.0	42.0	2.5	blank	1.0	193.3134388923645	2.5083601474761963
44	125.61327314376831	fix_post	2		12.0	42.0	2.5	blank	1.0	195.8217990398407	0.10002994537353516
45	125.71330308914185	fix_pre	0		26.0	43.0	2.5	/experiments/knapen_aot/videos/S_yt-SS7pSyb0_d0_32.mp4	0.0	195.92182898521423	0.21658992767333984
45	125.92171001434326	response	0	2		43.0	2.5	/experiments/knapen_aot/videos/S_yt-SS7pSyb0_d0_32.mp4	0.0	196.13023591041565	
45	125.92989301681519	movie	1		301.0	43.0	2.5	/experiments/knapen_aot/videos/S_yt-SS7pSyb0_d0_32.mp4	0.0	196.13841891288757	2.508416175842285
45	128.43830919265747	fix_post	2		12.0	43.0	2.5	/experiments/knapen_aot/videos/S_yt-SS7pSyb0_d0_32.mp4	0.0	198.64683508872986	0.09999895095825195
46	128.53830814361572	fix_pre	0		68.0	44.0	2.5	/experiments/knapen_aot/videos/R_S_yt-7WYXuBHeorw_188.mp4	0.0	198.7468340396881	0.5665938854217529
46	129.09670400619507	response	0	2		44.0	2.5	/experiments/knapen_aot/videos/R_S_yt-7WYXuBHeorw_188.mp4	0.0	199.30522990226746	
46	129.10490202903748	movie	1		301.0	44.0	2.5	/experiments/knapen_aot/videos/R_S_yt-7WYXuBHeorw_188.mp4	0.0	199.31342792510986	2.5083250999450684
46	131.61322712898254	fix_post	2		12.0	44.0	2.5	/experiments/knapen_aot/videos/R_S_yt-7WYXuBHeorw_188.mp4	0.0	201.82175302505493	0.10008406639099121
47	131.71331119537354	fix_pre	0		16.0	45.0	2.5	/experiments/knapen_aot/videos/R_S_yt-J2PiBa1MXI0_210.mp4	0.0	201.92183709144592	0.13327288627624512
47	131.83083820343018	response	0	2		45.0	2.5	/experiments/knapen_aot/videos/R_S_yt-J2PiBa1MXI0_210.mp4	0.0	202.03936409950256	
47	131.84658408164978	movie	1		301.0	45.0	2.5	/experiments/knapen_aot/videos/R_S_yt-J2PiBa1MXI0_210.mp4	0.0	202.05510997772217	2.508392095565796
47	134.35497617721558	fix_post	2		12.0	45.0	2.5	/experiments/knapen_aot/videos/R_S_yt-J2PiBa1MXI0_210.mp4	0.0	204.56350207328796	0.09993696212768555
48	134.45491313934326	fix_pre	0		6.0	46.0	2.5	/experiments/knapen_aot/videos/S_yt-okYy5Md2U8I_7.mp4	0.0	204.66343903541565	0.05034208297729492
48	134.4967269897461	response	0	2		46.0	2.5	/experiments/knapen_aot/videos/S_yt-okYy5Md2U8I_7.mp4	0.0	204.70525288581848	
48	134.50525522232056	movie	1		301.0	46.0	2.5	/experiments/knapen_aot/videos/S_yt-okYy5Md2U8I_7.mp4	0.0	204.71378111839294	2.5080108642578125
48	137.01326608657837	fix_post	2		12.0	46.0	2.5	/experiments/knapen_aot/videos/S_yt-okYy5Md2U8I_7.mp4	0.0	207.22179198265076	0.09996199607849121
49	137.11322808265686	fix_pre	0		46.0	47.0	2.5	/experiments/knapen_aot/videos/R_S_yt-4ouMuGUuPHI_193.mp4	0.0	207.32175397872925	0.3832709789276123
49	137.4883291721344	response	0	2		47.0	2.5	/experiments/knapen_aot/videos/R_S_yt-4ouMuGUuPHI_193.mp4	0.0	207.6968550682068	
49	137.49649906158447	movie	1		301.0	47.0	2.5	/experiments/knapen_aot/videos/R_S_yt-4ouMuGUuPHI_193.mp4	0.0	207.70502495765686	2.5083940029144287
49	140.0048930644989	fix_post	2		12.0	47.0	2.5	/experiments/knapen_aot/videos/R_S_yt-4ouMuGUuPHI_193.mp4	0.0	210.2134189605713	0.09995913505554199
50	140.10485219955444	fix_pre	0		13.0	48.0	2.5	/experiments/knapen_aot/videos/R_S_yt-2ZsK7zSCJ2w_67.mp4	0.0	210.31337809562683	0.10870480537414551
50	140.20502018928528	response	0	2		48.0	2.5	/experiments/knapen_aot/videos/R_S_yt-2ZsK7zSCJ2w_67.mp4	0.0	210.41354608535767	
50	140.2135570049286	movie	1		301.0	48.0	2.5	/experiments/knapen_aot/videos/R_S_yt-2ZsK7zSCJ2w_67.mp4	0.0	210.42208290100098	2.507981061935425
50	142.721538066864	fix_post	2		12.0	48.0	2.5	/experiments/knapen_aot/videos/R_S_yt-2ZsK7zSCJ2w_67.mp4	0.0	212.9300639629364	0.10019898414611816
51	142.82173705101013	fix_pre	0		70.0	49.0	2.5	blank	1.0	213.03026294708252	0.5830790996551514
51	143.39666509628296	response	0	2		49.0	2.5	blank	1.0	213.60519099235535	
51	143.40481615066528	movie	1		301.0	49.0	2.5	blank	1.0	213.61334204673767	2.5083508491516113
51	145.9131669998169	fix_post	2		12.0	49.0	2.5	blank	1.0	216.12169289588928	0.10026311874389648
52	146.0134301185608	fix_pre	0		48.0	50.0	2.5	/experiments/knapen_aot/videos/R_S_yt-t23g0U_hAgg_32.mp4	0.0	216.22195601463318	0.39972996711730957
52	146.4050030708313	response	0	2		50.0	2.5	/experiments/knapen_aot/videos/R_S_yt-t23g0U_hAgg_32.mp4	0.0	216.6135289669037	
52	146.4131600856781	movie	1		301.0	50.0	2.5	/experiments/knapen_aot/videos/R_S_yt-t23g0U_hAgg_32.mp4	0.0	216.6216859817505	2.508405923843384
52	148.92156600952148	fix_post	2		12.0	50.0	2.5	/experiments/knapen_aot/videos/R_S_yt-t23g0U_hAgg_32.mp4	0.0	219.13009190559387	0.0999460220336914
53	149.02151203155518	fix_pre	0		11.0	51.0	2.5	/experiments/knapen_aot/videos/R_S_yt-K0CzoUy_uIA_22.mp4	0.0	219.23003792762756	0.09163498878479004
53	149.09749221801758	response	0	2		51.0	2.5	/experiments/knapen_aot/videos/R_S_yt-K0CzoUy_uIA_22.mp4	0.0	219.30601811408997	
53	149.11314702033997	movie	1		301.0	51.0	2.5	/experiments/knapen_aot/videos/R_S_yt-K0CzoUy_uIA_22.mp4	0.0	219.32167291641235	2.5083701610565186
53	151.62151718139648	fix_post	2		12.0	51.0	2.5	/experiments/knapen_aot/videos/R_S_yt-K0CzoUy_uIA_22.mp4	0.0	221.83004307746887	0.10020685195922852
54	151.7217240333557	fix_pre	0		21.0	52.0	2.5	/experiments/knapen_aot/videos/R_S_yt-NLfzvAJgyJ4_120.mp4	0.0	221.9302499294281	0.17470097541809082
54	151.8809289932251	response	0	2		52.0	2.5	/experiments/knapen_aot/videos/R_S_yt-NLfzvAJgyJ4_120.mp4	0.0	222.08945488929749	
54	151.8964250087738	movie	1		301.0	52.0	2.5	/experiments/knapen_aot/videos/R_S_yt-NLfzvAJgyJ4_120.mp4	0.0	222.1049509048462	2.5083961486816406
54	154.2632360458374	response	1	2		52.0	2.5	/experiments/knapen_aot/videos/R_S_yt-NLfzvAJgyJ4_120.mp4	0.0	224.4717619419098	
54	154.40482115745544	fix_post	2		12.0	52.0	2.5	/experiments/knapen_aot/videos/R_S_yt-NLfzvAJgyJ4_120.mp4	0.0	224.61334705352783	0.10031390190124512
55	154.5051350593567	fix_pre	0		31.0	53.0	2.5	/experiments/knapen_aot/videos/R_S_pexels-kindel-media-8164443.mp4	0.0	224.71366095542908	0.2579610347747803
55	154.75487399101257	response	0	2		53.0	2.5	/experiments/knapen_aot/videos/R_S_pexels-kindel-media-8164443.mp4	0.0	224.96339988708496	
55	154.76309609413147	movie	1		164.0	53.0	2.5	/experiments/knapen_aot/videos/R_S_pexels-kindel-media-8164443.mp4	0.0	224.97162199020386	2.508402109146118
55	157.2714982032776	fix_post	2		12.0	53.0	2.5	/experiments/knapen_aot/videos/R_S_pexels-kindel-media-8164443.mp4	0.0	227.48002409934998	0.10003399848937988
56	157.37153220176697	fix_pre	0		1.0	54.0	2.5	blank	1.0	227.58005809783936	0.008832931518554688
56	157.3732841014862	response	0	2		54.0	2.5	blank	1.0	227.5818099975586	
56	157.38036513328552	movie	1		301.0	54.0	2.5	blank	1.0	227.5888910293579	2.5077528953552246
56	159.88811802864075	fix_post	2		12.0	54.0	2.5	blank	1.0	230.09664392471313	0.09999918937683105
57	159.98811721801758	fix_pre	0		28.0	55.0	2.5	/experiments/knapen_aot/videos/R_S_yt-mDil5vGZb14_4049.mp4	0.0	230.19664311408997	0.2333078384399414
57	160.21315503120422	response	0	2		55.0	2.5	/experiments/knapen_aot/videos/R_S_yt-mDil5vGZb14_4049.mp4	0.0	230.4216809272766	
57	160.22142505645752	movie	1		301.0	55.0	2.5	/experiments/knapen_aot/videos/R_S_yt-mDil5vGZb14_4049.mp4	0.0	230.4299509525299	2.508371114730835
57	162.72979617118835	fix_post	2		12.0	55.0	2.5	/experiments/knapen_aot/videos/R_S_yt-mDil5vGZb14_4049.mp4	0.0	232.93832206726074	0.09994697570800781
58	162.82974314689636	fix_pre	0		2.0	56.0	2.5	/experiments/knapen_aot/videos/S_flickr-csgzs-8144064966_10.mp4	0.0	233.03826904296875	0.016674041748046875
58	162.83885622024536	response	0	2		56.0	2.5	/experiments/knapen_aot/videos/S_flickr-csgzs-8144064966_10.mp4	0.0	233.04738211631775	
58	162.8464171886444	movie	1		301.0	56.0	2.5	/experiments/knapen_aot/videos/S_flickr-csgzs-8144064966_10.mp4	0.0	233.0549430847168	2.508370876312256
58	165.35478806495667	fix_post	2		12.0	56.0	2.5	/experiments/knapen_aot/videos/S_flickr-csgzs-8144064966_10.mp4	0.0	235.56331396102905	0.10000205039978027
59	165.45479011535645	fix_pre	0		17.0	57.0	2.5	/experiments/knapen_aot/videos/R_S_yt-zhQ32_OayBQ_39.mp4	0.0	235.66331601142883	0.14158105850219727
59	165.58818221092224	response	0	2		57.0	2.5	/experiments/knapen_aot/videos/R_S_yt-zhQ32_OayBQ_39.mp4	0.0	235.79670810699463	
59	165.59637117385864	movie	1		301.0	57.0	2.5	/experiments/knapen_aot/videos/R_S_yt-zhQ32_OayBQ_39.mp4	0.0	235.80489706993103	2.5084128379821777
59	168.10478401184082	fix_post	2		12.0	57.0	2.5	/experiments/knapen_aot/videos/R_S_yt-zhQ32_OayBQ_39.mp4	0.0	238.3133099079132	0.10011005401611328
60	168.20489406585693	fix_pre	0		7.0	58.0	2.5	/experiments/knapen_aot/videos/R_S_yt-Xs7TCzdnUJQ_79.mp4	0.0	238.41341996192932	0.058171987533569336
60	168.25477504730225	response	0	2		58.0	2.5	/experiments/knapen_aot/videos/R_S_yt-Xs7TCzdnUJQ_79.mp4	0.0	238.46330094337463	
60	168.2630660533905	movie	1		301.0	58.0	2.5	/experiments/knapen_aot/videos/R_S_yt-Xs7TCzdnUJQ_79.mp4	0.0	238.4715919494629	2.5083489418029785
60	170.77141499519348	fix_post	2		12.0	58.0	2.5	/experiments/knapen_aot/videos/R_S_yt-Xs7TCzdnUJQ_79.mp4	0.0	240.97994089126587	0.09993100166320801
61	170.8713459968567	fix_pre	0		13.0	59.0	2.5	/experiments/knapen_aot/videos/R_S_yt-H45g6700wbc_159.mp4	0.0	241.07987189292908	0.10837411880493164
61	170.97150802612305	response	0	2		59.0	2.5	/experiments/knapen_aot/videos/R_S_yt-H45g6700wbc_159.mp4	0.0	241.18003392219543	
61	170.97972011566162	movie	1		301.0	59.0	2.5	/experiments/knapen_aot/videos/R_S_yt-H45g6700wbc_159.mp4	0.0	241.188246011734	2.508366107940674
61	173.4880862236023	fix_post	2		12.0	59.0	2.5	/experiments/knapen_aot/videos/R_S_yt-H45g6700wbc_159.mp4	0.0	243.69661211967468	0.10022687911987305
62	173.58831310272217	fix_pre	0		18.0	60.0	2.5	/experiments/knapen_aot/videos/R_S_comp_HK_H004_C010_PSNK_v08_SDR_PS_20181009_SDR_2K_AVC.mp4	0.0	243.79683899879456	0.14982390403747559
62	173.72972202301025	response	0	2		60.0	2.5	/experiments/knapen_aot/videos/R_S_comp_HK_H004_C010_PSNK_v08_SDR_PS_20181009_SDR_2K_AVC.mp4	0.0	243.93824791908264	
62	173.73813700675964	movie	1		167.0	60.0	2.5	/experiments/knapen_aot/videos/R_S_comp_HK_H004_C010_PSNK_v08_SDR_PS_20181009_SDR_2K_AVC.mp4	0.0	243.94666290283203	2.5082831382751465
62	176.2464201450348	fix_post	2		12.0	60.0	2.5	/experiments/knapen_aot/videos/R_S_comp_HK_H004_C010_PSNK_v08_SDR_PS_20181009_SDR_2K_AVC.mp4	0.0	246.45494604110718	0.09997391700744629
62	176.27153301239014	response	2	2		60.0	2.5	/experiments/knapen_aot/videos/R_S_comp_HK_H004_C010_PSNK_v08_SDR_PS_20181009_SDR_2K_AVC.mp4	0.0	246.48005890846252	
63	176.34639406204224	fix_pre	0		26.0	61.0	2.5	blank	1.0	246.55491995811462	0.2166280746459961
63	176.55474710464478	response	0	2		61.0	2.5	blank	1.0	246.76327300071716	
63	176.56302213668823	movie	1		301.0	61.0	2.5	blank	1.0	246.77154803276062	2.5083608627319336
63	179.07138299942017	fix_post	2		12.0	61.0	2.5	blank	1.0	249.27990889549255	0.10017013549804688
64	179.1715531349182	fix_pre	0		18.0	62.0	2.5	/experiments/knapen_aot/videos/R_S_pexels-c-technical-6809719.mp4	0.0	249.3800790309906	0.1498570442199707
64	179.31319117546082	response	0	2		62.0	2.5	/experiments/knapen_aot/videos/R_S_pexels-c-technical-6809719.mp4	0.0	249.5217170715332	
64	179.32141017913818	movie	1		197.0	62.0	2.5	/experiments/knapen_aot/videos/R_S_pexels-c-technical-6809719.mp4	0.0	249.52993607521057	2.5083439350128174
64	181.829754114151	fix_post	2		12.0	62.0	2.5	/experiments/knapen_aot/videos/R_S_pexels-c-technical-6809719.mp4	0.0	252.0382800102234	0.09999489784240723
65	181.9297490119934	fix_pre	0		1.0	63.0	2.5	/experiments/knapen_aot/videos/S_yt-be7r-ha8BpA_1045.mp4	0.0	252.1382749080658	0.008273124694824219
65	181.9314091205597	response	0	2		63.0	2.5	/experiments/knapen_aot/videos/S_yt-be7r-ha8BpA_1045.mp4	0.0	252.13993501663208	
65	181.93802213668823	movie	1		301.0	63.0	2.5	/experiments/knapen_aot/videos/S_yt-be7r-ha8BpA_1045.mp4	0.0	252.14654803276062	2.508363962173462
65	184.4463860988617	fix_post	2		12.0	63.0	2.5	/experiments/knapen_aot/videos/S_yt-be7r-ha8BpA_1045.mp4	0.0	254.65491199493408	0.1000370979309082
66	184.5464231967926	fix_pre	0		9.0	64.0	2.5	/experiments/knapen_aot/videos/R_S_yt-b7bIulV49DQ_81.mp4	0.0	254.754949092865	0.07492899894714355
66	184.61306405067444	response	0	2		64.0	2.5	/experiments/knapen_aot/videos/R_S_yt-b7bIulV49DQ_81.mp4	0.0	254.82158994674683	
66	184.62135219573975	movie	1		301.0	64.0	2.5	/experiments/knapen_aot/videos/R_S_yt-b7bIulV49DQ_81.mp4	0.0	254.82987809181213	2.508453845977783
66	187.12980604171753	fix_post	2		12.0	64.0	2.5	/experiments/knapen_aot/videos/R_S_yt-b7bIulV49DQ_81.mp4	0.0	257.3383319377899	0.09999895095825195
67	187.22980499267578	fix_pre	0		11.0	65.0	2.5	/experiments/knapen_aot/videos/R_S_comp_HK_H004_C010_PSNK_v08_SDR_PS_20181009_SDR_2K_AVC.mp4	0.0	257.43833088874817	0.09151315689086914
67	187.30576920509338	response	0	2		65.0	2.5	/experiments/knapen_aot/videos/R_S_comp_HK_H004_C010_PSNK_v08_SDR_PS_20181009_SDR_2K_AVC.mp4	0.0	257.51429510116577	
67	187.32131814956665	movie	1		169.0	65.0	2.5	/experiments/knapen_aot/videos/R_S_comp_HK_H004_C010_PSNK_v08_SDR_PS_20181009_SDR_2K_AVC.mp4	0.0	257.52984404563904	2.5083370208740234
67	189.82965517044067	fix_post	2		12.0	65.0	2.5	/experiments/knapen_aot/videos/R_S_comp_HK_H004_C010_PSNK_v08_SDR_PS_20181009_SDR_2K_AVC.mp4	0.0	260.03818106651306	0.10023999214172363
67	189.83151602745056	response	2	2		65.0	2.5	/experiments/knapen_aot/videos/R_S_comp_HK_H004_C010_PSNK_v08_SDR_PS_20181009_SDR_2K_AVC.mp4	0.0	260.04004192352295	
68	189.9298951625824	fix_pre	0		32.0	66.0	2.5	/experiments/knapen_aot/videos/S_Pexels_Videos_2795736.mp4	0.0	260.1384210586548	0.2664449214935303
68	190.18801403045654	response	0	2		66.0	2.5	/experiments/knapen_aot/videos/S_Pexels_Videos_2795736.mp4	0.0	260.39653992652893	
68	190.19634008407593	movie	1		163.0	66.0	2.5	/experiments/knapen_aot/videos/S_Pexels_Videos_2795736.mp4	0.0	260.4048659801483	2.5087029933929443
68	192.70504307746887	fix_post	2		12.0	66.0	2.5	/experiments/knapen_aot/videos/S_Pexels_Videos_2795736.mp4	0.0	262.91356897354126	0.09963607788085938
69	192.80467915534973	fix_pre	0		7.0	67.0	2.5	/experiments/knapen_aot/videos/S_ILSVRC2015_train_00743002.mp4	0.0	263.0132050514221	0.058387041091918945
69	192.8547911643982	response	0	2		67.0	2.5	/experiments/knapen_aot/videos/S_ILSVRC2015_train_00743002.mp4	0.0	263.0633170604706	
69	192.86306619644165	movie	1		301.0	67.0	2.5	/experiments/knapen_aot/videos/S_ILSVRC2015_train_00743002.mp4	0.0	263.07159209251404	2.5082879066467285
69	195.37135410308838	fix_post	2		12.0	67.0	2.5	/experiments/knapen_aot/videos/S_ILSVRC2015_train_00743002.mp4	0.0	265.57987999916077	0.100006103515625
70	195.471360206604	fix_pre	0		7.0	68.0	2.5	/experiments/knapen_aot/videos/R_S_SE_A016_C009_SDR_20190717_SDR_2K_AVC.mp4	0.0	265.6798861026764	0.05823493003845215
70	195.5215060710907	response	0	2		68.0	2.5	/experiments/knapen_aot/videos/R_S_SE_A016_C009_SDR_20190717_SDR_2K_AVC.mp4	0.0	265.7300319671631	
70	195.52959513664246	movie	1		166.0	68.0	2.5	/experiments/knapen_aot/videos/R_S_SE_A016_C009_SDR_20190717_SDR_2K_AVC.mp4	0.0	265.73812103271484	2.508396863937378
70	198.03799200057983	fix_post	2		12.0	68.0	2.5	/experiments/knapen_aot/videos/R_S_SE_A016_C009_SDR_20190717_SDR_2K_AVC.mp4	0.0	268.2465178966522	0.09998321533203125
71	198.13797521591187	fix_pre	0		9.0	69.0	2.5	blank	1.0	268.34650111198425	0.07500481605529785
71	198.20470714569092	response	0	2		69.0	2.5	blank	1.0	268.4132330417633	
71	198.21298003196716	movie	1		301.0	69.0	2.5	blank	1.0	268.42150592803955	2.508527994155884
71	200.72150802612305	fix_post	2		12.0	69.0	2.5	blank	1.0	270.93003392219543	0.0998849868774414
72	200.8213930130005	fix_pre	0		15.0	70.0	2.5	/experiments/knapen_aot/videos/S_yt-T7RmOAme5dU_213.mp4	0.0	271.0299189090729	0.12483906745910645
72	200.93053913116455	response	0	2		70.0	2.5	/experiments/knapen_aot/videos/S_yt-T7RmOAme5dU_213.mp4	0.0	271.13906502723694	
72	200.9462320804596	movie	1		301.0	70.0	2.5	/experiments/knapen_aot/videos/S_yt-T7RmOAme5dU_213.mp4	0.0	271.154757976532	2.5083799362182617
72	203.45461201667786	fix_post	2		12.0	70.0	2.5	/experiments/knapen_aot/videos/S_yt-T7RmOAme5dU_213.mp4	0.0	273.66313791275024	0.10000300407409668
73	203.55461502075195	fix_pre	0		2.0	71.0	2.5	/experiments/knapen_aot/videos/R_S_yt-MEfljVFL0xw_375.mp4	0.0	273.76314091682434	0.016662120819091797
73	203.56309509277344	response	0	2		71.0	2.5	/experiments/knapen_aot/videos/R_S_yt-MEfljVFL0xw_375.mp4	0.0	273.7716209888458	
73	203.57127714157104	movie	1		301.0	71.0	2.5	/experiments/knapen_aot/videos/R_S_yt-MEfljVFL0xw_375.mp4	0.0	273.77980303764343	2.508358955383301
73	206.07963609695435	fix_post	2		12.0	71.0	2.5	/experiments/knapen_aot/videos/R_S_yt-MEfljVFL0xw_375.mp4	0.0	276.28816199302673	0.10002493858337402
74	206.17966103553772	fix_pre	0		15.0	72.0	2.5	/experiments/knapen_aot/videos/R_S_yt-MEfljVFL0xw_375.mp4	0.0	276.3881869316101	0.12488317489624023
74	206.2963399887085	response	0	2		72.0	2.5	/experiments/knapen_aot/videos/R_S_yt-MEfljVFL0xw_375.mp4	0.0	276.5048658847809	
74	206.30454421043396	movie	1		301.0	72.0	2.5	/experiments/knapen_aot/videos/R_S_yt-MEfljVFL0xw_375.mp4	0.0	276.51307010650635	2.5083799362182617
74	208.81292414665222	fix_post	2		12.0	72.0	2.5	/experiments/knapen_aot/videos/R_S_yt-MEfljVFL0xw_375.mp4	0.0	279.0214500427246	0.1000359058380127
75	208.91296005249023	fix_pre	0		4.0	73.0	2.5	/experiments/knapen_aot/videos/S_yt-F3hhts3bwWg_25.mp4	0.0	279.1214859485626	0.0332331657409668
75	208.93810510635376	response	0	2		73.0	2.5	/experiments/knapen_aot/videos/S_yt-F3hhts3bwWg_25.mp4	0.0	279.14663100242615	
75	208.9461932182312	movie	1		301.0	73.0	2.5	/experiments/knapen_aot/videos/S_yt-F3hhts3bwWg_25.mp4	0.0	279.1547191143036	2.5083248615264893
75	211.4545180797577	fix_post	2		12.0	73.0	2.5	/experiments/knapen_aot/videos/S_yt-F3hhts3bwWg_25.mp4	0.0	281.6630439758301	0.10005998611450195
76	211.5545780658722	fix_pre	0		13.0	74.0	2.5	/experiments/knapen_aot/videos/R_S_yt-HFiRYTnMZxE_338.mp4	0.0	281.7631039619446	0.10841703414916992
76	211.65474605560303	response	0	2		74.0	2.5	/experiments/knapen_aot/videos/R_S_yt-HFiRYTnMZxE_338.mp4	0.0	281.8632719516754	
76	211.66299510002136	movie	1		301.0	74.0	2.5	/experiments/knapen_aot/videos/R_S_yt-HFiRYTnMZxE_338.mp4	0.0	281.87152099609375	2.5082600116729736
76	214.17125511169434	fix_post	2		12.0	74.0	2.5	/experiments/knapen_aot/videos/R_S_yt-HFiRYTnMZxE_338.mp4	0.0	284.3797810077667	0.09996891021728516
77	214.27122402191162	fix_pre	0		14.0	75.0	2.5	/experiments/knapen_aot/videos/R_S_yt-Bx2kLEUuN0E_456.mp4	0.0	284.479749917984	0.11661601066589355
77	214.37967014312744	response	0	2		75.0	2.5	/experiments/knapen_aot/videos/R_S_yt-Bx2kLEUuN0E_456.mp4	0.0	284.58819603919983	
77	214.38784003257751	movie	1		301.0	75.0	2.5	/experiments/knapen_aot/videos/R_S_yt-Bx2kLEUuN0E_456.mp4	0.0	284.5963659286499	2.5083999633789062
77	216.89623999595642	fix_post	2		12.0	75.0	2.5	/experiments/knapen_aot/videos/R_S_yt-Bx2kLEUuN0E_456.mp4	0.0	287.1047658920288	0.09998607635498047
77	216.93795704841614	response	2	2		75.0	2.5	/experiments/knapen_aot/videos/R_S_yt-Bx2kLEUuN0E_456.mp4	0.0	287.1464829444885	
78	216.9962260723114	fix_pre	0		31.0	76.0	2.5	/experiments/knapen_aot/videos/S_ILSVRC2015_train_00165013.mp4	0.0	287.2047519683838	0.2582969665527344
78	217.24630403518677	response	0	2		76.0	2.5	/experiments/knapen_aot/videos/S_ILSVRC2015_train_00165013.mp4	0.0	287.45482993125916	
78	217.25452303886414	movie	1		301.0	76.0	2.5	/experiments/knapen_aot/videos/S_ILSVRC2015_train_00165013.mp4	0.0	287.4630489349365	2.508432149887085
78	219.76295518875122	fix_post	2		12.0	76.0	2.5	/experiments/knapen_aot/videos/S_ILSVRC2015_train_00165013.mp4	0.0	289.9714810848236	0.09991288185119629
78	219.82962703704834	response	2	2		76.0	2.5	/experiments/knapen_aot/videos/S_ILSVRC2015_train_00165013.mp4	0.0	290.0381529331207	
79	219.86286807060242	fix_pre	0		38.0	77.0	2.5	blank	1.0	290.0713939666748	0.3166201114654541
79	220.16383004188538	response	0	2		77.0	2.5	blank	1.0	290.37235593795776	
79	220.17948818206787	movie	1		301.0	77.0	2.5	blank	1.0	290.38801407814026	2.5084128379821777
79	222.68790102005005	fix_post	2		12.0	77.0	2.5	blank	1.0	292.89642691612244	0.09996604919433594
80	222.78786706924438	fix_pre	0		27.0	78.0	2.5	/experiments/knapen_aot/videos/R_S_comp_LA_A006_C004_v01_SDR_FINAL_PS_20180730_SDR_2K_AVC.mp4	0.0	292.9963929653168	0.22498297691345215
80	223.00454306602478	response	0	2		78.0	2.5	/experiments/knapen_aot/videos/R_S_comp_LA_A006_C004_v01_SDR_FINAL_PS_20180730_SDR_2K_AVC.mp4	0.0	293.21306896209717	
80	223.01285004615784	movie	1		169.0	78.0	2.5	/experiments/knapen_aot/videos/R_S_comp_LA_A006_C004_v01_SDR_FINAL_PS_20180730_SDR_2K_AVC.mp4	0.0	293.2213759422302	2.5083670616149902
80	225.52121710777283	fix_post	2		12.0	78.0	2.5	/experiments/knapen_aot/videos/R_S_comp_LA_A006_C004_v01_SDR_FINAL_PS_20180730_SDR_2K_AVC.mp4	0.0	295.7297430038452	0.09995603561401367
80	225.52288818359375	response	2	2		78.0	2.5	/experiments/knapen_aot/videos/R_S_comp_LA_A006_C004_v01_SDR_FINAL_PS_20180730_SDR_2K_AVC.mp4	0.0	295.73141407966614	
81	225.62117314338684	fix_pre	0		23.0	79.0	2.5	/experiments/knapen_aot/videos/S_yt-5doJmCcFL7s_3.mp4	0.0	295.82969903945923	0.19163990020751953
81	225.80463314056396	response	0	2		79.0	2.5	/experiments/knapen_aot/videos/S_yt-5doJmCcFL7s_3.mp4	0.0	296.01315903663635	
81	225.81281304359436	movie	1		301.0	79.0	2.5	/experiments/knapen_aot/videos/S_yt-5doJmCcFL7s_3.mp4	0.0	296.02133893966675	2.5082931518554688
81	228.32110619544983	fix_post	2		12.0	79.0	2.5	/experiments/knapen_aot/videos/S_yt-5doJmCcFL7s_3.mp4	0.0	298.5296320915222	0.10008502006530762
82	228.42119121551514	fix_pre	0		17.0	80.0	2.5	/experiments/knapen_aot/videos/R_S_yt-hRAqAwRhmwE_58.mp4	0.0	298.6297171115875	0.1417238712310791
82	228.5545380115509	response	0	2		80.0	2.5	/experiments/knapen_aot/videos/R_S_yt-hRAqAwRhmwE_58.mp4	0.0	298.7630639076233	
82	228.56291508674622	movie	1		301.0	80.0	2.5	/experiments/knapen_aot/videos/R_S_yt-hRAqAwRhmwE_58.mp4	0.0	298.7714409828186	2.5085690021514893
82	231.0714840888977	fix_post	2		12.0	80.0	2.5	/experiments/knapen_aot/videos/R_S_yt-hRAqAwRhmwE_58.mp4	0.0	301.2800099849701	0.09971213340759277
83	231.1711962223053	fix_pre	0		9.0	81.0	2.5	/experiments/knapen_aot/videos/R_S_ILSVRC2015_train_00371006.mp4	0.0	301.3797221183777	0.07630586624145508
83	231.237948179245	response	0	2		81.0	2.5	/experiments/knapen_aot/videos/R_S_ILSVRC2015_train_00371006.mp4	0.0	301.4464740753174	
83	231.24750208854675	movie	1		301.0	81.0	2.5	/experiments/knapen_aot/videos/R_S_ILSVRC2015_train_00371006.mp4	0.0	301.45602798461914	2.507021903991699
83	233.75452399253845	fix_post	2		12.0	81.0	2.5	/experiments/knapen_aot/videos/R_S_ILSVRC2015_train_00371006.mp4	0.0	303.96304988861084	0.09998011589050293
84	233.85450410842896	fix_pre	0		4.0	82.0	2.5	blank	1.0	304.06303000450134	0.033370018005371094
84	233.87963199615479	response	0	2		82.0	2.5	blank	1.0	304.0881578922272	
84	233.88787412643433	movie	1		301.0	82.0	2.5	blank	1.0	304.0964000225067	2.508315086364746
84	236.39618921279907	fix_post	2		12.0	82.0	2.5	blank	1.0	306.60471510887146	0.10002994537353516
85	236.4962191581726	fix_pre	0		17.0	83.0	2.5	/experiments/knapen_aot/videos/R_S_yt-K7viJXt9vX8_143.mp4	0.0	306.704745054245	0.14169883728027344
85	236.62210607528687	response	0	2		83.0	2.5	/experiments/knapen_aot/videos/R_S_yt-K7viJXt9vX8_143.mp4	0.0	306.83063197135925	
85	236.63791799545288	movie	1		301.0	83.0	2.5	/experiments/knapen_aot/videos/R_S_yt-K7viJXt9vX8_143.mp4	0.0	306.84644389152527	2.5082180500030518
85	239.14613604545593	fix_post	2		12.0	83.0	2.5	/experiments/knapen_aot/videos/R_S_yt-K7viJXt9vX8_143.mp4	0.0	309.3546619415283	0.09992194175720215
87	239.24605798721313	stim	0		148.0					309.4545838832855	1.2333600521087646
87	239.33782815933228	response	0	2						309.54635405540466	
87	240.47391200065613	response	0	space						310.6824378967285	
