trial_nr	onset	event_type	phase	response	nr_frames	movie_index	movie_duration	movie_file	blank	onset_abs	duration
0	0.12505698204040527	stim	0		190.0					63.76976990699768	1.583024024963379
0	1.6997919082641602	response	0	space						65.34450483322144	
1	1.7080810070037842	stim	0		121.0					65.35279393196106	1.0083308219909668
1	2.716411828994751	stim	1		120.0					66.36112475395203	0.9999861717224121
1	3.1164498329162598	response	1	space						66.76116275787354	
2	3.716398000717163	fix_pre	0		100.0	0.0	2.5	/experiments/knapen_aot/videos/S_ILSVRC2015_train_00584001.mp4	0.0	67.36111092567444	0.8333067893981934
2	4.541546821594238	response	0	space		0.0	2.5	/experiments/knapen_aot/videos/S_ILSVRC2015_train_00584001.mp4	0.0	68.18625974655151	
2	4.5497047901153564	movie	1		300.0	0.0	2.5	/experiments/knapen_aot/videos/S_ILSVRC2015_train_00584001.mp4	0.0	68.19441771507263	2.508352041244507
2	7.058056831359863	fix_post	2		12.0	0.0	2.5	/experiments/knapen_aot/videos/S_ILSVRC2015_train_00584001.mp4	0.0	70.70276975631714	0.09995317459106445
3	7.158010005950928	fix_pre	0		512.0	1.0	2.5	/experiments/knapen_aot/videos/R_S_production_ID_4499960.mp4	0.0	70.8027229309082	4.269493818283081
3	11.42128586769104	response	0	2		1.0	2.5	/experiments/knapen_aot/videos/R_S_production_ID_4499960.mp4	0.0	75.06599879264832	
3	11.427503824234009	movie	1		169.0	1.0	2.5	/experiments/knapen_aot/videos/R_S_production_ID_4499960.mp4	0.0	75.07221674919128	2.5055391788482666
3	13.933043003082275	fix_post	2		12.0	1.0	2.5	/experiments/knapen_aot/videos/R_S_production_ID_4499960.mp4	0.0	77.57775592803955	0.09995794296264648
4	14.033000946044922	fix_pre	0		53.0	2.0	2.5	/experiments/knapen_aot/videos/S_yt-5ws2gxbcjs4_381.mp4	0.0	77.6777138710022	0.4415590763092041
4	14.466472864151001	response	0	2		2.0	2.5	/experiments/knapen_aot/videos/S_yt-5ws2gxbcjs4_381.mp4	0.0	78.11118578910828	
4	14.474560022354126	movie	1		301.0	2.0	2.5	/experiments/knapen_aot/videos/S_yt-5ws2gxbcjs4_381.mp4	0.0	78.1192729473114	2.508511781692505
4	16.98307180404663	fix_post	2		12.0	2.0	2.5	/experiments/knapen_aot/videos/S_yt-5ws2gxbcjs4_381.mp4	0.0	80.6277847290039	0.09989809989929199
5	17.082969903945923	fix_pre	0		80.0	3.0	2.5	/experiments/knapen_aot/videos/S_yt-kXarkCFJLeg_46.mp4	0.0	80.7276828289032	0.666632890701294
5	17.74144697189331	response	0	2		3.0	2.5	/experiments/knapen_aot/videos/S_yt-kXarkCFJLeg_46.mp4	0.0	81.38615989685059	
5	17.749602794647217	movie	1		301.0	3.0	2.5	/experiments/knapen_aot/videos/S_yt-kXarkCFJLeg_46.mp4	0.0	81.39431571960449	2.5084340572357178
5	20.258036851882935	fix_post	2		12.0	3.0	2.5	/experiments/knapen_aot/videos/S_yt-kXarkCFJLeg_46.mp4	0.0	83.90274977684021	0.10002493858337402
6	20.35806179046631	fix_pre	0		178.0	4.0	2.5	/experiments/knapen_aot/videos/R_S_yt-HQQws1Lp_rQ_10.mp4	0.0	84.00277471542358	1.4832251071929932
6	21.83317494392395	response	0	2		4.0	2.5	/experiments/knapen_aot/videos/R_S_yt-HQQws1Lp_rQ_10.mp4	0.0	85.47788786888123	
6	21.8412868976593	movie	1		301.0	4.0	2.5	/experiments/knapen_aot/videos/R_S_yt-HQQws1Lp_rQ_10.mp4	0.0	85.48599982261658	2.5083460807800293
6	24.34963297843933	fix_post	2		12.0	4.0	2.5	/experiments/knapen_aot/videos/R_S_yt-HQQws1Lp_rQ_10.mp4	0.0	87.9943459033966	0.09999394416809082
7	24.449626922607422	fix_pre	0		56.0	5.0	2.5	/experiments/knapen_aot/videos/R_S_xTlFOCRvy68_1564.mp4	0.0	88.0943398475647	0.4665958881378174
7	24.908089876174927	response	0	2		5.0	2.5	/experiments/knapen_aot/videos/R_S_xTlFOCRvy68_1564.mp4	0.0	88.5528028011322	
7	24.91622281074524	movie	1		301.0	5.0	2.5	/experiments/knapen_aot/videos/R_S_xTlFOCRvy68_1564.mp4	0.0	88.56093573570251	2.508392095565796
7	27.424614906311035	fix_post	2		12.0	5.0	2.5	/experiments/knapen_aot/videos/R_S_xTlFOCRvy68_1564.mp4	0.0	91.06932783126831	0.10002493858337402
8	27.52463984489441	fix_pre	0		28.0	6.0	2.5	/experiments/knapen_aot/videos/S_ILSVRC2015_train_00574004.mp4	0.0	91.16935276985168	0.23324108123779297
8	27.749763011932373	response	0	2		6.0	2.5	/experiments/knapen_aot/videos/S_ILSVRC2015_train_00574004.mp4	0.0	91.39447593688965	
8	27.757880926132202	movie	1		301.0	6.0	2.5	/experiments/knapen_aot/videos/S_ILSVRC2015_train_00574004.mp4	0.0	91.40259385108948	2.5083959102630615
8	30.266276836395264	fix_post	2		12.0	6.0	2.5	/experiments/knapen_aot/videos/S_ILSVRC2015_train_00574004.mp4	0.0	93.91098976135254	0.10001015663146973
9	30.366286993026733	fix_pre	0		29.0	7.0	2.5	blank	1.0	94.01099991798401	0.2418358325958252
9	30.59967279434204	response	0	2		7.0	2.5	blank	1.0	94.24438571929932	
9	30.60812282562256	movie	1		301.0	7.0	2.5	blank	1.0	94.25283575057983	2.508169174194336
9	33.116291999816895	fix_post	2		12.0	7.0	2.5	blank	1.0	96.76100492477417	0.09990096092224121
10	33.216192960739136	fix_pre	0		43.0	8.0	2.5	/experiments/knapen_aot/videos/R_S_yt-hvuC_2YXsTQ_159.mp4	0.0	96.86090588569641	0.3583848476409912
10	33.55888891220093	response	0	2		8.0	2.5	/experiments/knapen_aot/videos/R_S_yt-hvuC_2YXsTQ_159.mp4	0.0	97.2036018371582	
10	33.57457780838013	movie	1		301.0	8.0	2.5	/experiments/knapen_aot/videos/R_S_yt-hvuC_2YXsTQ_159.mp4	0.0	97.2192907333374	2.508782148361206
10	36.08335995674133	fix_post	2		12.0	8.0	2.5	/experiments/knapen_aot/videos/R_S_yt-hvuC_2YXsTQ_159.mp4	0.0	99.72807288169861	0.09965991973876953
11	36.1830198764801	fix_pre	0		23.0	9.0	2.5	/experiments/knapen_aot/videos/S_yt-OTNdgakSIJE_97.mp4	0.0	99.82773280143738	0.19155097007751465
11	36.366371870040894	response	0	2		9.0	2.5	/experiments/knapen_aot/videos/S_yt-OTNdgakSIJE_97.mp4	0.0	100.01108479499817	
11	36.37457084655762	movie	1		301.0	9.0	2.5	/experiments/knapen_aot/videos/S_yt-OTNdgakSIJE_97.mp4	0.0	100.01928377151489	2.5083510875701904
11	38.88292193412781	fix_post	2		12.0	9.0	2.5	/experiments/knapen_aot/videos/S_yt-OTNdgakSIJE_97.mp4	0.0	102.52763485908508	0.10001397132873535
12	38.98293590545654	fix_pre	0		36.0	10.0	2.5	/experiments/knapen_aot/videos/S_Pexels_Videos_2795731.mp4	0.0	102.62764883041382	0.30001211166381836
12	39.27471685409546	response	0	2		10.0	2.5	/experiments/knapen_aot/videos/S_Pexels_Videos_2795731.mp4	0.0	102.91942977905273	
12	39.28294801712036	movie	1		164.0	10.0	2.5	/experiments/knapen_aot/videos/S_Pexels_Videos_2795731.mp4	0.0	102.92766094207764	2.508206844329834
12	41.791154861450195	fix_post	2		12.0	10.0	2.5	/experiments/knapen_aot/videos/S_Pexels_Videos_2795731.mp4	0.0	105.43586778640747	0.10012197494506836
13	41.891276836395264	fix_pre	0		56.0	11.0	2.5	/experiments/knapen_aot/videos/S_yt-JpOBXV46TLE_124.mp4	0.0	105.53598976135254	0.46651196479797363
13	42.349671840667725	response	0	2		11.0	2.5	/experiments/knapen_aot/videos/S_yt-JpOBXV46TLE_124.mp4	0.0	105.994384765625	
13	42.35778880119324	movie	1		301.0	11.0	2.5	/experiments/knapen_aot/videos/S_yt-JpOBXV46TLE_124.mp4	0.0	106.00250172615051	2.5084481239318848
13	44.86623692512512	fix_post	2		12.0	11.0	2.5	/experiments/knapen_aot/videos/S_yt-JpOBXV46TLE_124.mp4	0.0	108.5109498500824	0.10000300407409668
14	44.96623992919922	fix_pre	0		39.0	12.0	2.5	blank	1.0	108.6109528541565	0.3250260353088379
14	45.28309679031372	response	0	2		12.0	2.5	blank	1.0	108.927809715271	
14	45.29126596450806	movie	1		301.0	12.0	2.5	blank	1.0	108.93597888946533	2.5081820487976074
14	47.799448013305664	fix_post	2		12.0	12.0	2.5	blank	1.0	111.44416093826294	0.1000969409942627
15	47.89954495429993	fix_pre	0		124.0	13.0	2.5	/experiments/knapen_aot/videos/S_ILSVRC2015_train_00479004.mp4	0.0	111.5442578792572	1.033263921737671
15	48.9170708656311	response	0	2		13.0	2.5	/experiments/knapen_aot/videos/S_ILSVRC2015_train_00479004.mp4	0.0	112.56178379058838	
15	48.9328088760376	movie	1		301.0	13.0	2.5	/experiments/knapen_aot/videos/S_ILSVRC2015_train_00479004.mp4	0.0	112.57752180099487	2.508410930633545
15	51.44121980667114	fix_post	2		12.0	13.0	2.5	/experiments/knapen_aot/videos/S_ILSVRC2015_train_00479004.mp4	0.0	115.08593273162842	0.10000801086425781
16	51.5412278175354	fix_pre	0		25.0	14.0	2.5	/experiments/knapen_aot/videos/R_S_yt-dqcUJzNOzbM_156.mp4	0.0	115.18594074249268	0.20827102661132812
16	51.74132299423218	response	0	2		14.0	2.5	/experiments/knapen_aot/videos/R_S_yt-dqcUJzNOzbM_156.mp4	0.0	115.38603591918945	
16	51.74949884414673	movie	1		301.0	14.0	2.5	/experiments/knapen_aot/videos/R_S_yt-dqcUJzNOzbM_156.mp4	0.0	115.394211769104	2.5083730220794678
16	54.257871866226196	fix_post	2		12.0	14.0	2.5	/experiments/knapen_aot/videos/R_S_yt-dqcUJzNOzbM_156.mp4	0.0	117.90258479118347	0.1001291275024414
17	54.35800099372864	fix_pre	0		18.0	15.0	2.5	/experiments/knapen_aot/videos/S_ILSVRC2015_train_00654000.mp4	0.0	118.00271391868591	0.1498408317565918
17	54.49959897994995	response	0	2		15.0	2.5	/experiments/knapen_aot/videos/S_ILSVRC2015_train_00654000.mp4	0.0	118.14431190490723	
17	54.50784182548523	movie	1		301.0	15.0	2.5	/experiments/knapen_aot/videos/S_ILSVRC2015_train_00654000.mp4	0.0	118.1525547504425	2.508342981338501
17	57.01618480682373	fix_post	2		12.0	15.0	2.5	/experiments/knapen_aot/videos/S_ILSVRC2015_train_00654000.mp4	0.0	120.660897731781	0.09997701644897461
18	57.116161823272705	fix_pre	0		14.0	16.0	2.5	/experiments/knapen_aot/videos/S_yt-XA6RBioito4_18.mp4	0.0	120.76087474822998	0.11660599708557129
18	57.22468900680542	response	0	2		16.0	2.5	/experiments/knapen_aot/videos/S_yt-XA6RBioito4_18.mp4	0.0	120.8694019317627	
18	57.232767820358276	movie	1		301.0	16.0	2.5	/experiments/knapen_aot/videos/S_yt-XA6RBioito4_18.mp4	0.0	120.87748074531555	2.508794069290161
18	59.74156188964844	fix_post	2		12.0	16.0	2.5	/experiments/knapen_aot/videos/S_yt-XA6RBioito4_18.mp4	0.0	123.38627481460571	0.09960007667541504
19	59.84116196632385	fix_pre	0		40.0	17.0	2.5	/experiments/knapen_aot/videos/R_S_G009_C003_UHD_SDR_2K_AVC.mp4	0.0	123.48587489128113	0.3332970142364502
19	60.1662859916687	response	0	2		17.0	2.5	/experiments/knapen_aot/videos/R_S_G009_C003_UHD_SDR_2K_AVC.mp4	0.0	123.81099891662598	
19	60.1744589805603	movie	1		168.0	17.0	2.5	/experiments/knapen_aot/videos/R_S_G009_C003_UHD_SDR_2K_AVC.mp4	0.0	123.81917190551758	2.50838303565979
19	62.68284201622009	fix_post	2		12.0	17.0	2.5	/experiments/knapen_aot/videos/R_S_G009_C003_UHD_SDR_2K_AVC.mp4	0.0	126.32755494117737	0.09991288185119629
19	62.77455496788025	response	2	2		17.0	2.5	/experiments/knapen_aot/videos/R_S_G009_C003_UHD_SDR_2K_AVC.mp4	0.0	126.41926789283752	
20	62.78275489807129	fix_pre	0		95.0	18.0	2.5	/experiments/knapen_aot/videos/R_S_yt-s73Xqkcq9Js_285.mp4	0.0	126.42746782302856	0.7916529178619385
20	63.55862784385681	response	0	2		18.0	2.5	/experiments/knapen_aot/videos/R_S_yt-s73Xqkcq9Js_285.mp4	0.0	127.20334076881409	
20	63.57440781593323	movie	1		301.0	18.0	2.5	/experiments/knapen_aot/videos/R_S_yt-s73Xqkcq9Js_285.mp4	0.0	127.2191207408905	2.508333206176758
20	66.08274102210999	fix_post	2		12.0	18.0	2.5	/experiments/knapen_aot/videos/R_S_yt-s73Xqkcq9Js_285.mp4	0.0	129.72745394706726	0.10004281997680664
21	66.18278384208679	fix_pre	0		13.0	19.0	2.5	/experiments/knapen_aot/videos/S_wc-1MzpHfRq1MUK_32.mp4	0.0	129.82749676704407	0.10835695266723633
21	66.28291487693787	response	0	2		19.0	2.5	/experiments/knapen_aot/videos/S_wc-1MzpHfRq1MUK_32.mp4	0.0	129.92762780189514	
21	66.29114079475403	movie	1		301.0	19.0	2.5	/experiments/knapen_aot/videos/S_wc-1MzpHfRq1MUK_32.mp4	0.0	129.9358537197113	2.5086801052093506
21	68.79982089996338	fix_post	2		12.0	19.0	2.5	/experiments/knapen_aot/videos/S_wc-1MzpHfRq1MUK_32.mp4	0.0	132.44453382492065	0.09974408149719238
22	68.89956498146057	fix_pre	0		23.0	20.0	2.5	/experiments/knapen_aot/videos/S_yt-5ws2gxbcjs4_381.mp4	0.0	132.54427790641785	0.19155097007751465
22	69.08284592628479	response	0	2		20.0	2.5	/experiments/knapen_aot/videos/S_yt-5ws2gxbcjs4_381.mp4	0.0	132.72755885124207	
22	69.09111595153809	movie	1		301.0	20.0	2.5	/experiments/knapen_aot/videos/S_yt-5ws2gxbcjs4_381.mp4	0.0	132.73582887649536	2.5083370208740234
22	71.59945297241211	fix_post	2		12.0	20.0	2.5	/experiments/knapen_aot/videos/S_yt-5ws2gxbcjs4_381.mp4	0.0	135.24416589736938	0.10001897811889648
23	71.699471950531	fix_pre	0		12.0	21.0	2.5	blank	1.0	135.34418487548828	0.09989190101623535
23	71.79123497009277	response	0	2		21.0	2.5	blank	1.0	135.43594789505005	
23	71.79936385154724	movie	1		301.0	21.0	2.5	blank	1.0	135.44407677650452	2.5083470344543457
23	74.30771088600159	fix_post	2		12.0	21.0	2.5	blank	1.0	137.95242381095886	0.10008096694946289
24	74.40779185295105	fix_pre	0		34.0	22.0	2.5	/experiments/knapen_aot/videos/R_S_yt-2cwARrUMj40_67.mp4	0.0	138.05250477790833	0.28327298164367676
24	74.68281292915344	response	0	2		22.0	2.5	/experiments/knapen_aot/videos/R_S_yt-2cwARrUMj40_67.mp4	0.0	138.32752585411072	
24	74.69106483459473	movie	1		301.0	22.0	2.5	/experiments/knapen_aot/videos/R_S_yt-2cwARrUMj40_67.mp4	0.0	138.335777759552	2.5084331035614014
24	77.19949793815613	fix_post	2		12.0	22.0	2.5	/experiments/knapen_aot/videos/R_S_yt-2cwARrUMj40_67.mp4	0.0	140.8442108631134	0.09994387626647949
25	77.29944181442261	fix_pre	0		11.0	23.0	2.5	/experiments/knapen_aot/videos/S_pexels-mikhail-nilov-8410084.mp4	0.0	140.94415473937988	0.09276700019836426
25	77.3828489780426	response	0	2		23.0	2.5	/experiments/knapen_aot/videos/S_pexels-mikhail-nilov-8410084.mp4	0.0	141.02756190299988	
25	77.39220881462097	movie	1		165.0	23.0	2.5	/experiments/knapen_aot/videos/S_pexels-mikhail-nilov-8410084.mp4	0.0	141.03692173957825	2.5072250366210938
25	79.89943385124207	fix_post	2		12.0	23.0	2.5	/experiments/knapen_aot/videos/S_pexels-mikhail-nilov-8410084.mp4	0.0	143.54414677619934	0.09997105598449707
26	79.99940490722656	fix_pre	0		4.0	24.0	2.5	/experiments/knapen_aot/videos/S_yt-XA6RBioito4_18.mp4	0.0	143.64411783218384	0.03331494331359863
26	80.02452397346497	response	0	2		24.0	2.5	/experiments/knapen_aot/videos/S_yt-XA6RBioito4_18.mp4	0.0	143.66923689842224	
26	80.03271985054016	movie	1		301.0	24.0	2.5	/experiments/knapen_aot/videos/S_yt-XA6RBioito4_18.mp4	0.0	143.67743277549744	2.5083751678466797
26	82.54109501838684	fix_post	2		12.0	24.0	2.5	/experiments/knapen_aot/videos/S_yt-XA6RBioito4_18.mp4	0.0	146.18580794334412	0.10008382797241211
27	82.64117884635925	fix_pre	0		8.0	25.0	2.5	/experiments/knapen_aot/videos/R_S_yt-feTWuKPZA_k_34.mp4	0.0	146.28589177131653	0.06649518013000488
27	82.69945287704468	response	0	2		25.0	2.5	/experiments/knapen_aot/videos/R_S_yt-feTWuKPZA_k_34.mp4	0.0	146.34416580200195	
27	82.70767402648926	movie	1		301.0	25.0	2.5	/experiments/knapen_aot/videos/R_S_yt-feTWuKPZA_k_34.mp4	0.0	146.35238695144653	2.5084028244018555
27	85.21607685089111	fix_post	2		12.0	25.0	2.5	/experiments/knapen_aot/videos/R_S_yt-feTWuKPZA_k_34.mp4	0.0	148.8607897758484	0.10014796257019043
28	85.3162248134613	fix_pre	0		141.0	26.0	2.5	blank	1.0	148.96093773841858	1.17472505569458
28	86.48282384872437	response	0	2		26.0	2.5	blank	1.0	150.12753677368164	
28	86.49094986915588	movie	1		301.0	26.0	2.5	blank	1.0	150.13566279411316	2.5084969997406006
28	88.99944686889648	fix_post	2		12.0	26.0	2.5	blank	1.0	152.64415979385376	0.10008502006530762
29	89.09953188896179	fix_pre	0		104.0	27.0	2.5	/experiments/knapen_aot/videos/R_S_S003_C020_SDR_2K_AVC.mp4	0.0	152.74424481391907	0.8665060997009277
29	89.9578058719635	response	0	2		27.0	2.5	/experiments/knapen_aot/videos/R_S_S003_C020_SDR_2K_AVC.mp4	0.0	153.60251879692078	
29	89.96603798866272	movie	1		174.0	27.0	2.5	/experiments/knapen_aot/videos/R_S_S003_C020_SDR_2K_AVC.mp4	0.0	153.61075091362	2.5083279609680176
29	92.47436594963074	fix_post	2		12.0	27.0	2.5	/experiments/knapen_aot/videos/R_S_S003_C020_SDR_2K_AVC.mp4	0.0	156.119078874588	0.09991288185119629
30	92.57427883148193	fix_pre	0		63.0	28.0	2.5	/experiments/knapen_aot/videos/R_S_ILSVRC2015_train_00654000.mp4	0.0	156.2189917564392	0.5262081623077393
30	93.09114599227905	response	0	2		28.0	2.5	/experiments/knapen_aot/videos/R_S_ILSVRC2015_train_00654000.mp4	0.0	156.73585891723633	
30	93.10048699378967	movie	1		301.0	28.0	2.5	/experiments/knapen_aot/videos/R_S_ILSVRC2015_train_00654000.mp4	0.0	156.74519991874695	2.5072929859161377
30	95.60777997970581	fix_post	2		12.0	28.0	2.5	/experiments/knapen_aot/videos/R_S_ILSVRC2015_train_00654000.mp4	0.0	159.2524929046631	0.10001301765441895
31	95.70779299736023	fix_pre	0		271.0	29.0	2.5	/experiments/knapen_aot/videos/S_yt-Rqwi-Fk9IJQ_114.mp4	0.0	159.3525059223175	2.258159875869751
31	97.9577739238739	response	0	2		29.0	2.5	/experiments/knapen_aot/videos/S_yt-Rqwi-Fk9IJQ_114.mp4	0.0	161.60248684883118	
31	97.96595287322998	movie	1		301.0	29.0	2.5	/experiments/knapen_aot/videos/S_yt-Rqwi-Fk9IJQ_114.mp4	0.0	161.61066579818726	2.50832200050354
31	100.47427487373352	fix_post	2		12.0	29.0	2.5	/experiments/knapen_aot/videos/S_yt-Rqwi-Fk9IJQ_114.mp4	0.0	164.1189877986908	0.10015010833740234
32	100.57442498207092	fix_pre	0		61.0	30.0	2.5	/experiments/knapen_aot/videos/S_ILSVRC2015_test_00004002.mp4	0.0	164.2191379070282	0.508167028427124
32	101.07434296607971	response	0	2		30.0	2.5	/experiments/knapen_aot/videos/S_ILSVRC2015_test_00004002.mp4	0.0	164.719055891037	
32	101.08259201049805	movie	1		301.0	30.0	2.5	/experiments/knapen_aot/videos/S_ILSVRC2015_test_00004002.mp4	0.0	164.72730493545532	2.5083978176116943
32	103.59098982810974	fix_post	2		12.0	30.0	2.5	/experiments/knapen_aot/videos/S_ILSVRC2015_test_00004002.mp4	0.0	167.23570275306702	0.10013413429260254
33	103.69112396240234	fix_pre	0		328.0	31.0	2.5	/experiments/knapen_aot/videos/R_S_pexels-kelly-lacy-6756531.mp4	0.0	167.33583688735962	2.7331368923187256
33	106.41609382629395	response	0	2		31.0	2.5	/experiments/knapen_aot/videos/R_S_pexels-kelly-lacy-6756531.mp4	0.0	170.06080675125122	
33	106.42426085472107	movie	1		167.0	31.0	2.5	/experiments/knapen_aot/videos/R_S_pexels-kelly-lacy-6756531.mp4	0.0	170.06897377967834	2.5083279609680176
33	108.93258881568909	fix_post	2		12.0	31.0	2.5	/experiments/knapen_aot/videos/R_S_pexels-kelly-lacy-6756531.mp4	0.0	172.57730174064636	0.10005307197570801
34	109.0326418876648	fix_pre	0		3.0	32.0	2.5	/experiments/knapen_aot/videos/S_ILSVRC2015_train_00654000.mp4	0.0	172.67735481262207	0.026150941848754883
34	109.04936480522156	response	0	2		32.0	2.5	/experiments/knapen_aot/videos/S_ILSVRC2015_train_00654000.mp4	0.0	172.69407773017883	
34	109.05879282951355	movie	1		301.0	32.0	2.5	/experiments/knapen_aot/videos/S_ILSVRC2015_train_00654000.mp4	0.0	172.70350575447083	2.5073070526123047
34	111.56609988212585	fix_post	2		12.0	32.0	2.5	/experiments/knapen_aot/videos/S_ILSVRC2015_train_00654000.mp4	0.0	175.21081280708313	0.09984397888183594
35	111.66594386100769	fix_pre	0		29.0	33.0	2.5	/experiments/knapen_aot/videos/S_yt-SkIJvj6KNOo_33.mp4	0.0	175.31065678596497	0.24172711372375488
35	111.8994288444519	response	0	2		33.0	2.5	/experiments/knapen_aot/videos/S_yt-SkIJvj6KNOo_33.mp4	0.0	175.54414176940918	
35	111.90767097473145	movie	1		301.0	33.0	2.5	/experiments/knapen_aot/videos/S_yt-SkIJvj6KNOo_33.mp4	0.0	175.55238389968872	2.5083038806915283
35	114.41597485542297	fix_post	2		12.0	33.0	2.5	/experiments/knapen_aot/videos/S_yt-SkIJvj6KNOo_33.mp4	0.0	178.06068778038025	0.10019993782043457
36	114.51617479324341	fix_pre	0		26.0	34.0	2.5	blank	1.0	178.16088771820068	0.2163710594177246
36	114.7169919013977	response	0	2		34.0	2.5	blank	1.0	178.36170482635498	
36	114.73254585266113	movie	1		301.0	34.0	2.5	blank	1.0	178.3772587776184	2.508388042449951
36	117.24093389511108	fix_post	2		12.0	34.0	2.5	blank	1.0	180.88564682006836	0.09994912147521973
37	117.3408830165863	fix_pre	0		39.0	35.0	2.5	/experiments/knapen_aot/videos/R_S_yt-35i8UeYXjGw_47.mp4	0.0	180.98559594154358	0.325023889541626
37	117.65008997917175	response	0	2		35.0	2.5	/experiments/knapen_aot/videos/R_S_yt-35i8UeYXjGw_47.mp4	0.0	181.29480290412903	
37	117.66590690612793	movie	1		301.0	35.0	2.5	/experiments/knapen_aot/videos/R_S_yt-35i8UeYXjGw_47.mp4	0.0	181.3106198310852	2.508328914642334
37	120.17423582077026	fix_post	2		12.0	35.0	2.5	/experiments/knapen_aot/videos/R_S_yt-35i8UeYXjGw_47.mp4	0.0	183.81894874572754	0.10001397132873535
38	120.274249792099	fix_pre	0		14.0	36.0	2.5	/experiments/knapen_aot/videos/R_S_pexels-kelly-lacy-6756531.mp4	0.0	183.91896271705627	0.11768221855163574
38	120.38267087936401	response	0	2		36.0	2.5	/experiments/knapen_aot/videos/R_S_pexels-kelly-lacy-6756531.mp4	0.0	184.0273838043213	
38	120.39193201065063	movie	1		167.0	36.0	2.5	/experiments/knapen_aot/videos/R_S_pexels-kelly-lacy-6756531.mp4	0.0	184.0366449356079	2.5074028968811035
38	122.89933490753174	fix_post	2		12.0	36.0	2.5	/experiments/knapen_aot/videos/R_S_pexels-kelly-lacy-6756531.mp4	0.0	186.544047832489	0.10009503364562988
39	122.99942994117737	fix_pre	0		18.0	37.0	2.5	/experiments/knapen_aot/videos/R_S_yt-mQRzWCcKOR8_28.mp4	0.0	186.64414286613464	0.1497030258178711
39	123.13329887390137	response	0	2		37.0	2.5	/experiments/knapen_aot/videos/R_S_yt-mQRzWCcKOR8_28.mp4	0.0	186.77801179885864	
39	123.14913296699524	movie	1		301.0	37.0	2.5	/experiments/knapen_aot/videos/R_S_yt-mQRzWCcKOR8_28.mp4	0.0	186.79384589195251	2.508415937423706
39	125.65754890441895	fix_post	2		12.0	37.0	2.5	/experiments/knapen_aot/videos/R_S_yt-mQRzWCcKOR8_28.mp4	0.0	189.30226182937622	0.10003495216369629
40	125.75758385658264	fix_pre	0		27.0	38.0	2.5	/experiments/knapen_aot/videos/S_ILSVRC2015_train_00551000.mp4	0.0	189.40229678153992	0.22503995895385742
40	125.97426390647888	response	0	2		38.0	2.5	/experiments/knapen_aot/videos/S_ILSVRC2015_train_00551000.mp4	0.0	189.61897683143616	
40	125.9826238155365	movie	1		301.0	38.0	2.5	/experiments/knapen_aot/videos/S_ILSVRC2015_train_00551000.mp4	0.0	189.62733674049377	2.5082781314849854
40	128.49090194702148	fix_post	2		12.0	38.0	2.5	/experiments/knapen_aot/videos/S_ILSVRC2015_train_00551000.mp4	0.0	192.13561487197876	0.10012388229370117
41	128.59102582931519	fix_pre	0		24.0	39.0	2.5	/experiments/knapen_aot/videos/R_S_yt-4qU-6TEW06E_38.mp4	0.0	192.23573875427246	0.19984197616577148
41	128.78265500068665	response	0	2		39.0	2.5	/experiments/knapen_aot/videos/R_S_yt-4qU-6TEW06E_38.mp4	0.0	192.42736792564392	
41	128.79086780548096	movie	1		301.0	39.0	2.5	/experiments/knapen_aot/videos/R_S_yt-4qU-6TEW06E_38.mp4	0.0	192.43558073043823	2.508327007293701
41	131.29919481277466	fix_post	2		12.0	39.0	2.5	/experiments/knapen_aot/videos/R_S_yt-4qU-6TEW06E_38.mp4	0.0	194.94390773773193	0.09996700286865234
42	131.3991618156433	fix_pre	0		24.0	40.0	2.5	/experiments/knapen_aot/videos/R_S_yt-Dlk44AGz-xM_37.mp4	0.0	195.0438747406006	0.2008991241455078
42	131.5910108089447	response	0	2		40.0	2.5	/experiments/knapen_aot/videos/R_S_yt-Dlk44AGz-xM_37.mp4	0.0	195.23572373390198	
42	131.60006093978882	movie	1		301.0	40.0	2.5	/experiments/knapen_aot/videos/R_S_yt-Dlk44AGz-xM_37.mp4	0.0	195.2447738647461	2.507391929626465
42	134.10745286941528	fix_post	2		12.0	40.0	2.5	/experiments/knapen_aot/videos/R_S_yt-Dlk44AGz-xM_37.mp4	0.0	197.75216579437256	0.10007095336914062
43	134.20752382278442	fix_pre	0		16.0	41.0	2.5	blank	1.0	197.8522367477417	0.13332104682922363
43	134.33260083198547	response	0	2		41.0	2.5	blank	1.0	197.97731375694275	
43	134.34084486961365	movie	1		301.0	41.0	2.5	blank	1.0	197.98555779457092	2.508350133895874
43	136.84919500350952	fix_post	2		12.0	41.0	2.5	blank	1.0	200.4939079284668	0.09998488426208496
44	136.9491798877716	fix_pre	0		229.0	42.0	2.5	/experiments/knapen_aot/videos/R_S_ILSVRC2015_train_00067005.mp4	0.0	200.59389281272888	1.908337116241455
44	138.8493149280548	response	0	2		42.0	2.5	/experiments/knapen_aot/videos/R_S_ILSVRC2015_train_00067005.mp4	0.0	202.49402785301208	
44	138.85751700401306	movie	1		301.0	42.0	2.5	/experiments/knapen_aot/videos/R_S_ILSVRC2015_train_00067005.mp4	0.0	202.50222992897034	2.50832200050354
44	141.3658390045166	fix_post	2		12.0	42.0	2.5	/experiments/knapen_aot/videos/R_S_ILSVRC2015_train_00067005.mp4	0.0	205.01055192947388	0.10000491142272949
45	141.46584391593933	fix_pre	0		63.0	43.0	2.5	/experiments/knapen_aot/videos/S_yt-2i53vKte7SA_117.mp4	0.0	205.1105568408966	0.5249190330505371
45	141.98257493972778	response	0	2		43.0	2.5	/experiments/knapen_aot/videos/S_yt-2i53vKte7SA_117.mp4	0.0	205.62728786468506	
45	141.99076294898987	movie	1		301.0	43.0	2.5	/experiments/knapen_aot/videos/S_yt-2i53vKte7SA_117.mp4	0.0	205.63547587394714	2.5084829330444336
45	144.4992458820343	fix_post	2		12.0	43.0	2.5	/experiments/knapen_aot/videos/S_yt-2i53vKte7SA_117.mp4	0.0	208.14395880699158	0.09984493255615234
46	144.59909081459045	fix_pre	0		29.0	44.0	2.5	/experiments/knapen_aot/videos/S_yt-0d5TkclKWVA_146.mp4	0.0	208.24380373954773	0.24163103103637695
46	144.83260297775269	response	0	2		44.0	2.5	/experiments/knapen_aot/videos/S_yt-0d5TkclKWVA_146.mp4	0.0	208.47731590270996	
46	144.84072184562683	movie	1		301.0	44.0	2.5	/experiments/knapen_aot/videos/S_yt-0d5TkclKWVA_146.mp4	0.0	208.4854347705841	2.508587121963501
46	147.34930896759033	fix_post	2		12.0	44.0	2.5	/experiments/knapen_aot/videos/S_yt-0d5TkclKWVA_146.mp4	0.0	210.9940218925476	0.09980893135070801
47	147.44911789894104	fix_pre	0		45.0	45.0	2.5	/experiments/knapen_aot/videos/R_S_yt-wE0cEswyaaM_53.mp4	0.0	211.09383082389832	0.37500691413879395
47	147.8158688545227	response	0	2		45.0	2.5	/experiments/knapen_aot/videos/R_S_yt-wE0cEswyaaM_53.mp4	0.0	211.46058177947998	
47	147.82412481307983	movie	1		301.0	45.0	2.5	/experiments/knapen_aot/videos/R_S_yt-wE0cEswyaaM_53.mp4	0.0	211.4688377380371	2.508341073989868
47	150.3324658870697	fix_post	2		12.0	45.0	2.5	/experiments/knapen_aot/videos/R_S_yt-wE0cEswyaaM_53.mp4	0.0	213.97717881202698	0.0999901294708252
48	150.43245601654053	fix_pre	0		78.0	46.0	2.5	/experiments/knapen_aot/videos/S_ILSVRC2015_train_00563000.mp4	0.0	214.0771689414978	0.6500167846679688
48	151.07426691055298	response	0	2		46.0	2.5	/experiments/knapen_aot/videos/S_ILSVRC2015_train_00563000.mp4	0.0	214.71897983551025	
48	151.0824728012085	movie	1		301.0	46.0	2.5	/experiments/knapen_aot/videos/S_ILSVRC2015_train_00563000.mp4	0.0	214.72718572616577	2.508345127105713
48	153.5908179283142	fix_post	2		12.0	46.0	2.5	/experiments/knapen_aot/videos/S_ILSVRC2015_train_00563000.mp4	0.0	217.23553085327148	0.10005307197570801
49	153.69087100028992	fix_pre	0		64.0	47.0	2.5	/experiments/knapen_aot/videos/S_yt-HMAa2QbfFPI_216.mp4	0.0	217.3355839252472	0.5339498519897461
49	154.21587300300598	response	0	2		47.0	2.5	/experiments/knapen_aot/videos/S_yt-HMAa2QbfFPI_216.mp4	0.0	217.86058592796326	
49	154.22482085227966	movie	1		301.0	47.0	2.5	/experiments/knapen_aot/videos/S_yt-HMAa2QbfFPI_216.mp4	0.0	217.86953377723694	2.5077531337738037
49	156.73257398605347	fix_post	2		12.0	47.0	2.5	/experiments/knapen_aot/videos/S_yt-HMAa2QbfFPI_216.mp4	0.0	220.37728691101074	0.09988999366760254
50	156.83246397972107	fix_pre	0		20.0	48.0	2.5	blank	1.0	220.47717690467834	0.16659903526306152
50	156.99084997177124	response	0	2		48.0	2.5	blank	1.0	220.63556289672852	
50	156.99906301498413	movie	1		301.0	48.0	2.5	blank	1.0	220.6437759399414	2.5083298683166504
50	159.50739288330078	fix_post	2		12.0	48.0	2.5	blank	1.0	223.15210580825806	0.10004901885986328
51	159.60744190216064	fix_pre	0		21.0	49.0	2.5	/experiments/knapen_aot/videos/S_comp_DB_D008_C010_PSNK_v21_SDR_PS_20180914_F0F16157_SDR_2K_AVC.mp4	0.0	223.25215482711792	0.17493295669555664
51	159.77418184280396	response	0	2		49.0	2.5	/experiments/knapen_aot/videos/S_comp_DB_D008_C010_PSNK_v21_SDR_PS_20180914_F0F16157_SDR_2K_AVC.mp4	0.0	223.41889476776123	
51	159.7823748588562	movie	1		180.0	49.0	2.5	/experiments/knapen_aot/videos/S_comp_DB_D008_C010_PSNK_v21_SDR_PS_20180914_F0F16157_SDR_2K_AVC.mp4	0.0	223.42708778381348	2.508394956588745
51	162.29076981544495	fix_post	2		12.0	49.0	2.5	/experiments/knapen_aot/videos/S_comp_DB_D008_C010_PSNK_v21_SDR_PS_20180914_F0F16157_SDR_2K_AVC.mp4	0.0	225.93548274040222	0.0999441146850586
52	162.39071393013	fix_pre	0		11.0	50.0	2.5	/experiments/knapen_aot/videos/R_S_bing-www_break_com_video_like-a-cat-catching-a-fly-3131008_12.mp4	0.0	226.03542685508728	0.0916299819946289
52	162.4741759300232	response	0	2		50.0	2.5	/experiments/knapen_aot/videos/R_S_bing-www_break_com_video_like-a-cat-catching-a-fly-3131008_12.mp4	0.0	226.11888885498047	
52	162.48234391212463	movie	1		301.0	50.0	2.5	/experiments/knapen_aot/videos/R_S_bing-www_break_com_video_like-a-cat-catching-a-fly-3131008_12.mp4	0.0	226.1270568370819	2.508373975753784
52	164.99071788787842	fix_post	2		12.0	50.0	2.5	/experiments/knapen_aot/videos/R_S_bing-www_break_com_video_like-a-cat-catching-a-fly-3131008_12.mp4	0.0	228.6354308128357	0.10004091262817383
53	165.0907588005066	fix_pre	0		16.0	51.0	2.5	/experiments/knapen_aot/videos/S_ILSVRC2015_train_00756000.mp4	0.0	228.73547172546387	0.1339881420135498
53	165.2158329486847	response	0	2		51.0	2.5	/experiments/knapen_aot/videos/S_ILSVRC2015_train_00756000.mp4	0.0	228.86054587364197	
53	165.22474694252014	movie	1		301.0	51.0	2.5	/experiments/knapen_aot/videos/S_ILSVRC2015_train_00756000.mp4	0.0	228.86945986747742	2.5076100826263428
53	167.73235702514648	fix_post	2		12.0	51.0	2.5	/experiments/knapen_aot/videos/S_ILSVRC2015_train_00756000.mp4	0.0	231.37706995010376	0.1001579761505127
54	167.832515001297	fix_pre	0		19.0	52.0	2.5	/experiments/knapen_aot/videos/R_S_yt-qBPDvSQD0XY_5.mp4	0.0	231.47722792625427	0.15815186500549316
54	167.98247599601746	response	0	2		52.0	2.5	/experiments/knapen_aot/videos/R_S_yt-qBPDvSQD0XY_5.mp4	0.0	231.62718892097473	
54	167.9906668663025	movie	1		301.0	52.0	2.5	/experiments/knapen_aot/videos/R_S_yt-qBPDvSQD0XY_5.mp4	0.0	231.63537979125977	2.508373975753784
54	170.49904084205627	fix_post	2		12.0	52.0	2.5	/experiments/knapen_aot/videos/R_S_yt-qBPDvSQD0XY_5.mp4	0.0	234.14375376701355	0.09993910789489746
55	170.59897994995117	fix_pre	0		22.0	53.0	2.5	/experiments/knapen_aot/videos/S_yt-jYSri2JVUqo_1036.mp4	0.0	234.24369287490845	0.18335485458374023
55	170.7741448879242	response	0	2		53.0	2.5	/experiments/knapen_aot/videos/S_yt-jYSri2JVUqo_1036.mp4	0.0	234.41885781288147	
55	170.7823348045349	movie	1		301.0	53.0	2.5	/experiments/knapen_aot/videos/S_yt-jYSri2JVUqo_1036.mp4	0.0	234.4270477294922	2.5083541870117188
55	173.29068899154663	fix_post	2		12.0	53.0	2.5	/experiments/knapen_aot/videos/S_yt-jYSri2JVUqo_1036.mp4	0.0	236.9354019165039	0.1000218391418457
56	173.39071083068848	fix_pre	0		37.0	54.0	2.5	blank	1.0	237.03542375564575	0.30832600593566895
56	173.69084286689758	response	0	2		54.0	2.5	blank	1.0	237.33555579185486	
56	173.69903683662415	movie	1		301.0	54.0	2.5	blank	1.0	237.34374976158142	2.5083131790161133
56	176.20735001564026	fix_post	2		12.0	54.0	2.5	blank	1.0	239.85206294059753	0.10005879402160645
57	176.30740880966187	fix_pre	0		39.0	55.0	2.5	/experiments/knapen_aot/videos/S_yt-jYSri2JVUqo_1036.mp4	0.0	239.95212173461914	0.3248941898345947
57	176.62407994270325	response	0	2		55.0	2.5	/experiments/knapen_aot/videos/S_yt-jYSri2JVUqo_1036.mp4	0.0	240.26879286766052	
57	176.63230299949646	movie	1		301.0	55.0	2.5	/experiments/knapen_aot/videos/S_yt-jYSri2JVUqo_1036.mp4	0.0	240.27701592445374	2.508445978164673
57	179.14074897766113	fix_post	2		12.0	55.0	2.5	/experiments/knapen_aot/videos/S_yt-jYSri2JVUqo_1036.mp4	0.0	242.7854619026184	0.09992098808288574
58	179.24066996574402	fix_pre	0		35.0	56.0	2.5	/experiments/knapen_aot/videos/R_S_yt-jYSri2JVUqo_1036.mp4	0.0	242.8853828907013	0.29164886474609375
58	179.52411699295044	response	0	2		56.0	2.5	/experiments/knapen_aot/videos/R_S_yt-jYSri2JVUqo_1036.mp4	0.0	243.16882991790771	
58	179.5323188304901	movie	1		301.0	56.0	2.5	/experiments/knapen_aot/videos/R_S_yt-jYSri2JVUqo_1036.mp4	0.0	243.1770317554474	2.5083720684051514
58	182.04069089889526	fix_post	2		12.0	56.0	2.5	/experiments/knapen_aot/videos/R_S_yt-jYSri2JVUqo_1036.mp4	0.0	245.68540382385254	0.09992098808288574
59	182.14061188697815	fix_pre	0		19.0	57.0	2.5	/experiments/knapen_aot/videos/R_S_yt-2V2tq9-O_Nc_1669.mp4	0.0	245.78532481193542	0.15843796730041504
59	182.29073190689087	response	0	2		57.0	2.5	/experiments/knapen_aot/videos/R_S_yt-2V2tq9-O_Nc_1669.mp4	0.0	245.93544483184814	
59	182.29904985427856	movie	1		301.0	57.0	2.5	/experiments/knapen_aot/videos/R_S_yt-2V2tq9-O_Nc_1669.mp4	0.0	245.94376277923584	2.508263111114502
59	184.80731296539307	fix_post	2		12.0	57.0	2.5	/experiments/knapen_aot/videos/R_S_yt-2V2tq9-O_Nc_1669.mp4	0.0	248.45202589035034	0.1000070571899414
60	184.907320022583	fix_pre	0		18.0	58.0	2.5	/experiments/knapen_aot/videos/S_yt-XRQ_LSGGr3Y_712.mp4	0.0	248.55203294754028	0.15050792694091797
60	185.0490448474884	response	0	2		58.0	2.5	/experiments/knapen_aot/videos/S_yt-XRQ_LSGGr3Y_712.mp4	0.0	248.69375777244568	
60	185.05782794952393	movie	1		301.0	58.0	2.5	/experiments/knapen_aot/videos/S_yt-XRQ_LSGGr3Y_712.mp4	0.0	248.7025408744812	2.5078258514404297
60	187.56565380096436	fix_post	2		12.0	58.0	2.5	/experiments/knapen_aot/videos/S_yt-XRQ_LSGGr3Y_712.mp4	0.0	251.21036672592163	0.09993505477905273
61	187.6655888557434	fix_pre	0		30.0	59.0	2.5	/experiments/knapen_aot/videos/S_G009_C003_UHD_SDR_2K_AVC.mp4	0.0	251.31030178070068	0.2500300407409668
61	187.90744400024414	response	0	2		59.0	2.5	/experiments/knapen_aot/videos/S_G009_C003_UHD_SDR_2K_AVC.mp4	0.0	251.55215692520142	
61	187.91561889648438	movie	1		167.0	59.0	2.5	/experiments/knapen_aot/videos/S_G009_C003_UHD_SDR_2K_AVC.mp4	0.0	251.56033182144165	2.508270025253296
61	190.42388892173767	fix_post	2		12.0	59.0	2.5	/experiments/knapen_aot/videos/S_G009_C003_UHD_SDR_2K_AVC.mp4	0.0	254.06860184669495	0.10008692741394043
62	190.5239758491516	fix_pre	0		61.0	60.0	2.5	/experiments/knapen_aot/videos/S_ILSVRC2015_train_00578000.mp4	0.0	254.1686887741089	0.5082700252532959
62	191.0240797996521	response	0	2		60.0	2.5	/experiments/knapen_aot/videos/S_ILSVRC2015_train_00578000.mp4	0.0	254.66879272460938	
62	191.0322458744049	movie	1		301.0	60.0	2.5	/experiments/knapen_aot/videos/S_ILSVRC2015_train_00578000.mp4	0.0	254.67695879936218	2.5083789825439453
62	193.54062485694885	fix_post	2		12.0	60.0	2.5	/experiments/knapen_aot/videos/S_ILSVRC2015_train_00578000.mp4	0.0	257.1853377819061	0.10059309005737305
63	193.64121794700623	fix_pre	0		167.0	61.0	2.5	/experiments/knapen_aot/videos/R_S_yt-NLfzvAJgyJ4_120.mp4	0.0	257.2859308719635	1.3910069465637207
63	195.02403092384338	response	0	2		61.0	2.5	/experiments/knapen_aot/videos/R_S_yt-NLfzvAJgyJ4_120.mp4	0.0	258.66874384880066	
63	195.03222489356995	movie	1		301.0	61.0	2.5	/experiments/knapen_aot/videos/R_S_yt-NLfzvAJgyJ4_120.mp4	0.0	258.6769378185272	2.5083401203155518
63	197.5405650138855	fix_post	2		12.0	61.0	2.5	/experiments/knapen_aot/videos/R_S_yt-NLfzvAJgyJ4_120.mp4	0.0	261.1852779388428	0.1000678539276123
64	197.6406328678131	fix_pre	0		24.0	62.0	2.5	/experiments/knapen_aot/videos/R_S_video-10.mp4	0.0	261.2853457927704	0.19990015029907227
64	197.83239197731018	response	0	2		62.0	2.5	/experiments/knapen_aot/videos/R_S_video-10.mp4	0.0	261.47710490226746	
64	197.84053301811218	movie	1		165.0	62.0	2.5	/experiments/knapen_aot/videos/R_S_video-10.mp4	0.0	261.48524594306946	2.508415937423706
64	200.3489489555359	fix_post	2		12.0	62.0	2.5	/experiments/knapen_aot/videos/R_S_video-10.mp4	0.0	263.99366188049316	0.09996604919433594
65	200.44891500473022	fix_pre	0		14.0	63.0	2.5	blank	1.0	264.0936279296875	0.11664199829101562
65	200.5573229789734	response	0	2		63.0	2.5	blank	1.0	264.20203590393066	
65	200.56555700302124	movie	1		301.0	63.0	2.5	blank	1.0	264.2102699279785	2.508356809616089
65	203.07391381263733	fix_post	2		12.0	63.0	2.5	blank	1.0	266.7186267375946	0.09999203681945801
66	203.1739058494568	fix_pre	0		33.0	64.0	2.5	/experiments/knapen_aot/videos/S_yt-146gReE6xKw_379.mp4	0.0	266.81861877441406	0.2749011516571045
66	203.44068479537964	response	0	2		64.0	2.5	/experiments/knapen_aot/videos/S_yt-146gReE6xKw_379.mp4	0.0	267.0853977203369	
66	203.4488070011139	movie	1		301.0	64.0	2.5	/experiments/knapen_aot/videos/S_yt-146gReE6xKw_379.mp4	0.0	267.09351992607117	2.5084400177001953
66	205.9572470188141	fix_post	2		12.0	64.0	2.5	/experiments/knapen_aot/videos/S_yt-146gReE6xKw_379.mp4	0.0	269.60195994377136	0.10001277923583984
67	206.05725979804993	fix_pre	0		27.0	65.0	2.5	/experiments/knapen_aot/videos/S_OdxWh1oU8e8_1.mp4	0.0	269.7019727230072	0.2249600887298584
67	206.27396297454834	response	0	2		65.0	2.5	/experiments/knapen_aot/videos/S_OdxWh1oU8e8_1.mp4	0.0	269.9186758995056	
67	206.28221988677979	movie	1		301.0	65.0	2.5	/experiments/knapen_aot/videos/S_OdxWh1oU8e8_1.mp4	0.0	269.92693281173706	2.5087530612945557
67	208.79097294807434	fix_post	2		12.0	65.0	2.5	/experiments/knapen_aot/videos/S_OdxWh1oU8e8_1.mp4	0.0	272.4356858730316	0.09959602355957031
68	208.8905689716339	fix_pre	0		28.0	66.0	2.5	/experiments/knapen_aot/videos/R_S_ILSVRC2015_train_00638001.mp4	0.0	272.5352818965912	0.23331594467163086
68	209.1157009601593	response	0	2		66.0	2.5	/experiments/knapen_aot/videos/R_S_ILSVRC2015_train_00638001.mp4	0.0	272.7604138851166	
68	209.12388491630554	movie	1		301.0	66.0	2.5	/experiments/knapen_aot/videos/R_S_ILSVRC2015_train_00638001.mp4	0.0	272.7685978412628	2.5083470344543457
68	211.6322319507599	fix_post	2		12.0	66.0	2.5	/experiments/knapen_aot/videos/R_S_ILSVRC2015_train_00638001.mp4	0.0	275.27694487571716	0.09999299049377441
69	211.73222494125366	fix_pre	0		21.0	67.0	2.5	/experiments/knapen_aot/videos/R_S_yt-MNo__ov96eI_22.mp4	0.0	275.37693786621094	0.17495203018188477
69	211.89901399612427	response	0	2		67.0	2.5	/experiments/knapen_aot/videos/R_S_yt-MNo__ov96eI_22.mp4	0.0	275.54372692108154	
69	211.90717697143555	movie	1		301.0	67.0	2.5	/experiments/knapen_aot/videos/R_S_yt-MNo__ov96eI_22.mp4	0.0	275.5518898963928	2.508635997772217
69	214.41581296920776	fix_post	2		12.0	67.0	2.5	/experiments/knapen_aot/videos/R_S_yt-MNo__ov96eI_22.mp4	0.0	278.06052589416504	0.09978485107421875
70	214.51559782028198	fix_pre	0		33.0	68.0	2.5	/experiments/knapen_aot/videos/S_yt-dO0OuozAgt0_225.mp4	0.0	278.16031074523926	0.2748990058898926
70	214.7822778224945	response	0	2		68.0	2.5	/experiments/knapen_aot/videos/S_yt-dO0OuozAgt0_225.mp4	0.0	278.4269907474518	
70	214.79049682617188	movie	1		301.0	68.0	2.5	/experiments/knapen_aot/videos/S_yt-dO0OuozAgt0_225.mp4	0.0	278.43520975112915	2.508368968963623
70	217.2988657951355	fix_post	2		12.0	68.0	2.5	/experiments/knapen_aot/videos/S_yt-dO0OuozAgt0_225.mp4	0.0	280.9435787200928	0.10016202926635742
71	217.39902782440186	fix_pre	0		33.0	69.0	2.5	/experiments/knapen_aot/videos/S_ILSVRC2015_train_00715000.mp4	0.0	281.04374074935913	0.2768890857696533
71	217.66563487052917	response	0	2		69.0	2.5	/experiments/knapen_aot/videos/S_ILSVRC2015_train_00715000.mp4	0.0	281.31034779548645	
71	217.6759169101715	movie	1		301.0	69.0	2.5	/experiments/knapen_aot/videos/S_ILSVRC2015_train_00715000.mp4	0.0	281.3206298351288	2.506546974182129
71	220.18246388435364	fix_post	2		12.0	69.0	2.5	/experiments/knapen_aot/videos/S_ILSVRC2015_train_00715000.mp4	0.0	283.8271768093109	0.09968304634094238
72	220.28214693069458	fix_pre	0		78.0	70.0	2.5	blank	1.0	283.92685985565186	0.6503889560699463
72	220.92396998405457	response	0	2		70.0	2.5	blank	1.0	284.56868290901184	
72	220.93253588676453	movie	1		301.0	70.0	2.5	blank	1.0	284.5772488117218	2.507941961288452
72	223.44047784805298	fix_post	2		12.0	70.0	2.5	blank	1.0	287.08519077301025	0.09998512268066406
73	223.54046297073364	fix_pre	0		237.0	71.0	2.5	/experiments/knapen_aot/videos/S_yt-pB9w3AA-woE_37.mp4	0.0	287.1851758956909	1.9754300117492676
73	225.50726079940796	response	0	2		71.0	2.5	/experiments/knapen_aot/videos/S_yt-pB9w3AA-woE_37.mp4	0.0	289.15197372436523	
73	225.5158929824829	movie	1		301.0	71.0	2.5	/experiments/knapen_aot/videos/S_yt-pB9w3AA-woE_37.mp4	0.0	289.1606059074402	2.5080068111419678
73	228.02389979362488	fix_post	2		12.0	71.0	2.5	/experiments/knapen_aot/videos/S_yt-pB9w3AA-woE_37.mp4	0.0	291.66861271858215	0.09983205795288086
74	228.12373185157776	fix_pre	0		66.0	72.0	2.5	/experiments/knapen_aot/videos/R_S_comp_A009_C001_010181A_v09_SDR_PS_FINAL_20180725_SDR_2K_AVC.mp4	0.0	291.76844477653503	0.5499770641326904
74	228.66560101509094	response	0	2		72.0	2.5	/experiments/knapen_aot/videos/R_S_comp_A009_C001_010181A_v09_SDR_PS_FINAL_20180725_SDR_2K_AVC.mp4	0.0	292.3103139400482	
74	228.67370891571045	movie	1		165.0	72.0	2.5	/experiments/knapen_aot/videos/R_S_comp_A009_C001_010181A_v09_SDR_PS_FINAL_20180725_SDR_2K_AVC.mp4	0.0	292.3184218406677	2.509026050567627
74	231.18273496627808	fix_post	2		12.0	72.0	2.5	/experiments/knapen_aot/videos/R_S_comp_A009_C001_010181A_v09_SDR_PS_FINAL_20180725_SDR_2K_AVC.mp4	0.0	294.82744789123535	0.09941601753234863
75	231.28215098381042	fix_pre	0		29.0	73.0	2.5	/experiments/knapen_aot/videos/S_yt-2IfvnrF3IV0_241.mp4	0.0	294.9268639087677	0.24156785011291504
75	231.5080349445343	response	0	2		73.0	2.5	/experiments/knapen_aot/videos/S_yt-2IfvnrF3IV0_241.mp4	0.0	295.1527478694916	
75	231.52371883392334	movie	1		301.0	73.0	2.5	/experiments/knapen_aot/videos/S_yt-2IfvnrF3IV0_241.mp4	0.0	295.1684317588806	2.5087780952453613
75	234.0324969291687	fix_post	2		12.0	73.0	2.5	/experiments/knapen_aot/videos/S_yt-2IfvnrF3IV0_241.mp4	0.0	297.677209854126	0.09960699081420898
76	234.1321039199829	fix_pre	0		52.0	74.0	2.5	/experiments/knapen_aot/videos/R_S_yt-I9uf7kAccFA_229.mp4	0.0	297.7768168449402	0.4333078861236572
76	234.55715584754944	response	0	2		74.0	2.5	/experiments/knapen_aot/videos/R_S_yt-I9uf7kAccFA_229.mp4	0.0	298.2018687725067	
76	234.56541180610657	movie	1		301.0	74.0	2.5	/experiments/knapen_aot/videos/R_S_yt-I9uf7kAccFA_229.mp4	0.0	298.21012473106384	2.5083370208740234
76	237.0737488269806	fix_post	2		12.0	74.0	2.5	/experiments/knapen_aot/videos/R_S_yt-I9uf7kAccFA_229.mp4	0.0	300.71846175193787	0.10012412071228027
77	237.17387294769287	fix_pre	0		49.0	75.0	2.5	blank	1.0	300.81858587265015	0.40821099281311035
77	237.57381892204285	response	0	2		75.0	2.5	blank	1.0	301.2185318470001	
77	237.58208394050598	movie	1		301.0	75.0	2.5	blank	1.0	301.22679686546326	2.5084729194641113
77	240.0905568599701	fix_post	2		12.0	75.0	2.5	blank	1.0	303.73526978492737	0.0998830795288086
78	240.1904399394989	fix_pre	0		57.0	76.0	2.5	/experiments/knapen_aot/videos/S_yt-4qU-6TEW06E_38.mp4	0.0	303.8351528644562	0.4749338626861572
78	240.65712690353394	response	0	2		76.0	2.5	/experiments/knapen_aot/videos/S_yt-4qU-6TEW06E_38.mp4	0.0	304.3018398284912	
78	240.66537380218506	movie	1		301.0	76.0	2.5	/experiments/knapen_aot/videos/S_yt-4qU-6TEW06E_38.mp4	0.0	304.31008672714233	2.5083940029144287
78	243.1737678050995	fix_post	2		12.0	76.0	2.5	/experiments/knapen_aot/videos/S_yt-4qU-6TEW06E_38.mp4	0.0	306.81848073005676	0.10005402565002441
79	243.2738218307495	fix_pre	0		40.0	77.0	2.5	/experiments/knapen_aot/videos/R_S_yt-JG2OY_7B-gI_537.mp4	0.0	306.9185347557068	0.3331880569458008
79	243.59887385368347	response	0	2		77.0	2.5	/experiments/knapen_aot/videos/R_S_yt-JG2OY_7B-gI_537.mp4	0.0	307.24358677864075	
79	243.6070098876953	movie	1		301.0	77.0	2.5	/experiments/knapen_aot/videos/R_S_yt-JG2OY_7B-gI_537.mp4	0.0	307.2517228126526	2.5083789825439453
79	246.11538887023926	fix_post	2		12.0	77.0	2.5	/experiments/knapen_aot/videos/R_S_yt-JG2OY_7B-gI_537.mp4	0.0	309.76010179519653	0.09995508193969727
80	246.21534395217896	fix_pre	0		15.0	78.0	2.5	/experiments/knapen_aot/videos/R_S_ILSVRC2015_train_00587000.mp4	0.0	309.86005687713623	0.1249849796295166
80	246.33225679397583	response	0	2		78.0	2.5	/experiments/knapen_aot/videos/R_S_ILSVRC2015_train_00587000.mp4	0.0	309.9769697189331	
80	246.34032893180847	movie	1		301.0	78.0	2.5	/experiments/knapen_aot/videos/R_S_ILSVRC2015_train_00587000.mp4	0.0	309.98504185676575	2.5088000297546387
80	248.8491289615631	fix_post	2		12.0	78.0	2.5	/experiments/knapen_aot/videos/R_S_ILSVRC2015_train_00587000.mp4	0.0	312.4938418865204	0.099578857421875
81	248.94870781898499	fix_pre	0		33.0	79.0	2.5	/experiments/knapen_aot/videos/R_S_yt-fymgyhmYnMI_76.mp4	0.0	312.59342074394226	0.27525997161865234
81	249.21541380882263	response	0	2		79.0	2.5	/experiments/knapen_aot/videos/R_S_yt-fymgyhmYnMI_76.mp4	0.0	312.8601267337799	
81	249.22396779060364	movie	1		301.0	79.0	2.5	/experiments/knapen_aot/videos/R_S_yt-fymgyhmYnMI_76.mp4	0.0	312.8686807155609	2.508082151412964
81	251.7320499420166	fix_post	2		12.0	79.0	2.5	/experiments/knapen_aot/videos/R_S_yt-fymgyhmYnMI_76.mp4	0.0	315.3767628669739	0.09996294975280762
82	251.8320128917694	fix_pre	0		11.0	80.0	2.5	/experiments/knapen_aot/videos/R_S_yt-HMAa2QbfFPI_216.mp4	0.0	315.4767258167267	0.09159708023071289
82	251.91547679901123	response	0	2		80.0	2.5	/experiments/knapen_aot/videos/R_S_yt-HMAa2QbfFPI_216.mp4	0.0	315.5601897239685	
82	251.92360997200012	movie	1		301.0	80.0	2.5	/experiments/knapen_aot/videos/R_S_yt-HMAa2QbfFPI_216.mp4	0.0	315.5683228969574	2.508436918258667
82	254.4320468902588	fix_post	2		12.0	80.0	2.5	/experiments/knapen_aot/videos/R_S_yt-HMAa2QbfFPI_216.mp4	0.0	318.07675981521606	0.0999910831451416
83	254.53203797340393	fix_pre	0		15.0	81.0	2.5	/experiments/knapen_aot/videos/S_yt-6mRpmfIvdew_1435.mp4	0.0	318.1767508983612	0.12495589256286621
83	254.64877200126648	response	0	2		81.0	2.5	/experiments/knapen_aot/videos/S_yt-6mRpmfIvdew_1435.mp4	0.0	318.29348492622375	
83	254.6569938659668	movie	1		301.0	81.0	2.5	/experiments/knapen_aot/videos/S_yt-6mRpmfIvdew_1435.mp4	0.0	318.3017067909241	2.5086750984191895
83	257.165668964386	fix_post	2		12.0	81.0	2.5	/experiments/knapen_aot/videos/S_yt-6mRpmfIvdew_1435.mp4	0.0	320.81038188934326	0.0999460220336914
83	257.25703382492065	response	2	2		81.0	2.5	/experiments/knapen_aot/videos/S_yt-6mRpmfIvdew_1435.mp4	0.0	320.90174674987793	
84	257.2656149864197	fix_pre	0		63.0	82.0	2.5	/experiments/knapen_aot/videos/S_ILSVRC2015_train_00323000.mp4	0.0	320.91032791137695	0.524744987487793
84	257.78209686279297	response	0	2		82.0	2.5	/experiments/knapen_aot/videos/S_ILSVRC2015_train_00323000.mp4	0.0	321.42680978775024	
84	257.79035997390747	movie	1		301.0	82.0	2.5	/experiments/knapen_aot/videos/S_ILSVRC2015_train_00323000.mp4	0.0	321.43507289886475	2.5082778930664062
84	260.2986378669739	fix_post	2		12.0	82.0	2.5	/experiments/knapen_aot/videos/S_ILSVRC2015_train_00323000.mp4	0.0	323.94335079193115	0.10007596015930176
85	260.3987138271332	fix_pre	0		23.0	83.0	2.5	blank	1.0	324.04342675209045	0.19162511825561523
85	260.57454800605774	response	0	2		83.0	2.5	blank	1.0	324.219260931015	
85	260.5903389453888	movie	1		301.0	83.0	2.5	blank	1.0	324.23505187034607	2.5085039138793945
85	263.0988428592682	fix_post	2		12.0	83.0	2.5	blank	1.0	326.74355578422546	0.09991312026977539
87	263.19875597953796	stim	0		781.0					326.84346890449524	6.508251905441284
87	263.42376589775085	response	0	2						327.06847882270813	
87	264.6653928756714	response	0	2						328.31010580062866	
87	265.23208379745483	response	0	2						328.8767967224121	
87	265.39036893844604	response	0	2						329.0350818634033	
87	267.8154058456421	response	0	2						331.46011877059937	
87	269.6999158859253	response	0	space						333.34462881088257	
