trial_nr	onset	event_type	phase	response	nr_frames	movie_index	movie_duration	movie_file	blank	onset_abs	duration
0	0.1548449993133545	stim	0		36.0					94.40179204940796	0.2999250888824463
0	0.4467580318450928	response	0	space						94.6937050819397	
1	0.4547700881958008	stim	0		121.0					94.7017171382904	1.0079939365386963
1	1.3796911239624023	response	0	space						95.626638174057	
1	1.462764024734497	stim	1		120.0					95.7097110748291	1.0000801086425781
1	2.121227979660034	response	1	space						96.36817502975464	
2	2.462844133377075	fix_pre	0		8.0	0.0	2.5	/experiments/knapen_aot/videos/R_S_yt-QOnORDmVMyU_10.mp4	0.0	96.70979118347168	0.06665778160095215
2	2.5213561058044434	response	0	space		0.0	2.5	/experiments/knapen_aot/videos/R_S_yt-QOnORDmVMyU_10.mp4	0.0	96.76830315589905	
2	2.5295019149780273	movie	1		301.0	0.0	2.5	/experiments/knapen_aot/videos/R_S_yt-QOnORDmVMyU_10.mp4	0.0	96.77644896507263	2.5082850456237793
2	5.037786960601807	fix_post	2		12.0	0.0	2.5	/experiments/knapen_aot/videos/R_S_yt-QOnORDmVMyU_10.mp4	0.0	99.28473401069641	0.10004615783691406
3	5.137833118438721	fix_pre	0		46.0	1.0	2.5	/experiments/knapen_aot/videos/R_S_P005_C002_UHD_SDR_2K_AVC.mp4	0.0	99.38478016853333	0.3894178867340088
3	5.51817512512207	response	0	2		1.0	2.5	/experiments/knapen_aot/videos/R_S_P005_C002_UHD_SDR_2K_AVC.mp4	0.0	99.76512217521667	
3	5.5272510051727295	movie	1		171.0	1.0	2.5	/experiments/knapen_aot/videos/R_S_P005_C002_UHD_SDR_2K_AVC.mp4	0.0	99.77419805526733	2.502272129058838
3	8.029523134231567	fix_post	2		12.0	1.0	2.5	/experiments/knapen_aot/videos/R_S_P005_C002_UHD_SDR_2K_AVC.mp4	0.0	102.27647018432617	0.09996390342712402
4	8.129487037658691	fix_pre	0		121.0	2.0	2.5	/experiments/knapen_aot/videos/S_yt-mL3MuCfKtdY_79.mp4	0.0	102.3764340877533	1.0089030265808105
4	9.129637956619263	response	0	2		2.0	2.5	/experiments/knapen_aot/videos/S_yt-mL3MuCfKtdY_79.mp4	0.0	103.37658500671387	
4	9.138390064239502	movie	1		301.0	2.0	2.5	/experiments/knapen_aot/videos/S_yt-mL3MuCfKtdY_79.mp4	0.0	103.3853371143341	2.507750988006592
4	11.646141052246094	fix_post	2		12.0	2.0	2.5	/experiments/knapen_aot/videos/S_yt-mL3MuCfKtdY_79.mp4	0.0	105.8930881023407	0.09993696212768555
5	11.74607801437378	fix_pre	0		273.0	3.0	2.5	/experiments/knapen_aot/videos/R_S_pexels-mart-production-7279749.mp4	0.0	105.99302506446838	2.2750370502471924
5	14.01298213005066	response	0	2		3.0	2.5	/experiments/knapen_aot/videos/R_S_pexels-mart-production-7279749.mp4	0.0	108.25992918014526	
5	14.021115064620972	movie	1		164.0	3.0	2.5	/experiments/knapen_aot/videos/R_S_pexels-mart-production-7279749.mp4	0.0	108.26806211471558	2.5083959102630615
5	16.529510974884033	fix_post	2		12.0	3.0	2.5	/experiments/knapen_aot/videos/R_S_pexels-mart-production-7279749.mp4	0.0	110.77645802497864	0.09996414184570312
6	16.629475116729736	fix_pre	0		101.0	4.0	2.5	/experiments/knapen_aot/videos/R_S_yt-EvKV7iY1_HM_193.mp4	0.0	110.87642216682434	0.8421080112457275
6	17.462924003601074	response	0	2		4.0	2.5	/experiments/knapen_aot/videos/R_S_yt-EvKV7iY1_HM_193.mp4	0.0	111.70987105369568	
6	17.471583127975464	movie	1		301.0	4.0	2.5	/experiments/knapen_aot/videos/R_S_yt-EvKV7iY1_HM_193.mp4	0.0	111.71853017807007	2.5079410076141357
6	19.9795241355896	fix_post	2		12.0	4.0	2.5	/experiments/knapen_aot/videos/R_S_yt-EvKV7iY1_HM_193.mp4	0.0	114.2264711856842	0.09990096092224121
7	20.07942509651184	fix_pre	0		50.0	5.0	2.5	/experiments/knapen_aot/videos/R_S_yt-RHPOCG1mII0_138.mp4	0.0	114.32637214660645	0.41666483879089355
7	20.487879037857056	response	0	2		5.0	2.5	/experiments/knapen_aot/videos/R_S_yt-RHPOCG1mII0_138.mp4	0.0	114.73482608795166	
7	20.496089935302734	movie	1		301.0	5.0	2.5	/experiments/knapen_aot/videos/R_S_yt-RHPOCG1mII0_138.mp4	0.0	114.74303698539734	2.508378028869629
7	23.004467964172363	fix_post	2		12.0	5.0	2.5	/experiments/knapen_aot/videos/R_S_yt-RHPOCG1mII0_138.mp4	0.0	117.25141501426697	0.09997415542602539
8	23.10444211959839	fix_pre	0		57.0	6.0	2.5	blank	1.0	117.351389169693	0.4749948978424072
8	23.563694953918457	response	0	2		6.0	2.5	blank	1.0	117.81064200401306	
8	23.579437017440796	movie	1		301.0	6.0	2.5	blank	1.0	117.8263840675354	2.5082690715789795
8	26.087706089019775	fix_post	2		12.0	6.0	2.5	blank	1.0	120.33465313911438	0.10007596015930176
9	26.187782049179077	fix_pre	0		75.0	7.0	2.5	/experiments/knapen_aot/videos/R_S_production_ID_4765899.mp4	0.0	120.43472909927368	0.6249399185180664
9	26.804511070251465	response	0	2		7.0	2.5	/experiments/knapen_aot/videos/R_S_production_ID_4765899.mp4	0.0	121.05145812034607	
9	26.812721967697144	movie	1		165.0	7.0	2.5	/experiments/knapen_aot/videos/R_S_production_ID_4765899.mp4	0.0	121.05966901779175	2.508358955383301
9	29.321080923080444	fix_post	2		12.0	7.0	2.5	/experiments/knapen_aot/videos/R_S_production_ID_4765899.mp4	0.0	123.56802797317505	0.10002398490905762
10	29.421104907989502	fix_pre	0		58.0	8.0	2.5	/experiments/knapen_aot/videos/R_S_yt-BW6jWEVbxxk_4.mp4	0.0	123.6680519580841	0.4832792282104492
10	29.896170139312744	response	0	2		8.0	2.5	/experiments/knapen_aot/videos/R_S_yt-BW6jWEVbxxk_4.mp4	0.0	124.14311718940735	
10	29.90438413619995	movie	1		301.0	8.0	2.5	/experiments/knapen_aot/videos/R_S_yt-BW6jWEVbxxk_4.mp4	0.0	124.15133118629456	2.5083348751068115
10	32.41271901130676	fix_post	2		12.0	8.0	2.5	/experiments/knapen_aot/videos/R_S_yt-BW6jWEVbxxk_4.mp4	0.0	126.65966606140137	0.10001611709594727
11	32.51273512840271	fix_pre	0		64.0	9.0	2.5	/experiments/knapen_aot/videos/S_yt-GETRVzxihhM_74.mp4	0.0	126.75968217849731	0.5332667827606201
11	33.03797698020935	response	0	2		9.0	2.5	/experiments/knapen_aot/videos/S_yt-GETRVzxihhM_74.mp4	0.0	127.28492403030396	
11	33.04600191116333	movie	1		300.0	9.0	2.5	/experiments/knapen_aot/videos/S_yt-GETRVzxihhM_74.mp4	0.0	127.29294896125793	2.5083072185516357
11	35.554309129714966	fix_post	2		12.0	9.0	2.5	/experiments/knapen_aot/videos/S_yt-GETRVzxihhM_74.mp4	0.0	129.80125617980957	0.10003280639648438
12	35.65434193611145	fix_pre	0		32.0	10.0	2.5	/experiments/knapen_aot/videos/R_S_yt-t-wpKypNysg_27.mp4	0.0	129.90128898620605	0.2666630744934082
12	35.91279411315918	response	0	2		10.0	2.5	/experiments/knapen_aot/videos/R_S_yt-t-wpKypNysg_27.mp4	0.0	130.15974116325378	
12	35.92100501060486	movie	1		301.0	10.0	2.5	/experiments/knapen_aot/videos/R_S_yt-t-wpKypNysg_27.mp4	0.0	130.16795206069946	2.508333921432495
12	38.42933893203735	fix_post	2		12.0	10.0	2.5	/experiments/knapen_aot/videos/R_S_yt-t-wpKypNysg_27.mp4	0.0	132.67628598213196	0.09996700286865234
13	38.529305934906006	fix_pre	0		50.0	11.0	2.5	/experiments/knapen_aot/videos/S_pexels-tima-miroshnichenko-6077718.mp4	0.0	132.7762529850006	0.4166300296783447
13	38.93781900405884	response	0	2		11.0	2.5	/experiments/knapen_aot/videos/S_pexels-tima-miroshnichenko-6077718.mp4	0.0	133.18476605415344	
13	38.94593596458435	movie	1		166.0	11.0	2.5	/experiments/knapen_aot/videos/S_pexels-tima-miroshnichenko-6077718.mp4	0.0	133.19288301467896	2.5083680152893066
13	41.45430397987366	fix_post	2		12.0	11.0	2.5	/experiments/knapen_aot/videos/S_pexels-tima-miroshnichenko-6077718.mp4	0.0	135.70125102996826	0.10045409202575684
14	41.554758071899414	fix_pre	0		26.0	12.0	2.5	blank	1.0	135.80170512199402	0.21618294715881348
14	41.76285195350647	response	0	2		12.0	2.5	blank	1.0	136.00979900360107	
14	41.77094101905823	movie	1		301.0	12.0	2.5	blank	1.0	136.01788806915283	2.508349895477295
14	44.27929091453552	fix_post	2		12.0	12.0	2.5	blank	1.0	138.52623796463013	0.10009312629699707
15	44.37938404083252	fix_pre	0		64.0	13.0	2.5	/experiments/knapen_aot/videos/S_yt-9qXwehMoX7o_50.mp4	0.0	138.62633109092712	0.533289909362793
15	44.90433406829834	response	0	2		13.0	2.5	/experiments/knapen_aot/videos/S_yt-9qXwehMoX7o_50.mp4	0.0	139.15128111839294	
15	44.91267395019531	movie	1		301.0	13.0	2.5	/experiments/knapen_aot/videos/S_yt-9qXwehMoX7o_50.mp4	0.0	139.15962100028992	2.508287191390991
15	47.420961141586304	fix_post	2		12.0	13.0	2.5	/experiments/knapen_aot/videos/S_yt-9qXwehMoX7o_50.mp4	0.0	141.6679081916809	0.10003995895385742
16	47.52100110054016	fix_pre	0		48.0	14.0	2.5	/experiments/knapen_aot/videos/S_yt-YyKEeu2gLrI_158.mp4	0.0	141.76794815063477	0.4000828266143799
16	47.91278004646301	response	0	2		14.0	2.5	/experiments/knapen_aot/videos/S_yt-YyKEeu2gLrI_158.mp4	0.0	142.15972709655762	
16	47.92108392715454	movie	1		301.0	14.0	2.5	/experiments/knapen_aot/videos/S_yt-YyKEeu2gLrI_158.mp4	0.0	142.16803097724915	2.508174180984497
16	50.42925810813904	fix_post	2		12.0	14.0	2.5	/experiments/knapen_aot/videos/S_yt-YyKEeu2gLrI_158.mp4	0.0	144.67620515823364	0.09994792938232422
17	50.52920603752136	fix_pre	0		49.0	15.0	2.5	/experiments/knapen_aot/videos/S_yt-EvKV7iY1_HM_193.mp4	0.0	144.77615308761597	0.4083728790283203
17	50.9294331073761	response	0	2		15.0	2.5	/experiments/knapen_aot/videos/S_yt-EvKV7iY1_HM_193.mp4	0.0	145.1763801574707	
17	50.93757891654968	movie	1		301.0	15.0	2.5	/experiments/knapen_aot/videos/S_yt-EvKV7iY1_HM_193.mp4	0.0	145.1845259666443	2.5083911418914795
17	53.44597005844116	fix_post	2		12.0	15.0	2.5	/experiments/knapen_aot/videos/S_yt-EvKV7iY1_HM_193.mp4	0.0	147.69291710853577	0.09999585151672363
18	53.545965909957886	fix_pre	0		47.0	16.0	2.5	/experiments/knapen_aot/videos/S_ILSVRC2015_train_00457000.mp4	0.0	147.7929129600525	0.391618013381958
18	53.92943596839905	response	0	2		16.0	2.5	/experiments/knapen_aot/videos/S_ILSVRC2015_train_00457000.mp4	0.0	148.17638301849365	
18	53.937583923339844	movie	1		301.0	16.0	2.5	/experiments/knapen_aot/videos/S_ILSVRC2015_train_00457000.mp4	0.0	148.18453097343445	2.508392095565796
18	56.44597601890564	fix_post	2		12.0	16.0	2.5	/experiments/knapen_aot/videos/S_ILSVRC2015_train_00457000.mp4	0.0	150.69292306900024	0.10001611709594727
19	56.54599213600159	fix_pre	0		40.0	17.0	2.5	/experiments/knapen_aot/videos/S_ILSVRC2015_train_00405000.mp4	0.0	150.7929391860962	0.33331298828125
19	56.87114095687866	response	0	2		17.0	2.5	/experiments/knapen_aot/videos/S_ILSVRC2015_train_00405000.mp4	0.0	151.11808800697327	
19	56.87930512428284	movie	1		301.0	17.0	2.5	/experiments/knapen_aot/videos/S_ILSVRC2015_train_00405000.mp4	0.0	151.12625217437744	2.5086169242858887
19	59.387922048568726	fix_post	2		12.0	17.0	2.5	/experiments/knapen_aot/videos/S_ILSVRC2015_train_00405000.mp4	0.0	153.63486909866333	0.0997169017791748
20	59.4876389503479	fix_pre	0		22.0	18.0	2.5	/experiments/knapen_aot/videos/S_yt-9CUR6mjzaiY_85.mp4	0.0	153.7345860004425	0.18330001831054688
20	59.662769079208374	response	0	2		18.0	2.5	/experiments/knapen_aot/videos/S_yt-9CUR6mjzaiY_85.mp4	0.0	153.90971612930298	
20	59.67093896865845	movie	1		299.0	18.0	2.5	/experiments/knapen_aot/videos/S_yt-9CUR6mjzaiY_85.mp4	0.0	153.91788601875305	2.5082931518554688
20	62.179232120513916	fix_post	2		12.0	18.0	2.5	/experiments/knapen_aot/videos/S_yt-9CUR6mjzaiY_85.mp4	0.0	156.42617917060852	0.10009598731994629
21	62.27932810783386	fix_pre	0		24.0	19.0	2.5	/experiments/knapen_aot/videos/S_pexels-mikhail-nilov-8410063.mp4	0.0	156.52627515792847	0.19989585876464844
21	62.46359300613403	response	0	2		19.0	2.5	/experiments/knapen_aot/videos/S_pexels-mikhail-nilov-8410063.mp4	0.0	156.71054005622864	
21	62.47922396659851	movie	1		163.0	19.0	2.5	/experiments/knapen_aot/videos/S_pexels-mikhail-nilov-8410063.mp4	0.0	156.72617101669312	2.508357048034668
21	64.98758101463318	fix_post	2		12.0	19.0	2.5	/experiments/knapen_aot/videos/S_pexels-mikhail-nilov-8410063.mp4	0.0	159.23452806472778	0.09990692138671875
22	65.0874879360199	fix_pre	0		81.0	20.0	2.5	/experiments/knapen_aot/videos/S_Pz_NXxhQCJc_70.mp4	0.0	159.3344349861145	0.6753120422363281
22	65.74685096740723	response	0	2		20.0	2.5	/experiments/knapen_aot/videos/S_Pz_NXxhQCJc_70.mp4	0.0	159.99379801750183	
22	65.76279997825623	movie	1		301.0	20.0	2.5	/experiments/knapen_aot/videos/S_Pz_NXxhQCJc_70.mp4	0.0	160.00974702835083	2.508033037185669
22	68.2708330154419	fix_post	2		12.0	20.0	2.5	/experiments/knapen_aot/videos/S_Pz_NXxhQCJc_70.mp4	0.0	162.5177800655365	0.10004711151123047
23	68.37088012695312	fix_pre	0		50.0	21.0	2.5	blank	1.0	162.61782717704773	0.4165799617767334
23	68.77933692932129	response	0	2		21.0	2.5	blank	1.0	163.0262839794159	
23	68.78746008872986	movie	1		301.0	21.0	2.5	blank	1.0	163.03440713882446	2.5083348751068115
23	71.29579496383667	fix_post	2		12.0	21.0	2.5	blank	1.0	165.54274201393127	0.10005617141723633
24	71.3958511352539	fix_pre	0		61.0	22.0	2.5	/experiments/knapen_aot/videos/R_S_yt-7Z6Kmp0n7L8_145.mp4	0.0	165.6427981853485	0.5083019733428955
24	71.89596796035767	response	0	2		22.0	2.5	/experiments/knapen_aot/videos/R_S_yt-7Z6Kmp0n7L8_145.mp4	0.0	166.14291501045227	
24	71.9041531085968	movie	1		301.0	22.0	2.5	/experiments/knapen_aot/videos/R_S_yt-7Z6Kmp0n7L8_145.mp4	0.0	166.1511001586914	2.5083518028259277
24	74.41250491142273	fix_post	2		12.0	22.0	2.5	/experiments/knapen_aot/videos/R_S_yt-7Z6Kmp0n7L8_145.mp4	0.0	168.65945196151733	0.10021018981933594
25	74.51271510124207	fix_pre	0		77.0	23.0	2.5	/experiments/knapen_aot/videos/R_S_yt-26009GpQuUg_3.mp4	0.0	168.75966215133667	0.6414148807525635
25	75.14593005180359	response	0	2		23.0	2.5	/experiments/knapen_aot/videos/R_S_yt-26009GpQuUg_3.mp4	0.0	169.3928771018982	
25	75.15412998199463	movie	1		300.0	23.0	2.5	/experiments/knapen_aot/videos/R_S_yt-26009GpQuUg_3.mp4	0.0	169.40107703208923	2.508371114730835
25	77.66250109672546	fix_post	2		12.0	23.0	2.5	/experiments/knapen_aot/videos/R_S_yt-26009GpQuUg_3.mp4	0.0	171.90944814682007	0.10014796257019043
26	77.76264905929565	fix_pre	0		52.0	24.0	2.5	/experiments/knapen_aot/videos/R_S_production_ID_3709168.mp4	0.0	172.00959610939026	0.43327903747558594
26	78.18763208389282	response	0	2		24.0	2.5	/experiments/knapen_aot/videos/R_S_production_ID_3709168.mp4	0.0	172.43457913398743	
26	78.19592809677124	movie	1		207.0	24.0	2.5	/experiments/knapen_aot/videos/R_S_production_ID_3709168.mp4	0.0	172.44287514686584	2.508255958557129
26	80.70418405532837	fix_post	2		12.0	24.0	2.5	/experiments/knapen_aot/videos/R_S_production_ID_3709168.mp4	0.0	174.95113110542297	0.10013985633850098
27	80.80432391166687	fix_pre	0		54.0	25.0	2.5	/experiments/knapen_aot/videos/R_S_yt-zh2yLr-o_8A_953.mp4	0.0	175.05127096176147	0.4514000415802002
27	81.24603295326233	response	0	2		25.0	2.5	/experiments/knapen_aot/videos/R_S_yt-zh2yLr-o_8A_953.mp4	0.0	175.49298000335693	
27	81.25572395324707	movie	1		300.0	25.0	2.5	/experiments/knapen_aot/videos/R_S_yt-zh2yLr-o_8A_953.mp4	0.0	175.50267100334167	2.5069069862365723
27	83.76263093948364	fix_post	2		12.0	25.0	2.5	/experiments/knapen_aot/videos/R_S_yt-zh2yLr-o_8A_953.mp4	0.0	178.00957798957825	0.09986019134521484
28	83.86249113082886	fix_pre	0		43.0	26.0	2.5	blank	1.0	178.10943818092346	0.35850000381469727
28	84.21266007423401	response	0	2		26.0	2.5	blank	1.0	178.4596071243286	
28	84.22099113464355	movie	1		301.0	26.0	2.5	blank	1.0	178.46793818473816	2.5082178115844727
28	86.72920894622803	fix_post	2		12.0	26.0	2.5	blank	1.0	180.97615599632263	0.10009598731994629
29	86.82930493354797	fix_pre	0		61.0	27.0	2.5	/experiments/knapen_aot/videos/R_S_yt-GETRVzxihhM_74.mp4	0.0	181.07625198364258	0.5081892013549805
29	87.32921600341797	response	0	2		27.0	2.5	/experiments/knapen_aot/videos/R_S_yt-GETRVzxihhM_74.mp4	0.0	181.57616305351257	
29	87.33749413490295	movie	1		301.0	27.0	2.5	/experiments/knapen_aot/videos/R_S_yt-GETRVzxihhM_74.mp4	0.0	181.58444118499756	2.508427858352661
29	89.84592199325562	fix_post	2		12.0	27.0	2.5	/experiments/knapen_aot/videos/R_S_yt-GETRVzxihhM_74.mp4	0.0	184.09286904335022	0.09992599487304688
30	89.94584798812866	fix_pre	0		124.0	28.0	2.5	/experiments/knapen_aot/videos/R_S_yt-qYuLW5vSotM_160.mp4	0.0	184.19279503822327	1.0332279205322266
30	90.97094202041626	response	0	2		28.0	2.5	/experiments/knapen_aot/videos/R_S_yt-qYuLW5vSotM_160.mp4	0.0	185.21788907051086	
30	90.97907590866089	movie	1		301.0	28.0	2.5	/experiments/knapen_aot/videos/R_S_yt-qYuLW5vSotM_160.mp4	0.0	185.2260229587555	2.5083820819854736
30	93.48745799064636	fix_post	2		12.0	28.0	2.5	/experiments/knapen_aot/videos/R_S_yt-qYuLW5vSotM_160.mp4	0.0	187.73440504074097	0.10003304481506348
31	93.58749103546143	fix_pre	0		77.0	29.0	2.5	/experiments/knapen_aot/videos/S_ILSVRC2015_train_00547001.mp4	0.0	187.83443808555603	0.641618013381958
31	94.22088313102722	response	0	2		29.0	2.5	/experiments/knapen_aot/videos/S_ILSVRC2015_train_00547001.mp4	0.0	188.46783018112183	
31	94.22910904884338	movie	1		299.0	29.0	2.5	/experiments/knapen_aot/videos/S_ILSVRC2015_train_00547001.mp4	0.0	188.476056098938	2.508305072784424
31	96.73741412162781	fix_post	2		12.0	29.0	2.5	/experiments/knapen_aot/videos/S_ILSVRC2015_train_00547001.mp4	0.0	190.9843611717224	0.09996986389160156
32	96.83738398551941	fix_pre	0		73.0	30.0	2.5	/experiments/knapen_aot/videos/R_S_ILSVRC2015_train_00652001.mp4	0.0	191.084331035614	0.6083540916442871
32	97.43756794929504	response	0	2		30.0	2.5	/experiments/knapen_aot/videos/R_S_ILSVRC2015_train_00652001.mp4	0.0	191.68451499938965	
32	97.4457380771637	movie	1		301.0	30.0	2.5	/experiments/knapen_aot/videos/R_S_ILSVRC2015_train_00652001.mp4	0.0	191.6926851272583	2.508241891860962
32	99.95397996902466	fix_post	2		12.0	30.0	2.5	/experiments/knapen_aot/videos/R_S_ILSVRC2015_train_00652001.mp4	0.0	194.20092701911926	0.10016202926635742
33	100.05414199829102	fix_pre	0		69.0	31.0	2.5	/experiments/knapen_aot/videos/R_S_yt-IlW1U39Dga4_5.mp4	0.0	194.30108904838562	0.5748729705810547
33	100.62090492248535	response	0	2		31.0	2.5	/experiments/knapen_aot/videos/R_S_yt-IlW1U39Dga4_5.mp4	0.0	194.86785197257996	
33	100.62901496887207	movie	1		301.0	31.0	2.5	/experiments/knapen_aot/videos/R_S_yt-IlW1U39Dga4_5.mp4	0.0	194.87596201896667	2.508450984954834
33	103.1374659538269	fix_post	2		12.0	31.0	2.5	/experiments/knapen_aot/videos/R_S_yt-IlW1U39Dga4_5.mp4	0.0	197.3844130039215	0.09987807273864746
34	103.23734402656555	fix_pre	0		61.0	32.0	2.5	/experiments/knapen_aot/videos/R_S_yt-0xzYSBvVfYM_197.mp4	0.0	197.48429107666016	0.5082941055297852
34	103.73753094673157	response	0	2		32.0	2.5	/experiments/knapen_aot/videos/R_S_yt-0xzYSBvVfYM_197.mp4	0.0	197.98447799682617	
34	103.74563813209534	movie	1		301.0	32.0	2.5	/experiments/knapen_aot/videos/R_S_yt-0xzYSBvVfYM_197.mp4	0.0	197.99258518218994	2.5083179473876953
34	106.25395607948303	fix_post	2		12.0	32.0	2.5	/experiments/knapen_aot/videos/R_S_yt-0xzYSBvVfYM_197.mp4	0.0	200.50090312957764	0.10012102127075195
35	106.35407710075378	fix_pre	0		34.0	33.0	2.5	/experiments/knapen_aot/videos/S_production_ID_3709168.mp4	0.0	200.6010241508484	0.2833428382873535
35	106.62920904159546	response	0	2		33.0	2.5	/experiments/knapen_aot/videos/S_production_ID_3709168.mp4	0.0	200.87615609169006	
35	106.63741993904114	movie	1		193.0	33.0	2.5	/experiments/knapen_aot/videos/S_production_ID_3709168.mp4	0.0	200.88436698913574	2.508305072784424
35	109.14572501182556	fix_post	2		12.0	33.0	2.5	/experiments/knapen_aot/videos/S_production_ID_3709168.mp4	0.0	203.39267206192017	0.10000395774841309
36	109.24572896957397	fix_pre	0		40.0	34.0	2.5	blank	1.0	203.49267601966858	0.3332631587982178
36	109.57081508636475	response	0	2		34.0	2.5	blank	1.0	203.81776213645935	
36	109.57899212837219	movie	1		301.0	34.0	2.5	blank	1.0	203.8259391784668	2.5083539485931396
36	112.08734607696533	fix_post	2		12.0	34.0	2.5	blank	1.0	206.33429312705994	0.10001993179321289
37	112.18736600875854	fix_pre	0		56.0	35.0	2.5	/experiments/knapen_aot/videos/R_S_yt-MEfljVFL0xw_375.mp4	0.0	206.43431305885315	0.46665096282958984
37	112.64586400985718	response	0	2		35.0	2.5	/experiments/knapen_aot/videos/R_S_yt-MEfljVFL0xw_375.mp4	0.0	206.89281105995178	
37	112.65401697158813	movie	1		297.0	35.0	2.5	/experiments/knapen_aot/videos/R_S_yt-MEfljVFL0xw_375.mp4	0.0	206.90096402168274	2.508303165435791
37	115.16232013702393	fix_post	2		12.0	35.0	2.5	/experiments/knapen_aot/videos/R_S_yt-MEfljVFL0xw_375.mp4	0.0	209.40926718711853	0.10008597373962402
38	115.26240611076355	fix_pre	0		60.0	36.0	2.5	/experiments/knapen_aot/videos/S_Pz_NXxhQCJc_70.mp4	0.0	209.50935316085815	0.49987292289733887
38	115.75415897369385	response	0	2		36.0	2.5	/experiments/knapen_aot/videos/S_Pz_NXxhQCJc_70.mp4	0.0	210.00110602378845	
38	115.76227903366089	movie	1		301.0	36.0	2.5	/experiments/knapen_aot/videos/S_Pz_NXxhQCJc_70.mp4	0.0	210.0092260837555	2.5083770751953125
38	118.2706561088562	fix_post	2		12.0	36.0	2.5	/experiments/knapen_aot/videos/S_Pz_NXxhQCJc_70.mp4	0.0	212.5176031589508	0.09999799728393555
39	118.37065410614014	fix_pre	0		106.0	37.0	2.5	/experiments/knapen_aot/videos/S_production_ID_4707837.mp4	0.0	212.61760115623474	0.8833098411560059
39	119.2457480430603	response	0	2		37.0	2.5	/experiments/knapen_aot/videos/S_production_ID_4707837.mp4	0.0	213.4926950931549	
39	119.25396394729614	movie	1		165.0	37.0	2.5	/experiments/knapen_aot/videos/S_production_ID_4707837.mp4	0.0	213.50091099739075	2.5083670616149902
39	121.76233100891113	fix_post	2		12.0	37.0	2.5	/experiments/knapen_aot/videos/S_production_ID_4707837.mp4	0.0	216.00927805900574	0.10001802444458008
40	121.86234903335571	fix_pre	0		50.0	38.0	2.5	/experiments/knapen_aot/videos/R_S_yt-JGKdBO2Ldzo_93.mp4	0.0	216.10929608345032	0.4165918827056885
40	122.2707359790802	response	0	2		38.0	2.5	/experiments/knapen_aot/videos/R_S_yt-JGKdBO2Ldzo_93.mp4	0.0	216.5176830291748	
40	122.2789409160614	movie	1		301.0	38.0	2.5	/experiments/knapen_aot/videos/R_S_yt-JGKdBO2Ldzo_93.mp4	0.0	216.525887966156	2.508376121520996
40	124.7873170375824	fix_post	2		12.0	38.0	2.5	/experiments/knapen_aot/videos/R_S_yt-JGKdBO2Ldzo_93.mp4	0.0	219.034264087677	0.09997892379760742
41	124.88729596138	fix_pre	0		60.0	39.0	2.5	/experiments/knapen_aot/videos/S_yt-1H8sfkZGZK8_3.mp4	0.0	219.1342430114746	0.4999101161956787
41	125.37914299964905	response	0	2		39.0	2.5	/experiments/knapen_aot/videos/S_yt-1H8sfkZGZK8_3.mp4	0.0	219.62609004974365	
41	125.38720607757568	movie	1		299.0	39.0	2.5	/experiments/knapen_aot/videos/S_yt-1H8sfkZGZK8_3.mp4	0.0	219.6341531276703	2.508420944213867
41	127.89562702178955	fix_post	2		12.0	39.0	2.5	/experiments/knapen_aot/videos/S_yt-1H8sfkZGZK8_3.mp4	0.0	222.14257407188416	0.10005807876586914
42	127.99568510055542	fix_pre	0		49.0	40.0	2.5	blank	1.0	222.24263215065002	0.40832090377807617
42	128.3958261013031	response	0	2		40.0	2.5	blank	1.0	222.6427731513977	
42	128.4040060043335	movie	1		301.0	40.0	2.5	blank	1.0	222.6509530544281	2.5083401203155518
42	130.91234612464905	fix_post	2		12.0	40.0	2.5	blank	1.0	225.15929317474365	0.09999299049377441
43	131.01233911514282	fix_pre	0		30.0	41.0	2.5	/experiments/knapen_aot/videos/R_S_ILSVRC2015_train_00457000.mp4	0.0	225.25928616523743	0.24996685981750488
43	131.2541220188141	response	0	2		41.0	2.5	/experiments/knapen_aot/videos/R_S_ILSVRC2015_train_00457000.mp4	0.0	225.5010690689087	
43	131.26230597496033	movie	1		301.0	41.0	2.5	/experiments/knapen_aot/videos/R_S_ILSVRC2015_train_00457000.mp4	0.0	225.50925302505493	2.508329153060913
43	133.77063512802124	fix_post	2		12.0	41.0	2.5	/experiments/knapen_aot/videos/R_S_ILSVRC2015_train_00457000.mp4	0.0	228.01758217811584	0.09999990463256836
44	133.8706350326538	fix_pre	0		66.0	42.0	2.5	/experiments/knapen_aot/videos/R_S_flickr-clarkstonscamp-4863427159_1.mp4	0.0	228.1175820827484	0.5512990951538086
44	134.41245698928833	response	0	2		42.0	2.5	/experiments/knapen_aot/videos/R_S_flickr-clarkstonscamp-4863427159_1.mp4	0.0	228.65940403938293	
44	134.42193412780762	movie	1		301.0	42.0	2.5	/experiments/knapen_aot/videos/R_S_flickr-clarkstonscamp-4863427159_1.mp4	0.0	228.66888117790222	2.507070779800415
44	136.92900490760803	fix_post	2		12.0	42.0	2.5	/experiments/knapen_aot/videos/R_S_flickr-clarkstonscamp-4863427159_1.mp4	0.0	231.17595195770264	0.09997010231018066
45	137.0289750099182	fix_pre	0		89.0	43.0	2.5	/experiments/knapen_aot/videos/R_S_yt-N1ZrWT4xyzc_85.mp4	0.0	231.27592206001282	0.7416191101074219
45	137.7624409198761	response	0	2		43.0	2.5	/experiments/knapen_aot/videos/R_S_yt-N1ZrWT4xyzc_85.mp4	0.0	232.0093879699707	
45	137.77059412002563	movie	1		299.0	43.0	2.5	/experiments/knapen_aot/videos/R_S_yt-N1ZrWT4xyzc_85.mp4	0.0	232.01754117012024	2.5082929134368896
45	140.27888703346252	fix_post	2		12.0	43.0	2.5	/experiments/knapen_aot/videos/R_S_yt-N1ZrWT4xyzc_85.mp4	0.0	234.52583408355713	0.09998893737792969
46	140.37887597084045	fix_pre	0		37.0	44.0	2.5	/experiments/knapen_aot/videos/S_yt-alGXD2Drh_g_19.mp4	0.0	234.62582302093506	0.3083169460296631
46	140.6790270805359	response	0	2		44.0	2.5	/experiments/knapen_aot/videos/S_yt-alGXD2Drh_g_19.mp4	0.0	234.9259741306305	
46	140.68719291687012	movie	1		301.0	44.0	2.5	/experiments/knapen_aot/videos/S_yt-alGXD2Drh_g_19.mp4	0.0	234.93413996696472	2.508355140686035
46	143.19554805755615	fix_post	2		12.0	44.0	2.5	/experiments/knapen_aot/videos/S_yt-alGXD2Drh_g_19.mp4	0.0	237.44249510765076	0.09999489784240723
47	143.29554295539856	fix_pre	0		60.0	45.0	2.5	/experiments/knapen_aot/videos/R_S_yt-YlA-FPDylDE_100.mp4	0.0	237.54249000549316	0.5011930465698242
47	143.7874300479889	response	0	2		45.0	2.5	/experiments/knapen_aot/videos/R_S_yt-YlA-FPDylDE_100.mp4	0.0	238.0343770980835	
47	143.79673600196838	movie	1		301.0	45.0	2.5	/experiments/knapen_aot/videos/R_S_yt-YlA-FPDylDE_100.mp4	0.0	238.043683052063	2.507117986679077
47	146.30385398864746	fix_post	2		12.0	45.0	2.5	/experiments/knapen_aot/videos/R_S_yt-YlA-FPDylDE_100.mp4	0.0	240.55080103874207	0.10000991821289062
48	146.40386390686035	fix_pre	0		73.0	46.0	2.5	/experiments/knapen_aot/videos/R_S_yt-VTNBCfQxnsk_59.mp4	0.0	240.65081095695496	0.6082911491394043
48	146.99643993377686	response	0	2		46.0	2.5	/experiments/knapen_aot/videos/R_S_yt-VTNBCfQxnsk_59.mp4	0.0	241.24338698387146	
48	147.01215505599976	movie	1		301.0	46.0	2.5	/experiments/knapen_aot/videos/R_S_yt-VTNBCfQxnsk_59.mp4	0.0	241.25910210609436	2.5083909034729004
48	149.52054595947266	fix_post	2		12.0	46.0	2.5	/experiments/knapen_aot/videos/R_S_yt-VTNBCfQxnsk_59.mp4	0.0	243.76749300956726	0.09994912147521973
49	149.62049508094788	fix_pre	0		91.0	47.0	2.5	/experiments/knapen_aot/videos/S_9smWynsk6sI_158.mp4	0.0	243.86744213104248	0.7595539093017578
49	150.370609998703	response	0	2		47.0	2.5	/experiments/knapen_aot/videos/S_9smWynsk6sI_158.mp4	0.0	244.6175570487976	
49	150.38004899024963	movie	1		300.0	47.0	2.5	/experiments/knapen_aot/videos/S_9smWynsk6sI_158.mp4	0.0	244.62699604034424	2.5071940422058105
49	152.88724303245544	fix_post	2		12.0	47.0	2.5	/experiments/knapen_aot/videos/S_9smWynsk6sI_158.mp4	0.0	247.13419008255005	0.10003304481506348
50	152.9872760772705	fix_pre	0		186.0	48.0	2.5	/experiments/knapen_aot/videos/S_SPNvf6JCjGw_123.mp4	0.0	247.2342231273651	1.5499348640441895
50	154.52893495559692	response	0	2		48.0	2.5	/experiments/knapen_aot/videos/S_SPNvf6JCjGw_123.mp4	0.0	248.77588200569153	
50	154.5372109413147	movie	1		301.0	48.0	2.5	/experiments/knapen_aot/videos/S_SPNvf6JCjGw_123.mp4	0.0	248.7841579914093	2.5082921981811523
50	157.04550313949585	fix_post	2		12.0	48.0	2.5	/experiments/knapen_aot/videos/S_SPNvf6JCjGw_123.mp4	0.0	251.29245018959045	0.09995698928833008
51	157.14546012878418	fix_pre	0		65.0	49.0	2.5	blank	1.0	251.39240717887878	0.5417308807373047
51	157.6717119216919	response	0	2		49.0	2.5	blank	1.0	251.9186589717865	
51	157.68719100952148	movie	1		301.0	49.0	2.5	blank	1.0	251.9341380596161	2.5083189010620117
51	160.1955099105835	fix_post	2		12.0	49.0	2.5	blank	1.0	254.4424569606781	0.09996318817138672
52	160.29547309875488	fix_pre	0		54.0	50.0	2.5	/experiments/knapen_aot/videos/R_S_yt-y-boY803u9A_12.mp4	0.0	254.5424201488495	0.4500448703765869
52	160.73726201057434	response	0	2		50.0	2.5	/experiments/knapen_aot/videos/R_S_yt-y-boY803u9A_12.mp4	0.0	254.98420906066895	
52	160.74551796913147	movie	1		300.0	50.0	2.5	/experiments/knapen_aot/videos/R_S_yt-y-boY803u9A_12.mp4	0.0	254.99246501922607	2.5083060264587402
52	163.2538239955902	fix_post	2		12.0	50.0	2.5	/experiments/knapen_aot/videos/R_S_yt-y-boY803u9A_12.mp4	0.0	257.5007710456848	0.09992003440856934
53	163.35374402999878	fix_pre	0		80.0	51.0	2.5	/experiments/knapen_aot/videos/R_S_yt-fjOsq03OC2c_188.mp4	0.0	257.6006910800934	0.666672945022583
53	164.0122630596161	response	0	2		51.0	2.5	/experiments/knapen_aot/videos/R_S_yt-fjOsq03OC2c_188.mp4	0.0	258.2592101097107	
53	164.02041697502136	movie	1		301.0	51.0	2.5	/experiments/knapen_aot/videos/R_S_yt-fjOsq03OC2c_188.mp4	0.0	258.26736402511597	2.508388042449951
53	166.5288050174713	fix_post	2		12.0	51.0	2.5	/experiments/knapen_aot/videos/R_S_yt-fjOsq03OC2c_188.mp4	0.0	260.7757520675659	0.10002493858337402
54	166.6288299560547	fix_pre	0		55.0	52.0	2.5	/experiments/knapen_aot/videos/S_yt-074ygGXNoQ8_64.mp4	0.0	260.8757770061493	0.4593930244445801
54	167.07892394065857	response	0	2		52.0	2.5	/experiments/knapen_aot/videos/S_yt-074ygGXNoQ8_64.mp4	0.0	261.3258709907532	
54	167.08822298049927	movie	1		301.0	52.0	2.5	/experiments/knapen_aot/videos/S_yt-074ygGXNoQ8_64.mp4	0.0	261.3351700305939	2.507230043411255
54	169.59545302391052	fix_post	2		12.0	52.0	2.5	/experiments/knapen_aot/videos/S_yt-074ygGXNoQ8_64.mp4	0.0	263.8424000740051	0.09996390342712402
55	169.69541692733765	fix_pre	0		40.0	53.0	2.5	/experiments/knapen_aot/videos/R_S_yt-KLInd-KrK_w_19.mp4	0.0	263.94236397743225	0.33333516120910645
55	170.0206160545349	response	0	2		53.0	2.5	/experiments/knapen_aot/videos/R_S_yt-KLInd-KrK_w_19.mp4	0.0	264.2675631046295	
55	170.02875208854675	movie	1		301.0	53.0	2.5	/experiments/knapen_aot/videos/R_S_yt-KLInd-KrK_w_19.mp4	0.0	264.27569913864136	2.508314847946167
55	172.53706693649292	fix_post	2		12.0	53.0	2.5	/experiments/knapen_aot/videos/R_S_yt-KLInd-KrK_w_19.mp4	0.0	266.7840139865875	0.10007715225219727
56	172.63714408874512	fix_pre	0		51.0	54.0	2.5	blank	1.0	266.8840911388397	0.42494797706604004
56	173.0539150238037	response	0	2		54.0	2.5	blank	1.0	267.3008620738983	
56	173.06209206581116	movie	1		301.0	54.0	2.5	blank	1.0	267.30903911590576	2.508331060409546
56	175.5704231262207	fix_post	2		12.0	54.0	2.5	blank	1.0	269.8173701763153	0.10004186630249023
57	175.6704649925232	fix_pre	0		50.0	55.0	2.5	/experiments/knapen_aot/videos/R_S_ILSVRC2015_train_00547001.mp4	0.0	269.9174120426178	0.41768503189086914
57	176.07149600982666	response	0	2		55.0	2.5	/experiments/knapen_aot/videos/R_S_ILSVRC2015_train_00547001.mp4	0.0	270.31844305992126	
57	176.08815002441406	movie	1		301.0	55.0	2.5	/experiments/knapen_aot/videos/R_S_ILSVRC2015_train_00547001.mp4	0.0	270.33509707450867	2.507244110107422
57	178.59539413452148	fix_post	2		12.0	55.0	2.5	/experiments/knapen_aot/videos/R_S_ILSVRC2015_train_00547001.mp4	0.0	272.8423411846161	0.10007095336914062
58	178.69546508789062	fix_pre	0		39.0	56.0	2.5	/experiments/knapen_aot/videos/R_S_yt-RKo978aBdzw_173.mp4	0.0	272.94241213798523	0.3249208927154541
58	179.01221990585327	response	0	2		56.0	2.5	/experiments/knapen_aot/videos/R_S_yt-RKo978aBdzw_173.mp4	0.0	273.2591669559479	
58	179.02038598060608	movie	1		301.0	56.0	2.5	/experiments/knapen_aot/videos/R_S_yt-RKo978aBdzw_173.mp4	0.0	273.2673330307007	2.5083611011505127
58	181.5287470817566	fix_post	2		12.0	56.0	2.5	/experiments/knapen_aot/videos/R_S_yt-RKo978aBdzw_173.mp4	0.0	275.7756941318512	0.09998798370361328
59	181.6287350654602	fix_pre	0		47.0	57.0	2.5	/experiments/knapen_aot/videos/R_S_production_ID_4802716.mp4	0.0	275.8756821155548	0.3915669918060303
59	182.0122151374817	response	0	2		57.0	2.5	/experiments/knapen_aot/videos/R_S_production_ID_4802716.mp4	0.0	276.2591621875763	
59	182.02030205726624	movie	1		163.0	57.0	2.5	/experiments/knapen_aot/videos/R_S_production_ID_4802716.mp4	0.0	276.26724910736084	2.508375883102417
59	184.52867794036865	fix_post	2		12.0	57.0	2.5	/experiments/knapen_aot/videos/R_S_production_ID_4802716.mp4	0.0	278.77562499046326	0.09999203681945801
60	184.6286699771881	fix_pre	0		47.0	58.0	2.5	/experiments/knapen_aot/videos/R_S_ILSVRC2015_train_00446000.mp4	0.0	278.8756170272827	0.39165306091308594
60	185.01214814186096	response	0	2		58.0	2.5	/experiments/knapen_aot/videos/R_S_ILSVRC2015_train_00446000.mp4	0.0	279.25909519195557	
60	185.0203230381012	movie	1		301.0	58.0	2.5	/experiments/knapen_aot/videos/R_S_ILSVRC2015_train_00446000.mp4	0.0	279.2672700881958	2.5083529949188232
60	187.52867603302002	fix_post	2		12.0	58.0	2.5	/experiments/knapen_aot/videos/R_S_ILSVRC2015_train_00446000.mp4	0.0	281.7756230831146	0.10001707077026367
61	187.62869310379028	fix_pre	0		27.0	59.0	2.5	/experiments/knapen_aot/videos/R_S_yt-6aqg1P9YqR8_38.mp4	0.0	281.8756401538849	0.22498297691345215
61	187.84563302993774	response	0	2		59.0	2.5	/experiments/knapen_aot/videos/R_S_yt-6aqg1P9YqR8_38.mp4	0.0	282.09258008003235	
61	187.85367608070374	movie	1		301.0	59.0	2.5	/experiments/knapen_aot/videos/R_S_yt-6aqg1P9YqR8_38.mp4	0.0	282.10062313079834	2.5083210468292236
61	190.36199712753296	fix_post	2		12.0	59.0	2.5	/experiments/knapen_aot/videos/R_S_yt-6aqg1P9YqR8_38.mp4	0.0	284.60894417762756	0.09998297691345215
62	190.4619801044464	fix_pre	0		48.0	60.0	2.5	/experiments/knapen_aot/videos/S_ILSVRC2015_train_00415007.mp4	0.0	284.708927154541	0.40001487731933594
62	190.85388112068176	response	0	2		60.0	2.5	/experiments/knapen_aot/videos/S_ILSVRC2015_train_00415007.mp4	0.0	285.10082817077637	
62	190.86199498176575	movie	1		301.0	60.0	2.5	/experiments/knapen_aot/videos/S_ILSVRC2015_train_00415007.mp4	0.0	285.10894203186035	2.508357048034668
62	193.37035202980042	fix_post	2		12.0	60.0	2.5	/experiments/knapen_aot/videos/S_ILSVRC2015_train_00415007.mp4	0.0	287.617299079895	0.09998893737792969
63	193.47034096717834	fix_pre	0		39.0	61.0	2.5	/experiments/knapen_aot/videos/S_ILSVRC2015_train_00303008.mp4	0.0	287.71728801727295	0.3259999752044678
63	193.78707003593445	response	0	2		61.0	2.5	/experiments/knapen_aot/videos/S_ILSVRC2015_train_00303008.mp4	0.0	288.03401708602905	
63	193.7963409423828	movie	1		301.0	61.0	2.5	/experiments/knapen_aot/videos/S_ILSVRC2015_train_00303008.mp4	0.0	288.0432879924774	2.5073421001434326
63	196.30368304252625	fix_post	2		12.0	61.0	2.5	/experiments/knapen_aot/videos/S_ILSVRC2015_train_00303008.mp4	0.0	290.55063009262085	0.09994387626647949
64	196.40362691879272	fix_pre	0		46.0	62.0	2.5	/experiments/knapen_aot/videos/S_comp_LA_A011_C003_DGRN_LNFIX_STAB_v57_SDR_PS_20181002_SDR_2K_AVC.mp4	0.0	290.65057396888733	0.38341808319091797
64	196.77883291244507	response	0	2		62.0	2.5	/experiments/knapen_aot/videos/S_comp_LA_A011_C003_DGRN_LNFIX_STAB_v57_SDR_PS_20181002_SDR_2K_AVC.mp4	0.0	291.0257799625397	
64	196.78704500198364	movie	1		168.0	62.0	2.5	/experiments/knapen_aot/videos/S_comp_LA_A011_C003_DGRN_LNFIX_STAB_v57_SDR_PS_20181002_SDR_2K_AVC.mp4	0.0	291.03399205207825	2.508305072784424
64	199.29535007476807	fix_post	2		12.0	62.0	2.5	/experiments/knapen_aot/videos/S_comp_LA_A011_C003_DGRN_LNFIX_STAB_v57_SDR_PS_20181002_SDR_2K_AVC.mp4	0.0	293.54229712486267	0.09990787506103516
65	199.3952579498291	fix_pre	0		37.0	63.0	2.5	blank	1.0	293.6422049999237	0.30834007263183594
65	199.69548892974854	response	0	2		63.0	2.5	blank	1.0	293.94243597984314	
65	199.70359802246094	movie	1		301.0	63.0	2.5	blank	1.0	293.95054507255554	2.5082919597625732
65	202.2118899822235	fix_post	2		12.0	63.0	2.5	blank	1.0	296.4588370323181	0.10008907318115234
66	202.31197905540466	fix_pre	0		24.0	64.0	2.5	/experiments/knapen_aot/videos/R_S_yt-F3hhts3bwWg_25.mp4	0.0	296.55892610549927	0.19996285438537598
66	202.50373101234436	response	0	2		64.0	2.5	/experiments/knapen_aot/videos/R_S_yt-F3hhts3bwWg_25.mp4	0.0	296.75067806243896	
66	202.51194190979004	movie	1		301.0	64.0	2.5	/experiments/knapen_aot/videos/R_S_yt-F3hhts3bwWg_25.mp4	0.0	296.75888895988464	2.5083000659942627
66	205.0202419757843	fix_post	2		12.0	64.0	2.5	/experiments/knapen_aot/videos/R_S_yt-F3hhts3bwWg_25.mp4	0.0	299.2671890258789	0.10013508796691895
67	205.12037706375122	fix_pre	0		75.0	65.0	2.5	/experiments/knapen_aot/videos/R_S_yt-iKe-0YNR5Eo_164.mp4	0.0	299.3673241138458	0.6248538494110107
67	205.73714303970337	response	0	2		65.0	2.5	/experiments/knapen_aot/videos/R_S_yt-iKe-0YNR5Eo_164.mp4	0.0	299.984090089798	
67	205.74523091316223	movie	1		301.0	65.0	2.5	/experiments/knapen_aot/videos/R_S_yt-iKe-0YNR5Eo_164.mp4	0.0	299.99217796325684	2.5083460807800293
67	208.25357699394226	fix_post	2		12.0	65.0	2.5	/experiments/knapen_aot/videos/R_S_yt-iKe-0YNR5Eo_164.mp4	0.0	302.50052404403687	0.10000300407409668
68	208.35357999801636	fix_pre	0		75.0	66.0	2.5	/experiments/knapen_aot/videos/S_yt-oVS_k_9upmo_205.mp4	0.0	302.60052704811096	0.6249959468841553
68	208.97032403945923	response	0	2		66.0	2.5	/experiments/knapen_aot/videos/S_yt-oVS_k_9upmo_205.mp4	0.0	303.21727108955383	
68	208.9785759449005	movie	1		301.0	66.0	2.5	/experiments/knapen_aot/videos/S_yt-oVS_k_9upmo_205.mp4	0.0	303.2255229949951	2.508368968963623
68	211.48694491386414	fix_post	2		12.0	66.0	2.5	/experiments/knapen_aot/videos/S_yt-oVS_k_9upmo_205.mp4	0.0	305.73389196395874	0.10006403923034668
69	211.58700895309448	fix_pre	0		60.0	67.0	2.5	/experiments/knapen_aot/videos/R_S_production_ID_4122384.mp4	0.0	305.8339560031891	0.500805139541626
69	212.07876300811768	response	0	2		67.0	2.5	/experiments/knapen_aot/videos/R_S_production_ID_4122384.mp4	0.0	306.3257100582123	
69	212.0878140926361	movie	1		164.0	67.0	2.5	/experiments/knapen_aot/videos/R_S_production_ID_4122384.mp4	0.0	306.3347611427307	2.507443904876709
69	214.59525799751282	fix_post	2		12.0	67.0	2.5	/experiments/knapen_aot/videos/R_S_production_ID_4122384.mp4	0.0	308.8422050476074	0.09994697570800781
70	214.69520497322083	fix_pre	0		286.0	68.0	2.5	/experiments/knapen_aot/videos/R_S_yt-XbigWWtnGL4_75.mp4	0.0	308.94215202331543	2.383341073989868
70	217.07030296325684	response	0	2		68.0	2.5	/experiments/knapen_aot/videos/R_S_yt-XbigWWtnGL4_75.mp4	0.0	311.31725001335144	
70	217.0785460472107	movie	1		301.0	68.0	2.5	/experiments/knapen_aot/videos/R_S_yt-XbigWWtnGL4_75.mp4	0.0	311.3254930973053	2.5083630084991455
70	219.58690905570984	fix_post	2		12.0	68.0	2.5	/experiments/knapen_aot/videos/R_S_yt-XbigWWtnGL4_75.mp4	0.0	313.83385610580444	0.10000896453857422
71	219.6869180202484	fix_pre	0		50.0	69.0	2.5	blank	1.0	313.933865070343	0.416640043258667
71	220.09532403945923	response	0	2		69.0	2.5	blank	1.0	314.34227108955383	
71	220.10355806350708	movie	1		301.0	69.0	2.5	blank	1.0	314.3505051136017	2.5083529949188232
71	222.6119110584259	fix_post	2		12.0	69.0	2.5	blank	1.0	316.8588581085205	0.0999150276184082
72	222.7118260860443	fix_pre	0		56.0	70.0	2.5	/experiments/knapen_aot/videos/R_S_ILSVRC2015_train_00415003.mp4	0.0	316.9587731361389	0.46672892570495605
72	223.1702699661255	response	0	2		70.0	2.5	/experiments/knapen_aot/videos/R_S_ILSVRC2015_train_00415003.mp4	0.0	317.4172170162201	
72	223.17855501174927	movie	1		301.0	70.0	2.5	/experiments/knapen_aot/videos/R_S_ILSVRC2015_train_00415003.mp4	0.0	317.4255020618439	2.508362054824829
72	225.6869170665741	fix_post	2		12.0	70.0	2.5	/experiments/knapen_aot/videos/R_S_ILSVRC2015_train_00415003.mp4	0.0	319.9338641166687	0.09995388984680176
73	225.7868709564209	fix_pre	0		49.0	71.0	2.5	/experiments/knapen_aot/videos/R_S_ILSVRC2015_train_00756000.mp4	0.0	320.0338180065155	0.4083080291748047
73	226.18701696395874	response	0	2		71.0	2.5	/experiments/knapen_aot/videos/R_S_ILSVRC2015_train_00756000.mp4	0.0	320.43396401405334	
73	226.1951789855957	movie	1		297.0	71.0	2.5	/experiments/knapen_aot/videos/R_S_ILSVRC2015_train_00756000.mp4	0.0	320.4421260356903	2.5082809925079346
73	228.70345997810364	fix_post	2		12.0	71.0	2.5	/experiments/knapen_aot/videos/R_S_ILSVRC2015_train_00756000.mp4	0.0	322.95040702819824	0.10006499290466309
74	228.8035249710083	fix_pre	0		32.0	72.0	2.5	/experiments/knapen_aot/videos/R_S_yt-z68VLDDCFdw_93.mp4	0.0	323.0504720211029	0.26662397384643555
74	229.06202697753906	response	0	2		72.0	2.5	/experiments/knapen_aot/videos/R_S_yt-z68VLDDCFdw_93.mp4	0.0	323.30897402763367	
74	229.07014894485474	movie	1		301.0	72.0	2.5	/experiments/knapen_aot/videos/R_S_yt-z68VLDDCFdw_93.mp4	0.0	323.31709599494934	2.508650064468384
74	231.57879900932312	fix_post	2		12.0	72.0	2.5	/experiments/knapen_aot/videos/R_S_yt-z68VLDDCFdw_93.mp4	0.0	325.8257460594177	0.09972000122070312
75	231.67851901054382	fix_pre	0		26.0	73.0	2.5	/experiments/knapen_aot/videos/R_S_yt-xlHdGsXVZFU_83.mp4	0.0	325.9254660606384	0.2166590690612793
75	231.88703298568726	response	0	2		73.0	2.5	/experiments/knapen_aot/videos/R_S_yt-xlHdGsXVZFU_83.mp4	0.0	326.13398003578186	
75	231.8951780796051	movie	1		301.0	73.0	2.5	/experiments/knapen_aot/videos/R_S_yt-xlHdGsXVZFU_83.mp4	0.0	326.1421251296997	2.508314847946167
75	234.40349292755127	fix_post	2		12.0	73.0	2.5	/experiments/knapen_aot/videos/R_S_yt-xlHdGsXVZFU_83.mp4	0.0	328.6504399776459	0.10004520416259766
76	234.50353813171387	fix_pre	0		41.0	74.0	2.5	/experiments/knapen_aot/videos/S_pexels-anastasia-shuraeva-6014070.mp4	0.0	328.7504851818085	0.341594934463501
76	234.83693599700928	response	0	2		74.0	2.5	/experiments/knapen_aot/videos/S_pexels-anastasia-shuraeva-6014070.mp4	0.0	329.0838830471039	
76	234.84513306617737	movie	1		182.0	74.0	2.5	/experiments/knapen_aot/videos/S_pexels-anastasia-shuraeva-6014070.mp4	0.0	329.092080116272	2.50834584236145
76	237.35347890853882	fix_post	2		12.0	74.0	2.5	/experiments/knapen_aot/videos/S_pexels-anastasia-shuraeva-6014070.mp4	0.0	331.6004259586334	0.10008621215820312
77	237.45356512069702	fix_pre	0		116.0	75.0	2.5	/experiments/knapen_aot/videos/S_yt-1V0KJEc4cJ4_203.mp4	0.0	331.7005121707916	0.96732497215271
77	238.41201305389404	response	0	2		75.0	2.5	/experiments/knapen_aot/videos/S_yt-1V0KJEc4cJ4_203.mp4	0.0	332.65896010398865	
77	238.42089009284973	movie	1		301.0	75.0	2.5	/experiments/knapen_aot/videos/S_yt-1V0KJEc4cJ4_203.mp4	0.0	332.66783714294434	2.507603883743286
77	240.92849397659302	fix_post	2		12.0	75.0	2.5	/experiments/knapen_aot/videos/S_yt-1V0KJEc4cJ4_203.mp4	0.0	335.1754410266876	0.10000205039978027
78	241.0284960269928	fix_pre	0		41.0	76.0	2.5	blank	1.0	335.2754430770874	0.3416130542755127
78	241.36195707321167	response	0	2		76.0	2.5	blank	1.0	335.6089041233063	
78	241.3701090812683	movie	1		301.0	76.0	2.5	blank	1.0	335.6170561313629	2.5083179473876953
78	243.878427028656	fix_post	2		12.0	76.0	2.5	blank	1.0	338.1253740787506	0.09997892379760742
79	243.9784059524536	fix_pre	0		44.0	77.0	2.5	/experiments/knapen_aot/videos/R_S_comp_L004_C011_PS_v01_SDR_PS_20180925_SDR_2K_AVC.mp4	0.0	338.2253530025482	0.36667418479919434
79	244.33688306808472	response	0	2		77.0	2.5	/experiments/knapen_aot/videos/R_S_comp_L004_C011_PS_v01_SDR_PS_20180925_SDR_2K_AVC.mp4	0.0	338.5838301181793	
79	244.3450801372528	movie	1		169.0	77.0	2.5	/experiments/knapen_aot/videos/R_S_comp_L004_C011_PS_v01_SDR_PS_20180925_SDR_2K_AVC.mp4	0.0	338.5920271873474	2.508427858352661
79	246.85350799560547	fix_post	2		12.0	77.0	2.5	/experiments/knapen_aot/videos/R_S_comp_L004_C011_PS_v01_SDR_PS_20180925_SDR_2K_AVC.mp4	0.0	341.1004550457001	0.09996891021728516
80	246.95347690582275	fix_pre	0		12.0	78.0	2.5	/experiments/knapen_aot/videos/R_S_yt-O_4DgW-XKvA_35.mp4	0.0	341.20042395591736	0.10005307197570801
80	247.0461609363556	response	0	2		78.0	2.5	/experiments/knapen_aot/videos/R_S_yt-O_4DgW-XKvA_35.mp4	0.0	341.2931079864502	
80	247.05352997779846	movie	1		301.0	78.0	2.5	/experiments/knapen_aot/videos/R_S_yt-O_4DgW-XKvA_35.mp4	0.0	341.30047702789307	2.5083060264587402
80	249.5618360042572	fix_post	2		12.0	78.0	2.5	/experiments/knapen_aot/videos/R_S_yt-O_4DgW-XKvA_35.mp4	0.0	343.8087830543518	0.09998106956481934
81	249.66181707382202	fix_pre	0		38.0	79.0	2.5	/experiments/knapen_aot/videos/R_S_yt-jy7rAnpu0u8_128.mp4	0.0	343.9087641239166	0.31664395332336426
81	249.97022199630737	response	0	2		79.0	2.5	/experiments/knapen_aot/videos/R_S_yt-jy7rAnpu0u8_128.mp4	0.0	344.217169046402	
81	249.97846102714539	movie	1		301.0	79.0	2.5	/experiments/knapen_aot/videos/R_S_yt-jy7rAnpu0u8_128.mp4	0.0	344.22540807724	2.508284091949463
81	252.48674511909485	fix_post	2		12.0	79.0	2.5	/experiments/knapen_aot/videos/R_S_yt-jy7rAnpu0u8_128.mp4	0.0	346.73369216918945	0.09994101524353027
82	252.58668613433838	fix_pre	0		25.0	80.0	2.5	/experiments/knapen_aot/videos/S_yt-QD74nNliDvI_10.mp4	0.0	346.833633184433	0.20903992652893066
82	252.7868800163269	response	0	2		80.0	2.5	/experiments/knapen_aot/videos/S_yt-QD74nNliDvI_10.mp4	0.0	347.0338270664215	
82	252.7957260608673	movie	1		301.0	80.0	2.5	/experiments/knapen_aot/videos/S_yt-QD74nNliDvI_10.mp4	0.0	347.0426731109619	2.5076980590820312
82	255.30342411994934	fix_post	2		12.0	80.0	2.5	/experiments/knapen_aot/videos/S_yt-QD74nNliDvI_10.mp4	0.0	349.55037117004395	0.10000801086425781
83	255.4034321308136	fix_pre	0		30.0	81.0	2.5	/experiments/knapen_aot/videos/R_S_yt-5doJmCcFL7s_3.mp4	0.0	349.6503791809082	0.24998092651367188
83	255.64522409439087	response	0	2		81.0	2.5	/experiments/knapen_aot/videos/R_S_yt-5doJmCcFL7s_3.mp4	0.0	349.8921711444855	
83	255.65341305732727	movie	1		301.0	81.0	2.5	/experiments/knapen_aot/videos/R_S_yt-5doJmCcFL7s_3.mp4	0.0	349.9003601074219	2.5083420276641846
83	258.16175508499146	fix_post	2		12.0	81.0	2.5	/experiments/knapen_aot/videos/R_S_yt-5doJmCcFL7s_3.mp4	0.0	352.40870213508606	0.09999203681945801
84	258.2617471218109	fix_pre	0		24.0	82.0	2.5	blank	1.0	352.5086941719055	0.2007598876953125
84	258.4535291194916	response	0	2		82.0	2.5	blank	1.0	352.7004761695862	
84	258.4625070095062	movie	1		301.0	82.0	2.5	blank	1.0	352.70945405960083	2.5074939727783203
84	260.97000098228455	fix_post	2		12.0	82.0	2.5	blank	1.0	355.21694803237915	0.10003805160522461
85	261.07003903388977	fix_pre	0		30.0	83.0	2.5	/experiments/knapen_aot/videos/S_ILSVRC2015_train_00568002.mp4	0.0	355.3169860839844	0.25005292892456055
85	261.31180906295776	response	0	2		83.0	2.5	/experiments/knapen_aot/videos/S_ILSVRC2015_train_00568002.mp4	0.0	355.55875611305237	
85	261.32009196281433	movie	1		301.0	83.0	2.5	/experiments/knapen_aot/videos/S_ILSVRC2015_train_00568002.mp4	0.0	355.56703901290894	2.5082521438598633
85	263.8283441066742	fix_post	2		12.0	83.0	2.5	/experiments/knapen_aot/videos/S_ILSVRC2015_train_00568002.mp4	0.0	358.0752911567688	0.10003185272216797
87	263.92837595939636	stim	0		218.0					358.17532300949097	1.8186640739440918
87	265.734295129776	response	0	space						359.9812421798706	
