trial_nr	onset	event_type	phase	response	nr_frames	movie_index	movie_duration	movie_file	blank	onset_abs	duration
0	0.12908697128295898	stim	0		43.0					132.26565599441528	0.362407922744751
0	0.4761350154876709	response	0	space						132.61270403862	
1	0.49149489402770996	stim	0		121.0					132.62806391716003	1.008424997329712
1	1.4999198913574219	stim	1		120.0					133.63648891448975	0.9997601509094238
1	1.9162368774414062	response	1	space						134.05280590057373	
1	2.182914972305298	response	1	space						134.31948399543762	
2	2.4996800422668457	fix_pre	0		9.0	0.0	2.5	/experiments/knapen_aot/videos/R_S_ILSVRC2015_train_00444000.mp4	0.0	134.63624906539917	0.07480096817016602
2	2.5663368701934814	response	0	space		0.0	2.5	/experiments/knapen_aot/videos/R_S_ILSVRC2015_train_00444000.mp4	0.0	134.7029058933258	
2	2.5744810104370117	movie	1		300.0	0.0	2.5	/experiments/knapen_aot/videos/R_S_ILSVRC2015_train_00444000.mp4	0.0	134.71105003356934	2.508476972579956
2	5.082957983016968	fix_post	2		11.0	0.0	2.5	/experiments/knapen_aot/videos/R_S_ILSVRC2015_train_00444000.mp4	0.0	137.2195270061493	0.09988784790039062
2	5.0892908573150635	response	2	2		0.0	2.5	/experiments/knapen_aot/videos/R_S_ILSVRC2015_train_00444000.mp4	0.0	137.2258598804474	
3	5.182845830917358	fix_pre	0		21.0	1.0	2.5	/experiments/knapen_aot/videos/S_ILSVRC2015_train_00368000.mp4	0.0	137.31941485404968	0.17498517036437988
3	5.3495588302612305	response	0	2		1.0	2.5	/experiments/knapen_aot/videos/S_ILSVRC2015_train_00368000.mp4	0.0	137.48612785339355	
3	5.357831001281738	movie	1		301.0	1.0	2.5	/experiments/knapen_aot/videos/S_ILSVRC2015_train_00368000.mp4	0.0	137.49440002441406	2.5085389614105225
3	7.866369962692261	fix_post	2		12.0	1.0	2.5	/experiments/knapen_aot/videos/S_ILSVRC2015_train_00368000.mp4	0.0	140.00293898582458	0.09981393814086914
3	7.941253900527954	response	2	2		1.0	2.5	/experiments/knapen_aot/videos/S_ILSVRC2015_train_00368000.mp4	0.0	140.07782292366028	
4	7.96618390083313	fix_pre	0		32.0	2.0	2.5	/experiments/knapen_aot/videos/S_nTA7B2uHaCQ_1.mp4	0.0	140.10275292396545	0.2666471004486084
4	8.22448992729187	response	0	2		2.0	2.5	/experiments/knapen_aot/videos/S_nTA7B2uHaCQ_1.mp4	0.0	140.3610589504242	
4	8.232831001281738	movie	1		301.0	2.0	2.5	/experiments/knapen_aot/videos/S_nTA7B2uHaCQ_1.mp4	0.0	140.36940002441406	2.5083439350128174
4	10.741174936294556	fix_post	2		12.0	2.0	2.5	/experiments/knapen_aot/videos/S_nTA7B2uHaCQ_1.mp4	0.0	142.87774395942688	0.09994196891784668
5	10.841116905212402	fix_pre	0		12.0	3.0	2.5	/experiments/knapen_aot/videos/S_SE_A016_C009_SDR_20190717_SDR_2K_AVC.mp4	0.0	142.97768592834473	0.09999704360961914
5	10.925396919250488	response	0	2		3.0	2.5	/experiments/knapen_aot/videos/S_SE_A016_C009_SDR_20190717_SDR_2K_AVC.mp4	0.0	143.0619659423828	
5	10.941113948822021	movie	1		163.0	3.0	2.5	/experiments/knapen_aot/videos/S_SE_A016_C009_SDR_20190717_SDR_2K_AVC.mp4	0.0	143.07768297195435	2.5083749294281006
5	13.449488878250122	fix_post	2		12.0	3.0	2.5	/experiments/knapen_aot/videos/S_SE_A016_C009_SDR_20190717_SDR_2K_AVC.mp4	0.0	145.58605790138245	0.10001301765441895
6	13.549501895904541	fix_pre	0		5.0	4.0	2.5	/experiments/knapen_aot/videos/S_yt-xQPKYWDRy2A_491.mp4	0.0	145.68607091903687	0.041567087173461914
6	13.582928895950317	response	0	2		4.0	2.5	/experiments/knapen_aot/videos/S_yt-xQPKYWDRy2A_491.mp4	0.0	145.71949791908264	
6	13.591068983078003	movie	1		301.0	4.0	2.5	/experiments/knapen_aot/videos/S_yt-xQPKYWDRy2A_491.mp4	0.0	145.72763800621033	2.508431911468506
6	16.09950089454651	fix_post	2		12.0	4.0	2.5	/experiments/knapen_aot/videos/S_yt-xQPKYWDRy2A_491.mp4	0.0	148.23606991767883	0.10013413429260254
7	16.19963502883911	fix_pre	0		2.0	5.0	2.5	/experiments/knapen_aot/videos/R_S_yt-YMI27rk5qUQ_117.mp4	0.0	148.33620405197144	0.016476869583129883
7	16.2080659866333	response	0	2		5.0	2.5	/experiments/knapen_aot/videos/R_S_yt-YMI27rk5qUQ_117.mp4	0.0	148.34463500976562	
7	16.21611189842224	movie	1		301.0	5.0	2.5	/experiments/knapen_aot/videos/R_S_yt-YMI27rk5qUQ_117.mp4	0.0	148.35268092155457	2.508463144302368
7	18.72457504272461	fix_post	2		12.0	5.0	2.5	/experiments/knapen_aot/videos/R_S_yt-YMI27rk5qUQ_117.mp4	0.0	150.86114406585693	0.09987878799438477
8	18.824453830718994	fix_pre	0		10.0	6.0	2.5	/experiments/knapen_aot/videos/R_S_yt-SS7pSyb0_d0_32.mp4	0.0	150.96102285385132	0.08330106735229492
8	18.899507999420166	response	0	2		6.0	2.5	/experiments/knapen_aot/videos/R_S_yt-SS7pSyb0_d0_32.mp4	0.0	151.0360770225525	
8	18.90775489807129	movie	1		301.0	6.0	2.5	/experiments/knapen_aot/videos/R_S_yt-SS7pSyb0_d0_32.mp4	0.0	151.0443239212036	2.5083210468292236
8	21.416075944900513	fix_post	2		12.0	6.0	2.5	/experiments/knapen_aot/videos/R_S_yt-SS7pSyb0_d0_32.mp4	0.0	153.55264496803284	0.10022091865539551
9	21.516296863555908	fix_pre	0		13.0	7.0	2.5	blank	1.0	153.65286588668823	0.10812711715698242
9	21.616183042526245	response	0	2		7.0	2.5	blank	1.0	153.75275206565857	
9	21.62442398071289	movie	1		301.0	7.0	2.5	blank	1.0	153.76099300384521	2.508340835571289
9	24.13276481628418	fix_post	2		12.0	7.0	2.5	blank	1.0	156.2693338394165	0.10002708435058594
10	24.232791900634766	fix_pre	0		46.0	8.0	2.5	/experiments/knapen_aot/videos/S_yt-WhQMF3WM0Ig_29.mp4	0.0	156.3693609237671	0.38326597213745117
10	24.600307941436768	response	0	2		8.0	2.5	/experiments/knapen_aot/videos/S_yt-WhQMF3WM0Ig_29.mp4	0.0	156.7368769645691	
10	24.616057872772217	movie	1		301.0	8.0	2.5	/experiments/knapen_aot/videos/S_yt-WhQMF3WM0Ig_29.mp4	0.0	156.75262689590454	2.5083301067352295
10	27.124387979507446	fix_post	2		12.0	8.0	2.5	/experiments/knapen_aot/videos/S_yt-WhQMF3WM0Ig_29.mp4	0.0	159.26095700263977	0.10003805160522461
11	27.22442603111267	fix_pre	0		23.0	9.0	2.5	/experiments/knapen_aot/videos/S_pexels-c-technical-6753390.mp4	0.0	159.360995054245	0.19164800643920898
11	27.40783190727234	response	0	2		9.0	2.5	/experiments/knapen_aot/videos/S_pexels-c-technical-6753390.mp4	0.0	159.54440093040466	
11	27.41607403755188	movie	1		188.0	9.0	2.5	/experiments/knapen_aot/videos/S_pexels-c-technical-6753390.mp4	0.0	159.5526430606842	2.5083608627319336
11	29.924434900283813	fix_post	2		12.0	9.0	2.5	/experiments/knapen_aot/videos/S_pexels-c-technical-6753390.mp4	0.0	162.06100392341614	0.0999610424041748
12	30.02439594268799	fix_pre	0		1.0	10.0	2.5	/experiments/knapen_aot/videos/S_pexels-cottonbro-6788024.mp4	0.0	162.1609649658203	0.008311986923217773
12	30.026010990142822	response	0	2		10.0	2.5	/experiments/knapen_aot/videos/S_pexels-cottonbro-6788024.mp4	0.0	162.16258001327515	
12	30.032707929611206	movie	1		201.0	10.0	2.5	/experiments/knapen_aot/videos/S_pexels-cottonbro-6788024.mp4	0.0	162.16927695274353	2.5082900524139404
12	32.54099798202515	fix_post	2		12.0	10.0	2.5	/experiments/knapen_aot/videos/S_pexels-cottonbro-6788024.mp4	0.0	164.67756700515747	0.10008597373962402
13	32.64108395576477	fix_pre	0		22.0	11.0	2.5	/experiments/knapen_aot/videos/S_pexels-pavel-danilyuk-8057714.mp4	0.0	164.7776529788971	0.18332886695861816
13	32.81612181663513	response	0	2		11.0	2.5	/experiments/knapen_aot/videos/S_pexels-pavel-danilyuk-8057714.mp4	0.0	164.95269083976746	
13	32.82441282272339	movie	1		164.0	11.0	2.5	/experiments/knapen_aot/videos/S_pexels-pavel-danilyuk-8057714.mp4	0.0	164.9609818458557	2.508352041244507
13	35.21629095077515	response	1	2		11.0	2.5	/experiments/knapen_aot/videos/S_pexels-pavel-danilyuk-8057714.mp4	0.0	167.35285997390747	
13	35.332764863967896	fix_post	2		12.0	11.0	2.5	/experiments/knapen_aot/videos/S_pexels-pavel-danilyuk-8057714.mp4	0.0	167.46933388710022	0.09996914863586426
14	35.43273401260376	fix_pre	0		16.0	12.0	2.5	/experiments/knapen_aot/videos/S_yt-IX6uxR5DSKk_2.mp4	0.0	167.56930303573608	0.13326287269592285
14	35.55781888961792	response	0	2		12.0	2.5	/experiments/knapen_aot/videos/S_yt-IX6uxR5DSKk_2.mp4	0.0	167.69438791275024	
14	35.56599688529968	movie	1		301.0	12.0	2.5	/experiments/knapen_aot/videos/S_yt-IX6uxR5DSKk_2.mp4	0.0	167.702565908432	2.508441925048828
14	38.07443881034851	fix_post	2		12.0	12.0	2.5	/experiments/knapen_aot/videos/S_yt-IX6uxR5DSKk_2.mp4	0.0	170.21100783348083	0.09992718696594238
15	38.17436599731445	fix_pre	0		20.0	13.0	2.5	/experiments/knapen_aot/videos/R_S_yt-zgkJCgcT1s4_300.mp4	0.0	170.31093502044678	0.16663289070129395
15	38.33278799057007	response	0	2		13.0	2.5	/experiments/knapen_aot/videos/R_S_yt-zgkJCgcT1s4_300.mp4	0.0	170.4693570137024	
15	38.34099888801575	movie	1		301.0	13.0	2.5	/experiments/knapen_aot/videos/R_S_yt-zgkJCgcT1s4_300.mp4	0.0	170.47756791114807	2.508409023284912
15	40.84940791130066	fix_post	2		12.0	13.0	2.5	/experiments/knapen_aot/videos/R_S_yt-zgkJCgcT1s4_300.mp4	0.0	172.98597693443298	0.09993600845336914
16	40.94934391975403	fix_pre	0		25.0	14.0	2.5	blank	1.0	173.08591294288635	0.20827102661132812
16	41.14946699142456	response	0	2		14.0	2.5	blank	1.0	173.28603601455688	
16	41.157614946365356	movie	1		301.0	14.0	2.5	blank	1.0	173.29418396949768	2.5083930492401123
16	43.66600799560547	fix_post	2		12.0	14.0	2.5	blank	1.0	175.8025770187378	0.1002039909362793
17	43.76621198654175	fix_pre	0		2.0	15.0	2.5	/experiments/knapen_aot/videos/R_S_yt-4wjGeLyvfjY_223.mp4	0.0	175.90278100967407	0.016427040100097656
17	43.774441957473755	response	0	2		15.0	2.5	/experiments/knapen_aot/videos/R_S_yt-4wjGeLyvfjY_223.mp4	0.0	175.91101098060608	
17	43.782639026641846	movie	1		301.0	15.0	2.5	/experiments/knapen_aot/videos/R_S_yt-4wjGeLyvfjY_223.mp4	0.0	175.91920804977417	2.5083649158477783
17	46.291003942489624	fix_post	2		12.0	15.0	2.5	/experiments/knapen_aot/videos/R_S_yt-4wjGeLyvfjY_223.mp4	0.0	178.42757296562195	0.09999990463256836
18	46.39100384712219	fix_pre	0		31.0	16.0	2.5	/experiments/knapen_aot/videos/R_S_yt-fjOsq03OC2c_188.mp4	0.0	178.52757287025452	0.2583329677581787
18	46.641074895858765	response	0	2		16.0	2.5	/experiments/knapen_aot/videos/R_S_yt-fjOsq03OC2c_188.mp4	0.0	178.7776439189911	
18	46.64933681488037	movie	1		301.0	16.0	2.5	/experiments/knapen_aot/videos/R_S_yt-fjOsq03OC2c_188.mp4	0.0	178.7859058380127	2.508721113204956
18	49.15805792808533	fix_post	2		12.0	16.0	2.5	/experiments/knapen_aot/videos/R_S_yt-fjOsq03OC2c_188.mp4	0.0	181.29462695121765	0.09952688217163086
19	49.25758481025696	fix_pre	0		13.0	17.0	2.5	/experiments/knapen_aot/videos/R_S_yt-9Z9-RT-ysEE_85.mp4	0.0	181.39415383338928	0.10835409164428711
19	49.35778188705444	response	0	2		17.0	2.5	/experiments/knapen_aot/videos/R_S_yt-9Z9-RT-ysEE_85.mp4	0.0	181.49435091018677	
19	49.365938901901245	movie	1		301.0	17.0	2.5	/experiments/knapen_aot/videos/R_S_yt-9Z9-RT-ysEE_85.mp4	0.0	181.50250792503357	2.508474111557007
19	51.87441301345825	fix_post	2		12.0	17.0	2.5	/experiments/knapen_aot/videos/R_S_yt-9Z9-RT-ysEE_85.mp4	0.0	184.01098203659058	0.10116291046142578
20	51.97557592391968	fix_pre	0		5.0	18.0	2.5	/experiments/knapen_aot/videos/R_S_pexels-laker-5793000.mp4	0.0	184.112144947052	0.041528940200805664
20	52.007704973220825	response	0	2		18.0	2.5	/experiments/knapen_aot/videos/R_S_pexels-laker-5793000.mp4	0.0	184.14427399635315	
20	52.01710486412048	movie	1		163.0	18.0	2.5	/experiments/knapen_aot/videos/R_S_pexels-laker-5793000.mp4	0.0	184.1536738872528	2.5073139667510986
20	54.52441883087158	fix_post	2		12.0	18.0	2.5	/experiments/knapen_aot/videos/R_S_pexels-laker-5793000.mp4	0.0	186.6609878540039	0.09986209869384766
21	54.62428092956543	fix_pre	0		24.0	19.0	2.5	blank	1.0	186.76084995269775	0.19995403289794922
21	54.816144943237305	response	0	2		19.0	2.5	blank	1.0	186.95271396636963	
21	54.82423496246338	movie	1		301.0	19.0	2.5	blank	1.0	186.9608039855957	2.5083980560302734
21	57.33263301849365	fix_post	2		12.0	19.0	2.5	blank	1.0	189.46920204162598	0.10005402565002441
22	57.43268704414368	fix_pre	0		26.0	20.0	2.5	/experiments/knapen_aot/videos/S_yt-OFbbvxTLrtM_132.mp4	0.0	189.569256067276	0.216627836227417
22	57.641058921813965	response	0	2		20.0	2.5	/experiments/knapen_aot/videos/S_yt-OFbbvxTLrtM_132.mp4	0.0	189.7776279449463	
22	57.649314880371094	movie	1		301.0	20.0	2.5	/experiments/knapen_aot/videos/S_yt-OFbbvxTLrtM_132.mp4	0.0	189.78588390350342	2.5082859992980957
22	60.15760087966919	fix_post	2		12.0	20.0	2.5	/experiments/knapen_aot/videos/S_yt-OFbbvxTLrtM_132.mp4	0.0	192.2941699028015	0.10001015663146973
23	60.25761103630066	fix_pre	0		39.0	21.0	2.5	/experiments/knapen_aot/videos/R_S_ILSVRC2015_train_00324001.mp4	0.0	192.39418005943298	0.33333396911621094
23	60.574376821517944	response	0	2		21.0	2.5	/experiments/knapen_aot/videos/R_S_ILSVRC2015_train_00324001.mp4	0.0	192.71094584465027	
23	60.59094500541687	movie	1		300.0	21.0	2.5	/experiments/knapen_aot/videos/R_S_ILSVRC2015_train_00324001.mp4	0.0	192.7275140285492	2.499945878982544
23	63.090890884399414	fix_post	2		12.0	21.0	2.5	/experiments/knapen_aot/videos/R_S_ILSVRC2015_train_00324001.mp4	0.0	195.22745990753174	0.10009002685546875
23	63.17430591583252	response	2	2		21.0	2.5	/experiments/knapen_aot/videos/R_S_ILSVRC2015_train_00324001.mp4	0.0	195.31087493896484	
24	63.19098091125488	fix_pre	0		43.0	22.0	2.5	/experiments/knapen_aot/videos/R_S_pexels-rodnae-productions-5993654.mp4	0.0	195.3275499343872	0.35822010040283203
24	63.53339099884033	response	0	2		22.0	2.5	/experiments/knapen_aot/videos/R_S_pexels-rodnae-productions-5993654.mp4	0.0	195.66996002197266	
24	63.549201011657715	movie	1		161.0	22.0	2.5	/experiments/knapen_aot/videos/R_S_pexels-rodnae-productions-5993654.mp4	0.0	195.68577003479004	2.508382797241211
24	66.05758380889893	fix_post	2		12.0	22.0	2.5	/experiments/knapen_aot/videos/R_S_pexels-rodnae-productions-5993654.mp4	0.0	198.19415283203125	0.10001206398010254
25	66.15759587287903	fix_pre	0		22.0	23.0	2.5	/experiments/knapen_aot/videos/S_pexels-ron-lach-8071987.mp4	0.0	198.29416489601135	0.18329596519470215
25	66.33268594741821	response	0	2		23.0	2.5	/experiments/knapen_aot/videos/S_pexels-ron-lach-8071987.mp4	0.0	198.46925497055054	
25	66.34089183807373	movie	1		195.0	23.0	2.5	/experiments/knapen_aot/videos/S_pexels-ron-lach-8071987.mp4	0.0	198.47746086120605	2.508439064025879
25	68.84933090209961	fix_post	2		12.0	23.0	2.5	/experiments/knapen_aot/videos/S_pexels-ron-lach-8071987.mp4	0.0	200.98589992523193	0.09992694854736328
26	68.94925785064697	fix_pre	0		3.0	24.0	2.5	/experiments/knapen_aot/videos/S_yt-lv6mhnH7_g4_134.mp4	0.0	201.0858268737793	0.026050090789794922
26	68.96600484848022	response	0	2		24.0	2.5	/experiments/knapen_aot/videos/S_yt-lv6mhnH7_g4_134.mp4	0.0	201.10257387161255	
26	68.97530794143677	movie	1		301.0	24.0	2.5	/experiments/knapen_aot/videos/S_yt-lv6mhnH7_g4_134.mp4	0.0	201.1118769645691	2.507328987121582
26	71.48263692855835	fix_post	2		12.0	24.0	2.5	/experiments/knapen_aot/videos/S_yt-lv6mhnH7_g4_134.mp4	0.0	203.61920595169067	0.0999140739440918
27	71.58255100250244	fix_pre	0		14.0	25.0	2.5	/experiments/knapen_aot/videos/S_yt-GWgG8PVM1iw_34.mp4	0.0	203.71912002563477	0.1166388988494873
27	71.69097781181335	response	0	2		25.0	2.5	/experiments/knapen_aot/videos/S_yt-GWgG8PVM1iw_34.mp4	0.0	203.82754683494568	
27	71.69918990135193	movie	1		301.0	25.0	2.5	/experiments/knapen_aot/videos/S_yt-GWgG8PVM1iw_34.mp4	0.0	203.83575892448425	2.5083439350128174
27	74.20753383636475	fix_post	2		12.0	25.0	2.5	/experiments/knapen_aot/videos/S_yt-GWgG8PVM1iw_34.mp4	0.0	206.34410285949707	0.10001897811889648
28	74.30755281448364	fix_pre	0		34.0	26.0	2.5	/experiments/knapen_aot/videos/S_yt-TZ107yBhXoA_1.mp4	0.0	206.44412183761597	0.2833211421966553
28	74.57513284683228	response	0	2		26.0	2.5	/experiments/knapen_aot/videos/S_yt-TZ107yBhXoA_1.mp4	0.0	206.7117018699646	
28	74.5908739566803	movie	1		301.0	26.0	2.5	/experiments/knapen_aot/videos/S_yt-TZ107yBhXoA_1.mp4	0.0	206.72744297981262	2.508344888687134
28	77.09921884536743	fix_post	2		12.0	26.0	2.5	/experiments/knapen_aot/videos/S_yt-TZ107yBhXoA_1.mp4	0.0	209.23578786849976	0.09997701644897461
29	77.1991958618164	fix_pre	0		32.0	27.0	2.5	blank	1.0	209.33576488494873	0.26662206649780273
29	77.457603931427	response	0	2		27.0	2.5	blank	1.0	209.59417295455933	
29	77.46581792831421	movie	1		301.0	27.0	2.5	blank	1.0	209.60238695144653	2.5083529949188232
29	79.97417092323303	fix_post	2		12.0	27.0	2.5	blank	1.0	212.11073994636536	0.10010194778442383
29	80.04930090904236	response	2	2		27.0	2.5	blank	1.0	212.18586993217468	
30	80.07427287101746	fix_pre	0		35.0	28.0	2.5	/experiments/knapen_aot/videos/R_S_yt-Xegmd8whqBs_230.mp4	0.0	212.21084189414978	0.29159116744995117
30	80.35749101638794	response	0	2		28.0	2.5	/experiments/knapen_aot/videos/R_S_yt-Xegmd8whqBs_230.mp4	0.0	212.49406003952026	
30	80.36586403846741	movie	1		301.0	28.0	2.5	/experiments/knapen_aot/videos/R_S_yt-Xegmd8whqBs_230.mp4	0.0	212.50243306159973	2.5082499980926514
30	82.87411403656006	fix_post	2		12.0	28.0	2.5	/experiments/knapen_aot/videos/R_S_yt-Xegmd8whqBs_230.mp4	0.0	215.01068305969238	0.1000359058380127
31	82.97414994239807	fix_pre	0		5.0	29.0	2.5	/experiments/knapen_aot/videos/S_pexels-cottonbro-6788024.mp4	0.0	215.1107189655304	0.042669057846069336
31	83.00785994529724	response	0	2		29.0	2.5	/experiments/knapen_aot/videos/S_pexels-cottonbro-6788024.mp4	0.0	215.14442896842957	
31	83.01681900024414	movie	1		207.0	29.0	2.5	/experiments/knapen_aot/videos/S_pexels-cottonbro-6788024.mp4	0.0	215.15338802337646	2.507337808609009
31	85.52415680885315	fix_post	2		12.0	29.0	2.5	/experiments/knapen_aot/videos/S_pexels-cottonbro-6788024.mp4	0.0	217.66072583198547	0.10004520416259766
32	85.62420201301575	fix_pre	0		11.0	30.0	2.5	/experiments/knapen_aot/videos/R_S_yt-aiDGx4AN8J0_9.mp4	0.0	217.76077103614807	0.09158802032470703
32	85.70760989189148	response	0	2		30.0	2.5	/experiments/knapen_aot/videos/R_S_yt-aiDGx4AN8J0_9.mp4	0.0	217.8441789150238	
32	85.71579003334045	movie	1		301.0	30.0	2.5	/experiments/knapen_aot/videos/R_S_yt-aiDGx4AN8J0_9.mp4	0.0	217.85235905647278	2.508547782897949
32	88.15756893157959	response	1	2		30.0	2.5	/experiments/knapen_aot/videos/R_S_yt-aiDGx4AN8J0_9.mp4	0.0	220.2941379547119	
32	88.2243378162384	fix_post	2		12.0	30.0	2.5	/experiments/knapen_aot/videos/R_S_yt-aiDGx4AN8J0_9.mp4	0.0	220.36090683937073	0.09982705116271973
33	88.32416486740112	fix_pre	0		20.0	31.0	2.5	/experiments/knapen_aot/videos/S_wc-1MzpHfRq1MUK_32.mp4	0.0	220.46073389053345	0.16660594940185547
33	88.48254585266113	response	0	2		31.0	2.5	/experiments/knapen_aot/videos/S_wc-1MzpHfRq1MUK_32.mp4	0.0	220.61911487579346	
33	88.49077081680298	movie	1		301.0	31.0	2.5	/experiments/knapen_aot/videos/S_wc-1MzpHfRq1MUK_32.mp4	0.0	220.6273398399353	2.5083940029144287
33	90.99916481971741	fix_post	2		12.0	31.0	2.5	/experiments/knapen_aot/videos/S_wc-1MzpHfRq1MUK_32.mp4	0.0	223.13573384284973	0.09997200965881348
34	91.09913682937622	fix_pre	0		9.0	32.0	2.5	/experiments/knapen_aot/videos/S_yt-wz2opOBqClo_14.mp4	0.0	223.23570585250854	0.07495999336242676
34	91.16603899002075	response	0	2		32.0	2.5	/experiments/knapen_aot/videos/S_yt-wz2opOBqClo_14.mp4	0.0	223.30260801315308	
34	91.17409682273865	movie	1		301.0	32.0	2.5	/experiments/knapen_aot/videos/S_yt-wz2opOBqClo_14.mp4	0.0	223.31066584587097	2.5083601474761963
34	93.68245697021484	fix_post	2		12.0	32.0	2.5	/experiments/knapen_aot/videos/S_yt-wz2opOBqClo_14.mp4	0.0	225.81902599334717	0.10018587112426758
34	93.69088983535767	response	2	2		32.0	2.5	/experiments/knapen_aot/videos/S_yt-wz2opOBqClo_14.mp4	0.0	225.82745885849	
35	93.78264284133911	fix_pre	0		40.0	33.0	2.5	blank	1.0	225.91921186447144	0.3330681324005127
35	94.1075689792633	response	0	2		33.0	2.5	blank	1.0	226.24413800239563	
35	94.11571097373962	movie	1		301.0	33.0	2.5	blank	1.0	226.25227999687195	2.5084099769592285
35	96.62412095069885	fix_post	2		12.0	33.0	2.5	blank	1.0	228.76068997383118	0.10001802444458008
36	96.72413897514343	fix_pre	0		35.0	34.0	2.5	/experiments/knapen_aot/videos/R_S_production_ID_4802716.mp4	0.0	228.86070799827576	0.2926349639892578
36	97.00752902030945	response	0	2		34.0	2.5	/experiments/knapen_aot/videos/R_S_production_ID_4802716.mp4	0.0	229.14409804344177	
36	97.01677393913269	movie	1		165.0	34.0	2.5	/experiments/knapen_aot/videos/R_S_production_ID_4802716.mp4	0.0	229.15334296226501	2.5072970390319824
36	99.52407097816467	fix_post	2		12.0	34.0	2.5	/experiments/knapen_aot/videos/R_S_production_ID_4802716.mp4	0.0	231.660640001297	0.10002589225769043
37	99.62409687042236	fix_pre	0		10.0	35.0	2.5	/experiments/knapen_aot/videos/R_S_yt--koo4FOfZE0_86.mp4	0.0	231.7606658935547	0.08327507972717285
37	99.69919085502625	response	0	2		35.0	2.5	/experiments/knapen_aot/videos/R_S_yt--koo4FOfZE0_86.mp4	0.0	231.83575987815857	
37	99.70737195014954	movie	1		301.0	35.0	2.5	/experiments/knapen_aot/videos/R_S_yt--koo4FOfZE0_86.mp4	0.0	231.84394097328186	2.508362054824829
37	102.21573400497437	fix_post	2		12.0	35.0	2.5	/experiments/knapen_aot/videos/R_S_yt--koo4FOfZE0_86.mp4	0.0	234.3523030281067	0.10004687309265137
38	102.31578087806702	fix_pre	0		28.0	36.0	2.5	/experiments/knapen_aot/videos/R_S_yt-hekMMCluhnU_18.mp4	0.0	234.45234990119934	0.23323893547058105
38	102.54100799560547	response	0	2		36.0	2.5	/experiments/knapen_aot/videos/R_S_yt-hekMMCluhnU_18.mp4	0.0	234.6775770187378	
38	102.5490198135376	movie	1		301.0	36.0	2.5	/experiments/knapen_aot/videos/R_S_yt-hekMMCluhnU_18.mp4	0.0	234.68558883666992	2.508439064025879
38	105.05745887756348	fix_post	2		12.0	36.0	2.5	/experiments/knapen_aot/videos/R_S_yt-hekMMCluhnU_18.mp4	0.0	237.1940279006958	0.09996700286865234
39	105.15742588043213	fix_pre	0		44.0	37.0	2.5	/experiments/knapen_aot/videos/S_ILSVRC2015_train_00696000.mp4	0.0	237.29399490356445	0.366595983505249
39	105.51580786705017	response	0	2		37.0	2.5	/experiments/knapen_aot/videos/S_ILSVRC2015_train_00696000.mp4	0.0	237.6523768901825	
39	105.52402186393738	movie	1		301.0	37.0	2.5	/experiments/knapen_aot/videos/S_ILSVRC2015_train_00696000.mp4	0.0	237.6605908870697	2.5084049701690674
39	108.03242683410645	fix_post	2		12.0	37.0	2.5	/experiments/knapen_aot/videos/S_ILSVRC2015_train_00696000.mp4	0.0	240.16899585723877	0.09991598129272461
40	108.13234281539917	fix_pre	0		11.0	38.0	2.5	/experiments/knapen_aot/videos/R_S_yt-VTNBCfQxnsk_59.mp4	0.0	240.2689118385315	0.09257912635803223
40	108.20826601982117	response	0	2		38.0	2.5	/experiments/knapen_aot/videos/R_S_yt-VTNBCfQxnsk_59.mp4	0.0	240.3448350429535	
40	108.2249219417572	movie	1		301.0	38.0	2.5	/experiments/knapen_aot/videos/R_S_yt-VTNBCfQxnsk_59.mp4	0.0	240.36149096488953	2.507441997528076
40	110.73236393928528	fix_post	2		12.0	38.0	2.5	/experiments/knapen_aot/videos/R_S_yt-VTNBCfQxnsk_59.mp4	0.0	242.8689329624176	0.10002493858337402
41	110.83238887786865	fix_pre	0		41.0	39.0	2.5	/experiments/knapen_aot/videos/R_S_P001_C005_UHD_SDR_2K_AVC.mp4	0.0	242.96895790100098	0.3415689468383789
41	111.16575789451599	response	0	2		39.0	2.5	/experiments/knapen_aot/videos/R_S_P001_C005_UHD_SDR_2K_AVC.mp4	0.0	243.30232691764832	
41	111.17395782470703	movie	1		169.0	39.0	2.5	/experiments/knapen_aot/videos/R_S_P001_C005_UHD_SDR_2K_AVC.mp4	0.0	243.31052684783936	2.508446216583252
41	113.68240404129028	fix_post	2		12.0	39.0	2.5	/experiments/knapen_aot/videos/R_S_P001_C005_UHD_SDR_2K_AVC.mp4	0.0	245.8189730644226	0.09994888305664062
41	113.77412390708923	response	2	2		39.0	2.5	/experiments/knapen_aot/videos/R_S_P001_C005_UHD_SDR_2K_AVC.mp4	0.0	245.91069293022156	
42	113.78235292434692	fix_pre	0		44.0	40.0	2.5	blank	1.0	245.91892194747925	0.36664509773254395
42	114.1407699584961	response	0	2		40.0	2.5	blank	1.0	246.27733898162842	
42	114.14899802207947	movie	1		301.0	40.0	2.5	blank	1.0	246.2855670452118	2.508349895477295
42	116.65734791755676	fix_post	2		12.0	40.0	2.5	blank	1.0	248.7939169406891	0.09998607635498047
43	116.75733399391174	fix_pre	0		23.0	41.0	2.5	/experiments/knapen_aot/videos/R_S_yt-N1DlS9B00G0_23.mp4	0.0	248.89390301704407	0.1916038990020752
43	116.9409749507904	response	0	2		41.0	2.5	/experiments/knapen_aot/videos/R_S_yt-N1DlS9B00G0_23.mp4	0.0	249.07754397392273	
43	116.94893789291382	movie	1		301.0	41.0	2.5	/experiments/knapen_aot/videos/R_S_yt-N1DlS9B00G0_23.mp4	0.0	249.08550691604614	2.5083370208740234
43	119.45727491378784	fix_post	2		12.0	41.0	2.5	/experiments/knapen_aot/videos/R_S_yt-N1DlS9B00G0_23.mp4	0.0	251.59384393692017	0.10006594657897949
44	119.55734086036682	fix_pre	0		7.0	42.0	2.5	/experiments/knapen_aot/videos/R_S_yt-hHdxZ26SImA_17.mp4	0.0	251.69390988349915	0.058305978775024414
44	119.60737490653992	response	0	2		42.0	2.5	/experiments/knapen_aot/videos/R_S_yt-hHdxZ26SImA_17.mp4	0.0	251.74394392967224	
44	119.61564683914185	movie	1		301.0	42.0	2.5	/experiments/knapen_aot/videos/R_S_yt-hHdxZ26SImA_17.mp4	0.0	251.75221586227417	2.5083491802215576
44	122.1239960193634	fix_post	2		12.0	42.0	2.5	/experiments/knapen_aot/videos/R_S_yt-hHdxZ26SImA_17.mp4	0.0	254.26056504249573	0.09995579719543457
45	122.22395181655884	fix_pre	0		11.0	43.0	2.5	/experiments/knapen_aot/videos/R_S_yt-AbJBxqEYoMg_27.mp4	0.0	254.36052083969116	0.09165716171264648
45	122.30743288993835	response	0	2		43.0	2.5	/experiments/knapen_aot/videos/R_S_yt-AbJBxqEYoMg_27.mp4	0.0	254.44400191307068	
45	122.31560897827148	movie	1		301.0	43.0	2.5	/experiments/knapen_aot/videos/R_S_yt-AbJBxqEYoMg_27.mp4	0.0	254.4521780014038	2.508316993713379
45	124.82392597198486	fix_post	2		12.0	43.0	2.5	/experiments/knapen_aot/videos/R_S_yt-AbJBxqEYoMg_27.mp4	0.0	256.9604949951172	0.10007286071777344
46	124.92399883270264	fix_pre	0		21.0	44.0	2.5	/experiments/knapen_aot/videos/S_pexels-roman-odintsov-8231493.mp4	0.0	257.06056785583496	0.1758730411529541
46	125.09076404571533	response	0	2		44.0	2.5	/experiments/knapen_aot/videos/S_pexels-roman-odintsov-8231493.mp4	0.0	257.22733306884766	
46	125.09987187385559	movie	1		207.0	44.0	2.5	/experiments/knapen_aot/videos/S_pexels-roman-odintsov-8231493.mp4	0.0	257.2364408969879	2.5074360370635986
46	126.39908790588379	response	1	2		44.0	2.5	/experiments/knapen_aot/videos/S_pexels-roman-odintsov-8231493.mp4	0.0	258.5356569290161	
46	127.60730791091919	fix_post	2		12.0	44.0	2.5	/experiments/knapen_aot/videos/S_pexels-roman-odintsov-8231493.mp4	0.0	259.7438769340515	0.10037708282470703
47	127.7076849937439	fix_pre	0		11.0	45.0	2.5	/experiments/knapen_aot/videos/R_S_Person_Going_Through_A_Bible.mp4	0.0	259.8442540168762	0.09127092361450195
47	127.79073882102966	response	0	2		45.0	2.5	/experiments/knapen_aot/videos/R_S_Person_Going_Through_A_Bible.mp4	0.0	259.927307844162	
47	127.7989559173584	movie	1		177.0	45.0	2.5	/experiments/knapen_aot/videos/R_S_Person_Going_Through_A_Bible.mp4	0.0	259.9355249404907	2.508305072784424
47	130.30726099014282	fix_post	2		12.0	45.0	2.5	/experiments/knapen_aot/videos/R_S_Person_Going_Through_A_Bible.mp4	0.0	262.44383001327515	0.10003495216369629
48	130.40729594230652	fix_pre	0		7.0	46.0	2.5	/experiments/knapen_aot/videos/S_yt-K7viJXt9vX8_143.mp4	0.0	262.54386496543884	0.05834388732910156
48	130.4573438167572	response	0	2		46.0	2.5	/experiments/knapen_aot/videos/S_yt-K7viJXt9vX8_143.mp4	0.0	262.5939128398895	
48	130.46563982963562	movie	1		301.0	46.0	2.5	/experiments/knapen_aot/videos/S_yt-K7viJXt9vX8_143.mp4	0.0	262.60220885276794	2.5083231925964355
48	132.97396302223206	fix_post	2		12.0	46.0	2.5	/experiments/knapen_aot/videos/S_yt-K7viJXt9vX8_143.mp4	0.0	265.1105320453644	0.10004401206970215
49	133.07400703430176	fix_pre	0		7.0	47.0	2.5	blank	1.0	265.2105760574341	0.05826997756958008
49	133.124107837677	response	0	2		47.0	2.5	blank	1.0	265.2606768608093	
49	133.13227701187134	movie	1		301.0	47.0	2.5	blank	1.0	265.26884603500366	2.508342981338501
49	135.3490400314331	response	1	2		47.0	2.5	blank	1.0	267.48560905456543	
49	135.61563801765442	response	1	2		47.0	2.5	blank	1.0	267.75220704078674	
49	135.64061999320984	fix_post	2		12.0	47.0	2.5	blank	1.0	267.77718901634216	0.1000359058380127
50	135.74065589904785	fix_pre	0		27.0	48.0	2.5	/experiments/knapen_aot/videos/R_S_yt-y6JsUW0eSW8_32.mp4	0.0	267.8772249221802	0.22490596771240234
50	135.95731687545776	response	0	2		48.0	2.5	/experiments/knapen_aot/videos/R_S_yt-y6JsUW0eSW8_32.mp4	0.0	268.0938858985901	
50	135.96556186676025	movie	1		301.0	48.0	2.5	/experiments/knapen_aot/videos/R_S_yt-y6JsUW0eSW8_32.mp4	0.0	268.1021308898926	2.5084011554718018
50	138.47396302223206	fix_post	2		12.0	48.0	2.5	/experiments/knapen_aot/videos/R_S_yt-y6JsUW0eSW8_32.mp4	0.0	270.6105320453644	0.10007286071777344
51	138.57403588294983	fix_pre	0		11.0	49.0	2.5	/experiments/knapen_aot/videos/S_production_ID_3735542.mp4	0.0	270.71060490608215	0.09153509140014648
51	138.65734791755676	response	0	2		49.0	2.5	/experiments/knapen_aot/videos/S_production_ID_3735542.mp4	0.0	270.7939169406891	
51	138.66557097434998	movie	1		177.0	49.0	2.5	/experiments/knapen_aot/videos/S_production_ID_3735542.mp4	0.0	270.8021399974823	2.50839900970459
51	141.17396998405457	fix_post	2		12.0	49.0	2.5	/experiments/knapen_aot/videos/S_production_ID_3735542.mp4	0.0	273.3105390071869	0.10000896453857422
52	141.27397894859314	fix_pre	0		7.0	50.0	2.5	/experiments/knapen_aot/videos/R_S_yt-TSSPDwAQLXs_158.mp4	0.0	273.41054797172546	0.058197021484375
52	141.32401394844055	response	0	2		50.0	2.5	/experiments/knapen_aot/videos/R_S_yt-TSSPDwAQLXs_158.mp4	0.0	273.4605829715729	
52	141.33217597007751	movie	1		301.0	50.0	2.5	/experiments/knapen_aot/videos/R_S_yt-TSSPDwAQLXs_158.mp4	0.0	273.46874499320984	2.5083370208740234
52	143.84051299095154	fix_post	2		12.0	50.0	2.5	/experiments/knapen_aot/videos/R_S_yt-TSSPDwAQLXs_158.mp4	0.0	275.97708201408386	0.1002810001373291
53	143.94079399108887	fix_pre	0		21.0	51.0	2.5	/experiments/knapen_aot/videos/S_yt-l_pvPAznG1A_20.mp4	0.0	276.0773630142212	0.17473888397216797
53	144.10736393928528	response	0	2		51.0	2.5	/experiments/knapen_aot/videos/S_yt-l_pvPAznG1A_20.mp4	0.0	276.2439329624176	
53	144.11553287506104	movie	1		301.0	51.0	2.5	/experiments/knapen_aot/videos/S_yt-l_pvPAznG1A_20.mp4	0.0	276.25210189819336	2.5083980560302734
53	146.6239309310913	fix_post	2		12.0	51.0	2.5	/experiments/knapen_aot/videos/S_yt-l_pvPAznG1A_20.mp4	0.0	278.76049995422363	0.09995603561401367
54	146.72388696670532	fix_pre	0		16.0	52.0	2.5	/experiments/knapen_aot/videos/S_ILSVRC2015_train_00444000.mp4	0.0	278.86045598983765	0.13327789306640625
54	146.84903287887573	response	0	2		52.0	2.5	/experiments/knapen_aot/videos/S_ILSVRC2015_train_00444000.mp4	0.0	278.98560190200806	
54	146.85716485977173	movie	1		301.0	52.0	2.5	/experiments/knapen_aot/videos/S_ILSVRC2015_train_00444000.mp4	0.0	278.99373388290405	2.5084400177001953
54	149.36560487747192	fix_post	2		12.0	52.0	2.5	/experiments/knapen_aot/videos/S_ILSVRC2015_train_00444000.mp4	0.0	281.50217390060425	0.09991598129272461
55	149.46552085876465	fix_pre	0		6.0	53.0	2.5	/experiments/knapen_aot/videos/S_yt-IlW1U39Dga4_5.mp4	0.0	281.602089881897	0.05063009262084961
55	149.50734281539917	response	0	2		53.0	2.5	/experiments/knapen_aot/videos/S_yt-IlW1U39Dga4_5.mp4	0.0	281.6439118385315	
55	149.5161509513855	movie	1		301.0	53.0	2.5	/experiments/knapen_aot/videos/S_yt-IlW1U39Dga4_5.mp4	0.0	281.6527199745178	2.507823944091797
55	152.0239748954773	fix_post	2		12.0	53.0	2.5	/experiments/knapen_aot/videos/S_yt-IlW1U39Dga4_5.mp4	0.0	284.1605439186096	0.09988999366760254
56	152.1238648891449	fix_pre	0		15.0	54.0	2.5	/experiments/knapen_aot/videos/R_S_yt-QqSceHxY3d0_356.mp4	0.0	284.2604339122772	0.12500596046447754
56	152.2407419681549	response	0	2		54.0	2.5	/experiments/knapen_aot/videos/R_S_yt-QqSceHxY3d0_356.mp4	0.0	284.37731099128723	
56	152.24887084960938	movie	1		301.0	54.0	2.5	/experiments/knapen_aot/videos/R_S_yt-QqSceHxY3d0_356.mp4	0.0	284.3854398727417	2.508275032043457
56	154.75714588165283	fix_post	2		12.0	54.0	2.5	/experiments/knapen_aot/videos/R_S_yt-QqSceHxY3d0_356.mp4	0.0	286.89371490478516	0.10004711151123047
57	154.85719299316406	fix_pre	0		18.0	55.0	2.5	blank	1.0	286.9937620162964	0.1501619815826416
57	154.9989218711853	response	0	2		55.0	2.5	blank	1.0	287.1354908943176	
57	155.0073549747467	movie	1		301.0	55.0	2.5	blank	1.0	287.143923997879	2.5081770420074463
57	157.51553201675415	fix_post	2		12.0	55.0	2.5	blank	1.0	289.6521010398865	0.0999298095703125
58	157.61546182632446	fix_pre	0		24.0	56.0	2.5	/experiments/knapen_aot/videos/S_ILSVRC2015_train_00303005.mp4	0.0	289.7520308494568	0.19996905326843262
58	157.80729985237122	response	0	2		56.0	2.5	/experiments/knapen_aot/videos/S_ILSVRC2015_train_00303005.mp4	0.0	289.94386887550354	
58	157.8154308795929	movie	1		301.0	56.0	2.5	/experiments/knapen_aot/videos/S_ILSVRC2015_train_00303005.mp4	0.0	289.9519999027252	2.508397102355957
58	160.32382798194885	fix_post	2		12.0	56.0	2.5	/experiments/knapen_aot/videos/S_ILSVRC2015_train_00303005.mp4	0.0	292.4603970050812	0.10000896453857422
59	160.42383694648743	fix_pre	0		18.0	57.0	2.5	/experiments/knapen_aot/videos/S_yt-CLX1rmSf2Rs_194.mp4	0.0	292.56040596961975	0.14997291564941406
59	160.56559300422668	response	0	2		57.0	2.5	/experiments/knapen_aot/videos/S_yt-CLX1rmSf2Rs_194.mp4	0.0	292.702162027359	
59	160.57380986213684	movie	1		301.0	57.0	2.5	/experiments/knapen_aot/videos/S_yt-CLX1rmSf2Rs_194.mp4	0.0	292.71037888526917	2.5087010860443115
59	163.08251094818115	fix_post	2		12.0	57.0	2.5	/experiments/knapen_aot/videos/S_yt-CLX1rmSf2Rs_194.mp4	0.0	295.2190799713135	0.09967994689941406
60	163.18219089508057	fix_pre	0		21.0	58.0	2.5	/experiments/knapen_aot/videos/S_yt-r4st6Mt4EE8_85.mp4	0.0	295.3187599182129	0.17494511604309082
60	163.3415129184723	response	0	2		58.0	2.5	/experiments/knapen_aot/videos/S_yt-r4st6Mt4EE8_85.mp4	0.0	295.4780819416046	
60	163.35713601112366	movie	1		301.0	58.0	2.5	/experiments/knapen_aot/videos/S_yt-r4st6Mt4EE8_85.mp4	0.0	295.493705034256	2.508298873901367
60	165.86543488502502	fix_post	2		12.0	58.0	2.5	/experiments/knapen_aot/videos/S_yt-r4st6Mt4EE8_85.mp4	0.0	298.00200390815735	0.10011601448059082
61	165.96555089950562	fix_pre	0		19.0	59.0	2.5	/experiments/knapen_aot/videos/R_S_yt-hdZEAsVBEEM_19.mp4	0.0	298.10211992263794	0.15823793411254883
61	166.1155469417572	response	0	2		59.0	2.5	/experiments/knapen_aot/videos/R_S_yt-hdZEAsVBEEM_19.mp4	0.0	298.2521159648895	
61	166.12378883361816	movie	1		301.0	59.0	2.5	/experiments/knapen_aot/videos/R_S_yt-hdZEAsVBEEM_19.mp4	0.0	298.2603578567505	2.5083751678466797
61	168.63216400146484	fix_post	2		12.0	59.0	2.5	/experiments/knapen_aot/videos/R_S_yt-hdZEAsVBEEM_19.mp4	0.0	300.76873302459717	0.09996891021728516
62	168.73213291168213	fix_pre	0		23.0	60.0	2.5	/experiments/knapen_aot/videos/S_production_ID_3927047.mp4	0.0	300.86870193481445	0.19177699089050293
62	168.91551089286804	response	0	2		60.0	2.5	/experiments/knapen_aot/videos/S_production_ID_3927047.mp4	0.0	301.05207991600037	
62	168.92390990257263	movie	1		181.0	60.0	2.5	/experiments/knapen_aot/videos/S_production_ID_3927047.mp4	0.0	301.06047892570496	2.508258104324341
62	171.43216800689697	fix_post	2		12.0	60.0	2.5	/experiments/knapen_aot/videos/S_production_ID_3927047.mp4	0.0	303.5687370300293	0.09996700286865234
63	171.53213500976562	fix_pre	0		10.0	61.0	2.5	blank	1.0	303.66870403289795	0.08334994316101074
63	171.60724902153015	response	0	2		61.0	2.5	blank	1.0	303.7438180446625	
63	171.61548495292664	movie	1		301.0	61.0	2.5	blank	1.0	303.75205397605896	2.508307933807373
63	174.123792886734	fix_post	2		12.0	61.0	2.5	blank	1.0	306.26036190986633	0.10016798973083496
64	174.22396087646484	fix_pre	0		27.0	62.0	2.5	/experiments/knapen_aot/videos/R_S_yt-bTcbsBET7gc_270.mp4	0.0	306.36052989959717	0.22478508949279785
64	174.44049882888794	response	0	2		62.0	2.5	/experiments/knapen_aot/videos/R_S_yt-bTcbsBET7gc_270.mp4	0.0	306.57706785202026	
64	174.44874596595764	movie	1		301.0	62.0	2.5	/experiments/knapen_aot/videos/R_S_yt-bTcbsBET7gc_270.mp4	0.0	306.58531498908997	2.5083770751953125
64	176.95712304115295	fix_post	2		12.0	62.0	2.5	/experiments/knapen_aot/videos/R_S_yt-bTcbsBET7gc_270.mp4	0.0	309.0936920642853	0.09997677803039551
65	177.05709981918335	fix_pre	0		17.0	63.0	2.5	/experiments/knapen_aot/videos/R_S_dwi2oPzQ1Wo_48.mp4	0.0	309.1936688423157	0.14161419868469238
65	177.19058990478516	response	0	2		63.0	2.5	/experiments/knapen_aot/videos/R_S_dwi2oPzQ1Wo_48.mp4	0.0	309.3271589279175	
65	177.19871401786804	movie	1		301.0	63.0	2.5	/experiments/knapen_aot/videos/R_S_dwi2oPzQ1Wo_48.mp4	0.0	309.33528304100037	2.508375883102417
65	177.8654818534851	response	1	2		63.0	2.5	/experiments/knapen_aot/videos/R_S_dwi2oPzQ1Wo_48.mp4	0.0	310.00205087661743	
65	179.70708990097046	fix_post	2		12.0	63.0	2.5	/experiments/knapen_aot/videos/R_S_dwi2oPzQ1Wo_48.mp4	0.0	311.8436589241028	0.10021305084228516
66	179.80730295181274	fix_pre	0		14.0	64.0	2.5	/experiments/knapen_aot/videos/R_S_yt-dO0OuozAgt0_225.mp4	0.0	311.94387197494507	0.1164388656616211
66	179.91547989845276	response	0	2		64.0	2.5	/experiments/knapen_aot/videos/R_S_yt-dO0OuozAgt0_225.mp4	0.0	312.0520489215851	
66	179.92374181747437	movie	1		301.0	64.0	2.5	/experiments/knapen_aot/videos/R_S_yt-dO0OuozAgt0_225.mp4	0.0	312.0603108406067	2.5083842277526855
66	182.43212604522705	fix_post	2		12.0	64.0	2.5	/experiments/knapen_aot/videos/R_S_yt-dO0OuozAgt0_225.mp4	0.0	314.5686950683594	0.10006093978881836
67	182.53218698501587	fix_pre	0		16.0	65.0	2.5	/experiments/knapen_aot/videos/S_yt-hekMMCluhnU_18.mp4	0.0	314.6687560081482	0.13318705558776855
67	182.6571969985962	response	0	2		65.0	2.5	/experiments/knapen_aot/videos/S_yt-hekMMCluhnU_18.mp4	0.0	314.7937660217285	
67	182.66537404060364	movie	1		301.0	65.0	2.5	/experiments/knapen_aot/videos/S_yt-hekMMCluhnU_18.mp4	0.0	314.80194306373596	2.508366823196411
67	185.17374086380005	fix_post	2		12.0	65.0	2.5	/experiments/knapen_aot/videos/S_yt-hekMMCluhnU_18.mp4	0.0	317.3103098869324	0.10001897811889648
68	185.27375984191895	fix_pre	0		28.0	66.0	2.5	/experiments/knapen_aot/videos/R_S_yt-qazCIJqjxUU_3.mp4	0.0	317.41032886505127	0.23329997062683105
68	185.4988398551941	response	0	2		66.0	2.5	/experiments/knapen_aot/videos/R_S_yt-qazCIJqjxUU_3.mp4	0.0	317.6354088783264	
68	185.50705981254578	movie	1		301.0	66.0	2.5	/experiments/knapen_aot/videos/R_S_yt-qazCIJqjxUU_3.mp4	0.0	317.6436288356781	2.508362054824829
68	188.0154218673706	fix_post	2		12.0	66.0	2.5	/experiments/knapen_aot/videos/R_S_yt-qazCIJqjxUU_3.mp4	0.0	320.15199089050293	0.10000014305114746
69	188.11542201042175	fix_pre	0		9.0	67.0	2.5	/experiments/knapen_aot/videos/S_yt-NLfzvAJgyJ4_120.mp4	0.0	320.2519910335541	0.07494282722473145
69	188.18226790428162	response	0	2		67.0	2.5	/experiments/knapen_aot/videos/S_yt-NLfzvAJgyJ4_120.mp4	0.0	320.31883692741394	
69	188.19036483764648	movie	1		301.0	67.0	2.5	/experiments/knapen_aot/videos/S_yt-NLfzvAJgyJ4_120.mp4	0.0	320.3269338607788	2.508355140686035
69	190.69871997833252	fix_post	2		12.0	67.0	2.5	/experiments/knapen_aot/videos/S_yt-NLfzvAJgyJ4_120.mp4	0.0	322.83528900146484	0.09996390342712402
70	190.79868388175964	fix_pre	0		10.0	68.0	2.5	blank	1.0	322.93525290489197	0.08340096473693848
70	190.8738558292389	response	0	2		68.0	2.5	blank	1.0	323.0104248523712	
70	190.88208484649658	movie	1		301.0	68.0	2.5	blank	1.0	323.0186538696289	2.5082931518554688
70	193.39037799835205	fix_post	2		12.0	68.0	2.5	blank	1.0	325.5269470214844	0.10003304481506348
71	193.49041104316711	fix_pre	0		45.0	69.0	2.5	/experiments/knapen_aot/videos/S_video_inspire_oregon_lone-ranch-beach_00021.1080-h264.mp4	0.0	325.62698006629944	0.3748807907104492
71	193.85723280906677	response	0	2		69.0	2.5	/experiments/knapen_aot/videos/S_video_inspire_oregon_lone-ranch-beach_00021.1080-h264.mp4	0.0	325.9938018321991	
71	193.86529183387756	movie	1		163.0	69.0	2.5	/experiments/knapen_aot/videos/S_video_inspire_oregon_lone-ranch-beach_00021.1080-h264.mp4	0.0	326.0018608570099	2.5085999965667725
71	196.37389183044434	fix_post	2		12.0	69.0	2.5	/experiments/knapen_aot/videos/S_video_inspire_oregon_lone-ranch-beach_00021.1080-h264.mp4	0.0	328.51046085357666	0.0997769832611084
72	196.47366881370544	fix_pre	0		20.0	70.0	2.5	/experiments/knapen_aot/videos/S_comp_A103_C002_0205DG_v12_SDR_FINAL_20180706_SDR_2K_AVC.mp4	0.0	328.61023783683777	0.16701722145080566
72	196.6245939731598	response	0	2		70.0	2.5	/experiments/knapen_aot/videos/S_comp_A103_C002_0205DG_v12_SDR_FINAL_20180706_SDR_2K_AVC.mp4	0.0	328.7611629962921	
72	196.64068603515625	movie	1		166.0	70.0	2.5	/experiments/knapen_aot/videos/S_comp_A103_C002_0205DG_v12_SDR_FINAL_20180706_SDR_2K_AVC.mp4	0.0	328.7772550582886	2.508035898208618
72	199.14872193336487	fix_post	2		12.0	70.0	2.5	/experiments/knapen_aot/videos/S_comp_A103_C002_0205DG_v12_SDR_FINAL_20180706_SDR_2K_AVC.mp4	0.0	331.2852909564972	0.10000205039978027
73	199.24872398376465	fix_pre	0		28.0	71.0	2.5	/experiments/knapen_aot/videos/R_S_comp_LW_L001_C006_PSNK_DENOISE_v02_SDR_PS_FINAL_20180709_SDR_2K_AVC.mp4	0.0	331.385293006897	0.23337388038635254
73	199.4736909866333	response	0	2		71.0	2.5	/experiments/knapen_aot/videos/R_S_comp_LW_L001_C006_PSNK_DENOISE_v02_SDR_PS_FINAL_20180709_SDR_2K_AVC.mp4	0.0	331.6102600097656	
73	199.482097864151	movie	1		165.0	71.0	2.5	/experiments/knapen_aot/videos/R_S_comp_LW_L001_C006_PSNK_DENOISE_v02_SDR_PS_FINAL_20180709_SDR_2K_AVC.mp4	0.0	331.6186668872833	2.50816011428833
73	201.99025797843933	fix_post	2		12.0	71.0	2.5	/experiments/knapen_aot/videos/R_S_comp_LW_L001_C006_PSNK_DENOISE_v02_SDR_PS_FINAL_20180709_SDR_2K_AVC.mp4	0.0	334.12682700157166	0.10013294219970703
74	202.09039092063904	fix_pre	0		8.0	72.0	2.5	/experiments/knapen_aot/videos/S_wc-_W9iefBXz8bi_23.mp4	0.0	334.22695994377136	0.06660199165344238
74	202.14870190620422	response	0	2		72.0	2.5	/experiments/knapen_aot/videos/S_wc-_W9iefBXz8bi_23.mp4	0.0	334.28527092933655	
74	202.15699291229248	movie	1		165.0	72.0	2.5	/experiments/knapen_aot/videos/S_wc-_W9iefBXz8bi_23.mp4	0.0	334.2935619354248	2.5083160400390625
74	204.66530895233154	fix_post	2		12.0	72.0	2.5	/experiments/knapen_aot/videos/S_wc-_W9iefBXz8bi_23.mp4	0.0	336.80187797546387	0.10000896453857422
75	204.76531791687012	fix_pre	0		19.0	73.0	2.5	/experiments/knapen_aot/videos/R_S_yt-O6W6CZPXvlA_15.mp4	0.0	336.90188694000244	0.15834689140319824
75	204.91547203063965	response	0	2		73.0	2.5	/experiments/knapen_aot/videos/R_S_yt-O6W6CZPXvlA_15.mp4	0.0	337.052041053772	
75	204.92366480827332	movie	1		301.0	73.0	2.5	/experiments/knapen_aot/videos/R_S_yt-O6W6CZPXvlA_15.mp4	0.0	337.06023383140564	2.508258104324341
75	207.43192291259766	fix_post	2		12.0	73.0	2.5	/experiments/knapen_aot/videos/R_S_yt-O6W6CZPXvlA_15.mp4	0.0	339.56849193573	0.10027408599853516
76	207.5321969985962	fix_pre	0		40.0	74.0	2.5	/experiments/knapen_aot/videos/S_P001_C005_UHD_SDR_2K_AVC.mp4	0.0	339.6687660217285	0.3331258296966553
76	207.8570749759674	response	0	2		74.0	2.5	/experiments/knapen_aot/videos/S_P001_C005_UHD_SDR_2K_AVC.mp4	0.0	339.99364399909973	
76	207.86532282829285	movie	1		167.0	74.0	2.5	/experiments/knapen_aot/videos/S_P001_C005_UHD_SDR_2K_AVC.mp4	0.0	340.00189185142517	2.5084969997406006
76	210.37381982803345	fix_post	2		12.0	74.0	2.5	/experiments/knapen_aot/videos/S_P001_C005_UHD_SDR_2K_AVC.mp4	0.0	342.51038885116577	0.09980010986328125
77	210.47361993789673	fix_pre	0		11.0	75.0	2.5	/experiments/knapen_aot/videos/R_S_yt-wz2opOBqClo_14.mp4	0.0	342.61018896102905	0.09174895286560059
77	210.55708503723145	response	0	2		75.0	2.5	/experiments/knapen_aot/videos/R_S_yt-wz2opOBqClo_14.mp4	0.0	342.69365406036377	
77	210.56536889076233	movie	1		301.0	75.0	2.5	/experiments/knapen_aot/videos/R_S_yt-wz2opOBqClo_14.mp4	0.0	342.70193791389465	2.5082521438598633
77	213.0736210346222	fix_post	2		12.0	75.0	2.5	/experiments/knapen_aot/videos/R_S_yt-wz2opOBqClo_14.mp4	0.0	345.2101900577545	0.09996795654296875
78	213.17358899116516	fix_pre	0		2.0	76.0	2.5	/experiments/knapen_aot/videos/R_S_comp_N003_C006_PS_v01_SDR_PS_20180925_SDR_2K_AVC.mp4	0.0	345.3101580142975	0.016643047332763672
78	213.1826729774475	response	0	2		76.0	2.5	/experiments/knapen_aot/videos/R_S_comp_N003_C006_PS_v01_SDR_PS_20180925_SDR_2K_AVC.mp4	0.0	345.31924200057983	
78	213.19023203849792	movie	1		168.0	76.0	2.5	/experiments/knapen_aot/videos/R_S_comp_N003_C006_PS_v01_SDR_PS_20180925_SDR_2K_AVC.mp4	0.0	345.32680106163025	2.508570909500122
78	215.69880294799805	fix_post	2		12.0	76.0	2.5	/experiments/knapen_aot/videos/R_S_comp_N003_C006_PS_v01_SDR_PS_20180925_SDR_2K_AVC.mp4	0.0	347.83537197113037	0.09977102279663086
79	215.79857397079468	fix_pre	0		20.0	77.0	2.5	blank	1.0	347.935142993927	0.16675090789794922
79	215.95691299438477	response	0	2		77.0	2.5	blank	1.0	348.0934820175171	
79	215.96532487869263	movie	1		301.0	77.0	2.5	blank	1.0	348.10189390182495	2.5082740783691406
79	218.28200483322144	response	1	2		77.0	2.5	blank	1.0	350.41857385635376	
79	218.47359895706177	fix_post	2		12.0	77.0	2.5	blank	1.0	350.6101679801941	0.1000208854675293
80	218.5736198425293	fix_pre	0		18.0	78.0	2.5	/experiments/knapen_aot/videos/R_S_yt-hdZEAsVBEEM_19.mp4	0.0	350.7101888656616	0.15019702911376953
80	218.7153148651123	response	0	2		78.0	2.5	/experiments/knapen_aot/videos/R_S_yt-hdZEAsVBEEM_19.mp4	0.0	350.85188388824463	
80	218.72381687164307	movie	1		301.0	78.0	2.5	/experiments/knapen_aot/videos/R_S_yt-hdZEAsVBEEM_19.mp4	0.0	350.8603858947754	2.5081520080566406
80	221.2319688796997	fix_post	2		12.0	78.0	2.5	/experiments/knapen_aot/videos/R_S_yt-hdZEAsVBEEM_19.mp4	0.0	353.36853790283203	0.09993600845336914
81	221.33190488815308	fix_pre	0		10.0	79.0	2.5	/experiments/knapen_aot/videos/S_g201_TH_804_A001_8_SDR_20191031_SDR_2K_AVC.mp4	0.0	353.4684739112854	0.08342313766479492
81	221.40694785118103	response	0	2		79.0	2.5	/experiments/knapen_aot/videos/S_g201_TH_804_A001_8_SDR_20191031_SDR_2K_AVC.mp4	0.0	353.54351687431335	
81	221.41532802581787	movie	1		165.0	79.0	2.5	/experiments/knapen_aot/videos/S_g201_TH_804_A001_8_SDR_20191031_SDR_2K_AVC.mp4	0.0	353.5518970489502	2.5083749294281006
81	223.92370295524597	fix_post	2		12.0	79.0	2.5	/experiments/knapen_aot/videos/S_g201_TH_804_A001_8_SDR_20191031_SDR_2K_AVC.mp4	0.0	356.0602719783783	0.09985995292663574
82	224.0235629081726	fix_pre	0		14.0	80.0	2.5	/experiments/knapen_aot/videos/S_yt-Wf-RauSbVgA_56.mp4	0.0	356.16013193130493	0.1168980598449707
82	224.13193702697754	response	0	2		80.0	2.5	/experiments/knapen_aot/videos/S_yt-Wf-RauSbVgA_56.mp4	0.0	356.26850605010986	
82	224.14046096801758	movie	1		301.0	80.0	2.5	/experiments/knapen_aot/videos/S_yt-Wf-RauSbVgA_56.mp4	0.0	356.2770299911499	2.5080819129943848
82	226.64854288101196	fix_post	2		12.0	80.0	2.5	/experiments/knapen_aot/videos/S_yt-Wf-RauSbVgA_56.mp4	0.0	358.7851119041443	0.1000220775604248
83	226.7485649585724	fix_pre	0		12.0	81.0	2.5	/experiments/knapen_aot/videos/S_pexels-cottonbro-6844209.mp4	0.0	358.8851339817047	0.10019397735595703
83	226.84019494056702	response	0	2		81.0	2.5	/experiments/knapen_aot/videos/S_pexels-cottonbro-6844209.mp4	0.0	358.97676396369934	
83	226.84875893592834	movie	1		192.0	81.0	2.5	/experiments/knapen_aot/videos/S_pexels-cottonbro-6844209.mp4	0.0	358.98532795906067	2.5081429481506348
83	229.35690188407898	fix_post	2		12.0	81.0	2.5	/experiments/knapen_aot/videos/S_pexels-cottonbro-6844209.mp4	0.0	361.4934709072113	0.10000014305114746
83	229.42362904548645	response	2	2		81.0	2.5	/experiments/knapen_aot/videos/S_pexels-cottonbro-6844209.mp4	0.0	361.5601980686188	
84	229.45690202713013	fix_pre	0		44.0	82.0	2.5	/experiments/knapen_aot/videos/R_S_ILSVRC2015_train_00473000.mp4	0.0	361.59347105026245	0.3665928840637207
84	229.8152768611908	response	0	2		82.0	2.5	/experiments/knapen_aot/videos/R_S_ILSVRC2015_train_00473000.mp4	0.0	361.9518458843231	
84	229.82349491119385	movie	1		301.0	82.0	2.5	/experiments/knapen_aot/videos/R_S_ILSVRC2015_train_00473000.mp4	0.0	361.9600639343262	2.508568048477173
84	232.33206295967102	fix_post	2		12.0	82.0	2.5	/experiments/knapen_aot/videos/R_S_ILSVRC2015_train_00473000.mp4	0.0	364.46863198280334	0.10008788108825684
85	232.43215084075928	fix_pre	0		12.0	83.0	2.5	blank	1.0	364.5687198638916	0.09971308708190918
85	232.52360486984253	response	0	2		83.0	2.5	blank	1.0	364.66017389297485	
85	232.5318639278412	movie	1		301.0	83.0	2.5	blank	1.0	364.6684329509735	2.508315086364746
85	235.04017901420593	fix_post	2		12.0	83.0	2.5	blank	1.0	367.17674803733826	0.10028600692749023
87	235.14046502113342	stim	0		296.0					367.27703404426575	2.4663569927215576
87	235.24025702476501	response	0	2						367.37682604789734	
87	237.6037459373474	response	0	space						369.74031496047974	
