trial_nr	onset	event_type	phase	response	nr_frames	movie_index	movie_duration	movie_file	blank	onset_abs	duration
0	0.12544918060302734	stim	0		55.0					62.64139914512634	0.4583139419555664
0	0.5750861167907715	response	0	space						63.09103608131409	
1	0.5837631225585938	stim	0		121.0					63.09971308708191	1.0074830055236816
1	1.5912461280822754	stim	1		120.0					64.10719609260559	0.9999918937683105
1	2.3080639839172363	response	1	space						64.82401394844055	
2	2.591238021850586	fix_pre	0		48.0	0.0	2.5	/experiments/knapen_aot/videos/S_yt-4sSV4iIs8gQ_55.mp4	0.0	65.1071879863739	0.39998316764831543
2	2.983013153076172	response	0	space		0.0	2.5	/experiments/knapen_aot/videos/S_yt-4sSV4iIs8gQ_55.mp4	0.0	65.49896311759949	
2	2.9912211894989014	movie	1		299.0	0.0	2.5	/experiments/knapen_aot/videos/S_yt-4sSV4iIs8gQ_55.mp4	0.0	65.50717115402222	2.5083718299865723
2	5.499593019485474	fix_post	2		12.0	0.0	2.5	/experiments/knapen_aot/videos/S_yt-4sSV4iIs8gQ_55.mp4	0.0	68.01554298400879	0.0999901294708252
3	5.599583148956299	fix_pre	0		48.0	1.0	2.5	/experiments/knapen_aot/videos/R_S_comp_GMT329_113NC_396B_1105_CHINA_v04_SDR_FINAL_20180706_F900F2700_SDR_2K_AVC.mp4	0.0	68.11553311347961	0.4004709720611572
3	5.9942591190338135	response	0	2		1.0	2.5	/experiments/knapen_aot/videos/R_S_comp_GMT329_113NC_396B_1105_CHINA_v04_SDR_FINAL_20180706_F900F2700_SDR_2K_AVC.mp4	0.0	68.51020908355713	
3	6.000054121017456	movie	1		164.0	1.0	2.5	/experiments/knapen_aot/videos/R_S_comp_GMT329_113NC_396B_1105_CHINA_v04_SDR_FINAL_20180706_F900F2700_SDR_2K_AVC.mp4	0.0	68.51600408554077	2.50775408744812
3	8.507808208465576	fix_post	2		12.0	1.0	2.5	/experiments/knapen_aot/videos/R_S_comp_GMT329_113NC_396B_1105_CHINA_v04_SDR_FINAL_20180706_F900F2700_SDR_2K_AVC.mp4	0.0	71.02375817298889	0.09996891021728516
4	8.607777118682861	fix_pre	0		47.0	2.0	2.5	/experiments/knapen_aot/videos/S_production_ID_3944248.mp4	0.0	71.12372708320618	0.3922750949859619
4	8.991336107254028	response	0	2		2.0	2.5	/experiments/knapen_aot/videos/S_production_ID_3944248.mp4	0.0	71.50728607177734	
4	9.000052213668823	movie	1		194.0	2.0	2.5	/experiments/knapen_aot/videos/S_production_ID_3944248.mp4	0.0	71.51600217819214	2.5077669620513916
4	11.507819175720215	fix_post	2		12.0	2.0	2.5	/experiments/knapen_aot/videos/S_production_ID_3944248.mp4	0.0	74.02376914024353	0.10001301765441895
5	11.607832193374634	fix_pre	0		46.0	3.0	2.5	/experiments/knapen_aot/videos/R_S_ILSVRC2015_train_00415003.mp4	0.0	74.12378215789795	0.38330793380737305
5	11.98291301727295	response	0	2		3.0	2.5	/experiments/knapen_aot/videos/R_S_ILSVRC2015_train_00415003.mp4	0.0	74.49886298179626	
5	11.991140127182007	movie	1		301.0	3.0	2.5	/experiments/knapen_aot/videos/R_S_ILSVRC2015_train_00415003.mp4	0.0	74.50709009170532	2.5083119869232178
5	14.499452114105225	fix_post	2		12.0	3.0	2.5	/experiments/knapen_aot/videos/R_S_ILSVRC2015_train_00415003.mp4	0.0	77.01540207862854	0.10003209114074707
6	14.599484205245972	fix_pre	0		30.0	4.0	2.5	/experiments/knapen_aot/videos/R_S_yt-14tjqjjjAEI_15.mp4	0.0	77.11543416976929	0.24996280670166016
6	14.833835124969482	response	0	2		4.0	2.5	/experiments/knapen_aot/videos/R_S_yt-14tjqjjjAEI_15.mp4	0.0	77.3497850894928	
6	14.849447011947632	movie	1		301.0	4.0	2.5	/experiments/knapen_aot/videos/R_S_yt-14tjqjjjAEI_15.mp4	0.0	77.36539697647095	2.5082831382751465
6	17.35773015022278	fix_post	2		12.0	4.0	2.5	/experiments/knapen_aot/videos/R_S_yt-14tjqjjjAEI_15.mp4	0.0	79.8736801147461	0.10062098503112793
7	17.458351135253906	fix_pre	0		32.0	5.0	2.5	blank	1.0	79.97430109977722	0.266049861907959
7	17.716176986694336	response	0	2		5.0	2.5	blank	1.0	80.23212695121765	
7	17.724400997161865	movie	1		301.0	5.0	2.5	blank	1.0	80.24035096168518	2.50838303565979
7	20.232784032821655	fix_post	2		12.0	5.0	2.5	blank	1.0	82.74873399734497	0.09995698928833008
8	20.332741022109985	fix_pre	0		61.0	6.0	2.5	/experiments/knapen_aot/videos/S_production_ID_4325585.mp4	0.0	82.8486909866333	0.5083441734313965
8	20.833028078079224	response	0	2		6.0	2.5	/experiments/knapen_aot/videos/S_production_ID_4325585.mp4	0.0	83.34897804260254	
8	20.841085195541382	movie	1		204.0	6.0	2.5	/experiments/knapen_aot/videos/S_production_ID_4325585.mp4	0.0	83.3570351600647	2.5082809925079346
8	23.349366188049316	fix_post	2		12.0	6.0	2.5	/experiments/knapen_aot/videos/S_production_ID_4325585.mp4	0.0	85.86531615257263	0.10004186630249023
9	23.449408054351807	fix_pre	0		47.0	7.0	2.5	/experiments/knapen_aot/videos/R_S_pexels-anastasia-shuraeva-601407_2.mp4	0.0	85.96535801887512	0.39168810844421387
9	23.83292317390442	response	0	2		7.0	2.5	/experiments/knapen_aot/videos/R_S_pexels-anastasia-shuraeva-601407_2.mp4	0.0	86.34887313842773	
9	23.84109616279602	movie	1		172.0	7.0	2.5	/experiments/knapen_aot/videos/R_S_pexels-anastasia-shuraeva-601407_2.mp4	0.0	86.35704612731934	2.5083298683166504
9	26.34942603111267	fix_post	2		12.0	7.0	2.5	/experiments/knapen_aot/videos/R_S_pexels-anastasia-shuraeva-601407_2.mp4	0.0	88.86537599563599	0.10007905960083008
10	26.4495050907135	fix_pre	0		42.0	8.0	2.5	/experiments/knapen_aot/videos/S_yt-bD1U6bo-6bE_465.mp4	0.0	88.96545505523682	0.34989190101623535
10	26.791321992874146	response	0	2		8.0	2.5	/experiments/knapen_aot/videos/S_yt-bD1U6bo-6bE_465.mp4	0.0	89.30727195739746	
10	26.799396991729736	movie	1		301.0	8.0	2.5	/experiments/knapen_aot/videos/S_yt-bD1U6bo-6bE_465.mp4	0.0	89.31534695625305	2.5083670616149902
10	29.307764053344727	fix_post	2		12.0	8.0	2.5	/experiments/knapen_aot/videos/S_yt-bD1U6bo-6bE_465.mp4	0.0	91.82371401786804	0.1000361442565918
11	29.40780019760132	fix_pre	0		30.0	9.0	2.5	/experiments/knapen_aot/videos/R_S_yt-JQOHHL30Y54_101.mp4	0.0	91.92375016212463	0.24995899200439453
11	29.64953112602234	response	0	2		9.0	2.5	/experiments/knapen_aot/videos/R_S_yt-JQOHHL30Y54_101.mp4	0.0	92.16548109054565	
11	29.657759189605713	movie	1		301.0	9.0	2.5	/experiments/knapen_aot/videos/R_S_yt-JQOHHL30Y54_101.mp4	0.0	92.17370915412903	2.508309841156006
11	32.16606903076172	fix_post	2		12.0	9.0	2.5	/experiments/knapen_aot/videos/R_S_yt-JQOHHL30Y54_101.mp4	0.0	94.68201899528503	0.10001707077026367
12	32.26608610153198	fix_pre	0		50.0	10.0	2.5	/experiments/knapen_aot/videos/S_yt-JPsTqfqfPIY_319.mp4	0.0	94.7820360660553	0.41660404205322266
12	32.67451810836792	response	0	2		10.0	2.5	/experiments/knapen_aot/videos/S_yt-JPsTqfqfPIY_319.mp4	0.0	95.19046807289124	
12	32.682690143585205	movie	1		301.0	10.0	2.5	/experiments/knapen_aot/videos/S_yt-JPsTqfqfPIY_319.mp4	0.0	95.19864010810852	2.5083930492401123
12	35.19108319282532	fix_post	2		12.0	10.0	2.5	/experiments/knapen_aot/videos/S_yt-JPsTqfqfPIY_319.mp4	0.0	97.70703315734863	0.10044980049133301
13	35.29153299331665	fix_pre	0		104.0	11.0	2.5	/experiments/knapen_aot/videos/S_yt-eVAlSjH8E8k_127.mp4	0.0	97.80748295783997	0.8661360740661621
13	36.1495361328125	response	0	2		11.0	2.5	/experiments/knapen_aot/videos/S_yt-eVAlSjH8E8k_127.mp4	0.0	98.66548609733582	
13	36.15766906738281	movie	1		301.0	11.0	2.5	/experiments/knapen_aot/videos/S_yt-eVAlSjH8E8k_127.mp4	0.0	98.67361903190613	2.508526086807251
13	38.66619515419006	fix_post	2		12.0	11.0	2.5	/experiments/knapen_aot/videos/S_yt-eVAlSjH8E8k_127.mp4	0.0	101.18214511871338	0.09985995292663574
14	38.7660551071167	fix_pre	0		57.0	12.0	2.5	/experiments/knapen_aot/videos/S_production_ID_4325516.mp4	0.0	101.28200507164001	0.4749751091003418
14	39.23279905319214	response	0	2		12.0	2.5	/experiments/knapen_aot/videos/S_production_ID_4325516.mp4	0.0	101.74874901771545	
14	39.24103021621704	movie	1		198.0	12.0	2.5	/experiments/knapen_aot/videos/S_production_ID_4325516.mp4	0.0	101.75698018074036	2.508309841156006
14	41.74934005737305	fix_post	2		12.0	12.0	2.5	/experiments/knapen_aot/videos/S_production_ID_4325516.mp4	0.0	104.26529002189636	0.10009002685546875
15	41.849430084228516	fix_pre	0		49.0	13.0	2.5	/experiments/knapen_aot/videos/S_yt-CR86bVrRwfo_13.mp4	0.0	104.36538004875183	0.408236026763916
15	42.24952816963196	response	0	2		13.0	2.5	/experiments/knapen_aot/videos/S_yt-CR86bVrRwfo_13.mp4	0.0	104.76547813415527	
15	42.25766611099243	movie	1		301.0	13.0	2.5	/experiments/knapen_aot/videos/S_yt-CR86bVrRwfo_13.mp4	0.0	104.77361607551575	2.5084660053253174
15	44.76613211631775	fix_post	2		12.0	13.0	2.5	/experiments/knapen_aot/videos/S_yt-CR86bVrRwfo_13.mp4	0.0	107.28208208084106	0.0998380184173584
16	44.86597013473511	fix_pre	0		42.0	14.0	2.5	blank	1.0	107.38192009925842	0.3500828742980957
16	45.20778799057007	response	0	2		14.0	2.5	blank	1.0	107.72373795509338	
16	45.2160530090332	movie	1		301.0	14.0	2.5	blank	1.0	107.73200297355652	2.508294105529785
16	47.72434711456299	fix_post	2		12.0	14.0	2.5	blank	1.0	110.2402970790863	0.10002493858337402
17	47.82437205314636	fix_pre	0		264.0	15.0	2.5	/experiments/knapen_aot/videos/R_S_production_ID_4101242.mp4	0.0	110.34032201766968	2.199954032897949
17	50.01610612869263	response	0	2		15.0	2.5	/experiments/knapen_aot/videos/R_S_production_ID_4101242.mp4	0.0	112.53205609321594	
17	50.02432608604431	movie	1		205.0	15.0	2.5	/experiments/knapen_aot/videos/R_S_production_ID_4101242.mp4	0.0	112.54027605056763	2.5083529949188232
17	52.532679080963135	fix_post	2		12.0	15.0	2.5	/experiments/knapen_aot/videos/R_S_production_ID_4101242.mp4	0.0	115.04862904548645	0.09996294975280762
18	52.63264203071594	fix_pre	0		35.0	16.0	2.5	/experiments/knapen_aot/videos/S_yt-2LCHVTVwJ5E_235.mp4	0.0	115.14859199523926	0.29161596298217773
18	52.91614818572998	response	0	2		16.0	2.5	/experiments/knapen_aot/videos/S_yt-2LCHVTVwJ5E_235.mp4	0.0	115.4320981502533	
18	52.92425799369812	movie	1		301.0	16.0	2.5	/experiments/knapen_aot/videos/S_yt-2LCHVTVwJ5E_235.mp4	0.0	115.44020795822144	2.5083250999450684
18	55.43258309364319	fix_post	2		12.0	16.0	2.5	/experiments/knapen_aot/videos/S_yt-2LCHVTVwJ5E_235.mp4	0.0	117.9485330581665	0.10016894340515137
19	55.53275203704834	fix_pre	0		71.0	17.0	2.5	/experiments/knapen_aot/videos/S_yt-dWF89kq2JIA_13.mp4	0.0	118.04870200157166	0.5918021202087402
19	56.1160991191864	response	0	2		17.0	2.5	/experiments/knapen_aot/videos/S_yt-dWF89kq2JIA_13.mp4	0.0	118.63204908370972	
19	56.12455415725708	movie	1		298.0	17.0	2.5	/experiments/knapen_aot/videos/S_yt-dWF89kq2JIA_13.mp4	0.0	118.6405041217804	2.5079870223999023
19	58.63254117965698	fix_post	2		12.0	17.0	2.5	/experiments/knapen_aot/videos/S_yt-dWF89kq2JIA_13.mp4	0.0	121.1484911441803	0.10007095336914062
20	58.73261213302612	fix_pre	0		51.0	18.0	2.5	/experiments/knapen_aot/videos/S_yt-fGN7sGPy8BA_13.mp4	0.0	121.24856209754944	0.4249699115753174
20	59.1418821811676	response	0	2		18.0	2.5	/experiments/knapen_aot/videos/S_yt-fGN7sGPy8BA_13.mp4	0.0	121.65783214569092	
20	59.15758204460144	movie	1		301.0	18.0	2.5	/experiments/knapen_aot/videos/S_yt-fGN7sGPy8BA_13.mp4	0.0	121.67353200912476	2.5083250999450684
20	61.66590714454651	fix_post	2		12.0	18.0	2.5	/experiments/knapen_aot/videos/S_yt-fGN7sGPy8BA_13.mp4	0.0	124.18185710906982	0.099945068359375
21	61.765852212905884	fix_pre	0		67.0	19.0	2.5	/experiments/knapen_aot/videos/S_yt-OEY9O2MglQM_7.mp4	0.0	124.2818021774292	0.5584309101104736
21	62.31605815887451	response	0	2		19.0	2.5	/experiments/knapen_aot/videos/S_yt-OEY9O2MglQM_7.mp4	0.0	124.83200812339783	
21	62.32428312301636	movie	1		301.0	19.0	2.5	/experiments/knapen_aot/videos/S_yt-OEY9O2MglQM_7.mp4	0.0	124.84023308753967	2.508286952972412
21	64.83257007598877	fix_post	2		12.0	19.0	2.5	/experiments/knapen_aot/videos/S_yt-OEY9O2MglQM_7.mp4	0.0	127.34852004051208	0.09999799728393555
22	64.9325680732727	fix_pre	0		55.0	20.0	2.5	/experiments/knapen_aot/videos/R_S_wc-ZGCMbPfXQ71L_31.mp4	0.0	127.44851803779602	0.4583430290222168
22	65.38271808624268	response	0	2		20.0	2.5	/experiments/knapen_aot/videos/R_S_wc-ZGCMbPfXQ71L_31.mp4	0.0	127.89866805076599	
22	65.39091110229492	movie	1		166.0	20.0	2.5	/experiments/knapen_aot/videos/R_S_wc-ZGCMbPfXQ71L_31.mp4	0.0	127.90686106681824	2.5083189010620117
22	67.89923000335693	fix_post	2		12.0	20.0	2.5	/experiments/knapen_aot/videos/R_S_wc-ZGCMbPfXQ71L_31.mp4	0.0	130.41517996788025	0.10031914710998535
23	67.99954915046692	fix_pre	0		40.0	21.0	2.5	blank	1.0	130.51549911499023	0.33331298828125
23	68.32440710067749	response	0	2		21.0	2.5	blank	1.0	130.8403570652008	
23	68.33286213874817	movie	1		301.0	21.0	2.5	blank	1.0	130.84881210327148	2.5080649852752686
23	70.84092712402344	fix_post	2		12.0	21.0	2.5	blank	1.0	133.35687708854675	0.10001206398010254
24	70.94093918800354	fix_pre	0		72.0	22.0	2.5	/experiments/knapen_aot/videos/S_yt-n1snPiGfg0A_45.mp4	0.0	133.45688915252686	0.6002168655395508
24	71.53269004821777	response	0	2		22.0	2.5	/experiments/knapen_aot/videos/S_yt-n1snPiGfg0A_45.mp4	0.0	134.0486400127411	
24	71.54115605354309	movie	1		300.0	22.0	2.5	/experiments/knapen_aot/videos/S_yt-n1snPiGfg0A_45.mp4	0.0	134.0571060180664	2.5080931186676025
24	74.0492491722107	fix_post	2		12.0	22.0	2.5	/experiments/knapen_aot/videos/S_yt-n1snPiGfg0A_45.mp4	0.0	136.565199136734	0.0999150276184082
25	74.1491641998291	fix_pre	0		29.0	23.0	2.5	/experiments/knapen_aot/videos/S_ILSVRC2015_train_00460000.mp4	0.0	136.66511416435242	0.2417159080505371
25	74.38265609741211	response	0	2		23.0	2.5	/experiments/knapen_aot/videos/S_ILSVRC2015_train_00460000.mp4	0.0	136.89860606193542	
25	74.39088010787964	movie	1		301.0	23.0	2.5	/experiments/knapen_aot/videos/S_ILSVRC2015_train_00460000.mp4	0.0	136.90683007240295	2.5083699226379395
25	76.89925003051758	fix_post	2		12.0	23.0	2.5	/experiments/knapen_aot/videos/S_ILSVRC2015_train_00460000.mp4	0.0	139.4151999950409	0.10030817985534668
26	76.99955821037292	fix_pre	0		25.0	24.0	2.5	/experiments/knapen_aot/videos/S_ILSVRC2015_train_00584001.mp4	0.0	139.51550817489624	0.20815777778625488
26	77.1993989944458	response	0	2		24.0	2.5	/experiments/knapen_aot/videos/S_ILSVRC2015_train_00584001.mp4	0.0	139.71534895896912	
26	77.20771598815918	movie	1		301.0	24.0	2.5	/experiments/knapen_aot/videos/S_ILSVRC2015_train_00584001.mp4	0.0	139.7236659526825	2.5081050395965576
26	79.71582102775574	fix_post	2		12.0	24.0	2.5	/experiments/knapen_aot/videos/S_ILSVRC2015_train_00584001.mp4	0.0	142.23177099227905	0.10005807876586914
27	79.8158791065216	fix_pre	0		47.0	25.0	2.5	/experiments/knapen_aot/videos/S_pexels-rodnae-productions-7467585.mp4	0.0	142.33182907104492	0.3917980194091797
27	80.19932103157043	response	0	2		25.0	2.5	/experiments/knapen_aot/videos/S_pexels-rodnae-productions-7467585.mp4	0.0	142.71527099609375	
27	80.20767712593079	movie	1		164.0	25.0	2.5	/experiments/knapen_aot/videos/S_pexels-rodnae-productions-7467585.mp4	0.0	142.7236270904541	2.5082459449768066
27	82.71592307090759	fix_post	2		12.0	25.0	2.5	/experiments/knapen_aot/videos/S_pexels-rodnae-productions-7467585.mp4	0.0	145.2318730354309	0.09993195533752441
28	82.81585502624512	fix_pre	0		33.0	26.0	2.5	/experiments/knapen_aot/videos/S_yt-ZtS7ZrJ_rtk_525.mp4	0.0	145.33180499076843	0.27496910095214844
28	83.08265900611877	response	0	2		26.0	2.5	/experiments/knapen_aot/videos/S_yt-ZtS7ZrJ_rtk_525.mp4	0.0	145.5986089706421	
28	83.09082412719727	movie	1		301.0	26.0	2.5	/experiments/knapen_aot/videos/S_yt-ZtS7ZrJ_rtk_525.mp4	0.0	145.60677409172058	2.5082569122314453
28	85.59908103942871	fix_post	2		12.0	26.0	2.5	/experiments/knapen_aot/videos/S_yt-ZtS7ZrJ_rtk_525.mp4	0.0	148.11503100395203	0.10011506080627441
29	85.69919610023499	fix_pre	0		23.0	27.0	2.5	/experiments/knapen_aot/videos/R_S_yt-KK6fVRAMm-c_476.mp4	0.0	148.2151460647583	0.19159507751464844
29	85.88263010978699	response	0	2		27.0	2.5	/experiments/knapen_aot/videos/R_S_yt-KK6fVRAMm-c_476.mp4	0.0	148.3985800743103	
29	85.89079117774963	movie	1		299.0	27.0	2.5	/experiments/knapen_aot/videos/R_S_yt-KK6fVRAMm-c_476.mp4	0.0	148.40674114227295	2.508464813232422
29	88.39925599098206	fix_post	2		12.0	27.0	2.5	/experiments/knapen_aot/videos/R_S_yt-KK6fVRAMm-c_476.mp4	0.0	150.91520595550537	0.10005021095275879
30	88.49930620193481	fix_pre	0		23.0	28.0	2.5	blank	1.0	151.01525616645813	0.19150185585021973
30	88.68265008926392	response	0	2		28.0	2.5	blank	1.0	151.19860005378723	
30	88.69080805778503	movie	1		301.0	28.0	2.5	blank	1.0	151.20675802230835	2.508388042449951
30	91.19919610023499	fix_post	2		12.0	28.0	2.5	blank	1.0	153.7151460647583	0.09993290901184082
31	91.29912900924683	fix_pre	0		50.0	29.0	2.5	/experiments/knapen_aot/videos/S_yt-Ub5Xx5BqIOk_74.mp4	0.0	153.81507897377014	0.41658616065979004
31	91.70763421058655	response	0	2		29.0	2.5	/experiments/knapen_aot/videos/S_yt-Ub5Xx5BqIOk_74.mp4	0.0	154.22358417510986	
31	91.71571516990662	movie	1		301.0	29.0	2.5	/experiments/knapen_aot/videos/S_yt-Ub5Xx5BqIOk_74.mp4	0.0	154.23166513442993	2.5083529949188232
31	94.22406816482544	fix_post	2		12.0	29.0	2.5	/experiments/knapen_aot/videos/S_yt-Ub5Xx5BqIOk_74.mp4	0.0	156.74001812934875	0.1000528335571289
32	94.32412099838257	fix_pre	0		78.0	30.0	2.5	/experiments/knapen_aot/videos/R_S_pexels-anthony-shkraba-7569650.mp4	0.0	156.84007096290588	0.6499881744384766
32	94.9659640789032	response	0	2		30.0	2.5	/experiments/knapen_aot/videos/R_S_pexels-anthony-shkraba-7569650.mp4	0.0	157.4819140434265	
32	94.97410917282104	movie	1		189.0	30.0	2.5	/experiments/knapen_aot/videos/R_S_pexels-anthony-shkraba-7569650.mp4	0.0	157.49005913734436	2.5083608627319336
32	97.48247003555298	fix_post	2		12.0	30.0	2.5	/experiments/knapen_aot/videos/R_S_pexels-anthony-shkraba-7569650.mp4	0.0	159.9984200000763	0.10010004043579102
33	97.58257007598877	fix_pre	0		56.0	31.0	2.5	/experiments/knapen_aot/videos/R_S_yt-ZtS7ZrJ_rtk_525.mp4	0.0	160.09852004051208	0.4665200710296631
33	98.04091620445251	response	0	2		31.0	2.5	/experiments/knapen_aot/videos/R_S_yt-ZtS7ZrJ_rtk_525.mp4	0.0	160.55686616897583	
33	98.04909014701843	movie	1		301.0	31.0	2.5	/experiments/knapen_aot/videos/R_S_yt-ZtS7ZrJ_rtk_525.mp4	0.0	160.56504011154175	2.50834584236145
33	100.55743598937988	fix_post	2		12.0	31.0	2.5	/experiments/knapen_aot/videos/R_S_yt-ZtS7ZrJ_rtk_525.mp4	0.0	163.0733859539032	0.09990906715393066
34	100.65734505653381	fix_pre	0		102.0	32.0	2.5	/experiments/knapen_aot/videos/S_yt-KK6fVRAMm-c_476.mp4	0.0	163.17329502105713	0.8500659465789795
34	101.49172019958496	response	0	2		32.0	2.5	/experiments/knapen_aot/videos/S_yt-KK6fVRAMm-c_476.mp4	0.0	164.00767016410828	
34	101.5074110031128	movie	1		301.0	32.0	2.5	/experiments/knapen_aot/videos/S_yt-KK6fVRAMm-c_476.mp4	0.0	164.0233609676361	2.5083742141723633
34	104.01578521728516	fix_post	2		12.0	32.0	2.5	/experiments/knapen_aot/videos/S_yt-KK6fVRAMm-c_476.mp4	0.0	166.53173518180847	0.10002994537353516
35	104.11581516265869	fix_pre	0		46.0	33.0	2.5	blank	1.0	166.631765127182	0.38338303565979004
35	104.49095320701599	response	0	2		33.0	2.5	blank	1.0	167.0069031715393	
35	104.49919819831848	movie	1		301.0	33.0	2.5	blank	1.0	167.0151481628418	2.508222818374634
35	107.00742101669312	fix_post	2		12.0	33.0	2.5	blank	1.0	169.52337098121643	0.10005807876586914
36	107.10747909545898	fix_pre	0		52.0	34.0	2.5	/experiments/knapen_aot/videos/S_production_ID_4997166.mp4	0.0	169.6234290599823	0.4333679676055908
36	107.53259110450745	response	0	2		34.0	2.5	/experiments/knapen_aot/videos/S_production_ID_4997166.mp4	0.0	170.04854106903076	
36	107.54084706306458	movie	1		166.0	34.0	2.5	/experiments/knapen_aot/videos/S_production_ID_4997166.mp4	0.0	170.0567970275879	2.508265972137451
36	110.04911303520203	fix_post	2		12.0	34.0	2.5	/experiments/knapen_aot/videos/S_production_ID_4997166.mp4	0.0	172.56506299972534	0.09999299049377441
37	110.1491060256958	fix_pre	0		40.0	35.0	2.5	/experiments/knapen_aot/videos/S_yt-GWOOQZ19-oU_331.mp4	0.0	172.66505599021912	0.33333706855773926
37	110.4742500782013	response	0	2		35.0	2.5	/experiments/knapen_aot/videos/S_yt-GWOOQZ19-oU_331.mp4	0.0	172.9902000427246	
37	110.48244309425354	movie	1		301.0	35.0	2.5	/experiments/knapen_aot/videos/S_yt-GWOOQZ19-oU_331.mp4	0.0	172.99839305877686	2.5083439350128174
37	112.99078702926636	fix_post	2		12.0	35.0	2.5	/experiments/knapen_aot/videos/S_yt-GWOOQZ19-oU_331.mp4	0.0	175.50673699378967	0.10002398490905762
38	113.09081101417542	fix_pre	0		44.0	36.0	2.5	/experiments/knapen_aot/videos/S_yt-7Fyu2vr7zbA_31.mp4	0.0	175.60676097869873	0.36663103103637695
38	113.44926404953003	response	0	2		36.0	2.5	/experiments/knapen_aot/videos/S_yt-7Fyu2vr7zbA_31.mp4	0.0	175.96521401405334	
38	113.45744204521179	movie	1		301.0	36.0	2.5	/experiments/knapen_aot/videos/S_yt-7Fyu2vr7zbA_31.mp4	0.0	175.9733920097351	2.5082340240478516
38	115.96567606925964	fix_post	2		12.0	36.0	2.5	/experiments/knapen_aot/videos/S_yt-7Fyu2vr7zbA_31.mp4	0.0	178.48162603378296	0.09997797012329102
39	116.06565403938293	fix_pre	0		110.0	37.0	2.5	/experiments/knapen_aot/videos/R_S_yt-9t5-3Qe_t9A_591.mp4	0.0	178.58160400390625	0.9166769981384277
39	116.96666407585144	response	0	2		37.0	2.5	/experiments/knapen_aot/videos/R_S_yt-9t5-3Qe_t9A_591.mp4	0.0	179.48261404037476	
39	116.98233103752136	movie	1		301.0	37.0	2.5	/experiments/knapen_aot/videos/R_S_yt-9t5-3Qe_t9A_591.mp4	0.0	179.49828100204468	2.5082931518554688
39	119.49062418937683	fix_post	2		12.0	37.0	2.5	/experiments/knapen_aot/videos/R_S_yt-9t5-3Qe_t9A_591.mp4	0.0	182.00657415390015	0.10002684593200684
40	119.59065103530884	fix_pre	0		52.0	38.0	2.5	/experiments/knapen_aot/videos/R_S_wc-7ugQ0V4lxYkJ_131.mp4	0.0	182.10660099983215	0.4333209991455078
40	120.0158200263977	response	0	2		38.0	2.5	/experiments/knapen_aot/videos/R_S_wc-7ugQ0V4lxYkJ_131.mp4	0.0	182.53176999092102	
40	120.02397203445435	movie	1		301.0	38.0	2.5	/experiments/knapen_aot/videos/R_S_wc-7ugQ0V4lxYkJ_131.mp4	0.0	182.53992199897766	2.508409023284912
40	122.53238105773926	fix_post	2		12.0	38.0	2.5	/experiments/knapen_aot/videos/R_S_wc-7ugQ0V4lxYkJ_131.mp4	0.0	185.04833102226257	0.0999300479888916
41	122.63231110572815	fix_pre	0		43.0	39.0	2.5	/experiments/knapen_aot/videos/S_ILSVRC2015_train_00001009.mp4	0.0	185.14826107025146	0.3583550453186035
41	122.98250007629395	response	0	2		39.0	2.5	/experiments/knapen_aot/videos/S_ILSVRC2015_train_00001009.mp4	0.0	185.49845004081726	
41	122.99066615104675	movie	1		301.0	39.0	2.5	/experiments/knapen_aot/videos/S_ILSVRC2015_train_00001009.mp4	0.0	185.50661611557007	2.508333921432495
41	125.49900007247925	fix_post	2		12.0	39.0	2.5	/experiments/knapen_aot/videos/S_ILSVRC2015_train_00001009.mp4	0.0	188.01495003700256	0.10007095336914062
42	125.59907102584839	fix_pre	0		47.0	40.0	2.5	/experiments/knapen_aot/videos/S_pexels-vlada-karpovich-8044792.mp4	0.0	188.1150209903717	0.39160609245300293
42	125.98242712020874	response	0	2		40.0	2.5	/experiments/knapen_aot/videos/S_pexels-vlada-karpovich-8044792.mp4	0.0	188.49837708473206	
42	125.99067711830139	movie	1		165.0	40.0	2.5	/experiments/knapen_aot/videos/S_pexels-vlada-karpovich-8044792.mp4	0.0	188.5066270828247	2.508344888687134
42	128.49902200698853	fix_post	2		12.0	40.0	2.5	/experiments/knapen_aot/videos/S_pexels-vlada-karpovich-8044792.mp4	0.0	191.01497197151184	0.10003519058227539
43	128.5990571975708	fix_pre	0		35.0	41.0	2.5	blank	1.0	191.11500716209412	0.2915949821472168
43	128.88245105743408	response	0	2		41.0	2.5	blank	1.0	191.3984010219574	
43	128.89065217971802	movie	1		301.0	41.0	2.5	blank	1.0	191.40660214424133	2.5083060264587402
43	131.39895820617676	fix_post	2		12.0	41.0	2.5	blank	1.0	193.91490817070007	0.09999489784240723
44	131.49895310401917	fix_pre	0		53.0	42.0	2.5	/experiments/knapen_aot/videos/S_yt--vHa85DHvLU_31.mp4	0.0	194.01490306854248	0.4416539669036865
44	131.93255305290222	response	0	2		42.0	2.5	/experiments/knapen_aot/videos/S_yt--vHa85DHvLU_31.mp4	0.0	194.44850301742554	
44	131.94060707092285	movie	1		301.0	42.0	2.5	/experiments/knapen_aot/videos/S_yt--vHa85DHvLU_31.mp4	0.0	194.45655703544617	2.5083980560302734
44	134.44900512695312	fix_post	2		12.0	42.0	2.5	/experiments/knapen_aot/videos/S_yt--vHa85DHvLU_31.mp4	0.0	196.96495509147644	0.09992599487304688
45	134.54893112182617	fix_pre	0		67.0	43.0	2.5	/experiments/knapen_aot/videos/S_yt-LdHRVIb4nIE_6.mp4	0.0	197.0648810863495	0.5583598613739014
45	135.0991439819336	response	0	2		43.0	2.5	/experiments/knapen_aot/videos/S_yt-LdHRVIb4nIE_6.mp4	0.0	197.6150939464569	
45	135.10729098320007	movie	1		301.0	43.0	2.5	/experiments/knapen_aot/videos/S_yt-LdHRVIb4nIE_6.mp4	0.0	197.6232409477234	2.508355140686035
45	137.6156461238861	fix_post	2		12.0	43.0	2.5	/experiments/knapen_aot/videos/S_yt-LdHRVIb4nIE_6.mp4	0.0	200.13159608840942	0.10002589225769043
46	137.7156720161438	fix_pre	0		43.0	44.0	2.5	/experiments/knapen_aot/videos/R_S_yt-GWOOQZ19-oU_331.mp4	0.0	200.23162198066711	0.35953402519226074
46	138.0658130645752	response	0	2		44.0	2.5	/experiments/knapen_aot/videos/R_S_yt-GWOOQZ19-oU_331.mp4	0.0	200.5817630290985	
46	138.07520604133606	movie	1		301.0	44.0	2.5	/experiments/knapen_aot/videos/R_S_yt-GWOOQZ19-oU_331.mp4	0.0	200.59115600585938	2.507017135620117
46	140.58222317695618	fix_post	2		12.0	44.0	2.5	/experiments/knapen_aot/videos/R_S_yt-GWOOQZ19-oU_331.mp4	0.0	203.0981731414795	0.10002994537353516
47	140.6822531223297	fix_pre	0		44.0	45.0	2.5	/experiments/knapen_aot/videos/S_yt-ebzrQh5ErI4_3.mp4	0.0	203.19820308685303	0.36667799949645996
47	141.04069900512695	response	0	2		45.0	2.5	/experiments/knapen_aot/videos/S_yt-ebzrQh5ErI4_3.mp4	0.0	203.55664896965027	
47	141.04893112182617	movie	1		301.0	45.0	2.5	/experiments/knapen_aot/videos/S_yt-ebzrQh5ErI4_3.mp4	0.0	203.5648810863495	2.5082919597625732
47	143.55722308158875	fix_post	2		12.0	45.0	2.5	/experiments/knapen_aot/videos/S_yt-ebzrQh5ErI4_3.mp4	0.0	206.07317304611206	0.10012412071228027
48	143.65734720230103	fix_pre	0		62.0	46.0	2.5	/experiments/knapen_aot/videos/R_S_yt-9Z9-RT-ysEE_85.mp4	0.0	206.17329716682434	0.5164899826049805
48	144.1657531261444	response	0	2		46.0	2.5	/experiments/knapen_aot/videos/R_S_yt-9Z9-RT-ysEE_85.mp4	0.0	206.68170309066772	
48	144.173837184906	movie	1		301.0	46.0	2.5	/experiments/knapen_aot/videos/R_S_yt-9Z9-RT-ysEE_85.mp4	0.0	206.68978714942932	2.5084187984466553
48	146.68225598335266	fix_post	2		12.0	46.0	2.5	/experiments/knapen_aot/videos/R_S_yt-9Z9-RT-ysEE_85.mp4	0.0	209.19820594787598	0.09998106956481934
49	146.78223705291748	fix_pre	0		27.0	47.0	2.5	/experiments/knapen_aot/videos/S_production_ID_3923518.mp4	0.0	209.2981870174408	0.22496604919433594
49	146.99901604652405	response	0	2		47.0	2.5	/experiments/knapen_aot/videos/S_production_ID_3923518.mp4	0.0	209.51496601104736	
49	147.00720310211182	movie	1		166.0	47.0	2.5	/experiments/knapen_aot/videos/S_production_ID_3923518.mp4	0.0	209.52315306663513	2.508394956588745
49	149.51559805870056	fix_post	2		12.0	47.0	2.5	/experiments/knapen_aot/videos/S_production_ID_3923518.mp4	0.0	212.03154802322388	0.09995293617248535
50	149.61555099487305	fix_pre	0		57.0	48.0	2.5	/experiments/knapen_aot/videos/R_S_yt-2dRSJcaJIXw_32.mp4	0.0	212.13150095939636	0.4750051498413086
50	150.0823791027069	response	0	2		48.0	2.5	/experiments/knapen_aot/videos/R_S_yt-2dRSJcaJIXw_32.mp4	0.0	212.59832906723022	
50	150.09055614471436	movie	1		299.0	48.0	2.5	/experiments/knapen_aot/videos/R_S_yt-2dRSJcaJIXw_32.mp4	0.0	212.60650610923767	2.5082950592041016
50	152.59885120391846	fix_post	2		12.0	48.0	2.5	/experiments/knapen_aot/videos/R_S_yt-2dRSJcaJIXw_32.mp4	0.0	215.11480116844177	0.10000801086425781
51	152.69885921478271	fix_pre	0		31.0	49.0	2.5	blank	1.0	215.21480917930603	0.2583119869232178
51	152.94142699241638	response	0	2		49.0	2.5	blank	1.0	215.4573769569397	
51	152.95717120170593	movie	1		301.0	49.0	2.5	blank	1.0	215.47312116622925	2.5083179473876953
51	155.46548914909363	fix_post	2		12.0	49.0	2.5	blank	1.0	217.98143911361694	0.10007905960083008
52	155.56556820869446	fix_pre	0		48.0	50.0	2.5	/experiments/knapen_aot/videos/S_yt-OEY9O2MglQM_7.mp4	0.0	218.08151817321777	0.3999519348144531
52	155.95740699768066	response	0	2		50.0	2.5	/experiments/knapen_aot/videos/S_yt-OEY9O2MglQM_7.mp4	0.0	218.47335696220398	
52	155.9655201435089	movie	1		301.0	50.0	2.5	/experiments/knapen_aot/videos/S_yt-OEY9O2MglQM_7.mp4	0.0	218.48147010803223	2.5083398818969727
52	158.47386002540588	fix_post	2		12.0	50.0	2.5	/experiments/knapen_aot/videos/S_yt-OEY9O2MglQM_7.mp4	0.0	220.9898099899292	0.10004210472106934
53	158.57390213012695	fix_pre	0		25.0	51.0	2.5	/experiments/knapen_aot/videos/R_S_pexels-artem-podrez-5457692.mp4	0.0	221.08985209465027	0.2094559669494629
53	158.77398800849915	response	0	2		51.0	2.5	/experiments/knapen_aot/videos/R_S_pexels-artem-podrez-5457692.mp4	0.0	221.28993797302246	
53	158.78335809707642	movie	1		163.0	51.0	2.5	/experiments/knapen_aot/videos/R_S_pexels-artem-podrez-5457692.mp4	0.0	221.29930806159973	2.5072760581970215
53	161.29063415527344	fix_post	2		12.0	51.0	2.5	/experiments/knapen_aot/videos/R_S_pexels-artem-podrez-5457692.mp4	0.0	223.80658411979675	0.09993386268615723
54	161.3905680179596	fix_pre	0		34.0	52.0	2.5	/experiments/knapen_aot/videos/R_S_yt-Kwfwhd07dVo_2.mp4	0.0	223.9065179824829	0.28327512741088867
54	161.66566705703735	response	0	2		52.0	2.5	/experiments/knapen_aot/videos/R_S_yt-Kwfwhd07dVo_2.mp4	0.0	224.18161702156067	
54	161.67384314537048	movie	1		301.0	52.0	2.5	/experiments/knapen_aot/videos/R_S_yt-Kwfwhd07dVo_2.mp4	0.0	224.1897931098938	2.5083868503570557
54	164.18222999572754	fix_post	2		12.0	52.0	2.5	/experiments/knapen_aot/videos/R_S_yt-Kwfwhd07dVo_2.mp4	0.0	226.69817996025085	0.09990310668945312
55	164.282133102417	fix_pre	0		53.0	53.0	2.5	/experiments/knapen_aot/videos/R_S_ILSVRC2015_train_00518001.mp4	0.0	226.7980830669403	0.4416389465332031
55	164.71566104888916	response	0	2		53.0	2.5	/experiments/knapen_aot/videos/R_S_ILSVRC2015_train_00518001.mp4	0.0	227.23161101341248	
55	164.7237720489502	movie	1		301.0	53.0	2.5	/experiments/knapen_aot/videos/R_S_ILSVRC2015_train_00518001.mp4	0.0	227.2397220134735	2.5084099769592285
55	167.23218202590942	fix_post	2		12.0	53.0	2.5	/experiments/knapen_aot/videos/R_S_ILSVRC2015_train_00518001.mp4	0.0	229.74813199043274	0.10000801086425781
56	167.33219003677368	fix_pre	0		19.0	54.0	2.5	/experiments/knapen_aot/videos/R_S_yt-D9uD7yM6bxQ_269.mp4	0.0	229.848140001297	0.15940499305725098
56	167.4822871685028	response	0	2		54.0	2.5	/experiments/knapen_aot/videos/R_S_yt-D9uD7yM6bxQ_269.mp4	0.0	229.99823713302612	
56	167.49159502983093	movie	1		301.0	54.0	2.5	/experiments/knapen_aot/videos/R_S_yt-D9uD7yM6bxQ_269.mp4	0.0	230.00754499435425	2.5072109699249268
56	169.99880599975586	fix_post	2		12.0	54.0	2.5	/experiments/knapen_aot/videos/R_S_yt-D9uD7yM6bxQ_269.mp4	0.0	232.51475596427917	0.10001206398010254
57	170.09881806373596	fix_pre	0		16.0	55.0	2.5	blank	1.0	232.61476802825928	0.1333940029144287
57	170.22395420074463	response	0	2		55.0	2.5	blank	1.0	232.73990416526794	
57	170.2322120666504	movie	1		301.0	55.0	2.5	blank	1.0	232.7481620311737	2.50827693939209
57	172.74048900604248	fix_post	2		12.0	55.0	2.5	blank	1.0	235.2564389705658	0.0999751091003418
58	172.84046411514282	fix_pre	0		68.0	56.0	2.5	/experiments/knapen_aot/videos/R_S_yt-VjTiMtjdjTw_103.mp4	0.0	235.35641407966614	0.5677430629730225
58	173.398912191391	response	0	2		56.0	2.5	/experiments/knapen_aot/videos/R_S_yt-VjTiMtjdjTw_103.mp4	0.0	235.9148621559143	
58	173.40820717811584	movie	1		301.0	56.0	2.5	/experiments/knapen_aot/videos/R_S_yt-VjTiMtjdjTw_103.mp4	0.0	235.92415714263916	2.507253885269165
58	175.915461063385	fix_post	2		12.0	56.0	2.5	/experiments/knapen_aot/videos/R_S_yt-VjTiMtjdjTw_103.mp4	0.0	238.43141102790833	0.0999910831451416
59	176.01545214653015	fix_pre	0		64.0	57.0	2.5	/experiments/knapen_aot/videos/S_wc-DcFDe419cL3d_17.mp4	0.0	238.53140211105347	0.5333690643310547
59	176.54063320159912	response	0	2		57.0	2.5	/experiments/knapen_aot/videos/S_wc-DcFDe419cL3d_17.mp4	0.0	239.05658316612244	
59	176.5488212108612	movie	1		164.0	57.0	2.5	/experiments/knapen_aot/videos/S_wc-DcFDe419cL3d_17.mp4	0.0	239.06477117538452	2.508305788040161
59	179.05712699890137	fix_post	2		12.0	57.0	2.5	/experiments/knapen_aot/videos/S_wc-DcFDe419cL3d_17.mp4	0.0	241.57307696342468	0.09992814064025879
60	179.15705513954163	fix_pre	0		42.0	58.0	2.5	/experiments/knapen_aot/videos/S_yt-2WPmM2vIuBE_41.mp4	0.0	241.67300510406494	0.35004091262817383
60	179.49884414672852	response	0	2		58.0	2.5	/experiments/knapen_aot/videos/S_yt-2WPmM2vIuBE_41.mp4	0.0	242.01479411125183	
60	179.5070960521698	movie	1		301.0	58.0	2.5	/experiments/knapen_aot/videos/S_yt-2WPmM2vIuBE_41.mp4	0.0	242.02304601669312	2.5083210468292236
60	182.01541709899902	fix_post	2		12.0	58.0	2.5	/experiments/knapen_aot/videos/S_yt-2WPmM2vIuBE_41.mp4	0.0	244.53136706352234	0.1010580062866211
61	182.11647510528564	fix_pre	0		82.0	59.0	2.5	/experiments/knapen_aot/videos/S_yt-i4kSCZ8rNC0_11.mp4	0.0	244.63242506980896	0.6822869777679443
61	182.790589094162	response	0	2		59.0	2.5	/experiments/knapen_aot/videos/S_yt-i4kSCZ8rNC0_11.mp4	0.0	245.3065390586853	
61	182.7987620830536	movie	1		301.0	59.0	2.5	/experiments/knapen_aot/videos/S_yt-i4kSCZ8rNC0_11.mp4	0.0	245.3147120475769	2.5082919597625732
61	185.30705404281616	fix_post	2		12.0	59.0	2.5	/experiments/knapen_aot/videos/S_yt-i4kSCZ8rNC0_11.mp4	0.0	247.82300400733948	0.10003209114074707
62	185.4070861339569	fix_pre	0		59.0	60.0	2.5	/experiments/knapen_aot/videos/S_yt-074ygGXNoQ8_64.mp4	0.0	247.92303609848022	0.4916069507598877
62	185.890545129776	response	0	2		60.0	2.5	/experiments/knapen_aot/videos/S_yt-074ygGXNoQ8_64.mp4	0.0	248.40649509429932	
62	185.8986930847168	movie	1		301.0	60.0	2.5	/experiments/knapen_aot/videos/S_yt-074ygGXNoQ8_64.mp4	0.0	248.4146430492401	2.5084080696105957
62	188.4071011543274	fix_post	2		12.0	60.0	2.5	/experiments/knapen_aot/videos/S_yt-074ygGXNoQ8_64.mp4	0.0	250.9230511188507	0.10006499290466309
63	188.50716614723206	fix_pre	0		75.0	61.0	2.5	/experiments/knapen_aot/videos/R_S_ILSVRC2015_train_00515000.mp4	0.0	251.02311611175537	0.6248910427093506
63	189.1238751411438	response	0	2		61.0	2.5	/experiments/knapen_aot/videos/R_S_ILSVRC2015_train_00515000.mp4	0.0	251.63982510566711	
63	189.1320571899414	movie	1		301.0	61.0	2.5	/experiments/knapen_aot/videos/R_S_ILSVRC2015_train_00515000.mp4	0.0	251.64800715446472	2.508344888687134
63	191.64040207862854	fix_post	2		12.0	61.0	2.5	/experiments/knapen_aot/videos/R_S_ILSVRC2015_train_00515000.mp4	0.0	254.15635204315186	0.09994912147521973
64	191.74035120010376	fix_pre	0		46.0	62.0	2.5	blank	1.0	254.25630116462708	0.38333892822265625
64	192.11549711227417	response	0	2		62.0	2.5	blank	1.0	254.63144707679749	
64	192.12369012832642	movie	1		301.0	62.0	2.5	blank	1.0	254.63964009284973	2.5083749294281006
64	194.63206505775452	fix_post	2		12.0	62.0	2.5	blank	1.0	257.14801502227783	0.09999895095825195
65	194.73206400871277	fix_pre	0		55.0	63.0	2.5	/experiments/knapen_aot/videos/S_S003_C020_SDR_2K_AVC.mp4	0.0	257.2480139732361	0.4583280086517334
65	195.17459321022034	response	0	2		63.0	2.5	/experiments/knapen_aot/videos/S_S003_C020_SDR_2K_AVC.mp4	0.0	257.69054317474365	
65	195.1903920173645	movie	1		172.0	63.0	2.5	/experiments/knapen_aot/videos/S_S003_C020_SDR_2K_AVC.mp4	0.0	257.7063419818878	2.508341073989868
65	197.69873309135437	fix_post	2		12.0	63.0	2.5	/experiments/knapen_aot/videos/S_S003_C020_SDR_2K_AVC.mp4	0.0	260.2146830558777	0.10000896453857422
66	197.79874205589294	fix_pre	0		47.0	64.0	2.5	/experiments/knapen_aot/videos/R_S_yt-Ek1jcvett9E_33.mp4	0.0	260.31469202041626	0.39160895347595215
66	198.18226218223572	response	0	2		64.0	2.5	/experiments/knapen_aot/videos/R_S_yt-Ek1jcvett9E_33.mp4	0.0	260.69821214675903	
66	198.1903510093689	movie	1		301.0	64.0	2.5	/experiments/knapen_aot/videos/R_S_yt-Ek1jcvett9E_33.mp4	0.0	260.7063009738922	2.508319139480591
66	200.6986701488495	fix_post	2		11.0	64.0	2.5	/experiments/knapen_aot/videos/R_S_yt-Ek1jcvett9E_33.mp4	0.0	263.2146201133728	0.10004496574401855
67	200.7987151145935	fix_pre	0		39.0	65.0	2.5	/experiments/knapen_aot/videos/S_yt-7Fyu2vr7zbA_31.mp4	0.0	263.3146650791168	0.32495999336242676
67	201.11551308631897	response	0	2		65.0	2.5	/experiments/knapen_aot/videos/S_yt-7Fyu2vr7zbA_31.mp4	0.0	263.6314630508423	
67	201.12367510795593	movie	1		301.0	65.0	2.5	/experiments/knapen_aot/videos/S_yt-7Fyu2vr7zbA_31.mp4	0.0	263.63962507247925	2.50832200050354
67	203.63199710845947	fix_post	2		12.0	65.0	2.5	/experiments/knapen_aot/videos/S_yt-7Fyu2vr7zbA_31.mp4	0.0	266.1479470729828	0.09998893737792969
68	203.7319860458374	fix_pre	0		44.0	66.0	2.5	/experiments/knapen_aot/videos/S_yt-MsSEF0krKE4_149.mp4	0.0	266.2479360103607	0.36669015884399414
68	204.09049916267395	response	0	2		66.0	2.5	/experiments/knapen_aot/videos/S_yt-MsSEF0krKE4_149.mp4	0.0	266.60644912719727	
68	204.0986762046814	movie	1		301.0	66.0	2.5	/experiments/knapen_aot/videos/S_yt-MsSEF0krKE4_149.mp4	0.0	266.6146261692047	2.508279800415039
68	206.60695600509644	fix_post	2		12.0	66.0	2.5	/experiments/knapen_aot/videos/S_yt-MsSEF0krKE4_149.mp4	0.0	269.12290596961975	0.10000419616699219
69	206.70696020126343	fix_pre	0		68.0	67.0	2.5	/experiments/knapen_aot/videos/R_S_yt-ebzrQh5ErI4_3.mp4	0.0	269.22291016578674	0.566687822341919
69	207.26550221443176	response	0	2		67.0	2.5	/experiments/knapen_aot/videos/R_S_yt-ebzrQh5ErI4_3.mp4	0.0	269.7814521789551	
69	207.27364802360535	movie	1		301.0	67.0	2.5	/experiments/knapen_aot/videos/R_S_yt-ebzrQh5ErI4_3.mp4	0.0	269.78959798812866	2.508347988128662
69	209.781996011734	fix_post	2		12.0	67.0	2.5	/experiments/knapen_aot/videos/R_S_yt-ebzrQh5ErI4_3.mp4	0.0	272.2979459762573	0.10004305839538574
70	209.8820390701294	fix_pre	0		59.0	68.0	2.5	blank	1.0	272.3979890346527	0.49167394638061523
70	210.36548805236816	response	0	2		68.0	2.5	blank	1.0	272.8814380168915	
70	210.37371301651	movie	1		301.0	68.0	2.5	blank	1.0	272.8896629810333	2.5082480907440186
70	212.88196110725403	fix_post	2		12.0	68.0	2.5	blank	1.0	275.39791107177734	0.10005497932434082
71	212.98201608657837	fix_pre	0		79.0	69.0	2.5	/experiments/knapen_aot/videos/R_S_yt-Ryb0K9lGPrg_5.mp4	0.0	275.4979660511017	0.6583170890808105
71	213.63205218315125	response	0	2		69.0	2.5	/experiments/knapen_aot/videos/R_S_yt-Ryb0K9lGPrg_5.mp4	0.0	276.14800214767456	
71	213.64033317565918	movie	1		301.0	69.0	2.5	/experiments/knapen_aot/videos/R_S_yt-Ryb0K9lGPrg_5.mp4	0.0	276.1562831401825	2.508298873901367
71	216.14863204956055	fix_post	2		12.0	69.0	2.5	/experiments/knapen_aot/videos/R_S_yt-Ryb0K9lGPrg_5.mp4	0.0	278.66458201408386	0.09993815422058105
72	216.24857020378113	fix_pre	0		65.0	70.0	2.5	/experiments/knapen_aot/videos/R_S_yt-OEY9O2MglQM_7.mp4	0.0	278.76452016830444	0.5417428016662598
72	216.7821171283722	response	0	2		70.0	2.5	/experiments/knapen_aot/videos/R_S_yt-OEY9O2MglQM_7.mp4	0.0	279.2980670928955	
72	216.7903130054474	movie	1		301.0	70.0	2.5	/experiments/knapen_aot/videos/R_S_yt-OEY9O2MglQM_7.mp4	0.0	279.3062629699707	2.508336067199707
72	219.2986490726471	fix_post	2		12.0	70.0	2.5	/experiments/knapen_aot/videos/R_S_yt-OEY9O2MglQM_7.mp4	0.0	281.8145990371704	0.09997892379760742
73	219.3986279964447	fix_pre	0		21.0	71.0	2.5	/experiments/knapen_aot/videos/S_wc-7ugQ0V4lxYkJ_131.mp4	0.0	281.914577960968	0.1758580207824707
73	219.5654900074005	response	0	2		71.0	2.5	/experiments/knapen_aot/videos/S_wc-7ugQ0V4lxYkJ_131.mp4	0.0	282.0814399719238	
73	219.57448601722717	movie	1		300.0	71.0	2.5	/experiments/knapen_aot/videos/S_wc-7ugQ0V4lxYkJ_131.mp4	0.0	282.0904359817505	2.5074470043182373
73	222.0819330215454	fix_post	2		12.0	71.0	2.5	/experiments/knapen_aot/videos/S_wc-7ugQ0V4lxYkJ_131.mp4	0.0	284.5978829860687	0.09995102882385254
74	222.18188405036926	fix_pre	0		79.0	72.0	2.5	/experiments/knapen_aot/videos/R_S_pexels-rodnae-productions-5617905.mp4	0.0	284.6978340148926	0.6583161354064941
74	222.83211016654968	response	0	2		72.0	2.5	/experiments/knapen_aot/videos/R_S_pexels-rodnae-productions-5617905.mp4	0.0	285.348060131073	
74	222.84020018577576	movie	1		168.0	72.0	2.5	/experiments/knapen_aot/videos/R_S_pexels-rodnae-productions-5617905.mp4	0.0	285.3561501502991	2.5083818435668945
74	225.34858202934265	fix_post	2		12.0	72.0	2.5	/experiments/knapen_aot/videos/R_S_pexels-rodnae-productions-5617905.mp4	0.0	287.86453199386597	0.10001206398010254
75	225.44859409332275	fix_pre	0		54.0	73.0	2.5	/experiments/knapen_aot/videos/S_ILSVRC2015_train_00518001.mp4	0.0	287.96454405784607	0.44997596740722656
75	225.89038705825806	response	0	2		73.0	2.5	/experiments/knapen_aot/videos/S_ILSVRC2015_train_00518001.mp4	0.0	288.4063370227814	
75	225.89857006072998	movie	1		301.0	73.0	2.5	/experiments/knapen_aot/videos/S_ILSVRC2015_train_00518001.mp4	0.0	288.4145200252533	2.5083730220794678
75	228.40694308280945	fix_post	2		12.0	73.0	2.5	/experiments/knapen_aot/videos/S_ILSVRC2015_train_00518001.mp4	0.0	290.92289304733276	0.09999799728393555
76	228.50694108009338	fix_pre	0		42.0	74.0	2.5	/experiments/knapen_aot/videos/S_pexels-rodnae-productions-7467585.mp4	0.0	291.0228910446167	0.34998011589050293
76	228.84869599342346	response	0	2		74.0	2.5	/experiments/knapen_aot/videos/S_pexels-rodnae-productions-7467585.mp4	0.0	291.3646459579468	
76	228.8569211959839	movie	1		169.0	74.0	2.5	/experiments/knapen_aot/videos/S_pexels-rodnae-productions-7467585.mp4	0.0	291.3728711605072	2.508208990097046
76	231.36513018608093	fix_post	2		12.0	74.0	2.5	/experiments/knapen_aot/videos/S_pexels-rodnae-productions-7467585.mp4	0.0	293.88108015060425	0.10013794898986816
77	231.4652681350708	fix_pre	0		48.0	75.0	2.5	blank	1.0	293.9812180995941	0.4007749557495117
77	231.85704898834229	response	0	2		75.0	2.5	blank	1.0	294.3729989528656	
77	231.8660430908203	movie	1		301.0	75.0	2.5	blank	1.0	294.3819930553436	2.5075271129608154
77	234.37357020378113	fix_post	2		12.0	75.0	2.5	blank	1.0	296.88952016830444	0.10001397132873535
78	234.47358417510986	fix_pre	0		52.0	76.0	2.5	/experiments/knapen_aot/videos/R_S_ILSVRC2015_train_00460000.mp4	0.0	296.9895341396332	0.4340708255767822
78	234.89862203598022	response	0	2		76.0	2.5	/experiments/knapen_aot/videos/R_S_ILSVRC2015_train_00460000.mp4	0.0	297.41457200050354	
78	234.90765500068665	movie	1		301.0	76.0	2.5	/experiments/knapen_aot/videos/R_S_ILSVRC2015_train_00460000.mp4	0.0	297.42360496520996	2.507539987564087
78	237.41519498825073	fix_post	2		12.0	76.0	2.5	/experiments/knapen_aot/videos/R_S_ILSVRC2015_train_00460000.mp4	0.0	299.93114495277405	0.0999460220336914
79	237.51514101028442	fix_pre	0		129.0	77.0	2.5	/experiments/knapen_aot/videos/R_S_comp_CH_C007_C011_PSNK_v02_SDR_PS_FINAL_20180709_SDR_2K_AVC.mp4	0.0	300.03109097480774	1.075031042098999
79	238.58198308944702	response	0	2		77.0	2.5	/experiments/knapen_aot/videos/R_S_comp_CH_C007_C011_PSNK_v02_SDR_PS_FINAL_20180709_SDR_2K_AVC.mp4	0.0	301.09793305397034	
79	238.59017205238342	movie	1		177.0	77.0	2.5	/experiments/knapen_aot/videos/R_S_comp_CH_C007_C011_PSNK_v02_SDR_PS_FINAL_20180709_SDR_2K_AVC.mp4	0.0	301.10612201690674	2.508357048034668
79	241.0985291004181	fix_post	2		12.0	77.0	2.5	/experiments/knapen_aot/videos/R_S_comp_CH_C007_C011_PSNK_v02_SDR_PS_FINAL_20180709_SDR_2K_AVC.mp4	0.0	303.6144790649414	0.10004591941833496
80	241.19857501983643	fix_pre	0		37.0	78.0	2.5	/experiments/knapen_aot/videos/S_yt-ujTY1igjc3E_2.mp4	0.0	303.71452498435974	0.30829715728759766
80	241.4986081123352	response	0	2		78.0	2.5	/experiments/knapen_aot/videos/S_yt-ujTY1igjc3E_2.mp4	0.0	304.0145580768585	
80	241.50687217712402	movie	1		301.0	78.0	2.5	/experiments/knapen_aot/videos/S_yt-ujTY1igjc3E_2.mp4	0.0	304.02282214164734	2.508368968963623
80	244.01524114608765	fix_post	2		12.0	78.0	2.5	/experiments/knapen_aot/videos/S_yt-ujTY1igjc3E_2.mp4	0.0	306.53119111061096	0.09994196891784668
81	244.1151831150055	fix_pre	0		38.0	79.0	2.5	/experiments/knapen_aot/videos/R_S_yt-GOgS--rzmKQ_51.mp4	0.0	306.6311330795288	0.3166780471801758
81	244.42371201515198	response	0	2		79.0	2.5	/experiments/knapen_aot/videos/R_S_yt-GOgS--rzmKQ_51.mp4	0.0	306.9396619796753	
81	244.43186116218567	movie	1		301.0	79.0	2.5	/experiments/knapen_aot/videos/R_S_yt-GOgS--rzmKQ_51.mp4	0.0	306.947811126709	2.508349895477295
81	246.94021105766296	fix_post	2		12.0	79.0	2.5	/experiments/knapen_aot/videos/R_S_yt-GOgS--rzmKQ_51.mp4	0.0	309.4561610221863	0.09999394416809082
82	247.04020500183105	fix_pre	0		51.0	80.0	2.5	/experiments/knapen_aot/videos/R_S_b8-3.mp4	0.0	309.55615496635437	0.42495203018188477
82	247.45702004432678	response	0	2		80.0	2.5	/experiments/knapen_aot/videos/R_S_b8-3.mp4	0.0	309.9729700088501	
82	247.46515703201294	movie	1		172.0	80.0	2.5	/experiments/knapen_aot/videos/R_S_b8-3.mp4	0.0	309.98110699653625	2.5083820819854736
82	249.9735391139984	fix_post	2		12.0	80.0	2.5	/experiments/knapen_aot/videos/R_S_b8-3.mp4	0.0	312.48948907852173	0.10000205039978027
83	250.0735411643982	fix_pre	0		52.0	81.0	2.5	/experiments/knapen_aot/videos/R_S_pexels-anthony-shkraba-7569650.mp4	0.0	312.5894911289215	0.4333319664001465
83	250.49864721298218	response	0	2		81.0	2.5	/experiments/knapen_aot/videos/R_S_pexels-anthony-shkraba-7569650.mp4	0.0	313.0145971775055	
83	250.50687313079834	movie	1		181.0	81.0	2.5	/experiments/knapen_aot/videos/R_S_pexels-anthony-shkraba-7569650.mp4	0.0	313.02282309532166	2.5083110332489014
83	253.01518416404724	fix_post	2		12.0	81.0	2.5	/experiments/knapen_aot/videos/R_S_pexels-anthony-shkraba-7569650.mp4	0.0	315.53113412857056	0.10002493858337402
84	253.11520910263062	fix_pre	0		57.0	82.0	2.5	/experiments/knapen_aot/videos/S_pexels-anastasia-shuraeva-601407_2.mp4	0.0	315.63115906715393	0.4749588966369629
84	253.5819971561432	response	0	2		82.0	2.5	/experiments/knapen_aot/videos/S_pexels-anastasia-shuraeva-601407_2.mp4	0.0	316.0979471206665	
84	253.59016799926758	movie	1		192.0	82.0	2.5	/experiments/knapen_aot/videos/S_pexels-anastasia-shuraeva-601407_2.mp4	0.0	316.1061179637909	2.5082790851593018
84	256.0984470844269	fix_post	2		12.0	82.0	2.5	/experiments/knapen_aot/videos/S_pexels-anastasia-shuraeva-601407_2.mp4	0.0	318.6143970489502	0.1000521183013916
85	256.19849920272827	fix_pre	0		45.0	83.0	2.5	blank	1.0	318.7144491672516	0.375607967376709
85	256.56536412239075	response	0	2		83.0	2.5	blank	1.0	319.08131408691406	
85	256.574107170105	movie	1		301.0	83.0	2.5	blank	1.0	319.0900571346283	2.5077128410339355
85	259.0818200111389	fix_post	2		12.0	83.0	2.5	blank	1.0	321.59776997566223	0.09999918937683105
87	259.18181920051575	stim	0		330.0					321.69776916503906	2.749959945678711
87	261.5017960071564	response	0	return						324.0177459716797	
87	261.9234700202942	response	0	space						324.4394199848175	
