trial_nr	onset	event_type	phase	response	nr_frames	movie_index	movie_duration	movie_file	blank	onset_abs	duration
0	0.1291978359222412	stim	0		53.0					55.91013979911804	0.4374120235443115
0	0.5584290027618408	response	0	space						56.33937096595764	
1	0.5666098594665527	stim	0		121.0					56.34755182266235	1.0079140663146973
1	1.1176788806915283	response	0	space						56.89862084388733	
1	1.2996559143066406	response	0	space						57.08059787750244	
1	1.57452392578125	stim	1		120.0					57.35546588897705	1.0000569820404053
1	1.7254829406738281	response	1	space						57.50642490386963	
1	2.1079390048980713	response	1	space						57.88888096809387	
2	2.5745809078216553	fix_pre	0		12.0	0.0	2.5	/experiments/knapen_aot/videos/S_ga8dBJH_qK8_765.mp4	0.0	58.355522871017456	0.09992790222167969
2	2.666368007659912	response	0	space		0.0	2.5	/experiments/knapen_aot/videos/S_ga8dBJH_qK8_765.mp4	0.0	58.44730997085571	
2	2.674508810043335	movie	1		301.0	0.0	2.5	/experiments/knapen_aot/videos/S_ga8dBJH_qK8_765.mp4	0.0	58.455450773239136	2.5082461833953857
2	5.182754993438721	fix_post	2		12.0	0.0	2.5	/experiments/knapen_aot/videos/S_ga8dBJH_qK8_765.mp4	0.0	60.96369695663452	0.10019993782043457
3	5.282954931259155	fix_pre	0		72.0	1.0	2.5	/experiments/knapen_aot/videos/S_ILSVRC2015_train_00185002.mp4	0.0	61.063896894454956	0.60270094871521
3	5.878830909729004	response	0	2		1.0	2.5	/experiments/knapen_aot/videos/S_ILSVRC2015_train_00185002.mp4	0.0	61.659772872924805	
3	5.885655879974365	movie	1		301.0	1.0	2.5	/experiments/knapen_aot/videos/S_ILSVRC2015_train_00185002.mp4	0.0	61.666597843170166	2.5055510997772217
3	8.391206979751587	fix_post	2		12.0	1.0	2.5	/experiments/knapen_aot/videos/S_ILSVRC2015_train_00185002.mp4	0.0	64.17214894294739	0.10000085830688477
4	8.491207838058472	fix_pre	0		56.0	2.0	2.5	/experiments/knapen_aot/videos/R_S_yt-gaXgXGEanCk_140.mp4	0.0	64.27214980125427	0.4666740894317627
4	8.949687957763672	response	0	2		2.0	2.5	/experiments/knapen_aot/videos/R_S_yt-gaXgXGEanCk_140.mp4	0.0	64.73062992095947	
4	8.957881927490234	movie	1		301.0	2.0	2.5	/experiments/knapen_aot/videos/R_S_yt-gaXgXGEanCk_140.mp4	0.0	64.73882389068604	2.508291006088257
4	11.466172933578491	fix_post	2		12.0	2.0	2.5	/experiments/knapen_aot/videos/R_S_yt-gaXgXGEanCk_140.mp4	0.0	67.24711489677429	0.10002493858337402
5	11.566197872161865	fix_pre	0		65.0	3.0	2.5	/experiments/knapen_aot/videos/S_yt-d5jBQ-LOW2I_17.mp4	0.0	67.34713983535767	0.5416779518127441
5	12.099692821502686	response	0	2		3.0	2.5	/experiments/knapen_aot/videos/S_yt-d5jBQ-LOW2I_17.mp4	0.0	67.88063478469849	
5	12.10787582397461	movie	1		301.0	3.0	2.5	/experiments/knapen_aot/videos/S_yt-d5jBQ-LOW2I_17.mp4	0.0	67.88881778717041	2.508303165435791
5	14.6161789894104	fix_post	2		12.0	3.0	2.5	/experiments/knapen_aot/videos/S_yt-d5jBQ-LOW2I_17.mp4	0.0	70.3971209526062	0.09998083114624023
6	14.71615982055664	fix_pre	0		76.0	4.0	2.5	/experiments/knapen_aot/videos/S_ILSVRC2015_train_00479001.mp4	0.0	70.49710178375244	0.6334021091461182
6	15.341355800628662	response	0	2		4.0	2.5	/experiments/knapen_aot/videos/S_ILSVRC2015_train_00479001.mp4	0.0	71.12229776382446	
6	15.349561929702759	movie	1		301.0	4.0	2.5	/experiments/knapen_aot/videos/S_ILSVRC2015_train_00479001.mp4	0.0	71.13050389289856	2.5082719326019287
6	17.857833862304688	fix_post	2		12.0	4.0	2.5	/experiments/knapen_aot/videos/S_ILSVRC2015_train_00479001.mp4	0.0	73.63877582550049	0.10001301765441895
7	17.957846879959106	fix_pre	0		72.0	5.0	2.5	/experiments/knapen_aot/videos/S_yt-deiWoIfK6vg_44.mp4	0.0	73.73878884315491	0.600085973739624
7	18.549625873565674	response	0	2		5.0	2.5	/experiments/knapen_aot/videos/S_yt-deiWoIfK6vg_44.mp4	0.0	74.33056783676147	
7	18.55793285369873	movie	1		301.0	5.0	2.5	/experiments/knapen_aot/videos/S_yt-deiWoIfK6vg_44.mp4	0.0	74.33887481689453	2.508244037628174
7	21.066176891326904	fix_post	2		12.0	5.0	2.5	/experiments/knapen_aot/videos/S_yt-deiWoIfK6vg_44.mp4	0.0	76.8471188545227	0.09995508193969727
8	21.1661319732666	fix_pre	0		57.0	6.0	2.5	blank	1.0	76.9470739364624	0.4750199317932129
8	21.63299798965454	response	0	2		6.0	2.5	blank	1.0	77.41393995285034	
8	21.641151905059814	movie	1		301.0	6.0	2.5	blank	1.0	77.42209386825562	2.5083370208740234
8	24.149488925933838	fix_post	2		12.0	6.0	2.5	blank	1.0	79.93043088912964	0.10000300407409668
9	24.249491930007935	fix_pre	0		68.0	7.0	2.5	/experiments/knapen_aot/videos/R_S_yt-2IN85w8ptmM_51.mp4	0.0	80.03043389320374	0.5666189193725586
9	24.80791187286377	response	0	2		7.0	2.5	/experiments/knapen_aot/videos/R_S_yt-2IN85w8ptmM_51.mp4	0.0	80.58885383605957	
9	24.816110849380493	movie	1		300.0	7.0	2.5	/experiments/knapen_aot/videos/R_S_yt-2IN85w8ptmM_51.mp4	0.0	80.5970528125763	2.5082600116729736
9	27.324370861053467	fix_post	2		12.0	7.0	2.5	/experiments/knapen_aot/videos/R_S_yt-2IN85w8ptmM_51.mp4	0.0	83.10531282424927	0.10005402565002441
10	27.42442488670349	fix_pre	0		55.0	8.0	2.5	/experiments/knapen_aot/videos/R_S_9smWynsk6sI_158.mp4	0.0	83.20536684989929	0.4583420753479004
10	27.87454581260681	response	0	2		8.0	2.5	/experiments/knapen_aot/videos/R_S_9smWynsk6sI_158.mp4	0.0	83.65548777580261	
10	27.88276696205139	movie	1		301.0	8.0	2.5	/experiments/knapen_aot/videos/R_S_9smWynsk6sI_158.mp4	0.0	83.66370892524719	2.5083088874816895
10	30.39107584953308	fix_post	2		12.0	8.0	2.5	/experiments/knapen_aot/videos/R_S_9smWynsk6sI_158.mp4	0.0	86.17201781272888	0.10003399848937988
11	30.49110984802246	fix_pre	0		55.0	9.0	2.5	/experiments/knapen_aot/videos/S_yt-2IfvnrF3IV0_241.mp4	0.0	86.27205181121826	0.4583251476287842
11	30.94121479988098	response	0	2		9.0	2.5	/experiments/knapen_aot/videos/S_yt-2IfvnrF3IV0_241.mp4	0.0	86.72215676307678	
11	30.949434995651245	movie	1		301.0	9.0	2.5	/experiments/knapen_aot/videos/S_yt-2IfvnrF3IV0_241.mp4	0.0	86.73037695884705	2.5083229541778564
11	33.4577579498291	fix_post	2		12.0	9.0	2.5	/experiments/knapen_aot/videos/S_yt-2IfvnrF3IV0_241.mp4	0.0	89.2386999130249	0.09992694854736328
12	33.557684898376465	fix_pre	0		48.0	10.0	2.5	/experiments/knapen_aot/videos/S_yt-EKPrSw5xF7k_112.mp4	0.0	89.33862686157227	0.4000580310821533
12	33.94958686828613	response	0	2		10.0	2.5	/experiments/knapen_aot/videos/S_yt-EKPrSw5xF7k_112.mp4	0.0	89.73052883148193	
12	33.95774292945862	movie	1		301.0	10.0	2.5	/experiments/knapen_aot/videos/S_yt-EKPrSw5xF7k_112.mp4	0.0	89.73868489265442	2.5082709789276123
12	36.46601390838623	fix_post	2		12.0	10.0	2.5	/experiments/knapen_aot/videos/S_yt-EKPrSw5xF7k_112.mp4	0.0	92.24695587158203	0.10002398490905762
13	36.56603789329529	fix_pre	0		61.0	11.0	2.5	/experiments/knapen_aot/videos/R_S_cST9H3zu3zQ_126.mp4	0.0	92.34697985649109	0.5082941055297852
13	37.066169023513794	response	0	2		11.0	2.5	/experiments/knapen_aot/videos/R_S_cST9H3zu3zQ_126.mp4	0.0	92.8471109867096	
13	37.07433199882507	movie	1		301.0	11.0	2.5	/experiments/knapen_aot/videos/R_S_cST9H3zu3zQ_126.mp4	0.0	92.85527396202087	2.5083940029144287
13	39.5827260017395	fix_post	2		12.0	11.0	2.5	/experiments/knapen_aot/videos/R_S_cST9H3zu3zQ_126.mp4	0.0	95.3636679649353	0.09999394416809082
14	39.68271994590759	fix_pre	0		39.0	12.0	2.5	blank	1.0	95.4636619091034	0.324908971786499
14	39.9995379447937	response	0	2		12.0	2.5	blank	1.0	95.7804799079895	
14	40.00762891769409	movie	1		301.0	12.0	2.5	blank	1.0	95.78857088088989	2.5084280967712402
14	42.51605701446533	fix_post	2		12.0	12.0	2.5	blank	1.0	98.29699897766113	0.10001397132873535
15	42.61607098579407	fix_pre	0		63.0	13.0	2.5	/experiments/knapen_aot/videos/R_S_production_ID_5102663.mp4	0.0	98.39701294898987	0.5262110233306885
15	43.13297700881958	response	0	2		13.0	2.5	/experiments/knapen_aot/videos/R_S_production_ID_5102663.mp4	0.0	98.91391897201538	
15	43.142282009124756	movie	1		210.0	13.0	2.5	/experiments/knapen_aot/videos/R_S_production_ID_5102663.mp4	0.0	98.92322397232056	2.5070409774780273
15	45.64932298660278	fix_post	2		12.0	13.0	2.5	/experiments/knapen_aot/videos/R_S_production_ID_5102663.mp4	0.0	101.43026494979858	0.10004401206970215
16	45.749366998672485	fix_pre	0		37.0	14.0	2.5	/experiments/knapen_aot/videos/S_ILSVRC2015_train_00697001.mp4	0.0	101.53030896186829	0.3094968795776367
16	46.04948091506958	response	0	2		14.0	2.5	/experiments/knapen_aot/videos/S_ILSVRC2015_train_00697001.mp4	0.0	101.83042287826538	
16	46.05886387825012	movie	1		301.0	14.0	2.5	/experiments/knapen_aot/videos/S_ILSVRC2015_train_00697001.mp4	0.0	101.83980584144592	2.50715708732605
16	48.56602096557617	fix_post	2		12.0	14.0	2.5	/experiments/knapen_aot/videos/S_ILSVRC2015_train_00697001.mp4	0.0	104.34696292877197	0.09993886947631836
17	48.66595983505249	fix_pre	0		33.0	15.0	2.5	/experiments/knapen_aot/videos/S_yt-Gc1p5CnDbDY_22.mp4	0.0	104.44690179824829	0.28328704833984375
17	48.9411518573761	response	0	2		15.0	2.5	/experiments/knapen_aot/videos/S_yt-Gc1p5CnDbDY_22.mp4	0.0	104.7220938205719	
17	48.949246883392334	movie	1		301.0	15.0	2.5	/experiments/knapen_aot/videos/S_yt-Gc1p5CnDbDY_22.mp4	0.0	104.73018884658813	2.5084779262542725
17	51.457724809646606	fix_post	2		12.0	15.0	2.5	/experiments/knapen_aot/videos/S_yt-Gc1p5CnDbDY_22.mp4	0.0	107.23866677284241	0.09992718696594238
18	51.55765199661255	fix_pre	0		55.0	16.0	2.5	/experiments/knapen_aot/videos/S_ILSVRC2015_train_00495000.mp4	0.0	107.33859395980835	0.459561824798584
18	52.007845878601074	response	0	2		16.0	2.5	/experiments/knapen_aot/videos/S_ILSVRC2015_train_00495000.mp4	0.0	107.78878784179688	
18	52.01721382141113	movie	1		301.0	16.0	2.5	/experiments/knapen_aot/videos/S_ILSVRC2015_train_00495000.mp4	0.0	107.79815578460693	2.507107973098755
18	54.52432179450989	fix_post	2		12.0	16.0	2.5	/experiments/knapen_aot/videos/S_ILSVRC2015_train_00495000.mp4	0.0	110.30526375770569	0.10001301765441895
19	54.62433481216431	fix_pre	0		37.0	17.0	2.5	/experiments/knapen_aot/videos/R_S_ILSVRC2015_train_00408000.mp4	0.0	110.40527677536011	0.30945420265197754
19	54.92449879646301	response	0	2		17.0	2.5	/experiments/knapen_aot/videos/R_S_ILSVRC2015_train_00408000.mp4	0.0	110.70544075965881	
19	54.933789014816284	movie	1		301.0	17.0	2.5	/experiments/knapen_aot/videos/R_S_ILSVRC2015_train_00408000.mp4	0.0	110.71473097801208	2.5071828365325928
19	57.44097185134888	fix_post	2		12.0	17.0	2.5	/experiments/knapen_aot/videos/R_S_ILSVRC2015_train_00408000.mp4	0.0	113.22191381454468	0.10019111633300781
20	57.541162967681885	fix_pre	0		48.0	18.0	2.5	/experiments/knapen_aot/videos/S_ILSVRC2015_train_00339001.mp4	0.0	113.32210493087769	0.39975500106811523
20	57.93274998664856	response	0	2		18.0	2.5	/experiments/knapen_aot/videos/S_ILSVRC2015_train_00339001.mp4	0.0	113.71369194984436	
20	57.94091796875	movie	1		301.0	18.0	2.5	/experiments/knapen_aot/videos/S_ILSVRC2015_train_00339001.mp4	0.0	113.7218599319458	2.50839900970459
20	60.44931697845459	fix_post	2		12.0	18.0	2.5	/experiments/knapen_aot/videos/S_ILSVRC2015_train_00339001.mp4	0.0	116.23025894165039	0.09992504119873047
21	60.54924201965332	fix_pre	0		111.0	19.0	2.5	/experiments/knapen_aot/videos/R_S_yt-4x2eUikn9rw_212.mp4	0.0	116.33018398284912	0.9261758327484131
21	61.466004848480225	response	0	2		19.0	2.5	/experiments/knapen_aot/videos/R_S_yt-4x2eUikn9rw_212.mp4	0.0	117.24694681167603	
21	61.47541785240173	movie	1		301.0	19.0	2.5	/experiments/knapen_aot/videos/R_S_yt-4x2eUikn9rw_212.mp4	0.0	117.25635981559753	2.507183074951172
21	63.982600927352905	fix_post	2		12.0	19.0	2.5	/experiments/knapen_aot/videos/R_S_yt-4x2eUikn9rw_212.mp4	0.0	119.7635428905487	0.09992408752441406
22	64.08252501487732	fix_pre	0		70.0	20.0	2.5	blank	1.0	119.86346697807312	0.5834407806396484
22	64.65771889686584	response	0	2		20.0	2.5	blank	1.0	120.43866086006165	
22	64.66596579551697	movie	1		301.0	20.0	2.5	blank	1.0	120.44690775871277	2.508296012878418
22	67.17426180839539	fix_post	2		12.0	20.0	2.5	blank	1.0	122.95520377159119	0.09999299049377441
23	67.27425479888916	fix_pre	0		82.0	21.0	2.5	/experiments/knapen_aot/videos/R_S_yt-WCT9dyz0-gQ_36.mp4	0.0	123.05519676208496	0.6832931041717529
23	67.94945096969604	response	0	2		21.0	2.5	/experiments/knapen_aot/videos/R_S_yt-WCT9dyz0-gQ_36.mp4	0.0	123.73039293289185	
23	67.95754790306091	movie	1		301.0	21.0	2.5	/experiments/knapen_aot/videos/R_S_yt-WCT9dyz0-gQ_36.mp4	0.0	123.73848986625671	2.5083460807800293
23	70.46589398384094	fix_post	2		12.0	21.0	2.5	/experiments/knapen_aot/videos/R_S_yt-WCT9dyz0-gQ_36.mp4	0.0	126.24683594703674	0.10001301765441895
24	70.56590700149536	fix_pre	0		54.0	22.0	2.5	/experiments/knapen_aot/videos/S_2RTDFkjD6vI_93.mp4	0.0	126.34684896469116	0.4511098861694336
24	71.00776886940002	response	0	2		22.0	2.5	/experiments/knapen_aot/videos/S_2RTDFkjD6vI_93.mp4	0.0	126.78871083259583	
24	71.0170168876648	movie	1		301.0	22.0	2.5	/experiments/knapen_aot/videos/S_2RTDFkjD6vI_93.mp4	0.0	126.7979588508606	2.5072150230407715
24	73.52423191070557	fix_post	2		12.0	22.0	2.5	/experiments/knapen_aot/videos/S_2RTDFkjD6vI_93.mp4	0.0	129.30517387390137	0.10002803802490234
25	73.62425994873047	fix_pre	0		70.0	23.0	2.5	/experiments/knapen_aot/videos/S_yt-kP7VNn9QIo4_53.mp4	0.0	129.40520191192627	0.58331298828125
25	74.19185090065002	response	0	2		23.0	2.5	/experiments/knapen_aot/videos/S_yt-kP7VNn9QIo4_53.mp4	0.0	129.97279286384583	
25	74.20757293701172	movie	1		301.0	23.0	2.5	/experiments/knapen_aot/videos/S_yt-kP7VNn9QIo4_53.mp4	0.0	129.98851490020752	2.5082759857177734
25	76.71584892272949	fix_post	2		12.0	23.0	2.5	/experiments/knapen_aot/videos/S_yt-kP7VNn9QIo4_53.mp4	0.0	132.4967908859253	0.10008001327514648
26	76.81592893600464	fix_pre	0		43.0	24.0	2.5	/experiments/knapen_aot/videos/S_yt-H5LQq4MPIao_660.mp4	0.0	132.59687089920044	0.3582310676574707
26	77.16618299484253	response	0	2		24.0	2.5	/experiments/knapen_aot/videos/S_yt-H5LQq4MPIao_660.mp4	0.0	132.94712495803833	
26	77.17416000366211	movie	1		301.0	24.0	2.5	/experiments/knapen_aot/videos/S_yt-H5LQq4MPIao_660.mp4	0.0	132.9551019668579	2.508420944213867
26	79.68258094787598	fix_post	2		12.0	24.0	2.5	/experiments/knapen_aot/videos/S_yt-H5LQq4MPIao_660.mp4	0.0	135.46352291107178	0.09998893737792969
27	79.7825698852539	fix_pre	0		58.0	25.0	2.5	/experiments/knapen_aot/videos/R_S_yt-ZE8Af60eNsI_15.mp4	0.0	135.5635118484497	0.4843931198120117
27	80.25765991210938	response	0	2		25.0	2.5	/experiments/knapen_aot/videos/R_S_yt-ZE8Af60eNsI_15.mp4	0.0	136.03860187530518	
27	80.26696300506592	movie	1		301.0	25.0	2.5	/experiments/knapen_aot/videos/R_S_yt-ZE8Af60eNsI_15.mp4	0.0	136.04790496826172	2.507314920425415
27	82.77427792549133	fix_post	2		12.0	25.0	2.5	/experiments/knapen_aot/videos/R_S_yt-ZE8Af60eNsI_15.mp4	0.0	138.55521988868713	0.09999394416809082
28	82.87427186965942	fix_pre	0		66.0	26.0	2.5	blank	1.0	138.65521383285522	0.5498530864715576
28	83.41602301597595	response	0	2		26.0	2.5	blank	1.0	139.19696497917175	
28	83.42412495613098	movie	1		301.0	26.0	2.5	blank	1.0	139.20506691932678	2.5083229541778564
28	85.93244791030884	fix_post	2		12.0	26.0	2.5	blank	1.0	141.71338987350464	0.10006904602050781
29	86.03251695632935	fix_pre	0		53.0	27.0	2.5	/experiments/knapen_aot/videos/S_WO9z7lBUvOs_151.mp4	0.0	141.81345891952515	0.44272398948669434
29	86.46593594551086	response	0	2		27.0	2.5	/experiments/knapen_aot/videos/S_WO9z7lBUvOs_151.mp4	0.0	142.24687790870667	
29	86.47524094581604	movie	1		301.0	27.0	2.5	/experiments/knapen_aot/videos/S_WO9z7lBUvOs_151.mp4	0.0	142.25618290901184	2.5072860717773438
29	88.98252701759338	fix_post	2		12.0	27.0	2.5	/experiments/knapen_aot/videos/S_WO9z7lBUvOs_151.mp4	0.0	144.76346898078918	0.09999799728393555
30	89.08252501487732	fix_pre	0		68.0	28.0	2.5	/experiments/knapen_aot/videos/S_yt-QJ2k6vA8aco_12.mp4	0.0	144.86346697807312	0.5666978359222412
30	89.64100289344788	response	0	2		28.0	2.5	/experiments/knapen_aot/videos/S_yt-QJ2k6vA8aco_12.mp4	0.0	145.42194485664368	
30	89.64922285079956	movie	1		301.0	28.0	2.5	/experiments/knapen_aot/videos/S_yt-QJ2k6vA8aco_12.mp4	0.0	145.43016481399536	2.508284091949463
30	92.15750694274902	fix_post	2		12.0	28.0	2.5	/experiments/knapen_aot/videos/S_yt-QJ2k6vA8aco_12.mp4	0.0	147.93844890594482	0.10000991821289062
31	92.25751686096191	fix_pre	0		58.0	29.0	2.5	/experiments/knapen_aot/videos/S_yt-Ol4xuEA8xQc_776.mp4	0.0	148.03845882415771	0.4832911491394043
31	92.7325849533081	response	0	2		29.0	2.5	/experiments/knapen_aot/videos/S_yt-Ol4xuEA8xQc_776.mp4	0.0	148.5135269165039	
31	92.74080801010132	movie	1		299.0	29.0	2.5	/experiments/knapen_aot/videos/S_yt-Ol4xuEA8xQc_776.mp4	0.0	148.52174997329712	2.508387804031372
31	95.24919581413269	fix_post	2		12.0	29.0	2.5	/experiments/knapen_aot/videos/S_yt-Ol4xuEA8xQc_776.mp4	0.0	151.0301377773285	0.09995698928833008
32	95.34915280342102	fix_pre	0		47.0	30.0	2.5	/experiments/knapen_aot/videos/R_S_yt-HwZFMTZ7Xko_35.mp4	0.0	151.13009476661682	0.3916590213775635
32	95.73263192176819	response	0	2		30.0	2.5	/experiments/knapen_aot/videos/R_S_yt-HwZFMTZ7Xko_35.mp4	0.0	151.513573884964	
32	95.74081182479858	movie	1		301.0	30.0	2.5	/experiments/knapen_aot/videos/R_S_yt-HwZFMTZ7Xko_35.mp4	0.0	151.52175378799438	2.5083131790161133
32	98.2491250038147	fix_post	2		12.0	30.0	2.5	/experiments/knapen_aot/videos/R_S_yt-HwZFMTZ7Xko_35.mp4	0.0	154.0300669670105	0.10002684593200684
33	98.3491518497467	fix_pre	0		49.0	31.0	2.5	/experiments/knapen_aot/videos/S_yt-ROhKDdF1gV4_21.mp4	0.0	154.1300938129425	0.40828609466552734
33	98.74934887886047	response	0	2		31.0	2.5	/experiments/knapen_aot/videos/S_yt-ROhKDdF1gV4_21.mp4	0.0	154.53029084205627	
33	98.75743794441223	movie	1		301.0	31.0	2.5	/experiments/knapen_aot/videos/S_yt-ROhKDdF1gV4_21.mp4	0.0	154.53837990760803	2.508359909057617
33	101.26579785346985	fix_post	2		12.0	31.0	2.5	/experiments/knapen_aot/videos/S_yt-ROhKDdF1gV4_21.mp4	0.0	157.04673981666565	0.10000395774841309
34	101.36580181121826	fix_pre	0		53.0	32.0	2.5	/experiments/knapen_aot/videos/R_S_yt-5ws2gxbcjs4_381.mp4	0.0	157.14674377441406	0.4426131248474121
34	101.79934692382812	response	0	2		32.0	2.5	/experiments/knapen_aot/videos/R_S_yt-5ws2gxbcjs4_381.mp4	0.0	157.58028888702393	
34	101.80841493606567	movie	1		301.0	32.0	2.5	/experiments/knapen_aot/videos/R_S_yt-5ws2gxbcjs4_381.mp4	0.0	157.58935689926147	2.5073130130767822
34	104.31572794914246	fix_post	2		12.0	32.0	2.5	/experiments/knapen_aot/videos/R_S_yt-5ws2gxbcjs4_381.mp4	0.0	160.09666991233826	0.10006594657897949
35	104.41579389572144	fix_pre	0		33.0	33.0	2.5	/experiments/knapen_aot/videos/S_yt-uT4MXm0UBJM_64.mp4	0.0	160.19673585891724	0.2750089168548584
35	104.6825008392334	response	0	2		33.0	2.5	/experiments/knapen_aot/videos/S_yt-uT4MXm0UBJM_64.mp4	0.0	160.4634428024292	
35	104.6908028125763	movie	1		297.0	33.0	2.5	/experiments/knapen_aot/videos/S_yt-uT4MXm0UBJM_64.mp4	0.0	160.4717447757721	2.5082900524139404
35	107.19909286499023	fix_post	2		12.0	33.0	2.5	/experiments/knapen_aot/videos/S_yt-uT4MXm0UBJM_64.mp4	0.0	162.98003482818604	0.10001301765441895
36	107.29910588264465	fix_pre	0		76.0	34.0	2.5	blank	1.0	163.08004784584045	0.6342461109161377
36	107.92427396774292	response	0	2		34.0	2.5	blank	1.0	163.70521593093872	
36	107.93335199356079	movie	1		301.0	34.0	2.5	blank	1.0	163.7142939567566	2.507424831390381
36	110.44077682495117	fix_post	2		12.0	34.0	2.5	blank	1.0	166.22171878814697	0.10002708435058594
37	110.54080390930176	fix_pre	0		51.0	35.0	2.5	/experiments/knapen_aot/videos/R_S_yt-H3EadcgKySM_58.mp4	0.0	166.32174587249756	0.4250791072845459
37	110.95752000808716	response	0	2		35.0	2.5	/experiments/knapen_aot/videos/R_S_yt-H3EadcgKySM_58.mp4	0.0	166.73846197128296	
37	110.9658830165863	movie	1		300.0	35.0	2.5	/experiments/knapen_aot/videos/R_S_yt-H3EadcgKySM_58.mp4	0.0	166.7468249797821	2.508176803588867
37	113.47405982017517	fix_post	2		12.0	35.0	2.5	/experiments/knapen_aot/videos/R_S_yt-H3EadcgKySM_58.mp4	0.0	169.25500178337097	0.10001516342163086
38	113.5740749835968	fix_pre	0		99.0	36.0	2.5	/experiments/knapen_aot/videos/R_S_ILSVRC2015_train_00538000.mp4	0.0	169.3550169467926	0.8249659538269043
38	114.38334798812866	response	0	2		36.0	2.5	/experiments/knapen_aot/videos/R_S_ILSVRC2015_train_00538000.mp4	0.0	170.16428995132446	
38	114.3990409374237	movie	1		301.0	36.0	2.5	/experiments/knapen_aot/videos/R_S_ILSVRC2015_train_00538000.mp4	0.0	170.1799829006195	2.508302927017212
38	116.90734386444092	fix_post	2		12.0	36.0	2.5	/experiments/knapen_aot/videos/R_S_ILSVRC2015_train_00538000.mp4	0.0	172.68828582763672	0.10005402565002441
39	117.00739789009094	fix_pre	0		65.0	37.0	2.5	/experiments/knapen_aot/videos/R_S_comp_HK_H004_C013_t9_6M_HB_tag0.mp4	0.0	172.78833985328674	0.5415990352630615
39	117.54087781906128	response	0	2		37.0	2.5	/experiments/knapen_aot/videos/R_S_comp_HK_H004_C013_t9_6M_HB_tag0.mp4	0.0	173.32181978225708	
39	117.548996925354	movie	1		172.0	37.0	2.5	/experiments/knapen_aot/videos/R_S_comp_HK_H004_C013_t9_6M_HB_tag0.mp4	0.0	173.3299388885498	2.5084259510040283
39	120.05742287635803	fix_post	2		12.0	37.0	2.5	/experiments/knapen_aot/videos/R_S_comp_HK_H004_C013_t9_6M_HB_tag0.mp4	0.0	175.83836483955383	0.09996914863586426
40	120.1573920249939	fix_pre	0		47.0	38.0	2.5	/experiments/knapen_aot/videos/S_yt-6aqg1P9YqR8_38.mp4	0.0	175.9383339881897	0.39171600341796875
40	120.54087591171265	response	0	2		38.0	2.5	/experiments/knapen_aot/videos/S_yt-6aqg1P9YqR8_38.mp4	0.0	176.32181787490845	
40	120.54910802841187	movie	1		301.0	38.0	2.5	/experiments/knapen_aot/videos/S_yt-6aqg1P9YqR8_38.mp4	0.0	176.33004999160767	2.5083019733428955
40	123.05741000175476	fix_post	2		12.0	38.0	2.5	/experiments/knapen_aot/videos/S_yt-6aqg1P9YqR8_38.mp4	0.0	178.83835196495056	0.09995079040527344
41	123.15736079216003	fix_pre	0		79.0	39.0	2.5	/experiments/knapen_aot/videos/R_S_ILSVRC2015_train_00697001.mp4	0.0	178.93830275535583	0.6582891941070557
41	123.80755090713501	response	0	2		39.0	2.5	/experiments/knapen_aot/videos/R_S_ILSVRC2015_train_00697001.mp4	0.0	179.5884928703308	
41	123.81564998626709	movie	1		301.0	39.0	2.5	/experiments/knapen_aot/videos/R_S_ILSVRC2015_train_00697001.mp4	0.0	179.5965919494629	2.508427858352661
41	126.32407784461975	fix_post	2		12.0	39.0	2.5	/experiments/knapen_aot/videos/R_S_ILSVRC2015_train_00697001.mp4	0.0	182.10501980781555	0.10001015663146973
42	126.42408800125122	fix_pre	0		38.0	40.0	2.5	/experiments/knapen_aot/videos/S_yt-9CY7rDYBYUI_40.mp4	0.0	182.20502996444702	0.3165898323059082
42	126.73241996765137	response	0	2		40.0	2.5	/experiments/knapen_aot/videos/S_yt-9CY7rDYBYUI_40.mp4	0.0	182.51336193084717	
42	126.74067783355713	movie	1		301.0	40.0	2.5	/experiments/knapen_aot/videos/S_yt-9CY7rDYBYUI_40.mp4	0.0	182.52161979675293	2.50839900970459
42	129.24907684326172	fix_post	2		12.0	40.0	2.5	/experiments/knapen_aot/videos/S_yt-9CY7rDYBYUI_40.mp4	0.0	185.03001880645752	0.10001111030578613
43	129.3490879535675	fix_pre	0		52.0	41.0	2.5	blank	1.0	185.1300299167633	0.4333028793334961
43	129.77415299415588	response	0	2		41.0	2.5	blank	1.0	185.55509495735168	
43	129.782390832901	movie	1		301.0	41.0	2.5	blank	1.0	185.5633327960968	2.508258104324341
43	132.29064893722534	fix_post	2		12.0	41.0	2.5	blank	1.0	188.07159090042114	0.09999299049377441
44	132.39064192771912	fix_pre	0		44.0	42.0	2.5	/experiments/knapen_aot/videos/R_S_yt-5MyvZYFlc9g_125.mp4	0.0	188.17158389091492	0.36672186851501465
44	132.74915981292725	response	0	2		42.0	2.5	/experiments/knapen_aot/videos/R_S_yt-5MyvZYFlc9g_125.mp4	0.0	188.53010177612305	
44	132.75736379623413	movie	1		301.0	42.0	2.5	/experiments/knapen_aot/videos/R_S_yt-5MyvZYFlc9g_125.mp4	0.0	188.53830575942993	2.5083651542663574
44	135.2657289505005	fix_post	2		12.0	42.0	2.5	/experiments/knapen_aot/videos/R_S_yt-5MyvZYFlc9g_125.mp4	0.0	191.0466709136963	0.09998893737792969
45	135.36571788787842	fix_pre	0		47.0	43.0	2.5	/experiments/knapen_aot/videos/S_yt-nS2QqSQbjOQ_39.mp4	0.0	191.14665985107422	0.39164113998413086
45	135.74916791915894	response	0	2		43.0	2.5	/experiments/knapen_aot/videos/S_yt-nS2QqSQbjOQ_39.mp4	0.0	191.53010988235474	
45	135.75735902786255	movie	1		301.0	43.0	2.5	/experiments/knapen_aot/videos/S_yt-nS2QqSQbjOQ_39.mp4	0.0	191.53830099105835	2.508333921432495
45	138.26569294929504	fix_post	2		12.0	43.0	2.5	/experiments/knapen_aot/videos/S_yt-nS2QqSQbjOQ_39.mp4	0.0	194.04663491249084	0.09999704360961914
46	138.36568999290466	fix_pre	0		55.0	44.0	2.5	/experiments/knapen_aot/videos/S_yt-roThCERxVCs_133.mp4	0.0	194.14663195610046	0.4583168029785156
46	138.8158619403839	response	0	2		44.0	2.5	/experiments/knapen_aot/videos/S_yt-roThCERxVCs_133.mp4	0.0	194.5968039035797	
46	138.82400679588318	movie	1		301.0	44.0	2.5	/experiments/knapen_aot/videos/S_yt-roThCERxVCs_133.mp4	0.0	194.60494875907898	2.5083460807800293
46	141.3323528766632	fix_post	2		12.0	44.0	2.5	/experiments/knapen_aot/videos/S_yt-roThCERxVCs_133.mp4	0.0	197.113294839859	0.09998703002929688
47	141.4323399066925	fix_pre	0		60.0	45.0	2.5	/experiments/knapen_aot/videos/S_pexels-cottonbro-10640532.mp4	0.0	197.2132818698883	0.5006439685821533
47	141.92405200004578	response	0	2		45.0	2.5	/experiments/knapen_aot/videos/S_pexels-cottonbro-10640532.mp4	0.0	197.70499396324158	
47	141.93298387527466	movie	1		194.0	45.0	2.5	/experiments/knapen_aot/videos/S_pexels-cottonbro-10640532.mp4	0.0	197.71392583847046	2.507672071456909
47	144.44065594673157	fix_post	2		12.0	45.0	2.5	/experiments/knapen_aot/videos/S_pexels-cottonbro-10640532.mp4	0.0	200.22159790992737	0.10000205039978027
48	144.54065799713135	fix_pre	0		41.0	46.0	2.5	/experiments/knapen_aot/videos/R_S_yt-GytLOB9Qjro_76.mp4	0.0	200.32159996032715	0.3416249752044678
48	144.8740999698639	response	0	2		46.0	2.5	/experiments/knapen_aot/videos/R_S_yt-GytLOB9Qjro_76.mp4	0.0	200.6550419330597	
48	144.88228297233582	movie	1		301.0	46.0	2.5	/experiments/knapen_aot/videos/R_S_yt-GytLOB9Qjro_76.mp4	0.0	200.66322493553162	2.508333921432495
48	147.3906168937683	fix_post	2		12.0	46.0	2.5	/experiments/knapen_aot/videos/R_S_yt-GytLOB9Qjro_76.mp4	0.0	203.1715588569641	0.099945068359375
49	147.49056196212769	fix_pre	0		49.0	47.0	2.5	blank	1.0	203.2715039253235	0.40828585624694824
49	147.89077186584473	response	0	2		47.0	2.5	blank	1.0	203.67171382904053	
49	147.89884781837463	movie	1		301.0	47.0	2.5	blank	1.0	203.67978978157043	2.5083470344543457
49	150.40719485282898	fix_post	2		12.0	47.0	2.5	blank	1.0	206.18813681602478	0.1000969409942627
50	150.50729179382324	fix_pre	0		57.0	48.0	2.5	/experiments/knapen_aot/videos/S_yt-f9iXELY0EJ0_344.mp4	0.0	206.28823375701904	0.47493720054626465
50	150.97398591041565	response	0	2		48.0	2.5	/experiments/knapen_aot/videos/S_yt-f9iXELY0EJ0_344.mp4	0.0	206.75492787361145	
50	150.9822289943695	movie	1		301.0	48.0	2.5	/experiments/knapen_aot/videos/S_yt-f9iXELY0EJ0_344.mp4	0.0	206.7631709575653	2.508396863937378
50	153.49062585830688	fix_post	2		12.0	48.0	2.5	/experiments/knapen_aot/videos/S_yt-f9iXELY0EJ0_344.mp4	0.0	209.27156782150269	0.09997010231018066
51	153.59059596061707	fix_pre	0		62.0	49.0	2.5	/experiments/knapen_aot/videos/S_yt-4rwBpRuHg-c_1308.mp4	0.0	209.37153792381287	0.5165770053863525
51	154.09905886650085	response	0	2		49.0	2.5	/experiments/knapen_aot/videos/S_yt-4rwBpRuHg-c_1308.mp4	0.0	209.88000082969666	
51	154.10717296600342	movie	1		301.0	49.0	2.5	/experiments/knapen_aot/videos/S_yt-4rwBpRuHg-c_1308.mp4	0.0	209.88811492919922	2.5083799362182617
51	156.61555290222168	fix_post	2		12.0	49.0	2.5	/experiments/knapen_aot/videos/S_yt-4rwBpRuHg-c_1308.mp4	0.0	212.39649486541748	0.10004210472106934
52	156.71559500694275	fix_pre	0		98.0	50.0	2.5	/experiments/knapen_aot/videos/S_comp_H012_C009_PS_v01_SDR_PS_20180925_SDR_2K_AVC.mp4	0.0	212.49653697013855	0.8166038990020752
52	157.52406287193298	response	0	2		50.0	2.5	/experiments/knapen_aot/videos/S_comp_H012_C009_PS_v01_SDR_PS_20180925_SDR_2K_AVC.mp4	0.0	213.30500483512878	
52	157.53219890594482	movie	1		165.0	50.0	2.5	/experiments/knapen_aot/videos/S_comp_H012_C009_PS_v01_SDR_PS_20180925_SDR_2K_AVC.mp4	0.0	213.31314086914062	2.5083820819854736
52	160.0405809879303	fix_post	2		12.0	50.0	2.5	/experiments/knapen_aot/videos/S_comp_H012_C009_PS_v01_SDR_PS_20180925_SDR_2K_AVC.mp4	0.0	215.8215229511261	0.09994888305664062
53	160.14052987098694	fix_pre	0		53.0	51.0	2.5	/experiments/knapen_aot/videos/R_S_yt-0buqUbXVTn8_48.mp4	0.0	215.92147183418274	0.4416680335998535
53	160.57409596443176	response	0	2		51.0	2.5	/experiments/knapen_aot/videos/R_S_yt-0buqUbXVTn8_48.mp4	0.0	216.35503792762756	
53	160.5821979045868	movie	1		301.0	51.0	2.5	/experiments/knapen_aot/videos/R_S_yt-0buqUbXVTn8_48.mp4	0.0	216.3631398677826	2.5083699226379395
53	163.09056782722473	fix_post	2		12.0	51.0	2.5	/experiments/knapen_aot/videos/R_S_yt-0buqUbXVTn8_48.mp4	0.0	218.87150979042053	0.10004711151123047
54	163.19061493873596	fix_pre	0		56.0	52.0	2.5	/experiments/knapen_aot/videos/S_yt-9NV8zv2Sdq4_30.mp4	0.0	218.97155690193176	0.4665858745574951
54	163.6490478515625	response	0	2		52.0	2.5	/experiments/knapen_aot/videos/S_yt-9NV8zv2Sdq4_30.mp4	0.0	219.4299898147583	
54	163.65720081329346	movie	1		301.0	52.0	2.5	/experiments/knapen_aot/videos/S_yt-9NV8zv2Sdq4_30.mp4	0.0	219.43814277648926	2.5083811283111572
54	166.16558194160461	fix_post	2		12.0	52.0	2.5	/experiments/knapen_aot/videos/S_yt-9NV8zv2Sdq4_30.mp4	0.0	221.94652390480042	0.10002493858337402
55	166.265606880188	fix_pre	0		85.0	53.0	2.5	/experiments/knapen_aot/videos/S_yt-ROhKDdF1gV4_21.mp4	0.0	222.0465488433838	0.7088150978088379
55	166.96563291549683	response	0	2		53.0	2.5	/experiments/knapen_aot/videos/S_yt-ROhKDdF1gV4_21.mp4	0.0	222.74657487869263	
55	166.97442197799683	movie	1		301.0	53.0	2.5	/experiments/knapen_aot/videos/S_yt-ROhKDdF1gV4_21.mp4	0.0	222.75536394119263	2.5077550411224365
55	169.48217701911926	fix_post	2		12.0	53.0	2.5	/experiments/knapen_aot/videos/S_yt-ROhKDdF1gV4_21.mp4	0.0	225.26311898231506	0.10004997253417969
56	169.58222699165344	fix_pre	0		41.0	54.0	2.5	/experiments/knapen_aot/videos/R_S_production_ID_5119260.mp4	0.0	225.36316895484924	0.34161901473999023
56	169.915678024292	response	0	2		54.0	2.5	/experiments/knapen_aot/videos/R_S_production_ID_5119260.mp4	0.0	225.6966199874878	
56	169.92384600639343	movie	1		163.0	54.0	2.5	/experiments/knapen_aot/videos/R_S_production_ID_5119260.mp4	0.0	225.70478796958923	2.5083839893341064
56	172.43222999572754	fix_post	2		12.0	54.0	2.5	/experiments/knapen_aot/videos/R_S_production_ID_5119260.mp4	0.0	228.21317195892334	0.09999394416809082
57	172.53222393989563	fix_pre	0		128.0	55.0	2.5	/experiments/knapen_aot/videos/S_production_ID_5102663.mp4	0.0	228.31316590309143	1.0671930313110352
57	173.59062099456787	response	0	2		55.0	2.5	/experiments/knapen_aot/videos/S_production_ID_5102663.mp4	0.0	229.37156295776367	
57	173.59941697120667	movie	1		195.0	55.0	2.5	/experiments/knapen_aot/videos/S_production_ID_5102663.mp4	0.0	229.38035893440247	2.5077688694000244
57	176.1071858406067	fix_post	2		12.0	55.0	2.5	/experiments/knapen_aot/videos/S_production_ID_5102663.mp4	0.0	231.8881278038025	0.09999418258666992
58	176.20718002319336	fix_pre	0		57.0	56.0	2.5	blank	1.0	231.98812198638916	0.47553181648254395
58	176.67393684387207	response	0	2		56.0	2.5	blank	1.0	232.45487880706787	
58	176.6827118396759	movie	1		301.0	56.0	2.5	blank	1.0	232.4636538028717	2.5077691078186035
58	179.1904809474945	fix_post	2		12.0	56.0	2.5	blank	1.0	234.9714229106903	0.10004591941833496
59	179.29052686691284	fix_pre	0		52.0	57.0	2.5	/experiments/knapen_aot/videos/S_yt-9EnchawJ3pA_90.mp4	0.0	235.07146883010864	0.43378114700317383
59	179.71560502052307	response	0	2		57.0	2.5	/experiments/knapen_aot/videos/S_yt-9EnchawJ3pA_90.mp4	0.0	235.49654698371887	
59	179.72430801391602	movie	1		301.0	57.0	2.5	/experiments/knapen_aot/videos/S_yt-9EnchawJ3pA_90.mp4	0.0	235.50524997711182	2.507840871810913
59	182.23214888572693	fix_post	2		12.0	57.0	2.5	/experiments/knapen_aot/videos/S_yt-9EnchawJ3pA_90.mp4	0.0	238.01309084892273	0.10001993179321289
60	182.33216881752014	fix_pre	0		61.0	58.0	2.5	/experiments/knapen_aot/videos/R_S_bing-www_nbcnews_com_storyline_isis-terror_fall-isis-stronghold-raqqa-will-change-war-extremists-not-end-n808621_86.mp4	0.0	238.11311078071594	0.5082671642303467
60	182.83214592933655	response	0	2		58.0	2.5	/experiments/knapen_aot/videos/R_S_bing-www_nbcnews_com_storyline_isis-terror_fall-isis-stronghold-raqqa-will-change-war-extremists-not-end-n808621_86.mp4	0.0	238.61308789253235	
60	182.8404359817505	movie	1		163.0	58.0	2.5	/experiments/knapen_aot/videos/R_S_bing-www_nbcnews_com_storyline_isis-terror_fall-isis-stronghold-raqqa-will-change-war-extremists-not-end-n808621_86.mp4	0.0	238.6213779449463	2.5083279609680176
60	185.3487639427185	fix_post	2		12.0	58.0	2.5	/experiments/knapen_aot/videos/R_S_bing-www_nbcnews_com_storyline_isis-terror_fall-isis-stronghold-raqqa-will-change-war-extremists-not-end-n808621_86.mp4	0.0	241.1297059059143	0.10013604164123535
61	185.44889998435974	fix_pre	0		76.0	59.0	2.5	/experiments/knapen_aot/videos/S_yt-2ftSsLqRQnA_84.mp4	0.0	241.22984194755554	0.6332809925079346
61	186.07399797439575	response	0	2		59.0	2.5	/experiments/knapen_aot/videos/S_yt-2ftSsLqRQnA_84.mp4	0.0	241.85493993759155	
61	186.08218097686768	movie	1		301.0	59.0	2.5	/experiments/knapen_aot/videos/S_yt-2ftSsLqRQnA_84.mp4	0.0	241.86312294006348	2.5081799030303955
61	188.59036087989807	fix_post	2		12.0	59.0	2.5	/experiments/knapen_aot/videos/S_yt-2ftSsLqRQnA_84.mp4	0.0	244.37130284309387	0.10008811950683594
62	188.6904489994049	fix_pre	0		50.0	60.0	2.5	/experiments/knapen_aot/videos/S_yt-_HuBzj8EPBc_62.mp4	0.0	244.4713909626007	0.41666102409362793
62	189.09887790679932	response	0	2		60.0	2.5	/experiments/knapen_aot/videos/S_yt-_HuBzj8EPBc_62.mp4	0.0	244.87981986999512	
62	189.10711002349854	movie	1		301.0	60.0	2.5	/experiments/knapen_aot/videos/S_yt-_HuBzj8EPBc_62.mp4	0.0	244.88805198669434	2.508312940597534
62	191.61542296409607	fix_post	2		12.0	60.0	2.5	/experiments/knapen_aot/videos/S_yt-_HuBzj8EPBc_62.mp4	0.0	247.39636492729187	0.10003185272216797
63	191.71545481681824	fix_pre	0		60.0	61.0	2.5	/experiments/knapen_aot/videos/S_yt-ZE8Af60eNsI_15.mp4	0.0	247.49639678001404	0.49996399879455566
63	192.20719981193542	response	0	2		61.0	2.5	/experiments/knapen_aot/videos/S_yt-ZE8Af60eNsI_15.mp4	0.0	247.98814177513123	
63	192.2154188156128	movie	1		301.0	61.0	2.5	/experiments/knapen_aot/videos/S_yt-ZE8Af60eNsI_15.mp4	0.0	247.9963607788086	2.508244037628174
63	194.72366285324097	fix_post	2		12.0	61.0	2.5	/experiments/knapen_aot/videos/S_yt-ZE8Af60eNsI_15.mp4	0.0	250.50460481643677	0.10004496574401855
64	194.82370781898499	fix_pre	0		58.0	62.0	2.5	/experiments/knapen_aot/videos/S_yt-J-tkAYy40uY_84.mp4	0.0	250.6046497821808	0.48382115364074707
64	195.29889702796936	response	0	2		62.0	2.5	/experiments/knapen_aot/videos/S_yt-J-tkAYy40uY_84.mp4	0.0	251.07983899116516	
64	195.30752897262573	movie	1		301.0	62.0	2.5	/experiments/knapen_aot/videos/S_yt-J-tkAYy40uY_84.mp4	0.0	251.08847093582153	2.5078868865966797
64	197.8154158592224	fix_post	2		12.0	62.0	2.5	/experiments/knapen_aot/videos/S_yt-J-tkAYy40uY_84.mp4	0.0	253.5963578224182	0.10001993179321289
65	197.91543579101562	fix_pre	0		55.0	63.0	2.5	blank	1.0	253.69637775421143	0.45830607414245605
65	198.36550879478455	response	0	2		63.0	2.5	blank	1.0	254.14645075798035	
65	198.37374186515808	movie	1		301.0	63.0	2.5	blank	1.0	254.15468382835388	2.5082640647888184
65	200.8820059299469	fix_post	2		12.0	63.0	2.5	blank	1.0	256.6629478931427	0.1000220775604248
66	200.98202800750732	fix_pre	0		64.0	64.0	2.5	/experiments/knapen_aot/videos/S_yt-T1mMDOVjvrE_83.mp4	0.0	256.7629699707031	0.5337419509887695
66	201.50724601745605	response	0	2		64.0	2.5	/experiments/knapen_aot/videos/S_yt-T1mMDOVjvrE_83.mp4	0.0	257.28818798065186	
66	201.5157699584961	movie	1		301.0	64.0	2.5	/experiments/knapen_aot/videos/S_yt-T1mMDOVjvrE_83.mp4	0.0	257.2967119216919	2.5079660415649414
66	204.02373600006104	fix_post	2		12.0	64.0	2.5	/experiments/knapen_aot/videos/S_yt-T1mMDOVjvrE_83.mp4	0.0	259.80467796325684	0.09991002082824707
67	204.12364602088928	fix_pre	0		35.0	65.0	2.5	/experiments/knapen_aot/videos/R_S_yt-QJ2k6vA8aco_12.mp4	0.0	259.9045879840851	0.29166078567504883
67	204.40720391273499	response	0	2		65.0	2.5	/experiments/knapen_aot/videos/R_S_yt-QJ2k6vA8aco_12.mp4	0.0	260.1881458759308	
67	204.41530680656433	movie	1		300.0	65.0	2.5	/experiments/knapen_aot/videos/R_S_yt-QJ2k6vA8aco_12.mp4	0.0	260.19624876976013	2.5084240436553955
67	206.92373085021973	fix_post	2		12.0	65.0	2.5	/experiments/knapen_aot/videos/R_S_yt-QJ2k6vA8aco_12.mp4	0.0	262.7046728134155	0.09996914863586426
68	207.0236999988556	fix_pre	0		25.0	66.0	2.5	/experiments/knapen_aot/videos/S_yt-iT6jsSikmGM_4.mp4	0.0	262.8046419620514	0.20836281776428223
68	207.22380685806274	response	0	2		66.0	2.5	/experiments/knapen_aot/videos/S_yt-iT6jsSikmGM_4.mp4	0.0	263.00474882125854	
68	207.23206281661987	movie	1		301.0	66.0	2.5	/experiments/knapen_aot/videos/S_yt-iT6jsSikmGM_4.mp4	0.0	263.0130047798157	2.508294105529785
68	209.74035692214966	fix_post	2		12.0	66.0	2.5	/experiments/knapen_aot/videos/S_yt-iT6jsSikmGM_4.mp4	0.0	265.52129888534546	0.09993791580200195
69	209.84029483795166	fix_pre	0		67.0	67.0	2.5	/experiments/knapen_aot/videos/S_video_inspire_uk_london_hampstead-heath_003.1080-h264.mp4	0.0	265.62123680114746	0.5583891868591309
69	210.39047479629517	response	0	2		67.0	2.5	/experiments/knapen_aot/videos/S_video_inspire_uk_london_hampstead-heath_003.1080-h264.mp4	0.0	266.17141675949097	
69	210.3986840248108	movie	1		169.0	67.0	2.5	/experiments/knapen_aot/videos/S_video_inspire_uk_london_hampstead-heath_003.1080-h264.mp4	0.0	266.1796259880066	2.508403778076172
69	212.90708780288696	fix_post	2		12.0	67.0	2.5	/experiments/knapen_aot/videos/S_video_inspire_uk_london_hampstead-heath_003.1080-h264.mp4	0.0	268.68802976608276	0.09998917579650879
70	213.00707697868347	fix_pre	0		79.0	68.0	2.5	/experiments/knapen_aot/videos/R_S_ILSVRC2015_test_00012005.mp4	0.0	268.7880189418793	0.6583058834075928
70	213.64968991279602	response	0	2		68.0	2.5	/experiments/knapen_aot/videos/R_S_ILSVRC2015_test_00012005.mp4	0.0	269.4306318759918	
70	213.66538286209106	movie	1		301.0	68.0	2.5	/experiments/knapen_aot/videos/R_S_ILSVRC2015_test_00012005.mp4	0.0	269.44632482528687	2.5083019733428955
70	216.17368483543396	fix_post	2		12.0	68.0	2.5	/experiments/knapen_aot/videos/R_S_ILSVRC2015_test_00012005.mp4	0.0	271.95462679862976	0.10002303123474121
71	216.2737078666687	fix_pre	0		46.0	69.0	2.5	blank	1.0	272.0546498298645	0.3832690715789795
71	216.6487820148468	response	0	2		69.0	2.5	blank	1.0	272.4297239780426	
71	216.65697693824768	movie	1		301.0	69.0	2.5	blank	1.0	272.4379189014435	2.5084939002990723
71	219.16547083854675	fix_post	2		12.0	69.0	2.5	blank	1.0	274.94641280174255	0.10019803047180176
72	219.26566886901855	fix_pre	0		83.0	70.0	2.5	/experiments/knapen_aot/videos/S_yt-14tjqjjjAEI_15.mp4	0.0	275.04661083221436	0.6913220882415771
72	219.9487669467926	response	0	2		70.0	2.5	/experiments/knapen_aot/videos/S_yt-14tjqjjjAEI_15.mp4	0.0	275.7297089099884	
72	219.95699095726013	movie	1		301.0	70.0	2.5	/experiments/knapen_aot/videos/S_yt-14tjqjjjAEI_15.mp4	0.0	275.73793292045593	2.5083298683166504
72	222.46532082557678	fix_post	2		12.0	70.0	2.5	/experiments/knapen_aot/videos/S_yt-14tjqjjjAEI_15.mp4	0.0	278.2462627887726	0.0999901294708252
73	222.5653109550476	fix_pre	0		70.0	71.0	2.5	/experiments/knapen_aot/videos/S_production_ID_4153808.mp4	0.0	278.3462529182434	0.5832970142364502
73	223.14045882225037	response	0	2		71.0	2.5	/experiments/knapen_aot/videos/S_production_ID_4153808.mp4	0.0	278.92140078544617	
73	223.14860796928406	movie	1		204.0	71.0	2.5	/experiments/knapen_aot/videos/S_production_ID_4153808.mp4	0.0	278.92954993247986	2.5083558559417725
73	225.65696382522583	fix_post	2		12.0	71.0	2.5	/experiments/knapen_aot/videos/S_production_ID_4153808.mp4	0.0	281.43790578842163	0.09998202323913574
74	225.75694584846497	fix_pre	0		51.0	72.0	2.5	/experiments/knapen_aot/videos/R_S_yt-lv6mhnH7_g4_134.mp4	0.0	281.53788781166077	0.42528200149536133
74	226.17380690574646	response	0	2		72.0	2.5	/experiments/knapen_aot/videos/R_S_yt-lv6mhnH7_g4_134.mp4	0.0	281.95474886894226	
74	226.18222784996033	movie	1		301.0	72.0	2.5	/experiments/knapen_aot/videos/R_S_yt-lv6mhnH7_g4_134.mp4	0.0	281.9631698131561	2.5081331729888916
74	228.69036102294922	fix_post	2		12.0	72.0	2.5	/experiments/knapen_aot/videos/R_S_yt-lv6mhnH7_g4_134.mp4	0.0	284.471302986145	0.09997177124023438
75	228.79033279418945	fix_pre	0		55.0	73.0	2.5	/experiments/knapen_aot/videos/S_pexels-sora-shimazaki-5925295.mp4	0.0	284.57127475738525	0.4583420753479004
75	229.24050283432007	response	0	2		73.0	2.5	/experiments/knapen_aot/videos/S_pexels-sora-shimazaki-5925295.mp4	0.0	285.02144479751587	
75	229.24867486953735	movie	1		164.0	73.0	2.5	/experiments/knapen_aot/videos/S_pexels-sora-shimazaki-5925295.mp4	0.0	285.02961683273315	2.5083370208740234
75	231.75701189041138	fix_post	2		12.0	73.0	2.5	/experiments/knapen_aot/videos/S_pexels-sora-shimazaki-5925295.mp4	0.0	287.5379538536072	0.09997200965881348
76	231.8569839000702	fix_pre	0		58.0	74.0	2.5	/experiments/knapen_aot/videos/S_yt-lv6mhnH7_g4_134.mp4	0.0	287.637925863266	0.48331594467163086
76	232.33210396766663	response	0	2		74.0	2.5	/experiments/knapen_aot/videos/S_yt-lv6mhnH7_g4_134.mp4	0.0	288.1130459308624	
76	232.34029984474182	movie	1		301.0	74.0	2.5	/experiments/knapen_aot/videos/S_yt-lv6mhnH7_g4_134.mp4	0.0	288.1212418079376	2.508589029312134
76	234.84888887405396	fix_post	2		12.0	74.0	2.5	/experiments/knapen_aot/videos/S_yt-lv6mhnH7_g4_134.mp4	0.0	290.62983083724976	0.09975194931030273
77	234.94864082336426	fix_pre	0		55.0	75.0	2.5	/experiments/knapen_aot/videos/R_S_yt-SjPYdaUBi7A_37.mp4	0.0	290.72958278656006	0.45833802223205566
77	235.39879989624023	response	0	2		75.0	2.5	/experiments/knapen_aot/videos/R_S_yt-SjPYdaUBi7A_37.mp4	0.0	291.17974185943604	
77	235.4069788455963	movie	1		301.0	75.0	2.5	/experiments/knapen_aot/videos/R_S_yt-SjPYdaUBi7A_37.mp4	0.0	291.1879208087921	2.5082950592041016
77	237.91527390480042	fix_post	2		12.0	75.0	2.5	/experiments/knapen_aot/videos/R_S_yt-SjPYdaUBi7A_37.mp4	0.0	293.6962158679962	0.10021591186523438
78	238.01548981666565	fix_pre	0		51.0	76.0	2.5	/experiments/knapen_aot/videos/S_yt-9NV8zv2Sdq4_30.mp4	0.0	293.79643177986145	0.42476820945739746
78	238.43209600448608	response	0	2		76.0	2.5	/experiments/knapen_aot/videos/S_yt-9NV8zv2Sdq4_30.mp4	0.0	294.2130379676819	
78	238.44025802612305	movie	1		301.0	76.0	2.5	/experiments/knapen_aot/videos/S_yt-9NV8zv2Sdq4_30.mp4	0.0	294.22119998931885	2.5083158016204834
78	240.94857382774353	fix_post	2		12.0	76.0	2.5	/experiments/knapen_aot/videos/S_yt-9NV8zv2Sdq4_30.mp4	0.0	296.72951579093933	0.0999901294708252
79	241.04856395721436	fix_pre	0		91.0	77.0	2.5	blank	1.0	296.82950592041016	0.7666919231414795
79	241.8070318698883	response	0	2		77.0	2.5	blank	1.0	297.5879738330841	
79	241.81525588035583	movie	1		301.0	77.0	2.5	blank	1.0	297.59619784355164	2.508373975753784
79	244.32362985610962	fix_post	2		12.0	77.0	2.5	blank	1.0	300.1045718193054	0.09999513626098633
80	244.4236249923706	fix_pre	0		61.0	78.0	2.5	/experiments/knapen_aot/videos/R_S_video_inspire_uk_london_hampstead-heath_003.1080-h264.mp4	0.0	300.2045669555664	0.5084328651428223
80	244.92363500595093	response	0	2		78.0	2.5	/experiments/knapen_aot/videos/R_S_video_inspire_uk_london_hampstead-heath_003.1080-h264.mp4	0.0	300.70457696914673	
80	244.93205785751343	movie	1		181.0	78.0	2.5	/experiments/knapen_aot/videos/R_S_video_inspire_uk_london_hampstead-heath_003.1080-h264.mp4	0.0	300.71299982070923	2.5081920623779297
80	247.44024991989136	fix_post	2		12.0	78.0	2.5	/experiments/knapen_aot/videos/R_S_video_inspire_uk_london_hampstead-heath_003.1080-h264.mp4	0.0	303.22119188308716	0.10006999969482422
81	247.54031991958618	fix_pre	0		63.0	79.0	2.5	/experiments/knapen_aot/videos/S_ILSVRC2015_train_00339001.mp4	0.0	303.321261882782	0.5248661041259766
81	248.05703687667847	response	0	2		79.0	2.5	/experiments/knapen_aot/videos/S_ILSVRC2015_train_00339001.mp4	0.0	303.83797883987427	
81	248.06518602371216	movie	1		301.0	79.0	2.5	/experiments/knapen_aot/videos/S_ILSVRC2015_train_00339001.mp4	0.0	303.84612798690796	2.5083088874816895
81	250.57349491119385	fix_post	2		12.0	79.0	2.5	/experiments/knapen_aot/videos/S_ILSVRC2015_train_00339001.mp4	0.0	306.35443687438965	0.10003495216369629
82	250.67352986335754	fix_pre	0		58.0	80.0	2.5	/experiments/knapen_aot/videos/S_Pexels_Videos_2795731_1.mp4	0.0	306.45447182655334	0.4832620620727539
82	251.14865279197693	response	0	2		80.0	2.5	/experiments/knapen_aot/videos/S_Pexels_Videos_2795731_1.mp4	0.0	306.92959475517273	
82	251.1567919254303	movie	1		161.0	80.0	2.5	/experiments/knapen_aot/videos/S_Pexels_Videos_2795731_1.mp4	0.0	306.9377338886261	2.508401870727539
82	253.66519379615784	fix_post	2		12.0	80.0	2.5	/experiments/knapen_aot/videos/S_Pexels_Videos_2795731_1.mp4	0.0	309.44613575935364	0.10013604164123535
83	253.76532983779907	fix_pre	0		56.0	81.0	2.5	/experiments/knapen_aot/videos/S_yt-e9AZJKNv9ow_359.mp4	0.0	309.5462718009949	0.4664909839630127
83	254.22372889518738	response	0	2		81.0	2.5	/experiments/knapen_aot/videos/S_yt-e9AZJKNv9ow_359.mp4	0.0	310.0046708583832	
83	254.23182082176208	movie	1		301.0	81.0	2.5	/experiments/knapen_aot/videos/S_yt-e9AZJKNv9ow_359.mp4	0.0	310.0127627849579	2.508380174636841
83	256.7402009963989	fix_post	2		12.0	81.0	2.5	/experiments/knapen_aot/videos/S_yt-e9AZJKNv9ow_359.mp4	0.0	312.5211429595947	0.09996891021728516
84	256.8401699066162	fix_pre	0		74.0	82.0	2.5	/experiments/knapen_aot/videos/R_S_ILSVRC2015_train_00521000.mp4	0.0	312.621111869812	0.616645097732544
84	257.4485800266266	response	0	2		82.0	2.5	/experiments/knapen_aot/videos/R_S_ILSVRC2015_train_00521000.mp4	0.0	313.2295219898224	
84	257.45681500434875	movie	1		301.0	82.0	2.5	/experiments/knapen_aot/videos/R_S_ILSVRC2015_train_00521000.mp4	0.0	313.23775696754456	2.5083959102630615
84	259.9652109146118	fix_post	2		12.0	82.0	2.5	/experiments/knapen_aot/videos/R_S_ILSVRC2015_train_00521000.mp4	0.0	315.7461528778076	0.10004591941833496
85	260.06525683403015	fix_pre	0		63.0	83.0	2.5	blank	1.0	315.84619879722595	0.5249571800231934
85	260.5819869041443	response	0	2		83.0	2.5	blank	1.0	316.3629288673401	
85	260.59021401405334	movie	1		301.0	83.0	2.5	blank	1.0	316.37115597724915	2.508436918258667
85	263.098650932312	fix_post	2		12.0	83.0	2.5	blank	1.0	318.8795928955078	0.09974908828735352
87	263.19840002059937	stim	0		167.0					318.97934198379517	1.3932578563690186
87	264.58651900291443	response	0	space						320.36746096611023	
