trial_nr	onset	event_type	phase	response	nr_frames	movie_index	movie_duration	movie_file	blank	onset_abs	duration
0	0.15820884704589844	stim	0		49.0					136.5819969177246	0.40935397148132324
0	0.5584869384765625	response	0	space						136.98227500915527	
1	0.5675628185272217	stim	0		121.0					136.99135088920593	1.007223129272461
1	1.4997808933258057	response	0	space						137.92356896400452	
1	1.5747859477996826	stim	1		120.0					137.9985740184784	1.0
1	2.249741792678833	response	1	space						138.67352986335754	
2	2.5747859477996826	fix_pre	0		1.0	0.0	2.5	/experiments/knapen_aot/videos/R_S_yt-rlEPywo5BEQ_36.mp4	0.0	138.9985740184784	0.008182048797607422
2	2.577875852584839	response	0	space		0.0	2.5	/experiments/knapen_aot/videos/R_S_yt-rlEPywo5BEQ_36.mp4	0.0	139.00166392326355	
2	2.58296799659729	movie	1		295.0	0.0	2.5	/experiments/knapen_aot/videos/R_S_yt-rlEPywo5BEQ_36.mp4	0.0	139.006756067276	2.508384943008423
2	2.699697971343994	response	1	space		0.0	2.5	/experiments/knapen_aot/videos/R_S_yt-rlEPywo5BEQ_36.mp4	0.0	139.1234860420227	
2	5.091352939605713	fix_post	2		12.0	0.0	2.5	/experiments/knapen_aot/videos/R_S_yt-rlEPywo5BEQ_36.mp4	0.0	141.51514101028442	0.09999585151672363
3	5.1913487911224365	fix_pre	0		52.0	1.0	2.5	/experiments/knapen_aot/videos/R_S_yt-V5iQ3MbihnI_103.mp4	0.0	141.61513686180115	0.4332880973815918
3	5.61669397354126	response	0	2		1.0	2.5	/experiments/knapen_aot/videos/R_S_yt-V5iQ3MbihnI_103.mp4	0.0	142.04048204421997	
3	5.624636888504028	movie	1		301.0	1.0	2.5	/experiments/knapen_aot/videos/R_S_yt-V5iQ3MbihnI_103.mp4	0.0	142.04842495918274	2.5083560943603516
3	8.13299298286438	fix_post	2		12.0	1.0	2.5	/experiments/knapen_aot/videos/R_S_yt-V5iQ3MbihnI_103.mp4	0.0	144.5567810535431	0.09996581077575684
4	8.232958793640137	fix_pre	0		46.0	2.0	2.5	/experiments/knapen_aot/videos/R_S_pexels-c-technical-6809719.mp4	0.0	144.65674686431885	0.3833291530609131
4	8.608189821243286	response	0	2		2.0	2.5	/experiments/knapen_aot/videos/R_S_pexels-c-technical-6809719.mp4	0.0	145.031977891922	
4	8.61628794670105	movie	1		193.0	2.0	2.5	/experiments/knapen_aot/videos/R_S_pexels-c-technical-6809719.mp4	0.0	145.04007601737976	2.50833797454834
4	11.12462592124939	fix_post	2		12.0	2.0	2.5	/experiments/knapen_aot/videos/R_S_pexels-c-technical-6809719.mp4	0.0	147.5484139919281	0.09997892379760742
5	11.224604845046997	fix_pre	0		42.0	3.0	2.5	/experiments/knapen_aot/videos/S_ILSVRC2015_train_00444000.mp4	0.0	147.6483929157257	0.34999608993530273
5	11.566395998001099	response	0	2		3.0	2.5	/experiments/knapen_aot/videos/S_ILSVRC2015_train_00444000.mp4	0.0	147.9901840686798	
5	11.5746009349823	movie	1		301.0	3.0	2.5	/experiments/knapen_aot/videos/S_ILSVRC2015_train_00444000.mp4	0.0	147.998389005661	2.508358955383301
5	14.0829598903656	fix_post	2		12.0	3.0	2.5	/experiments/knapen_aot/videos/S_ILSVRC2015_train_00444000.mp4	0.0	150.5067479610443	0.10000801086425781
6	14.182967901229858	fix_pre	0		81.0	4.0	2.5	/experiments/knapen_aot/videos/S_yt-9mWz93En7Gw_97.mp4	0.0	150.60675597190857	0.6760790348052979
6	14.84972095489502	response	0	2		4.0	2.5	/experiments/knapen_aot/videos/S_yt-9mWz93En7Gw_97.mp4	0.0	151.27350902557373	
6	14.859046936035156	movie	1		301.0	4.0	2.5	/experiments/knapen_aot/videos/S_yt-9mWz93En7Gw_97.mp4	0.0	151.28283500671387	2.507175922393799
6	17.366222858428955	fix_post	2		12.0	4.0	2.5	/experiments/knapen_aot/videos/S_yt-9mWz93En7Gw_97.mp4	0.0	153.79001092910767	0.10009908676147461
7	17.46632194519043	fix_pre	0		23.0	5.0	2.5	/experiments/knapen_aot/videos/R_S_I003_C004_SDR_2K_AVC.mp4	0.0	153.89011001586914	0.1916038990020752
7	17.649704933166504	response	0	2		5.0	2.5	/experiments/knapen_aot/videos/R_S_I003_C004_SDR_2K_AVC.mp4	0.0	154.07349300384521	
7	17.657925844192505	movie	1		168.0	5.0	2.5	/experiments/knapen_aot/videos/R_S_I003_C004_SDR_2K_AVC.mp4	0.0	154.08171391487122	2.508341073989868
7	20.166266918182373	fix_post	2		12.0	5.0	2.5	/experiments/knapen_aot/videos/R_S_I003_C004_SDR_2K_AVC.mp4	0.0	156.59005498886108	0.09997987747192383
8	20.266246795654297	fix_pre	0		26.0	6.0	2.5	/experiments/knapen_aot/videos/S_yt-LB9LoYfH_EA_15.mp4	0.0	156.690034866333	0.2177882194519043
8	20.47470784187317	response	0	2		6.0	2.5	/experiments/knapen_aot/videos/S_yt-LB9LoYfH_EA_15.mp4	0.0	156.89849591255188	
8	20.4840350151062	movie	1		301.0	6.0	2.5	/experiments/knapen_aot/videos/S_yt-LB9LoYfH_EA_15.mp4	0.0	156.9078230857849	2.5073699951171875
8	22.99140501022339	fix_post	2		12.0	6.0	2.5	/experiments/knapen_aot/videos/S_yt-LB9LoYfH_EA_15.mp4	0.0	159.4151930809021	0.09981083869934082
9	23.09121584892273	fix_pre	0		24.0	7.0	2.5	blank	1.0	159.51500391960144	0.19997906684875488
9	23.282994985580444	response	0	2		7.0	2.5	blank	1.0	159.70678305625916	
9	23.291194915771484	movie	1		301.0	7.0	2.5	blank	1.0	159.7149829864502	2.508370876312256
9	25.79956579208374	fix_post	2		12.0	7.0	2.5	blank	1.0	162.22335386276245	0.10109210014343262
10	25.900657892227173	fix_pre	0		40.0	8.0	2.5	/experiments/knapen_aot/videos/R_S_ILSVRC2015_train_00484001.mp4	0.0	162.32444596290588	0.3332788944244385
10	26.216970920562744	response	0	2		8.0	2.5	/experiments/knapen_aot/videos/R_S_ILSVRC2015_train_00484001.mp4	0.0	162.64075899124146	
10	26.23393678665161	movie	1		301.0	8.0	2.5	/experiments/knapen_aot/videos/R_S_ILSVRC2015_train_00484001.mp4	0.0	162.65772485733032	2.5073370933532715
10	28.741273880004883	fix_post	2		12.0	8.0	2.5	/experiments/knapen_aot/videos/R_S_ILSVRC2015_train_00484001.mp4	0.0	165.1650619506836	0.09997391700744629
11	28.84124779701233	fix_pre	0		12.0	9.0	2.5	/experiments/knapen_aot/videos/R_S_yt-Q4edV5qiqu0_578.mp4	0.0	165.26503586769104	0.10105419158935547
11	28.93298602104187	response	0	2		9.0	2.5	/experiments/knapen_aot/videos/R_S_yt-Q4edV5qiqu0_578.mp4	0.0	165.35677409172058	
11	28.942301988601685	movie	1		301.0	9.0	2.5	/experiments/knapen_aot/videos/R_S_yt-Q4edV5qiqu0_578.mp4	0.0	165.3660900592804	2.5072808265686035
11	31.449582815170288	fix_post	2		12.0	9.0	2.5	/experiments/knapen_aot/videos/R_S_yt-Q4edV5qiqu0_578.mp4	0.0	167.873370885849	0.09999608993530273
12	31.54957890510559	fix_pre	0		28.0	10.0	2.5	/experiments/knapen_aot/videos/S_yt-Z4W6l0eZza4_6.mp4	0.0	167.9733669757843	0.23319196701049805
12	31.774560928344727	response	0	2		10.0	2.5	/experiments/knapen_aot/videos/S_yt-Z4W6l0eZza4_6.mp4	0.0	168.19834899902344	
12	31.78277087211609	movie	1		301.0	10.0	2.5	/experiments/knapen_aot/videos/S_yt-Z4W6l0eZza4_6.mp4	0.0	168.2065589427948	2.508441925048828
12	34.29121279716492	fix_post	2		12.0	10.0	2.5	/experiments/knapen_aot/videos/S_yt-Z4W6l0eZza4_6.mp4	0.0	170.71500086784363	0.09998202323913574
13	34.39119482040405	fix_pre	0		30.0	11.0	2.5	/experiments/knapen_aot/videos/S_yt-gC3my54_ChQ_58.mp4	0.0	170.81498289108276	0.24992918968200684
13	34.633009910583496	response	0	2		11.0	2.5	/experiments/knapen_aot/videos/S_yt-gC3my54_ChQ_58.mp4	0.0	171.0567979812622	
13	34.64112401008606	movie	1		301.0	11.0	2.5	/experiments/knapen_aot/videos/S_yt-gC3my54_ChQ_58.mp4	0.0	171.06491208076477	2.5083749294281006
13	36.957911014556885	response	1	2		11.0	2.5	/experiments/knapen_aot/videos/S_yt-gC3my54_ChQ_58.mp4	0.0	173.3816990852356	
13	37.14949893951416	fix_post	2		12.0	11.0	2.5	/experiments/knapen_aot/videos/S_yt-gC3my54_ChQ_58.mp4	0.0	173.57328701019287	0.10009407997131348
14	37.249593019485474	fix_pre	0		220.0	12.0	2.5	/experiments/knapen_aot/videos/R_S_yt-wEbfIR14zZ8_7.mp4	0.0	173.67338109016418	1.8331949710845947
14	39.07456684112549	response	0	2		12.0	2.5	/experiments/knapen_aot/videos/R_S_yt-wEbfIR14zZ8_7.mp4	0.0	175.4983549118042	
14	39.08278799057007	movie	1		301.0	12.0	2.5	/experiments/knapen_aot/videos/R_S_yt-wEbfIR14zZ8_7.mp4	0.0	175.50657606124878	2.5083818435668945
14	41.59116983413696	fix_post	2		12.0	12.0	2.5	/experiments/knapen_aot/videos/R_S_yt-wEbfIR14zZ8_7.mp4	0.0	178.01495790481567	0.09998297691345215
15	41.691152811050415	fix_pre	0		20.0	13.0	2.5	blank	1.0	178.11494088172913	0.1666271686553955
15	41.84962797164917	response	0	2		13.0	2.5	blank	1.0	178.27341604232788	
15	41.85777997970581	movie	1		301.0	13.0	2.5	blank	1.0	178.28156805038452	2.508427858352661
15	44.27446889877319	response	1	2		13.0	2.5	blank	1.0	180.6982569694519	
15	44.36620783805847	fix_post	2		12.0	13.0	2.5	blank	1.0	180.78999590873718	0.09995102882385254
16	44.466158866882324	fix_pre	0		72.0	14.0	2.5	/experiments/knapen_aot/videos/S_yt-9NV8zv2Sdq4_30.mp4	0.0	180.88994693756104	0.6009540557861328
16	45.057950019836426	response	0	2		14.0	2.5	/experiments/knapen_aot/videos/S_yt-9NV8zv2Sdq4_30.mp4	0.0	181.48173809051514	
16	45.06711292266846	movie	1		301.0	14.0	2.5	/experiments/knapen_aot/videos/S_yt-9NV8zv2Sdq4_30.mp4	0.0	181.49090099334717	2.507382869720459
16	46.00280690193176	response	1	2		14.0	2.5	/experiments/knapen_aot/videos/S_yt-9NV8zv2Sdq4_30.mp4	0.0	182.42659497261047	
16	46.192216873168945	response	1	2		14.0	2.5	/experiments/knapen_aot/videos/S_yt-9NV8zv2Sdq4_30.mp4	0.0	182.61600494384766	
16	47.574495792388916	fix_post	2		12.0	14.0	2.5	/experiments/knapen_aot/videos/S_yt-9NV8zv2Sdq4_30.mp4	0.0	183.99828386306763	0.0999901294708252
17	47.67448592185974	fix_pre	0		15.0	15.0	2.5	/experiments/knapen_aot/videos/R_S_yt-Tn563IPZfg4_55.mp4	0.0	184.09827399253845	0.12494492530822754
17	47.79114294052124	response	0	2		15.0	2.5	/experiments/knapen_aot/videos/R_S_yt-Tn563IPZfg4_55.mp4	0.0	184.21493101119995	
17	47.79943084716797	movie	1		301.0	15.0	2.5	/experiments/knapen_aot/videos/R_S_yt-Tn563IPZfg4_55.mp4	0.0	184.22321891784668	2.508341073989868
17	50.30777192115784	fix_post	2		12.0	15.0	2.5	/experiments/knapen_aot/videos/R_S_yt-Tn563IPZfg4_55.mp4	0.0	186.73155999183655	0.09995007514953613
18	50.40772199630737	fix_pre	0		19.0	16.0	2.5	/experiments/knapen_aot/videos/S_wc-8bTJmWfuVyJ4_8.mp4	0.0	186.83151006698608	0.1593480110168457
18	50.557888984680176	response	0	2		16.0	2.5	/experiments/knapen_aot/videos/S_wc-8bTJmWfuVyJ4_8.mp4	0.0	186.9816770553589	
18	50.56707000732422	movie	1		166.0	16.0	2.5	/experiments/knapen_aot/videos/S_wc-8bTJmWfuVyJ4_8.mp4	0.0	186.99085807800293	2.507385015487671
18	53.07445502281189	fix_post	2		12.0	16.0	2.5	/experiments/knapen_aot/videos/S_wc-8bTJmWfuVyJ4_8.mp4	0.0	189.4982430934906	0.09998083114624023
19	53.17443585395813	fix_pre	0		39.0	17.0	2.5	/experiments/knapen_aot/videos/R_S_yt-2cwARrUMj40_67.mp4	0.0	189.59822392463684	0.3250110149383545
19	53.4911630153656	response	0	2		17.0	2.5	/experiments/knapen_aot/videos/R_S_yt-2cwARrUMj40_67.mp4	0.0	189.9149510860443	
19	53.499446868896484	movie	1		301.0	17.0	2.5	/experiments/knapen_aot/videos/R_S_yt-2cwARrUMj40_67.mp4	0.0	189.9232349395752	2.508305072784424
19	56.00775194168091	fix_post	2		12.0	17.0	2.5	/experiments/knapen_aot/videos/R_S_yt-2cwARrUMj40_67.mp4	0.0	192.43154001235962	0.10035896301269531
20	56.1081109046936	fix_pre	0		31.0	18.0	2.5	/experiments/knapen_aot/videos/S_video_inspire_oregon_portland_00064.1080-h264.mp4	0.0	192.53189897537231	0.2579360008239746
20	56.357924938201904	response	0	2		18.0	2.5	/experiments/knapen_aot/videos/S_video_inspire_oregon_portland_00064.1080-h264.mp4	0.0	192.78171300888062	
20	56.36604690551758	movie	1		168.0	18.0	2.5	/experiments/knapen_aot/videos/S_video_inspire_oregon_portland_00064.1080-h264.mp4	0.0	192.7898349761963	2.5083789825439453
20	58.87442588806152	fix_post	2		12.0	18.0	2.5	/experiments/knapen_aot/videos/S_video_inspire_oregon_portland_00064.1080-h264.mp4	0.0	195.29821395874023	0.10000395774841309
21	58.97442984580994	fix_pre	0		46.0	19.0	2.5	/experiments/knapen_aot/videos/S_yt--wYgjXsc1XQ_106.mp4	0.0	195.39821791648865	0.3842811584472656
21	59.34950280189514	response	0	2		19.0	2.5	/experiments/knapen_aot/videos/S_yt--wYgjXsc1XQ_106.mp4	0.0	195.77329087257385	
21	59.3587110042572	movie	1		300.0	19.0	2.5	/experiments/knapen_aot/videos/S_yt--wYgjXsc1XQ_106.mp4	0.0	195.7824990749359	2.5073959827423096
21	61.86610698699951	fix_post	2		12.0	19.0	2.5	/experiments/knapen_aot/videos/S_yt--wYgjXsc1XQ_106.mp4	0.0	198.28989505767822	0.10001587867736816
22	61.96612286567688	fix_pre	0		53.0	20.0	2.5	blank	1.0	198.3899109363556	0.44161009788513184
22	62.39948391914368	response	0	2		20.0	2.5	blank	1.0	198.8232719898224	
22	62.40773296356201	movie	1		301.0	20.0	2.5	blank	1.0	198.83152103424072	2.5083649158477783
22	64.91609787940979	fix_post	2		12.0	20.0	2.5	blank	1.0	201.3398859500885	0.09995293617248535
23	65.01605081558228	fix_pre	0		43.0	21.0	2.5	/experiments/knapen_aot/videos/S_ILSVRC2015_train_00411000.mp4	0.0	201.439838886261	0.3584020137786865
23	65.36610293388367	response	0	2		21.0	2.5	/experiments/knapen_aot/videos/S_ILSVRC2015_train_00411000.mp4	0.0	201.78989100456238	
23	65.37445282936096	movie	1		301.0	21.0	2.5	/experiments/knapen_aot/videos/S_ILSVRC2015_train_00411000.mp4	0.0	201.79824090003967	2.5082859992980957
23	67.88273882865906	fix_post	2		12.0	21.0	2.5	/experiments/knapen_aot/videos/S_ILSVRC2015_train_00411000.mp4	0.0	204.30652689933777	0.09995412826538086
24	67.98269295692444	fix_pre	0		36.0	22.0	2.5	/experiments/knapen_aot/videos/S_yt-wrxk7fFkxHg_177.mp4	0.0	204.40648102760315	0.2999579906463623
24	68.26705384254456	response	0	2		22.0	2.5	/experiments/knapen_aot/videos/S_yt-wrxk7fFkxHg_177.mp4	0.0	204.69084191322327	
24	68.2826509475708	movie	1		301.0	22.0	2.5	/experiments/knapen_aot/videos/S_yt-wrxk7fFkxHg_177.mp4	0.0	204.7064390182495	2.508389949798584
24	70.79104089736938	fix_post	2		12.0	22.0	2.5	/experiments/knapen_aot/videos/S_yt-wrxk7fFkxHg_177.mp4	0.0	207.2148289680481	0.09987497329711914
25	70.8909158706665	fix_pre	0		40.0	23.0	2.5	/experiments/knapen_aot/videos/R_S_video_inspire_oregon_lone-ranch-beach_00015.1080-h264.mp4	0.0	207.31470394134521	0.33338308334350586
25	71.21617197990417	response	0	2		23.0	2.5	/experiments/knapen_aot/videos/R_S_video_inspire_oregon_lone-ranch-beach_00015.1080-h264.mp4	0.0	207.63996005058289	
25	71.22429895401001	movie	1		169.0	23.0	2.5	/experiments/knapen_aot/videos/R_S_video_inspire_oregon_lone-ranch-beach_00015.1080-h264.mp4	0.0	207.64808702468872	2.508389949798584
25	73.7326889038086	fix_post	2		12.0	23.0	2.5	/experiments/knapen_aot/videos/R_S_video_inspire_oregon_lone-ranch-beach_00015.1080-h264.mp4	0.0	210.1564769744873	0.0999290943145752
26	73.83261799812317	fix_pre	0		145.0	24.0	2.5	/experiments/knapen_aot/videos/S_yt-K_gHa2x2OQA_319.mp4	0.0	210.25640606880188	1.2083418369293213
26	75.032723903656	response	0	2		24.0	2.5	/experiments/knapen_aot/videos/S_yt-K_gHa2x2OQA_319.mp4	0.0	211.45651197433472	
26	75.04095983505249	movie	1		301.0	24.0	2.5	/experiments/knapen_aot/videos/S_yt-K_gHa2x2OQA_319.mp4	0.0	211.4647479057312	2.5083630084991455
26	77.54932284355164	fix_post	2		12.0	24.0	2.5	/experiments/knapen_aot/videos/S_yt-K_gHa2x2OQA_319.mp4	0.0	213.97311091423035	0.10082697868347168
27	77.65014982223511	fix_pre	0		25.0	25.0	2.5	/experiments/knapen_aot/videos/S_yt-4BAsE47kJNk_88.mp4	0.0	214.07393789291382	0.20827198028564453
27	77.84963083267212	response	0	2		25.0	2.5	/experiments/knapen_aot/videos/S_yt-4BAsE47kJNk_88.mp4	0.0	214.27341890335083	
27	77.85842180252075	movie	1		301.0	25.0	2.5	/experiments/knapen_aot/videos/S_yt-4BAsE47kJNk_88.mp4	0.0	214.28220987319946	2.5075161457061768
27	80.36593794822693	fix_post	2		12.0	25.0	2.5	/experiments/knapen_aot/videos/S_yt-4BAsE47kJNk_88.mp4	0.0	216.78972601890564	0.10009884834289551
28	80.46603679656982	fix_pre	0		33.0	26.0	2.5	blank	1.0	216.88982486724854	0.27493810653686523
28	80.73273086547852	response	0	2		26.0	2.5	blank	1.0	217.15651893615723	
28	80.74097490310669	movie	1		301.0	26.0	2.5	blank	1.0	217.1647629737854	2.5083470344543457
28	83.24932193756104	fix_post	2		12.0	26.0	2.5	blank	1.0	219.67311000823975	0.10000896453857422
29	83.34933090209961	fix_pre	0		45.0	27.0	2.5	/experiments/knapen_aot/videos/S_yt-LGwEki4ghNw_69.mp4	0.0	219.77311897277832	0.3749699592590332
29	83.71599388122559	response	0	2		27.0	2.5	/experiments/knapen_aot/videos/S_yt-LGwEki4ghNw_69.mp4	0.0	220.1397819519043	
29	83.72430086135864	movie	1		301.0	27.0	2.5	/experiments/knapen_aot/videos/S_yt-LGwEki4ghNw_69.mp4	0.0	220.14808893203735	2.5082719326019287
29	86.23257279396057	fix_post	2		12.0	27.0	2.5	/experiments/knapen_aot/videos/S_yt-LGwEki4ghNw_69.mp4	0.0	222.65636086463928	0.1000220775604248
30	86.332594871521	fix_pre	0		25.0	28.0	2.5	/experiments/knapen_aot/videos/S_yt-xgqx7tH92-c_6.mp4	0.0	222.7563829421997	0.2083590030670166
30	86.53268194198608	response	0	2		28.0	2.5	/experiments/knapen_aot/videos/S_yt-xgqx7tH92-c_6.mp4	0.0	222.9564700126648	
30	86.54095387458801	movie	1		301.0	28.0	2.5	/experiments/knapen_aot/videos/S_yt-xgqx7tH92-c_6.mp4	0.0	222.96474194526672	2.508319139480591
30	89.0492730140686	fix_post	2		12.0	28.0	2.5	/experiments/knapen_aot/videos/S_yt-xgqx7tH92-c_6.mp4	0.0	225.47306108474731	0.1001288890838623
31	89.14940190315247	fix_pre	0		26.0	29.0	2.5	/experiments/knapen_aot/videos/S_yt-Q4edV5qiqu0_578.mp4	0.0	225.57318997383118	0.21656107902526855
31	89.35768795013428	response	0	2		29.0	2.5	/experiments/knapen_aot/videos/S_yt-Q4edV5qiqu0_578.mp4	0.0	225.781476020813	
31	89.36596298217773	movie	1		301.0	29.0	2.5	/experiments/knapen_aot/videos/S_yt-Q4edV5qiqu0_578.mp4	0.0	225.78975105285645	2.508316993713379
31	91.87427997589111	fix_post	2		12.0	29.0	2.5	/experiments/knapen_aot/videos/S_yt-Q4edV5qiqu0_578.mp4	0.0	228.29806804656982	0.09999394416809082
32	91.9742739200592	fix_pre	0		28.0	30.0	2.5	/experiments/knapen_aot/videos/R_S_video_inspire_oregon_portland_00064.1080-h264.mp4	0.0	228.39806199073792	0.2333390712738037
32	92.19925999641418	response	0	2		30.0	2.5	/experiments/knapen_aot/videos/R_S_video_inspire_oregon_portland_00064.1080-h264.mp4	0.0	228.6230480670929	
32	92.20761299133301	movie	1		169.0	30.0	2.5	/experiments/knapen_aot/videos/R_S_video_inspire_oregon_portland_00064.1080-h264.mp4	0.0	228.63140106201172	2.5083107948303223
32	94.71592378616333	fix_post	2		12.0	30.0	2.5	/experiments/knapen_aot/videos/R_S_video_inspire_oregon_portland_00064.1080-h264.mp4	0.0	231.13971185684204	0.1000971794128418
33	94.81602096557617	fix_pre	0		58.0	31.0	2.5	/experiments/knapen_aot/videos/S_yt-0bovQBIUZho_15.mp4	0.0	231.23980903625488	0.4831829071044922
33	95.29102897644043	response	0	2		31.0	2.5	/experiments/knapen_aot/videos/S_yt-0bovQBIUZho_15.mp4	0.0	231.71481704711914	
33	95.29920387268066	movie	1		301.0	31.0	2.5	/experiments/knapen_aot/videos/S_yt-0bovQBIUZho_15.mp4	0.0	231.72299194335938	2.508368968963623
33	97.80757284164429	fix_post	2		12.0	31.0	2.5	/experiments/knapen_aot/videos/S_yt-0bovQBIUZho_15.mp4	0.0	234.231360912323	0.09998011589050293
34	97.90755295753479	fix_pre	0		5.0	32.0	2.5	/experiments/knapen_aot/videos/R_S_yt-9mWz93En7Gw_97.mp4	0.0	234.3313410282135	0.041686058044433594
34	97.93345999717712	response	0	2		32.0	2.5	/experiments/knapen_aot/videos/R_S_yt-9mWz93En7Gw_97.mp4	0.0	234.35724806785583	
34	97.94923901557922	movie	1		301.0	32.0	2.5	/experiments/knapen_aot/videos/R_S_yt-9mWz93En7Gw_97.mp4	0.0	234.37302708625793	2.5083580017089844
34	100.45759701728821	fix_post	2		12.0	32.0	2.5	/experiments/knapen_aot/videos/R_S_yt-9mWz93En7Gw_97.mp4	0.0	236.88138508796692	0.10036587715148926
35	100.5579628944397	fix_pre	0		24.0	33.0	2.5	blank	1.0	236.9817509651184	0.1995389461517334
35	100.74929785728455	response	0	2		33.0	2.5	blank	1.0	237.17308592796326	
35	100.75750184059143	movie	1		301.0	33.0	2.5	blank	1.0	237.18128991127014	2.5083789825439453
35	103.26588082313538	fix_post	2		12.0	33.0	2.5	blank	1.0	239.6896688938141	0.09999799728393555
36	103.36587882041931	fix_pre	0		46.0	34.0	2.5	/experiments/knapen_aot/videos/R_S_ILSVRC2015_train_00725000.mp4	0.0	239.78966689109802	0.3833329677581787
36	103.7409257888794	response	0	2		34.0	2.5	/experiments/knapen_aot/videos/R_S_ILSVRC2015_train_00725000.mp4	0.0	240.1647138595581	
36	103.74921178817749	movie	1		301.0	34.0	2.5	/experiments/knapen_aot/videos/R_S_ILSVRC2015_train_00725000.mp4	0.0	240.1729998588562	2.5083730220794678
36	106.25758481025696	fix_post	2		12.0	34.0	2.5	/experiments/knapen_aot/videos/R_S_ILSVRC2015_train_00725000.mp4	0.0	242.68137288093567	0.10063910484313965
37	106.3582239151001	fix_pre	0		72.0	35.0	2.5	/experiments/knapen_aot/videos/S_yt-RNPFV7lgAvE_362.mp4	0.0	242.7820119857788	0.5993061065673828
37	106.94936800003052	response	0	2		35.0	2.5	/experiments/knapen_aot/videos/S_yt-RNPFV7lgAvE_362.mp4	0.0	243.37315607070923	
37	106.95753002166748	movie	1		301.0	35.0	2.5	/experiments/knapen_aot/videos/S_yt-RNPFV7lgAvE_362.mp4	0.0	243.3813180923462	2.508387804031372
37	109.46591782569885	fix_post	2		12.0	35.0	2.5	/experiments/knapen_aot/videos/S_yt-RNPFV7lgAvE_362.mp4	0.0	245.88970589637756	0.10009002685546875
38	109.56600785255432	fix_pre	0		31.0	36.0	2.5	/experiments/knapen_aot/videos/R_S_ILSVRC2015_train_00515001.mp4	0.0	245.98979592323303	0.2581040859222412
38	109.81595587730408	response	0	2		36.0	2.5	/experiments/knapen_aot/videos/R_S_ILSVRC2015_train_00515001.mp4	0.0	246.2397439479828	
38	109.82411193847656	movie	1		301.0	36.0	2.5	/experiments/knapen_aot/videos/R_S_ILSVRC2015_train_00515001.mp4	0.0	246.24790000915527	2.508354902267456
38	112.33246684074402	fix_post	2		12.0	36.0	2.5	/experiments/knapen_aot/videos/R_S_ILSVRC2015_train_00515001.mp4	0.0	248.75625491142273	0.10004997253417969
39	112.4325168132782	fix_pre	0		27.0	37.0	2.5	/experiments/knapen_aot/videos/S_wc-eJe3wXMgTLRV_20.mp4	0.0	248.8563048839569	0.22495412826538086
39	112.6492989063263	response	0	2		37.0	2.5	/experiments/knapen_aot/videos/S_wc-eJe3wXMgTLRV_20.mp4	0.0	249.073086977005	
39	112.65747094154358	movie	1		166.0	37.0	2.5	/experiments/knapen_aot/videos/S_wc-eJe3wXMgTLRV_20.mp4	0.0	249.0812590122223	2.5084259510040283
39	115.16589689254761	fix_post	2		12.0	37.0	2.5	/experiments/knapen_aot/videos/S_wc-eJe3wXMgTLRV_20.mp4	0.0	251.58968496322632	0.0998380184173584
40	115.26573491096497	fix_pre	0		46.0	38.0	2.5	/experiments/knapen_aot/videos/S_OdxWh1oU8e8_1.mp4	0.0	251.68952298164368	0.38404107093811035
40	115.64090085029602	response	0	2		38.0	2.5	/experiments/knapen_aot/videos/S_OdxWh1oU8e8_1.mp4	0.0	252.06468892097473	
40	115.64977598190308	movie	1		301.0	38.0	2.5	/experiments/knapen_aot/videos/S_OdxWh1oU8e8_1.mp4	0.0	252.0735640525818	2.5077009201049805
40	118.15747690200806	fix_post	2		12.0	38.0	2.5	/experiments/knapen_aot/videos/S_OdxWh1oU8e8_1.mp4	0.0	254.58126497268677	0.10002303123474121
41	118.2574999332428	fix_pre	0		27.0	39.0	2.5	/experiments/knapen_aot/videos/R_S_yt-IT741UWKVzg_34.mp4	0.0	254.6812880039215	0.22565793991088867
41	118.47421884536743	response	0	2		39.0	2.5	/experiments/knapen_aot/videos/R_S_yt-IT741UWKVzg_34.mp4	0.0	254.89800691604614	
41	118.48315787315369	movie	1		301.0	39.0	2.5	/experiments/knapen_aot/videos/R_S_yt-IT741UWKVzg_34.mp4	0.0	254.9069459438324	2.507643938064575
41	120.99080181121826	fix_post	2		12.0	39.0	2.5	/experiments/knapen_aot/videos/R_S_yt-IT741UWKVzg_34.mp4	0.0	257.414589881897	0.09998703002929688
42	121.09078884124756	fix_pre	0		29.0	40.0	2.5	/experiments/knapen_aot/videos/S_yt-r7PeFd-hIp0_378.mp4	0.0	257.51457691192627	0.24164104461669922
42	121.32426285743713	response	0	2		40.0	2.5	/experiments/knapen_aot/videos/S_yt-r7PeFd-hIp0_378.mp4	0.0	257.74805092811584	
42	121.33242988586426	movie	1		301.0	40.0	2.5	/experiments/knapen_aot/videos/S_yt-r7PeFd-hIp0_378.mp4	0.0	257.75621795654297	2.5082991123199463
42	123.8407289981842	fix_post	2		12.0	40.0	2.5	/experiments/knapen_aot/videos/S_yt-r7PeFd-hIp0_378.mp4	0.0	260.2645170688629	0.10005593299865723
43	123.94078493118286	fix_pre	0		43.0	41.0	2.5	/experiments/knapen_aot/videos/S_yt-WTxvvlP8xnw_113.mp4	0.0	260.3645730018616	0.3583519458770752
43	124.29093599319458	response	0	2		41.0	2.5	/experiments/knapen_aot/videos/S_yt-WTxvvlP8xnw_113.mp4	0.0	260.7147240638733	
43	124.29913687705994	movie	1		301.0	41.0	2.5	/experiments/knapen_aot/videos/S_yt-WTxvvlP8xnw_113.mp4	0.0	260.72292494773865	2.508547067642212
43	126.80768394470215	fix_post	2		12.0	41.0	2.5	/experiments/knapen_aot/videos/S_yt-WTxvvlP8xnw_113.mp4	0.0	263.23147201538086	0.09978103637695312
44	126.9074649810791	fix_pre	0		31.0	42.0	2.5	blank	1.0	263.3312530517578	0.2583658695220947
44	127.1575038433075	response	0	2		42.0	2.5	blank	1.0	263.5812919139862	
44	127.1658308506012	movie	1		301.0	42.0	2.5	blank	1.0	263.5896189212799	2.508316993713379
44	129.67414784431458	fix_post	2		12.0	42.0	2.5	blank	1.0	266.0979359149933	0.09990096092224121
45	129.77404880523682	fix_pre	0		61.0	43.0	2.5	/experiments/knapen_aot/videos/R_S_yt-fq7m668hqZo_39.mp4	0.0	266.1978368759155	0.5084240436553955
45	130.27415084838867	response	0	2		43.0	2.5	/experiments/knapen_aot/videos/R_S_yt-fq7m668hqZo_39.mp4	0.0	266.6979389190674	
45	130.2824728488922	movie	1		301.0	43.0	2.5	/experiments/knapen_aot/videos/R_S_yt-fq7m668hqZo_39.mp4	0.0	266.7062609195709	2.50832200050354
45	132.79079484939575	fix_post	2		12.0	43.0	2.5	/experiments/knapen_aot/videos/R_S_yt-fq7m668hqZo_39.mp4	0.0	269.21458292007446	0.09998703002929688
46	132.89078187942505	fix_pre	0		47.0	44.0	2.5	/experiments/knapen_aot/videos/S_yt-ni4JaYu7PhU_6.mp4	0.0	269.31456995010376	0.3916311264038086
46	133.27416491508484	response	0	2		44.0	2.5	/experiments/knapen_aot/videos/S_yt-ni4JaYu7PhU_6.mp4	0.0	269.69795298576355	
46	133.28241300582886	movie	1		301.0	44.0	2.5	/experiments/knapen_aot/videos/S_yt-ni4JaYu7PhU_6.mp4	0.0	269.70620107650757	2.5085349082946777
46	135.79094791412354	fix_post	2		12.0	44.0	2.5	/experiments/knapen_aot/videos/S_yt-ni4JaYu7PhU_6.mp4	0.0	272.21473598480225	0.09976696968078613
47	135.89071488380432	fix_pre	0		140.0	45.0	2.5	/experiments/knapen_aot/videos/S_yt-fq7m668hqZo_39.mp4	0.0	272.31450295448303	1.1666369438171387
47	137.0491979122162	response	0	2		45.0	2.5	/experiments/knapen_aot/videos/S_yt-fq7m668hqZo_39.mp4	0.0	273.4729859828949	
47	137.05735182762146	movie	1		301.0	45.0	2.5	/experiments/knapen_aot/videos/S_yt-fq7m668hqZo_39.mp4	0.0	273.48113989830017	2.5084609985351562
47	139.56581282615662	fix_post	2		12.0	45.0	2.5	/experiments/knapen_aot/videos/S_yt-fq7m668hqZo_39.mp4	0.0	275.9896008968353	0.09991812705993652
48	139.66573095321655	fix_pre	0		36.0	46.0	2.5	/experiments/knapen_aot/videos/R_S_yt-K_gHa2x2OQA_319.mp4	0.0	276.08951902389526	0.29993200302124023
48	139.95749187469482	response	0	2		46.0	2.5	/experiments/knapen_aot/videos/R_S_yt-K_gHa2x2OQA_319.mp4	0.0	276.38127994537354	
48	139.9656629562378	movie	1		301.0	46.0	2.5	/experiments/knapen_aot/videos/R_S_yt-K_gHa2x2OQA_319.mp4	0.0	276.3894510269165	2.5084290504455566
48	142.47409200668335	fix_post	2		12.0	46.0	2.5	/experiments/knapen_aot/videos/R_S_yt-K_gHa2x2OQA_319.mp4	0.0	278.89788007736206	0.09998679161071777
49	142.57407879829407	fix_pre	0		34.0	47.0	2.5	blank	1.0	278.9978668689728	0.2837071418762207
49	142.84919095039368	response	0	2		47.0	2.5	blank	1.0	279.2729790210724	
49	142.8577859401703	movie	1		301.0	47.0	2.5	blank	1.0	279.281574010849	2.507920026779175
49	145.36570596694946	fix_post	2		12.0	47.0	2.5	blank	1.0	281.7894940376282	0.10001397132873535
50	145.4657199382782	fix_pre	0		29.0	48.0	2.5	/experiments/knapen_aot/videos/R_S_yt-fymgyhmYnMI_557.mp4	0.0	281.8895080089569	0.24155688285827637
50	145.6991457939148	response	0	2		48.0	2.5	/experiments/knapen_aot/videos/R_S_yt-fymgyhmYnMI_557.mp4	0.0	282.1229338645935	
50	145.70727682113647	movie	1		301.0	48.0	2.5	/experiments/knapen_aot/videos/R_S_yt-fymgyhmYnMI_557.mp4	0.0	282.1310648918152	2.508474111557007
50	148.21575093269348	fix_post	2		12.0	48.0	2.5	/experiments/knapen_aot/videos/R_S_yt-fymgyhmYnMI_557.mp4	0.0	284.6395390033722	0.09996891021728516
51	148.31571984291077	fix_pre	0		25.0	49.0	2.5	/experiments/knapen_aot/videos/R_S_yt-bTcbsBET7gc_270.mp4	0.0	284.7395079135895	0.20874810218811035
51	148.50820779800415	response	0	2		49.0	2.5	/experiments/knapen_aot/videos/R_S_yt-bTcbsBET7gc_270.mp4	0.0	284.93199586868286	
51	148.52446794509888	movie	1		301.0	49.0	2.5	/experiments/knapen_aot/videos/R_S_yt-bTcbsBET7gc_270.mp4	0.0	284.9482560157776	2.507974863052368
51	151.03244280815125	fix_post	2		12.0	49.0	2.5	/experiments/knapen_aot/videos/R_S_yt-bTcbsBET7gc_270.mp4	0.0	287.45623087882996	0.09981203079223633
52	151.13225483894348	fix_pre	0		55.0	50.0	2.5	/experiments/knapen_aot/videos/S_pexels-kampus-production-6022792.mp4	0.0	287.5560429096222	0.4583091735839844
52	151.58244490623474	response	0	2		50.0	2.5	/experiments/knapen_aot/videos/S_pexels-kampus-production-6022792.mp4	0.0	288.00623297691345	
52	151.59056401252747	movie	1		167.0	50.0	2.5	/experiments/knapen_aot/videos/S_pexels-kampus-production-6022792.mp4	0.0	288.0143520832062	2.5084388256073
52	154.09900283813477	fix_post	2		12.0	50.0	2.5	/experiments/knapen_aot/videos/S_pexels-kampus-production-6022792.mp4	0.0	290.5227909088135	0.10012197494506836
53	154.19912481307983	fix_pre	0		42.0	51.0	2.5	/experiments/knapen_aot/videos/R_S_yt--a-d97T4Gak_75.mp4	0.0	290.62291288375854	0.349851131439209
53	154.54080486297607	response	0	2		51.0	2.5	/experiments/knapen_aot/videos/R_S_yt--a-d97T4Gak_75.mp4	0.0	290.9645929336548	
53	154.54897594451904	movie	1		301.0	51.0	2.5	/experiments/knapen_aot/videos/R_S_yt--a-d97T4Gak_75.mp4	0.0	290.97276401519775	2.5083980560302734
53	157.05737400054932	fix_post	2		12.0	51.0	2.5	/experiments/knapen_aot/videos/R_S_yt--a-d97T4Gak_75.mp4	0.0	293.481162071228	0.09994387626647949
54	157.1573178768158	fix_pre	0		32.0	52.0	2.5	/experiments/knapen_aot/videos/S_yt-RlHmMGUjT9E_130.mp4	0.0	293.5811059474945	0.2666440010070801
54	157.41567182540894	response	0	2		52.0	2.5	/experiments/knapen_aot/videos/S_yt-RlHmMGUjT9E_130.mp4	0.0	293.83945989608765	
54	157.42396187782288	movie	1		301.0	52.0	2.5	/experiments/knapen_aot/videos/S_yt-RlHmMGUjT9E_130.mp4	0.0	293.8477499485016	2.50833797454834
54	159.93229985237122	fix_post	2		12.0	52.0	2.5	/experiments/knapen_aot/videos/S_yt-RlHmMGUjT9E_130.mp4	0.0	296.3560879230499	0.10011816024780273
55	160.03241801261902	fix_pre	0		46.0	53.0	2.5	/experiments/knapen_aot/videos/S_yt-ni4JaYu7PhU_6.mp4	0.0	296.45620608329773	0.38315892219543457
55	160.40741801261902	response	0	2		53.0	2.5	/experiments/knapen_aot/videos/S_yt-ni4JaYu7PhU_6.mp4	0.0	296.83120608329773	
55	160.41557693481445	movie	1		301.0	53.0	2.5	/experiments/knapen_aot/videos/S_yt-ni4JaYu7PhU_6.mp4	0.0	296.83936500549316	2.508413076400757
55	162.9239900112152	fix_post	2		12.0	53.0	2.5	/experiments/knapen_aot/videos/S_yt-ni4JaYu7PhU_6.mp4	0.0	299.3477780818939	0.10076594352722168
56	163.02475595474243	fix_pre	0		26.0	54.0	2.5	/experiments/knapen_aot/videos/S_yt-SGTgMItFkxY_172.mp4	0.0	299.44854402542114	0.21580290794372559
56	163.2323989868164	response	0	2		54.0	2.5	/experiments/knapen_aot/videos/S_yt-SGTgMItFkxY_172.mp4	0.0	299.6561870574951	
56	163.24055886268616	movie	1		301.0	54.0	2.5	/experiments/knapen_aot/videos/S_yt-SGTgMItFkxY_172.mp4	0.0	299.66434693336487	2.508507013320923
56	165.74906587600708	fix_post	2		12.0	54.0	2.5	/experiments/knapen_aot/videos/S_yt-SGTgMItFkxY_172.mp4	0.0	302.1728539466858	0.09989500045776367
57	165.84896087646484	fix_pre	0		27.0	55.0	2.5	/experiments/knapen_aot/videos/R_S_yt-fryIS5Itzig_124.mp4	0.0	302.27274894714355	0.22498393058776855
57	166.06572079658508	response	0	2		55.0	2.5	/experiments/knapen_aot/videos/R_S_yt-fryIS5Itzig_124.mp4	0.0	302.4895088672638	
57	166.0739448070526	movie	1		301.0	55.0	2.5	/experiments/knapen_aot/videos/R_S_yt-fryIS5Itzig_124.mp4	0.0	302.4977328777313	2.5083751678466797
57	168.5823199748993	fix_post	2		12.0	55.0	2.5	/experiments/knapen_aot/videos/R_S_yt-fryIS5Itzig_124.mp4	0.0	305.006108045578	0.09989404678344727
58	168.68221402168274	fix_pre	0		31.0	56.0	2.5	blank	1.0	305.10600209236145	0.2587568759918213
58	168.93234586715698	response	0	2		56.0	2.5	blank	1.0	305.3561339378357	
58	168.94097089767456	movie	1		301.0	56.0	2.5	blank	1.0	305.36475896835327	2.5079150199890137
58	171.44888591766357	fix_post	2		12.0	56.0	2.5	blank	1.0	307.8726739883423	0.10002303123474121
59	171.54890894889832	fix_pre	0		82.0	57.0	2.5	/experiments/knapen_aot/videos/S_yt-RlHmMGUjT9E_130.mp4	0.0	307.972697019577	0.6836659908294678
59	172.2240707874298	response	0	2		57.0	2.5	/experiments/knapen_aot/videos/S_yt-RlHmMGUjT9E_130.mp4	0.0	308.6478588581085	
59	172.23257493972778	movie	1		301.0	57.0	2.5	/experiments/knapen_aot/videos/S_yt-RlHmMGUjT9E_130.mp4	0.0	308.6563630104065	2.5080509185791016
59	174.74062585830688	fix_post	2		12.0	57.0	2.5	/experiments/knapen_aot/videos/S_yt-RlHmMGUjT9E_130.mp4	0.0	311.1644139289856	0.09988594055175781
60	174.84051179885864	fix_pre	0		64.0	58.0	2.5	/experiments/knapen_aot/videos/S_DV6V38rplag_215.mp4	0.0	311.26429986953735	0.5333631038665771
60	175.36560702323914	response	0	2		58.0	2.5	/experiments/knapen_aot/videos/S_DV6V38rplag_215.mp4	0.0	311.78939509391785	
60	175.37387490272522	movie	1		301.0	58.0	2.5	/experiments/knapen_aot/videos/S_DV6V38rplag_215.mp4	0.0	311.79766297340393	2.5083420276641846
60	177.8822169303894	fix_post	2		12.0	58.0	2.5	/experiments/knapen_aot/videos/S_DV6V38rplag_215.mp4	0.0	314.3060050010681	0.10031604766845703
61	177.98253297805786	fix_pre	0		23.0	59.0	2.5	/experiments/knapen_aot/videos/S_yt-RNPFV7lgAvE_362.mp4	0.0	314.4063210487366	0.19136285781860352
61	178.165629863739	response	0	2		59.0	2.5	/experiments/knapen_aot/videos/S_yt-RNPFV7lgAvE_362.mp4	0.0	314.5894179344177	
61	178.17389583587646	movie	1		301.0	59.0	2.5	/experiments/knapen_aot/videos/S_yt-RNPFV7lgAvE_362.mp4	0.0	314.5976839065552	2.5083770751953125
61	180.68227291107178	fix_post	2		12.0	59.0	2.5	/experiments/knapen_aot/videos/S_yt-RNPFV7lgAvE_362.mp4	0.0	317.1060609817505	0.10018301010131836
62	180.7824559211731	fix_pre	0		57.0	60.0	2.5	/experiments/knapen_aot/videos/S_yt-GLK6LniTOK0_69.mp4	0.0	317.2062439918518	0.4748048782348633
62	181.24896788597107	response	0	2		60.0	2.5	/experiments/knapen_aot/videos/S_yt-GLK6LniTOK0_69.mp4	0.0	317.6727559566498	
62	181.25726079940796	movie	1		301.0	60.0	2.5	/experiments/knapen_aot/videos/S_yt-GLK6LniTOK0_69.mp4	0.0	317.68104887008667	2.5084002017974854
62	183.76566100120544	fix_post	2		12.0	60.0	2.5	/experiments/knapen_aot/videos/S_yt-GLK6LniTOK0_69.mp4	0.0	320.18944907188416	0.09987688064575195
63	183.8655378818512	fix_pre	0		30.0	61.0	2.5	/experiments/knapen_aot/videos/S_wc-8bTJmWfuVyJ4_8.mp4	0.0	320.2893259525299	0.24995207786560059
63	184.0997838973999	response	0	2		61.0	2.5	/experiments/knapen_aot/videos/S_wc-8bTJmWfuVyJ4_8.mp4	0.0	320.5235719680786	
63	184.1154899597168	movie	1		185.0	61.0	2.5	/experiments/knapen_aot/videos/S_wc-8bTJmWfuVyJ4_8.mp4	0.0	320.5392780303955	2.5085039138793945
63	186.6239938735962	fix_post	2		12.0	61.0	2.5	/experiments/knapen_aot/videos/S_wc-8bTJmWfuVyJ4_8.mp4	0.0	323.0477819442749	0.09982109069824219
64	186.72381496429443	fix_pre	0		35.0	62.0	2.5	/experiments/knapen_aot/videos/S_pexels-kelly-lacy-6756531.mp4	0.0	323.14760303497314	0.29168701171875
64	187.0073699951172	response	0	2		62.0	2.5	/experiments/knapen_aot/videos/S_pexels-kelly-lacy-6756531.mp4	0.0	323.4311580657959	
64	187.01550197601318	movie	1		171.0	62.0	2.5	/experiments/knapen_aot/videos/S_pexels-kelly-lacy-6756531.mp4	0.0	323.4392900466919	2.5085978507995605
64	189.52409982681274	fix_post	2		12.0	62.0	2.5	/experiments/knapen_aot/videos/S_pexels-kelly-lacy-6756531.mp4	0.0	325.94788789749146	0.09971308708190918
65	189.62381291389465	fix_pre	0		25.0	63.0	2.5	blank	1.0	326.04760098457336	0.20833206176757812
65	189.82387495040894	response	0	2		63.0	2.5	blank	1.0	326.24766302108765	
65	189.83214497566223	movie	1		301.0	63.0	2.5	blank	1.0	326.25593304634094	2.508481025695801
65	192.34062600135803	fix_post	2		12.0	63.0	2.5	blank	1.0	328.76441407203674	0.10010886192321777
66	192.44073486328125	fix_pre	0		56.0	64.0	2.5	/experiments/knapen_aot/videos/R_S_yt-wrxk7fFkxHg_177.mp4	0.0	328.86452293395996	0.4663851261138916
66	192.8989930152893	response	0	2		64.0	2.5	/experiments/knapen_aot/videos/R_S_yt-wrxk7fFkxHg_177.mp4	0.0	329.322781085968	
66	192.90711998939514	movie	1		301.0	64.0	2.5	/experiments/knapen_aot/videos/R_S_yt-wrxk7fFkxHg_177.mp4	0.0	329.33090806007385	2.508380889892578
66	195.41550087928772	fix_post	2		12.0	64.0	2.5	/experiments/knapen_aot/videos/R_S_yt-wrxk7fFkxHg_177.mp4	0.0	331.83928894996643	0.09997296333312988
67	195.51547384262085	fix_pre	0		122.0	65.0	2.5	/experiments/knapen_aot/videos/R_S_yt--wYgjXsc1XQ_106.mp4	0.0	331.93926191329956	1.0166079998016357
67	196.52393889427185	response	0	2		65.0	2.5	/experiments/knapen_aot/videos/R_S_yt--wYgjXsc1XQ_106.mp4	0.0	332.94772696495056	
67	196.53208184242249	movie	1		301.0	65.0	2.5	/experiments/knapen_aot/videos/R_S_yt--wYgjXsc1XQ_106.mp4	0.0	332.9558699131012	2.5083651542663574
67	199.04044699668884	fix_post	2		12.0	65.0	2.5	/experiments/knapen_aot/videos/R_S_yt--wYgjXsc1XQ_106.mp4	0.0	335.46423506736755	0.10002589225769043
68	199.14047288894653	fix_pre	0		36.0	66.0	2.5	/experiments/knapen_aot/videos/R_S_ILSVRC2015_train_00219003.mp4	0.0	335.56426095962524	0.30009007453918457
68	199.43225193023682	response	0	2		66.0	2.5	/experiments/knapen_aot/videos/R_S_ILSVRC2015_train_00219003.mp4	0.0	335.8560400009155	
68	199.44056296348572	movie	1		300.0	66.0	2.5	/experiments/knapen_aot/videos/R_S_ILSVRC2015_train_00219003.mp4	0.0	335.86435103416443	2.508219003677368
68	201.9487819671631	fix_post	2		12.0	66.0	2.5	/experiments/knapen_aot/videos/R_S_ILSVRC2015_train_00219003.mp4	0.0	338.3725700378418	0.10001587867736816
69	202.04879784584045	fix_pre	0		58.0	67.0	2.5	/experiments/knapen_aot/videos/R_S_video_inspire_california_vineyard_sierra-mar_sunrise_110.1080-h264.mp4	0.0	338.47258591651917	0.4833250045776367
69	202.52393794059753	response	0	2		67.0	2.5	/experiments/knapen_aot/videos/R_S_video_inspire_california_vineyard_sierra-mar_sunrise_110.1080-h264.mp4	0.0	338.94772601127625	
69	202.5321228504181	movie	1		172.0	67.0	2.5	/experiments/knapen_aot/videos/R_S_video_inspire_california_vineyard_sierra-mar_sunrise_110.1080-h264.mp4	0.0	338.9559109210968	2.5083060264587402
69	205.04042887687683	fix_post	2		12.0	67.0	2.5	/experiments/knapen_aot/videos/R_S_video_inspire_california_vineyard_sierra-mar_sunrise_110.1080-h264.mp4	0.0	341.46421694755554	0.09993314743041992
70	205.14036202430725	fix_pre	0		29.0	68.0	2.5	blank	1.0	341.56415009498596	0.2417128086090088
70	205.37389183044434	response	0	2		68.0	2.5	blank	1.0	341.79767990112305	
70	205.38207483291626	movie	1		301.0	68.0	2.5	blank	1.0	341.80586290359497	2.508380174636841
70	207.8904550075531	fix_post	2		12.0	68.0	2.5	blank	1.0	344.3142430782318	0.09999489784240723
71	207.9904499053955	fix_pre	0		37.0	69.0	2.5	/experiments/knapen_aot/videos/S_yt-foGMTdxewBI_43.mp4	0.0	344.4142379760742	0.3083009719848633
71	208.29047989845276	response	0	2		69.0	2.5	/experiments/knapen_aot/videos/S_yt-foGMTdxewBI_43.mp4	0.0	344.71426796913147	
71	208.29875087738037	movie	1		301.0	69.0	2.5	/experiments/knapen_aot/videos/S_yt-foGMTdxewBI_43.mp4	0.0	344.7225389480591	2.508316993713379
71	210.80706787109375	fix_post	2		12.0	69.0	2.5	/experiments/knapen_aot/videos/S_yt-foGMTdxewBI_43.mp4	0.0	347.23085594177246	0.1000831127166748
72	210.90715098381042	fix_pre	0		25.0	70.0	2.5	/experiments/knapen_aot/videos/S_yt-KVB49z48sZU_55.mp4	0.0	347.33093905448914	0.2082688808441162
72	211.10722088813782	response	0	2		70.0	2.5	/experiments/knapen_aot/videos/S_yt-KVB49z48sZU_55.mp4	0.0	347.5310089588165	
72	211.11541986465454	movie	1		301.0	70.0	2.5	/experiments/knapen_aot/videos/S_yt-KVB49z48sZU_55.mp4	0.0	347.53920793533325	2.5082759857177734
72	213.62369585037231	fix_post	2		12.0	70.0	2.5	/experiments/knapen_aot/videos/S_yt-KVB49z48sZU_55.mp4	0.0	350.047483921051	0.10025811195373535
73	213.72395396232605	fix_pre	0		16.0	71.0	2.5	/experiments/knapen_aot/videos/R_S_yt-2LCHVTVwJ5E_235.mp4	0.0	350.14774203300476	0.13315486907958984
73	213.84886980056763	response	0	2		71.0	2.5	/experiments/knapen_aot/videos/R_S_yt-2LCHVTVwJ5E_235.mp4	0.0	350.27265787124634	
73	213.85710883140564	movie	1		301.0	71.0	2.5	/experiments/knapen_aot/videos/R_S_yt-2LCHVTVwJ5E_235.mp4	0.0	350.28089690208435	2.508498191833496
73	216.36560702323914	fix_post	2		12.0	71.0	2.5	/experiments/knapen_aot/videos/R_S_yt-2LCHVTVwJ5E_235.mp4	0.0	352.78939509391785	0.0997319221496582
74	216.4653389453888	fix_pre	0		27.0	72.0	2.5	/experiments/knapen_aot/videos/S_yt-YEiNSML5iiQ_18.mp4	0.0	352.8891270160675	0.22504496574401855
74	216.68218278884888	response	0	2		72.0	2.5	/experiments/knapen_aot/videos/S_yt-YEiNSML5iiQ_18.mp4	0.0	353.1059708595276	
74	216.6903839111328	movie	1		301.0	72.0	2.5	/experiments/knapen_aot/videos/S_yt-YEiNSML5iiQ_18.mp4	0.0	353.1141719818115	2.5087509155273438
74	219.19913482666016	fix_post	2		12.0	72.0	2.5	/experiments/knapen_aot/videos/S_yt-YEiNSML5iiQ_18.mp4	0.0	355.62292289733887	0.09957504272460938
75	219.29870986938477	fix_pre	0		35.0	73.0	2.5	/experiments/knapen_aot/videos/R_S_yt-osdlC1buTaM_4.mp4	0.0	355.7224979400635	0.29173803329467773
75	219.5821089744568	response	0	2		73.0	2.5	/experiments/knapen_aot/videos/R_S_yt-osdlC1buTaM_4.mp4	0.0	356.0058970451355	
75	219.59044790267944	movie	1		301.0	73.0	2.5	/experiments/knapen_aot/videos/R_S_yt-osdlC1buTaM_4.mp4	0.0	356.01423597335815	2.508246898651123
75	222.09869480133057	fix_post	2		12.0	73.0	2.5	/experiments/knapen_aot/videos/R_S_yt-osdlC1buTaM_4.mp4	0.0	358.5224828720093	0.09992218017578125
76	222.19861698150635	fix_pre	0		45.0	74.0	2.5	/experiments/knapen_aot/videos/R_S_yt-w_e3sxIzepA_115.mp4	0.0	358.62240505218506	0.37517380714416504
76	222.55809497833252	response	0	2		74.0	2.5	/experiments/knapen_aot/videos/R_S_yt-w_e3sxIzepA_115.mp4	0.0	358.98188304901123	
76	222.5737907886505	movie	1		301.0	74.0	2.5	/experiments/knapen_aot/videos/R_S_yt-w_e3sxIzepA_115.mp4	0.0	358.9975788593292	2.508629083633423
76	225.08241987228394	fix_post	2		12.0	74.0	2.5	/experiments/knapen_aot/videos/R_S_yt-w_e3sxIzepA_115.mp4	0.0	361.50620794296265	0.09962010383605957
77	225.18203997612	fix_pre	0		43.0	75.0	2.5	blank	1.0	361.6058280467987	0.35845398902893066
77	225.53205180168152	response	0	2		75.0	2.5	blank	1.0	361.95583987236023	
77	225.54049396514893	movie	1		301.0	75.0	2.5	blank	1.0	361.96428203582764	2.5082149505615234
77	228.04870891571045	fix_post	2		12.0	75.0	2.5	blank	1.0	364.47249698638916	0.10005807876586914
78	228.14876699447632	fix_pre	0		28.0	76.0	2.5	/experiments/knapen_aot/videos/S_production_ID_4101242.mp4	0.0	364.57255506515503	0.23322701454162598
78	228.37385392189026	response	0	2		76.0	2.5	/experiments/knapen_aot/videos/S_production_ID_4101242.mp4	0.0	364.79764199256897	
78	228.38199400901794	movie	1		201.0	76.0	2.5	/experiments/knapen_aot/videos/S_production_ID_4101242.mp4	0.0	364.80578207969666	2.508335828781128
78	230.89032983779907	fix_post	2		12.0	76.0	2.5	/experiments/knapen_aot/videos/S_production_ID_4101242.mp4	0.0	367.3141179084778	0.10000014305114746
79	230.99032998085022	fix_pre	0		24.0	77.0	2.5	/experiments/knapen_aot/videos/R_S_yt-fq7m668hqZo_39.mp4	0.0	367.41411805152893	0.1999979019165039
79	231.18212294578552	response	0	2		77.0	2.5	/experiments/knapen_aot/videos/R_S_yt-fq7m668hqZo_39.mp4	0.0	367.60591101646423	
79	231.19032788276672	movie	1		301.0	77.0	2.5	/experiments/knapen_aot/videos/R_S_yt-fq7m668hqZo_39.mp4	0.0	367.61411595344543	2.508341073989868
79	233.6986689567566	fix_post	2		12.0	77.0	2.5	/experiments/knapen_aot/videos/R_S_yt-fq7m668hqZo_39.mp4	0.0	370.1224570274353	0.09990406036376953
80	233.79857301712036	fix_pre	0		16.0	78.0	2.5	/experiments/knapen_aot/videos/R_S_yt-E8EDQCPbBeI_196.mp4	0.0	370.2223610877991	0.13338994979858398
80	233.923654794693	response	0	2		78.0	2.5	/experiments/knapen_aot/videos/R_S_yt-E8EDQCPbBeI_196.mp4	0.0	370.3474428653717	
80	233.93196296691895	movie	1		301.0	78.0	2.5	/experiments/knapen_aot/videos/R_S_yt-E8EDQCPbBeI_196.mp4	0.0	370.35575103759766	2.5084078311920166
80	236.44037079811096	fix_post	2		12.0	78.0	2.5	/experiments/knapen_aot/videos/R_S_yt-E8EDQCPbBeI_196.mp4	0.0	372.8641588687897	0.09997105598449707
81	236.54034185409546	fix_pre	0		32.0	79.0	2.5	/experiments/knapen_aot/videos/R_S_yt-JtR6WZXT2kU_8.mp4	0.0	372.96412992477417	0.26662397384643555
81	236.79877185821533	response	0	2		79.0	2.5	/experiments/knapen_aot/videos/R_S_yt-JtR6WZXT2kU_8.mp4	0.0	373.22255992889404	
81	236.8069658279419	movie	1		301.0	79.0	2.5	/experiments/knapen_aot/videos/R_S_yt-JtR6WZXT2kU_8.mp4	0.0	373.2307538986206	2.508324146270752
81	239.31528997421265	fix_post	2		12.0	79.0	2.5	/experiments/knapen_aot/videos/R_S_yt-JtR6WZXT2kU_8.mp4	0.0	375.73907804489136	0.1001429557800293
82	239.41543292999268	fix_pre	0		27.0	80.0	2.5	/experiments/knapen_aot/videos/S_ILSVRC2015_train_00414000.mp4	0.0	375.8392210006714	0.22480297088623047
82	239.63207387924194	response	0	2		80.0	2.5	/experiments/knapen_aot/videos/S_ILSVRC2015_train_00414000.mp4	0.0	376.05586194992065	
82	239.6402359008789	movie	1		301.0	80.0	2.5	/experiments/knapen_aot/videos/S_ILSVRC2015_train_00414000.mp4	0.0	376.0640239715576	2.508471965789795
82	242.1487078666687	fix_post	2		12.0	80.0	2.5	/experiments/knapen_aot/videos/S_ILSVRC2015_train_00414000.mp4	0.0	378.5724959373474	0.09996509552001953
83	242.24867296218872	fix_pre	0		29.0	81.0	2.5	/experiments/knapen_aot/videos/S_yt-fQgLKiz2tuM_14.mp4	0.0	378.67246103286743	0.24161982536315918
83	242.4821138381958	response	0	2		81.0	2.5	/experiments/knapen_aot/videos/S_yt-fQgLKiz2tuM_14.mp4	0.0	378.9059019088745	
83	242.49029278755188	movie	1		301.0	81.0	2.5	/experiments/knapen_aot/videos/S_yt-fQgLKiz2tuM_14.mp4	0.0	378.9140808582306	2.5083680152893066
83	244.9986608028412	fix_post	2		12.0	81.0	2.5	/experiments/knapen_aot/videos/S_yt-fQgLKiz2tuM_14.mp4	0.0	381.4224488735199	0.09993600845336914
84	245.09859681129456	fix_pre	0		23.0	82.0	2.5	blank	1.0	381.52238488197327	0.19171810150146484
84	245.28208589553833	response	0	2		82.0	2.5	blank	1.0	381.70587396621704	
84	245.29031491279602	movie	1		301.0	82.0	2.5	blank	1.0	381.71410298347473	2.50839900970459
84	247.7987139225006	fix_post	2		12.0	82.0	2.5	blank	1.0	384.2225019931793	0.0998389720916748
85	247.89855289459229	fix_pre	0		22.0	83.0	2.5	/experiments/knapen_aot/videos/R_S_ILSVRC2015_train_00479004.mp4	0.0	384.322340965271	0.18332695960998535
85	248.0736448764801	response	0	2		83.0	2.5	/experiments/knapen_aot/videos/R_S_ILSVRC2015_train_00479004.mp4	0.0	384.4974329471588	
85	248.08187985420227	movie	1		301.0	83.0	2.5	/experiments/knapen_aot/videos/R_S_ILSVRC2015_train_00479004.mp4	0.0	384.505667924881	2.5083560943603516
85	250.59023594856262	fix_post	2		12.0	83.0	2.5	/experiments/knapen_aot/videos/R_S_ILSVRC2015_train_00479004.mp4	0.0	387.01402401924133	0.10003900527954102
87	250.69027495384216	stim	0		407.0					387.1140630245209	3.395632028579712
87	250.948716878891	response	0	2						387.3725049495697	
87	254.07841181755066	response	0	space						390.50219988822937	
