trial_nr	onset	event_type	phase	response	nr_frames	movie_index	movie_duration	movie_file	blank	onset_abs	duration
0	0.15148496627807617	stim	0		107.0					60.67925786972046	0.8901360034942627
0	1.033653974533081	response	0	space						61.561426877975464	
1	1.0416209697723389	stim	0		121.0					61.56939387321472	1.0079691410064697
1	1.5663180351257324	response	0	space						62.094090938568115	
1	1.891322135925293	response	0	space						62.419095039367676	
1	2.0495901107788086	stim	1		119.0					62.57736301422119	0.999985933303833
1	2.055030107498169	response	1	2						62.58280301094055	
1	2.203519105911255	response	1	space						62.73129200935364	
1	2.69966197013855	response	1	space						63.22743487358093	
1	3.04134202003479	response	1	space						63.56911492347717	
2	3.0495760440826416	fix_pre	0		40.0	0.0	2.5	/experiments/knapen_aot/videos/R_S_production_ID_4787635.mp4	0.0	63.577348947525024	0.34166407585144043
2	3.38303804397583	response	0	space		0.0	2.5	/experiments/knapen_aot/videos/R_S_production_ID_4787635.mp4	0.0	63.91081094741821	
2	3.391240119934082	movie	1		186.0	0.0	2.5	/experiments/knapen_aot/videos/R_S_production_ID_4787635.mp4	0.0	63.919013023376465	2.50833797454834
2	5.899578094482422	fix_post	2		12.0	0.0	2.5	/experiments/knapen_aot/videos/R_S_production_ID_4787635.mp4	0.0	66.4273509979248	0.09997797012329102
3	5.999556064605713	fix_pre	0		13.0	1.0	2.5	/experiments/knapen_aot/videos/S_yt-PK-Eip9wFr0_24.mp4	0.0	66.5273289680481	0.10983490943908691
3	6.100083112716675	response	0	2		1.0	2.5	/experiments/knapen_aot/videos/S_yt-PK-Eip9wFr0_24.mp4	0.0	66.62785601615906	
3	6.1093909740448	movie	1		301.0	1.0	2.5	/experiments/knapen_aot/videos/S_yt-PK-Eip9wFr0_24.mp4	0.0	66.63716387748718	2.5069642066955566
3	8.616355180740356	fix_post	2		12.0	1.0	2.5	/experiments/knapen_aot/videos/S_yt-PK-Eip9wFr0_24.mp4	0.0	69.14412808418274	0.09994697570800781
4	8.716302156448364	fix_pre	0		43.0	2.0	2.5	/experiments/knapen_aot/videos/S_g201_TH_804_A001_8_SDR_20191031_SDR_2K_AVC.mp4	0.0	69.24407505989075	0.35829782485961914
4	9.06639814376831	response	0	2		2.0	2.5	/experiments/knapen_aot/videos/S_g201_TH_804_A001_8_SDR_20191031_SDR_2K_AVC.mp4	0.0	69.5941710472107	
4	9.074599981307983	movie	1		169.0	2.0	2.5	/experiments/knapen_aot/videos/S_g201_TH_804_A001_8_SDR_20191031_SDR_2K_AVC.mp4	0.0	69.60237288475037	2.5083069801330566
4	11.58290696144104	fix_post	2		12.0	2.0	2.5	/experiments/knapen_aot/videos/S_g201_TH_804_A001_8_SDR_20191031_SDR_2K_AVC.mp4	0.0	72.11067986488342	0.10010814666748047
5	11.68301510810852	fix_pre	0		79.0	3.0	2.5	/experiments/knapen_aot/videos/S_yt-JH6qCYAnX-I_70.mp4	0.0	72.2107880115509	0.6582059860229492
5	12.332975149154663	response	0	2		3.0	2.5	/experiments/knapen_aot/videos/S_yt-JH6qCYAnX-I_70.mp4	0.0	72.86074805259705	
5	12.34122109413147	movie	1		301.0	3.0	2.5	/experiments/knapen_aot/videos/S_yt-JH6qCYAnX-I_70.mp4	0.0	72.86899399757385	2.5082828998565674
5	14.849503993988037	fix_post	2		12.0	3.0	2.5	/experiments/knapen_aot/videos/S_yt-JH6qCYAnX-I_70.mp4	0.0	75.37727689743042	0.10010313987731934
6	14.949607133865356	fix_pre	0		22.0	4.0	2.5	/experiments/knapen_aot/videos/S_yt-AHbFln6blfE_36.mp4	0.0	75.47738003730774	0.1832258701324463
6	15.124637126922607	response	0	2		4.0	2.5	/experiments/knapen_aot/videos/S_yt-AHbFln6blfE_36.mp4	0.0	75.65241003036499	
6	15.132833003997803	movie	1		301.0	4.0	2.5	/experiments/knapen_aot/videos/S_yt-AHbFln6blfE_36.mp4	0.0	75.66060590744019	2.508406162261963
6	17.641239166259766	fix_post	2		12.0	4.0	2.5	/experiments/knapen_aot/videos/S_yt-AHbFln6blfE_36.mp4	0.0	78.16901206970215	0.10037398338317871
7	17.741613149642944	fix_pre	0		35.0	5.0	2.5	/experiments/knapen_aot/videos/S_comp_N008_C009_PS_v01_SDR_PS_20180925_SDR_2K_AVC.mp4	0.0	78.26938605308533	0.2912728786468506
7	18.02465510368347	response	0	2		5.0	2.5	/experiments/knapen_aot/videos/S_comp_N008_C009_PS_v01_SDR_PS_20180925_SDR_2K_AVC.mp4	0.0	78.55242800712585	
7	18.032886028289795	movie	1		168.0	5.0	2.5	/experiments/knapen_aot/videos/S_comp_N008_C009_PS_v01_SDR_PS_20180925_SDR_2K_AVC.mp4	0.0	78.56065893173218	2.5083210468292236
7	20.54120707511902	fix_post	2		12.0	5.0	2.5	/experiments/knapen_aot/videos/S_comp_N008_C009_PS_v01_SDR_PS_20180925_SDR_2K_AVC.mp4	0.0	81.0689799785614	0.09990906715393066
8	20.64111614227295	fix_pre	0		30.0	6.0	2.5	blank	1.0	81.16888904571533	0.2500588893890381
8	20.882938146591187	response	0	2		6.0	2.5	blank	1.0	81.41071105003357	
8	20.891175031661987	movie	1		301.0	6.0	2.5	blank	1.0	81.41894793510437	2.5084011554718018
8	23.39957618713379	fix_post	2		12.0	6.0	2.5	blank	1.0	83.92734909057617	0.09995388984680176
9	23.49953007698059	fix_pre	0		79.0	7.0	2.5	/experiments/knapen_aot/videos/R_S_yt-9T99N7Cvi_o_112.mp4	0.0	84.02730298042297	0.6582810878753662
9	24.149681091308594	response	0	2		7.0	2.5	/experiments/knapen_aot/videos/R_S_yt-9T99N7Cvi_o_112.mp4	0.0	84.67745399475098	
9	24.157811164855957	movie	1		301.0	7.0	2.5	/experiments/knapen_aot/videos/R_S_yt-9T99N7Cvi_o_112.mp4	0.0	84.68558406829834	2.508391857147217
9	26.666203022003174	fix_post	2		12.0	7.0	2.5	/experiments/knapen_aot/videos/R_S_yt-9T99N7Cvi_o_112.mp4	0.0	87.19397592544556	0.10004210472106934
10	26.766245126724243	fix_pre	0		35.0	8.0	2.5	/experiments/knapen_aot/videos/R_S_yt-RqWnxg1wT-0_41.mp4	0.0	87.29401803016663	0.29160094261169434
10	27.04970097541809	response	0	2		8.0	2.5	/experiments/knapen_aot/videos/R_S_yt-RqWnxg1wT-0_41.mp4	0.0	87.57747387886047	
10	27.057846069335938	movie	1		301.0	8.0	2.5	/experiments/knapen_aot/videos/R_S_yt-RqWnxg1wT-0_41.mp4	0.0	87.58561897277832	2.508354902267456
10	29.566200971603394	fix_post	2		11.0	8.0	2.5	/experiments/knapen_aot/videos/R_S_yt-RqWnxg1wT-0_41.mp4	0.0	90.09397387504578	0.10017609596252441
11	29.666377067565918	fix_pre	0		43.0	9.0	2.5	/experiments/knapen_aot/videos/R_S_yt-BKkZUSowoxg_59.mp4	0.0	90.1941499710083	0.3594639301300049
11	30.016293048858643	response	0	2		9.0	2.5	/experiments/knapen_aot/videos/R_S_yt-BKkZUSowoxg_59.mp4	0.0	90.54406595230103	
11	30.025840997695923	movie	1		301.0	9.0	2.5	/experiments/knapen_aot/videos/R_S_yt-BKkZUSowoxg_59.mp4	0.0	90.5536139011383	2.506998062133789
11	32.53283905982971	fix_post	2		12.0	9.0	2.5	/experiments/knapen_aot/videos/R_S_yt-BKkZUSowoxg_59.mp4	0.0	93.0606119632721	0.09996604919433594
12	32.63280510902405	fix_pre	0		17.0	10.0	2.5	/experiments/knapen_aot/videos/R_S_yt-6MwA-jx56AQ_612.mp4	0.0	93.16057801246643	0.14164304733276367
12	32.76622009277344	response	0	2		10.0	2.5	/experiments/knapen_aot/videos/R_S_yt-6MwA-jx56AQ_612.mp4	0.0	93.29399299621582	
12	32.77444815635681	movie	1		301.0	10.0	2.5	/experiments/knapen_aot/videos/R_S_yt-6MwA-jx56AQ_612.mp4	0.0	93.3022210597992	2.508380889892578
12	35.28282904624939	fix_post	2		12.0	10.0	2.5	/experiments/knapen_aot/videos/R_S_yt-6MwA-jx56AQ_612.mp4	0.0	95.81060194969177	0.09997797012329102
13	35.38280701637268	fix_pre	0		28.0	11.0	2.5	/experiments/knapen_aot/videos/S_ILSVRC2015_train_00578000.mp4	0.0	95.91057991981506	0.23326897621154785
13	35.60796308517456	response	0	2		11.0	2.5	/experiments/knapen_aot/videos/S_ILSVRC2015_train_00578000.mp4	0.0	96.13573598861694	
13	35.61607599258423	movie	1		301.0	11.0	2.5	/experiments/knapen_aot/videos/S_ILSVRC2015_train_00578000.mp4	0.0	96.14384889602661	2.5084221363067627
13	38.12449812889099	fix_post	2		12.0	11.0	2.5	/experiments/knapen_aot/videos/S_ILSVRC2015_train_00578000.mp4	0.0	98.65227103233337	0.0999758243560791
14	38.22447395324707	fix_pre	0		30.0	12.0	2.5	blank	1.0	98.75224685668945	0.25002312660217285
14	38.466241121292114	response	0	2		12.0	2.5	blank	1.0	98.9940140247345	
14	38.47449707984924	movie	1		301.0	12.0	2.5	blank	1.0	99.00226998329163	2.50832200050354
14	40.98281908035278	fix_post	2		12.0	12.0	2.5	blank	1.0	101.51059198379517	0.09999895095825195
15	41.082818031311035	fix_pre	0		34.0	13.0	2.5	/experiments/knapen_aot/videos/S_yt-j3Sk8ZnAiEA_32.mp4	0.0	101.61059093475342	0.2832939624786377
15	41.35794401168823	response	0	2		13.0	2.5	/experiments/knapen_aot/videos/S_yt-j3Sk8ZnAiEA_32.mp4	0.0	101.88571691513062	
15	41.36611199378967	movie	1		300.0	13.0	2.5	/experiments/knapen_aot/videos/S_yt-j3Sk8ZnAiEA_32.mp4	0.0	101.89388489723206	2.5083301067352295
15	43.8744421005249	fix_post	2		12.0	13.0	2.5	/experiments/knapen_aot/videos/S_yt-j3Sk8ZnAiEA_32.mp4	0.0	104.40221500396729	0.10003805160522461
16	43.97448015213013	fix_pre	0		34.0	14.0	2.5	/experiments/knapen_aot/videos/S_G008_C015_UHD_SDR_2K_AVC.mp4	0.0	104.50225305557251	0.2832629680633545
16	44.24956703186035	response	0	2		14.0	2.5	/experiments/knapen_aot/videos/S_G008_C015_UHD_SDR_2K_AVC.mp4	0.0	104.77733993530273	
16	44.25774312019348	movie	1		193.0	14.0	2.5	/experiments/knapen_aot/videos/S_G008_C015_UHD_SDR_2K_AVC.mp4	0.0	104.78551602363586	2.5083718299865723
16	46.766114950180054	fix_post	2		12.0	14.0	2.5	/experiments/knapen_aot/videos/S_G008_C015_UHD_SDR_2K_AVC.mp4	0.0	107.29388785362244	0.09999704360961914
17	46.86611199378967	fix_pre	0		28.0	15.0	2.5	/experiments/knapen_aot/videos/S_pexels-kampus-production-5991896.mp4	0.0	107.39388489723206	0.23323607444763184
17	47.09122395515442	response	0	2		15.0	2.5	/experiments/knapen_aot/videos/S_pexels-kampus-production-5991896.mp4	0.0	107.6189968585968	
17	47.099348068237305	movie	1		173.0	15.0	2.5	/experiments/knapen_aot/videos/S_pexels-kampus-production-5991896.mp4	0.0	107.62712097167969	2.508476972579956
17	49.60782504081726	fix_post	2		12.0	15.0	2.5	/experiments/knapen_aot/videos/S_pexels-kampus-production-5991896.mp4	0.0	110.13559794425964	0.09994292259216309
18	49.707767963409424	fix_pre	0		27.0	16.0	2.5	/experiments/knapen_aot/videos/R_S_ILSVRC2015_train_00404003.mp4	0.0	110.2355408668518	0.2249431610107422
18	49.92447900772095	response	0	2		16.0	2.5	/experiments/knapen_aot/videos/R_S_ILSVRC2015_train_00404003.mp4	0.0	110.45225191116333	
18	49.932711124420166	movie	1		301.0	16.0	2.5	/experiments/knapen_aot/videos/R_S_ILSVRC2015_train_00404003.mp4	0.0	110.46048402786255	2.5083699226379395
18	52.441081047058105	fix_post	2		12.0	16.0	2.5	/experiments/knapen_aot/videos/R_S_ILSVRC2015_train_00404003.mp4	0.0	112.96885395050049	0.09998202323913574
19	52.54106307029724	fix_pre	0		30.0	17.0	2.5	/experiments/knapen_aot/videos/S_59eT4XDXNno_25.mp4	0.0	113.06883597373962	0.24996399879455566
19	52.77527117729187	response	0	2		17.0	2.5	/experiments/knapen_aot/videos/S_59eT4XDXNno_25.mp4	0.0	113.30304408073425	
19	52.7910270690918	movie	1		301.0	17.0	2.5	/experiments/knapen_aot/videos/S_59eT4XDXNno_25.mp4	0.0	113.31879997253418	2.5083959102630615
19	55.29942297935486	fix_post	2		12.0	17.0	2.5	/experiments/knapen_aot/videos/S_59eT4XDXNno_25.mp4	0.0	115.82719588279724	0.09997701644897461
20	55.39939999580383	fix_pre	0		60.0	18.0	2.5	/experiments/knapen_aot/videos/R_S_ILSVRC2015_test_00012005.mp4	0.0	115.92717289924622	0.5011880397796631
20	55.89114999771118	response	0	2		18.0	2.5	/experiments/knapen_aot/videos/R_S_ILSVRC2015_test_00012005.mp4	0.0	116.41892290115356	
20	55.900588035583496	movie	1		301.0	18.0	2.5	/experiments/knapen_aot/videos/R_S_ILSVRC2015_test_00012005.mp4	0.0	116.42836093902588	2.507143020629883
20	58.40773105621338	fix_post	2		12.0	18.0	2.5	/experiments/knapen_aot/videos/R_S_ILSVRC2015_test_00012005.mp4	0.0	118.93550395965576	0.09994006156921387
21	58.50767111778259	fix_pre	0		40.0	19.0	2.5	blank	1.0	119.03544402122498	0.3333718776702881
21	58.83283305168152	response	0	2		19.0	2.5	blank	1.0	119.3606059551239	
21	58.84104299545288	movie	1		301.0	19.0	2.5	blank	1.0	119.36881589889526	2.508308172225952
21	61.34935116767883	fix_post	2		12.0	19.0	2.5	blank	1.0	121.87712407112122	0.10003900527954102
22	61.449390172958374	fix_pre	0		30.0	20.0	2.5	/experiments/knapen_aot/videos/S_production_ID_4325509.mp4	0.0	121.97716307640076	0.24997282028198242
22	61.691195011138916	response	0	2		20.0	2.5	/experiments/knapen_aot/videos/S_production_ID_4325509.mp4	0.0	122.2189679145813	
22	61.699362993240356	movie	1		209.0	20.0	2.5	/experiments/knapen_aot/videos/S_production_ID_4325509.mp4	0.0	122.22713589668274	2.5083351135253906
22	64.20769810676575	fix_post	2		12.0	20.0	2.5	/experiments/knapen_aot/videos/S_production_ID_4325509.mp4	0.0	124.73547101020813	0.10004591941833496
23	64.30774402618408	fix_pre	0		58.0	21.0	2.5	/experiments/knapen_aot/videos/S_video_inspire_alabama_montgomery_countryside_00007.1080-h264.mp4	0.0	124.83551692962646	0.4833059310913086
23	64.78287196159363	response	0	2		21.0	2.5	/experiments/knapen_aot/videos/S_video_inspire_alabama_montgomery_countryside_00007.1080-h264.mp4	0.0	125.31064486503601	
23	64.79104995727539	movie	1		166.0	21.0	2.5	/experiments/knapen_aot/videos/S_video_inspire_alabama_montgomery_countryside_00007.1080-h264.mp4	0.0	125.31882286071777	2.5083141326904297
23	67.29936408996582	fix_post	2		12.0	21.0	2.5	/experiments/knapen_aot/videos/S_video_inspire_alabama_montgomery_countryside_00007.1080-h264.mp4	0.0	127.8271369934082	0.09996294975280762
24	67.39932703971863	fix_pre	0		33.0	22.0	2.5	/experiments/knapen_aot/videos/R_S_zAKvYNtmhuc_772.mp4	0.0	127.92709994316101	0.2749619483947754
24	67.6661331653595	response	0	2		22.0	2.5	/experiments/knapen_aot/videos/R_S_zAKvYNtmhuc_772.mp4	0.0	128.19390606880188	
24	67.6742889881134	movie	1		300.0	22.0	2.5	/experiments/knapen_aot/videos/R_S_zAKvYNtmhuc_772.mp4	0.0	128.2020618915558	2.5083770751953125
24	70.18266606330872	fix_post	2		12.0	22.0	2.5	/experiments/knapen_aot/videos/R_S_zAKvYNtmhuc_772.mp4	0.0	130.7104389667511	0.09998512268066406
25	70.28265118598938	fix_pre	0		33.0	23.0	2.5	/experiments/knapen_aot/videos/R_S_production_ID_4510883.mp4	0.0	130.81042408943176	0.27500486373901367
25	70.54947304725647	response	0	2		23.0	2.5	/experiments/knapen_aot/videos/R_S_production_ID_4510883.mp4	0.0	131.07724595069885	
25	70.5576560497284	movie	1		165.0	23.0	2.5	/experiments/knapen_aot/videos/R_S_production_ID_4510883.mp4	0.0	131.08542895317078	2.5083470344543457
25	73.06600308418274	fix_post	2		12.0	23.0	2.5	/experiments/knapen_aot/videos/R_S_production_ID_4510883.mp4	0.0	133.59377598762512	0.09999299049377441
26	73.16599607467651	fix_pre	0		49.0	24.0	2.5	/experiments/knapen_aot/videos/R_S_ILSVRC2015_train_00654000.mp4	0.0	133.6937689781189	0.4082510471343994
26	73.55850100517273	response	0	2		24.0	2.5	/experiments/knapen_aot/videos/R_S_ILSVRC2015_train_00654000.mp4	0.0	134.0862739086151	
26	73.57424712181091	movie	1		301.0	24.0	2.5	/experiments/knapen_aot/videos/R_S_ILSVRC2015_train_00654000.mp4	0.0	134.1020200252533	2.5082859992980957
26	76.08253312110901	fix_post	2		12.0	24.0	2.5	/experiments/knapen_aot/videos/R_S_ILSVRC2015_train_00654000.mp4	0.0	136.6103060245514	0.10009598731994629
27	76.18262910842896	fix_pre	0		35.0	25.0	2.5	/experiments/knapen_aot/videos/R_S_yt-l_ioasf6yHg_44.mp4	0.0	136.71040201187134	0.29165196418762207
27	76.46603608131409	response	0	2		25.0	2.5	/experiments/knapen_aot/videos/R_S_yt-l_ioasf6yHg_44.mp4	0.0	136.99380898475647	
27	76.47428107261658	movie	1		301.0	25.0	2.5	/experiments/knapen_aot/videos/R_S_yt-l_ioasf6yHg_44.mp4	0.0	137.00205397605896	2.5083389282226562
27	78.98262000083923	fix_post	2		12.0	25.0	2.5	/experiments/knapen_aot/videos/R_S_yt-l_ioasf6yHg_44.mp4	0.0	139.51039290428162	0.10003209114074707
28	79.08265209197998	fix_pre	0		46.0	26.0	2.5	/experiments/knapen_aot/videos/R_S_ILSVRC2015_train_00572000.mp4	0.0	139.61042499542236	0.38326096534729004
28	79.45772099494934	response	0	2		26.0	2.5	/experiments/knapen_aot/videos/R_S_ILSVRC2015_train_00572000.mp4	0.0	139.98549389839172	
28	79.46591305732727	movie	1		301.0	26.0	2.5	/experiments/knapen_aot/videos/R_S_ILSVRC2015_train_00572000.mp4	0.0	139.99368596076965	2.5083670616149902
28	81.97428011894226	fix_post	2		12.0	26.0	2.5	/experiments/knapen_aot/videos/R_S_ILSVRC2015_train_00572000.mp4	0.0	142.50205302238464	0.1000669002532959
29	82.07434701919556	fix_pre	0		76.0	27.0	2.5	blank	1.0	142.60211992263794	0.633228063583374
29	82.6993579864502	response	0	2		27.0	2.5	blank	1.0	143.22713088989258	
29	82.70757508277893	movie	1		301.0	27.0	2.5	blank	1.0	143.2353479862213	2.5083398818969727
29	85.2159149646759	fix_post	2		12.0	27.0	2.5	blank	1.0	145.7436878681183	0.09995102882385254
30	85.31586599349976	fix_pre	0		58.0	28.0	2.5	/experiments/knapen_aot/videos/S_yt-vjed5qyKqZw_1.mp4	0.0	145.84363889694214	0.4833550453186035
30	85.79100513458252	response	0	2		28.0	2.5	/experiments/knapen_aot/videos/S_yt-vjed5qyKqZw_1.mp4	0.0	146.3187780380249	
30	85.79922103881836	movie	1		301.0	28.0	2.5	/experiments/knapen_aot/videos/S_yt-vjed5qyKqZw_1.mp4	0.0	146.32699394226074	2.508371114730835
30	88.3075921535492	fix_post	2		12.0	28.0	2.5	/experiments/knapen_aot/videos/S_yt-vjed5qyKqZw_1.mp4	0.0	148.83536505699158	0.09999799728393555
31	88.40759015083313	fix_pre	0		55.0	29.0	2.5	/experiments/knapen_aot/videos/S_ILSVRC2015_test_00012005.mp4	0.0	148.9353630542755	0.45824098587036133
31	88.85775804519653	response	0	2		29.0	2.5	/experiments/knapen_aot/videos/S_ILSVRC2015_test_00012005.mp4	0.0	149.38553094863892	
31	88.86583113670349	movie	1		301.0	29.0	2.5	/experiments/knapen_aot/videos/S_ILSVRC2015_test_00012005.mp4	0.0	149.39360404014587	2.508314847946167
31	91.37414598464966	fix_post	2		12.0	29.0	2.5	/experiments/knapen_aot/videos/S_ILSVRC2015_test_00012005.mp4	0.0	151.90191888809204	0.10009002685546875
32	91.47423601150513	fix_pre	0		35.0	30.0	2.5	/experiments/knapen_aot/videos/R_S_comp_A007_C017_01156B_v02_SDR_PS_20180925_SDR_2K_AVC.mp4	0.0	152.0020089149475	0.29160499572753906
32	91.75767612457275	response	0	2		30.0	2.5	/experiments/knapen_aot/videos/R_S_comp_A007_C017_01156B_v02_SDR_PS_20180925_SDR_2K_AVC.mp4	0.0	152.28544902801514	
32	91.76584100723267	movie	1		163.0	30.0	2.5	/experiments/knapen_aot/videos/R_S_comp_A007_C017_01156B_v02_SDR_PS_20180925_SDR_2K_AVC.mp4	0.0	152.29361391067505	2.508388042449951
32	94.27422904968262	fix_post	2		12.0	30.0	2.5	/experiments/knapen_aot/videos/R_S_comp_A007_C017_01156B_v02_SDR_PS_20180925_SDR_2K_AVC.mp4	0.0	154.802001953125	0.09995794296264648
33	94.37418699264526	fix_pre	0		4.0	31.0	2.5	/experiments/knapen_aot/videos/R_S_yt-yXJr3FR2xrM_27.mp4	0.0	154.90195989608765	0.03338813781738281
33	94.39929604530334	response	0	2		31.0	2.5	/experiments/knapen_aot/videos/R_S_yt-yXJr3FR2xrM_27.mp4	0.0	154.92706894874573	
33	94.40757513046265	movie	1		301.0	31.0	2.5	/experiments/knapen_aot/videos/R_S_yt-yXJr3FR2xrM_27.mp4	0.0	154.93534803390503	2.50826096534729
33	96.91583609580994	fix_post	2		12.0	31.0	2.5	/experiments/knapen_aot/videos/R_S_yt-yXJr3FR2xrM_27.mp4	0.0	157.44360899925232	0.10020709037780762
34	97.01604318618774	fix_pre	0		22.0	32.0	2.5	/experiments/knapen_aot/videos/R_S_yt-xlHdGsXVZFU_83.mp4	0.0	157.54381608963013	0.18312382698059082
34	97.19097208976746	response	0	2		32.0	2.5	/experiments/knapen_aot/videos/R_S_yt-xlHdGsXVZFU_83.mp4	0.0	157.71874499320984	
34	97.19916701316833	movie	1		301.0	32.0	2.5	/experiments/knapen_aot/videos/R_S_yt-xlHdGsXVZFU_83.mp4	0.0	157.72693991661072	2.5083839893341064
34	99.70755100250244	fix_post	2		12.0	32.0	2.5	/experiments/knapen_aot/videos/R_S_yt-xlHdGsXVZFU_83.mp4	0.0	160.23532390594482	0.10001802444458008
35	99.80756902694702	fix_pre	0		50.0	33.0	2.5	blank	1.0	160.3353419303894	0.41655707359313965
35	100.21599912643433	response	0	2		33.0	2.5	blank	1.0	160.7437720298767	
35	100.22412610054016	movie	1		301.0	33.0	2.5	blank	1.0	160.75189900398254	2.5083539485931396
35	102.7324800491333	fix_post	2		12.0	33.0	2.5	blank	1.0	163.26025295257568	0.10000801086425781
36	102.83248805999756	fix_pre	0		46.0	34.0	2.5	/experiments/knapen_aot/videos/S_ILSVRC2015_train_00743001.mp4	0.0	163.36026096343994	0.3832991123199463
36	103.20764398574829	response	0	2		34.0	2.5	/experiments/knapen_aot/videos/S_ILSVRC2015_train_00743001.mp4	0.0	163.73541688919067	
36	103.2157871723175	movie	1		301.0	34.0	2.5	/experiments/knapen_aot/videos/S_ILSVRC2015_train_00743001.mp4	0.0	163.7435600757599	2.5083889961242676
36	105.72417616844177	fix_post	2		12.0	34.0	2.5	/experiments/knapen_aot/videos/S_ILSVRC2015_train_00743001.mp4	0.0	166.25194907188416	0.10006499290466309
37	105.82424116134644	fix_pre	0		22.0	35.0	2.5	/experiments/knapen_aot/videos/S_yt-WrwPgZYBXlA_34.mp4	0.0	166.35201406478882	0.18324685096740723
37	105.99923801422119	response	0	2		35.0	2.5	/experiments/knapen_aot/videos/S_yt-WrwPgZYBXlA_34.mp4	0.0	166.52701091766357	
37	106.00748801231384	movie	1		301.0	35.0	2.5	/experiments/knapen_aot/videos/S_yt-WrwPgZYBXlA_34.mp4	0.0	166.53526091575623	2.5082740783691406
37	108.51576209068298	fix_post	2		12.0	35.0	2.5	/experiments/knapen_aot/videos/S_yt-WrwPgZYBXlA_34.mp4	0.0	169.04353499412537	0.10018491744995117
38	108.61594700813293	fix_pre	0		30.0	36.0	2.5	/experiments/knapen_aot/videos/R_S_yt-g_CLzrCYHoc_7.mp4	0.0	169.14371991157532	0.2497720718383789
38	108.8576180934906	response	0	2		36.0	2.5	/experiments/knapen_aot/videos/R_S_yt-g_CLzrCYHoc_7.mp4	0.0	169.38539099693298	
38	108.86571907997131	movie	1		301.0	36.0	2.5	/experiments/knapen_aot/videos/R_S_yt-g_CLzrCYHoc_7.mp4	0.0	169.3934919834137	2.508357048034668
38	111.37407612800598	fix_post	2		12.0	36.0	2.5	/experiments/knapen_aot/videos/R_S_yt-g_CLzrCYHoc_7.mp4	0.0	171.90184903144836	0.10007190704345703
39	111.47414803504944	fix_pre	0		22.0	37.0	2.5	/experiments/knapen_aot/videos/R_S_ILSVRC2015_train_00404003.mp4	0.0	172.00192093849182	0.18330097198486328
39	111.6492190361023	response	0	2		37.0	2.5	/experiments/knapen_aot/videos/R_S_ILSVRC2015_train_00404003.mp4	0.0	172.17699193954468	
39	111.6574490070343	movie	1		301.0	37.0	2.5	/experiments/knapen_aot/videos/R_S_ILSVRC2015_train_00404003.mp4	0.0	172.18522191047668	2.508363962173462
39	114.16581296920776	fix_post	2		12.0	37.0	2.5	/experiments/knapen_aot/videos/R_S_ILSVRC2015_train_00404003.mp4	0.0	174.69358587265015	0.10002303123474121
40	114.2658360004425	fix_pre	0		15.0	38.0	2.5	/experiments/knapen_aot/videos/R_S_yt-5DD4XtHSA9Q_171.mp4	0.0	174.7936089038849	0.12497496604919434
40	114.3825170993805	response	0	2		38.0	2.5	/experiments/knapen_aot/videos/R_S_yt-5DD4XtHSA9Q_171.mp4	0.0	174.91029000282288	
40	114.3908109664917	movie	1		301.0	38.0	2.5	/experiments/knapen_aot/videos/R_S_yt-5DD4XtHSA9Q_171.mp4	0.0	174.91858386993408	2.5082640647888184
40	116.89907503128052	fix_post	2		12.0	38.0	2.5	/experiments/knapen_aot/videos/R_S_yt-5DD4XtHSA9Q_171.mp4	0.0	177.4268479347229	0.10006213188171387
41	116.99913716316223	fix_pre	0		20.0	39.0	2.5	/experiments/knapen_aot/videos/S_BO_A012_C031_SDR_20190726_SDR_2K_AVC.mp4	0.0	177.52691006660461	0.16658282279968262
41	117.15757608413696	response	0	2		39.0	2.5	/experiments/knapen_aot/videos/S_BO_A012_C031_SDR_20190726_SDR_2K_AVC.mp4	0.0	177.68534898757935	
41	117.16571998596191	movie	1		164.0	39.0	2.5	/experiments/knapen_aot/videos/S_BO_A012_C031_SDR_20190726_SDR_2K_AVC.mp4	0.0	177.6934928894043	2.508388042449951
41	119.67410802841187	fix_post	2		12.0	39.0	2.5	/experiments/knapen_aot/videos/S_BO_A012_C031_SDR_20190726_SDR_2K_AVC.mp4	0.0	180.20188093185425	0.10093808174133301
42	119.7750461101532	fix_pre	0		25.0	40.0	2.5	blank	1.0	180.30281901359558	0.20832586288452148
42	119.97426700592041	response	0	2		40.0	2.5	blank	1.0	180.5020399093628	
42	119.98337197303772	movie	1		301.0	40.0	2.5	blank	1.0	180.5111448764801	2.5074031352996826
42	122.4907751083374	fix_post	2		12.0	40.0	2.5	blank	1.0	183.01854801177979	0.09993791580200195
43	122.5907130241394	fix_pre	0		32.0	41.0	2.5	/experiments/knapen_aot/videos/R_S_yt-JH6qCYAnX-I_70.mp4	0.0	183.1184859275818	0.26773715019226074
43	122.84920716285706	response	0	2		41.0	2.5	/experiments/knapen_aot/videos/R_S_yt-JH6qCYAnX-I_70.mp4	0.0	183.37698006629944	
43	122.85845017433167	movie	1		299.0	41.0	2.5	/experiments/knapen_aot/videos/R_S_yt-JH6qCYAnX-I_70.mp4	0.0	183.38622307777405	2.5074470043182373
43	125.3658971786499	fix_post	2		12.0	41.0	2.5	/experiments/knapen_aot/videos/R_S_yt-JH6qCYAnX-I_70.mp4	0.0	185.89367008209229	0.09988188743591309
44	125.46577906608582	fix_pre	0		23.0	42.0	2.5	/experiments/knapen_aot/videos/S_flickr-southeasternstar-3464778323_10.mp4	0.0	185.9935519695282	0.19158697128295898
44	125.6492211818695	response	0	2		42.0	2.5	/experiments/knapen_aot/videos/S_flickr-southeasternstar-3464778323_10.mp4	0.0	186.1769940853119	
44	125.65736603736877	movie	1		301.0	42.0	2.5	/experiments/knapen_aot/videos/S_flickr-southeasternstar-3464778323_10.mp4	0.0	186.18513894081116	2.5084729194641113
44	128.16583895683289	fix_post	2		12.0	42.0	2.5	/experiments/knapen_aot/videos/S_flickr-southeasternstar-3464778323_10.mp4	0.0	188.69361186027527	0.09986519813537598
45	128.26570415496826	fix_pre	0		29.0	43.0	2.5	/experiments/knapen_aot/videos/S_production_ID_4101225.mp4	0.0	188.79347705841064	0.2416989803314209
45	128.49160814285278	response	0	2		43.0	2.5	/experiments/knapen_aot/videos/S_production_ID_4101225.mp4	0.0	189.01938104629517	
45	128.50740313529968	movie	1		213.0	43.0	2.5	/experiments/knapen_aot/videos/S_production_ID_4101225.mp4	0.0	189.03517603874207	2.508316993713379
45	131.01572012901306	fix_post	2		12.0	43.0	2.5	/experiments/knapen_aot/videos/S_production_ID_4101225.mp4	0.0	191.54349303245544	0.10000991821289062
46	131.11573004722595	fix_pre	0		36.0	44.0	2.5	/experiments/knapen_aot/videos/R_S_ILSVRC2015_train_00379000.mp4	0.0	191.64350295066833	0.2999110221862793
46	131.39988708496094	response	0	2		44.0	2.5	/experiments/knapen_aot/videos/R_S_ILSVRC2015_train_00379000.mp4	0.0	191.92765998840332	
46	131.41564106941223	movie	1		301.0	44.0	2.5	/experiments/knapen_aot/videos/R_S_ILSVRC2015_train_00379000.mp4	0.0	191.94341397285461	2.508470058441162
46	133.9241111278534	fix_post	2		12.0	44.0	2.5	/experiments/knapen_aot/videos/R_S_ILSVRC2015_train_00379000.mp4	0.0	194.45188403129578	0.0999150276184082
47	134.0240261554718	fix_pre	0		13.0	45.0	2.5	/experiments/knapen_aot/videos/S_ILSVRC2015_train_00251004.mp4	0.0	194.55179905891418	0.10831499099731445
47	134.12415218353271	response	0	2		45.0	2.5	/experiments/knapen_aot/videos/S_ILSVRC2015_train_00251004.mp4	0.0	194.6519250869751	
47	134.13234114646912	movie	1		301.0	45.0	2.5	/experiments/knapen_aot/videos/S_ILSVRC2015_train_00251004.mp4	0.0	194.6601140499115	2.5083730220794678
47	136.64071416854858	fix_post	2		12.0	45.0	2.5	/experiments/knapen_aot/videos/S_ILSVRC2015_train_00251004.mp4	0.0	197.16848707199097	0.10004186630249023
48	136.74075603485107	fix_pre	0		22.0	46.0	2.5	/experiments/knapen_aot/videos/R_S_ILSVRC2015_train_00465000.mp4	0.0	197.26852893829346	0.18322992324829102
48	136.91577911376953	response	0	2		46.0	2.5	/experiments/knapen_aot/videos/R_S_ILSVRC2015_train_00465000.mp4	0.0	197.4435520172119	
48	136.92398595809937	movie	1		301.0	46.0	2.5	/experiments/knapen_aot/videos/R_S_ILSVRC2015_train_00465000.mp4	0.0	197.45175886154175	2.5083420276641846
48	139.43232798576355	fix_post	2		12.0	46.0	2.5	/experiments/knapen_aot/videos/R_S_ILSVRC2015_train_00465000.mp4	0.0	199.96010088920593	0.09999608993530273
49	139.53232407569885	fix_pre	0		28.0	47.0	2.5	/experiments/knapen_aot/videos/S_PA_A010_C007_SDR_20190717_SDR_2K_AVC.mp4	0.0	200.06009697914124	0.23331093788146973
49	139.75749516487122	response	0	2		47.0	2.5	/experiments/knapen_aot/videos/S_PA_A010_C007_SDR_20190717_SDR_2K_AVC.mp4	0.0	200.2852680683136	
49	139.76563501358032	movie	1		171.0	47.0	2.5	/experiments/knapen_aot/videos/S_PA_A010_C007_SDR_20190717_SDR_2K_AVC.mp4	0.0	200.2934079170227	2.5083811283111572
49	142.27401614189148	fix_post	2		12.0	47.0	2.5	/experiments/knapen_aot/videos/S_PA_A010_C007_SDR_20190717_SDR_2K_AVC.mp4	0.0	202.80178904533386	0.09992384910583496
50	142.37393999099731	fix_pre	0		26.0	48.0	2.5	/experiments/knapen_aot/videos/R_S_pexels-ron-lach-8071987.mp4	0.0	202.9017128944397	0.21667814254760742
50	142.57487511634827	response	0	2		48.0	2.5	/experiments/knapen_aot/videos/R_S_pexels-ron-lach-8071987.mp4	0.0	203.10264801979065	
50	142.59061813354492	movie	1		197.0	48.0	2.5	/experiments/knapen_aot/videos/R_S_pexels-ron-lach-8071987.mp4	0.0	203.1183910369873	2.5083978176116943
50	145.09901595115662	fix_post	2		12.0	48.0	2.5	/experiments/knapen_aot/videos/R_S_pexels-ron-lach-8071987.mp4	0.0	205.626788854599	0.09998106956481934
51	145.19899702072144	fix_pre	0		28.0	49.0	2.5	blank	1.0	205.72676992416382	0.23340201377868652
51	145.4241020679474	response	0	2		49.0	2.5	blank	1.0	205.95187497138977	
51	145.43239903450012	movie	1		301.0	49.0	2.5	blank	1.0	205.9601719379425	2.508255958557129
51	147.94065499305725	fix_post	2		12.0	49.0	2.5	blank	1.0	208.46842789649963	0.10001397132873535
52	148.040668964386	fix_pre	0		25.0	50.0	2.5	/experiments/knapen_aot/videos/R_S_yt-r7PeFd-hIp0_378.mp4	0.0	208.56844186782837	0.20832610130310059
52	148.24077200889587	response	0	2		50.0	2.5	/experiments/knapen_aot/videos/R_S_yt-r7PeFd-hIp0_378.mp4	0.0	208.76854491233826	
52	148.2489950656891	movie	1		301.0	50.0	2.5	/experiments/knapen_aot/videos/R_S_yt-r7PeFd-hIp0_378.mp4	0.0	208.77676796913147	2.508323907852173
52	150.75731897354126	fix_post	2		12.0	50.0	2.5	/experiments/knapen_aot/videos/R_S_yt-r7PeFd-hIp0_378.mp4	0.0	211.28509187698364	0.09990406036376953
53	150.85722303390503	fix_pre	0		27.0	51.0	2.5	/experiments/knapen_aot/videos/S_yt--jzScB82vKI_90.mp4	0.0	211.3849959373474	0.2250509262084961
53	151.07405805587769	response	0	2		51.0	2.5	/experiments/knapen_aot/videos/S_yt--jzScB82vKI_90.mp4	0.0	211.60183095932007	
53	151.08227396011353	movie	1		299.0	51.0	2.5	/experiments/knapen_aot/videos/S_yt--jzScB82vKI_90.mp4	0.0	211.6100468635559	2.508336067199707
53	153.59061002731323	fix_post	2		12.0	51.0	2.5	/experiments/knapen_aot/videos/S_yt--jzScB82vKI_90.mp4	0.0	214.11838293075562	0.10071897506713867
54	153.69132900238037	fix_pre	0		51.0	52.0	2.5	/experiments/knapen_aot/videos/S_yt-l_ioasf6yHg_44.mp4	0.0	214.21910190582275	0.4242231845855713
54	154.10740995407104	response	0	2		52.0	2.5	/experiments/knapen_aot/videos/S_yt-l_ioasf6yHg_44.mp4	0.0	214.63518285751343	
54	154.11555218696594	movie	1		301.0	52.0	2.5	/experiments/knapen_aot/videos/S_yt-l_ioasf6yHg_44.mp4	0.0	214.64332509040833	2.5083389282226562
54	156.6238911151886	fix_post	2		12.0	52.0	2.5	/experiments/knapen_aot/videos/S_yt-l_ioasf6yHg_44.mp4	0.0	217.15166401863098	0.10005688667297363
55	156.72394800186157	fix_pre	0		34.0	53.0	2.5	/experiments/knapen_aot/videos/S_yt-rPYBHkUEwwc_10.mp4	0.0	217.25172090530396	0.28331518173217773
55	156.99907398223877	response	0	2		53.0	2.5	/experiments/knapen_aot/videos/S_yt-rPYBHkUEwwc_10.mp4	0.0	217.52684688568115	
55	157.00726318359375	movie	1		301.0	53.0	2.5	/experiments/knapen_aot/videos/S_yt-rPYBHkUEwwc_10.mp4	0.0	217.53503608703613	2.5083608627319336
55	159.51562404632568	fix_post	2		12.0	53.0	2.5	/experiments/knapen_aot/videos/S_yt-rPYBHkUEwwc_10.mp4	0.0	220.04339694976807	0.10000991821289062
56	159.61563396453857	fix_pre	0		31.0	54.0	2.5	/experiments/knapen_aot/videos/S_yt-lazG9z4VQAw_99.mp4	0.0	220.14340686798096	0.25831007957458496
56	159.86574506759644	response	0	2		54.0	2.5	/experiments/knapen_aot/videos/S_yt-lazG9z4VQAw_99.mp4	0.0	220.39351797103882	
56	159.87394404411316	movie	1		301.0	54.0	2.5	/experiments/knapen_aot/videos/S_yt-lazG9z4VQAw_99.mp4	0.0	220.40171694755554	2.5082991123199463
56	162.3822431564331	fix_post	2		12.0	54.0	2.5	/experiments/knapen_aot/videos/S_yt-lazG9z4VQAw_99.mp4	0.0	222.9100160598755	0.10003995895385742
57	162.48228311538696	fix_pre	0		55.0	55.0	2.5	blank	1.0	223.01005601882935	0.4589660167694092
57	162.92485117912292	response	0	2		55.0	2.5	blank	1.0	223.4526240825653	
57	162.94124913215637	movie	1		301.0	55.0	2.5	blank	1.0	223.46902203559875	2.5076608657836914
57	165.44890999794006	fix_post	2		12.0	55.0	2.5	blank	1.0	225.97668290138245	0.09995913505554199
58	165.5488691329956	fix_pre	0		31.0	56.0	2.5	/experiments/knapen_aot/videos/R_S_yt-Ek1jcvett9E_33.mp4	0.0	226.076642036438	0.25835084915161133
58	165.79896306991577	response	0	2		56.0	2.5	/experiments/knapen_aot/videos/R_S_yt-Ek1jcvett9E_33.mp4	0.0	226.32673597335815	
58	165.80721998214722	movie	1		301.0	56.0	2.5	/experiments/knapen_aot/videos/R_S_yt-Ek1jcvett9E_33.mp4	0.0	226.3349928855896	2.508319139480591
58	168.3155391216278	fix_post	2		12.0	56.0	2.5	/experiments/knapen_aot/videos/R_S_yt-Ek1jcvett9E_33.mp4	0.0	228.8433120250702	0.10003089904785156
59	168.41557002067566	fix_pre	0		35.0	57.0	2.5	/experiments/knapen_aot/videos/S_ILSVRC2015_train_00322000.mp4	0.0	228.94334292411804	0.29167604446411133
59	168.6990451812744	response	0	2		57.0	2.5	/experiments/knapen_aot/videos/S_ILSVRC2015_train_00322000.mp4	0.0	229.2268180847168	
59	168.70724606513977	movie	1		301.0	57.0	2.5	/experiments/knapen_aot/videos/S_ILSVRC2015_train_00322000.mp4	0.0	229.23501896858215	2.508352041244507
59	171.21559810638428	fix_post	2		12.0	57.0	2.5	/experiments/knapen_aot/videos/S_ILSVRC2015_train_00322000.mp4	0.0	231.74337100982666	0.09997296333312988
60	171.3155710697174	fix_pre	0		22.0	58.0	2.5	/experiments/knapen_aot/videos/S_video_inspire_california_big-sur_landscape_054.1080-h264.mp4	0.0	231.8433439731598	0.18329691886901855
60	171.48318696022034	response	0	2		58.0	2.5	/experiments/knapen_aot/videos/S_video_inspire_california_big-sur_landscape_054.1080-h264.mp4	0.0	232.01095986366272	
60	171.49886798858643	movie	1		168.0	58.0	2.5	/experiments/knapen_aot/videos/S_video_inspire_california_big-sur_landscape_054.1080-h264.mp4	0.0	232.0266408920288	2.5083260536193848
60	174.0071940422058	fix_post	2		12.0	58.0	2.5	/experiments/knapen_aot/videos/S_video_inspire_california_big-sur_landscape_054.1080-h264.mp4	0.0	234.5349669456482	0.09995913505554199
61	174.10715317726135	fix_pre	0		52.0	59.0	2.5	/experiments/knapen_aot/videos/R_S_yt-VMUSo8E_Fj8_171.mp4	0.0	234.63492608070374	0.4333639144897461
61	174.53232717514038	response	0	2		59.0	2.5	/experiments/knapen_aot/videos/R_S_yt-VMUSo8E_Fj8_171.mp4	0.0	235.06010007858276	
61	174.5405170917511	movie	1		301.0	59.0	2.5	/experiments/knapen_aot/videos/R_S_yt-VMUSo8E_Fj8_171.mp4	0.0	235.06828999519348	2.50832200050354
61	177.04883909225464	fix_post	2		12.0	59.0	2.5	/experiments/knapen_aot/videos/R_S_yt-VMUSo8E_Fj8_171.mp4	0.0	237.57661199569702	0.09998798370361328
62	177.14882707595825	fix_pre	0		32.0	60.0	2.5	/experiments/knapen_aot/videos/R_S_bing-www_dailymotion_com_video_x64hzm7_8.mp4	0.0	237.67659997940063	0.2666630744934082
62	177.4073450565338	response	0	2		60.0	2.5	/experiments/knapen_aot/videos/R_S_bing-www_dailymotion_com_video_x64hzm7_8.mp4	0.0	237.9351179599762	
62	177.41549015045166	movie	1		173.0	60.0	2.5	/experiments/knapen_aot/videos/R_S_bing-www_dailymotion_com_video_x64hzm7_8.mp4	0.0	237.94326305389404	2.508380889892578
62	179.92387104034424	fix_post	2		12.0	60.0	2.5	/experiments/knapen_aot/videos/R_S_bing-www_dailymotion_com_video_x64hzm7_8.mp4	0.0	240.45164394378662	0.0999610424041748
63	180.0238320827484	fix_pre	0		22.0	61.0	2.5	/experiments/knapen_aot/videos/R_S_video_inspire_oregon_lone-ranch-beach_00015.1080-h264.mp4	0.0	240.5516049861908	0.18331003189086914
63	180.1989619731903	response	0	2		61.0	2.5	/experiments/knapen_aot/videos/R_S_video_inspire_oregon_lone-ranch-beach_00015.1080-h264.mp4	0.0	240.7267348766327	
63	180.20714211463928	movie	1		173.0	61.0	2.5	/experiments/knapen_aot/videos/R_S_video_inspire_oregon_lone-ranch-beach_00015.1080-h264.mp4	0.0	240.73491501808167	2.50834584236145
63	182.71548795700073	fix_post	2		12.0	61.0	2.5	/experiments/knapen_aot/videos/R_S_video_inspire_oregon_lone-ranch-beach_00015.1080-h264.mp4	0.0	243.24326086044312	0.09998202323913574
64	182.81546998023987	fix_pre	0		37.0	62.0	2.5	/experiments/knapen_aot/videos/R_S_pexels-ron-lach-8071987.mp4	0.0	243.34324288368225	0.30835819244384766
64	183.11564207077026	response	0	2		62.0	2.5	/experiments/knapen_aot/videos/R_S_pexels-ron-lach-8071987.mp4	0.0	243.64341497421265	
64	183.12382817268372	movie	1		204.0	62.0	2.5	/experiments/knapen_aot/videos/R_S_pexels-ron-lach-8071987.mp4	0.0	243.6516010761261	2.5085268020629883
64	185.6323549747467	fix_post	2		12.0	62.0	2.5	/experiments/knapen_aot/videos/R_S_pexels-ron-lach-8071987.mp4	0.0	246.1601278781891	0.10039710998535156
65	185.73275208473206	fix_pre	0		35.0	63.0	2.5	blank	1.0	246.26052498817444	0.2916131019592285
65	186.01564002037048	response	0	2		63.0	2.5	blank	1.0	246.54341292381287	
65	186.02436518669128	movie	1		301.0	63.0	2.5	blank	1.0	246.55213809013367	2.5077619552612305
65	188.53212714195251	fix_post	2		12.0	63.0	2.5	blank	1.0	249.0599000453949	0.10006284713745117
66	188.63218998908997	fix_pre	0		53.0	64.0	2.5	/experiments/knapen_aot/videos/S_yt-ak01CHYgEOs_1383.mp4	0.0	249.15996289253235	0.4416379928588867
66	189.06566214561462	response	0	2		64.0	2.5	/experiments/knapen_aot/videos/S_yt-ak01CHYgEOs_1383.mp4	0.0	249.593435049057	
66	189.07382798194885	movie	1		299.0	64.0	2.5	/experiments/knapen_aot/videos/S_yt-ak01CHYgEOs_1383.mp4	0.0	249.60160088539124	2.508261203765869
66	191.58208918571472	fix_post	2		12.0	64.0	2.5	/experiments/knapen_aot/videos/S_yt-ak01CHYgEOs_1383.mp4	0.0	252.1098620891571	0.09999299049377441
67	191.6820821762085	fix_pre	0		47.0	65.0	2.5	/experiments/knapen_aot/videos/R_S_Pexels_Videos_2795171.mp4	0.0	252.20985507965088	0.3916778564453125
67	192.06554317474365	response	0	2		65.0	2.5	/experiments/knapen_aot/videos/R_S_Pexels_Videos_2795171.mp4	0.0	252.59331607818604	
67	192.0737600326538	movie	1		164.0	65.0	2.5	/experiments/knapen_aot/videos/R_S_Pexels_Videos_2795171.mp4	0.0	252.6015329360962	2.5083141326904297
67	194.58207416534424	fix_post	2		12.0	65.0	2.5	/experiments/knapen_aot/videos/R_S_Pexels_Videos_2795171.mp4	0.0	255.10984706878662	0.10002779960632324
68	194.68210196495056	fix_pre	0		24.0	66.0	2.5	/experiments/knapen_aot/videos/S_yt-5DD4XtHSA9Q_171.mp4	0.0	255.20987486839294	0.19996905326843262
68	194.86643195152283	response	0	2		66.0	2.5	/experiments/knapen_aot/videos/S_yt-5DD4XtHSA9Q_171.mp4	0.0	255.3942048549652	
68	194.882071018219	movie	1		301.0	66.0	2.5	/experiments/knapen_aot/videos/S_yt-5DD4XtHSA9Q_171.mp4	0.0	255.40984392166138	2.5083730220794678
68	197.39044404029846	fix_post	2		12.0	66.0	2.5	/experiments/knapen_aot/videos/S_yt-5DD4XtHSA9Q_171.mp4	0.0	257.91821694374084	0.09993195533752441
69	197.490375995636	fix_pre	0		28.0	67.0	2.5	/experiments/knapen_aot/videos/S_yt-JGKdBO2Ldzo_93.mp4	0.0	258.01814889907837	0.23335003852844238
69	197.7080500125885	response	0	2		67.0	2.5	/experiments/knapen_aot/videos/S_yt-JGKdBO2Ldzo_93.mp4	0.0	258.2358229160309	
69	197.72372603416443	movie	1		301.0	67.0	2.5	/experiments/knapen_aot/videos/S_yt-JGKdBO2Ldzo_93.mp4	0.0	258.2514989376068	2.508445978164673
69	200.2321720123291	fix_post	2		12.0	67.0	2.5	/experiments/knapen_aot/videos/S_yt-JGKdBO2Ldzo_93.mp4	0.0	260.7599449157715	0.09990406036376953
70	200.33207607269287	fix_pre	0		49.0	68.0	2.5	/experiments/knapen_aot/videos/R_S_ILSVRC2015_train_00411000.mp4	0.0	260.85984897613525	0.40831899642944336
70	200.73222613334656	response	0	2		68.0	2.5	/experiments/knapen_aot/videos/R_S_ILSVRC2015_train_00411000.mp4	0.0	261.25999903678894	
70	200.74039506912231	movie	1		299.0	68.0	2.5	/experiments/knapen_aot/videos/R_S_ILSVRC2015_train_00411000.mp4	0.0	261.2681679725647	2.508342981338501
70	203.24873805046082	fix_post	2		12.0	68.0	2.5	/experiments/knapen_aot/videos/R_S_ILSVRC2015_train_00411000.mp4	0.0	263.7765109539032	0.10003805160522461
71	203.34877610206604	fix_pre	0		22.0	69.0	2.5	/experiments/knapen_aot/videos/S_yt-Ek1jcvett9E_33.mp4	0.0	263.8765490055084	0.1832718849182129
71	203.52389311790466	response	0	2		69.0	2.5	/experiments/knapen_aot/videos/S_yt-Ek1jcvett9E_33.mp4	0.0	264.05166602134705	
71	203.53204798698425	movie	1		301.0	69.0	2.5	/experiments/knapen_aot/videos/S_yt-Ek1jcvett9E_33.mp4	0.0	264.05982089042664	2.5083541870117188
71	206.04040217399597	fix_post	2		12.0	69.0	2.5	/experiments/knapen_aot/videos/S_yt-Ek1jcvett9E_33.mp4	0.0	266.56817507743835	0.0999598503112793
72	206.14036202430725	fix_pre	0		21.0	70.0	2.5	blank	1.0	266.66813492774963	0.17553305625915527
72	206.30719709396362	response	0	2		70.0	2.5	blank	1.0	266.834969997406	
72	206.3158950805664	movie	1		301.0	70.0	2.5	blank	1.0	266.8436679840088	2.50779390335083
72	208.82368898391724	fix_post	2		12.0	70.0	2.5	blank	1.0	269.3514618873596	0.10004901885986328
73	208.9237380027771	fix_pre	0		63.0	71.0	2.5	/experiments/knapen_aot/videos/S_yt-5MyvZYFlc9g_125.mp4	0.0	269.4515109062195	0.5249531269073486
73	209.4405620098114	response	0	2		71.0	2.5	/experiments/knapen_aot/videos/S_yt-5MyvZYFlc9g_125.mp4	0.0	269.9683349132538	
73	209.44869112968445	movie	1		301.0	71.0	2.5	/experiments/knapen_aot/videos/S_yt-5MyvZYFlc9g_125.mp4	0.0	269.97646403312683	2.5083320140838623
73	211.9570231437683	fix_post	2		12.0	71.0	2.5	/experiments/knapen_aot/videos/S_yt-5MyvZYFlc9g_125.mp4	0.0	272.4847960472107	0.0999898910522461
74	212.05701303482056	fix_pre	0		35.0	72.0	2.5	/experiments/knapen_aot/videos/S_video_inspire_oregon_lone-ranch-beach_00015.1080-h264.mp4	0.0	272.58478593826294	0.2917160987854004
74	212.34047412872314	response	0	2		72.0	2.5	/experiments/knapen_aot/videos/S_video_inspire_oregon_lone-ranch-beach_00015.1080-h264.mp4	0.0	272.8682470321655	
74	212.34872913360596	movie	1		165.0	72.0	2.5	/experiments/knapen_aot/videos/S_video_inspire_oregon_lone-ranch-beach_00015.1080-h264.mp4	0.0	272.87650203704834	2.508354902267456
74	214.8570840358734	fix_post	2		12.0	72.0	2.5	/experiments/knapen_aot/videos/S_video_inspire_oregon_lone-ranch-beach_00015.1080-h264.mp4	0.0	275.3848569393158	0.09999704360961914
75	214.95708107948303	fix_pre	0		38.0	73.0	2.5	/experiments/knapen_aot/videos/R_S_comp_LA_A008_C004_ALTB_ED_FROM_FLAME_RETIME_v46_SDR_PS_20180917_SDR_2K_AVC.mp4	0.0	275.4848539829254	0.31705498695373535
75	215.26552605628967	response	0	2		73.0	2.5	/experiments/knapen_aot/videos/R_S_comp_LA_A008_C004_ALTB_ED_FROM_FLAME_RETIME_v46_SDR_PS_20180917_SDR_2K_AVC.mp4	0.0	275.79329895973206	
75	215.27413606643677	movie	1		170.0	73.0	2.5	/experiments/knapen_aot/videos/R_S_comp_LA_A008_C004_ALTB_ED_FROM_FLAME_RETIME_v46_SDR_PS_20180917_SDR_2K_AVC.mp4	0.0	275.80190896987915	2.5078821182250977
75	217.78201818466187	fix_post	2		12.0	73.0	2.5	/experiments/knapen_aot/videos/R_S_comp_LA_A008_C004_ALTB_ED_FROM_FLAME_RETIME_v46_SDR_PS_20180917_SDR_2K_AVC.mp4	0.0	278.30979108810425	0.09993982315063477
76	217.8819580078125	fix_pre	0		28.0	74.0	2.5	/experiments/knapen_aot/videos/R_S_yt-MSdNCUWOp4o_4.mp4	0.0	278.4097309112549	0.23337912559509277
76	218.10710501670837	response	0	2		74.0	2.5	/experiments/knapen_aot/videos/R_S_yt-MSdNCUWOp4o_4.mp4	0.0	278.63487792015076	
76	218.1153371334076	movie	1		301.0	74.0	2.5	/experiments/knapen_aot/videos/R_S_yt-MSdNCUWOp4o_4.mp4	0.0	278.64311003685	2.5083298683166504
76	220.62366700172424	fix_post	2		12.0	74.0	2.5	/experiments/knapen_aot/videos/R_S_yt-MSdNCUWOp4o_4.mp4	0.0	281.1514399051666	0.09998607635498047
77	220.72365307807922	fix_pre	0		35.0	75.0	2.5	blank	1.0	281.2514259815216	0.29160094261169434
77	221.00719904899597	response	0	2		75.0	2.5	blank	1.0	281.53497195243835	
77	221.01525402069092	movie	1		301.0	75.0	2.5	blank	1.0	281.5430269241333	2.508316993713379
77	223.5235710144043	fix_post	2		12.0	75.0	2.5	blank	1.0	284.0513439178467	0.10012507438659668
78	223.6236960887909	fix_pre	0		38.0	76.0	2.5	/experiments/knapen_aot/videos/R_S_ILSVRC2015_train_00324002.mp4	0.0	284.1514689922333	0.316972017288208
78	223.9320900440216	response	0	2		76.0	2.5	/experiments/knapen_aot/videos/R_S_ILSVRC2015_train_00324002.mp4	0.0	284.459862947464	
78	223.9406681060791	movie	1		299.0	76.0	2.5	/experiments/knapen_aot/videos/R_S_ILSVRC2015_train_00324002.mp4	0.0	284.4684410095215	2.5079898834228516
78	226.44865798950195	fix_post	2		12.0	76.0	2.5	/experiments/knapen_aot/videos/R_S_ILSVRC2015_train_00324002.mp4	0.0	286.97643089294434	0.0999901294708252
79	226.54864811897278	fix_pre	0		28.0	77.0	2.5	/experiments/knapen_aot/videos/R_S_yt-PK-Eip9wFr0_24.mp4	0.0	287.07642102241516	0.2332899570465088
79	226.77382111549377	response	0	2		77.0	2.5	/experiments/knapen_aot/videos/R_S_yt-PK-Eip9wFr0_24.mp4	0.0	287.30159401893616	
79	226.7819380760193	movie	1		301.0	77.0	2.5	/experiments/knapen_aot/videos/R_S_yt-PK-Eip9wFr0_24.mp4	0.0	287.30971097946167	2.508291006088257
79	229.29022908210754	fix_post	2		12.0	77.0	2.5	/experiments/knapen_aot/videos/R_S_yt-PK-Eip9wFr0_24.mp4	0.0	289.8180019855499	0.10009503364562988
80	229.39032411575317	fix_pre	0		29.0	78.0	2.5	/experiments/knapen_aot/videos/R_S_yt-lazG9z4VQAw_99.mp4	0.0	289.91809701919556	0.24166488647460938
80	229.62374711036682	response	0	2		78.0	2.5	/experiments/knapen_aot/videos/R_S_yt-lazG9z4VQAw_99.mp4	0.0	290.1515200138092	
80	229.63198900222778	movie	1		301.0	78.0	2.5	/experiments/knapen_aot/videos/R_S_yt-lazG9z4VQAw_99.mp4	0.0	290.15976190567017	2.508305072784424
80	232.1402940750122	fix_post	2		12.0	78.0	2.5	/experiments/knapen_aot/videos/R_S_yt-lazG9z4VQAw_99.mp4	0.0	292.6680669784546	0.0999910831451416
81	232.24028515815735	fix_pre	0		28.0	79.0	2.5	/experiments/knapen_aot/videos/R_S_yt-J1dw4AznwmQ_7.mp4	0.0	292.76805806159973	0.23333191871643066
81	232.46544313430786	response	0	2		79.0	2.5	/experiments/knapen_aot/videos/R_S_yt-J1dw4AznwmQ_7.mp4	0.0	292.99321603775024	
81	232.47361707687378	movie	1		301.0	79.0	2.5	/experiments/knapen_aot/videos/R_S_yt-J1dw4AznwmQ_7.mp4	0.0	293.00138998031616	2.5083110332489014
81	234.98192811012268	fix_post	2		12.0	79.0	2.5	/experiments/knapen_aot/videos/R_S_yt-J1dw4AznwmQ_7.mp4	0.0	295.50970101356506	0.10003185272216797
82	235.08195996284485	fix_pre	0		52.0	80.0	2.5	/experiments/knapen_aot/videos/S_yt-0buqUbXVTn8_48.mp4	0.0	295.60973286628723	0.433333158493042
82	235.5070641040802	response	0	2		80.0	2.5	/experiments/knapen_aot/videos/S_yt-0buqUbXVTn8_48.mp4	0.0	296.0348370075226	
82	235.5152931213379	movie	1		301.0	80.0	2.5	/experiments/knapen_aot/videos/S_yt-0buqUbXVTn8_48.mp4	0.0	296.0430660247803	2.508283853530884
82	238.02357697486877	fix_post	2		12.0	80.0	2.5	/experiments/knapen_aot/videos/S_yt-0buqUbXVTn8_48.mp4	0.0	298.55134987831116	0.10005402565002441
83	238.1236310005188	fix_pre	0		51.0	81.0	2.5	/experiments/knapen_aot/videos/R_S_yt-AbJBxqEYoMg_27.mp4	0.0	298.6514039039612	0.42499399185180664
83	238.54037809371948	response	0	2		81.0	2.5	/experiments/knapen_aot/videos/R_S_yt-AbJBxqEYoMg_27.mp4	0.0	299.06815099716187	
83	238.5486249923706	movie	1		301.0	81.0	2.5	/experiments/knapen_aot/videos/R_S_yt-AbJBxqEYoMg_27.mp4	0.0	299.076397895813	2.5082881450653076
83	241.0569131374359	fix_post	2		12.0	81.0	2.5	/experiments/knapen_aot/videos/R_S_yt-AbJBxqEYoMg_27.mp4	0.0	301.5846860408783	0.09999394416809082
84	241.156907081604	fix_pre	0		43.0	82.0	2.5	blank	1.0	301.6846799850464	0.358335018157959
84	241.507178068161	response	0	2		82.0	2.5	blank	1.0	302.0349509716034	
84	241.51524209976196	movie	1		301.0	82.0	2.5	blank	1.0	302.04301500320435	2.508599042892456
84	244.02384114265442	fix_post	2		12.0	82.0	2.5	blank	1.0	304.5516140460968	0.09975481033325195
85	244.12359595298767	fix_pre	0		46.0	83.0	2.5	/experiments/knapen_aot/videos/S_flickr-southeasternstar-3464778323_10.mp4	0.0	304.65136885643005	0.3832881450653076
85	244.49871516227722	response	0	2		83.0	2.5	/experiments/knapen_aot/videos/S_flickr-southeasternstar-3464778323_10.mp4	0.0	305.0264880657196	
85	244.50688409805298	movie	1		301.0	83.0	2.5	/experiments/knapen_aot/videos/S_flickr-southeasternstar-3464778323_10.mp4	0.0	305.03465700149536	2.5084030628204346
85	247.0152871608734	fix_post	2		12.0	83.0	2.5	/experiments/knapen_aot/videos/S_flickr-southeasternstar-3464778323_10.mp4	0.0	307.5430600643158	0.09990191459655762
87	247.11518907546997	stim	0		145.0					307.64296197891235	1.2084169387817383
87	248.31882905960083	response	0	space						308.8466019630432	
