trial_nr	onset	event_type	phase	response	nr_frames	movie_index	movie_duration	movie_file	blank	onset_abs	duration
0	0.15828394889831543	stim	0		55.0					54.72356200218201	0.4580569267272949
0	0.6081478595733643	response	0	space						55.173425912857056	
1	0.6163408756256104	stim	0		121.0					55.1816189289093	1.00832200050354
1	1.3914248943328857	response	0	space						55.95670294761658	
1	1.6246628761291504	stim	1		120.0					56.18994092941284	0.9998910427093506
1	1.899850845336914	response	1	space						56.465128898620605	
1	2.5496318340301514	response	1	space						57.11490988731384	
2	2.624553918838501	fix_pre	0		47.0	0.0	2.5	/experiments/knapen_aot/videos/S_production_ID_4820868.mp4	0.0	57.18983197212219	0.391726016998291
2	3.0080039501190186	response	0	space		0.0	2.5	/experiments/knapen_aot/videos/S_production_ID_4820868.mp4	0.0	57.57328200340271	
2	3.016279935836792	movie	1		165.0	0.0	2.5	/experiments/knapen_aot/videos/S_production_ID_4820868.mp4	0.0	57.58155798912048	2.5083329677581787
2	5.524612903594971	fix_post	2		12.0	0.0	2.5	/experiments/knapen_aot/videos/S_production_ID_4820868.mp4	0.0	60.08989095687866	0.09999394416809082
3	5.6246068477630615	fix_pre	0		36.0	1.0	2.5	/experiments/knapen_aot/videos/R_S_ahJft-G235A_122.mp4	0.0	60.18988490104675	0.30416202545166016
3	5.9207658767700195	response	0	2		1.0	2.5	/experiments/knapen_aot/videos/R_S_ahJft-G235A_122.mp4	0.0	60.48604393005371	
3	5.928768873214722	movie	1		297.0	1.0	2.5	/experiments/knapen_aot/videos/R_S_ahJft-G235A_122.mp4	0.0	60.49404692649841	2.5041730403900146
3	8.432941913604736	fix_post	2		12.0	1.0	2.5	/experiments/knapen_aot/videos/R_S_ahJft-G235A_122.mp4	0.0	62.99821996688843	0.10001087188720703
4	8.532952785491943	fix_pre	0		37.0	2.0	2.5	/experiments/knapen_aot/videos/S_yt-KLInd-KrK_w_19.mp4	0.0	63.098230838775635	0.308319091796875
4	8.833038806915283	response	0	2		2.0	2.5	/experiments/knapen_aot/videos/S_yt-KLInd-KrK_w_19.mp4	0.0	63.398316860198975	
4	8.841271877288818	movie	1		298.0	2.0	2.5	/experiments/knapen_aot/videos/S_yt-KLInd-KrK_w_19.mp4	0.0	63.40654993057251	2.5082590579986572
4	11.349530935287476	fix_post	2		12.0	2.0	2.5	/experiments/knapen_aot/videos/S_yt-KLInd-KrK_w_19.mp4	0.0	65.91480898857117	0.10003495216369629
5	11.449565887451172	fix_pre	0		37.0	3.0	2.5	/experiments/knapen_aot/videos/R_S_yt-YyKEeu2gLrI_158.mp4	0.0	66.01484394073486	0.3083479404449463
5	11.749742984771729	response	0	2		3.0	2.5	/experiments/knapen_aot/videos/R_S_yt-YyKEeu2gLrI_158.mp4	0.0	66.31502103805542	
5	11.757913827896118	movie	1		301.0	3.0	2.5	/experiments/knapen_aot/videos/R_S_yt-YyKEeu2gLrI_158.mp4	0.0	66.32319188117981	2.5083470344543457
5	14.266260862350464	fix_post	2		12.0	3.0	2.5	/experiments/knapen_aot/videos/R_S_yt-YyKEeu2gLrI_158.mp4	0.0	68.83153891563416	0.0999910831451416
6	14.366251945495605	fix_pre	0		15.0	4.0	2.5	/experiments/knapen_aot/videos/R_S_8J_zE6r82MY_71.mp4	0.0	68.9315299987793	0.12497591972351074
6	14.483014822006226	response	0	2		4.0	2.5	/experiments/knapen_aot/videos/R_S_8J_zE6r82MY_71.mp4	0.0	69.04829287528992	
6	14.491227865219116	movie	1		301.0	4.0	2.5	/experiments/knapen_aot/videos/R_S_8J_zE6r82MY_71.mp4	0.0	69.05650591850281	2.5083510875701904
6	16.999578952789307	fix_post	2		12.0	4.0	2.5	/experiments/knapen_aot/videos/R_S_8J_zE6r82MY_71.mp4	0.0	71.564857006073	0.1001138687133789
7	17.099692821502686	fix_pre	0		41.0	5.0	2.5	blank	1.0	71.66497087478638	0.34148311614990234
7	17.43300485610962	response	0	2		5.0	2.5	blank	1.0	71.99828290939331	
7	17.441175937652588	movie	1		301.0	5.0	2.5	blank	1.0	72.00645399093628	2.508409023284912
7	19.9495849609375	fix_post	2		12.0	5.0	2.5	blank	1.0	74.51486301422119	0.09999203681945801
8	20.049576997756958	fix_pre	0		40.0	6.0	2.5	/experiments/knapen_aot/videos/R_S_yt-31yLemkW42Q_111.mp4	0.0	74.61485505104065	0.3332560062408447
8	20.37470293045044	response	0	2		6.0	2.5	/experiments/knapen_aot/videos/R_S_yt-31yLemkW42Q_111.mp4	0.0	74.93998098373413	
8	20.382833003997803	movie	1		301.0	6.0	2.5	/experiments/knapen_aot/videos/R_S_yt-31yLemkW42Q_111.mp4	0.0	74.9481110572815	2.5083467960357666
8	22.89117980003357	fix_post	2		12.0	6.0	2.5	/experiments/knapen_aot/videos/R_S_yt-31yLemkW42Q_111.mp4	0.0	77.45645785331726	0.10002708435058594
9	22.991206884384155	fix_pre	0		24.0	7.0	2.5	/experiments/knapen_aot/videos/R_S_yt-zpoIiHGRm5k_296.mp4	0.0	77.55648493766785	0.20001912117004395
9	23.18300986289978	response	0	2		7.0	2.5	/experiments/knapen_aot/videos/R_S_yt-zpoIiHGRm5k_296.mp4	0.0	77.74828791618347	
9	23.1912260055542	movie	1		301.0	7.0	2.5	/experiments/knapen_aot/videos/R_S_yt-zpoIiHGRm5k_296.mp4	0.0	77.75650405883789	2.5083229541778564
9	25.699548959732056	fix_post	2		12.0	7.0	2.5	/experiments/knapen_aot/videos/R_S_yt-zpoIiHGRm5k_296.mp4	0.0	80.26482701301575	0.09998083114624023
10	25.799529790878296	fix_pre	0		43.0	8.0	2.5	/experiments/knapen_aot/videos/S_r4Npnob1vds_12.mp4	0.0	80.36480784416199	0.35836219787597656
10	26.14969491958618	response	0	2		8.0	2.5	/experiments/knapen_aot/videos/S_r4Npnob1vds_12.mp4	0.0	80.71497297286987	
10	26.157891988754272	movie	1		301.0	8.0	2.5	/experiments/knapen_aot/videos/S_r4Npnob1vds_12.mp4	0.0	80.72317004203796	2.5083179473876953
10	28.666209936141968	fix_post	2		12.0	8.0	2.5	/experiments/knapen_aot/videos/S_r4Npnob1vds_12.mp4	0.0	83.23148798942566	0.10003995895385742
11	28.766249895095825	fix_pre	0		24.0	9.0	2.5	/experiments/knapen_aot/videos/R_S_yt-dWF89kq2JIA_13.mp4	0.0	83.33152794837952	0.19994711875915527
11	28.957960844039917	response	0	2		9.0	2.5	/experiments/knapen_aot/videos/R_S_yt-dWF89kq2JIA_13.mp4	0.0	83.52323889732361	
11	28.96619701385498	movie	1		301.0	9.0	2.5	/experiments/knapen_aot/videos/R_S_yt-dWF89kq2JIA_13.mp4	0.0	83.53147506713867	2.5083069801330566
11	31.474503993988037	fix_post	2		12.0	9.0	2.5	/experiments/knapen_aot/videos/R_S_yt-dWF89kq2JIA_13.mp4	0.0	86.03978204727173	0.0999748706817627
12	31.5744788646698	fix_pre	0		59.0	10.0	2.5	/experiments/knapen_aot/videos/S_ILSVRC2015_train_00479002.mp4	0.0	86.13975691795349	0.4929509162902832
12	32.05795693397522	response	0	2		10.0	2.5	/experiments/knapen_aot/videos/S_ILSVRC2015_train_00479002.mp4	0.0	86.62323498725891	
12	32.06742978096008	movie	1		301.0	10.0	2.5	/experiments/knapen_aot/videos/S_ILSVRC2015_train_00479002.mp4	0.0	86.63270783424377	2.507054090499878
12	34.57448387145996	fix_post	2		12.0	10.0	2.5	/experiments/knapen_aot/videos/S_ILSVRC2015_train_00479002.mp4	0.0	89.13976192474365	0.09998297691345215
13	34.67446684837341	fix_pre	0		50.0	11.0	2.5	/experiments/knapen_aot/videos/S_yt-r4st6Mt4EE8_85.mp4	0.0	89.2397449016571	0.4166531562805176
13	35.082966804504395	response	0	2		11.0	2.5	/experiments/knapen_aot/videos/S_yt-r4st6Mt4EE8_85.mp4	0.0	89.64824485778809	
13	35.09112000465393	movie	1		301.0	11.0	2.5	/experiments/knapen_aot/videos/S_yt-r4st6Mt4EE8_85.mp4	0.0	89.65639805793762	2.5082879066467285
13	37.59940791130066	fix_post	2		12.0	11.0	2.5	/experiments/knapen_aot/videos/S_yt-r4st6Mt4EE8_85.mp4	0.0	92.16468596458435	0.10007596015930176
14	37.69948387145996	fix_pre	0		23.0	12.0	2.5	/experiments/knapen_aot/videos/S_yt-pbFpqAQJCJo_149.mp4	0.0	92.26476192474365	0.19157791137695312
14	37.882954835891724	response	0	2		12.0	2.5	/experiments/knapen_aot/videos/S_yt-pbFpqAQJCJo_149.mp4	0.0	92.44823288917542	
14	37.891061782836914	movie	1		301.0	12.0	2.5	/experiments/knapen_aot/videos/S_yt-pbFpqAQJCJo_149.mp4	0.0	92.4563398361206	2.5083281993865967
14	40.39938998222351	fix_post	2		12.0	12.0	2.5	/experiments/knapen_aot/videos/S_yt-pbFpqAQJCJo_149.mp4	0.0	94.9646680355072	0.10007190704345703
15	40.49946188926697	fix_pre	0		26.0	13.0	2.5	blank	1.0	95.06473994255066	0.21668291091918945
15	40.700498819351196	response	0	2		13.0	2.5	blank	1.0	95.26577687263489	
15	40.71614480018616	movie	1		301.0	13.0	2.5	blank	1.0	95.28142285346985	2.508327007293701
15	43.22447180747986	fix_post	2		12.0	13.0	2.5	blank	1.0	97.78974986076355	0.10001516342163086
16	43.32448697090149	fix_pre	0		27.0	14.0	2.5	/experiments/knapen_aot/videos/R_S_yt-5MyvZYFlc9g_125.mp4	0.0	97.88976502418518	0.22491097450256348
16	43.54120182991028	response	0	2		14.0	2.5	/experiments/knapen_aot/videos/R_S_yt-5MyvZYFlc9g_125.mp4	0.0	98.10647988319397	
16	43.54939794540405	movie	1		301.0	14.0	2.5	/experiments/knapen_aot/videos/R_S_yt-5MyvZYFlc9g_125.mp4	0.0	98.11467599868774	2.5083229541778564
16	46.05772089958191	fix_post	2		12.0	14.0	2.5	/experiments/knapen_aot/videos/R_S_yt-5MyvZYFlc9g_125.mp4	0.0	100.6229989528656	0.10011005401611328
17	46.15783095359802	fix_pre	0		30.0	15.0	2.5	/experiments/knapen_aot/videos/S_yt-SS7pSyb0_d0_32.mp4	0.0	100.72310900688171	0.24990105628967285
17	46.39962100982666	response	0	2		15.0	2.5	/experiments/knapen_aot/videos/S_yt-SS7pSyb0_d0_32.mp4	0.0	100.96489906311035	
17	46.407732009887695	movie	1		301.0	15.0	2.5	/experiments/knapen_aot/videos/S_yt-SS7pSyb0_d0_32.mp4	0.0	100.97301006317139	2.508340835571289
17	48.916072845458984	fix_post	2		12.0	15.0	2.5	/experiments/knapen_aot/videos/S_yt-SS7pSyb0_d0_32.mp4	0.0	103.48135089874268	0.1000680923461914
18	49.016140937805176	fix_pre	0		25.0	16.0	2.5	/experiments/knapen_aot/videos/S_yt-ph1AkIToO4E_46.mp4	0.0	103.58141899108887	0.20829987525939941
18	49.21620297431946	response	0	2		16.0	2.5	/experiments/knapen_aot/videos/S_yt-ph1AkIToO4E_46.mp4	0.0	103.78148102760315	
18	49.224440813064575	movie	1		301.0	16.0	2.5	/experiments/knapen_aot/videos/S_yt-ph1AkIToO4E_46.mp4	0.0	103.78971886634827	2.508355140686035
18	51.73279595375061	fix_post	2		11.0	16.0	2.5	/experiments/knapen_aot/videos/S_yt-ph1AkIToO4E_46.mp4	0.0	106.2980740070343	0.09995794296264648
19	51.83275389671326	fix_pre	0		57.0	17.0	2.5	/experiments/knapen_aot/videos/R_S_yt-82O1uT8dmv8_12.mp4	0.0	106.39803194999695	0.4749929904937744
19	52.29955983161926	response	0	2		17.0	2.5	/experiments/knapen_aot/videos/R_S_yt-82O1uT8dmv8_12.mp4	0.0	106.86483788490295	
19	52.30774688720703	movie	1		301.0	17.0	2.5	/experiments/knapen_aot/videos/R_S_yt-82O1uT8dmv8_12.mp4	0.0	106.87302494049072	2.508323907852173
19	54.816070795059204	fix_post	2		12.0	17.0	2.5	/experiments/knapen_aot/videos/R_S_yt-82O1uT8dmv8_12.mp4	0.0	109.3813488483429	0.10004806518554688
20	54.91611886024475	fix_pre	0		29.0	18.0	2.5	/experiments/knapen_aot/videos/S_yt-IyxCMODHSSE_29.mp4	0.0	109.48139691352844	0.2416081428527832
20	55.14954090118408	response	0	2		18.0	2.5	/experiments/knapen_aot/videos/S_yt-IyxCMODHSSE_29.mp4	0.0	109.71481895446777	
20	55.157727003097534	movie	1		301.0	18.0	2.5	/experiments/knapen_aot/videos/S_yt-IyxCMODHSSE_29.mp4	0.0	109.72300505638123	2.508316993713379
20	57.66604399681091	fix_post	2		12.0	18.0	2.5	/experiments/knapen_aot/videos/S_yt-IyxCMODHSSE_29.mp4	0.0	112.2313220500946	0.10001897811889648
21	57.76606297492981	fix_pre	0		52.0	19.0	2.5	/experiments/knapen_aot/videos/R_S_yt-ujdFTAUE8rc_34.mp4	0.0	112.3313410282135	0.433276891708374
21	58.19116687774658	response	0	2		19.0	2.5	/experiments/knapen_aot/videos/R_S_yt-ujdFTAUE8rc_34.mp4	0.0	112.75644493103027	
21	58.199339866638184	movie	1		301.0	19.0	2.5	/experiments/knapen_aot/videos/R_S_yt-ujdFTAUE8rc_34.mp4	0.0	112.76461791992188	2.508389949798584
21	60.70772981643677	fix_post	2		12.0	19.0	2.5	/experiments/knapen_aot/videos/R_S_yt-ujdFTAUE8rc_34.mp4	0.0	115.27300786972046	0.09999799728393555
22	60.8077278137207	fix_pre	0		30.0	20.0	2.5	blank	1.0	115.3730058670044	0.249891996383667
22	61.04953694343567	response	0	2		20.0	2.5	blank	1.0	115.61481499671936	
22	61.05761981010437	movie	1		301.0	20.0	2.5	blank	1.0	115.62289786338806	2.508364200592041
22	63.56598401069641	fix_post	2		12.0	20.0	2.5	blank	1.0	118.1312620639801	0.10006380081176758
23	63.66604781150818	fix_pre	0		31.0	21.0	2.5	/experiments/knapen_aot/videos/S_yt-t23g0U_hAgg_32.mp4	0.0	118.23132586479187	0.2583041191101074
23	63.91620683670044	response	0	2		21.0	2.5	/experiments/knapen_aot/videos/S_yt-t23g0U_hAgg_32.mp4	0.0	118.48148488998413	
23	63.924351930618286	movie	1		300.0	21.0	2.5	/experiments/knapen_aot/videos/S_yt-t23g0U_hAgg_32.mp4	0.0	118.48962998390198	2.508384943008423
23	66.43273687362671	fix_post	2		12.0	21.0	2.5	/experiments/knapen_aot/videos/S_yt-t23g0U_hAgg_32.mp4	0.0	120.9980149269104	0.09992599487304688
24	66.53266286849976	fix_pre	0		39.0	22.0	2.5	/experiments/knapen_aot/videos/R_S_yt-i4kSCZ8rNC0_11.mp4	0.0	121.09794092178345	0.32610392570495605
24	66.84953284263611	response	0	2		22.0	2.5	/experiments/knapen_aot/videos/R_S_yt-i4kSCZ8rNC0_11.mp4	0.0	121.4148108959198	
24	66.85876679420471	movie	1		298.0	22.0	2.5	/experiments/knapen_aot/videos/R_S_yt-i4kSCZ8rNC0_11.mp4	0.0	121.4240448474884	2.5072450637817383
24	69.36601185798645	fix_post	2		12.0	22.0	2.5	/experiments/knapen_aot/videos/R_S_yt-i4kSCZ8rNC0_11.mp4	0.0	123.93128991127014	0.10001111030578613
25	69.46602296829224	fix_pre	0		51.0	23.0	2.5	/experiments/knapen_aot/videos/R_S_ILSVRC2015_train_00001009.mp4	0.0	124.03130102157593	0.42499494552612305
25	69.88281893730164	response	0	2		23.0	2.5	/experiments/knapen_aot/videos/R_S_ILSVRC2015_train_00001009.mp4	0.0	124.44809699058533	
25	69.89101791381836	movie	1		301.0	23.0	2.5	/experiments/knapen_aot/videos/R_S_ILSVRC2015_train_00001009.mp4	0.0	124.45629596710205	2.5082221031188965
25	72.39924001693726	fix_post	2		12.0	23.0	2.5	/experiments/knapen_aot/videos/R_S_ILSVRC2015_train_00001009.mp4	0.0	126.96451807022095	0.1001138687133789
26	72.49935388565063	fix_pre	0		15.0	24.0	2.5	/experiments/knapen_aot/videos/R_S_comp_C003_C003_PS_v01_SDR_PS_20180925_SDR_2K_AVC.mp4	0.0	127.06463193893433	0.12493395805358887
26	72.61604189872742	response	0	2		24.0	2.5	/experiments/knapen_aot/videos/R_S_comp_C003_C003_PS_v01_SDR_PS_20180925_SDR_2K_AVC.mp4	0.0	127.18131995201111	
26	72.62428784370422	movie	1		162.0	24.0	2.5	/experiments/knapen_aot/videos/R_S_comp_C003_C003_PS_v01_SDR_PS_20180925_SDR_2K_AVC.mp4	0.0	127.18956589698792	2.5083930492401123
26	75.13268089294434	fix_post	2		12.0	24.0	2.5	/experiments/knapen_aot/videos/R_S_comp_C003_C003_PS_v01_SDR_PS_20180925_SDR_2K_AVC.mp4	0.0	129.69795894622803	0.09998011589050293
27	75.23266100883484	fix_pre	0		15.0	25.0	2.5	/experiments/knapen_aot/videos/S_yt-fQGoTMausn8_88.mp4	0.0	129.79793906211853	0.1260240077972412
27	75.34938883781433	response	0	2		25.0	2.5	/experiments/knapen_aot/videos/S_yt-fQGoTMausn8_88.mp4	0.0	129.91466689109802	
27	75.35868501663208	movie	1		301.0	25.0	2.5	/experiments/knapen_aot/videos/S_yt-fQGoTMausn8_88.mp4	0.0	129.92396306991577	2.5073068141937256
27	77.8659918308258	fix_post	2		12.0	25.0	2.5	/experiments/knapen_aot/videos/S_yt-fQGoTMausn8_88.mp4	0.0	132.4312698841095	0.10000801086425781
28	77.96599984169006	fix_pre	0		15.0	26.0	2.5	/experiments/knapen_aot/videos/S_wc-7ugQ0V4lxYkJ_131.mp4	0.0	132.53127789497375	0.12498712539672852
28	78.08275198936462	response	0	2		26.0	2.5	/experiments/knapen_aot/videos/S_wc-7ugQ0V4lxYkJ_131.mp4	0.0	132.64803004264832	
28	78.09098696708679	movie	1		301.0	26.0	2.5	/experiments/knapen_aot/videos/S_wc-7ugQ0V4lxYkJ_131.mp4	0.0	132.65626502037048	2.5083189010620117
28	80.5993058681488	fix_post	2		12.0	26.0	2.5	/experiments/knapen_aot/videos/S_wc-7ugQ0V4lxYkJ_131.mp4	0.0	135.1645839214325	0.09991192817687988
29	80.69921779632568	fix_pre	0		67.0	27.0	2.5	blank	1.0	135.26449584960938	0.5584430694580078
29	81.24934887886047	response	0	2		27.0	2.5	blank	1.0	135.81462693214417	
29	81.25766086578369	movie	1		301.0	27.0	2.5	blank	1.0	135.82293891906738	2.5082719326019287
29	83.76593279838562	fix_post	2		12.0	27.0	2.5	blank	1.0	138.3312108516693	0.1000831127166748
30	83.8660159111023	fix_pre	0		40.0	28.0	2.5	/experiments/knapen_aot/videos/R_S_yt--Ou506YF3mY_106.mp4	0.0	138.431293964386	0.33324694633483887
30	84.19108295440674	response	0	2		28.0	2.5	/experiments/knapen_aot/videos/R_S_yt--Ou506YF3mY_106.mp4	0.0	138.75636100769043	
30	84.19926285743713	movie	1		301.0	28.0	2.5	/experiments/knapen_aot/videos/R_S_yt--Ou506YF3mY_106.mp4	0.0	138.76454091072083	2.508357048034668
30	86.7076199054718	fix_post	2		12.0	28.0	2.5	/experiments/knapen_aot/videos/R_S_yt--Ou506YF3mY_106.mp4	0.0	141.2728979587555	0.10001492500305176
31	86.80763483047485	fix_pre	0		26.0	29.0	2.5	/experiments/knapen_aot/videos/S_S005_C015_SDR_2K_AVC.mp4	0.0	141.37291288375854	0.2176210880279541
31	87.01609182357788	response	0	2		29.0	2.5	/experiments/knapen_aot/videos/S_S005_C015_SDR_2K_AVC.mp4	0.0	141.58136987686157	
31	87.02525591850281	movie	1		168.0	29.0	2.5	/experiments/knapen_aot/videos/S_S005_C015_SDR_2K_AVC.mp4	0.0	141.5905339717865	2.5072970390319824
31	89.53255295753479	fix_post	2		12.0	29.0	2.5	/experiments/knapen_aot/videos/S_S005_C015_SDR_2K_AVC.mp4	0.0	144.09783101081848	0.10004401206970215
32	89.63259696960449	fix_pre	0		36.0	30.0	2.5	/experiments/knapen_aot/videos/R_S_pexels-cottonbro-10640532.mp4	0.0	144.19787502288818	0.29993581771850586
32	89.92435598373413	response	0	2		30.0	2.5	/experiments/knapen_aot/videos/R_S_pexels-cottonbro-10640532.mp4	0.0	144.48963403701782	
32	89.932532787323	movie	1		209.0	30.0	2.5	/experiments/knapen_aot/videos/R_S_pexels-cottonbro-10640532.mp4	0.0	144.4978108406067	2.508439064025879
32	92.44097185134888	fix_post	2		12.0	30.0	2.5	/experiments/knapen_aot/videos/R_S_pexels-cottonbro-10640532.mp4	0.0	147.00624990463257	0.09995508193969727
33	92.54092693328857	fix_pre	0		20.0	31.0	2.5	/experiments/knapen_aot/videos/S_yt-fQGoTMausn8_88.mp4	0.0	147.10620498657227	0.16663002967834473
33	92.69939184188843	response	0	2		31.0	2.5	/experiments/knapen_aot/videos/S_yt-fQGoTMausn8_88.mp4	0.0	147.26466989517212	
33	92.70755696296692	movie	1		301.0	31.0	2.5	/experiments/knapen_aot/videos/S_yt-fQGoTMausn8_88.mp4	0.0	147.2728350162506	2.508323907852173
33	95.21588087081909	fix_post	2		12.0	31.0	2.5	/experiments/knapen_aot/videos/S_yt-fQGoTMausn8_88.mp4	0.0	149.78115892410278	0.10002899169921875
34	95.31590986251831	fix_pre	0		18.0	32.0	2.5	/experiments/knapen_aot/videos/S_yt-Zn0YwrsCFOQ_44.mp4	0.0	149.881187915802	0.14999103546142578
34	95.4577488899231	response	0	2		32.0	2.5	/experiments/knapen_aot/videos/S_yt-Zn0YwrsCFOQ_44.mp4	0.0	150.0230269432068	
34	95.46590089797974	movie	1		301.0	32.0	2.5	/experiments/knapen_aot/videos/S_yt-Zn0YwrsCFOQ_44.mp4	0.0	150.03117895126343	2.50833797454834
34	97.97423887252808	fix_post	2		12.0	32.0	2.5	/experiments/knapen_aot/videos/S_yt-Zn0YwrsCFOQ_44.mp4	0.0	152.53951692581177	0.09999203681945801
35	98.07423090934753	fix_pre	0		46.0	33.0	2.5	/experiments/knapen_aot/videos/R_S_yt_R-SwXr0ScjD9o_20.mp4	0.0	152.63950896263123	0.383342981338501
35	98.44947481155396	response	0	2		33.0	2.5	/experiments/knapen_aot/videos/R_S_yt_R-SwXr0ScjD9o_20.mp4	0.0	153.01475286483765	
35	98.45757389068604	movie	1		300.0	33.0	2.5	/experiments/knapen_aot/videos/R_S_yt_R-SwXr0ScjD9o_20.mp4	0.0	153.02285194396973	2.508219003677368
35	100.9657928943634	fix_post	2		12.0	33.0	2.5	/experiments/knapen_aot/videos/R_S_yt_R-SwXr0ScjD9o_20.mp4	0.0	155.5310709476471	0.10012412071228027
36	101.06591701507568	fix_pre	0		31.0	34.0	2.5	/experiments/knapen_aot/videos/S_yt-jy96-k8drRE_1.mp4	0.0	155.63119506835938	0.25824999809265137
36	101.30849599838257	response	0	2		34.0	2.5	/experiments/knapen_aot/videos/S_yt-jy96-k8drRE_1.mp4	0.0	155.87377405166626	
36	101.32416701316833	movie	1		301.0	34.0	2.5	/experiments/knapen_aot/videos/S_yt-jy96-k8drRE_1.mp4	0.0	155.88944506645203	2.50836181640625
36	103.83252882957458	fix_post	2		12.0	34.0	2.5	/experiments/knapen_aot/videos/S_yt-jy96-k8drRE_1.mp4	0.0	158.39780688285828	0.09993314743041992
37	103.932461977005	fix_pre	0		29.0	35.0	2.5	blank	1.0	158.4977400302887	0.24171185493469238
37	104.16602778434753	response	0	2		35.0	2.5	blank	1.0	158.73130583763123	
37	104.1741738319397	movie	1		301.0	35.0	2.5	blank	1.0	158.7394518852234	2.508280038833618
37	106.68245387077332	fix_post	2		12.0	35.0	2.5	blank	1.0	161.247731924057	0.10006499290466309
38	106.78251886367798	fix_pre	0		36.0	36.0	2.5	/experiments/knapen_aot/videos/S_yt-YykKZWKmLnQ_386.mp4	0.0	161.34779691696167	0.29994702339172363
38	107.0742998123169	response	0	2		36.0	2.5	/experiments/knapen_aot/videos/S_yt-YykKZWKmLnQ_386.mp4	0.0	161.6395778656006	
38	107.0824658870697	movie	1		301.0	36.0	2.5	/experiments/knapen_aot/videos/S_yt-YykKZWKmLnQ_386.mp4	0.0	161.6477439403534	2.5084080696105957
38	109.5908739566803	fix_post	2		12.0	36.0	2.5	/experiments/knapen_aot/videos/S_yt-YykKZWKmLnQ_386.mp4	0.0	164.156152009964	0.09998202323913574
39	109.69085597991943	fix_pre	0		48.0	37.0	2.5	/experiments/knapen_aot/videos/S_yt-Xs7TCzdnUJQ_79.mp4	0.0	164.25613403320312	0.3999788761138916
39	110.08278584480286	response	0	2		37.0	2.5	/experiments/knapen_aot/videos/S_yt-Xs7TCzdnUJQ_79.mp4	0.0	164.64806389808655	
39	110.09083485603333	movie	1		301.0	37.0	2.5	/experiments/knapen_aot/videos/S_yt-Xs7TCzdnUJQ_79.mp4	0.0	164.65611290931702	2.5083611011505127
39	112.59919595718384	fix_post	2		12.0	37.0	2.5	/experiments/knapen_aot/videos/S_yt-Xs7TCzdnUJQ_79.mp4	0.0	167.16447401046753	0.1000359058380127
40	112.69923186302185	fix_pre	0		52.0	38.0	2.5	/experiments/knapen_aot/videos/R_S_yt-fymgyhmYnMI_76.mp4	0.0	167.26450991630554	0.4332849979400635
40	113.12437987327576	response	0	2		38.0	2.5	/experiments/knapen_aot/videos/R_S_yt-fymgyhmYnMI_76.mp4	0.0	167.68965792655945	
40	113.13251686096191	movie	1		300.0	38.0	2.5	/experiments/knapen_aot/videos/R_S_yt-fymgyhmYnMI_76.mp4	0.0	167.6977949142456	2.508273124694824
40	115.64078998565674	fix_post	2		12.0	38.0	2.5	/experiments/knapen_aot/videos/R_S_yt-fymgyhmYnMI_76.mp4	0.0	170.20606803894043	0.1000978946685791
41	115.74088788032532	fix_pre	0		26.0	39.0	2.5	/experiments/knapen_aot/videos/S_pexels-mart-production-7698911.mp4	0.0	170.306165933609	0.21664905548095703
41	115.94927382469177	response	0	2		39.0	2.5	/experiments/knapen_aot/videos/S_pexels-mart-production-7698911.mp4	0.0	170.51455187797546	
41	115.95753693580627	movie	1		194.0	39.0	2.5	/experiments/knapen_aot/videos/S_pexels-mart-production-7698911.mp4	0.0	170.52281498908997	2.508249044418335
41	118.46578598022461	fix_post	2		12.0	39.0	2.5	/experiments/knapen_aot/videos/S_pexels-mart-production-7698911.mp4	0.0	173.0310640335083	0.10000085830688477
42	118.5657868385315	fix_pre	0		18.0	40.0	2.5	/experiments/knapen_aot/videos/R_S_pexels-mart-production-7277934.mp4	0.0	173.13106489181519	0.15003705024719238
42	118.70758199691772	response	0	2		40.0	2.5	/experiments/knapen_aot/videos/R_S_pexels-mart-production-7277934.mp4	0.0	173.27286005020142	
42	118.71582388877869	movie	1		165.0	40.0	2.5	/experiments/knapen_aot/videos/R_S_pexels-mart-production-7277934.mp4	0.0	173.28110194206238	2.5083749294281006
42	121.22419881820679	fix_post	2		12.0	40.0	2.5	/experiments/knapen_aot/videos/R_S_pexels-mart-production-7277934.mp4	0.0	175.78947687149048	0.09998798370361328
43	121.3241868019104	fix_pre	0		16.0	41.0	2.5	/experiments/knapen_aot/videos/S_yt-tOOaOzYvtKE_79.mp4	0.0	175.8894648551941	0.13328313827514648
43	121.4492700099945	response	0	2		41.0	2.5	/experiments/knapen_aot/videos/S_yt-tOOaOzYvtKE_79.mp4	0.0	176.0145480632782	
43	121.45746994018555	movie	1		301.0	41.0	2.5	/experiments/knapen_aot/videos/S_yt-tOOaOzYvtKE_79.mp4	0.0	176.02274799346924	2.508359909057617
43	123.96582984924316	fix_post	2		12.0	41.0	2.5	/experiments/knapen_aot/videos/S_yt-tOOaOzYvtKE_79.mp4	0.0	178.53110790252686	0.10000014305114746
44	124.06582999229431	fix_pre	0		101.0	42.0	2.5	blank	1.0	178.631108045578	0.8416478633880615
44	124.8992178440094	response	0	2		42.0	2.5	blank	1.0	179.4644958972931	
44	124.90747785568237	movie	1		301.0	42.0	2.5	blank	1.0	179.47275590896606	2.5083200931549072
44	127.41579794883728	fix_post	2		12.0	42.0	2.5	blank	1.0	181.98107600212097	0.09991097450256348
45	127.51570892333984	fix_pre	0		70.0	43.0	2.5	/experiments/knapen_aot/videos/R_S_Pexels_Videos_2795736.mp4	0.0	182.08098697662354	0.5833749771118164
45	128.08327984809875	response	0	2		43.0	2.5	/experiments/knapen_aot/videos/R_S_Pexels_Videos_2795736.mp4	0.0	182.64855790138245	
45	128.09908390045166	movie	1		184.0	43.0	2.5	/experiments/knapen_aot/videos/R_S_Pexels_Videos_2795736.mp4	0.0	182.66436195373535	2.508378028869629
45	130.6074619293213	fix_post	2		12.0	43.0	2.5	/experiments/knapen_aot/videos/R_S_Pexels_Videos_2795736.mp4	0.0	185.17273998260498	0.10002803802490234
46	130.7074899673462	fix_pre	0		36.0	44.0	2.5	/experiments/knapen_aot/videos/S_yt-IT741UWKVzg_34.mp4	0.0	185.27276802062988	0.2999238967895508
46	130.99927687644958	response	0	2		44.0	2.5	/experiments/knapen_aot/videos/S_yt-IT741UWKVzg_34.mp4	0.0	185.56455492973328	
46	131.00741386413574	movie	1		301.0	44.0	2.5	/experiments/knapen_aot/videos/S_yt-IT741UWKVzg_34.mp4	0.0	185.57269191741943	2.5083770751953125
46	133.51579093933105	fix_post	2		12.0	44.0	2.5	/experiments/knapen_aot/videos/S_yt-IT741UWKVzg_34.mp4	0.0	188.08106899261475	0.09989786148071289
47	133.61568880081177	fix_pre	0		28.0	45.0	2.5	/experiments/knapen_aot/videos/R_S_comp_LA_A009_C009_PSNK_v02_SDR_PS_FINAL_20180709_SDR_2K_AVC.mp4	0.0	188.18096685409546	0.23340606689453125
47	133.83329892158508	response	0	2		45.0	2.5	/experiments/knapen_aot/videos/R_S_comp_LA_A009_C009_PSNK_v02_SDR_PS_FINAL_20180709_SDR_2K_AVC.mp4	0.0	188.39857697486877	
47	133.8490948677063	movie	1		190.0	45.0	2.5	/experiments/knapen_aot/videos/R_S_comp_LA_A009_C009_PSNK_v02_SDR_PS_FINAL_20180709_SDR_2K_AVC.mp4	0.0	188.41437292099	2.508305072784424
47	136.35739994049072	fix_post	2		12.0	45.0	2.5	/experiments/knapen_aot/videos/R_S_comp_LA_A009_C009_PSNK_v02_SDR_PS_FINAL_20180709_SDR_2K_AVC.mp4	0.0	190.9226779937744	0.09993505477905273
48	136.45733499526978	fix_pre	0		10.0	46.0	2.5	/experiments/knapen_aot/videos/R_S_yt-Z4W6l0eZza4_6.mp4	0.0	191.02261304855347	0.08339691162109375
48	136.53253483772278	response	0	2		46.0	2.5	/experiments/knapen_aot/videos/R_S_yt-Z4W6l0eZza4_6.mp4	0.0	191.09781289100647	
48	136.54073190689087	movie	1		301.0	46.0	2.5	/experiments/knapen_aot/videos/R_S_yt-Z4W6l0eZza4_6.mp4	0.0	191.10600996017456	2.5083250999450684
48	139.04905700683594	fix_post	2		12.0	46.0	2.5	/experiments/knapen_aot/videos/R_S_yt-Z4W6l0eZza4_6.mp4	0.0	193.61433506011963	0.09996891021728516
49	139.14902591705322	fix_pre	0		10.0	47.0	2.5	blank	1.0	193.7143039703369	0.08407902717590332
49	139.2166199684143	response	0	2		47.0	2.5	blank	1.0	193.781898021698	
49	139.23310494422913	movie	1		301.0	47.0	2.5	blank	1.0	193.79838299751282	2.5075788497924805
49	141.7406837940216	fix_post	2		12.0	47.0	2.5	blank	1.0	196.3059618473053	0.10002398490905762
50	141.84070777893066	fix_pre	0		26.0	48.0	2.5	/experiments/knapen_aot/videos/R_S_yt-Dwgpjoikt84_122.mp4	0.0	196.40598583221436	0.2167370319366455
50	142.04921579360962	response	0	2		48.0	2.5	/experiments/knapen_aot/videos/R_S_yt-Dwgpjoikt84_122.mp4	0.0	196.6144938468933	
50	142.0574448108673	movie	1		301.0	48.0	2.5	/experiments/knapen_aot/videos/R_S_yt-Dwgpjoikt84_122.mp4	0.0	196.622722864151	2.508352041244507
50	144.56579685211182	fix_post	2		12.0	48.0	2.5	/experiments/knapen_aot/videos/R_S_yt-Dwgpjoikt84_122.mp4	0.0	199.1310749053955	0.09991908073425293
51	144.66571593284607	fix_pre	0		23.0	49.0	2.5	/experiments/knapen_aot/videos/R_S_ILSVRC2015_train_00565000.mp4	0.0	199.23099398612976	0.1923210620880127
51	144.84917783737183	response	0	2		49.0	2.5	/experiments/knapen_aot/videos/R_S_ILSVRC2015_train_00565000.mp4	0.0	199.41445589065552	
51	144.85803699493408	movie	1		301.0	49.0	2.5	/experiments/knapen_aot/videos/R_S_ILSVRC2015_train_00565000.mp4	0.0	199.42331504821777	2.507699966430664
51	147.36573696136475	fix_post	2		12.0	49.0	2.5	/experiments/knapen_aot/videos/R_S_ILSVRC2015_train_00565000.mp4	0.0	201.93101501464844	0.09997987747192383
52	147.46571683883667	fix_pre	0		17.0	50.0	2.5	/experiments/knapen_aot/videos/S_pexels-mart-production-7277934.mp4	0.0	202.03099489212036	0.14232897758483887
52	147.5992088317871	response	0	2		50.0	2.5	/experiments/knapen_aot/videos/S_pexels-mart-production-7277934.mp4	0.0	202.1644868850708	
52	147.6080458164215	movie	1		162.0	50.0	2.5	/experiments/knapen_aot/videos/S_pexels-mart-production-7277934.mp4	0.0	202.1733238697052	2.5076889991760254
52	150.11573481559753	fix_post	2		12.0	50.0	2.5	/experiments/knapen_aot/videos/S_pexels-mart-production-7277934.mp4	0.0	204.68101286888123	0.09993910789489746
53	150.21567392349243	fix_pre	0		15.0	51.0	2.5	/experiments/knapen_aot/videos/S_yt-25xuzTBhwPk_109.mp4	0.0	204.78095197677612	0.12506699562072754
53	150.33255982398987	response	0	2		51.0	2.5	/experiments/knapen_aot/videos/S_yt-25xuzTBhwPk_109.mp4	0.0	204.89783787727356	
53	150.34074091911316	movie	1		301.0	51.0	2.5	/experiments/knapen_aot/videos/S_yt-25xuzTBhwPk_109.mp4	0.0	204.90601897239685	2.508336067199707
53	152.84907698631287	fix_post	2		12.0	51.0	2.5	/experiments/knapen_aot/videos/S_yt-25xuzTBhwPk_109.mp4	0.0	207.41435503959656	0.09998393058776855
54	152.94906091690063	fix_pre	0		23.0	52.0	2.5	/experiments/knapen_aot/videos/S_ILSVRC2015_train_00165008.mp4	0.0	207.51433897018433	0.19163799285888672
54	153.1325240135193	response	0	2		52.0	2.5	/experiments/knapen_aot/videos/S_ILSVRC2015_train_00165008.mp4	0.0	207.69780206680298	
54	153.14069890975952	movie	1		301.0	52.0	2.5	/experiments/knapen_aot/videos/S_ILSVRC2015_train_00165008.mp4	0.0	207.7059769630432	2.5083630084991455
54	155.64906191825867	fix_post	2		12.0	52.0	2.5	/experiments/knapen_aot/videos/S_ILSVRC2015_train_00165008.mp4	0.0	210.21433997154236	0.09998106956481934
55	155.7490429878235	fix_pre	0		30.0	53.0	2.5	/experiments/knapen_aot/videos/S_yt-6UFUeTKci2o_164.mp4	0.0	210.31432104110718	0.24996089935302734
55	155.9908378124237	response	0	2		53.0	2.5	/experiments/knapen_aot/videos/S_yt-6UFUeTKci2o_164.mp4	0.0	210.5561158657074	
55	155.9990038871765	movie	1		301.0	53.0	2.5	/experiments/knapen_aot/videos/S_yt-6UFUeTKci2o_164.mp4	0.0	210.5642819404602	2.508362054824829
55	158.50736594200134	fix_post	2		12.0	53.0	2.5	/experiments/knapen_aot/videos/S_yt-6UFUeTKci2o_164.mp4	0.0	213.07264399528503	0.10000085830688477
56	158.60736680030823	fix_pre	0		49.0	54.0	2.5	/experiments/knapen_aot/videos/S_yt-jbvXEFk2Gyw_12.mp4	0.0	213.17264485359192	0.40831804275512695
56	159.00754690170288	response	0	2		54.0	2.5	/experiments/knapen_aot/videos/S_yt-jbvXEFk2Gyw_12.mp4	0.0	213.57282495498657	
56	159.01568484306335	movie	1		301.0	54.0	2.5	/experiments/knapen_aot/videos/S_yt-jbvXEFk2Gyw_12.mp4	0.0	213.58096289634705	2.5083370208740234
56	161.52402186393738	fix_post	2		12.0	54.0	2.5	/experiments/knapen_aot/videos/S_yt-jbvXEFk2Gyw_12.mp4	0.0	216.08929991722107	0.09996414184570312
57	161.62398600578308	fix_pre	0		60.0	55.0	2.5	/experiments/knapen_aot/videos/S_production_ID_4122384.mp4	0.0	216.18926405906677	0.500006914138794
57	162.11580991744995	response	0	2		55.0	2.5	/experiments/knapen_aot/videos/S_production_ID_4122384.mp4	0.0	216.68108797073364	
57	162.12399291992188	movie	1		168.0	55.0	2.5	/experiments/knapen_aot/videos/S_production_ID_4122384.mp4	0.0	216.68927097320557	2.5082499980926514
57	164.63224291801453	fix_post	2		12.0	55.0	2.5	/experiments/knapen_aot/videos/S_production_ID_4122384.mp4	0.0	219.19752097129822	0.10006403923034668
58	164.73230695724487	fix_pre	0		9.0	56.0	2.5	blank	1.0	219.29758501052856	0.07502293586730957
58	164.79910278320312	response	0	2		56.0	2.5	blank	1.0	219.36438083648682	
58	164.80732989311218	movie	1		301.0	56.0	2.5	blank	1.0	219.37260794639587	2.5082600116729736
58	167.31558990478516	fix_post	2		12.0	56.0	2.5	blank	1.0	221.88086795806885	0.10003209114074707
59	167.4156219959259	fix_pre	0		30.0	57.0	2.5	/experiments/knapen_aot/videos/S_yt-Mjm5smrurQI_125.mp4	0.0	221.9809000492096	0.24998784065246582
59	167.65737795829773	response	0	2		57.0	2.5	/experiments/knapen_aot/videos/S_yt-Mjm5smrurQI_125.mp4	0.0	222.22265601158142	
59	167.66560983657837	movie	1		301.0	57.0	2.5	/experiments/knapen_aot/videos/S_yt-Mjm5smrurQI_125.mp4	0.0	222.23088788986206	2.50833797454834
59	170.1739478111267	fix_post	2		12.0	57.0	2.5	/experiments/knapen_aot/videos/S_yt-Mjm5smrurQI_125.mp4	0.0	224.7392258644104	0.099945068359375
60	170.27389287948608	fix_pre	0		40.0	58.0	2.5	/experiments/knapen_aot/videos/R_S_yt-O6W6CZPXvlA_15.mp4	0.0	224.83917093276978	0.3338909149169922
60	170.5991108417511	response	0	2		58.0	2.5	/experiments/knapen_aot/videos/R_S_yt-O6W6CZPXvlA_15.mp4	0.0	225.1643888950348	
60	170.60778379440308	movie	1		301.0	58.0	2.5	/experiments/knapen_aot/videos/R_S_yt-O6W6CZPXvlA_15.mp4	0.0	225.17306184768677	2.507750988006592
60	173.11553478240967	fix_post	2		12.0	58.0	2.5	/experiments/knapen_aot/videos/R_S_yt-O6W6CZPXvlA_15.mp4	0.0	227.68081283569336	0.10001921653747559
61	173.21555399894714	fix_pre	0		30.0	59.0	2.5	/experiments/knapen_aot/videos/S_yt-SHTeTAnZgho_43.mp4	0.0	227.78083205223083	0.24997186660766602
61	173.45740389823914	response	0	2		59.0	2.5	/experiments/knapen_aot/videos/S_yt-SHTeTAnZgho_43.mp4	0.0	228.02268195152283	
61	173.4655258655548	movie	1		301.0	59.0	2.5	/experiments/knapen_aot/videos/S_yt-SHTeTAnZgho_43.mp4	0.0	228.0308039188385	2.508315086364746
61	175.97384095191956	fix_post	2		12.0	59.0	2.5	/experiments/knapen_aot/videos/S_yt-SHTeTAnZgho_43.mp4	0.0	230.53911900520325	0.10003900527954102
62	176.0738799571991	fix_pre	0		16.0	60.0	2.5	/experiments/knapen_aot/videos/S_yt-Dwgpjoikt84_122.mp4	0.0	230.6391580104828	0.13336896896362305
62	176.1990089416504	response	0	2		60.0	2.5	/experiments/knapen_aot/videos/S_yt-Dwgpjoikt84_122.mp4	0.0	230.76428699493408	
62	176.20724892616272	movie	1		301.0	60.0	2.5	/experiments/knapen_aot/videos/S_yt-Dwgpjoikt84_122.mp4	0.0	230.7725269794464	2.508363962173462
62	178.71561288833618	fix_post	2		12.0	60.0	2.5	/experiments/knapen_aot/videos/S_yt-Dwgpjoikt84_122.mp4	0.0	233.28089094161987	0.10048794746398926
63	178.81610083580017	fix_pre	0		27.0	61.0	2.5	blank	1.0	233.38137888908386	0.2245190143585205
63	179.03240084648132	response	0	2		61.0	2.5	blank	1.0	233.59767889976501	
63	179.0406198501587	movie	1		301.0	61.0	2.5	blank	1.0	233.60589790344238	2.508301019668579
63	181.54892086982727	fix_post	2		12.0	61.0	2.5	blank	1.0	236.11419892311096	0.10046601295471191
64	181.64938688278198	fix_pre	0		28.0	62.0	2.5	/experiments/knapen_aot/videos/R_S_wc-AJxbR6daLxMM_5.mp4	0.0	236.21466493606567	0.23281192779541016
64	181.87401580810547	response	0	2		62.0	2.5	/experiments/knapen_aot/videos/R_S_wc-AJxbR6daLxMM_5.mp4	0.0	236.43929386138916	
64	181.8821988105774	movie	1		173.0	62.0	2.5	/experiments/knapen_aot/videos/R_S_wc-AJxbR6daLxMM_5.mp4	0.0	236.44747686386108	2.508364200592041
64	184.39056301116943	fix_post	2		12.0	62.0	2.5	/experiments/knapen_aot/videos/R_S_wc-AJxbR6daLxMM_5.mp4	0.0	238.95584106445312	0.09999990463256836
65	184.490562915802	fix_pre	0		34.0	63.0	2.5	/experiments/knapen_aot/videos/R_S_production_ID_4510622.mp4	0.0	239.0558409690857	0.28382205963134766
65	184.7656319141388	response	0	2		63.0	2.5	/experiments/knapen_aot/videos/R_S_production_ID_4510622.mp4	0.0	239.33090996742249	
65	184.77438497543335	movie	1		167.0	63.0	2.5	/experiments/knapen_aot/videos/R_S_production_ID_4510622.mp4	0.0	239.33966302871704	2.5078258514404297
65	187.28221082687378	fix_post	2		12.0	63.0	2.5	/experiments/knapen_aot/videos/R_S_production_ID_4510622.mp4	0.0	241.84748888015747	0.10023212432861328
66	187.3824429512024	fix_pre	0		26.0	64.0	2.5	/experiments/knapen_aot/videos/R_S_yt-TvU-aYjNa2c_21.mp4	0.0	241.94772100448608	0.21646404266357422
66	187.5907289981842	response	0	2		64.0	2.5	/experiments/knapen_aot/videos/R_S_yt-TvU-aYjNa2c_21.mp4	0.0	242.1560070514679	
66	187.59890699386597	movie	1		299.0	64.0	2.5	/experiments/knapen_aot/videos/R_S_yt-TvU-aYjNa2c_21.mp4	0.0	242.16418504714966	2.5082309246063232
66	190.1071379184723	fix_post	2		12.0	64.0	2.5	/experiments/knapen_aot/videos/R_S_yt-TvU-aYjNa2c_21.mp4	0.0	244.67241597175598	0.09994387626647949
67	190.20708179473877	fix_pre	0		53.0	65.0	2.5	/experiments/knapen_aot/videos/S_yt-7NjoFHBdP7c_102.mp4	0.0	244.77235984802246	0.44217801094055176
67	190.64070987701416	response	0	2		65.0	2.5	/experiments/knapen_aot/videos/S_yt-7NjoFHBdP7c_102.mp4	0.0	245.20598793029785	
67	190.64925980567932	movie	1		301.0	65.0	2.5	/experiments/knapen_aot/videos/S_yt-7NjoFHBdP7c_102.mp4	0.0	245.214537858963	2.5078060626983643
67	193.15706586837769	fix_post	2		12.0	65.0	2.5	/experiments/knapen_aot/videos/S_yt-7NjoFHBdP7c_102.mp4	0.0	247.72234392166138	0.10008001327514648
68	193.25714588165283	fix_pre	0		39.0	66.0	2.5	/experiments/knapen_aot/videos/R_S_yt-7bSTxOajpjc_58.mp4	0.0	247.82242393493652	0.3250250816345215
68	193.57407784461975	response	0	2		66.0	2.5	/experiments/knapen_aot/videos/R_S_yt-7bSTxOajpjc_58.mp4	0.0	248.13935589790344	
68	193.58217096328735	movie	1		301.0	66.0	2.5	/experiments/knapen_aot/videos/R_S_yt-7bSTxOajpjc_58.mp4	0.0	248.14744901657104	2.508309841156006
68	196.09048080444336	fix_post	2		12.0	66.0	2.5	/experiments/knapen_aot/videos/R_S_yt-7bSTxOajpjc_58.mp4	0.0	250.65575885772705	0.10041213035583496
69	196.1908929347992	fix_pre	0		13.0	67.0	2.5	/experiments/knapen_aot/videos/S_AK_A004_C012_SDR_20191217_SDR_2K_AVC.mp4	0.0	250.75617098808289	0.10789203643798828
69	196.29058384895325	response	0	2		67.0	2.5	/experiments/knapen_aot/videos/S_AK_A004_C012_SDR_20191217_SDR_2K_AVC.mp4	0.0	250.85586190223694	
69	196.29878497123718	movie	1		165.0	67.0	2.5	/experiments/knapen_aot/videos/S_AK_A004_C012_SDR_20191217_SDR_2K_AVC.mp4	0.0	250.86406302452087	2.5083160400390625
69	198.80710101127625	fix_post	2		12.0	67.0	2.5	/experiments/knapen_aot/videos/S_AK_A004_C012_SDR_20191217_SDR_2K_AVC.mp4	0.0	253.37237906455994	0.10008478164672852
70	198.90718579292297	fix_pre	0		27.0	68.0	2.5	blank	1.0	253.47246384620667	0.22486114501953125
70	199.12418580055237	response	0	2		68.0	2.5	blank	1.0	253.68946385383606	
70	199.1320469379425	movie	1		301.0	68.0	2.5	blank	1.0	253.6973249912262	2.5083930492401123
70	201.64043998718262	fix_post	2		12.0	68.0	2.5	blank	1.0	256.2057180404663	0.10004687309265137
71	201.74048686027527	fix_pre	0		63.0	69.0	2.5	/experiments/knapen_aot/videos/R_S_yt-utYnOeoj2Rw_3.mp4	0.0	256.30576491355896	0.5249791145324707
71	202.2573549747467	response	0	2		69.0	2.5	/experiments/knapen_aot/videos/R_S_yt-utYnOeoj2Rw_3.mp4	0.0	256.8226330280304	
71	202.26546597480774	movie	1		301.0	69.0	2.5	/experiments/knapen_aot/videos/R_S_yt-utYnOeoj2Rw_3.mp4	0.0	256.83074402809143	2.5082268714904785
71	204.77369284629822	fix_post	2		12.0	69.0	2.5	/experiments/knapen_aot/videos/R_S_yt-utYnOeoj2Rw_3.mp4	0.0	259.3389708995819	0.10006594657897949
72	204.8737587928772	fix_pre	0		36.0	70.0	2.5	/experiments/knapen_aot/videos/S_ILSVRC2015_train_00408000.mp4	0.0	259.4390368461609	0.30001211166381836
72	205.16560888290405	response	0	2		70.0	2.5	/experiments/knapen_aot/videos/S_ILSVRC2015_train_00408000.mp4	0.0	259.73088693618774	
72	205.17377090454102	movie	1		298.0	70.0	2.5	/experiments/knapen_aot/videos/S_ILSVRC2015_train_00408000.mp4	0.0	259.7390489578247	2.508244037628174
72	207.6820149421692	fix_post	2		12.0	70.0	2.5	/experiments/knapen_aot/videos/S_ILSVRC2015_train_00408000.mp4	0.0	262.2472929954529	0.10006189346313477
73	207.78207683563232	fix_pre	0		41.0	71.0	2.5	/experiments/knapen_aot/videos/S_yt-jy96-k8drRE_1.mp4	0.0	262.347354888916	0.34165406227111816
73	208.115642786026	response	0	2		71.0	2.5	/experiments/knapen_aot/videos/S_yt-jy96-k8drRE_1.mp4	0.0	262.6809208393097	
73	208.12373089790344	movie	1		300.0	71.0	2.5	/experiments/knapen_aot/videos/S_yt-jy96-k8drRE_1.mp4	0.0	262.68900895118713	2.508349895477295
73	210.63208079338074	fix_post	2		12.0	71.0	2.5	/experiments/knapen_aot/videos/S_yt-jy96-k8drRE_1.mp4	0.0	265.19735884666443	0.10036706924438477
74	210.73244786262512	fix_pre	0		29.0	72.0	2.5	/experiments/knapen_aot/videos/S_yt-Ndwek2tpIOA_169.mp4	0.0	265.2977259159088	0.24140095710754395
74	210.96554589271545	response	0	2		72.0	2.5	/experiments/knapen_aot/videos/S_yt-Ndwek2tpIOA_169.mp4	0.0	265.53082394599915	
74	210.97384881973267	movie	1		301.0	72.0	2.5	/experiments/knapen_aot/videos/S_yt-Ndwek2tpIOA_169.mp4	0.0	265.53912687301636	2.5082650184631348
74	213.4821138381958	fix_post	2		12.0	72.0	2.5	/experiments/knapen_aot/videos/S_yt-Ndwek2tpIOA_169.mp4	0.0	268.0473918914795	0.0998830795288086
75	213.5819969177246	fix_pre	0		38.0	73.0	2.5	/experiments/knapen_aot/videos/S_yt-GWlwb2QsxIA_48.mp4	0.0	268.1472749710083	0.317065954208374
75	213.8830850124359	response	0	2		73.0	2.5	/experiments/knapen_aot/videos/S_yt-GWlwb2QsxIA_48.mp4	0.0	268.4483630657196	
75	213.89906287193298	movie	1		301.0	73.0	2.5	/experiments/knapen_aot/videos/S_yt-GWlwb2QsxIA_48.mp4	0.0	268.4643409252167	2.5080161094665527
75	216.40707898139954	fix_post	2		12.0	73.0	2.5	/experiments/knapen_aot/videos/S_yt-GWlwb2QsxIA_48.mp4	0.0	270.9723570346832	0.09999489784240723
76	216.50707387924194	fix_pre	0		27.0	74.0	2.5	/experiments/knapen_aot/videos/R_S_yt-0d5TkclKWVA_146.mp4	0.0	271.07235193252563	0.22522902488708496
76	216.72388195991516	response	0	2		74.0	2.5	/experiments/knapen_aot/videos/R_S_yt-0d5TkclKWVA_146.mp4	0.0	271.28916001319885	
76	216.73230290412903	movie	1		298.0	74.0	2.5	/experiments/knapen_aot/videos/R_S_yt-0d5TkclKWVA_146.mp4	0.0	271.2975809574127	2.508042097091675
76	219.2403450012207	fix_post	2		12.0	74.0	2.5	/experiments/knapen_aot/videos/R_S_yt-0d5TkclKWVA_146.mp4	0.0	273.8056230545044	0.10010290145874023
77	219.34044790267944	fix_pre	0		33.0	75.0	2.5	blank	1.0	273.90572595596313	0.274975061416626
77	219.5996448993683	response	0	2		75.0	2.5	blank	1.0	274.164922952652	
77	219.61542296409607	movie	1		301.0	75.0	2.5	blank	1.0	274.18070101737976	2.5082969665527344
77	222.1237199306488	fix_post	2		12.0	75.0	2.5	blank	1.0	276.6889979839325	0.10010004043579102
78	222.2238199710846	fix_pre	0		31.0	76.0	2.5	/experiments/knapen_aot/videos/R_S_comp_GMT110_112NC_364D_1054_AURORA_ANTARTICA__COMP_FINAL_v34_PS_SDR_20181107_SDR_2K_AVC.mp4	0.0	276.7890980243683	0.25841593742370605
78	222.47382187843323	response	0	2		76.0	2.5	/experiments/knapen_aot/videos/R_S_comp_GMT110_112NC_364D_1054_AURORA_ANTARTICA__COMP_FINAL_v34_PS_SDR_20181107_SDR_2K_AVC.mp4	0.0	277.0390999317169	
78	222.4822359085083	movie	1		162.0	76.0	2.5	/experiments/knapen_aot/videos/R_S_comp_GMT110_112NC_364D_1054_AURORA_ANTARTICA__COMP_FINAL_v34_PS_SDR_20181107_SDR_2K_AVC.mp4	0.0	277.047513961792	2.5081100463867188
78	224.99034595489502	fix_post	2		12.0	76.0	2.5	/experiments/knapen_aot/videos/R_S_comp_GMT110_112NC_364D_1054_AURORA_ANTARTICA__COMP_FINAL_v34_PS_SDR_20181107_SDR_2K_AVC.mp4	0.0	279.5556240081787	0.09998798370361328
79	225.09033393859863	fix_pre	0		37.0	77.0	2.5	/experiments/knapen_aot/videos/S_ILSVRC2015_train_00415005.mp4	0.0	279.6556119918823	0.3085658550262451
79	225.39052200317383	response	0	2		77.0	2.5	/experiments/knapen_aot/videos/S_ILSVRC2015_train_00415005.mp4	0.0	279.9558000564575	
79	225.39889979362488	movie	1		301.0	77.0	2.5	/experiments/knapen_aot/videos/S_ILSVRC2015_train_00415005.mp4	0.0	279.96417784690857	2.5082831382751465
79	227.90718293190002	fix_post	2		12.0	77.0	2.5	/experiments/knapen_aot/videos/S_ILSVRC2015_train_00415005.mp4	0.0	282.4724609851837	0.09991693496704102
80	228.00709986686707	fix_pre	0		24.0	78.0	2.5	/experiments/knapen_aot/videos/R_S_yt-I2n2eo2zoZs_94.mp4	0.0	282.57237792015076	0.19994711875915527
80	228.19893980026245	response	0	2		78.0	2.5	/experiments/knapen_aot/videos/R_S_yt-I2n2eo2zoZs_94.mp4	0.0	282.76421785354614	
80	228.20704698562622	movie	1		301.0	78.0	2.5	/experiments/knapen_aot/videos/R_S_yt-I2n2eo2zoZs_94.mp4	0.0	282.7723250389099	2.5082929134368896
80	230.7153398990631	fix_post	2		12.0	78.0	2.5	/experiments/knapen_aot/videos/R_S_yt-I2n2eo2zoZs_94.mp4	0.0	285.2806179523468	0.10026788711547852
81	230.8156077861786	fix_pre	0		24.0	79.0	2.5	/experiments/knapen_aot/videos/R_S_yt-NuZy8Rjk4d0_156.mp4	0.0	285.3808858394623	0.19979619979858398
81	231.00712180137634	response	0	2		79.0	2.5	/experiments/knapen_aot/videos/R_S_yt-NuZy8Rjk4d0_156.mp4	0.0	285.57239985466003	
81	231.01540398597717	movie	1		301.0	79.0	2.5	/experiments/knapen_aot/videos/R_S_yt-NuZy8Rjk4d0_156.mp4	0.0	285.58068203926086	2.5085268020629883
81	233.52393078804016	fix_post	2		12.0	79.0	2.5	/experiments/knapen_aot/videos/R_S_yt-NuZy8Rjk4d0_156.mp4	0.0	288.08920884132385	0.09973907470703125
82	233.6236698627472	fix_pre	0		36.0	80.0	2.5	/experiments/knapen_aot/videos/S_MEX_A006_C008_SDR_20190923_SDR_2K_AVC.mp4	0.0	288.1889479160309	0.3000340461730957
82	233.9155309200287	response	0	2		80.0	2.5	/experiments/knapen_aot/videos/S_MEX_A006_C008_SDR_20190923_SDR_2K_AVC.mp4	0.0	288.4808089733124	
82	233.9237039089203	movie	1		164.0	80.0	2.5	/experiments/knapen_aot/videos/S_MEX_A006_C008_SDR_20190923_SDR_2K_AVC.mp4	0.0	288.488981962204	2.5083580017089844
82	236.43206191062927	fix_post	2		12.0	80.0	2.5	/experiments/knapen_aot/videos/S_MEX_A006_C008_SDR_20190923_SDR_2K_AVC.mp4	0.0	290.99733996391296	0.09997701644897461
83	236.53203892707825	fix_pre	0		26.0	81.0	2.5	/experiments/knapen_aot/videos/R_S_ILSVRC2015_train_00324001.mp4	0.0	291.09731698036194	0.21665501594543457
83	236.74048781394958	response	0	2		81.0	2.5	/experiments/knapen_aot/videos/R_S_ILSVRC2015_train_00324001.mp4	0.0	291.3057658672333	
83	236.74869394302368	movie	1		301.0	81.0	2.5	/experiments/knapen_aot/videos/R_S_ILSVRC2015_train_00324001.mp4	0.0	291.3139719963074	2.508327007293701
83	239.25702095031738	fix_post	2		12.0	81.0	2.5	/experiments/knapen_aot/videos/R_S_ILSVRC2015_train_00324001.mp4	0.0	293.8222990036011	0.10019302368164062
84	239.35721397399902	fix_pre	0		37.0	82.0	2.5	/experiments/knapen_aot/videos/R_S_wc-8bTJmWfuVyJ4_8.mp4	0.0	293.9224920272827	0.30811095237731934
84	239.65712594985962	response	0	2		82.0	2.5	/experiments/knapen_aot/videos/R_S_wc-8bTJmWfuVyJ4_8.mp4	0.0	294.2224040031433	
84	239.66532492637634	movie	1		165.0	82.0	2.5	/experiments/knapen_aot/videos/R_S_wc-8bTJmWfuVyJ4_8.mp4	0.0	294.23060297966003	2.5083529949188232
84	242.17367792129517	fix_post	2		12.0	82.0	2.5	/experiments/knapen_aot/videos/R_S_wc-8bTJmWfuVyJ4_8.mp4	0.0	296.73895597457886	0.10016298294067383
85	242.27384090423584	fix_pre	0		24.0	83.0	2.5	blank	1.0	296.83911895751953	0.1997830867767334
85	242.4655089378357	response	0	2		83.0	2.5	blank	1.0	297.0307869911194	
85	242.47362399101257	movie	1		301.0	83.0	2.5	blank	1.0	297.03890204429626	2.5085289478302
85	244.98215293884277	fix_post	2		12.0	83.0	2.5	blank	1.0	299.54743099212646	0.09983396530151367
87	245.0819869041443	stim	0		282.0					299.647264957428	2.351490020751953
87	245.30706596374512	response	0	2						299.8723440170288	
87	247.427307844162	response	0	space						301.9925858974457	
