trial_nr	onset	event_type	phase	response	nr_frames	movie_index	movie_duration	movie_file	blank	onset_abs	duration
0	0.15827393531799316	stim	0		28.0					57.3638060092926	0.233443021774292
0	0.38353681564331055	response	0	space						57.58906888961792	
1	0.39171695709228516	stim	0		121.0					57.597249031066895	1.0083470344543457
1	1.0167498588562012	response	0	space						58.22228193283081	
1	1.3417229652404785	response	0	space						58.54725503921509	
1	1.4000639915466309	stim	1		120.0					58.60559606552124	0.9996898174285889
1	1.8497498035430908	response	1	space						59.0552818775177	
2	2.3997538089752197	fix_pre	0		6.0	0.0	2.5	/experiments/knapen_aot/oldvideos/S_yt-1H8sfkZGZK8_3.mp4	0.0	59.60528588294983	0.05082106590270996
2	2.441532850265503	response	0	space		0.0	2.5	/experiments/knapen_aot/oldvideos/S_yt-1H8sfkZGZK8_3.mp4	0.0	59.64706492424011	
2	2.4505748748779297	movie	1		301.0	0.0	2.5	/experiments/knapen_aot/oldvideos/S_yt-1H8sfkZGZK8_3.mp4	0.0	59.65610694885254	2.5074689388275146
2	4.958043813705444	fix_post	2		12.0	0.0	2.5	/experiments/knapen_aot/oldvideos/S_yt-1H8sfkZGZK8_3.mp4	0.0	62.163575887680054	0.0999901294708252
3	5.0580339431762695	fix_pre	0		26.0	1.0	2.5	/experiments/knapen_aot/oldvideos/S_comp_C001_C005_PS_v01_SDR_PS_20180925_SDR_2K_AVC.mp4	0.0	62.26356601715088	0.21884799003601074
3	5.268651962280273	response	0	4		1.0	2.5	/experiments/knapen_aot/oldvideos/S_comp_C001_C005_PS_v01_SDR_PS_20180925_SDR_2K_AVC.mp4	0.0	62.47418403625488	
3	5.27688193321228	movie	1		174.0	1.0	2.5	/experiments/knapen_aot/oldvideos/S_comp_C001_C005_PS_v01_SDR_PS_20180925_SDR_2K_AVC.mp4	0.0	62.48241400718689	2.5060760974884033
3	7.782958030700684	fix_post	2		12.0	1.0	2.5	/experiments/knapen_aot/oldvideos/S_comp_C001_C005_PS_v01_SDR_PS_20180925_SDR_2K_AVC.mp4	0.0	64.9884901046753	0.10001182556152344
3	7.866447925567627	response	2	4		1.0	2.5	/experiments/knapen_aot/oldvideos/S_comp_C001_C005_PS_v01_SDR_PS_20180925_SDR_2K_AVC.mp4	0.0	65.07197999954224	
4	7.882969856262207	fix_pre	0		226.0	2.0	2.5	/experiments/knapen_aot/oldvideos/R_S_yt-158C6xUMi5Y_75.mp4	0.0	65.08850193023682	1.883275032043457
4	9.758149862289429	response	0	4		2.0	2.5	/experiments/knapen_aot/oldvideos/R_S_yt-158C6xUMi5Y_75.mp4	0.0	66.96368193626404	
4	9.766244888305664	movie	1		301.0	2.0	2.5	/experiments/knapen_aot/oldvideos/R_S_yt-158C6xUMi5Y_75.mp4	0.0	66.97177696228027	2.5083320140838623
4	12.274576902389526	fix_post	2		12.0	2.0	2.5	/experiments/knapen_aot/oldvideos/R_S_yt-158C6xUMi5Y_75.mp4	0.0	69.48010897636414	0.10006308555603027
5	12.374639987945557	fix_pre	0		13.0	3.0	2.5	/experiments/knapen_aot/oldvideos/S_production_ID_4802710.mp4	0.0	69.58017206192017	0.10829782485961914
5	12.474660873413086	response	0	4		3.0	2.5	/experiments/knapen_aot/oldvideos/S_production_ID_4802710.mp4	0.0	69.6801929473877	
5	12.482937812805176	movie	1		165.0	3.0	2.5	/experiments/knapen_aot/oldvideos/S_production_ID_4802710.mp4	0.0	69.68846988677979	2.50844407081604
5	14.991381883621216	fix_post	2		12.0	3.0	2.5	/experiments/knapen_aot/oldvideos/S_production_ID_4802710.mp4	0.0	72.19691395759583	0.09998202323913574
6	15.091363906860352	fix_pre	0		28.0	4.0	2.5	/experiments/knapen_aot/oldvideos/S_yt-TvU-aYjNa2c_21.mp4	0.0	72.29689598083496	0.23406505584716797
6	15.316411018371582	response	0	4		4.0	2.5	/experiments/knapen_aot/oldvideos/S_yt-TvU-aYjNa2c_21.mp4	0.0	72.52194309234619	
6	15.32542896270752	movie	1		301.0	4.0	2.5	/experiments/knapen_aot/oldvideos/S_yt-TvU-aYjNa2c_21.mp4	0.0	72.53096103668213	2.507452964782715
6	17.832881927490234	fix_post	2		12.0	4.0	2.5	/experiments/knapen_aot/oldvideos/S_yt-TvU-aYjNa2c_21.mp4	0.0	75.03841400146484	0.10005998611450195
7	17.932941913604736	fix_pre	0		20.0	5.0	2.5	/experiments/knapen_aot/oldvideos/R_S_yt-Pc1ZlCvsPpc_5.mp4	0.0	75.13847398757935	0.1666419506072998
7	18.091339826583862	response	0	4		5.0	2.5	/experiments/knapen_aot/oldvideos/R_S_yt-Pc1ZlCvsPpc_5.mp4	0.0	75.29687190055847	
7	18.099583864212036	movie	1		301.0	5.0	2.5	/experiments/knapen_aot/oldvideos/R_S_yt-Pc1ZlCvsPpc_5.mp4	0.0	75.30511593818665	2.5083420276641846
7	20.60792589187622	fix_post	2		12.0	5.0	2.5	/experiments/knapen_aot/oldvideos/R_S_yt-Pc1ZlCvsPpc_5.mp4	0.0	77.81345796585083	0.09992313385009766
8	20.70784902572632	fix_pre	0		30.0	6.0	2.5	/experiments/knapen_aot/oldvideos/S_yt--wYgjXsc1XQ_106.mp4	0.0	77.91338109970093	0.2500448226928711
8	20.949694871902466	response	0	4		6.0	2.5	/experiments/knapen_aot/oldvideos/S_yt--wYgjXsc1XQ_106.mp4	0.0	78.15522694587708	
8	20.95789384841919	movie	1		301.0	6.0	2.5	/experiments/knapen_aot/oldvideos/S_yt--wYgjXsc1XQ_106.mp4	0.0	78.1634259223938	2.508327007293701
8	23.46622085571289	fix_post	2		12.0	6.0	2.5	/experiments/knapen_aot/oldvideos/S_yt--wYgjXsc1XQ_106.mp4	0.0	80.6717529296875	0.10004997253417969
9	23.56627082824707	fix_pre	0		33.0	7.0	2.5	blank	1.0	80.77180290222168	0.2749052047729492
9	23.83298897743225	response	0	4		7.0	2.5	blank	1.0	81.03852105140686	
9	23.84117603302002	movie	1		301.0	7.0	2.5	blank	1.0	81.04670810699463	2.5083529949188232
9	26.349529027938843	fix_post	2		12.0	7.0	2.5	blank	1.0	83.55506110191345	0.10000491142272949
10	26.449533939361572	fix_pre	0		48.0	8.0	2.5	/experiments/knapen_aot/oldvideos/R_S_yt-XpM1Jtwlvvk_42.mp4	0.0	83.65506601333618	0.3999960422515869
10	26.84127688407898	response	0	4		8.0	2.5	/experiments/knapen_aot/oldvideos/R_S_yt-XpM1Jtwlvvk_42.mp4	0.0	84.04680895805359	
10	26.84952998161316	movie	1		301.0	8.0	2.5	/experiments/knapen_aot/oldvideos/R_S_yt-XpM1Jtwlvvk_42.mp4	0.0	84.05506205558777	2.5084009170532227
10	29.357930898666382	fix_post	2		12.0	8.0	2.5	/experiments/knapen_aot/oldvideos/R_S_yt-XpM1Jtwlvvk_42.mp4	0.0	86.56346297264099	0.09997010231018066
11	29.457901000976562	fix_pre	0		32.0	9.0	2.5	/experiments/knapen_aot/oldvideos/R_S_pexels-diva-plavalaguna-6985395.mp4	0.0	86.66343307495117	0.2666640281677246
11	29.716325998306274	response	0	4		9.0	2.5	/experiments/knapen_aot/oldvideos/R_S_pexels-diva-plavalaguna-6985395.mp4	0.0	86.92185807228088	
11	29.724565029144287	movie	1		163.0	9.0	2.5	/experiments/knapen_aot/oldvideos/R_S_pexels-diva-plavalaguna-6985395.mp4	0.0	86.9300971031189	2.508380889892578
11	32.232945919036865	fix_post	2		12.0	9.0	2.5	/experiments/knapen_aot/oldvideos/R_S_pexels-diva-plavalaguna-6985395.mp4	0.0	89.43847799301147	0.10008502006530762
12	32.33303093910217	fix_pre	0		44.0	10.0	2.5	/experiments/knapen_aot/oldvideos/S_yt-0aHV3uU8xFY_75.mp4	0.0	89.53856301307678	0.36717987060546875
12	32.69132995605469	response	0	4		10.0	2.5	/experiments/knapen_aot/oldvideos/S_yt-0aHV3uU8xFY_75.mp4	0.0	89.8968620300293	
12	32.70021080970764	movie	1		301.0	10.0	2.5	/experiments/knapen_aot/oldvideos/S_yt-0aHV3uU8xFY_75.mp4	0.0	89.90574288368225	2.5076370239257812
12	35.20784783363342	fix_post	2		12.0	10.0	2.5	/experiments/knapen_aot/oldvideos/S_yt-0aHV3uU8xFY_75.mp4	0.0	92.41337990760803	0.09992504119873047
13	35.30777287483215	fix_pre	0		24.0	11.0	2.5	/experiments/knapen_aot/oldvideos/S_ILSVRC2015_train_00441000.mp4	0.0	92.51330494880676	0.20006012916564941
13	35.499655961990356	response	0	4		11.0	2.5	/experiments/knapen_aot/oldvideos/S_ILSVRC2015_train_00441000.mp4	0.0	92.70518803596497	
13	35.5078330039978	movie	1		301.0	11.0	2.5	/experiments/knapen_aot/oldvideos/S_ILSVRC2015_train_00441000.mp4	0.0	92.71336507797241	2.508366823196411
13	38.016199827194214	fix_post	2		12.0	11.0	2.5	/experiments/knapen_aot/oldvideos/S_ILSVRC2015_train_00441000.mp4	0.0	95.22173190116882	0.10070419311523438
14	38.11690402030945	fix_pre	0		35.0	12.0	2.5	/experiments/knapen_aot/oldvideos/R_S_yt-WASlRH1zA8c_175.mp4	0.0	95.32243609428406	0.29168081283569336
14	38.399760007858276	response	0	4		12.0	2.5	/experiments/knapen_aot/oldvideos/R_S_yt-WASlRH1zA8c_175.mp4	0.0	95.60529208183289	
14	38.40858483314514	movie	1		301.0	12.0	2.5	/experiments/knapen_aot/oldvideos/R_S_yt-WASlRH1zA8c_175.mp4	0.0	95.61411690711975	2.5076160430908203
14	40.91620087623596	fix_post	2		12.0	12.0	2.5	/experiments/knapen_aot/oldvideos/R_S_yt-WASlRH1zA8c_175.mp4	0.0	98.12173295021057	0.09996509552001953
15	41.01616597175598	fix_pre	0		20.0	13.0	2.5	/experiments/knapen_aot/oldvideos/S_pexels-c-technical-6753390.mp4	0.0	98.22169804573059	0.16667699813842773
15	41.1745707988739	response	0	4		13.0	2.5	/experiments/knapen_aot/oldvideos/S_pexels-c-technical-6753390.mp4	0.0	98.38010287284851	
15	41.18284296989441	movie	1		195.0	13.0	2.5	/experiments/knapen_aot/oldvideos/S_pexels-c-technical-6753390.mp4	0.0	98.38837504386902	2.5083439350128174
15	43.69118690490723	fix_post	2		12.0	13.0	2.5	/experiments/knapen_aot/oldvideos/S_pexels-c-technical-6753390.mp4	0.0	100.89671897888184	0.10000395774841309
16	43.79119086265564	fix_pre	0		26.0	14.0	2.5	blank	1.0	100.99672293663025	0.21660494804382324
16	43.9920380115509	response	0	4		14.0	2.5	blank	1.0	101.19757008552551	
16	44.00779581069946	movie	1		301.0	14.0	2.5	blank	1.0	101.21332788467407	2.508486032485962
16	46.516281843185425	fix_post	2		12.0	14.0	2.5	blank	1.0	103.72181391716003	0.09986114501953125
17	46.616142988204956	fix_pre	0		50.0	15.0	2.5	/experiments/knapen_aot/oldvideos/S_comp_C001_C005_PS_v01_SDR_PS_20180925_SDR_2K_AVC.mp4	0.0	103.82167506217957	0.4173319339752197
17	47.017069816589355	response	0	4		15.0	2.5	/experiments/knapen_aot/oldvideos/S_comp_C001_C005_PS_v01_SDR_PS_20180925_SDR_2K_AVC.mp4	0.0	104.22260189056396	
17	47.033474922180176	movie	1		170.0	15.0	2.5	/experiments/knapen_aot/oldvideos/S_comp_C001_C005_PS_v01_SDR_PS_20180925_SDR_2K_AVC.mp4	0.0	104.23900699615479	2.5076310634613037
17	49.54110598564148	fix_post	2		12.0	15.0	2.5	/experiments/knapen_aot/oldvideos/S_comp_C001_C005_PS_v01_SDR_PS_20180925_SDR_2K_AVC.mp4	0.0	106.74663805961609	0.09993886947631836
18	49.6410448551178	fix_pre	0		70.0	16.0	2.5	/experiments/knapen_aot/oldvideos/S_yt--_ZMybcaUOw_254.mp4	0.0	106.84657692909241	0.5833051204681396
18	50.216261863708496	response	0	4		16.0	2.5	/experiments/knapen_aot/oldvideos/S_yt--_ZMybcaUOw_254.mp4	0.0	107.4217939376831	
18	50.22434997558594	movie	1		301.0	16.0	2.5	/experiments/knapen_aot/oldvideos/S_yt--_ZMybcaUOw_254.mp4	0.0	107.42988204956055	2.508384943008423
18	52.73273491859436	fix_post	2		12.0	16.0	2.5	/experiments/knapen_aot/oldvideos/S_yt--_ZMybcaUOw_254.mp4	0.0	109.93826699256897	0.1000669002532959
19	52.832801818847656	fix_pre	0		48.0	17.0	2.5	/experiments/knapen_aot/oldvideos/S_yt-6DJulOrg2-8_122.mp4	0.0	110.03833389282227	0.39992618560791016
19	53.22462296485901	response	0	4		17.0	2.5	/experiments/knapen_aot/oldvideos/S_yt-6DJulOrg2-8_122.mp4	0.0	110.43015503883362	
19	53.232728004455566	movie	1		301.0	17.0	2.5	/experiments/knapen_aot/oldvideos/S_yt-6DJulOrg2-8_122.mp4	0.0	110.43826007843018	2.508356809616089
19	55.741084814071655	fix_post	2		12.0	17.0	2.5	/experiments/knapen_aot/oldvideos/S_yt-6DJulOrg2-8_122.mp4	0.0	112.94661688804626	0.09998703002929688
20	55.84107184410095	fix_pre	0		37.0	18.0	2.5	/experiments/knapen_aot/oldvideos/R_S_yt-44ip3uFe4YM_30.mp4	0.0	113.04660391807556	0.30835700035095215
20	56.141156911849976	response	0	4		18.0	2.5	/experiments/knapen_aot/oldvideos/R_S_yt-44ip3uFe4YM_30.mp4	0.0	113.34668898582458	
20	56.149428844451904	movie	1		301.0	18.0	2.5	/experiments/knapen_aot/oldvideos/R_S_yt-44ip3uFe4YM_30.mp4	0.0	113.35496091842651	2.5083720684051514
20	58.657800912857056	fix_post	2		12.0	18.0	2.5	/experiments/knapen_aot/oldvideos/R_S_yt-44ip3uFe4YM_30.mp4	0.0	115.86333298683167	0.09989404678344727
21	58.7576949596405	fix_pre	0		32.0	19.0	2.5	/experiments/knapen_aot/oldvideos/S_3WAnGcPubBY_179.mp4	0.0	115.96322703361511	0.2666819095611572
21	59.01612687110901	response	0	4		19.0	2.5	/experiments/knapen_aot/oldvideos/S_3WAnGcPubBY_179.mp4	0.0	116.22165894508362	
21	59.02437686920166	movie	1		301.0	19.0	2.5	/experiments/knapen_aot/oldvideos/S_3WAnGcPubBY_179.mp4	0.0	116.22990894317627	2.5084259510040283
21	61.53280282020569	fix_post	2		12.0	19.0	2.5	/experiments/knapen_aot/oldvideos/S_3WAnGcPubBY_179.mp4	0.0	118.7383348941803	0.09996700286865234
22	61.63276982307434	fix_pre	0		35.0	20.0	2.5	/experiments/knapen_aot/oldvideos/R_S_yt-I2n2eo2zoZs_112.mp4	0.0	118.83830189704895	0.29161810874938965
22	61.916213035583496	response	0	4		20.0	2.5	/experiments/knapen_aot/oldvideos/R_S_yt-I2n2eo2zoZs_112.mp4	0.0	119.1217451095581	
22	61.92438793182373	movie	1		301.0	20.0	2.5	/experiments/knapen_aot/oldvideos/R_S_yt-I2n2eo2zoZs_112.mp4	0.0	119.12992000579834	2.5084409713745117
22	64.43282890319824	fix_post	2		12.0	20.0	2.5	/experiments/knapen_aot/oldvideos/R_S_yt-I2n2eo2zoZs_112.mp4	0.0	121.63836097717285	0.1005549430847168
23	64.53338384628296	fix_pre	0		16.0	21.0	2.5	blank	1.0	121.73891592025757	0.13265395164489746
23	64.65778493881226	response	0	4		21.0	2.5	blank	1.0	121.86331701278687	
23	64.66603779792786	movie	1		301.0	21.0	2.5	blank	1.0	121.87156987190247	2.5083861351013184
23	67.17442393302917	fix_post	2		12.0	21.0	2.5	blank	1.0	124.37995600700378	0.09996294975280762
24	67.27438688278198	fix_pre	0		326.0	22.0	2.5	/experiments/knapen_aot/oldvideos/R_S_yt-6DJulOrg2-8_122.mp4	0.0	124.47991895675659	2.7172579765319824
24	69.98280096054077	response	0	4		22.0	2.5	/experiments/knapen_aot/oldvideos/R_S_yt-6DJulOrg2-8_122.mp4	0.0	127.18833303451538	
24	69.99164485931396	movie	1		300.0	22.0	2.5	/experiments/knapen_aot/oldvideos/R_S_yt-6DJulOrg2-8_122.mp4	0.0	127.19717693328857	2.507735013961792
24	72.49937987327576	fix_post	2		12.0	22.0	2.5	/experiments/knapen_aot/oldvideos/R_S_yt-6DJulOrg2-8_122.mp4	0.0	129.70491194725037	0.10007715225219727
25	72.59945702552795	fix_pre	0		24.0	23.0	2.5	/experiments/knapen_aot/oldvideos/S_flickr-reginahart-31964450591_23.mp4	0.0	129.80498909950256	0.19983482360839844
25	72.79114103317261	response	0	4		23.0	2.5	/experiments/knapen_aot/oldvideos/S_flickr-reginahart-31964450591_23.mp4	0.0	129.99667310714722	
25	72.79929184913635	movie	1		175.0	23.0	2.5	/experiments/knapen_aot/oldvideos/S_flickr-reginahart-31964450591_23.mp4	0.0	130.00482392311096	2.5083260536193848
25	75.30761790275574	fix_post	2		12.0	23.0	2.5	/experiments/knapen_aot/oldvideos/S_flickr-reginahart-31964450591_23.mp4	0.0	132.51314997673035	0.10007309913635254
26	75.40769100189209	fix_pre	0		35.0	24.0	2.5	/experiments/knapen_aot/oldvideos/S_yt-M8wvzt_BMXM_173.mp4	0.0	132.6132230758667	0.29213380813598633
26	75.69117879867554	response	0	4		24.0	2.5	/experiments/knapen_aot/oldvideos/S_yt-M8wvzt_BMXM_173.mp4	0.0	132.89671087265015	
26	75.69982481002808	movie	1		301.0	24.0	2.5	/experiments/knapen_aot/oldvideos/S_yt-M8wvzt_BMXM_173.mp4	0.0	132.90535688400269	2.5078420639038086
26	78.20766687393188	fix_post	2		12.0	24.0	2.5	/experiments/knapen_aot/oldvideos/S_yt-M8wvzt_BMXM_173.mp4	0.0	135.4131989479065	0.09999299049377441
27	78.30765986442566	fix_pre	0		28.0	25.0	2.5	/experiments/knapen_aot/oldvideos/R_S_yt-BLmwmX-mni8_1030.mp4	0.0	135.51319193840027	0.23344016075134277
27	78.53268003463745	response	0	4		25.0	2.5	/experiments/knapen_aot/oldvideos/R_S_yt-BLmwmX-mni8_1030.mp4	0.0	135.73821210861206	
27	78.541100025177	movie	1		301.0	25.0	2.5	/experiments/knapen_aot/oldvideos/R_S_yt-BLmwmX-mni8_1030.mp4	0.0	135.7466320991516	2.508241891860962
27	81.04934191703796	fix_post	2		12.0	25.0	2.5	/experiments/knapen_aot/oldvideos/R_S_yt-BLmwmX-mni8_1030.mp4	0.0	138.25487399101257	0.0999610424041748
28	81.14930295944214	fix_pre	0		18.0	26.0	2.5	/experiments/knapen_aot/oldvideos/R_S_2RTDFkjD6vI_93.mp4	0.0	138.35483503341675	0.14998793601989746
28	81.29114890098572	response	0	4		26.0	2.5	/experiments/knapen_aot/oldvideos/R_S_2RTDFkjD6vI_93.mp4	0.0	138.49668097496033	
28	81.29929089546204	movie	1		301.0	26.0	2.5	/experiments/knapen_aot/oldvideos/R_S_2RTDFkjD6vI_93.mp4	0.0	138.50482296943665	2.5084049701690674
28	83.8076958656311	fix_post	2		12.0	26.0	2.5	/experiments/knapen_aot/oldvideos/R_S_2RTDFkjD6vI_93.mp4	0.0	141.0132279396057	0.10056304931640625
29	83.90825891494751	fix_pre	0		9.0	27.0	2.5	blank	1.0	141.11379098892212	0.07454609870910645
29	83.97448301315308	response	0	4		27.0	2.5	blank	1.0	141.18001508712769	
29	83.98280501365662	movie	1		301.0	27.0	2.5	blank	1.0	141.18833708763123	2.5083348751068115
29	86.49113988876343	fix_post	2		12.0	27.0	2.5	blank	1.0	143.69667196273804	0.0998389720916748
30	86.5909788608551	fix_pre	0		32.0	28.0	2.5	/experiments/knapen_aot/oldvideos/R_S_production_ID_5020960.mp4	0.0	143.7965109348297	0.2666749954223633
30	86.84943199157715	response	0	4		28.0	2.5	/experiments/knapen_aot/oldvideos/R_S_production_ID_5020960.mp4	0.0	144.05496406555176	
30	86.85765385627747	movie	1		188.0	28.0	2.5	/experiments/knapen_aot/oldvideos/R_S_production_ID_5020960.mp4	0.0	144.06318593025208	2.5083601474761963
30	89.36601400375366	fix_post	2		12.0	28.0	2.5	/experiments/knapen_aot/oldvideos/R_S_production_ID_5020960.mp4	0.0	146.57154607772827	0.09999990463256836
31	89.46601390838623	fix_pre	0		19.0	29.0	2.5	/experiments/knapen_aot/oldvideos/R_S_yt-ni4JaYu7PhU_6.mp4	0.0	146.67154598236084	0.15826892852783203
31	89.61595487594604	response	0	4		29.0	2.5	/experiments/knapen_aot/oldvideos/R_S_yt-ni4JaYu7PhU_6.mp4	0.0	146.82148694992065	
31	89.62428283691406	movie	1		301.0	29.0	2.5	/experiments/knapen_aot/oldvideos/R_S_yt-ni4JaYu7PhU_6.mp4	0.0	146.82981491088867	2.5084049701690674
31	92.13268780708313	fix_post	2		12.0	29.0	2.5	/experiments/knapen_aot/oldvideos/R_S_yt-ni4JaYu7PhU_6.mp4	0.0	149.33821988105774	0.100006103515625
32	92.23269391059875	fix_pre	0		27.0	30.0	2.5	/experiments/knapen_aot/oldvideos/R_S_yt-_Hnr82bYGEQ_103.mp4	0.0	149.43822598457336	0.22487592697143555
32	92.44944190979004	response	0	4		30.0	2.5	/experiments/knapen_aot/oldvideos/R_S_yt-_Hnr82bYGEQ_103.mp4	0.0	149.65497398376465	
32	92.45756983757019	movie	1		301.0	30.0	2.5	/experiments/knapen_aot/oldvideos/R_S_yt-_Hnr82bYGEQ_103.mp4	0.0	149.6631019115448	2.508419990539551
32	94.96598982810974	fix_post	2		12.0	30.0	2.5	/experiments/knapen_aot/oldvideos/R_S_yt-_Hnr82bYGEQ_103.mp4	0.0	152.17152190208435	0.09994816780090332
33	95.06593799591064	fix_pre	0		14.0	31.0	2.5	/experiments/knapen_aot/oldvideos/S_yt-1Xbcf0BPT-g_57.mp4	0.0	152.27147006988525	0.1166999340057373
33	95.174400806427	response	0	4		31.0	2.5	/experiments/knapen_aot/oldvideos/S_yt-1Xbcf0BPT-g_57.mp4	0.0	152.3799328804016	
33	95.18263792991638	movie	1		301.0	31.0	2.5	/experiments/knapen_aot/oldvideos/S_yt-1Xbcf0BPT-g_57.mp4	0.0	152.388170003891	2.5085089206695557
33	97.69114685058594	fix_post	2		12.0	31.0	2.5	/experiments/knapen_aot/oldvideos/S_yt-1Xbcf0BPT-g_57.mp4	0.0	154.89667892456055	0.09981703758239746
34	97.79096388816833	fix_pre	0		21.0	32.0	2.5	/experiments/knapen_aot/oldvideos/S_yt-6DJulOrg2-8_122.mp4	0.0	154.99649596214294	0.1749570369720459
34	97.95775580406189	response	0	4		32.0	2.5	/experiments/knapen_aot/oldvideos/S_yt-6DJulOrg2-8_122.mp4	0.0	155.1632878780365	
34	97.96592092514038	movie	1		301.0	32.0	2.5	/experiments/knapen_aot/oldvideos/S_yt-6DJulOrg2-8_122.mp4	0.0	155.171452999115	2.508296012878418
34	100.4742169380188	fix_post	2		12.0	32.0	2.5	/experiments/knapen_aot/oldvideos/S_yt-6DJulOrg2-8_122.mp4	0.0	157.6797490119934	0.10003900527954102
35	100.57425594329834	fix_pre	0		31.0	33.0	2.5	/experiments/knapen_aot/oldvideos/S_ILSVRC2015_train_00446000.mp4	0.0	157.77978801727295	0.25830602645874023
35	100.82433795928955	response	0	4		33.0	2.5	/experiments/knapen_aot/oldvideos/S_ILSVRC2015_train_00446000.mp4	0.0	158.02987003326416	
35	100.83256196975708	movie	1		301.0	33.0	2.5	/experiments/knapen_aot/oldvideos/S_ILSVRC2015_train_00446000.mp4	0.0	158.0380940437317	2.508349895477295
35	103.34091186523438	fix_post	2		12.0	33.0	2.5	/experiments/knapen_aot/oldvideos/S_ILSVRC2015_train_00446000.mp4	0.0	160.54644393920898	0.10022616386413574
36	103.44113802909851	fix_pre	0		23.0	34.0	2.5	blank	1.0	160.64667010307312	0.19141483306884766
36	103.62431693077087	response	0	4		34.0	2.5	blank	1.0	160.82984900474548	
36	103.63255286216736	movie	1		301.0	34.0	2.5	blank	1.0	160.83808493614197	2.508327007293701
36	106.14087986946106	fix_post	2		12.0	34.0	2.5	blank	1.0	163.34641194343567	0.1000370979309082
37	106.24091696739197	fix_pre	0		62.0	35.0	2.5	/experiments/knapen_aot/oldvideos/R_S_yt-LGwEki4ghNw_69.mp4	0.0	163.44644904136658	0.5166349411010742
37	106.74925088882446	response	0	2		35.0	2.5	/experiments/knapen_aot/oldvideos/R_S_yt-LGwEki4ghNw_69.mp4	0.0	163.95478296279907	
37	106.75755190849304	movie	1		301.0	35.0	2.5	/experiments/knapen_aot/oldvideos/R_S_yt-LGwEki4ghNw_69.mp4	0.0	163.96308398246765	2.5084009170532227
37	109.26595282554626	fix_post	2		12.0	35.0	2.5	/experiments/knapen_aot/oldvideos/R_S_yt-LGwEki4ghNw_69.mp4	0.0	166.47148489952087	0.09989500045776367
38	109.36584782600403	fix_pre	0		21.0	36.0	2.5	/experiments/knapen_aot/oldvideos/S_yt-3EZOeAbiMQE_10.mp4	0.0	166.57137989997864	0.17500710487365723
38	109.52510094642639	response	0	2		36.0	2.5	/experiments/knapen_aot/oldvideos/S_yt-3EZOeAbiMQE_10.mp4	0.0	166.730633020401	
38	109.54085493087769	movie	1		301.0	36.0	2.5	/experiments/knapen_aot/oldvideos/S_yt-3EZOeAbiMQE_10.mp4	0.0	166.7463870048523	2.5083611011505127
38	112.0492160320282	fix_post	2		12.0	36.0	2.5	/experiments/knapen_aot/oldvideos/S_yt-3EZOeAbiMQE_10.mp4	0.0	169.2547481060028	0.10014677047729492
39	112.1493628025055	fix_pre	0		30.0	37.0	2.5	/experiments/knapen_aot/oldvideos/S_AK_A004_C012_SDR_20191217_SDR_2K_AVC.mp4	0.0	169.3548948764801	0.2497851848602295
39	112.38347101211548	response	0	2		37.0	2.5	/experiments/knapen_aot/oldvideos/S_AK_A004_C012_SDR_20191217_SDR_2K_AVC.mp4	0.0	169.5890030860901	
39	112.39914798736572	movie	1		163.0	37.0	2.5	/experiments/knapen_aot/oldvideos/S_AK_A004_C012_SDR_20191217_SDR_2K_AVC.mp4	0.0	169.60468006134033	2.508375883102417
39	114.90752387046814	fix_post	2		12.0	37.0	2.5	/experiments/knapen_aot/oldvideos/S_AK_A004_C012_SDR_20191217_SDR_2K_AVC.mp4	0.0	172.11305594444275	0.09992599487304688
40	115.00744986534119	fix_pre	0		16.0	38.0	2.5	/experiments/knapen_aot/oldvideos/R_S_flickr-reginahart-31964450591_23.mp4	0.0	172.2129819393158	0.1333780288696289
40	115.13268184661865	response	0	2		38.0	2.5	/experiments/knapen_aot/oldvideos/R_S_flickr-reginahart-31964450591_23.mp4	0.0	172.33821392059326	
40	115.14082789421082	movie	1		177.0	38.0	2.5	/experiments/knapen_aot/oldvideos/R_S_flickr-reginahart-31964450591_23.mp4	0.0	172.34635996818542	2.5082640647888184
40	117.64909195899963	fix_post	2		12.0	38.0	2.5	/experiments/knapen_aot/oldvideos/R_S_flickr-reginahart-31964450591_23.mp4	0.0	174.85462403297424	0.10010004043579102
41	117.74919199943542	fix_pre	0		10.0	39.0	2.5	/experiments/knapen_aot/oldvideos/S_yt-mI9voWol7cE_104.mp4	0.0	174.95472407341003	0.08324694633483887
41	117.82430291175842	response	0	2		39.0	2.5	/experiments/knapen_aot/oldvideos/S_yt-mI9voWol7cE_104.mp4	0.0	175.02983498573303	
41	117.83243894577026	movie	1		301.0	39.0	2.5	/experiments/knapen_aot/oldvideos/S_yt-mI9voWol7cE_104.mp4	0.0	175.03797101974487	2.5083858966827393
41	120.340824842453	fix_post	2		12.0	39.0	2.5	/experiments/knapen_aot/oldvideos/S_yt-mI9voWol7cE_104.mp4	0.0	177.5463569164276	0.10003805160522461
42	120.44086289405823	fix_pre	0		41.0	40.0	2.5	/experiments/knapen_aot/oldvideos/R_S_yt-ZE8Af60eNsI_15.mp4	0.0	177.64639496803284	0.34181809425354004
42	120.77441596984863	response	0	2		40.0	2.5	/experiments/knapen_aot/oldvideos/R_S_yt-ZE8Af60eNsI_15.mp4	0.0	177.97994804382324	
42	120.78268098831177	movie	1		301.0	40.0	2.5	/experiments/knapen_aot/oldvideos/R_S_yt-ZE8Af60eNsI_15.mp4	0.0	177.98821306228638	2.5081160068511963
42	123.29079699516296	fix_post	2		12.0	40.0	2.5	/experiments/knapen_aot/oldvideos/R_S_yt-ZE8Af60eNsI_15.mp4	0.0	180.49632906913757	0.09999489784240723
43	123.39079189300537	fix_pre	0		36.0	41.0	2.5	/experiments/knapen_aot/oldvideos/R_S_wc-8bTJmWfuVyJ4_8.mp4	0.0	180.59632396697998	0.2999551296234131
43	123.68258094787598	response	0	2		41.0	2.5	/experiments/knapen_aot/oldvideos/R_S_wc-8bTJmWfuVyJ4_8.mp4	0.0	180.8881130218506	
43	123.69074702262878	movie	1		166.0	41.0	2.5	/experiments/knapen_aot/oldvideos/R_S_wc-8bTJmWfuVyJ4_8.mp4	0.0	180.8962790966034	2.5084378719329834
43	126.19918489456177	fix_post	2		12.0	41.0	2.5	/experiments/knapen_aot/oldvideos/R_S_wc-8bTJmWfuVyJ4_8.mp4	0.0	183.40471696853638	0.09992694854736328
44	126.29911184310913	fix_pre	0		37.0	42.0	2.5	blank	1.0	183.50464391708374	0.308319091796875
44	126.59928393363953	response	0	2		42.0	2.5	blank	1.0	183.80481600761414	
44	126.607430934906	movie	1		301.0	42.0	2.5	blank	1.0	183.81296300888062	2.5083420276641846
44	129.1157729625702	fix_post	2		12.0	42.0	2.5	blank	1.0	186.3213050365448	0.10001397132873535
45	129.21578693389893	fix_pre	0		61.0	43.0	2.5	/experiments/knapen_aot/oldvideos/S_yt-ebylvieB_4g_16.mp4	0.0	186.42131900787354	0.5082809925079346
45	129.7082760334015	response	0	2		43.0	2.5	/experiments/knapen_aot/oldvideos/S_yt-ebylvieB_4g_16.mp4	0.0	186.9138081073761	
45	129.72406792640686	movie	1		301.0	43.0	2.5	/experiments/knapen_aot/oldvideos/S_yt-ebylvieB_4g_16.mp4	0.0	186.92960000038147	2.5084140300750732
45	132.23248195648193	fix_post	2		12.0	43.0	2.5	/experiments/knapen_aot/oldvideos/S_yt-ebylvieB_4g_16.mp4	0.0	189.43801403045654	0.0999760627746582
46	132.3324580192566	fix_pre	0		75.0	44.0	2.5	/experiments/knapen_aot/oldvideos/S_yt-RVoC19C420Y_27.mp4	0.0	189.5379900932312	0.6249639987945557
46	132.94914984703064	response	0	2		44.0	2.5	/experiments/knapen_aot/oldvideos/S_yt-RVoC19C420Y_27.mp4	0.0	190.15468192100525	
46	132.95742201805115	movie	1		301.0	44.0	2.5	/experiments/knapen_aot/oldvideos/S_yt-RVoC19C420Y_27.mp4	0.0	190.16295409202576	2.508330821990967
46	135.09085392951965	response	1	2		44.0	2.5	/experiments/knapen_aot/oldvideos/S_yt-RVoC19C420Y_27.mp4	0.0	192.29638600349426	
46	135.46575284004211	fix_post	2		12.0	44.0	2.5	/experiments/knapen_aot/oldvideos/S_yt-RVoC19C420Y_27.mp4	0.0	192.67128491401672	0.1000211238861084
47	135.56577396392822	fix_pre	0		40.0	45.0	2.5	/experiments/knapen_aot/oldvideos/S_yt-35i8UeYXjGw_47.mp4	0.0	192.77130603790283	0.33324599266052246
47	135.8908348083496	response	0	2		45.0	2.5	/experiments/knapen_aot/oldvideos/S_yt-35i8UeYXjGw_47.mp4	0.0	193.09636688232422	
47	135.89901995658875	movie	1		301.0	45.0	2.5	/experiments/knapen_aot/oldvideos/S_yt-35i8UeYXjGw_47.mp4	0.0	193.10455203056335	2.509028911590576
47	138.40804886817932	fix_post	2		12.0	45.0	2.5	/experiments/knapen_aot/oldvideos/S_yt-35i8UeYXjGw_47.mp4	0.0	195.61358094215393	0.09935212135314941
48	138.50740098953247	fix_pre	0		47.0	46.0	2.5	/experiments/knapen_aot/oldvideos/R_S_comp_LA_A009_C009_PSNK_v02_SDR_PS_FINAL_20180709_SDR_2K_AVC.mp4	0.0	195.71293306350708	0.39174604415893555
48	138.89083790779114	response	0	2		46.0	2.5	/experiments/knapen_aot/oldvideos/R_S_comp_LA_A009_C009_PSNK_v02_SDR_PS_FINAL_20180709_SDR_2K_AVC.mp4	0.0	196.09636998176575	
48	138.8991470336914	movie	1		166.0	46.0	2.5	/experiments/knapen_aot/oldvideos/R_S_comp_LA_A009_C009_PSNK_v02_SDR_PS_FINAL_20180709_SDR_2K_AVC.mp4	0.0	196.10467910766602	2.50846791267395
48	141.40761494636536	fix_post	2		12.0	46.0	2.5	/experiments/knapen_aot/oldvideos/R_S_comp_LA_A009_C009_PSNK_v02_SDR_PS_FINAL_20180709_SDR_2K_AVC.mp4	0.0	198.61314702033997	0.1000509262084961
49	141.50766587257385	fix_pre	0		23.0	47.0	2.5	blank	1.0	198.71319794654846	0.1915431022644043
49	141.69087290763855	response	0	2		47.0	2.5	blank	1.0	198.89640498161316	
49	141.69920897483826	movie	1		301.0	47.0	2.5	blank	1.0	198.90474104881287	2.5082168579101562
49	144.2074258327484	fix_post	2		12.0	47.0	2.5	blank	1.0	201.41295790672302	0.09995508193969727
50	144.3073809146881	fix_pre	0		276.0	48.0	2.5	/experiments/knapen_aot/oldvideos/S_yt-v66td-1WO7w_44.mp4	0.0	201.51291298866272	2.299962043762207
50	146.59915900230408	response	0	2		48.0	2.5	/experiments/knapen_aot/oldvideos/S_yt-v66td-1WO7w_44.mp4	0.0	203.8046910762787	
50	146.60734295845032	movie	1		301.0	48.0	2.5	/experiments/knapen_aot/oldvideos/S_yt-v66td-1WO7w_44.mp4	0.0	203.81287503242493	2.508574962615967
50	149.11591792106628	fix_post	2		12.0	48.0	2.5	/experiments/knapen_aot/oldvideos/S_yt-v66td-1WO7w_44.mp4	0.0	206.3214499950409	0.09978199005126953
51	149.21569991111755	fix_pre	0		15.0	49.0	2.5	/experiments/knapen_aot/oldvideos/R_S_yt-YTQXM5ZjRgg_116.mp4	0.0	206.42123198509216	0.12497711181640625
51	149.33243083953857	response	0	2		49.0	2.5	/experiments/knapen_aot/oldvideos/R_S_yt-YTQXM5ZjRgg_116.mp4	0.0	206.53796291351318	
51	149.34067702293396	movie	1		301.0	49.0	2.5	/experiments/knapen_aot/oldvideos/R_S_yt-YTQXM5ZjRgg_116.mp4	0.0	206.54620909690857	2.508342981338501
51	151.84902000427246	fix_post	2		12.0	49.0	2.5	/experiments/knapen_aot/oldvideos/R_S_yt-YTQXM5ZjRgg_116.mp4	0.0	209.05455207824707	0.10018491744995117
52	151.9492049217224	fix_pre	0		27.0	50.0	2.5	/experiments/knapen_aot/oldvideos/S_yt-WASlRH1zA8c_175.mp4	0.0	209.15473699569702	0.224776029586792
52	152.16580986976624	response	0	2		50.0	2.5	/experiments/knapen_aot/oldvideos/S_yt-WASlRH1zA8c_175.mp4	0.0	209.37134194374084	
52	152.1739809513092	movie	1		301.0	50.0	2.5	/experiments/knapen_aot/oldvideos/S_yt-WASlRH1zA8c_175.mp4	0.0	209.3795130252838	2.5083940029144287
52	154.68237495422363	fix_post	2		12.0	50.0	2.5	/experiments/knapen_aot/oldvideos/S_yt-WASlRH1zA8c_175.mp4	0.0	211.88790702819824	0.1001129150390625
53	154.7824878692627	fix_pre	0		20.0	51.0	2.5	/experiments/knapen_aot/oldvideos/R_S_ILSVRC2015_train_00725000.mp4	0.0	211.9880199432373	0.16656804084777832
53	154.9406988620758	response	0	2		51.0	2.5	/experiments/knapen_aot/oldvideos/R_S_ILSVRC2015_train_00725000.mp4	0.0	212.14623093605042	
53	154.94905591011047	movie	1		301.0	51.0	2.5	/experiments/knapen_aot/oldvideos/R_S_ILSVRC2015_train_00725000.mp4	0.0	212.15458798408508	2.5082759857177734
53	157.45733189582825	fix_post	2		12.0	51.0	2.5	/experiments/knapen_aot/oldvideos/R_S_ILSVRC2015_train_00725000.mp4	0.0	214.66286396980286	0.10002493858337402
54	157.55735683441162	fix_pre	0		105.0	52.0	2.5	/experiments/knapen_aot/oldvideos/R_S_yt-WASlRH1zA8c_175.mp4	0.0	214.76288890838623	0.87496018409729
54	158.42412090301514	response	0	2		52.0	2.5	/experiments/knapen_aot/oldvideos/R_S_yt-WASlRH1zA8c_175.mp4	0.0	215.62965297698975	
54	158.4323170185089	movie	1		301.0	52.0	2.5	/experiments/knapen_aot/oldvideos/R_S_yt-WASlRH1zA8c_175.mp4	0.0	215.63784909248352	2.50837779045105
54	160.94069480895996	fix_post	2		12.0	52.0	2.5	/experiments/knapen_aot/oldvideos/R_S_yt-WASlRH1zA8c_175.mp4	0.0	218.14622688293457	0.10007905960083008
55	161.0407738685608	fix_pre	0		47.0	53.0	2.5	/experiments/knapen_aot/oldvideos/S_yt-VinOD6g7xEc_135.mp4	0.0	218.2463059425354	0.3915259838104248
55	161.42408895492554	response	0	2		53.0	2.5	/experiments/knapen_aot/oldvideos/S_yt-VinOD6g7xEc_135.mp4	0.0	218.62962102890015	
55	161.43229985237122	movie	1		301.0	53.0	2.5	/experiments/knapen_aot/oldvideos/S_yt-VinOD6g7xEc_135.mp4	0.0	218.63783192634583	2.5083110332489014
55	163.94061088562012	fix_post	2		12.0	53.0	2.5	/experiments/knapen_aot/oldvideos/S_yt-VinOD6g7xEc_135.mp4	0.0	221.14614295959473	0.10007309913635254
56	164.04068398475647	fix_pre	0		37.0	54.0	2.5	blank	1.0	221.24621605873108	0.3083028793334961
56	164.34070086479187	response	0	2		54.0	2.5	blank	1.0	221.54623293876648	
56	164.34898686408997	movie	1		301.0	54.0	2.5	blank	1.0	221.55451893806458	2.5083041191101074
56	166.85729098320007	fix_post	2		12.0	54.0	2.5	blank	1.0	224.06282305717468	0.10000896453857422
57	166.95729994773865	fix_pre	0		111.0	55.0	2.5	/experiments/knapen_aot/oldvideos/S_yt-35i8UeYXjGw_47.mp4	0.0	224.16283202171326	0.9249529838562012
57	167.87408590316772	response	0	2		55.0	2.5	/experiments/knapen_aot/oldvideos/S_yt-35i8UeYXjGw_47.mp4	0.0	225.07961797714233	
57	167.88225293159485	movie	1		301.0	55.0	2.5	/experiments/knapen_aot/oldvideos/S_yt-35i8UeYXjGw_47.mp4	0.0	225.08778500556946	2.5084218978881836
57	170.39067482948303	fix_post	2		12.0	55.0	2.5	/experiments/knapen_aot/oldvideos/S_yt-35i8UeYXjGw_47.mp4	0.0	227.59620690345764	0.09999418258666992
58	170.4906690120697	fix_pre	0		27.0	56.0	2.5	/experiments/knapen_aot/oldvideos/R_S_yt-NFb0SUCeiro_158.mp4	0.0	227.6962010860443	0.2248668670654297
58	170.6998369693756	response	0	2		56.0	2.5	/experiments/knapen_aot/oldvideos/R_S_yt-NFb0SUCeiro_158.mp4	0.0	227.90536904335022	
58	170.71553587913513	movie	1		301.0	56.0	2.5	/experiments/knapen_aot/oldvideos/R_S_yt-NFb0SUCeiro_158.mp4	0.0	227.92106795310974	2.508423089981079
58	173.2239589691162	fix_post	2		12.0	56.0	2.5	/experiments/knapen_aot/oldvideos/R_S_yt-NFb0SUCeiro_158.mp4	0.0	230.42949104309082	0.10006999969482422
59	173.32402896881104	fix_pre	0		13.0	57.0	2.5	/experiments/knapen_aot/oldvideos/S_gHYomsO1dSU_5.mp4	0.0	230.52956104278564	0.1082010269165039
59	173.42405700683594	response	0	2		57.0	2.5	/experiments/knapen_aot/oldvideos/S_gHYomsO1dSU_5.mp4	0.0	230.62958908081055	
59	173.43222999572754	movie	1		301.0	57.0	2.5	/experiments/knapen_aot/oldvideos/S_gHYomsO1dSU_5.mp4	0.0	230.63776206970215	2.5084550380706787
59	175.94068503379822	fix_post	2		12.0	57.0	2.5	/experiments/knapen_aot/oldvideos/S_gHYomsO1dSU_5.mp4	0.0	233.14621710777283	0.09995293617248535
60	176.0406379699707	fix_pre	0		21.0	58.0	2.5	/experiments/knapen_aot/oldvideos/R_S_yt-aiwDdJm1ek8_90.mp4	0.0	233.2461700439453	0.17490196228027344
60	176.20730185508728	response	0	2		58.0	2.5	/experiments/knapen_aot/oldvideos/R_S_yt-aiwDdJm1ek8_90.mp4	0.0	233.4128339290619	
60	176.21553993225098	movie	1		301.0	58.0	2.5	/experiments/knapen_aot/oldvideos/R_S_yt-aiwDdJm1ek8_90.mp4	0.0	233.4210720062256	2.508394956588745
60	178.72393488883972	fix_post	2		12.0	58.0	2.5	/experiments/knapen_aot/oldvideos/R_S_yt-aiwDdJm1ek8_90.mp4	0.0	235.92946696281433	0.09996891021728516
61	178.823903799057	fix_pre	0		28.0	59.0	2.5	/experiments/knapen_aot/oldvideos/R_S_yt--jzScB82vKI_212.mp4	0.0	236.02943587303162	0.23330903053283691
61	179.04907298088074	response	0	2		59.0	2.5	/experiments/knapen_aot/oldvideos/R_S_yt--jzScB82vKI_212.mp4	0.0	236.25460505485535	
61	179.05721282958984	movie	1		301.0	59.0	2.5	/experiments/knapen_aot/oldvideos/R_S_yt--jzScB82vKI_212.mp4	0.0	236.26274490356445	2.508380174636841
61	181.56559300422668	fix_post	2		12.0	59.0	2.5	/experiments/knapen_aot/oldvideos/R_S_yt--jzScB82vKI_212.mp4	0.0	238.7711250782013	0.09996795654296875
62	181.66556096076965	fix_pre	0		14.0	60.0	2.5	/experiments/knapen_aot/oldvideos/S_yt-zSSnQYeO_DE_338.mp4	0.0	238.87109303474426	0.11655807495117188
62	181.7739918231964	response	0	2		60.0	2.5	/experiments/knapen_aot/oldvideos/S_yt-zSSnQYeO_DE_338.mp4	0.0	238.97952389717102	
62	181.78211903572083	movie	1		301.0	60.0	2.5	/experiments/knapen_aot/oldvideos/S_yt-zSSnQYeO_DE_338.mp4	0.0	238.98765110969543	2.508389949798584
62	184.2905089855194	fix_post	2		12.0	60.0	2.5	/experiments/knapen_aot/oldvideos/S_yt-zSSnQYeO_DE_338.mp4	0.0	241.49604105949402	0.10010290145874023
63	184.39061188697815	fix_pre	0		42.0	61.0	2.5	/experiments/knapen_aot/oldvideos/R_S_yt-RVoC19C420Y_27.mp4	0.0	241.59614396095276	0.3500509262084961
63	184.7323088645935	response	0	2		61.0	2.5	/experiments/knapen_aot/oldvideos/R_S_yt-RVoC19C420Y_27.mp4	0.0	241.93784093856812	
63	184.74066281318665	movie	1		301.0	61.0	2.5	/experiments/knapen_aot/oldvideos/R_S_yt-RVoC19C420Y_27.mp4	0.0	241.94619488716125	2.5082640647888184
63	187.24892687797546	fix_post	2		12.0	61.0	2.5	/experiments/knapen_aot/oldvideos/R_S_yt-RVoC19C420Y_27.mp4	0.0	244.45445895195007	0.09996914863586426
64	187.34889602661133	fix_pre	0		21.0	62.0	2.5	blank	1.0	244.55442810058594	0.1749727725982666
64	187.51561284065247	response	0	2		62.0	2.5	blank	1.0	244.72114491462708	
64	187.5238687992096	movie	1		301.0	62.0	2.5	blank	1.0	244.7294008731842	2.508327007293701
64	190.0321958065033	fix_post	2		12.0	62.0	2.5	blank	1.0	247.2377278804779	0.10026907920837402
65	190.13246488571167	fix_pre	0		36.0	63.0	2.5	/experiments/knapen_aot/oldvideos/S_yt-hRAqAwRhmwE_58.mp4	0.0	247.33799695968628	0.29972100257873535
65	190.42398691177368	response	0	2		63.0	2.5	/experiments/knapen_aot/oldvideos/S_yt-hRAqAwRhmwE_58.mp4	0.0	247.6295189857483	
65	190.4321858882904	movie	1		301.0	63.0	2.5	/experiments/knapen_aot/oldvideos/S_yt-hRAqAwRhmwE_58.mp4	0.0	247.63771796226501	2.508270025253296
65	192.9404559135437	fix_post	2		12.0	63.0	2.5	/experiments/knapen_aot/oldvideos/S_yt-hRAqAwRhmwE_58.mp4	0.0	250.1459879875183	0.10005593299865723
66	193.04051184654236	fix_pre	0		15.0	64.0	2.5	/experiments/knapen_aot/oldvideos/S_wc-_W9iefBXz8bi_23.mp4	0.0	250.24604392051697	0.1249699592590332
66	193.1573657989502	response	0	2		64.0	2.5	/experiments/knapen_aot/oldvideos/S_wc-_W9iefBXz8bi_23.mp4	0.0	250.3628978729248	
66	193.1654818058014	movie	1		166.0	64.0	2.5	/experiments/knapen_aot/oldvideos/S_wc-_W9iefBXz8bi_23.mp4	0.0	250.371013879776	2.5083889961242676
66	195.67387080192566	fix_post	2		12.0	64.0	2.5	/experiments/knapen_aot/oldvideos/S_wc-_W9iefBXz8bi_23.mp4	0.0	252.87940287590027	0.09998822212219238
67	195.77385902404785	fix_pre	0		23.0	65.0	2.5	/experiments/knapen_aot/oldvideos/R_S_pexels-koolshooters-7327412.mp4	0.0	252.97939109802246	0.19157195091247559
67	195.957288980484	response	0	2		65.0	2.5	/experiments/knapen_aot/oldvideos/R_S_pexels-koolshooters-7327412.mp4	0.0	253.16282105445862	
67	195.96543097496033	movie	1		165.0	65.0	2.5	/experiments/knapen_aot/oldvideos/R_S_pexels-koolshooters-7327412.mp4	0.0	253.17096304893494	2.5083959102630615
67	198.4738268852234	fix_post	2		12.0	65.0	2.5	/experiments/knapen_aot/oldvideos/R_S_pexels-koolshooters-7327412.mp4	0.0	255.679358959198	0.10001707077026367
68	198.57384395599365	fix_pre	0		13.0	66.0	2.5	/experiments/knapen_aot/oldvideos/S_yt-BLmwmX-mni8_56.mp4	0.0	255.77937602996826	0.10830402374267578
68	198.67398691177368	response	0	2		66.0	2.5	/experiments/knapen_aot/oldvideos/S_yt-BLmwmX-mni8_56.mp4	0.0	255.8795189857483	
68	198.68214797973633	movie	1		301.0	66.0	2.5	/experiments/knapen_aot/oldvideos/S_yt-BLmwmX-mni8_56.mp4	0.0	255.88768005371094	2.5084228515625
68	201.19057083129883	fix_post	2		12.0	66.0	2.5	/experiments/knapen_aot/oldvideos/S_yt-BLmwmX-mni8_56.mp4	0.0	258.39610290527344	0.09993410110473633
69	201.29050493240356	fix_pre	0		92.0	67.0	2.5	/experiments/knapen_aot/oldvideos/S_pexels-cottonbro-5310858.mp4	0.0	258.4960370063782	0.7666170597076416
69	202.0488588809967	response	0	2		67.0	2.5	/experiments/knapen_aot/oldvideos/S_pexels-cottonbro-5310858.mp4	0.0	259.2543909549713	
69	202.0571219921112	movie	1		165.0	67.0	2.5	/experiments/knapen_aot/oldvideos/S_pexels-cottonbro-5310858.mp4	0.0	259.2626540660858	2.508335828781128
69	204.56545782089233	fix_post	2		12.0	67.0	2.5	/experiments/knapen_aot/oldvideos/S_pexels-cottonbro-5310858.mp4	0.0	261.77098989486694	0.10011410713195801
70	204.6655719280243	fix_pre	0		25.0	68.0	2.5	/experiments/knapen_aot/oldvideos/R_S_yt-BLmwmX-mni8_1030.mp4	0.0	261.8711040019989	0.208143949508667
70	204.865553855896	response	0	4		68.0	2.5	/experiments/knapen_aot/oldvideos/R_S_yt-BLmwmX-mni8_1030.mp4	0.0	262.0710859298706	
70	204.87371587753296	movie	1		301.0	68.0	2.5	/experiments/knapen_aot/oldvideos/R_S_yt-BLmwmX-mni8_1030.mp4	0.0	262.07924795150757	2.5083489418029785
70	207.38206481933594	fix_post	2		12.0	68.0	2.5	/experiments/knapen_aot/oldvideos/R_S_yt-BLmwmX-mni8_1030.mp4	0.0	264.58759689331055	0.10008406639099121
71	207.48214888572693	fix_pre	0		24.0	69.0	2.5	blank	1.0	264.68768095970154	0.1999521255493164
71	207.6665289402008	response	0	4		69.0	2.5	blank	1.0	264.8720610141754	
71	207.68210101127625	movie	1		301.0	69.0	2.5	blank	1.0	264.88763308525085	2.5083467960357666
71	210.190447807312	fix_post	2		12.0	69.0	2.5	blank	1.0	267.3959798812866	0.10001516342163086
72	210.29046297073364	fix_pre	0		30.0	70.0	2.5	/experiments/knapen_aot/oldvideos/R_S_yt-5rC42egLl5E_387.mp4	0.0	267.49599504470825	0.24996089935302734
72	210.53214287757874	response	0	2		70.0	2.5	/experiments/knapen_aot/oldvideos/R_S_yt-5rC42egLl5E_387.mp4	0.0	267.73767495155334	
72	210.54042387008667	movie	1		301.0	70.0	2.5	/experiments/knapen_aot/oldvideos/R_S_yt-5rC42egLl5E_387.mp4	0.0	267.7459559440613	2.508324146270752
72	213.04874801635742	fix_post	2		12.0	70.0	2.5	/experiments/knapen_aot/oldvideos/R_S_yt-5rC42egLl5E_387.mp4	0.0	270.25428009033203	0.10017180442810059
73	213.14891982078552	fix_pre	0		31.0	71.0	2.5	/experiments/knapen_aot/oldvideos/R_S_yt-3E02UEHdoZ4_752.mp4	0.0	270.35445189476013	0.25806117057800293
73	213.39883089065552	response	0	2		71.0	2.5	/experiments/knapen_aot/oldvideos/R_S_yt-3E02UEHdoZ4_752.mp4	0.0	270.6043629646301	
73	213.40698099136353	movie	1		301.0	71.0	2.5	/experiments/knapen_aot/oldvideos/R_S_yt-3E02UEHdoZ4_752.mp4	0.0	270.61251306533813	2.5083749294281006
73	215.91535592079163	fix_post	2		12.0	71.0	2.5	/experiments/knapen_aot/oldvideos/R_S_yt-3E02UEHdoZ4_752.mp4	0.0	273.12088799476624	0.10006594657897949
74	216.0154218673706	fix_pre	0		13.0	72.0	2.5	/experiments/knapen_aot/oldvideos/S_video_inspire_texas_pecos_foggy-landscape_00018.1080-h264.mp4	0.0	273.2209539413452	0.10833096504211426
74	216.11547780036926	response	0	2		72.0	2.5	/experiments/knapen_aot/oldvideos/S_video_inspire_texas_pecos_foggy-landscape_00018.1080-h264.mp4	0.0	273.3210098743439	
74	216.12375283241272	movie	1		164.0	72.0	2.5	/experiments/knapen_aot/oldvideos/S_video_inspire_texas_pecos_foggy-landscape_00018.1080-h264.mp4	0.0	273.32928490638733	2.508364200592041
74	218.63211703300476	fix_post	2		12.0	72.0	2.5	/experiments/knapen_aot/oldvideos/S_video_inspire_texas_pecos_foggy-landscape_00018.1080-h264.mp4	0.0	275.83764910697937	0.0999908447265625
75	218.73210787773132	fix_pre	0		63.0	73.0	2.5	/experiments/knapen_aot/oldvideos/R_S_ILSVRC2015_train_00446000.mp4	0.0	275.93763995170593	0.5249769687652588
75	219.2490439414978	response	0	2		73.0	2.5	/experiments/knapen_aot/oldvideos/R_S_ILSVRC2015_train_00446000.mp4	0.0	276.4545760154724	
75	219.25708484649658	movie	1		300.0	73.0	2.5	/experiments/knapen_aot/oldvideos/R_S_ILSVRC2015_train_00446000.mp4	0.0	276.4626169204712	2.5083441734313965
75	221.76542901992798	fix_post	2		12.0	73.0	2.5	/experiments/knapen_aot/oldvideos/R_S_ILSVRC2015_train_00446000.mp4	0.0	278.9709610939026	0.10000801086425781
76	221.86543703079224	fix_pre	0		32.0	74.0	2.5	/experiments/knapen_aot/oldvideos/R_S_yt--_ZMybcaUOw_254.mp4	0.0	279.07096910476685	0.2666349411010742
76	222.1239550113678	response	0	2		74.0	2.5	/experiments/knapen_aot/oldvideos/R_S_yt--_ZMybcaUOw_254.mp4	0.0	279.3294870853424	
76	222.1320719718933	movie	1		301.0	74.0	2.5	/experiments/knapen_aot/oldvideos/R_S_yt--_ZMybcaUOw_254.mp4	0.0	279.3376040458679	2.5083229541778564
76	224.64039492607117	fix_post	2		12.0	74.0	2.5	/experiments/knapen_aot/oldvideos/R_S_yt--_ZMybcaUOw_254.mp4	0.0	281.8459270000458	0.10000991821289062
77	224.74040484428406	fix_pre	0		49.0	75.0	2.5	blank	1.0	281.94593691825867	0.40830397605895996
77	225.14051580429077	response	0	2		75.0	2.5	blank	1.0	282.3460478782654	
77	225.14870882034302	movie	1		301.0	75.0	2.5	blank	1.0	282.3542408943176	2.5083231925964355
77	227.65703201293945	fix_post	2		12.0	75.0	2.5	blank	1.0	284.86256408691406	0.10004997253417969
78	227.75708198547363	fix_pre	0		23.0	76.0	2.5	/experiments/knapen_aot/oldvideos/S_yt-MSdNCUWOp4o_4.mp4	0.0	284.96261405944824	0.191572904586792
78	227.94044089317322	response	0	2		76.0	2.5	/experiments/knapen_aot/oldvideos/S_yt-MSdNCUWOp4o_4.mp4	0.0	285.1459729671478	
78	227.94865489006042	movie	1		301.0	76.0	2.5	/experiments/knapen_aot/oldvideos/S_yt-MSdNCUWOp4o_4.mp4	0.0	285.15418696403503	2.508345127105713
78	230.45700001716614	fix_post	2		12.0	76.0	2.5	/experiments/knapen_aot/oldvideos/S_yt-MSdNCUWOp4o_4.mp4	0.0	287.66253209114075	0.10004496574401855
79	230.55704498291016	fix_pre	0		33.0	77.0	2.5	/experiments/knapen_aot/oldvideos/R_S_pexels-cottonbro-6789231.mp4	0.0	287.76257705688477	0.27492690086364746
79	230.82375502586365	response	0	4		77.0	2.5	/experiments/knapen_aot/oldvideos/R_S_pexels-cottonbro-6789231.mp4	0.0	288.02928709983826	
79	230.8319718837738	movie	1		205.0	77.0	2.5	/experiments/knapen_aot/oldvideos/R_S_pexels-cottonbro-6789231.mp4	0.0	288.0375039577484	2.5084660053253174
79	233.34043788909912	fix_post	2		12.0	77.0	2.5	/experiments/knapen_aot/oldvideos/R_S_pexels-cottonbro-6789231.mp4	0.0	290.54596996307373	0.1010589599609375
80	233.44149684906006	fix_pre	0		11.0	78.0	2.5	/experiments/knapen_aot/oldvideos/S_comp_GMT308_139K_142NC_CARIBBEAN_DAY_v09_SDR_FINAL_22062018_SDR_2K_AVC.mp4	0.0	290.64702892303467	0.09064602851867676
80	233.52380800247192	response	0	4		78.0	2.5	/experiments/knapen_aot/oldvideos/S_comp_GMT308_139K_142NC_CARIBBEAN_DAY_v09_SDR_FINAL_22062018_SDR_2K_AVC.mp4	0.0	290.72934007644653	
80	233.53214287757874	movie	1		170.0	78.0	2.5	/experiments/knapen_aot/oldvideos/S_comp_GMT308_139K_142NC_CARIBBEAN_DAY_v09_SDR_FINAL_22062018_SDR_2K_AVC.mp4	0.0	290.73767495155334	2.5083091259002686
80	236.040452003479	fix_post	2		12.0	78.0	2.5	/experiments/knapen_aot/oldvideos/S_comp_GMT308_139K_142NC_CARIBBEAN_DAY_v09_SDR_FINAL_22062018_SDR_2K_AVC.mp4	0.0	293.2459840774536	0.09991288185119629
81	236.1403648853302	fix_pre	0		6.0	79.0	2.5	/experiments/knapen_aot/oldvideos/R_S_ILSVRC2015_train_00418001.mp4	0.0	293.3458969593048	0.050972938537597656
81	236.18214392662048	response	0	4		79.0	2.5	/experiments/knapen_aot/oldvideos/R_S_ILSVRC2015_train_00418001.mp4	0.0	293.3876760005951	
81	236.1913378238678	movie	1		301.0	79.0	2.5	/experiments/knapen_aot/oldvideos/R_S_ILSVRC2015_train_00418001.mp4	0.0	293.3968698978424	2.507341146469116
81	238.6986789703369	fix_post	2		12.0	79.0	2.5	/experiments/knapen_aot/oldvideos/R_S_ILSVRC2015_train_00418001.mp4	0.0	295.9042110443115	0.10004091262817383
82	238.7987198829651	fix_pre	0		15.0	80.0	2.5	/experiments/knapen_aot/oldvideos/R_S_video.mp4	0.0	296.0042519569397	0.12491106986999512
82	238.91549396514893	response	0	4		80.0	2.5	/experiments/knapen_aot/oldvideos/R_S_video.mp4	0.0	296.12102603912354	
82	238.92363095283508	movie	1		171.0	80.0	2.5	/experiments/knapen_aot/oldvideos/R_S_video.mp4	0.0	296.1291630268097	2.5084660053253174
82	241.4320969581604	fix_post	2		12.0	80.0	2.5	/experiments/knapen_aot/oldvideos/R_S_video.mp4	0.0	298.637629032135	0.0999460220336914
83	241.5320429801941	fix_pre	0		20.0	81.0	2.5	/experiments/knapen_aot/oldvideos/R_S_comp_A007_C017_01156B_v02_SDR_PS_20180925_SDR_2K_AVC.mp4	0.0	298.7375750541687	0.16661405563354492
83	241.6904640197754	response	0	4		81.0	2.5	/experiments/knapen_aot/oldvideos/R_S_comp_A007_C017_01156B_v02_SDR_PS_20180925_SDR_2K_AVC.mp4	0.0	298.89599609375	
83	241.69865703582764	movie	1		165.0	81.0	2.5	/experiments/knapen_aot/oldvideos/R_S_comp_A007_C017_01156B_v02_SDR_PS_20180925_SDR_2K_AVC.mp4	0.0	298.90418910980225	2.508330821990967
83	244.2069878578186	fix_post	2		12.0	81.0	2.5	/experiments/knapen_aot/oldvideos/R_S_comp_A007_C017_01156B_v02_SDR_PS_20180925_SDR_2K_AVC.mp4	0.0	301.4125199317932	0.10003113746643066
84	244.30701899528503	fix_pre	0		4.0	82.0	2.5	blank	1.0	301.51255106925964	0.033325910568237305
84	244.33216500282288	response	0	4		82.0	2.5	blank	1.0	301.5376970767975	
84	244.34034490585327	movie	1		301.0	82.0	2.5	blank	1.0	301.5458769798279	2.5083179473876953
84	246.84866285324097	fix_post	2		12.0	82.0	2.5	blank	1.0	304.0541949272156	0.09999608993530273
85	246.94865894317627	fix_pre	0		28.0	83.0	2.5	/experiments/knapen_aot/oldvideos/S_yt-1CV2cYtUlxE_57.mp4	0.0	304.1541910171509	0.23328900337219238
85	247.1737220287323	response	0	4		83.0	2.5	/experiments/knapen_aot/oldvideos/S_yt-1CV2cYtUlxE_57.mp4	0.0	304.3792541027069	
85	247.18194794654846	movie	1		301.0	83.0	2.5	/experiments/knapen_aot/oldvideos/S_yt-1CV2cYtUlxE_57.mp4	0.0	304.38748002052307	2.5084049701690674
85	249.69035291671753	fix_post	2		12.0	83.0	2.5	/experiments/knapen_aot/oldvideos/S_yt-1CV2cYtUlxE_57.mp4	0.0	306.89588499069214	0.10016608238220215
87	249.79051899909973	stim	0		338.0					306.99605107307434	2.8173868656158447
87	252.60384798049927	response	0	space						309.8093800544739	
