trial_nr	onset	event_type	phase	response	nr_frames	movie_index	movie_duration	movie_file	blank	onset_abs	duration
0	0.1661210060119629	stim	0		77.0					149.6754949092865	0.6416749954223633
0	0.7994940280914307	response	0	space						150.30886793136597	
1	0.8077960014343262	stim	0		121.0					150.31716990470886	1.0079069137573242
1	1.8157029151916504	stim	1		120.0					151.3250768184662	0.9999401569366455
1	2.6575140953063965	response	1	space						152.16688799858093	
2	2.815643072128296	fix_pre	0		85.0	0.0	2.5	/experiments/knapen_aot/videos/R_S_P005_C002_UHD_SDR_2K_AVC.mp4	0.0	152.32501697540283	0.7083590030670166
2	3.5158679485321045	response	0	space		0.0	2.5	/experiments/knapen_aot/videos/R_S_P005_C002_UHD_SDR_2K_AVC.mp4	0.0	153.02524185180664	
2	3.5240020751953125	movie	1		168.0	0.0	2.5	/experiments/knapen_aot/videos/R_S_P005_C002_UHD_SDR_2K_AVC.mp4	0.0	153.03337597846985	2.5083160400390625
2	6.032318115234375	fix_post	2		12.0	0.0	2.5	/experiments/knapen_aot/videos/R_S_P005_C002_UHD_SDR_2K_AVC.mp4	0.0	155.5416920185089	0.10001492500305176
3	6.132333040237427	fix_pre	0		37.0	1.0	2.5	/experiments/knapen_aot/videos/R_S_-vPHq-7BJ70_15.mp4	0.0	155.64170694351196	0.30837202072143555
3	6.433500051498413	response	0	4		1.0	2.5	/experiments/knapen_aot/videos/R_S_-vPHq-7BJ70_15.mp4	0.0	155.94287395477295	
3	6.440705060958862	movie	1		299.0	1.0	2.5	/experiments/knapen_aot/videos/R_S_-vPHq-7BJ70_15.mp4	0.0	155.9500789642334	2.5082879066467285
3	8.94899296760559	fix_post	2		12.0	1.0	2.5	/experiments/knapen_aot/videos/R_S_-vPHq-7BJ70_15.mp4	0.0	158.45836687088013	0.10003399848937988
4	9.04902696609497	fix_pre	0		30.0	2.0	2.5	/experiments/knapen_aot/videos/R_S_yt-VrEuTDQxtD0_226.mp4	0.0	158.5584008693695	0.24997496604919434
4	9.290795087814331	response	0	4		2.0	2.5	/experiments/knapen_aot/videos/R_S_yt-VrEuTDQxtD0_226.mp4	0.0	158.80016899108887	
4	9.299001932144165	movie	1		301.0	2.0	2.5	/experiments/knapen_aot/videos/R_S_yt-VrEuTDQxtD0_226.mp4	0.0	158.8083758354187	2.5083789825439453
4	11.80738091468811	fix_post	2		12.0	2.0	2.5	/experiments/knapen_aot/videos/R_S_yt-VrEuTDQxtD0_226.mp4	0.0	161.31675481796265	0.09995913505554199
5	11.907340049743652	fix_pre	0		25.0	3.0	2.5	/experiments/knapen_aot/videos/S_yt-Ev39pXXfr1Y_152.mp4	0.0	161.4167139530182	0.20833706855773926
5	12.107533931732178	response	0	4		3.0	2.5	/experiments/knapen_aot/videos/S_yt-Ev39pXXfr1Y_152.mp4	0.0	161.6169078350067	
5	12.115677118301392	movie	1		301.0	3.0	2.5	/experiments/knapen_aot/videos/S_yt-Ev39pXXfr1Y_152.mp4	0.0	161.62505102157593	2.508359909057617
5	14.624037027359009	fix_post	2		12.0	3.0	2.5	/experiments/knapen_aot/videos/S_yt-Ev39pXXfr1Y_152.mp4	0.0	164.13341093063354	0.09999608993530273
6	14.724033117294312	fix_pre	0		29.0	4.0	2.5	/experiments/knapen_aot/videos/S_comp_C004_C003_PS_v01_SDR_PS_20180925_SDR_2K_AVC.mp4	0.0	164.23340702056885	0.2416398525238037
6	14.957518100738525	response	0	4		4.0	2.5	/experiments/knapen_aot/videos/S_comp_C004_C003_PS_v01_SDR_PS_20180925_SDR_2K_AVC.mp4	0.0	164.46689200401306	
6	14.965672969818115	movie	1		163.0	4.0	2.5	/experiments/knapen_aot/videos/S_comp_C004_C003_PS_v01_SDR_PS_20180925_SDR_2K_AVC.mp4	0.0	164.47504687309265	2.5084950923919678
6	17.474168062210083	fix_post	2		12.0	4.0	2.5	/experiments/knapen_aot/videos/S_comp_C004_C003_PS_v01_SDR_PS_20180925_SDR_2K_AVC.mp4	0.0	166.98354196548462	0.09988284111022949
7	17.574050903320312	fix_pre	0		15.0	5.0	2.5	blank	1.0	167.08342480659485	0.12491607666015625
7	17.690762042999268	response	0	4		5.0	2.5	blank	1.0	167.2001359462738	
7	17.69896697998047	movie	1		301.0	5.0	2.5	blank	1.0	167.208340883255	2.5083320140838623
7	20.20729899406433	fix_post	2		12.0	5.0	2.5	blank	1.0	169.71667289733887	0.10000205039978027
8	20.30730104446411	fix_pre	0		38.0	6.0	2.5	/experiments/knapen_aot/videos/R_S_yt-Ul81y6R9YbE_12.mp4	0.0	169.81667494773865	0.31714606285095215
8	20.615839958190918	response	0	4		6.0	2.5	/experiments/knapen_aot/videos/R_S_yt-Ul81y6R9YbE_12.mp4	0.0	170.12521386146545	
8	20.624447107315063	movie	1		301.0	6.0	2.5	/experiments/knapen_aot/videos/R_S_yt-Ul81y6R9YbE_12.mp4	0.0	170.1338210105896	2.507887840270996
8	23.13233494758606	fix_post	2		12.0	6.0	2.5	/experiments/knapen_aot/videos/R_S_yt-Ul81y6R9YbE_12.mp4	0.0	172.6417088508606	0.099945068359375
9	23.232280015945435	fix_pre	0		23.0	7.0	2.5	/experiments/knapen_aot/videos/R_S_flickr-southeasternstar-3464778323_10.mp4	0.0	172.74165391921997	0.19167399406433105
9	23.40823793411255	response	0	4		7.0	2.5	/experiments/knapen_aot/videos/R_S_flickr-southeasternstar-3464778323_10.mp4	0.0	172.91761183738708	
9	23.423954010009766	movie	1		297.0	7.0	2.5	/experiments/knapen_aot/videos/R_S_flickr-southeasternstar-3464778323_10.mp4	0.0	172.9333279132843	2.5083401203155518
9	25.932294130325317	fix_post	2		12.0	7.0	2.5	/experiments/knapen_aot/videos/R_S_flickr-southeasternstar-3464778323_10.mp4	0.0	175.44166803359985	0.0999598503112793
10	26.032253980636597	fix_pre	0		27.0	8.0	2.5	/experiments/knapen_aot/videos/R_S_production_ID_4765899.mp4	0.0	175.54162788391113	0.22502708435058594
10	26.249109983444214	response	0	4		8.0	2.5	/experiments/knapen_aot/videos/R_S_production_ID_4765899.mp4	0.0	175.75848388671875	
10	26.257281064987183	movie	1		172.0	8.0	2.5	/experiments/knapen_aot/videos/R_S_production_ID_4765899.mp4	0.0	175.76665496826172	2.5082149505615234
10	28.765496015548706	fix_post	2		12.0	8.0	2.5	/experiments/knapen_aot/videos/R_S_production_ID_4765899.mp4	0.0	178.27486991882324	0.10007095336914062
11	28.865566968917847	fix_pre	0		32.0	9.0	2.5	/experiments/knapen_aot/videos/S_yt-LB9LoYfH_EA_15.mp4	0.0	178.37494087219238	0.26662206649780273
11	29.12404704093933	response	0	4		9.0	2.5	/experiments/knapen_aot/videos/S_yt-LB9LoYfH_EA_15.mp4	0.0	178.63342094421387	
11	29.13218903541565	movie	1		301.0	9.0	2.5	/experiments/knapen_aot/videos/S_yt-LB9LoYfH_EA_15.mp4	0.0	178.64156293869019	2.508305072784424
11	31.640494108200073	fix_post	2		12.0	9.0	2.5	/experiments/knapen_aot/videos/S_yt-LB9LoYfH_EA_15.mp4	0.0	181.1498680114746	0.10009384155273438
12	31.740587949752808	fix_pre	0		97.0	10.0	2.5	/experiments/knapen_aot/videos/S_pexels-cottonbro-5310858.mp4	0.0	181.24996185302734	0.8082890510559082
12	32.54073905944824	response	0	4		10.0	2.5	/experiments/knapen_aot/videos/S_pexels-cottonbro-5310858.mp4	0.0	182.05011296272278	
12	32.548877000808716	movie	1		163.0	10.0	2.5	/experiments/knapen_aot/videos/S_pexels-cottonbro-5310858.mp4	0.0	182.05825090408325	2.5083580017089844
12	35.0572350025177	fix_post	2		12.0	10.0	2.5	/experiments/knapen_aot/videos/S_pexels-cottonbro-5310858.mp4	0.0	184.56660890579224	0.10005593299865723
13	35.15729093551636	fix_pre	0		18.0	11.0	2.5	/experiments/knapen_aot/videos/S_-vPHq-7BJ70_15.mp4	0.0	184.6666648387909	0.1498701572418213
13	35.299017906188965	response	0	4		11.0	2.5	/experiments/knapen_aot/videos/S_-vPHq-7BJ70_15.mp4	0.0	184.8083918094635	
13	35.30716109275818	movie	1		301.0	11.0	2.5	/experiments/knapen_aot/videos/S_-vPHq-7BJ70_15.mp4	0.0	184.81653499603271	2.508389949798584
13	37.81555104255676	fix_post	2		12.0	11.0	2.5	/experiments/knapen_aot/videos/S_-vPHq-7BJ70_15.mp4	0.0	187.3249249458313	0.10006594657897949
14	37.91561698913574	fix_pre	0		26.0	12.0	2.5	/experiments/knapen_aot/videos/S_production_ID_4121250.mp4	0.0	187.42499089241028	0.21661901473999023
14	38.11648201942444	response	0	4		12.0	2.5	/experiments/knapen_aot/videos/S_production_ID_4121250.mp4	0.0	187.62585592269897	
14	38.13223600387573	movie	1		165.0	12.0	2.5	/experiments/knapen_aot/videos/S_production_ID_4121250.mp4	0.0	187.64160990715027	2.508310079574585
14	40.64054608345032	fix_post	2		12.0	12.0	2.5	/experiments/knapen_aot/videos/S_production_ID_4121250.mp4	0.0	190.14991998672485	0.10003995895385742
15	40.740586042404175	fix_pre	0		186.0	13.0	2.5	blank	1.0	190.2499599456787	1.550407886505127
15	42.282373905181885	response	0	4		13.0	2.5	blank	1.0	191.79174780845642	
15	42.2909939289093	movie	1		301.0	13.0	2.5	blank	1.0	191.80036783218384	2.507869005203247
15	44.79886293411255	fix_post	2		12.0	13.0	2.5	blank	1.0	194.30823683738708	0.10003113746643066
16	44.89889407157898	fix_pre	0		554.0	14.0	2.5	/experiments/knapen_aot/videos/R_S_ILSVRC2015_train_00565000.mp4	0.0	194.40826797485352	4.616564989089966
16	49.507242918014526	response	0	4		14.0	2.5	/experiments/knapen_aot/videos/R_S_ILSVRC2015_train_00565000.mp4	0.0	199.01661682128906	
16	49.515459060668945	movie	1		301.0	14.0	2.5	/experiments/knapen_aot/videos/R_S_ILSVRC2015_train_00565000.mp4	0.0	199.02483296394348	2.508363962173462
16	52.02382302284241	fix_post	2		12.0	14.0	2.5	/experiments/knapen_aot/videos/R_S_ILSVRC2015_train_00565000.mp4	0.0	201.53319692611694	0.10001397132873535
17	52.12383699417114	fix_pre	0		42.0	15.0	2.5	/experiments/knapen_aot/videos/S_yt-H5LQq4MPIao_660.mp4	0.0	201.63321089744568	0.3499879837036133
17	52.46560311317444	response	0	4		15.0	2.5	/experiments/knapen_aot/videos/S_yt-H5LQq4MPIao_660.mp4	0.0	201.97497701644897	
17	52.473824977874756	movie	1		301.0	15.0	2.5	/experiments/knapen_aot/videos/S_yt-H5LQq4MPIao_660.mp4	0.0	201.9831988811493	2.5083389282226562
17	54.98216390609741	fix_post	2		12.0	15.0	2.5	/experiments/knapen_aot/videos/S_yt-H5LQq4MPIao_660.mp4	0.0	204.49153780937195	0.09998321533203125
18	55.08214712142944	fix_pre	0		42.0	16.0	2.5	/experiments/knapen_aot/videos/R_S_pexels-vlada-karpovich-8044792.mp4	0.0	204.59152102470398	0.34998393058776855
18	55.423917055130005	response	0	4		16.0	2.5	/experiments/knapen_aot/videos/R_S_pexels-vlada-karpovich-8044792.mp4	0.0	204.93329095840454	
18	55.43213105201721	movie	1		166.0	16.0	2.5	/experiments/knapen_aot/videos/R_S_pexels-vlada-karpovich-8044792.mp4	0.0	204.94150495529175	2.5082550048828125
18	57.940386056900024	fix_post	2		12.0	16.0	2.5	/experiments/knapen_aot/videos/R_S_pexels-vlada-karpovich-8044792.mp4	0.0	207.44975996017456	0.10003185272216797
19	58.04041790962219	fix_pre	0		156.0	17.0	2.5	/experiments/knapen_aot/videos/R_S_yt-GOgS--rzmKQ_51.mp4	0.0	207.54979181289673	1.3000001907348633
19	59.33219504356384	response	0	4		17.0	2.5	/experiments/knapen_aot/videos/R_S_yt-GOgS--rzmKQ_51.mp4	0.0	208.84156894683838	
19	59.340418100357056	movie	1		301.0	17.0	2.5	/experiments/knapen_aot/videos/R_S_yt-GOgS--rzmKQ_51.mp4	0.0	208.8497920036316	2.508358955383301
19	61.848777055740356	fix_post	2		12.0	17.0	2.5	/experiments/knapen_aot/videos/R_S_yt-GOgS--rzmKQ_51.mp4	0.0	211.3581509590149	0.10004901885986328
20	61.94882607460022	fix_pre	0		102.0	18.0	2.5	/experiments/knapen_aot/videos/R_S_yt-H5LQq4MPIao_660.mp4	0.0	211.45819997787476	0.8499178886413574
20	62.79060697555542	response	0	4		18.0	2.5	/experiments/knapen_aot/videos/R_S_yt-H5LQq4MPIao_660.mp4	0.0	212.29998087882996	
20	62.79874396324158	movie	1		301.0	18.0	2.5	/experiments/knapen_aot/videos/R_S_yt-H5LQq4MPIao_660.mp4	0.0	212.3081178665161	2.508303165435791
20	65.30704712867737	fix_post	2		12.0	18.0	2.5	/experiments/knapen_aot/videos/R_S_yt-H5LQq4MPIao_660.mp4	0.0	214.8164210319519	0.10006880760192871
21	65.4071159362793	fix_pre	0		32.0	19.0	2.5	/experiments/knapen_aot/videos/S_yt-28ODBE9bVh0_44.mp4	0.0	214.91648983955383	0.2666440010070801
21	65.66576504707336	response	0	4		19.0	2.5	/experiments/knapen_aot/videos/S_yt-28ODBE9bVh0_44.mp4	0.0	215.1751389503479	
21	65.67375993728638	movie	1		301.0	19.0	2.5	/experiments/knapen_aot/videos/S_yt-28ODBE9bVh0_44.mp4	0.0	215.1831338405609	2.5083460807800293
21	68.1821060180664	fix_post	2		12.0	19.0	2.5	/experiments/knapen_aot/videos/S_yt-28ODBE9bVh0_44.mp4	0.0	217.69147992134094	0.09998297691345215
22	68.28208899497986	fix_pre	0		159.0	20.0	2.5	/experiments/knapen_aot/videos/R_S_yt-r7PeFd-hIp0_378.mp4	0.0	217.7914628982544	1.3249969482421875
22	69.59143900871277	response	0	4		20.0	2.5	/experiments/knapen_aot/videos/R_S_yt-r7PeFd-hIp0_378.mp4	0.0	219.1008129119873	
22	69.60708594322205	movie	1		301.0	20.0	2.5	/experiments/knapen_aot/videos/R_S_yt-r7PeFd-hIp0_378.mp4	0.0	219.11645984649658	2.508324146270752
22	72.1154100894928	fix_post	2		12.0	20.0	2.5	/experiments/knapen_aot/videos/R_S_yt-r7PeFd-hIp0_378.mp4	0.0	221.62478399276733	0.10001993179321289
23	72.21543002128601	fix_pre	0		39.0	21.0	2.5	blank	1.0	221.72480392456055	0.32522010803222656
23	72.5247049331665	response	0	4		21.0	2.5	blank	1.0	222.03407883644104	
23	72.54065012931824	movie	1		301.0	21.0	2.5	blank	1.0	222.05002403259277	2.5081119537353516
23	75.04876208305359	fix_post	2		12.0	21.0	2.5	blank	1.0	224.55813598632812	0.09997701644897461
24	75.14873909950256	fix_pre	0		163.0	22.0	2.5	/experiments/knapen_aot/videos/S_bing-www_nbcnews_com_storyline_isis-terror_fall-isis-stronghold-raqqa-will-change-war-extremists-not-end-n808621_86.mp4	0.0	224.6581130027771	1.3582839965820312
24	76.49889302253723	response	0	4		22.0	2.5	/experiments/knapen_aot/videos/S_bing-www_nbcnews_com_storyline_isis-terror_fall-isis-stronghold-raqqa-will-change-war-extremists-not-end-n808621_86.mp4	0.0	226.00826692581177	
24	76.5070230960846	movie	1		163.0	22.0	2.5	/experiments/knapen_aot/videos/S_bing-www_nbcnews_com_storyline_isis-terror_fall-isis-stronghold-raqqa-will-change-war-extremists-not-end-n808621_86.mp4	0.0	226.01639699935913	2.512802839279175
24	79.01982593536377	fix_post	2		12.0	22.0	2.5	/experiments/knapen_aot/videos/S_bing-www_nbcnews_com_storyline_isis-terror_fall-isis-stronghold-raqqa-will-change-war-extremists-not-end-n808621_86.mp4	0.0	228.5291998386383	0.09554100036621094
25	79.11536693572998	fix_pre	0		17.0	23.0	2.5	/experiments/knapen_aot/videos/R_S_ILSVRC2015_train_00446000.mp4	0.0	228.62474083900452	0.14164400100708008
25	79.2488660812378	response	0	4		23.0	2.5	/experiments/knapen_aot/videos/R_S_ILSVRC2015_train_00446000.mp4	0.0	228.75823998451233	
25	79.25701093673706	movie	1		301.0	23.0	2.5	/experiments/knapen_aot/videos/R_S_ILSVRC2015_train_00446000.mp4	0.0	228.7663848400116	2.508342981338501
25	81.76535391807556	fix_post	2		12.0	23.0	2.5	/experiments/knapen_aot/videos/R_S_ILSVRC2015_train_00446000.mp4	0.0	231.2747278213501	0.09993219375610352
26	81.86528611183167	fix_pre	0		24.0	24.0	2.5	/experiments/knapen_aot/videos/S_yt-2IxVZeiSv3g_28.mp4	0.0	231.3746600151062	0.20006084442138672
26	82.05716490745544	response	0	4		24.0	2.5	/experiments/knapen_aot/videos/S_yt-2IxVZeiSv3g_28.mp4	0.0	231.56653881072998	
26	82.06534695625305	movie	1		301.0	24.0	2.5	/experiments/knapen_aot/videos/S_yt-2IxVZeiSv3g_28.mp4	0.0	231.5747208595276	2.5083179473876953
26	84.57366490364075	fix_post	2		12.0	24.0	2.5	/experiments/knapen_aot/videos/S_yt-2IxVZeiSv3g_28.mp4	0.0	234.08303880691528	0.10006308555603027
27	84.67372798919678	fix_pre	0		130.0	25.0	2.5	/experiments/knapen_aot/videos/R_S_bing-www_nbcnews_com_storyline_isis-terror_fall-isis-stronghold-raqqa-will-change-war-extremists-not-end-n808621_86.mp4	0.0	234.1831018924713	1.0833170413970947
27	85.74873995780945	response	0	4		25.0	2.5	/experiments/knapen_aot/videos/R_S_bing-www_nbcnews_com_storyline_isis-terror_fall-isis-stronghold-raqqa-will-change-war-extremists-not-end-n808621_86.mp4	0.0	235.25811386108398	
27	85.75704503059387	movie	1		165.0	25.0	2.5	/experiments/knapen_aot/videos/R_S_bing-www_nbcnews_com_storyline_isis-terror_fall-isis-stronghold-raqqa-will-change-war-extremists-not-end-n808621_86.mp4	0.0	235.2664189338684	2.5083189010620117
27	88.26536393165588	fix_post	2		12.0	25.0	2.5	/experiments/knapen_aot/videos/R_S_bing-www_nbcnews_com_storyline_isis-terror_fall-isis-stronghold-raqqa-will-change-war-extremists-not-end-n808621_86.mp4	0.0	237.77473783493042	0.1000070571899414
28	88.36537098884583	fix_pre	0		35.0	26.0	2.5	/experiments/knapen_aot/videos/S_KP_A010_C002_SDR_20190717_SDR_2K_AVC.mp4	0.0	237.87474489212036	0.2916219234466553
28	88.64889192581177	response	0	4		26.0	2.5	/experiments/knapen_aot/videos/S_KP_A010_C002_SDR_20190717_SDR_2K_AVC.mp4	0.0	238.1582658290863	
28	88.65699291229248	movie	1		171.0	26.0	2.5	/experiments/knapen_aot/videos/S_KP_A010_C002_SDR_20190717_SDR_2K_AVC.mp4	0.0	238.16636681556702	2.508526086807251
28	91.16551899909973	fix_post	2		12.0	26.0	2.5	/experiments/knapen_aot/videos/S_KP_A010_C002_SDR_20190717_SDR_2K_AVC.mp4	0.0	240.67489290237427	0.09990406036376953
29	91.2654230594635	fix_pre	0		180.0	27.0	2.5	blank	1.0	240.77479696273804	1.4998819828033447
29	92.75714993476868	response	0	4		27.0	2.5	blank	1.0	242.2665238380432	
29	92.76530504226685	movie	1		301.0	27.0	2.5	blank	1.0	242.27467894554138	2.5083670616149902
29	95.27367210388184	fix_post	2		12.0	27.0	2.5	blank	1.0	244.78304600715637	0.10007691383361816
30	95.37374901771545	fix_pre	0		39.0	28.0	2.5	/experiments/knapen_aot/videos/R_S_yt-YykKZWKmLnQ_386.mp4	0.0	244.88312292099	0.33333492279052734
30	95.69878005981445	response	0	4		28.0	2.5	/experiments/knapen_aot/videos/R_S_yt-YykKZWKmLnQ_386.mp4	0.0	245.208153963089	
30	95.70708394050598	movie	1		301.0	28.0	2.5	/experiments/knapen_aot/videos/R_S_yt-YykKZWKmLnQ_386.mp4	0.0	245.21645784378052	2.5081729888916016
30	98.21525692939758	fix_post	2		12.0	28.0	2.5	/experiments/knapen_aot/videos/R_S_yt-YykKZWKmLnQ_386.mp4	0.0	247.72463083267212	0.10008597373962402
31	98.3153429031372	fix_pre	0		56.0	29.0	2.5	/experiments/knapen_aot/videos/R_S_yt-qF-69JWJX_Y_55.mp4	0.0	247.82471680641174	0.46660614013671875
31	98.77382612228394	response	0	4		29.0	2.5	/experiments/knapen_aot/videos/R_S_yt-qF-69JWJX_Y_55.mp4	0.0	248.28320002555847	
31	98.78194904327393	movie	1		300.0	29.0	2.5	/experiments/knapen_aot/videos/R_S_yt-qF-69JWJX_Y_55.mp4	0.0	248.29132294654846	2.508436918258667
31	101.29038596153259	fix_post	2		12.0	29.0	2.5	/experiments/knapen_aot/videos/R_S_yt-qF-69JWJX_Y_55.mp4	0.0	250.79975986480713	0.09996414184570312
32	101.3903501033783	fix_pre	0		23.0	30.0	2.5	/experiments/knapen_aot/videos/S_production_ID_4124475.mp4	0.0	250.89972400665283	0.19170498847961426
32	101.5738000869751	response	0	4		30.0	2.5	/experiments/knapen_aot/videos/S_production_ID_4124475.mp4	0.0	251.08317399024963	
32	101.58205509185791	movie	1		167.0	30.0	2.5	/experiments/knapen_aot/videos/S_production_ID_4124475.mp4	0.0	251.09142899513245	2.5082669258117676
32	104.09032201766968	fix_post	2		12.0	30.0	2.5	/experiments/knapen_aot/videos/S_production_ID_4124475.mp4	0.0	253.5996959209442	0.09999394416809082
33	104.19031596183777	fix_pre	0		17.0	31.0	2.5	/experiments/knapen_aot/videos/S_production_ID_4765899.mp4	0.0	253.6996898651123	0.1416780948638916
33	104.32377004623413	response	0	4		31.0	2.5	/experiments/knapen_aot/videos/S_production_ID_4765899.mp4	0.0	253.83314394950867	
33	104.33199405670166	movie	1		167.0	31.0	2.5	/experiments/knapen_aot/videos/S_production_ID_4765899.mp4	0.0	253.8413679599762	2.508302927017212
33	106.84029698371887	fix_post	2		12.0	31.0	2.5	/experiments/knapen_aot/videos/S_production_ID_4765899.mp4	0.0	256.3496708869934	0.09997010231018066
34	106.94026708602905	fix_pre	0		189.0	32.0	2.5	/experiments/knapen_aot/videos/R_S_wc-q23aBNJMZbnZ_27.mp4	0.0	256.4496409893036	1.5749878883361816
34	108.50719809532166	response	0	4		32.0	2.5	/experiments/knapen_aot/videos/R_S_wc-q23aBNJMZbnZ_27.mp4	0.0	258.0165719985962	
34	108.51525497436523	movie	1		162.0	32.0	2.5	/experiments/knapen_aot/videos/R_S_wc-q23aBNJMZbnZ_27.mp4	0.0	258.02462887763977	2.508368968963623
34	111.02362394332886	fix_post	2		10.0	32.0	2.5	/experiments/knapen_aot/videos/R_S_wc-q23aBNJMZbnZ_27.mp4	0.0	260.5329978466034	0.10004401206970215
35	111.12366795539856	fix_pre	0		23.0	33.0	2.5	blank	1.0	260.6330418586731	0.1917591094970703
35	111.30709600448608	response	0	4		33.0	2.5	blank	1.0	260.8164699077606	
35	111.31542706489563	movie	1		301.0	33.0	2.5	blank	1.0	260.82480096817017	2.5081939697265625
35	113.82362103462219	fix_post	2		12.0	33.0	2.5	blank	1.0	263.33299493789673	0.09995794296264648
36	113.92357897758484	fix_pre	0		36.0	34.0	2.5	/experiments/knapen_aot/videos/S_yt-4rwBpRuHg-c_1308.mp4	0.0	263.4329528808594	0.3000209331512451
36	114.21538591384888	response	0	4		34.0	2.5	/experiments/knapen_aot/videos/S_yt-4rwBpRuHg-c_1308.mp4	0.0	263.7247598171234	
36	114.22359991073608	movie	1		299.0	34.0	2.5	/experiments/knapen_aot/videos/S_yt-4rwBpRuHg-c_1308.mp4	0.0	263.7329738140106	2.5082521438598633
36	116.73185205459595	fix_post	2		12.0	34.0	2.5	/experiments/knapen_aot/videos/S_yt-4rwBpRuHg-c_1308.mp4	0.0	266.2412259578705	0.10005593299865723
37	116.8319079875946	fix_pre	0		46.0	35.0	2.5	/experiments/knapen_aot/videos/S_wc-6or3Gl2Fif0m_13.mp4	0.0	266.34128189086914	0.3833811283111572
37	117.20706391334534	response	0	4		35.0	2.5	/experiments/knapen_aot/videos/S_wc-6or3Gl2Fif0m_13.mp4	0.0	266.7164378166199	
37	117.21528911590576	movie	1		164.0	35.0	2.5	/experiments/knapen_aot/videos/S_wc-6or3Gl2Fif0m_13.mp4	0.0	266.7246630191803	2.508241891860962
37	119.72353100776672	fix_post	2		12.0	35.0	2.5	/experiments/knapen_aot/videos/S_wc-6or3Gl2Fif0m_13.mp4	0.0	269.23290491104126	0.10143589973449707
38	119.82496690750122	fix_pre	0		7.0	36.0	2.5	/experiments/knapen_aot/videos/S_production_ID_3967181.mp4	0.0	269.33434081077576	0.05688214302062988
38	119.87375712394714	response	0	4		36.0	2.5	/experiments/knapen_aot/videos/S_production_ID_3967181.mp4	0.0	269.3831310272217	
38	119.88184905052185	movie	1		200.0	36.0	2.5	/experiments/knapen_aot/videos/S_production_ID_3967181.mp4	0.0	269.3912229537964	2.508405923843384
38	122.39025497436523	fix_post	2		12.0	36.0	2.5	/experiments/knapen_aot/videos/S_production_ID_3967181.mp4	0.0	271.89962887763977	0.09990715980529785
39	122.49016213417053	fix_pre	0		49.0	37.0	2.5	/experiments/knapen_aot/videos/S_yt-zlbtESb7Fcw_28.mp4	0.0	271.99953603744507	0.4084007740020752
39	122.89033794403076	response	0	4		37.0	2.5	/experiments/knapen_aot/videos/S_yt-zlbtESb7Fcw_28.mp4	0.0	272.3997118473053	
39	122.89856290817261	movie	1		301.0	37.0	2.5	/experiments/knapen_aot/videos/S_yt-zlbtESb7Fcw_28.mp4	0.0	272.40793681144714	2.5083110332489014
39	125.40687394142151	fix_post	2		12.0	37.0	2.5	/experiments/knapen_aot/videos/S_yt-zlbtESb7Fcw_28.mp4	0.0	274.91624784469604	0.09992504119873047
40	125.50679898262024	fix_pre	0		20.0	38.0	2.5	/experiments/knapen_aot/videos/R_S_yt-GWgG8PVM1iw_34.mp4	0.0	275.0161728858948	0.16663193702697754
40	125.66533398628235	response	0	4		38.0	2.5	/experiments/knapen_aot/videos/R_S_yt-GWgG8PVM1iw_34.mp4	0.0	275.1747078895569	
40	125.67343091964722	movie	1		301.0	38.0	2.5	/experiments/knapen_aot/videos/R_S_yt-GWgG8PVM1iw_34.mp4	0.0	275.18280482292175	2.508418083190918
40	128.18184900283813	fix_post	2		12.0	38.0	2.5	/experiments/knapen_aot/videos/R_S_yt-GWgG8PVM1iw_34.mp4	0.0	277.69122290611267	0.10005593299865723
41	128.2819049358368	fix_pre	0		13.0	39.0	2.5	/experiments/knapen_aot/videos/S_ILnEDG_aP1A_35.mp4	0.0	277.7912788391113	0.10828804969787598
41	128.38205790519714	response	0	4		39.0	2.5	/experiments/knapen_aot/videos/S_ILnEDG_aP1A_35.mp4	0.0	277.8914318084717	
41	128.39019298553467	movie	1		300.0	39.0	2.5	/experiments/knapen_aot/videos/S_ILnEDG_aP1A_35.mp4	0.0	277.8995668888092	2.508366107940674
41	130.89855909347534	fix_post	2		12.0	39.0	2.5	/experiments/knapen_aot/videos/S_ILnEDG_aP1A_35.mp4	0.0	280.4079329967499	0.09991192817687988
42	130.99847102165222	fix_pre	0		38.0	40.0	2.5	/experiments/knapen_aot/videos/S_yt-UzWRbs9Syf4_7.mp4	0.0	280.50784492492676	0.3166189193725586
42	131.2994019985199	response	0	4		40.0	2.5	/experiments/knapen_aot/videos/S_yt-UzWRbs9Syf4_7.mp4	0.0	280.80877590179443	
42	131.31508994102478	movie	1		301.0	40.0	2.5	/experiments/knapen_aot/videos/S_yt-UzWRbs9Syf4_7.mp4	0.0	280.8244638442993	2.508294105529785
42	133.82338404655457	fix_post	2		12.0	40.0	2.5	/experiments/knapen_aot/videos/S_yt-UzWRbs9Syf4_7.mp4	0.0	283.3327579498291	0.10013389587402344
43	133.9235179424286	fix_pre	0		36.0	41.0	2.5	/experiments/knapen_aot/videos/R_S_yt-RqWnxg1wT-0_41.mp4	0.0	283.4328918457031	0.2999570369720459
43	134.21530890464783	response	0	4		41.0	2.5	/experiments/knapen_aot/videos/R_S_yt-RqWnxg1wT-0_41.mp4	0.0	283.72468280792236	
43	134.22347497940063	movie	1		301.0	41.0	2.5	/experiments/knapen_aot/videos/R_S_yt-RqWnxg1wT-0_41.mp4	0.0	283.73284888267517	2.5084619522094727
43	136.7319369316101	fix_post	2		12.0	41.0	2.5	/experiments/knapen_aot/videos/R_S_yt-RqWnxg1wT-0_41.mp4	0.0	286.24131083488464	0.09994006156921387
44	136.83187699317932	fix_pre	0		36.0	42.0	2.5	blank	1.0	286.34125089645386	0.2998781204223633
44	137.1236069202423	response	0	4		42.0	2.5	blank	1.0	286.63298082351685	
44	137.13175511360168	movie	1		301.0	42.0	2.5	blank	1.0	286.6411290168762	2.5084068775177
44	139.64016199111938	fix_post	2		12.0	42.0	2.5	blank	1.0	289.1495358943939	0.09986400604248047
45	139.74002599716187	fix_pre	0		27.0	43.0	2.5	/experiments/knapen_aot/videos/S_pexels-kelly-lacy-6756531.mp4	0.0	289.2493999004364	0.22513508796691895
45	139.95692706108093	response	0	4		43.0	2.5	/experiments/knapen_aot/videos/S_pexels-kelly-lacy-6756531.mp4	0.0	289.46630096435547	
45	139.96516108512878	movie	1		167.0	43.0	2.5	/experiments/knapen_aot/videos/S_pexels-kelly-lacy-6756531.mp4	0.0	289.4745349884033	2.50819993019104
45	142.47336101531982	fix_post	2		12.0	43.0	2.5	/experiments/knapen_aot/videos/S_pexels-kelly-lacy-6756531.mp4	0.0	291.98273491859436	0.10008406639099121
46	142.57344508171082	fix_pre	0		16.0	44.0	2.5	/experiments/knapen_aot/videos/R_S_yt-iT6jsSikmGM_4.mp4	0.0	292.08281898498535	0.13335299491882324
46	142.6986119747162	response	0	4		44.0	2.5	/experiments/knapen_aot/videos/R_S_yt-iT6jsSikmGM_4.mp4	0.0	292.2079858779907	
46	142.70679807662964	movie	1		301.0	44.0	2.5	/experiments/knapen_aot/videos/R_S_yt-iT6jsSikmGM_4.mp4	0.0	292.2161719799042	2.5083119869232178
46	145.21511006355286	fix_post	2		12.0	44.0	2.5	/experiments/knapen_aot/videos/R_S_yt-iT6jsSikmGM_4.mp4	0.0	294.7244839668274	0.09993791580200195
47	145.31504797935486	fix_pre	0		24.0	45.0	2.5	/experiments/knapen_aot/videos/R_S_yt-STL3ejY9u_Q_73.mp4	0.0	294.8244218826294	0.19996905326843262
47	145.50692200660706	response	0	4		45.0	2.5	/experiments/knapen_aot/videos/R_S_yt-STL3ejY9u_Q_73.mp4	0.0	295.0162959098816	
47	145.5150170326233	movie	1		301.0	45.0	2.5	/experiments/knapen_aot/videos/R_S_yt-STL3ejY9u_Q_73.mp4	0.0	295.0243909358978	2.508373975753784
47	148.02339100837708	fix_post	2		12.0	45.0	2.5	/experiments/knapen_aot/videos/R_S_yt-STL3ejY9u_Q_73.mp4	0.0	297.5327649116516	0.1000819206237793
48	148.12347292900085	fix_pre	0		18.0	46.0	2.5	/experiments/knapen_aot/videos/R_S_video_inspire_texas_austin_oct2019_evening_00085.1080-h264.mp4	0.0	297.6328468322754	0.1499919891357422
48	148.25766491889954	response	0	4		46.0	2.5	/experiments/knapen_aot/videos/R_S_video_inspire_texas_austin_oct2019_evening_00085.1080-h264.mp4	0.0	297.7670388221741	
48	148.2734649181366	movie	1		172.0	46.0	2.5	/experiments/knapen_aot/videos/R_S_video_inspire_texas_austin_oct2019_evening_00085.1080-h264.mp4	0.0	297.78283882141113	2.5083091259002686
48	150.78177404403687	fix_post	2		12.0	46.0	2.5	/experiments/knapen_aot/videos/R_S_video_inspire_texas_austin_oct2019_evening_00085.1080-h264.mp4	0.0	300.2911479473114	0.09996199607849121
49	150.88173604011536	fix_pre	0		2.0	47.0	2.5	/experiments/knapen_aot/videos/R_S_yt-CEQnXB0LxQU_278.mp4	0.0	300.3911099433899	0.01666998863220215
49	150.89019298553467	response	0	4		47.0	2.5	/experiments/knapen_aot/videos/R_S_yt-CEQnXB0LxQU_278.mp4	0.0	300.3995668888092	
49	150.89840602874756	movie	1		301.0	47.0	2.5	/experiments/knapen_aot/videos/R_S_yt-CEQnXB0LxQU_278.mp4	0.0	300.4077799320221	2.5083250999450684
49	153.40673112869263	fix_post	2		12.0	47.0	2.5	/experiments/knapen_aot/videos/R_S_yt-CEQnXB0LxQU_278.mp4	0.0	302.91610503196716	0.09996795654296875
50	153.5066990852356	fix_pre	0		116.0	48.0	2.5	blank	1.0	303.01607298851013	0.9667158126831055
50	154.46523213386536	response	0	4		48.0	2.5	blank	1.0	303.9746060371399	
50	154.4734148979187	movie	1		301.0	48.0	2.5	blank	1.0	303.98278880119324	2.5084521770477295
50	156.98186707496643	fix_post	2		12.0	48.0	2.5	blank	1.0	306.49124097824097	0.09987902641296387
51	157.0817461013794	fix_pre	0		27.0	49.0	2.5	/experiments/knapen_aot/videos/S_yt-GOgS--rzmKQ_51.mp4	0.0	306.59112000465393	0.2249898910522461
51	157.29846096038818	response	0	4		49.0	2.5	/experiments/knapen_aot/videos/S_yt-GOgS--rzmKQ_51.mp4	0.0	306.8078348636627	
51	157.30673599243164	movie	1		300.0	49.0	2.5	/experiments/knapen_aot/videos/S_yt-GOgS--rzmKQ_51.mp4	0.0	306.8161098957062	2.508315086364746
51	159.8150510787964	fix_post	2		12.0	49.0	2.5	/experiments/knapen_aot/videos/S_yt-GOgS--rzmKQ_51.mp4	0.0	309.3244249820709	0.10003304481506348
52	159.91508412361145	fix_pre	0		15.0	50.0	2.5	/experiments/knapen_aot/videos/R_S_yt-F1vQ5nZWhDg_21.mp4	0.0	309.424458026886	0.12490677833557129
52	160.0318160057068	response	0	4		50.0	2.5	/experiments/knapen_aot/videos/R_S_yt-F1vQ5nZWhDg_21.mp4	0.0	309.5411899089813	
52	160.03999090194702	movie	1		301.0	50.0	2.5	/experiments/knapen_aot/videos/R_S_yt-F1vQ5nZWhDg_21.mp4	0.0	309.54936480522156	2.5083751678466797
52	162.5483660697937	fix_post	2		12.0	50.0	2.5	/experiments/knapen_aot/videos/R_S_yt-F1vQ5nZWhDg_21.mp4	0.0	312.05773997306824	0.09997296333312988
53	162.64833903312683	fix_pre	0		121.0	51.0	2.5	/experiments/knapen_aot/videos/R_S_yt-4rwBpRuHg-c_1308.mp4	0.0	312.15771293640137	1.0094969272613525
53	163.64848589897156	response	0	4		51.0	2.5	/experiments/knapen_aot/videos/R_S_yt-4rwBpRuHg-c_1308.mp4	0.0	313.1578598022461	
53	163.65783596038818	movie	1		301.0	51.0	2.5	/experiments/knapen_aot/videos/R_S_yt-4rwBpRuHg-c_1308.mp4	0.0	313.1672098636627	2.5072481632232666
53	166.16508412361145	fix_post	2		12.0	51.0	2.5	/experiments/knapen_aot/videos/R_S_yt-4rwBpRuHg-c_1308.mp4	0.0	315.674458026886	0.0999147891998291
54	166.26499891281128	fix_pre	0		19.0	52.0	2.5	/experiments/knapen_aot/videos/S_yt-RqWnxg1wT-0_41.mp4	0.0	315.7743728160858	0.15828299522399902
54	166.41516304016113	response	0	4		52.0	2.5	/experiments/knapen_aot/videos/S_yt-RqWnxg1wT-0_41.mp4	0.0	315.92453694343567	
54	166.42328190803528	movie	1		301.0	52.0	2.5	/experiments/knapen_aot/videos/S_yt-RqWnxg1wT-0_41.mp4	0.0	315.9326558113098	2.508413076400757
54	168.93169498443604	fix_post	2		12.0	52.0	2.5	/experiments/knapen_aot/videos/S_yt-RqWnxg1wT-0_41.mp4	0.0	318.44106888771057	0.10001301765441895
55	169.03170800209045	fix_pre	0		59.0	53.0	2.5	/experiments/knapen_aot/videos/R_S_yt-c6kLumgTX54_7.mp4	0.0	318.541081905365	0.49160194396972656
55	169.5151469707489	response	0	4		53.0	2.5	/experiments/knapen_aot/videos/R_S_yt-c6kLumgTX54_7.mp4	0.0	319.02452087402344	
55	169.52330994606018	movie	1		301.0	53.0	2.5	/experiments/knapen_aot/videos/R_S_yt-c6kLumgTX54_7.mp4	0.0	319.0326838493347	2.5083580017089844
55	172.03166794776917	fix_post	2		12.0	53.0	2.5	/experiments/knapen_aot/videos/R_S_yt-c6kLumgTX54_7.mp4	0.0	321.5410418510437	0.09994101524353027
56	172.1316089630127	fix_pre	0		45.0	54.0	2.5	/experiments/knapen_aot/videos/R_S_yt-ph1AkIToO4E_46.mp4	0.0	321.64098286628723	0.3750021457672119
56	172.4984929561615	response	0	4		54.0	2.5	/experiments/knapen_aot/videos/R_S_yt-ph1AkIToO4E_46.mp4	0.0	322.00786685943604	
56	172.5066111087799	movie	1		301.0	54.0	2.5	/experiments/knapen_aot/videos/R_S_yt-ph1AkIToO4E_46.mp4	0.0	322.01598501205444	2.5083208084106445
56	175.01493191719055	fix_post	2		12.0	54.0	2.5	/experiments/knapen_aot/videos/R_S_yt-ph1AkIToO4E_46.mp4	0.0	324.5243058204651	0.100006103515625
57	175.11493802070618	fix_pre	0		76.0	55.0	2.5	/experiments/knapen_aot/videos/S_gHYomsO1dSU_5.mp4	0.0	324.6243119239807	0.6333310604095459
57	175.74013090133667	response	0	4		55.0	2.5	/experiments/knapen_aot/videos/S_gHYomsO1dSU_5.mp4	0.0	325.2495048046112	
57	175.74826908111572	movie	1		301.0	55.0	2.5	/experiments/knapen_aot/videos/S_gHYomsO1dSU_5.mp4	0.0	325.25764298439026	2.508333921432495
57	178.25660300254822	fix_post	2		12.0	55.0	2.5	/experiments/knapen_aot/videos/S_gHYomsO1dSU_5.mp4	0.0	327.76597690582275	0.10004806518554688
58	178.35665106773376	fix_pre	0		46.0	56.0	2.5	blank	1.0	327.8660249710083	0.3833010196685791
58	178.73171401023865	response	0	4		56.0	2.5	blank	1.0	328.2410879135132	
58	178.73995208740234	movie	1		301.0	56.0	2.5	blank	1.0	328.2493259906769	2.508354902267456
58	181.2483069896698	fix_post	2		12.0	56.0	2.5	blank	1.0	330.75768089294434	0.1000070571899414
59	181.34831404685974	fix_pre	0		171.0	57.0	2.5	/experiments/knapen_aot/videos/R_S_yt-V4Oosy-ZtGY_193.mp4	0.0	330.8576879501343	1.4249489307403564
59	182.76508712768555	response	0	4		57.0	2.5	/experiments/knapen_aot/videos/R_S_yt-V4Oosy-ZtGY_193.mp4	0.0	332.2744610309601	
59	182.7732629776001	movie	1		301.0	57.0	2.5	/experiments/knapen_aot/videos/R_S_yt-V4Oosy-ZtGY_193.mp4	0.0	332.28263688087463	2.5083351135253906
59	185.2815980911255	fix_post	2		12.0	57.0	2.5	/experiments/knapen_aot/videos/R_S_yt-V4Oosy-ZtGY_193.mp4	0.0	334.7909719944	0.10005688667297363
60	185.38165497779846	fix_pre	0		10.0	58.0	2.5	/experiments/knapen_aot/videos/S_yt-xNKgc8sFYvU_35.mp4	0.0	334.891028881073	0.08325409889221191
60	185.4566991329193	response	0	4		58.0	2.5	/experiments/knapen_aot/videos/S_yt-xNKgc8sFYvU_35.mp4	0.0	334.96607303619385	
60	185.46490907669067	movie	1		301.0	58.0	2.5	/experiments/knapen_aot/videos/S_yt-xNKgc8sFYvU_35.mp4	0.0	334.9742829799652	2.5083558559417725
60	187.97326493263245	fix_post	2		12.0	58.0	2.5	/experiments/knapen_aot/videos/S_yt-xNKgc8sFYvU_35.mp4	0.0	337.482638835907	0.09993910789489746
61	188.07320404052734	fix_pre	0		12.0	59.0	2.5	/experiments/knapen_aot/videos/R_S_production_ID_4765899.mp4	0.0	337.5825779438019	0.10001087188720703
61	188.16512989997864	response	0	4		59.0	2.5	/experiments/knapen_aot/videos/R_S_production_ID_4765899.mp4	0.0	337.6745038032532	
61	188.17321491241455	movie	1		168.0	59.0	2.5	/experiments/knapen_aot/videos/R_S_production_ID_4765899.mp4	0.0	337.6825888156891	2.5083200931549072
61	190.68153500556946	fix_post	2		12.0	59.0	2.5	/experiments/knapen_aot/videos/R_S_production_ID_4765899.mp4	0.0	340.190908908844	0.1000070571899414
62	190.7815420627594	fix_pre	0		7.0	60.0	2.5	/experiments/knapen_aot/videos/R_S_pexels-roman-odintsov-8231493.mp4	0.0	340.29091596603394	0.05843997001647949
62	190.83171796798706	response	0	4		60.0	2.5	/experiments/knapen_aot/videos/R_S_pexels-roman-odintsov-8231493.mp4	0.0	340.3410918712616	
62	190.83998203277588	movie	1		195.0	60.0	2.5	/experiments/knapen_aot/videos/R_S_pexels-roman-odintsov-8231493.mp4	0.0	340.3493559360504	2.508267879486084
62	193.34824991226196	fix_post	2		12.0	60.0	2.5	/experiments/knapen_aot/videos/R_S_pexels-roman-odintsov-8231493.mp4	0.0	342.8576238155365	0.1000211238861084
63	193.44827103614807	fix_pre	0		7.0	61.0	2.5	/experiments/knapen_aot/videos/R_S_yt-UKrWbJEs7pw_74.mp4	0.0	342.9576449394226	0.05825996398925781
63	193.49843907356262	response	0	4		61.0	2.5	/experiments/knapen_aot/videos/R_S_yt-UKrWbJEs7pw_74.mp4	0.0	343.00781297683716	
63	193.50653100013733	movie	1		301.0	61.0	2.5	/experiments/knapen_aot/videos/R_S_yt-UKrWbJEs7pw_74.mp4	0.0	343.01590490341187	2.5083229541778564
63	196.01485395431519	fix_post	2		12.0	61.0	2.5	/experiments/knapen_aot/videos/R_S_yt-UKrWbJEs7pw_74.mp4	0.0	345.5242278575897	0.09998607635498047
64	196.11484003067017	fix_pre	0		28.0	62.0	2.5	blank	1.0	345.6242139339447	0.23333001136779785
64	196.33252000808716	response	0	4		62.0	2.5	blank	1.0	345.8418939113617	
64	196.34817004203796	movie	1		301.0	62.0	2.5	blank	1.0	345.8575439453125	2.5083999633789062
64	198.85657000541687	fix_post	2		12.0	62.0	2.5	blank	1.0	348.3659439086914	0.10003304481506348
65	198.95660305023193	fix_pre	0		19.0	63.0	2.5	/experiments/knapen_aot/videos/R_S_gHYomsO1dSU_5.mp4	0.0	348.46597695350647	0.15921998023986816
65	199.1067099571228	response	0	4		63.0	2.5	/experiments/knapen_aot/videos/R_S_gHYomsO1dSU_5.mp4	0.0	348.61608386039734	
65	199.1158230304718	movie	1		301.0	63.0	2.5	/experiments/knapen_aot/videos/R_S_gHYomsO1dSU_5.mp4	0.0	348.62519693374634	2.50740909576416
65	201.62323212623596	fix_post	2		12.0	63.0	2.5	/experiments/knapen_aot/videos/R_S_gHYomsO1dSU_5.mp4	0.0	351.1326060295105	0.1000368595123291
66	201.7232689857483	fix_pre	0		5.0	64.0	2.5	/experiments/knapen_aot/videos/R_S_yt-UKrWbJEs7pw_74.mp4	0.0	351.2326428890228	0.04165291786193848
66	201.75663805007935	response	0	4		64.0	2.5	/experiments/knapen_aot/videos/R_S_yt-UKrWbJEs7pw_74.mp4	0.0	351.2660119533539	
66	201.76492190361023	movie	1		301.0	64.0	2.5	/experiments/knapen_aot/videos/R_S_yt-UKrWbJEs7pw_74.mp4	0.0	351.27429580688477	2.5083391666412354
66	204.27326107025146	fix_post	2		12.0	64.0	2.5	/experiments/knapen_aot/videos/R_S_yt-UKrWbJEs7pw_74.mp4	0.0	353.782634973526	0.09996795654296875
67	204.37322902679443	fix_pre	0		16.0	65.0	2.5	/experiments/knapen_aot/videos/S_production_ID_4997166.mp4	0.0	353.88260293006897	0.13325095176696777
67	204.49835991859436	response	0	4		65.0	2.5	/experiments/knapen_aot/videos/S_production_ID_4997166.mp4	0.0	354.0077338218689	
67	204.5064799785614	movie	1		166.0	65.0	2.5	/experiments/knapen_aot/videos/S_production_ID_4997166.mp4	0.0	354.01585388183594	2.50838303565979
67	207.0148630142212	fix_post	2		12.0	65.0	2.5	/experiments/knapen_aot/videos/S_production_ID_4997166.mp4	0.0	356.5242369174957	0.0999751091003418
68	207.11483812332153	fix_pre	0		138.0	66.0	2.5	/experiments/knapen_aot/videos/R_S_bing-www_cnet_com_videos_amazon-wants-to-put-alexa-on-your-pc__50.mp4	0.0	356.62421202659607	1.1499769687652588
68	208.25657296180725	response	0	4		66.0	2.5	/experiments/knapen_aot/videos/R_S_bing-www_cnet_com_videos_amazon-wants-to-put-alexa-on-your-pc__50.mp4	0.0	357.7659468650818	
68	208.2648150920868	movie	1		162.0	66.0	2.5	/experiments/knapen_aot/videos/R_S_bing-www_cnet_com_videos_amazon-wants-to-put-alexa-on-your-pc__50.mp4	0.0	357.7741889953613	2.508352041244507
68	210.7731671333313	fix_post	2		12.0	66.0	2.5	/experiments/knapen_aot/videos/R_S_bing-www_cnet_com_videos_amazon-wants-to-put-alexa-on-your-pc__50.mp4	0.0	360.28254103660583	0.10000491142272949
69	210.87317204475403	fix_pre	0		43.0	67.0	2.5	/experiments/knapen_aot/videos/S_ILSVRC2015_train_00042002.mp4	0.0	360.38254594802856	0.3583090305328369
69	211.22331309318542	response	0	4		67.0	2.5	/experiments/knapen_aot/videos/S_ILSVRC2015_train_00042002.mp4	0.0	360.73268699645996	
69	211.23148107528687	movie	1		301.0	67.0	2.5	/experiments/knapen_aot/videos/S_ILSVRC2015_train_00042002.mp4	0.0	360.7408549785614	2.5083329677581787
69	213.73981404304504	fix_post	2		12.0	67.0	2.5	/experiments/knapen_aot/videos/S_ILSVRC2015_train_00042002.mp4	0.0	363.2491879463196	0.10001993179321289
70	213.83983397483826	fix_pre	0		30.0	68.0	2.5	/experiments/knapen_aot/videos/R_S_ILSVRC2015_train_00762000.mp4	0.0	363.3492078781128	0.2499690055847168
70	214.08161306381226	response	0	4		68.0	2.5	/experiments/knapen_aot/videos/R_S_ILSVRC2015_train_00762000.mp4	0.0	363.5909869670868	
70	214.08980298042297	movie	1		299.0	68.0	2.5	/experiments/knapen_aot/videos/R_S_ILSVRC2015_train_00762000.mp4	0.0	363.5991768836975	2.5083539485931396
70	216.5981569290161	fix_post	2		12.0	68.0	2.5	/experiments/knapen_aot/videos/R_S_ILSVRC2015_train_00762000.mp4	0.0	366.10753083229065	0.10002708435058594
71	216.6981840133667	fix_pre	0		1.0	69.0	2.5	/experiments/knapen_aot/videos/S_yt-GFcuvjHJmS4_86.mp4	0.0	366.20755791664124	0.008287906646728516
71	216.69982504844666	response	0	4		69.0	2.5	/experiments/knapen_aot/videos/S_yt-GFcuvjHJmS4_86.mp4	0.0	366.2091989517212	
71	216.70647192001343	movie	1		301.0	69.0	2.5	/experiments/knapen_aot/videos/S_yt-GFcuvjHJmS4_86.mp4	0.0	366.21584582328796	2.5083069801330566
71	219.21477890014648	fix_post	2		12.0	69.0	2.5	/experiments/knapen_aot/videos/S_yt-GFcuvjHJmS4_86.mp4	0.0	368.724152803421	0.10002017021179199
72	219.31479907035828	fix_pre	0		138.0	70.0	2.5	blank	1.0	368.8241729736328	1.1499419212341309
72	220.45657300949097	response	0	4		70.0	2.5	blank	1.0	369.9659469127655	
72	220.4647409915924	movie	1		301.0	70.0	2.5	blank	1.0	369.97411489486694	2.5084099769592285
72	222.97315096855164	fix_post	2		12.0	70.0	2.5	blank	1.0	372.4825248718262	0.09995102882385254
73	223.0731019973755	fix_pre	0		19.0	71.0	2.5	/experiments/knapen_aot/videos/S_yt-y6zr69M0yHI_76.mp4	0.0	372.58247590065	0.1582949161529541
73	223.22322511672974	response	0	4		71.0	2.5	/experiments/knapen_aot/videos/S_yt-y6zr69M0yHI_76.mp4	0.0	372.7325990200043	
73	223.23139691352844	movie	1		300.0	71.0	2.5	/experiments/knapen_aot/videos/S_yt-y6zr69M0yHI_76.mp4	0.0	372.740770816803	2.5083839893341064
73	225.73978090286255	fix_post	2		12.0	71.0	2.5	/experiments/knapen_aot/videos/S_yt-y6zr69M0yHI_76.mp4	0.0	375.2491548061371	0.09997415542602539
74	225.83975505828857	fix_pre	0		23.0	72.0	2.5	/experiments/knapen_aot/videos/R_S_yt-sTBOjPxix5c_1072.mp4	0.0	375.3491289615631	0.19251394271850586
74	226.02326011657715	response	0	4		72.0	2.5	/experiments/knapen_aot/videos/R_S_yt-sTBOjPxix5c_1072.mp4	0.0	375.5326340198517	
74	226.03226900100708	movie	1		301.0	72.0	2.5	/experiments/knapen_aot/videos/R_S_yt-sTBOjPxix5c_1072.mp4	0.0	375.5416429042816	2.507534980773926
74	228.539803981781	fix_post	2		12.0	72.0	2.5	/experiments/knapen_aot/videos/R_S_yt-sTBOjPxix5c_1072.mp4	0.0	378.04917788505554	0.09999608993530273
75	228.6398000717163	fix_pre	0		36.0	73.0	2.5	/experiments/knapen_aot/videos/S_yt-etQaTgGOhR4_69.mp4	0.0	378.14917397499084	0.2999448776245117
75	228.9316430091858	response	0	4		73.0	2.5	/experiments/knapen_aot/videos/S_yt-etQaTgGOhR4_69.mp4	0.0	378.4410169124603	
75	228.93974494934082	movie	1		301.0	73.0	2.5	/experiments/knapen_aot/videos/S_yt-etQaTgGOhR4_69.mp4	0.0	378.44911885261536	2.5083539485931396
75	231.44809889793396	fix_post	2		12.0	73.0	2.5	/experiments/knapen_aot/videos/S_yt-etQaTgGOhR4_69.mp4	0.0	380.9574728012085	0.10001301765441895
76	231.54811191558838	fix_pre	0		45.0	74.0	2.5	/experiments/knapen_aot/videos/S_yt-GETRVzxihhM_74.mp4	0.0	381.0574858188629	0.3749580383300781
76	231.91508412361145	response	0	4		74.0	2.5	/experiments/knapen_aot/videos/S_yt-GETRVzxihhM_74.mp4	0.0	381.424458026886	
76	231.92306995391846	movie	1		301.0	74.0	2.5	/experiments/knapen_aot/videos/S_yt-GETRVzxihhM_74.mp4	0.0	381.432443857193	2.5083260536193848
76	234.43139600753784	fix_post	2		12.0	74.0	2.5	/experiments/knapen_aot/videos/S_yt-GETRVzxihhM_74.mp4	0.0	383.9407699108124	0.10006093978881836
77	234.53145694732666	fix_pre	0		55.0	75.0	2.5	blank	1.0	384.0408308506012	0.45917201042175293
77	234.981516122818	response	0	4		75.0	2.5	blank	1.0	384.49089002609253	
77	234.9906289577484	movie	1		301.0	75.0	2.5	blank	1.0	384.50000286102295	2.507500171661377
77	237.4981291294098	fix_post	2		12.0	75.0	2.5	blank	1.0	387.0075030326843	0.09998178482055664
78	237.59811091423035	fix_pre	0		90.0	76.0	2.5	/experiments/knapen_aot/videos/S_pexels-koolshooters-7689098.mp4	0.0	387.1074848175049	0.7499830722808838
78	238.33993196487427	response	0	4		76.0	2.5	/experiments/knapen_aot/videos/S_pexels-koolshooters-7689098.mp4	0.0	387.8493058681488	
78	238.34809398651123	movie	1		169.0	76.0	2.5	/experiments/knapen_aot/videos/S_pexels-koolshooters-7689098.mp4	0.0	387.85746788978577	2.508312940597534
78	240.85640692710876	fix_post	2		12.0	76.0	2.5	/experiments/knapen_aot/videos/S_pexels-koolshooters-7689098.mp4	0.0	390.3657808303833	0.09999704360961914
78	240.91495609283447	response	2	4		76.0	2.5	/experiments/knapen_aot/videos/S_pexels-koolshooters-7689098.mp4	0.0	390.424329996109	
79	240.95640397071838	fix_pre	0		138.0	77.0	2.5	/experiments/knapen_aot/videos/S_yt-1CV2cYtUlxE_57.mp4	0.0	390.4657778739929	1.1499669551849365
79	242.0982060432434	response	0	4		77.0	2.5	/experiments/knapen_aot/videos/S_yt-1CV2cYtUlxE_57.mp4	0.0	391.60757994651794	
79	242.10637092590332	movie	1		300.0	77.0	2.5	/experiments/knapen_aot/videos/S_yt-1CV2cYtUlxE_57.mp4	0.0	391.61574482917786	2.508345127105713
79	244.61471605300903	fix_post	2		12.0	77.0	2.5	/experiments/knapen_aot/videos/S_yt-1CV2cYtUlxE_57.mp4	0.0	394.12408995628357	0.10001587867736816
80	244.7147319316864	fix_pre	0		22.0	78.0	2.5	/experiments/knapen_aot/videos/S_yt-EKPrSw5xF7k_112.mp4	0.0	394.22410583496094	0.1832411289215088
80	244.88979601860046	response	0	4		78.0	2.5	/experiments/knapen_aot/videos/S_yt-EKPrSw5xF7k_112.mp4	0.0	394.399169921875	
80	244.8979730606079	movie	1		301.0	78.0	2.5	/experiments/knapen_aot/videos/S_yt-EKPrSw5xF7k_112.mp4	0.0	394.40734696388245	2.508401870727539
80	247.40637493133545	fix_post	2		12.0	78.0	2.5	/experiments/knapen_aot/videos/S_yt-EKPrSw5xF7k_112.mp4	0.0	396.91574883461	0.0999751091003418
81	247.5063500404358	fix_pre	0		34.0	79.0	2.5	/experiments/knapen_aot/videos/S_video_inspire_oregon_lone-ranch-beach_00015.1080-h264.mp4	0.0	397.0157239437103	0.2833120822906494
81	247.78145098686218	response	0	4		79.0	2.5	/experiments/knapen_aot/videos/S_video_inspire_oregon_lone-ranch-beach_00015.1080-h264.mp4	0.0	397.2908248901367	
81	247.78966212272644	movie	1		168.0	79.0	2.5	/experiments/knapen_aot/videos/S_video_inspire_oregon_lone-ranch-beach_00015.1080-h264.mp4	0.0	397.299036026001	2.5083959102630615
81	250.2980580329895	fix_post	2		12.0	79.0	2.5	/experiments/knapen_aot/videos/S_video_inspire_oregon_lone-ranch-beach_00015.1080-h264.mp4	0.0	399.80743193626404	0.09987092018127441
82	250.39792895317078	fix_pre	0		5.0	80.0	2.5	/experiments/knapen_aot/videos/R_S_yt-6B69qmkEdTI_1.mp4	0.0	399.9073028564453	0.04381299018859863
82	250.4315640926361	response	0	4		80.0	2.5	/experiments/knapen_aot/videos/R_S_yt-6B69qmkEdTI_1.mp4	0.0	399.94093799591064	
82	250.44174194335938	movie	1		301.0	80.0	2.5	/experiments/knapen_aot/videos/R_S_yt-6B69qmkEdTI_1.mp4	0.0	399.9511158466339	2.5062179565429688
82	252.94795989990234	fix_post	2		12.0	80.0	2.5	/experiments/knapen_aot/videos/R_S_yt-6B69qmkEdTI_1.mp4	0.0	402.4573338031769	0.10005807876586914
83	253.0480179786682	fix_pre	0		37.0	81.0	2.5	/experiments/knapen_aot/videos/R_S_yt-HwZFMTZ7Xko_35.mp4	0.0	402.55739188194275	0.3083200454711914
83	253.34806489944458	response	0	4		81.0	2.5	/experiments/knapen_aot/videos/R_S_yt-HwZFMTZ7Xko_35.mp4	0.0	402.8574388027191	
83	253.3563380241394	movie	1		301.0	81.0	2.5	/experiments/knapen_aot/videos/R_S_yt-HwZFMTZ7Xko_35.mp4	0.0	402.86571192741394	2.508327007293701
83	255.8646650314331	fix_post	2		12.0	81.0	2.5	/experiments/knapen_aot/videos/R_S_yt-HwZFMTZ7Xko_35.mp4	0.0	405.37403893470764	0.09999489784240723
84	255.9646599292755	fix_pre	0		13.0	82.0	2.5	/experiments/knapen_aot/videos/R_S_yt-GaJaxp546lc_22.mp4	0.0	405.47403383255005	0.10903310775756836
84	256.06476497650146	response	0	4		82.0	2.5	/experiments/knapen_aot/videos/R_S_yt-GaJaxp546lc_22.mp4	0.0	405.574138879776	
84	256.0736930370331	movie	1		301.0	82.0	2.5	/experiments/knapen_aot/videos/R_S_yt-GaJaxp546lc_22.mp4	0.0	405.5830669403076	2.5076959133148193
84	258.5813889503479	fix_post	2		12.0	82.0	2.5	/experiments/knapen_aot/videos/R_S_yt-GaJaxp546lc_22.mp4	0.0	408.09076285362244	0.09992694854736328
85	258.68131589889526	fix_pre	0		36.0	83.0	2.5	blank	1.0	408.1906898021698	0.3000180721282959
85	258.97314500808716	response	0	4		83.0	2.5	blank	1.0	408.4825189113617	
85	258.98133397102356	movie	1		301.0	83.0	2.5	blank	1.0	408.4907078742981	2.508291006088257
85	260.85638999938965	response	1	4		83.0	2.5	blank	1.0	410.3657639026642	
85	261.4896249771118	fix_post	2		12.0	83.0	2.5	blank	1.0	410.99899888038635	0.09992313385009766
87	261.5895481109619	stim	0		170.0					411.09892201423645	1.4167649745941162
87	263.0001609325409	response	0	space						412.50953483581543	
