trial_nr	onset	event_type	phase	response	nr_frames	movie_index	movie_duration	movie_file	blank	onset_abs	duration
0	0.12897896766662598	stim	0		18.0					60.76929593086243	0.14596796035766602
0	0.26732397079467773	response	0	space						60.90764093399048	
1	0.274946928024292	stim	0		121.0					60.91526389122009	1.0084631443023682
1	1.2668359279632568	response	0	space						61.90715289115906	
1	1.2834100723266602	stim	1		120.0					61.92372703552246	0.9996399879455566
2	2.283050060272217	fix_pre	0		55.0	0.0	2.5	/experiments/knapen_aot/videos/R_S_yt-3TF_RGo9cLs_541.mp4	0.0	62.92336702346802	0.4582829475402832
2	2.7331881523132324	response	0	space		0.0	2.5	/experiments/knapen_aot/videos/R_S_yt-3TF_RGo9cLs_541.mp4	0.0	63.37350511550903	
2	2.7413330078125	movie	1		300.0	0.0	2.5	/experiments/knapen_aot/videos/R_S_yt-3TF_RGo9cLs_541.mp4	0.0	63.3816499710083	2.5083529949188232
2	5.249686002731323	fix_post	2		12.0	0.0	2.5	/experiments/knapen_aot/videos/R_S_yt-3TF_RGo9cLs_541.mp4	0.0	65.89000296592712	0.10002994537353516
3	5.349715948104858	fix_pre	0		210.0	1.0	2.5	/experiments/knapen_aot/videos/R_S_production_ID_4153808.mp4	0.0	65.99003291130066	1.75101900100708
3	7.093696117401123	response	0	2		1.0	2.5	/experiments/knapen_aot/videos/R_S_production_ID_4153808.mp4	0.0	67.73401308059692	
3	7.1007349491119385	movie	1		209.0	1.0	2.5	/experiments/knapen_aot/videos/R_S_production_ID_4153808.mp4	0.0	67.74105191230774	2.5073800086975098
3	9.608114957809448	fix_post	2		12.0	1.0	2.5	/experiments/knapen_aot/videos/R_S_production_ID_4153808.mp4	0.0	70.24843192100525	0.0999140739440918
4	9.70802903175354	fix_pre	0		81.0	2.0	2.5	/experiments/knapen_aot/videos/R_S_yt-XBAU3cq0rZs_150.mp4	0.0	70.34834599494934	0.67488694190979
4	10.374807119369507	response	0	2		2.0	2.5	/experiments/knapen_aot/videos/R_S_yt-XBAU3cq0rZs_150.mp4	0.0	71.01512408256531	
4	10.38291597366333	movie	1		301.0	2.0	2.5	/experiments/knapen_aot/videos/R_S_yt-XBAU3cq0rZs_150.mp4	0.0	71.02323293685913	2.5084400177001953
4	12.891355991363525	fix_post	2		12.0	2.0	2.5	/experiments/knapen_aot/videos/R_S_yt-XBAU3cq0rZs_150.mp4	0.0	73.53167295455933	0.09998297691345215
5	12.991338968276978	fix_pre	0		59.0	3.0	2.5	/experiments/knapen_aot/videos/R_S_yt-HwEfWfFJhRo_126.mp4	0.0	73.63165593147278	0.4916369915008545
5	13.474823951721191	response	0	2		3.0	2.5	/experiments/knapen_aot/videos/R_S_yt-HwEfWfFJhRo_126.mp4	0.0	74.11514091491699	
5	13.482975959777832	movie	1		301.0	3.0	2.5	/experiments/knapen_aot/videos/R_S_yt-HwEfWfFJhRo_126.mp4	0.0	74.12329292297363	2.5083820819854736
5	15.991358041763306	fix_post	2		12.0	3.0	2.5	/experiments/knapen_aot/videos/R_S_yt-HwEfWfFJhRo_126.mp4	0.0	76.6316750049591	0.10002708435058594
6	16.09138512611389	fix_pre	0		38.0	4.0	2.5	/experiments/knapen_aot/videos/R_S_ILSVRC2015_train_00165008.mp4	0.0	76.73170208930969	0.3165149688720703
6	16.39224410057068	response	0	2		4.0	2.5	/experiments/knapen_aot/videos/R_S_ILSVRC2015_train_00165008.mp4	0.0	77.03256106376648	
6	16.407900094985962	movie	1		301.0	4.0	2.5	/experiments/knapen_aot/videos/R_S_ILSVRC2015_train_00165008.mp4	0.0	77.04821705818176	2.508478879928589
6	18.91637897491455	fix_post	2		12.0	4.0	2.5	/experiments/knapen_aot/videos/R_S_ILSVRC2015_train_00165008.mp4	0.0	79.55669593811035	0.09993815422058105
7	19.016317129135132	fix_pre	0		45.0	5.0	2.5	/experiments/knapen_aot/videos/R_S_yt-r2jZ0zZrqzQ_45.mp4	0.0	79.65663409233093	0.3760550022125244
7	19.38308596611023	response	0	2		5.0	2.5	/experiments/knapen_aot/videos/R_S_yt-r2jZ0zZrqzQ_45.mp4	0.0	80.02340292930603	
7	19.392372131347656	movie	1		301.0	5.0	2.5	/experiments/knapen_aot/videos/R_S_yt-r2jZ0zZrqzQ_45.mp4	0.0	80.03268909454346	2.507473945617676
7	21.899846076965332	fix_post	2		12.0	5.0	2.5	/experiments/knapen_aot/videos/R_S_yt-r2jZ0zZrqzQ_45.mp4	0.0	82.54016304016113	0.09982991218566895
8	21.999675989151	fix_pre	0		48.0	6.0	2.5	blank	1.0	82.6399929523468	0.39984798431396484
8	22.39145302772522	response	0	2		6.0	2.5	blank	1.0	83.03176999092102	
8	22.399523973464966	movie	1		301.0	6.0	2.5	blank	1.0	83.03984093666077	2.5084590911865234
8	24.90798306465149	fix_post	2		12.0	6.0	2.5	blank	1.0	85.54830002784729	0.10001301765441895
9	25.007996082305908	fix_pre	0		54.0	7.0	2.5	/experiments/knapen_aot/videos/R_S_pexels-marcus-aurelius-6785014.mp4	0.0	85.64831304550171	0.4498929977416992
9	25.442184925079346	response	0	2		7.0	2.5	/experiments/knapen_aot/videos/R_S_pexels-marcus-aurelius-6785014.mp4	0.0	86.08250188827515	
9	25.457889080047607	movie	1		167.0	7.0	2.5	/experiments/knapen_aot/videos/R_S_pexels-marcus-aurelius-6785014.mp4	0.0	86.09820604324341	2.5083868503570557
9	27.966275930404663	fix_post	2		12.0	7.0	2.5	/experiments/knapen_aot/videos/R_S_pexels-marcus-aurelius-6785014.mp4	0.0	88.60659289360046	0.10002613067626953
10	28.066302061080933	fix_pre	0		40.0	8.0	2.5	/experiments/knapen_aot/videos/S_yt-eczLsCTIyn0_553.mp4	0.0	88.70661902427673	0.3333408832550049
10	28.391451120376587	response	0	2		8.0	2.5	/experiments/knapen_aot/videos/S_yt-eczLsCTIyn0_553.mp4	0.0	89.03176808357239	
10	28.399642944335938	movie	1		301.0	8.0	2.5	/experiments/knapen_aot/videos/S_yt-eczLsCTIyn0_553.mp4	0.0	89.03995990753174	2.5083181858062744
10	30.907961130142212	fix_post	2		12.0	8.0	2.5	/experiments/knapen_aot/videos/S_yt-eczLsCTIyn0_553.mp4	0.0	91.54827809333801	0.09999299049377441
11	31.007954120635986	fix_pre	0		76.0	9.0	2.5	/experiments/knapen_aot/videos/S_pexels-c-technical-6763571.mp4	0.0	91.64827108383179	0.6342120170593262
11	31.63302707672119	response	0	2		9.0	2.5	/experiments/knapen_aot/videos/S_pexels-c-technical-6763571.mp4	0.0	92.27334403991699	
11	31.642166137695312	movie	1		186.0	9.0	2.5	/experiments/knapen_aot/videos/S_pexels-c-technical-6763571.mp4	0.0	92.28248310089111	2.5074548721313477
11	34.14962100982666	fix_post	2		12.0	9.0	2.5	/experiments/knapen_aot/videos/S_pexels-c-technical-6763571.mp4	0.0	94.78993797302246	0.0999460220336914
12	34.24956703186035	fix_pre	0		60.0	10.0	2.5	/experiments/knapen_aot/videos/S_pexels-kampus-production-5991896.mp4	0.0	94.88988399505615	0.49990200996398926
12	34.741403102874756	response	0	2		10.0	2.5	/experiments/knapen_aot/videos/S_pexels-kampus-production-5991896.mp4	0.0	95.38172006607056	
12	34.74946904182434	movie	1		164.0	10.0	2.5	/experiments/knapen_aot/videos/S_pexels-kampus-production-5991896.mp4	0.0	95.38978600502014	2.5085909366607666
12	37.25805997848511	fix_post	2		12.0	10.0	2.5	/experiments/knapen_aot/videos/S_pexels-kampus-production-5991896.mp4	0.0	97.89837694168091	0.09987306594848633
13	37.357933044433594	fix_pre	0		37.0	11.0	2.5	/experiments/knapen_aot/videos/R_S_yt--DXkjCUzThU_413.mp4	0.0	97.9982500076294	0.3083040714263916
13	37.65809392929077	response	0	2		11.0	2.5	/experiments/knapen_aot/videos/R_S_yt--DXkjCUzThU_413.mp4	0.0	98.29841089248657	
13	37.666237115859985	movie	1		301.0	11.0	2.5	/experiments/knapen_aot/videos/R_S_yt--DXkjCUzThU_413.mp4	0.0	98.30655407905579	2.5082969665527344
13	40.17453408241272	fix_post	2		12.0	11.0	2.5	/experiments/knapen_aot/videos/R_S_yt--DXkjCUzThU_413.mp4	0.0	100.81485104560852	0.10003805160522461
14	40.274572134017944	fix_pre	0		53.0	12.0	2.5	/experiments/knapen_aot/videos/S_yt-n_eO-7KedAE_21.mp4	0.0	100.91488909721375	0.4416468143463135
14	40.70812702178955	response	0	2		12.0	2.5	/experiments/knapen_aot/videos/S_yt-n_eO-7KedAE_21.mp4	0.0	101.34844398498535	
14	40.71621894836426	movie	1		301.0	12.0	2.5	/experiments/knapen_aot/videos/S_yt-n_eO-7KedAE_21.mp4	0.0	101.35653591156006	2.5083320140838623
14	43.22455096244812	fix_post	2		12.0	12.0	2.5	/experiments/knapen_aot/videos/S_yt-n_eO-7KedAE_21.mp4	0.0	103.86486792564392	0.09998703002929688
15	43.32453799247742	fix_pre	0		71.0	13.0	2.5	/experiments/knapen_aot/videos/S_yt-QFGyhhr1KSQ_9.mp4	0.0	103.96485495567322	0.5916459560394287
15	43.90801000595093	response	0	2		13.0	2.5	/experiments/knapen_aot/videos/S_yt-QFGyhhr1KSQ_9.mp4	0.0	104.54832696914673	
15	43.916183948516846	movie	1		301.0	13.0	2.5	/experiments/knapen_aot/videos/S_yt-QFGyhhr1KSQ_9.mp4	0.0	104.55650091171265	2.50835919380188
15	46.424543142318726	fix_post	2		12.0	13.0	2.5	/experiments/knapen_aot/videos/S_yt-QFGyhhr1KSQ_9.mp4	0.0	107.06486010551453	0.1000819206237793
16	46.524625062942505	fix_pre	0		44.0	14.0	2.5	blank	1.0	107.1649420261383	0.36747097969055176
16	46.87546896934509	response	0	2		14.0	2.5	blank	1.0	107.5157859325409	
16	46.89209604263306	movie	1		301.0	14.0	2.5	blank	1.0	107.53241300582886	2.5074379444122314
16	49.39953398704529	fix_post	2		12.0	14.0	2.5	blank	1.0	110.03985095024109	0.10005903244018555
17	49.499593019485474	fix_pre	0		73.0	15.0	2.5	/experiments/knapen_aot/videos/R_S_comp_N003_C006_PS_v01_SDR_PS_20180925_SDR_2K_AVC.mp4	0.0	110.13990998268127	0.6082401275634766
17	50.09956908226013	response	0	2		15.0	2.5	/experiments/knapen_aot/videos/R_S_comp_N003_C006_PS_v01_SDR_PS_20180925_SDR_2K_AVC.mp4	0.0	110.73988604545593	
17	50.10783314704895	movie	1		172.0	15.0	2.5	/experiments/knapen_aot/videos/R_S_comp_N003_C006_PS_v01_SDR_PS_20180925_SDR_2K_AVC.mp4	0.0	110.74815011024475	2.508366823196411
17	52.61619997024536	fix_post	2		12.0	15.0	2.5	/experiments/knapen_aot/videos/R_S_comp_N003_C006_PS_v01_SDR_PS_20180925_SDR_2K_AVC.mp4	0.0	113.25651693344116	0.1000051498413086
18	52.71620512008667	fix_pre	0		58.0	16.0	2.5	/experiments/knapen_aot/videos/R_S_yt-h09NHEfoKb0_8.mp4	0.0	113.35652208328247	0.4833090305328369
18	53.191333055496216	response	0	2		16.0	2.5	/experiments/knapen_aot/videos/R_S_yt-h09NHEfoKb0_8.mp4	0.0	113.83165001869202	
18	53.19951415061951	movie	1		301.0	16.0	2.5	/experiments/knapen_aot/videos/R_S_yt-h09NHEfoKb0_8.mp4	0.0	113.83983111381531	2.508319854736328
18	55.707834005355835	fix_post	2		12.0	16.0	2.5	/experiments/knapen_aot/videos/R_S_yt-h09NHEfoKb0_8.mp4	0.0	116.34815096855164	0.09999704360961914
19	55.807831048965454	fix_pre	0		43.0	17.0	2.5	/experiments/knapen_aot/videos/R_S_I003_C008_SDR_2K_AVC.mp4	0.0	116.44814801216125	0.35832810401916504
19	56.15793299674988	response	0	2		17.0	2.5	/experiments/knapen_aot/videos/R_S_I003_C008_SDR_2K_AVC.mp4	0.0	116.79824995994568	
19	56.16615915298462	movie	1		171.0	17.0	2.5	/experiments/knapen_aot/videos/R_S_I003_C008_SDR_2K_AVC.mp4	0.0	116.80647611618042	2.5083858966827393
19	58.67454504966736	fix_post	2		12.0	17.0	2.5	/experiments/knapen_aot/videos/R_S_I003_C008_SDR_2K_AVC.mp4	0.0	119.31486201286316	0.09998703002929688
20	58.774532079696655	fix_pre	0		29.0	18.0	2.5	/experiments/knapen_aot/videos/S_ILSVRC2015_train_00155004.mp4	0.0	119.41484904289246	0.24238801002502441
20	59.007970094680786	response	0	2		18.0	2.5	/experiments/knapen_aot/videos/S_ILSVRC2015_train_00155004.mp4	0.0	119.64828705787659	
20	59.01692008972168	movie	1		301.0	18.0	2.5	/experiments/knapen_aot/videos/S_ILSVRC2015_train_00155004.mp4	0.0	119.65723705291748	2.507580041885376
20	61.524500131607056	fix_post	2		12.0	18.0	2.5	/experiments/knapen_aot/videos/S_ILSVRC2015_train_00155004.mp4	0.0	122.16481709480286	0.09994983673095703
21	61.62444996833801	fix_pre	0		55.0	19.0	2.5	/experiments/knapen_aot/videos/S_ILSVRC2015_train_00418004.mp4	0.0	122.26476693153381	0.458341121673584
21	62.06700611114502	response	0	2		19.0	2.5	/experiments/knapen_aot/videos/S_ILSVRC2015_train_00418004.mp4	0.0	122.70732307434082	
21	62.0827910900116	movie	1		301.0	19.0	2.5	/experiments/knapen_aot/videos/S_ILSVRC2015_train_00418004.mp4	0.0	122.7231080532074	2.5083320140838623
21	64.59112310409546	fix_post	2		12.0	19.0	2.5	/experiments/knapen_aot/videos/S_ILSVRC2015_train_00418004.mp4	0.0	125.23144006729126	0.09996795654296875
22	64.69109106063843	fix_pre	0		145.0	20.0	2.5	/experiments/knapen_aot/videos/R_S_yt-P8vJa4YVcGU_488.mp4	0.0	125.33140802383423	1.208353042602539
22	65.88362002372742	response	0	2		20.0	2.5	/experiments/knapen_aot/videos/R_S_yt-P8vJa4YVcGU_488.mp4	0.0	126.52393698692322	
22	65.89944410324097	movie	1		301.0	20.0	2.5	/experiments/knapen_aot/videos/R_S_yt-P8vJa4YVcGU_488.mp4	0.0	126.53976106643677	2.5084609985351562
22	68.40790510177612	fix_post	2		12.0	20.0	2.5	/experiments/knapen_aot/videos/R_S_yt-P8vJa4YVcGU_488.mp4	0.0	129.04822206497192	0.0999138355255127
23	68.50781893730164	fix_pre	0		70.0	21.0	2.5	blank	1.0	129.14813590049744	0.5832610130310059
23	69.08286094665527	response	0	2		21.0	2.5	blank	1.0	129.72317790985107	
23	69.09107995033264	movie	1		301.0	21.0	2.5	blank	1.0	129.73139691352844	2.50828218460083
23	71.59936213493347	fix_post	2		12.0	21.0	2.5	blank	1.0	132.23967909812927	0.1001119613647461
24	71.69947409629822	fix_pre	0		57.0	22.0	2.5	/experiments/knapen_aot/videos/S_dnLAfffA-kU_53.mp4	0.0	132.33979105949402	0.4749119281768799
24	72.16613101959229	response	0	2		22.0	2.5	/experiments/knapen_aot/videos/S_dnLAfffA-kU_53.mp4	0.0	132.8064479827881	
24	72.1743860244751	movie	1		301.0	22.0	2.5	/experiments/knapen_aot/videos/S_dnLAfffA-kU_53.mp4	0.0	132.8147029876709	2.508357048034668
24	74.68274307250977	fix_post	2		12.0	22.0	2.5	/experiments/knapen_aot/videos/S_dnLAfffA-kU_53.mp4	0.0	135.32306003570557	0.10001206398010254
25	74.78275513648987	fix_pre	0		66.0	23.0	2.5	/experiments/knapen_aot/videos/S_yt-ROhKDdF1gV4_21.mp4	0.0	135.42307209968567	0.5499489307403564
25	75.32452511787415	response	0	2		23.0	2.5	/experiments/knapen_aot/videos/S_yt-ROhKDdF1gV4_21.mp4	0.0	135.96484208106995	
25	75.33270406723022	movie	1		301.0	23.0	2.5	/experiments/knapen_aot/videos/S_yt-ROhKDdF1gV4_21.mp4	0.0	135.97302103042603	2.50833797454834
25	77.84104204177856	fix_post	2		12.0	23.0	2.5	/experiments/knapen_aot/videos/S_yt-ROhKDdF1gV4_21.mp4	0.0	138.48135900497437	0.10006499290466309
26	77.94110703468323	fix_pre	0		36.0	24.0	2.5	/experiments/knapen_aot/videos/S_yt-JkKOG9Fxykc_94.mp4	0.0	138.58142399787903	0.2999598979949951
26	78.23285293579102	response	0	2		24.0	2.5	/experiments/knapen_aot/videos/S_yt-JkKOG9Fxykc_94.mp4	0.0	138.87316989898682	
26	78.24106693267822	movie	1		301.0	24.0	2.5	/experiments/knapen_aot/videos/S_yt-JkKOG9Fxykc_94.mp4	0.0	138.88138389587402	2.5083160400390625
26	80.74938297271729	fix_post	2		12.0	24.0	2.5	/experiments/knapen_aot/videos/S_yt-JkKOG9Fxykc_94.mp4	0.0	141.3896999359131	0.10001802444458008
27	80.84940099716187	fix_pre	0		49.0	25.0	2.5	/experiments/knapen_aot/videos/S_PA_A002_C009_SDR_20190730_ALT01_SDR_2K_AVC.mp4	0.0	141.48971796035767	0.4083380699157715
27	81.24940896034241	response	0	2		25.0	2.5	/experiments/knapen_aot/videos/S_PA_A002_C009_SDR_20190730_ALT01_SDR_2K_AVC.mp4	0.0	141.8897259235382	
27	81.25773906707764	movie	1		163.0	25.0	2.5	/experiments/knapen_aot/videos/S_PA_A002_C009_SDR_20190730_ALT01_SDR_2K_AVC.mp4	0.0	141.89805603027344	2.508423089981079
27	83.76616215705872	fix_post	2		12.0	25.0	2.5	/experiments/knapen_aot/videos/S_PA_A002_C009_SDR_20190730_ALT01_SDR_2K_AVC.mp4	0.0	144.40647912025452	0.0998997688293457
28	83.86606192588806	fix_pre	0		45.0	26.0	2.5	/experiments/knapen_aot/videos/S_yt-bH4nJibL4Jo_164.mp4	0.0	144.50637888908386	0.375
28	84.2328360080719	response	0	2		26.0	2.5	/experiments/knapen_aot/videos/S_yt-bH4nJibL4Jo_164.mp4	0.0	144.8731529712677	
28	84.24106192588806	movie	1		301.0	26.0	2.5	/experiments/knapen_aot/videos/S_yt-bH4nJibL4Jo_164.mp4	0.0	144.88137888908386	2.5082831382751465
28	86.74934506416321	fix_post	2		12.0	26.0	2.5	/experiments/knapen_aot/videos/S_yt-bH4nJibL4Jo_164.mp4	0.0	147.389662027359	0.09997200965881348
29	86.84931707382202	fix_pre	0		68.0	27.0	2.5	/experiments/knapen_aot/videos/S_yt-tVfYnm81ywo_82.mp4	0.0	147.48963403701782	0.5666520595550537
29	87.4078140258789	response	0	2		27.0	2.5	/experiments/knapen_aot/videos/S_yt-tVfYnm81ywo_82.mp4	0.0	148.0481309890747	
29	87.41596913337708	movie	1		301.0	27.0	2.5	/experiments/knapen_aot/videos/S_yt-tVfYnm81ywo_82.mp4	0.0	148.05628609657288	2.5084228515625
29	89.92439198493958	fix_post	2		12.0	27.0	2.5	/experiments/knapen_aot/videos/S_yt-tVfYnm81ywo_82.mp4	0.0	150.56470894813538	0.09996700286865234
30	90.02435898780823	fix_pre	0		54.0	28.0	2.5	blank	1.0	150.66467595100403	0.45064496994018555
30	90.46609807014465	response	0	2		28.0	2.5	blank	1.0	151.10641503334045	
30	90.47500395774841	movie	1		301.0	28.0	2.5	blank	1.0	151.1153209209442	2.5077261924743652
30	92.98273015022278	fix_post	2		12.0	28.0	2.5	blank	1.0	153.62304711341858	0.09997677803039551
31	93.08270692825317	fix_pre	0		51.0	29.0	2.5	/experiments/knapen_aot/videos/R_S_yt-wqdTPz0bLrM_561.mp4	0.0	153.72302389144897	0.4249701499938965
31	93.4994969367981	response	0	2		29.0	2.5	/experiments/knapen_aot/videos/R_S_yt-wqdTPz0bLrM_561.mp4	0.0	154.1398138999939	
31	93.50767707824707	movie	1		301.0	29.0	2.5	/experiments/knapen_aot/videos/R_S_yt-wqdTPz0bLrM_561.mp4	0.0	154.14799404144287	2.5083720684051514
31	96.01604914665222	fix_post	2		12.0	29.0	2.5	/experiments/knapen_aot/videos/R_S_yt-wqdTPz0bLrM_561.mp4	0.0	156.65636610984802	0.10001492500305176
32	96.11606407165527	fix_pre	0		33.0	30.0	2.5	/experiments/knapen_aot/videos/S_yt-gaXgXGEanCk_140.mp4	0.0	156.75638103485107	0.2755730152130127
32	96.38283514976501	response	0	2		30.0	2.5	/experiments/knapen_aot/videos/S_yt-gaXgXGEanCk_140.mp4	0.0	157.02315211296082	
32	96.39163708686829	movie	1		301.0	30.0	2.5	/experiments/knapen_aot/videos/S_yt-gaXgXGEanCk_140.mp4	0.0	157.0319540500641	2.5077898502349854
32	98.89942693710327	fix_post	2		12.0	30.0	2.5	/experiments/knapen_aot/videos/S_yt-gaXgXGEanCk_140.mp4	0.0	159.53974390029907	0.09989404678344727
33	98.99932098388672	fix_pre	0		41.0	31.0	2.5	/experiments/knapen_aot/videos/S_yt-gzjV6YoK6X0_3.mp4	0.0	159.63963794708252	0.3416571617126465
33	99.33273410797119	response	0	2		31.0	2.5	/experiments/knapen_aot/videos/S_yt-gzjV6YoK6X0_3.mp4	0.0	159.973051071167	
33	99.34097814559937	movie	1		301.0	31.0	2.5	/experiments/knapen_aot/videos/S_yt-gzjV6YoK6X0_3.mp4	0.0	159.98129510879517	2.508319854736328
33	101.8492980003357	fix_post	2		12.0	31.0	2.5	/experiments/knapen_aot/videos/S_yt-gzjV6YoK6X0_3.mp4	0.0	162.4896149635315	0.10006093978881836
34	101.94935894012451	fix_pre	0		69.0	32.0	2.5	/experiments/knapen_aot/videos/R_S_yt-Rsfo57AlpLA_332.mp4	0.0	162.5896759033203	0.5749812126159668
34	102.51611995697021	response	0	2		32.0	2.5	/experiments/knapen_aot/videos/R_S_yt-Rsfo57AlpLA_332.mp4	0.0	163.15643692016602	
34	102.52434015274048	movie	1		301.0	32.0	2.5	/experiments/knapen_aot/videos/R_S_yt-Rsfo57AlpLA_332.mp4	0.0	163.16465711593628	2.5083119869232178
34	105.0326521396637	fix_post	2		12.0	32.0	2.5	/experiments/knapen_aot/videos/R_S_yt-Rsfo57AlpLA_332.mp4	0.0	165.6729691028595	0.09992480278015137
35	105.13257694244385	fix_pre	0		56.0	33.0	2.5	blank	1.0	165.77289390563965	0.46731019020080566
35	105.58366203308105	response	0	2		33.0	2.5	blank	1.0	166.22397899627686	
35	105.59988713264465	movie	1		301.0	33.0	2.5	blank	1.0	166.24020409584045	2.5077319145202637
35	108.10761904716492	fix_post	2		12.0	33.0	2.5	blank	1.0	168.74793601036072	0.09996700286865234
36	108.20758605003357	fix_pre	0		59.0	34.0	2.5	/experiments/knapen_aot/videos/R_S_yt-tqxZlasEvZA_43.mp4	0.0	168.84790301322937	0.49167704582214355
36	108.69107413291931	response	0	2		34.0	2.5	/experiments/knapen_aot/videos/R_S_yt-tqxZlasEvZA_43.mp4	0.0	169.3313910961151	
36	108.69926309585571	movie	1		301.0	34.0	2.5	/experiments/knapen_aot/videos/R_S_yt-tqxZlasEvZA_43.mp4	0.0	169.3395800590515	2.508394956588745
36	111.20765805244446	fix_post	2		12.0	34.0	2.5	/experiments/knapen_aot/videos/R_S_yt-tqxZlasEvZA_43.mp4	0.0	171.84797501564026	0.0999760627746582
37	111.30763411521912	fix_pre	0		49.0	35.0	2.5	/experiments/knapen_aot/videos/S_pexels-kampus-production-5991896.mp4	0.0	171.94795107841492	0.4083139896392822
37	111.7077910900116	response	0	2		35.0	2.5	/experiments/knapen_aot/videos/S_pexels-kampus-production-5991896.mp4	0.0	172.3481080532074	
37	111.7159481048584	movie	1		161.0	35.0	2.5	/experiments/knapen_aot/videos/S_pexels-kampus-production-5991896.mp4	0.0	172.3562650680542	2.5083699226379395
37	114.22431802749634	fix_post	2		12.0	35.0	2.5	/experiments/knapen_aot/videos/S_pexels-kampus-production-5991896.mp4	0.0	174.86463499069214	0.09994697570800781
38	114.32426500320435	fix_pre	0		52.0	36.0	2.5	/experiments/knapen_aot/videos/R_S_yt-Q6BFO3Yz0zY_363.mp4	0.0	174.96458196640015	0.43332815170288086
38	114.74942803382874	response	0	2		36.0	2.5	/experiments/knapen_aot/videos/R_S_yt-Q6BFO3Yz0zY_363.mp4	0.0	175.38974499702454	
38	114.75759315490723	movie	1		301.0	36.0	2.5	/experiments/knapen_aot/videos/R_S_yt-Q6BFO3Yz0zY_363.mp4	0.0	175.39791011810303	2.508462905883789
38	117.26605606079102	fix_post	2		12.0	36.0	2.5	/experiments/knapen_aot/videos/R_S_yt-Q6BFO3Yz0zY_363.mp4	0.0	177.90637302398682	0.09973907470703125
39	117.36579513549805	fix_pre	0		48.0	37.0	2.5	/experiments/knapen_aot/videos/R_S_yt-y2RUPYKfBZs_12.mp4	0.0	178.00611209869385	0.40061092376708984
39	117.75770306587219	response	0	2		37.0	2.5	/experiments/knapen_aot/videos/R_S_yt-y2RUPYKfBZs_12.mp4	0.0	178.398020029068	
39	117.76640605926514	movie	1		301.0	37.0	2.5	/experiments/knapen_aot/videos/R_S_yt-y2RUPYKfBZs_12.mp4	0.0	178.40672302246094	2.507873058319092
39	120.27427911758423	fix_post	2		12.0	37.0	2.5	/experiments/knapen_aot/videos/R_S_yt-y2RUPYKfBZs_12.mp4	0.0	180.91459608078003	0.09992289543151855
40	120.37420201301575	fix_pre	0		59.0	38.0	2.5	/experiments/knapen_aot/videos/R_S_yt-mdLT282PVbE_6.mp4	0.0	181.01451897621155	0.4916849136352539
40	120.85770201683044	response	0	2		38.0	2.5	/experiments/knapen_aot/videos/R_S_yt-mdLT282PVbE_6.mp4	0.0	181.49801898002625	
40	120.865886926651	movie	1		301.0	38.0	2.5	/experiments/knapen_aot/videos/R_S_yt-mdLT282PVbE_6.mp4	0.0	181.5062038898468	2.508336067199707
40	123.37422299385071	fix_post	2		12.0	38.0	2.5	/experiments/knapen_aot/videos/R_S_yt-mdLT282PVbE_6.mp4	0.0	184.0145399570465	0.10000896453857422
41	123.47423195838928	fix_pre	0		41.0	39.0	2.5	/experiments/knapen_aot/videos/S_comp_GL_G004_C010_PSNK_v04_SDR_PS_FINAL_20180709_SDR_2K_AVC.mp4	0.0	184.11454892158508	0.34165501594543457
41	123.8075749874115	response	0	2		39.0	2.5	/experiments/knapen_aot/videos/S_comp_GL_G004_C010_PSNK_v04_SDR_PS_FINAL_20180709_SDR_2K_AVC.mp4	0.0	184.4478919506073	
41	123.81588697433472	movie	1		166.0	39.0	2.5	/experiments/knapen_aot/videos/S_comp_GL_G004_C010_PSNK_v04_SDR_PS_FINAL_20180709_SDR_2K_AVC.mp4	0.0	184.45620393753052	2.5083210468292236
41	126.32420802116394	fix_post	2		12.0	39.0	2.5	/experiments/knapen_aot/videos/S_comp_GL_G004_C010_PSNK_v04_SDR_PS_FINAL_20180709_SDR_2K_AVC.mp4	0.0	186.96452498435974	0.10019898414611816
42	126.42440700531006	fix_pre	0		32.0	40.0	2.5	blank	1.0	187.06472396850586	0.26647305488586426
42	126.68263792991638	response	0	2		40.0	2.5	blank	1.0	187.32295489311218	
42	126.69088006019592	movie	1		301.0	40.0	2.5	blank	1.0	187.33119702339172	2.508359909057617
42	129.19923996925354	fix_post	2		12.0	40.0	2.5	blank	1.0	189.83955693244934	0.09995198249816895
43	129.2991919517517	fix_pre	0		45.0	41.0	2.5	/experiments/knapen_aot/videos/R_S_yt--C2DDZ7LOQA_95.mp4	0.0	189.9395089149475	0.3749701976776123
43	129.66602492332458	response	0	2		41.0	2.5	/experiments/knapen_aot/videos/R_S_yt--C2DDZ7LOQA_95.mp4	0.0	190.30634188652039	
43	129.67416214942932	movie	1		301.0	41.0	2.5	/experiments/knapen_aot/videos/R_S_yt--C2DDZ7LOQA_95.mp4	0.0	190.31447911262512	2.5083229541778564
43	132.18248510360718	fix_post	2		12.0	41.0	2.5	/experiments/knapen_aot/videos/R_S_yt--C2DDZ7LOQA_95.mp4	0.0	192.82280206680298	0.10003185272216797
44	132.28251695632935	fix_pre	0		62.0	42.0	2.5	/experiments/knapen_aot/videos/R_S_yt-l_ioasf6yHg_44.mp4	0.0	192.92283391952515	0.5166060924530029
44	132.79100608825684	response	0	2		42.0	2.5	/experiments/knapen_aot/videos/R_S_yt-l_ioasf6yHg_44.mp4	0.0	193.43132305145264	
44	132.79912304878235	movie	1		301.0	42.0	2.5	/experiments/knapen_aot/videos/R_S_yt-l_ioasf6yHg_44.mp4	0.0	193.43944001197815	2.5083260536193848
44	135.30744910240173	fix_post	2		12.0	42.0	2.5	/experiments/knapen_aot/videos/R_S_yt-l_ioasf6yHg_44.mp4	0.0	195.94776606559753	0.10027289390563965
45	135.40772199630737	fix_pre	0		47.0	43.0	2.5	/experiments/knapen_aot/videos/S_g201_AK_A003_C014_SDR_20191113_SDR_2K_AVC.mp4	0.0	196.04803895950317	0.39142799377441406
45	135.79093503952026	response	0	2		43.0	2.5	/experiments/knapen_aot/videos/S_g201_AK_A003_C014_SDR_20191113_SDR_2K_AVC.mp4	0.0	196.43125200271606	
45	135.7991499900818	movie	1		165.0	43.0	2.5	/experiments/knapen_aot/videos/S_g201_AK_A003_C014_SDR_20191113_SDR_2K_AVC.mp4	0.0	196.4394669532776	2.5084290504455566
45	138.30757904052734	fix_post	2		12.0	43.0	2.5	/experiments/knapen_aot/videos/S_g201_AK_A003_C014_SDR_20191113_SDR_2K_AVC.mp4	0.0	198.94789600372314	0.09987902641296387
46	138.4074580669403	fix_pre	0		47.0	44.0	2.5	/experiments/knapen_aot/videos/R_S_ILSVRC2015_train_00563000.mp4	0.0	199.0477750301361	0.39165496826171875
46	138.7908320426941	response	0	2		44.0	2.5	/experiments/knapen_aot/videos/R_S_ILSVRC2015_train_00563000.mp4	0.0	199.4311490058899	
46	138.79911303520203	movie	1		301.0	44.0	2.5	/experiments/knapen_aot/videos/R_S_ILSVRC2015_train_00563000.mp4	0.0	199.43942999839783	2.5083420276641846
46	141.3074550628662	fix_post	2		12.0	44.0	2.5	/experiments/knapen_aot/videos/R_S_ILSVRC2015_train_00563000.mp4	0.0	201.947772026062	0.10015106201171875
47	141.40760612487793	fix_pre	0		42.0	45.0	2.5	/experiments/knapen_aot/videos/R_S_yt-bH4nJibL4Jo_164.mp4	0.0	202.04792308807373	0.34975695610046387
47	141.7492711544037	response	0	2		45.0	2.5	/experiments/knapen_aot/videos/R_S_yt-bH4nJibL4Jo_164.mp4	0.0	202.3895881175995	
47	141.7573630809784	movie	1		301.0	45.0	2.5	/experiments/knapen_aot/videos/R_S_yt-bH4nJibL4Jo_164.mp4	0.0	202.3976800441742	2.5083868503570557
47	144.26574993133545	fix_post	2		12.0	45.0	2.5	/experiments/knapen_aot/videos/R_S_yt-bH4nJibL4Jo_164.mp4	0.0	204.90606689453125	0.10006117820739746
48	144.36581110954285	fix_pre	0		64.0	46.0	2.5	/experiments/knapen_aot/videos/R_S_yt-vjed5qyKqZw_1.mp4	0.0	205.00612807273865	0.5333089828491211
48	144.89089608192444	response	0	2		46.0	2.5	/experiments/knapen_aot/videos/R_S_yt-vjed5qyKqZw_1.mp4	0.0	205.53121304512024	
48	144.89912009239197	movie	1		301.0	46.0	2.5	/experiments/knapen_aot/videos/R_S_yt-vjed5qyKqZw_1.mp4	0.0	205.53943705558777	2.50838303565979
48	147.40750312805176	fix_post	2		12.0	46.0	2.5	/experiments/knapen_aot/videos/R_S_yt-vjed5qyKqZw_1.mp4	0.0	208.04782009124756	0.09998488426208496
49	147.50748801231384	fix_pre	0		38.0	47.0	2.5	/experiments/knapen_aot/videos/R_S_ILSVRC2015_train_00404004.mp4	0.0	208.14780497550964	0.3166320323944092
49	147.81595301628113	response	0	2		47.0	2.5	/experiments/knapen_aot/videos/R_S_ILSVRC2015_train_00404004.mp4	0.0	208.45626997947693	
49	147.82412004470825	movie	1		301.0	47.0	2.5	/experiments/knapen_aot/videos/R_S_ILSVRC2015_train_00404004.mp4	0.0	208.46443700790405	2.5082850456237793
49	150.33240509033203	fix_post	2		12.0	47.0	2.5	/experiments/knapen_aot/videos/R_S_ILSVRC2015_train_00404004.mp4	0.0	210.97272205352783	0.10006499290466309
50	150.4324700832367	fix_pre	0		66.0	48.0	2.5	/experiments/knapen_aot/videos/S_yt-bQRBtP9zkms_111.mp4	0.0	211.0727870464325	0.5499820709228516
50	150.97413897514343	response	0	2		48.0	2.5	/experiments/knapen_aot/videos/S_yt-bQRBtP9zkms_111.mp4	0.0	211.61445593833923	
50	150.98245215415955	movie	1		301.0	48.0	2.5	/experiments/knapen_aot/videos/S_yt-bQRBtP9zkms_111.mp4	0.0	211.62276911735535	2.508305788040161
50	153.4907579421997	fix_post	2		12.0	48.0	2.5	/experiments/knapen_aot/videos/S_yt-bQRBtP9zkms_111.mp4	0.0	214.1310749053955	0.09991812705993652
51	153.59067606925964	fix_pre	0		53.0	49.0	2.5	blank	1.0	214.23099303245544	0.4416780471801758
51	154.0242199897766	response	0	2		49.0	2.5	blank	1.0	214.6645369529724	
51	154.03235411643982	movie	1		301.0	49.0	2.5	blank	1.0	214.67267107963562	2.5084428787231445
51	156.54079699516296	fix_post	2		12.0	49.0	2.5	blank	1.0	217.18111395835876	0.10034394264221191
52	156.64114093780518	fix_pre	0		56.0	50.0	2.5	/experiments/knapen_aot/videos/S_S005_C015_SDR_2K_AVC.mp4	0.0	217.28145790100098	0.4662160873413086
52	157.09912610054016	response	0	2		50.0	2.5	/experiments/knapen_aot/videos/S_S005_C015_SDR_2K_AVC.mp4	0.0	217.73944306373596	
52	157.10735702514648	movie	1		169.0	50.0	2.5	/experiments/knapen_aot/videos/S_S005_C015_SDR_2K_AVC.mp4	0.0	217.74767398834229	2.508455991744995
52	159.61581301689148	fix_post	2		12.0	50.0	2.5	/experiments/knapen_aot/videos/S_S005_C015_SDR_2K_AVC.mp4	0.0	220.25612998008728	0.09991812705993652
53	159.71573114395142	fix_pre	0		33.0	51.0	2.5	/experiments/knapen_aot/videos/R_S_yt-eczLsCTIyn0_553.mp4	0.0	220.35604810714722	0.27496886253356934
53	159.9825520515442	response	0	2		51.0	2.5	/experiments/knapen_aot/videos/R_S_yt-eczLsCTIyn0_553.mp4	0.0	220.62286901474	
53	159.99070000648499	movie	1		301.0	51.0	2.5	/experiments/knapen_aot/videos/R_S_yt-eczLsCTIyn0_553.mp4	0.0	220.6310169696808	2.5083370208740234
53	162.499037027359	fix_post	2		12.0	51.0	2.5	/experiments/knapen_aot/videos/R_S_yt-eczLsCTIyn0_553.mp4	0.0	223.1393539905548	0.10048413276672363
54	162.59952116012573	fix_pre	0		47.0	52.0	2.5	/experiments/knapen_aot/videos/S_yt-h09NHEfoKb0_8.mp4	0.0	223.23983812332153	0.391143798828125
54	162.98251795768738	response	0	2		52.0	2.5	/experiments/knapen_aot/videos/S_yt-h09NHEfoKb0_8.mp4	0.0	223.62283492088318	
54	162.99066495895386	movie	1		301.0	52.0	2.5	/experiments/knapen_aot/videos/S_yt-h09NHEfoKb0_8.mp4	0.0	223.63098192214966	2.5083541870117188
54	165.49901914596558	fix_post	2		12.0	52.0	2.5	/experiments/knapen_aot/videos/S_yt-h09NHEfoKb0_8.mp4	0.0	226.13933610916138	0.10032892227172852
55	165.5993480682373	fix_pre	0		39.0	53.0	2.5	/experiments/knapen_aot/videos/R_S_S006_C007_SDR_2K_AVC.mp4	0.0	226.2396650314331	0.3247098922729492
55	165.90835404396057	response	0	2		53.0	2.5	/experiments/knapen_aot/videos/R_S_S006_C007_SDR_2K_AVC.mp4	0.0	226.54867100715637	
55	165.92405796051025	movie	1		165.0	53.0	2.5	/experiments/knapen_aot/videos/R_S_S006_C007_SDR_2K_AVC.mp4	0.0	226.56437492370605	2.508294105529785
55	168.43235206604004	fix_post	2		12.0	53.0	2.5	/experiments/knapen_aot/videos/R_S_S006_C007_SDR_2K_AVC.mp4	0.0	229.07266902923584	0.10000896453857422
56	168.5323610305786	fix_pre	0		35.0	54.0	2.5	blank	1.0	229.1726779937744	0.29163694381713867
56	168.8158140182495	response	0	2		54.0	2.5	blank	1.0	229.4561309814453	
56	168.82399797439575	movie	1		301.0	54.0	2.5	blank	1.0	229.46431493759155	2.5083370208740234
56	171.33233499526978	fix_post	2		12.0	54.0	2.5	blank	1.0	231.97265195846558	0.10086798667907715
57	171.43320298194885	fix_pre	0		218.0	55.0	2.5	/experiments/knapen_aot/videos/R_S_yt-xNITUMXoU0g_9.mp4	0.0	232.07351994514465	1.8157680034637451
57	173.24079513549805	response	0	2		55.0	2.5	/experiments/knapen_aot/videos/R_S_yt-xNITUMXoU0g_9.mp4	0.0	233.88111209869385	
57	173.2489709854126	movie	1		301.0	55.0	2.5	/experiments/knapen_aot/videos/R_S_yt-xNITUMXoU0g_9.mp4	0.0	233.8892879486084	2.508466958999634
57	175.75743794441223	fix_post	2		12.0	55.0	2.5	/experiments/knapen_aot/videos/R_S_yt-xNITUMXoU0g_9.mp4	0.0	236.39775490760803	0.099884033203125
58	175.85732197761536	fix_pre	0		52.0	56.0	2.5	/experiments/knapen_aot/videos/S_yt-g_CLzrCYHoc_7.mp4	0.0	236.49763894081116	0.4332239627838135
58	176.28243207931519	response	0	2		56.0	2.5	/experiments/knapen_aot/videos/S_yt-g_CLzrCYHoc_7.mp4	0.0	236.922749042511	
58	176.29054594039917	movie	1		301.0	56.0	2.5	/experiments/knapen_aot/videos/S_yt-g_CLzrCYHoc_7.mp4	0.0	236.93086290359497	2.5086610317230225
58	178.7992069721222	fix_post	2		12.0	56.0	2.5	/experiments/knapen_aot/videos/S_yt-g_CLzrCYHoc_7.mp4	0.0	239.439523935318	0.09984302520751953
59	178.8990499973297	fix_pre	0		79.0	57.0	2.5	/experiments/knapen_aot/videos/S_yt-0n0uppNuUus_15.mp4	0.0	239.5393669605255	0.658440113067627
59	179.54909801483154	response	0	2		57.0	2.5	/experiments/knapen_aot/videos/S_yt-0n0uppNuUus_15.mp4	0.0	240.18941497802734	
59	179.55749011039734	movie	1		301.0	57.0	2.5	/experiments/knapen_aot/videos/S_yt-0n0uppNuUus_15.mp4	0.0	240.19780707359314	2.508272886276245
59	182.06576299667358	fix_post	2		12.0	57.0	2.5	/experiments/knapen_aot/videos/S_yt-0n0uppNuUus_15.mp4	0.0	242.70607995986938	0.10008692741394043
60	182.16584992408752	fix_pre	0		56.0	58.0	2.5	/experiments/knapen_aot/videos/R_S_yt-l_ioasf6yHg_44.mp4	0.0	242.80616688728333	0.46643519401550293
60	182.6241009235382	response	0	2		58.0	2.5	/experiments/knapen_aot/videos/R_S_yt-l_ioasf6yHg_44.mp4	0.0	243.264417886734	
60	182.63228511810303	movie	1		301.0	58.0	2.5	/experiments/knapen_aot/videos/R_S_yt-l_ioasf6yHg_44.mp4	0.0	243.27260208129883	2.508471965789795
60	185.14075708389282	fix_post	2		12.0	58.0	2.5	/experiments/knapen_aot/videos/R_S_yt-l_ioasf6yHg_44.mp4	0.0	245.78107404708862	0.0999000072479248
61	185.24065709114075	fix_pre	0		55.0	59.0	2.5	/experiments/knapen_aot/videos/S_yt-ycQy_fHCK-U_8.mp4	0.0	245.88097405433655	0.4582998752593994
61	185.6907639503479	response	0	2		59.0	2.5	/experiments/knapen_aot/videos/S_yt-ycQy_fHCK-U_8.mp4	0.0	246.3310809135437	
61	185.69895696640015	movie	1		301.0	59.0	2.5	/experiments/knapen_aot/videos/S_yt-ycQy_fHCK-U_8.mp4	0.0	246.33927392959595	2.5083491802215576
61	188.2073061466217	fix_post	2		12.0	59.0	2.5	/experiments/knapen_aot/videos/S_yt-ycQy_fHCK-U_8.mp4	0.0	248.8476231098175	0.10018682479858398
62	188.3074929714203	fix_pre	0		34.0	60.0	2.5	/experiments/knapen_aot/videos/S_comp_A007_C017_01156B_v02_SDR_PS_20180925_SDR_2K_AVC.mp4	0.0	248.9478099346161	0.28311800956726074
62	188.5824100971222	response	0	2		60.0	2.5	/experiments/knapen_aot/videos/S_comp_A007_C017_01156B_v02_SDR_PS_20180925_SDR_2K_AVC.mp4	0.0	249.222727060318	
62	188.59061098098755	movie	1		162.0	60.0	2.5	/experiments/knapen_aot/videos/S_comp_A007_C017_01156B_v02_SDR_PS_20180925_SDR_2K_AVC.mp4	0.0	249.23092794418335	2.508981943130493
62	191.09959292411804	fix_post	2		12.0	60.0	2.5	/experiments/knapen_aot/videos/S_comp_A007_C017_01156B_v02_SDR_PS_20180925_SDR_2K_AVC.mp4	0.0	251.73990988731384	0.09924817085266113
63	191.1988410949707	fix_pre	0		51.0	61.0	2.5	blank	1.0	251.8391580581665	0.4250349998474121
63	191.6156940460205	response	0	2		61.0	2.5	blank	1.0	252.2560110092163	
63	191.62387609481812	movie	1		301.0	61.0	2.5	blank	1.0	252.26419305801392	2.508396863937378
63	194.1322729587555	fix_post	2		12.0	61.0	2.5	blank	1.0	254.7725899219513	0.10017919540405273
64	194.23245215415955	fix_pre	0		62.0	62.0	2.5	/experiments/knapen_aot/videos/S_yt-rlEPywo5BEQ_36.mp4	0.0	254.87276911735535	0.5164389610290527
64	194.74073600769043	response	0	2		62.0	2.5	/experiments/knapen_aot/videos/S_yt-rlEPywo5BEQ_36.mp4	0.0	255.38105297088623	
64	194.7488911151886	movie	1		301.0	62.0	2.5	/experiments/knapen_aot/videos/S_yt-rlEPywo5BEQ_36.mp4	0.0	255.3892080783844	2.5084309577941895
64	197.2573220729828	fix_post	2		12.0	62.0	2.5	/experiments/knapen_aot/videos/S_yt-rlEPywo5BEQ_36.mp4	0.0	257.8976390361786	0.10003805160522461
65	197.357360124588	fix_pre	0		47.0	63.0	2.5	/experiments/knapen_aot/videos/S_Pexels_Videos_278654_1.mp4	0.0	257.9976770877838	0.39149999618530273
65	197.74071407318115	response	0	2		63.0	2.5	/experiments/knapen_aot/videos/S_Pexels_Videos_278654_1.mp4	0.0	258.38103103637695	
65	197.74886012077332	movie	1		168.0	63.0	2.5	/experiments/knapen_aot/videos/S_Pexels_Videos_278654_1.mp4	0.0	258.3891770839691	2.5083839893341064
65	200.25724411010742	fix_post	2		12.0	63.0	2.5	/experiments/knapen_aot/videos/S_Pexels_Videos_278654_1.mp4	0.0	260.8975610733032	0.09992599487304688
66	200.35717010498047	fix_pre	0		43.0	64.0	2.5	/experiments/knapen_aot/videos/S_yt-c5_SFS4aaJI_1102.mp4	0.0	260.99748706817627	0.3583559989929199
66	200.69976496696472	response	0	2		64.0	2.5	/experiments/knapen_aot/videos/S_yt-c5_SFS4aaJI_1102.mp4	0.0	261.3400819301605	
66	200.7155261039734	movie	1		301.0	64.0	2.5	/experiments/knapen_aot/videos/S_yt-c5_SFS4aaJI_1102.mp4	0.0	261.3558430671692	2.508471965789795
66	203.22399806976318	fix_post	2		12.0	64.0	2.5	/experiments/knapen_aot/videos/S_yt-c5_SFS4aaJI_1102.mp4	0.0	263.864315032959	0.09990406036376953
67	203.32390213012695	fix_pre	0		59.0	65.0	2.5	/experiments/knapen_aot/videos/R_S_ILSVRC2015_train_00418004.mp4	0.0	263.96421909332275	0.4916079044342041
67	203.8073501586914	response	0	2		65.0	2.5	/experiments/knapen_aot/videos/R_S_ILSVRC2015_train_00418004.mp4	0.0	264.4476671218872	
67	203.81551003456116	movie	1		300.0	65.0	2.5	/experiments/knapen_aot/videos/R_S_ILSVRC2015_train_00418004.mp4	0.0	264.45582699775696	2.508366107940674
67	206.32387614250183	fix_post	2		12.0	65.0	2.5	/experiments/knapen_aot/videos/R_S_ILSVRC2015_train_00418004.mp4	0.0	266.96419310569763	0.09993886947631836
68	206.42381501197815	fix_pre	0		48.0	66.0	2.5	/experiments/knapen_aot/videos/R_S_yt-eczLsCTIyn0_553.mp4	0.0	267.06413197517395	0.3999481201171875
68	206.81568002700806	response	0	2		66.0	2.5	/experiments/knapen_aot/videos/R_S_yt-eczLsCTIyn0_553.mp4	0.0	267.45599699020386	
68	206.82376313209534	movie	1		301.0	66.0	2.5	/experiments/knapen_aot/videos/R_S_yt-eczLsCTIyn0_553.mp4	0.0	267.46408009529114	2.508471965789795
68	209.33223509788513	fix_post	2		12.0	66.0	2.5	/experiments/knapen_aot/videos/R_S_yt-eczLsCTIyn0_553.mp4	0.0	269.97255206108093	0.10004997253417969
69	209.4322850704193	fix_pre	0		46.0	67.0	2.5	/experiments/knapen_aot/videos/S_yt-UzWRbs9Syf4_7.mp4	0.0	270.0726020336151	0.38321805000305176
69	209.80732893943787	response	0	2		67.0	2.5	/experiments/knapen_aot/videos/S_yt-UzWRbs9Syf4_7.mp4	0.0	270.44764590263367	
69	209.81550312042236	movie	1		301.0	67.0	2.5	/experiments/knapen_aot/videos/S_yt-UzWRbs9Syf4_7.mp4	0.0	270.45582008361816	2.5083658695220947
69	212.32386898994446	fix_post	2		12.0	67.0	2.5	/experiments/knapen_aot/videos/S_yt-UzWRbs9Syf4_7.mp4	0.0	272.96418595314026	0.10006403923034668
70	212.4239330291748	fix_pre	0		57.0	68.0	2.5	blank	1.0	273.0642499923706	0.47488903999328613
70	212.890643119812	response	0	2		68.0	2.5	blank	1.0	273.5309600830078	
70	212.8988220691681	movie	1		301.0	68.0	2.5	blank	1.0	273.5391390323639	2.508370876312256
70	215.40719294548035	fix_post	2		12.0	68.0	2.5	blank	1.0	276.04750990867615	0.10001111030578613
71	215.50720405578613	fix_pre	0		70.0	69.0	2.5	/experiments/knapen_aot/videos/S_yt-C0iWlRWU21o_5.mp4	0.0	276.14752101898193	0.5832269191741943
71	216.08225893974304	response	0	2		69.0	2.5	/experiments/knapen_aot/videos/S_yt-C0iWlRWU21o_5.mp4	0.0	276.72257590293884	
71	216.09043097496033	movie	1		301.0	69.0	2.5	/experiments/knapen_aot/videos/S_yt-C0iWlRWU21o_5.mp4	0.0	276.7307479381561	2.5084400177001953
71	218.59887099266052	fix_post	2		12.0	69.0	2.5	/experiments/knapen_aot/videos/S_yt-C0iWlRWU21o_5.mp4	0.0	279.2391879558563	0.09999299049377441
72	218.6988639831543	fix_pre	0		54.0	70.0	2.5	/experiments/knapen_aot/videos/S_yt-hDYtYKUsVE4_120.mp4	0.0	279.3391809463501	0.44984006881713867
72	219.14057993888855	response	0	2		70.0	2.5	/experiments/knapen_aot/videos/S_yt-hDYtYKUsVE4_120.mp4	0.0	279.78089690208435	
72	219.14870405197144	movie	1		301.0	70.0	2.5	/experiments/knapen_aot/videos/S_yt-hDYtYKUsVE4_120.mp4	0.0	279.78902101516724	2.508509874343872
72	221.6572139263153	fix_post	2		12.0	70.0	2.5	/experiments/knapen_aot/videos/S_yt-hDYtYKUsVE4_120.mp4	0.0	282.2975308895111	0.09997200965881348
73	221.75718593597412	fix_pre	0		55.0	71.0	2.5	/experiments/knapen_aot/videos/S_comp_H012_C009_PS_v01_SDR_PS_20180925_SDR_2K_AVC.mp4	0.0	282.3975028991699	0.45831298828125
73	222.20727610588074	response	0	2		71.0	2.5	/experiments/knapen_aot/videos/S_comp_H012_C009_PS_v01_SDR_PS_20180925_SDR_2K_AVC.mp4	0.0	282.84759306907654	
73	222.21549892425537	movie	1		163.0	71.0	2.5	/experiments/knapen_aot/videos/S_comp_H012_C009_PS_v01_SDR_PS_20180925_SDR_2K_AVC.mp4	0.0	282.8558158874512	2.508329153060913
73	224.72382807731628	fix_post	2		12.0	71.0	2.5	/experiments/knapen_aot/videos/S_comp_H012_C009_PS_v01_SDR_PS_20180925_SDR_2K_AVC.mp4	0.0	285.3641450405121	0.10003399848937988
74	224.82386207580566	fix_pre	0		39.0	72.0	2.5	/experiments/knapen_aot/videos/S_yt-l_ioasf6yHg_44.mp4	0.0	285.46417903900146	0.32492685317993164
74	225.14067101478577	response	0	2		72.0	2.5	/experiments/knapen_aot/videos/S_yt-l_ioasf6yHg_44.mp4	0.0	285.78098797798157	
74	225.1487889289856	movie	1		301.0	72.0	2.5	/experiments/knapen_aot/videos/S_yt-l_ioasf6yHg_44.mp4	0.0	285.7891058921814	2.5083420276641846
74	227.65713095664978	fix_post	2		12.0	72.0	2.5	/experiments/knapen_aot/videos/S_yt-l_ioasf6yHg_44.mp4	0.0	288.2974479198456	0.10009503364562988
75	227.7572259902954	fix_pre	0		40.0	73.0	2.5	/experiments/knapen_aot/videos/R_S_yt-26obL-Z5obg_131.mp4	0.0	288.3975429534912	0.333158016204834
75	228.08223009109497	response	0	2		73.0	2.5	/experiments/knapen_aot/videos/R_S_yt-26obL-Z5obg_131.mp4	0.0	288.72254705429077	
75	228.09038400650024	movie	1		301.0	73.0	2.5	/experiments/knapen_aot/videos/R_S_yt-26obL-Z5obg_131.mp4	0.0	288.73070096969604	2.5085110664367676
75	230.598895072937	fix_post	2		12.0	73.0	2.5	/experiments/knapen_aot/videos/R_S_yt-26obL-Z5obg_131.mp4	0.0	291.2392120361328	0.09981107711791992
76	230.69870615005493	fix_pre	0		72.0	74.0	2.5	/experiments/knapen_aot/videos/R_S_yt-CJeyOFsd3lg_80.mp4	0.0	291.33902311325073	0.6014800071716309
76	231.29061007499695	response	0	2		74.0	2.5	/experiments/knapen_aot/videos/R_S_yt-CJeyOFsd3lg_80.mp4	0.0	291.93092703819275	
76	231.30018615722656	movie	1		301.0	74.0	2.5	/experiments/knapen_aot/videos/R_S_yt-CJeyOFsd3lg_80.mp4	0.0	291.94050312042236	2.5069868564605713
76	233.80717301368713	fix_post	2		12.0	74.0	2.5	/experiments/knapen_aot/videos/R_S_yt-CJeyOFsd3lg_80.mp4	0.0	294.44748997688293	0.09998011589050293
77	233.90715312957764	fix_pre	0		48.0	75.0	2.5	/experiments/knapen_aot/videos/R_S_ILSVRC2015_train_00473001.mp4	0.0	294.54747009277344	0.39998602867126465
77	234.29890704154968	response	0	2		75.0	2.5	/experiments/knapen_aot/videos/R_S_ILSVRC2015_train_00473001.mp4	0.0	294.9392240047455	
77	234.3071391582489	movie	1		301.0	75.0	2.5	/experiments/knapen_aot/videos/R_S_ILSVRC2015_train_00473001.mp4	0.0	294.9474561214447	2.5082099437713623
77	236.81534910202026	fix_post	2		12.0	75.0	2.5	/experiments/knapen_aot/videos/R_S_ILSVRC2015_train_00473001.mp4	0.0	297.45566606521606	0.10007190704345703
78	236.91542100906372	fix_pre	0		83.0	76.0	2.5	/experiments/knapen_aot/videos/S_yt-e_eOzV7qMZo_374.mp4	0.0	297.5557379722595	0.6915950775146484
78	237.59885001182556	response	0	2		76.0	2.5	/experiments/knapen_aot/videos/S_yt-e_eOzV7qMZo_374.mp4	0.0	298.23916697502136	
78	237.60701608657837	movie	1		301.0	76.0	2.5	/experiments/knapen_aot/videos/S_yt-e_eOzV7qMZo_374.mp4	0.0	298.24733304977417	2.5083818435668945
78	240.11539793014526	fix_post	2		12.0	76.0	2.5	/experiments/knapen_aot/videos/S_yt-e_eOzV7qMZo_374.mp4	0.0	300.75571489334106	0.10001921653747559
79	240.21541714668274	fix_pre	0		49.0	77.0	2.5	blank	1.0	300.85573410987854	0.40824079513549805
79	240.6154661178589	response	0	2		77.0	2.5	blank	1.0	301.2557830810547	
79	240.62365794181824	movie	1		301.0	77.0	2.5	blank	1.0	301.26397490501404	2.508486032485962
79	243.1321439743042	fix_post	2		12.0	77.0	2.5	blank	1.0	303.7724609375	0.09992003440856934
80	243.23206400871277	fix_pre	0		69.0	78.0	2.5	/experiments/knapen_aot/videos/R_S_yt-lGQ3wMI5-Yg_140.mp4	0.0	303.87238097190857	0.5749630928039551
80	243.7988419532776	response	0	2		78.0	2.5	/experiments/knapen_aot/videos/R_S_yt-lGQ3wMI5-Yg_140.mp4	0.0	304.4391589164734	
80	243.80702710151672	movie	1		301.0	78.0	2.5	/experiments/knapen_aot/videos/R_S_yt-lGQ3wMI5-Yg_140.mp4	0.0	304.4473440647125	2.5085978507995605
80	246.31562495231628	fix_post	2		12.0	78.0	2.5	/experiments/knapen_aot/videos/R_S_yt-lGQ3wMI5-Yg_140.mp4	0.0	306.9559419155121	0.09970998764038086
81	246.41533493995667	fix_pre	0		57.0	79.0	2.5	/experiments/knapen_aot/videos/S_yt-vjed5qyKqZw_1.mp4	0.0	307.05565190315247	0.47509121894836426
81	246.88217210769653	response	0	2		79.0	2.5	/experiments/knapen_aot/videos/S_yt-vjed5qyKqZw_1.mp4	0.0	307.52248907089233	
81	246.89042615890503	movie	1		301.0	79.0	2.5	/experiments/knapen_aot/videos/S_yt-vjed5qyKqZw_1.mp4	0.0	307.53074312210083	2.508661985397339
81	249.39908814430237	fix_post	2		12.0	79.0	2.5	/experiments/knapen_aot/videos/S_yt-vjed5qyKqZw_1.mp4	0.0	310.03940510749817	0.09960389137268066
82	249.49869203567505	fix_pre	0		51.0	80.0	2.5	/experiments/knapen_aot/videos/S_9smWynsk6sI_158.mp4	0.0	310.13900899887085	0.42624998092651367
82	249.91549801826477	response	0	2		80.0	2.5	/experiments/knapen_aot/videos/S_9smWynsk6sI_158.mp4	0.0	310.55581498146057	
82	249.92494201660156	movie	1		301.0	80.0	2.5	/experiments/knapen_aot/videos/S_9smWynsk6sI_158.mp4	0.0	310.56525897979736	2.5070760250091553
82	252.43201804161072	fix_post	2		12.0	80.0	2.5	/experiments/knapen_aot/videos/S_9smWynsk6sI_158.mp4	0.0	313.0723350048065	0.09998703002929688
83	252.53200507164001	fix_pre	0		58.0	81.0	2.5	/experiments/knapen_aot/videos/S_yt-jy96-k8drRE_1.mp4	0.0	313.1723220348358	0.4832730293273926
83	253.00712513923645	response	0	2		81.0	2.5	/experiments/knapen_aot/videos/S_yt-jy96-k8drRE_1.mp4	0.0	313.64744210243225	
83	253.0152781009674	movie	1		301.0	81.0	2.5	/experiments/knapen_aot/videos/S_yt-jy96-k8drRE_1.mp4	0.0	313.6555950641632	2.5083909034729004
83	255.5236690044403	fix_post	2		12.0	81.0	2.5	/experiments/knapen_aot/videos/S_yt-jy96-k8drRE_1.mp4	0.0	316.1639859676361	0.09995603561401367
84	255.62362504005432	fix_pre	0		47.0	82.0	2.5	blank	1.0	316.2639420032501	0.3917109966278076
84	256.0070641040802	response	0	2		82.0	2.5	blank	1.0	316.647381067276	
84	256.01533603668213	movie	1		301.0	82.0	2.5	blank	1.0	316.65565299987793	2.508333921432495
84	258.5236699581146	fix_post	2		12.0	82.0	2.5	blank	1.0	319.1639869213104	0.09999608993530273
85	258.6236660480499	fix_pre	0		58.0	83.0	2.5	/experiments/knapen_aot/videos/S_flickr-reginahart-31964450591_23.mp4	0.0	319.2639830112457	0.4833099842071533
85	259.0988140106201	response	0	2		83.0	2.5	/experiments/knapen_aot/videos/S_flickr-reginahart-31964450591_23.mp4	0.0	319.7391309738159	
85	259.1069760322571	movie	1		185.0	83.0	2.5	/experiments/knapen_aot/videos/S_flickr-reginahart-31964450591_23.mp4	0.0	319.7472929954529	2.5083858966827393
85	261.6153619289398	fix_post	2		12.0	83.0	2.5	/experiments/knapen_aot/videos/S_flickr-reginahart-31964450591_23.mp4	0.0	322.2556788921356	0.0999610424041748
87	261.715322971344	stim	0		309.0					322.3556399345398	2.577502965927124
87	264.2863790988922	response	0	space						324.926696062088	
