trial_nr	onset	event_type	phase	response	nr_frames	movie_index	movie_duration	movie_file	blank	onset_abs	duration
0	0.13596391677856445	stim	0		41.0					72.40737104415894	0.339724063873291
0	0.46689295768737793	response	0	space						72.73830008506775	
1	0.47568798065185547	stim	0		121.0					72.74709510803223	1.0073668956756592
1	1.4830548763275146	stim	1		120.0					73.75446200370789	1.0000121593475342
1	1.8423488140106201	response	1	space						74.11375594139099	
2	2.483067035675049	fix_pre	0		29.0	0.0	2.5	/experiments/knapen_aot/videos/R_S_yt-pKl8nduxfTI_798.mp4	0.0	74.75447416305542	0.24219989776611328
2	2.7164618968963623	response	0	space		0.0	2.5	/experiments/knapen_aot/videos/R_S_yt-pKl8nduxfTI_798.mp4	0.0	74.98786902427673	
2	2.725266933441162	movie	1		301.0	0.0	2.5	/experiments/knapen_aot/videos/R_S_yt-pKl8nduxfTI_798.mp4	0.0	74.99667406082153	2.507797956466675
2	5.233064889907837	fix_post	2		12.0	0.0	2.5	/experiments/knapen_aot/videos/R_S_yt-pKl8nduxfTI_798.mp4	0.0	77.50447201728821	0.10002613067626953
3	5.3330910205841064	fix_pre	0		121.0	1.0	2.5	/experiments/knapen_aot/videos/S_yt-GytLOB9Qjro_76.mp4	0.0	77.60449814796448	1.0102198123931885
3	6.337692022323608	response	0	2		1.0	2.5	/experiments/knapen_aot/videos/S_yt-GytLOB9Qjro_76.mp4	0.0	78.60909914970398	
3	6.343310832977295	movie	1		296.0	1.0	2.5	/experiments/knapen_aot/videos/S_yt-GytLOB9Qjro_76.mp4	0.0	78.61471796035767	2.506420135498047
3	8.849730968475342	fix_post	2		12.0	1.0	2.5	/experiments/knapen_aot/videos/S_yt-GytLOB9Qjro_76.mp4	0.0	81.12113809585571	0.09996795654296875
4	8.94969892501831	fix_pre	0		27.0	2.0	2.5	/experiments/knapen_aot/videos/S_yt-IDpUZ2NWBUY_60.mp4	0.0	81.22110605239868	0.22493600845336914
4	9.166451930999756	response	0	2		2.0	2.5	/experiments/knapen_aot/videos/S_yt-IDpUZ2NWBUY_60.mp4	0.0	81.43785905838013	
4	9.17463493347168	movie	1		301.0	2.0	2.5	/experiments/knapen_aot/videos/S_yt-IDpUZ2NWBUY_60.mp4	0.0	81.44604206085205	2.5083630084991455
4	11.682997941970825	fix_post	2		12.0	2.0	2.5	/experiments/knapen_aot/videos/S_yt-IDpUZ2NWBUY_60.mp4	0.0	83.9544050693512	0.10001993179321289
5	11.783017873764038	fix_pre	0		25.0	3.0	2.5	/experiments/knapen_aot/videos/S_yt-STL3ejY9u_Q_73.mp4	0.0	84.05442500114441	0.20827412605285645
5	11.983120918273926	response	0	2		3.0	2.5	/experiments/knapen_aot/videos/S_yt-STL3ejY9u_Q_73.mp4	0.0	84.2545280456543	
5	11.991291999816895	movie	1		301.0	3.0	2.5	/experiments/knapen_aot/videos/S_yt-STL3ejY9u_Q_73.mp4	0.0	84.26269912719727	2.5083699226379395
5	14.499661922454834	fix_post	2		12.0	3.0	2.5	/experiments/knapen_aot/videos/S_yt-STL3ejY9u_Q_73.mp4	0.0	86.7710690498352	0.10001206398010254
6	14.599673986434937	fix_pre	0		9.0	4.0	2.5	/experiments/knapen_aot/videos/S_video_inspire_california_catalina_avalon_00053.1080-h264.mp4	0.0	86.87108111381531	0.07495403289794922
6	14.666574954986572	response	0	2		4.0	2.5	/experiments/knapen_aot/videos/S_video_inspire_california_catalina_avalon_00053.1080-h264.mp4	0.0	86.93798208236694	
6	14.674628019332886	movie	1		167.0	4.0	2.5	/experiments/knapen_aot/videos/S_video_inspire_california_catalina_avalon_00053.1080-h264.mp4	0.0	86.94603514671326	2.5083229541778564
6	17.182950973510742	fix_post	2		12.0	4.0	2.5	/experiments/knapen_aot/videos/S_video_inspire_california_catalina_avalon_00053.1080-h264.mp4	0.0	89.45435810089111	0.09994792938232422
7	17.282898902893066	fix_pre	0		20.0	5.0	2.5	/experiments/knapen_aot/videos/S_yt-vQ-rd-1gwH4_238.mp4	0.0	89.55430603027344	0.1667029857635498
7	17.441486835479736	response	0	2		5.0	2.5	/experiments/knapen_aot/videos/S_yt-vQ-rd-1gwH4_238.mp4	0.0	89.71289396286011	
7	17.449601888656616	movie	1		301.0	5.0	2.5	/experiments/knapen_aot/videos/S_yt-vQ-rd-1gwH4_238.mp4	0.0	89.72100901603699	2.5082950592041016
7	19.957896947860718	fix_post	2		12.0	5.0	2.5	/experiments/knapen_aot/videos/S_yt-vQ-rd-1gwH4_238.mp4	0.0	92.22930407524109	0.1000669002532959
8	20.057963848114014	fix_pre	0		40.0	6.0	2.5	blank	1.0	92.32937097549438	0.3338160514831543
8	20.38317584991455	response	0	2		6.0	2.5	blank	1.0	92.65458297729492	
8	20.391779899597168	movie	1		301.0	6.0	2.5	blank	1.0	92.66318702697754	2.507843017578125
8	22.899622917175293	fix_post	2		12.0	6.0	2.5	blank	1.0	95.17103004455566	0.10002589225769043
9	22.999648809432983	fix_pre	0		55.0	7.0	2.5	/experiments/knapen_aot/videos/R_S_BO_A014_C023_SDR_20190717_F240F3709_SDR_2K_AVC.mp4	0.0	95.27105593681335	0.45826220512390137
9	23.449667930603027	response	0	2		7.0	2.5	/experiments/knapen_aot/videos/R_S_BO_A014_C023_SDR_20190717_F240F3709_SDR_2K_AVC.mp4	0.0	95.7210750579834	
9	23.457911014556885	movie	1		180.0	7.0	2.5	/experiments/knapen_aot/videos/R_S_BO_A014_C023_SDR_20190717_F240F3709_SDR_2K_AVC.mp4	0.0	95.72931814193726	2.508314847946167
9	25.96622586250305	fix_post	2		12.0	7.0	2.5	/experiments/knapen_aot/videos/R_S_BO_A014_C023_SDR_20190717_F240F3709_SDR_2K_AVC.mp4	0.0	98.23763298988342	0.10004305839538574
10	26.066268920898438	fix_pre	0		16.0	8.0	2.5	/experiments/knapen_aot/videos/S_bing-www_break_com_video_like-a-cat-catching-a-fly-3131008_12.mp4	0.0	98.33767604827881	0.13335800170898438
10	26.191375017166138	response	0	2		8.0	2.5	/experiments/knapen_aot/videos/S_bing-www_break_com_video_like-a-cat-catching-a-fly-3131008_12.mp4	0.0	98.46278214454651	
10	26.199626922607422	movie	1		301.0	8.0	2.5	/experiments/knapen_aot/videos/S_bing-www_break_com_video_like-a-cat-catching-a-fly-3131008_12.mp4	0.0	98.4710340499878	2.5082600116729736
10	28.707886934280396	fix_post	2		12.0	8.0	2.5	/experiments/knapen_aot/videos/S_bing-www_break_com_video_like-a-cat-catching-a-fly-3131008_12.mp4	0.0	100.97929406166077	0.09994292259216309
11	28.80782985687256	fix_pre	0		35.0	9.0	2.5	/experiments/knapen_aot/videos/R_S_production_ID_4428752.mp4	0.0	101.07923698425293	0.2921459674835205
11	29.09139895439148	response	0	2		9.0	2.5	/experiments/knapen_aot/videos/R_S_production_ID_4428752.mp4	0.0	101.36280608177185	
11	29.09997582435608	movie	1		164.0	9.0	2.5	/experiments/knapen_aot/videos/R_S_production_ID_4428752.mp4	0.0	101.37138295173645	2.5079400539398193
11	31.6079158782959	fix_post	2		12.0	9.0	2.5	/experiments/knapen_aot/videos/R_S_production_ID_4428752.mp4	0.0	103.87932300567627	0.0999901294708252
12	31.707906007766724	fix_pre	0		31.0	10.0	2.5	/experiments/knapen_aot/videos/S_yt-T9Vwt7wFvPk_100.mp4	0.0	103.9793131351471	0.25831103324890137
12	31.950546979904175	response	0	2		10.0	2.5	/experiments/knapen_aot/videos/S_yt-T9Vwt7wFvPk_100.mp4	0.0	104.22195410728455	
12	31.966217041015625	movie	1		301.0	10.0	2.5	/experiments/knapen_aot/videos/S_yt-T9Vwt7wFvPk_100.mp4	0.0	104.237624168396	2.5082907676696777
12	34.4745078086853	fix_post	2		12.0	10.0	2.5	/experiments/knapen_aot/videos/S_yt-T9Vwt7wFvPk_100.mp4	0.0	106.74591493606567	0.09993815422058105
13	34.574445962905884	fix_pre	0		75.0	11.0	2.5	/experiments/knapen_aot/videos/R_S_yt-Dlk44AGz-xM_37.mp4	0.0	106.84585309028625	0.6250319480895996
13	35.191365003585815	response	0	2		11.0	2.5	/experiments/knapen_aot/videos/R_S_yt-Dlk44AGz-xM_37.mp4	0.0	107.46277213096619	
13	35.19947791099548	movie	1		301.0	11.0	2.5	/experiments/knapen_aot/videos/R_S_yt-Dlk44AGz-xM_37.mp4	0.0	107.47088503837585	2.5083189010620117
13	37.707796812057495	fix_post	2		12.0	11.0	2.5	/experiments/knapen_aot/videos/R_S_yt-Dlk44AGz-xM_37.mp4	0.0	109.97920393943787	0.10047507286071777
14	37.80827188491821	fix_pre	0		34.0	12.0	2.5	/experiments/knapen_aot/videos/S_Y005_C003_SDR_2K_AVC.mp4	0.0	110.07967901229858	0.2828350067138672
14	38.08303689956665	response	0	2		12.0	2.5	/experiments/knapen_aot/videos/S_Y005_C003_SDR_2K_AVC.mp4	0.0	110.35444402694702	
14	38.09110689163208	movie	1		163.0	12.0	2.5	/experiments/knapen_aot/videos/S_Y005_C003_SDR_2K_AVC.mp4	0.0	110.36251401901245	2.508481979370117
14	40.5995888710022	fix_post	2		12.0	12.0	2.5	/experiments/knapen_aot/videos/S_Y005_C003_SDR_2K_AVC.mp4	0.0	112.87099599838257	0.09993100166320801
15	40.699519872665405	fix_pre	0		12.0	13.0	2.5	/experiments/knapen_aot/videos/R_S_yt-pKl8nduxfTI_798.mp4	0.0	112.97092700004578	0.1000211238861084
15	40.791316986083984	response	0	2		13.0	2.5	/experiments/knapen_aot/videos/R_S_yt-pKl8nduxfTI_798.mp4	0.0	113.06272411346436	
15	40.799540996551514	movie	1		301.0	13.0	2.5	/experiments/knapen_aot/videos/R_S_yt-pKl8nduxfTI_798.mp4	0.0	113.07094812393188	2.508363962173462
15	43.307904958724976	fix_post	2		12.0	13.0	2.5	/experiments/knapen_aot/videos/R_S_yt-pKl8nduxfTI_798.mp4	0.0	115.57931208610535	0.09997296333312988
16	43.407877922058105	fix_pre	0		21.0	14.0	2.5	blank	1.0	115.67928504943848	0.17493391036987305
16	43.57460689544678	response	0	2		14.0	2.5	blank	1.0	115.84601402282715	
16	43.58281183242798	movie	1		301.0	14.0	2.5	blank	1.0	115.85421895980835	2.5083250999450684
16	46.09113693237305	fix_post	2		12.0	14.0	2.5	blank	1.0	118.36254405975342	0.10010695457458496
17	46.19124388694763	fix_pre	0		28.0	15.0	2.5	/experiments/knapen_aot/videos/R_S_yt-Mjm5smrurQI_125.mp4	0.0	118.462651014328	0.23323297500610352
17	46.416280031204224	response	0	2		15.0	2.5	/experiments/knapen_aot/videos/R_S_yt-Mjm5smrurQI_125.mp4	0.0	118.6876871585846	
17	46.424476861953735	movie	1		298.0	15.0	2.5	/experiments/knapen_aot/videos/R_S_yt-Mjm5smrurQI_125.mp4	0.0	118.6958839893341	2.5084011554718018
17	48.93287801742554	fix_post	2		12.0	15.0	2.5	/experiments/knapen_aot/videos/R_S_yt-Mjm5smrurQI_125.mp4	0.0	121.20428514480591	0.09998488426208496
18	49.03286290168762	fix_pre	0		37.0	16.0	2.5	/experiments/knapen_aot/videos/S_yt-x6tYi0lRGqU_114.mp4	0.0	121.304270029068	0.3083319664001465
18	49.33302283287048	response	0	2		16.0	2.5	/experiments/knapen_aot/videos/S_yt-x6tYi0lRGqU_114.mp4	0.0	121.60442996025085	
18	49.34119486808777	movie	1		301.0	16.0	2.5	/experiments/knapen_aot/videos/S_yt-x6tYi0lRGqU_114.mp4	0.0	121.61260199546814	2.5083489418029785
18	51.84954380989075	fix_post	2		12.0	16.0	2.5	/experiments/knapen_aot/videos/S_yt-x6tYi0lRGqU_114.mp4	0.0	124.12095093727112	0.10001301765441895
19	51.949556827545166	fix_pre	0		27.0	17.0	2.5	/experiments/knapen_aot/videos/R_S_yt--WPE_4bqQXc_26.mp4	0.0	124.22096395492554	0.22497820854187012
19	52.1662700176239	response	0	2		17.0	2.5	/experiments/knapen_aot/videos/R_S_yt--WPE_4bqQXc_26.mp4	0.0	124.43767714500427	
19	52.174535036087036	movie	1		301.0	17.0	2.5	/experiments/knapen_aot/videos/R_S_yt--WPE_4bqQXc_26.mp4	0.0	124.44594216346741	2.50833797454834
19	54.682873010635376	fix_post	2		12.0	17.0	2.5	/experiments/knapen_aot/videos/R_S_yt--WPE_4bqQXc_26.mp4	0.0	126.95428013801575	0.0999460220336914
20	54.78281903266907	fix_pre	0		48.0	18.0	2.5	/experiments/knapen_aot/videos/S_yt-osz-TXlRdXs_2.mp4	0.0	127.05422616004944	0.4003629684448242
20	55.17466998100281	response	0	2		18.0	2.5	/experiments/knapen_aot/videos/S_yt-osz-TXlRdXs_2.mp4	0.0	127.44607710838318	
20	55.18318200111389	movie	1		300.0	18.0	2.5	/experiments/knapen_aot/videos/S_yt-osz-TXlRdXs_2.mp4	0.0	127.45458912849426	2.5079920291900635
20	57.691174030303955	fix_post	2		12.0	18.0	2.5	/experiments/knapen_aot/videos/S_yt-osz-TXlRdXs_2.mp4	0.0	129.96258115768433	0.10001087188720703
21	57.79118490219116	fix_pre	0		18.0	19.0	2.5	/experiments/knapen_aot/videos/S_Pexels_Videos_2376809.mp4	0.0	130.06259202957153	0.1499640941619873
21	57.93296194076538	response	0	2		19.0	2.5	/experiments/knapen_aot/videos/S_Pexels_Videos_2376809.mp4	0.0	130.20436906814575	
21	57.94114899635315	movie	1		165.0	19.0	2.5	/experiments/knapen_aot/videos/S_Pexels_Videos_2376809.mp4	0.0	130.21255612373352	2.5083420276641846
21	60.449491024017334	fix_post	2		12.0	19.0	2.5	/experiments/knapen_aot/videos/S_Pexels_Videos_2376809.mp4	0.0	132.7208981513977	0.09998583793640137
22	60.549476861953735	fix_pre	0		32.0	20.0	2.5	blank	1.0	132.8208839893341	0.26670408248901367
22	60.80791091918945	response	0	2		20.0	2.5	blank	1.0	133.07931804656982	
22	60.81618094444275	movie	1		301.0	20.0	2.5	blank	1.0	133.08758807182312	2.5081679821014404
22	63.32434892654419	fix_post	2		12.0	20.0	2.5	blank	1.0	135.59575605392456	0.10016107559204102
23	63.42451000213623	fix_pre	0		44.0	21.0	2.5	/experiments/knapen_aot/videos/R_S_Y005_C003_SDR_2K_AVC.mp4	0.0	135.6959171295166	0.36661696434020996
23	63.782888889312744	response	0	2		21.0	2.5	/experiments/knapen_aot/videos/R_S_Y005_C003_SDR_2K_AVC.mp4	0.0	136.05429601669312	
23	63.79112696647644	movie	1		165.0	21.0	2.5	/experiments/knapen_aot/videos/R_S_Y005_C003_SDR_2K_AVC.mp4	0.0	136.0625340938568	2.508370876312256
23	66.2994978427887	fix_post	2		12.0	21.0	2.5	/experiments/knapen_aot/videos/R_S_Y005_C003_SDR_2K_AVC.mp4	0.0	138.57090497016907	0.09998011589050293
24	66.3994779586792	fix_pre	0		38.0	22.0	2.5	/experiments/knapen_aot/videos/S_yt-tEzCpMrjOHs_24.mp4	0.0	138.67088508605957	0.3166060447692871
24	66.7079508304596	response	0	2		22.0	2.5	/experiments/knapen_aot/videos/S_yt-tEzCpMrjOHs_24.mp4	0.0	138.97935795783997	
24	66.71608400344849	movie	1		301.0	22.0	2.5	/experiments/knapen_aot/videos/S_yt-tEzCpMrjOHs_24.mp4	0.0	138.98749113082886	2.508544921875
24	69.22462892532349	fix_post	2		12.0	22.0	2.5	/experiments/knapen_aot/videos/S_yt-tEzCpMrjOHs_24.mp4	0.0	141.49603605270386	0.09981298446655273
25	69.32444190979004	fix_pre	0		16.0	23.0	2.5	/experiments/knapen_aot/videos/R_S_ILSVRC2015_train_00563000.mp4	0.0	141.5958490371704	0.1333179473876953
25	69.44961595535278	response	0	2		23.0	2.5	/experiments/knapen_aot/videos/R_S_ILSVRC2015_train_00563000.mp4	0.0	141.72102308273315	
25	69.45775985717773	movie	1		301.0	23.0	2.5	/experiments/knapen_aot/videos/R_S_ILSVRC2015_train_00563000.mp4	0.0	141.7291669845581	2.5101261138916016
25	71.96788597106934	fix_post	2		12.0	23.0	2.5	/experiments/knapen_aot/videos/R_S_ILSVRC2015_train_00563000.mp4	0.0	144.2392930984497	0.09821891784667969
26	72.06610488891602	fix_pre	0		32.0	24.0	2.5	/experiments/knapen_aot/videos/R_S_yt-yB7mPODPTVw_74.mp4	0.0	144.3375120162964	0.2666609287261963
26	72.32458782196045	response	0	2		24.0	2.5	/experiments/knapen_aot/videos/R_S_yt-yB7mPODPTVw_74.mp4	0.0	144.59599494934082	
26	72.33276581764221	movie	1		301.0	24.0	2.5	/experiments/knapen_aot/videos/R_S_yt-yB7mPODPTVw_74.mp4	0.0	144.60417294502258	2.508348226547241
26	74.84111404418945	fix_post	2		12.0	24.0	2.5	/experiments/knapen_aot/videos/R_S_yt-yB7mPODPTVw_74.mp4	0.0	147.11252117156982	0.09998679161071777
27	74.94110083580017	fix_pre	0		30.0	25.0	2.5	/experiments/knapen_aot/videos/S_yt-lCb_efvJcdE_5.mp4	0.0	147.21250796318054	0.24993014335632324
27	75.18289804458618	response	0	2		25.0	2.5	/experiments/knapen_aot/videos/S_yt-lCb_efvJcdE_5.mp4	0.0	147.45430517196655	
27	75.1910309791565	movie	1		301.0	25.0	2.5	/experiments/knapen_aot/videos/S_yt-lCb_efvJcdE_5.mp4	0.0	147.46243810653687	2.508388042449951
27	77.69941902160645	fix_post	2		12.0	25.0	2.5	/experiments/knapen_aot/videos/S_yt-lCb_efvJcdE_5.mp4	0.0	149.97082614898682	0.10001683235168457
28	77.79943585395813	fix_pre	0		37.0	26.0	2.5	blank	1.0	150.0708429813385	0.30829715728759766
28	78.099524974823	response	0	2		26.0	2.5	blank	1.0	150.37093210220337	
28	78.10773301124573	movie	1		301.0	26.0	2.5	blank	1.0	150.3791401386261	2.5083389282226562
28	80.61607193946838	fix_post	2		12.0	26.0	2.5	blank	1.0	152.88747906684875	0.09998703002929688
29	80.71605896949768	fix_pre	0		22.0	27.0	2.5	/experiments/knapen_aot/videos/R_S_ILSVRC2015_train_00469000.mp4	0.0	152.98746609687805	0.18333101272583008
29	80.89120697975159	response	0	2		27.0	2.5	/experiments/knapen_aot/videos/R_S_ILSVRC2015_train_00469000.mp4	0.0	153.16261410713196	
29	80.89938998222351	movie	1		301.0	27.0	2.5	/experiments/knapen_aot/videos/R_S_ILSVRC2015_train_00469000.mp4	0.0	153.17079710960388	2.508359909057617
29	83.40774989128113	fix_post	2		12.0	27.0	2.5	/experiments/knapen_aot/videos/R_S_ILSVRC2015_train_00469000.mp4	0.0	155.6791570186615	0.10000109672546387
30	83.50775098800659	fix_pre	0		4.0	28.0	2.5	/experiments/knapen_aot/videos/R_S_production_ID_4802716.mp4	0.0	155.77915811538696	0.03329896926879883
30	83.53290700912476	response	0	2		28.0	2.5	/experiments/knapen_aot/videos/R_S_production_ID_4802716.mp4	0.0	155.80431413650513	
30	83.54104995727539	movie	1		163.0	28.0	2.5	/experiments/knapen_aot/videos/R_S_production_ID_4802716.mp4	0.0	155.81245708465576	2.508272886276245
30	86.04932284355164	fix_post	2		12.0	28.0	2.5	/experiments/knapen_aot/videos/R_S_production_ID_4802716.mp4	0.0	158.320729970932	0.10008096694946289
31	86.1494038105011	fix_pre	0		27.0	29.0	2.5	/experiments/knapen_aot/videos/R_S_yt-aD-EAuBdpUo_163.mp4	0.0	158.42081093788147	0.22501611709594727
31	86.3662040233612	response	0	2		29.0	2.5	/experiments/knapen_aot/videos/R_S_yt-aD-EAuBdpUo_163.mp4	0.0	158.63761115074158	
31	86.37441992759705	movie	1		299.0	29.0	2.5	/experiments/knapen_aot/videos/R_S_yt-aD-EAuBdpUo_163.mp4	0.0	158.64582705497742	2.5082709789276123
31	88.88269090652466	fix_post	2		12.0	29.0	2.5	/experiments/knapen_aot/videos/R_S_yt-aD-EAuBdpUo_163.mp4	0.0	161.15409803390503	0.0999441146850586
32	88.98263502120972	fix_pre	0		118.0	30.0	2.5	/experiments/knapen_aot/videos/S_yt-iT6jsSikmGM_4.mp4	0.0	161.2540421485901	0.983335018157959
32	89.9578959941864	response	0	2		30.0	2.5	/experiments/knapen_aot/videos/S_yt-iT6jsSikmGM_4.mp4	0.0	162.22930312156677	
32	89.96597003936768	movie	1		301.0	30.0	2.5	/experiments/knapen_aot/videos/S_yt-iT6jsSikmGM_4.mp4	0.0	162.23737716674805	2.5084388256073
32	92.47440886497498	fix_post	2		12.0	30.0	2.5	/experiments/knapen_aot/videos/S_yt-iT6jsSikmGM_4.mp4	0.0	164.74581599235535	0.09987497329711914
33	92.5742838382721	fix_pre	0		21.0	31.0	2.5	/experiments/knapen_aot/videos/R_S_comp_N008_C009_PS_v01_SDR_PS_20180925_SDR_2K_AVC.mp4	0.0	164.84569096565247	0.17504501342773438
33	92.74107503890991	response	0	2		31.0	2.5	/experiments/knapen_aot/videos/R_S_comp_N008_C009_PS_v01_SDR_PS_20180925_SDR_2K_AVC.mp4	0.0	165.01248216629028	
33	92.74932885169983	movie	1		168.0	31.0	2.5	/experiments/knapen_aot/videos/R_S_comp_N008_C009_PS_v01_SDR_PS_20180925_SDR_2K_AVC.mp4	0.0	165.0207359790802	2.5083670616149902
33	95.25769591331482	fix_post	2		12.0	31.0	2.5	/experiments/knapen_aot/videos/R_S_comp_N008_C009_PS_v01_SDR_PS_20180925_SDR_2K_AVC.mp4	0.0	167.5291030406952	0.1000211238861084
34	95.35771703720093	fix_pre	0		15.0	32.0	2.5	/experiments/knapen_aot/videos/R_S_ILSVRC2015_train_00001011.mp4	0.0	167.6291241645813	0.12495684623718262
34	95.47447800636292	response	0	2		32.0	2.5	/experiments/knapen_aot/videos/R_S_ILSVRC2015_train_00001011.mp4	0.0	167.7458851337433	
34	95.48267388343811	movie	1		300.0	32.0	2.5	/experiments/knapen_aot/videos/R_S_ILSVRC2015_train_00001011.mp4	0.0	167.75408101081848	2.508355140686035
34	97.99102902412415	fix_post	2		12.0	32.0	2.5	/experiments/knapen_aot/videos/R_S_ILSVRC2015_train_00001011.mp4	0.0	170.26243615150452	0.09992480278015137
35	98.0909538269043	fix_pre	0		7.0	33.0	2.5	blank	1.0	170.36236095428467	0.05837702751159668
35	98.14151287078857	response	0	2		33.0	2.5	blank	1.0	170.41291999816895	
35	98.1493308544159	movie	1		301.0	33.0	2.5	blank	1.0	170.42073798179626	2.508195161819458
35	100.65752601623535	fix_post	2		12.0	33.0	2.5	blank	1.0	172.92893314361572	0.10010290145874023
36	100.75762891769409	fix_pre	0		32.0	34.0	2.5	/experiments/knapen_aot/videos/S_ILSVRC2015_train_00425000.mp4	0.0	173.02903604507446	0.2666149139404297
36	101.01615381240845	response	0	2		34.0	2.5	/experiments/knapen_aot/videos/S_ILSVRC2015_train_00425000.mp4	0.0	173.28756093978882	
36	101.02424383163452	movie	1		300.0	34.0	2.5	/experiments/knapen_aot/videos/S_ILSVRC2015_train_00425000.mp4	0.0	173.2956509590149	2.5083529949188232
36	103.53259682655334	fix_post	2		12.0	34.0	2.5	/experiments/knapen_aot/videos/S_ILSVRC2015_train_00425000.mp4	0.0	175.80400395393372	0.1000821590423584
37	103.6326789855957	fix_pre	0		27.0	35.0	2.5	/experiments/knapen_aot/videos/S_xTlFOCRvy68_1564.mp4	0.0	175.90408611297607	0.22494292259216309
37	103.84940695762634	response	0	2		35.0	2.5	/experiments/knapen_aot/videos/S_xTlFOCRvy68_1564.mp4	0.0	176.1208140850067	
37	103.85762190818787	movie	1		301.0	35.0	2.5	/experiments/knapen_aot/videos/S_xTlFOCRvy68_1564.mp4	0.0	176.12902903556824	2.5083529949188232
37	106.36597490310669	fix_post	2		12.0	35.0	2.5	/experiments/knapen_aot/videos/S_xTlFOCRvy68_1564.mp4	0.0	178.63738203048706	0.09999799728393555
38	106.46597290039062	fix_pre	0		103.0	36.0	2.5	/experiments/knapen_aot/videos/R_S_yt-Dlk44AGz-xM_37.mp4	0.0	178.737380027771	0.8582799434661865
38	107.31608390808105	response	0	2		36.0	2.5	/experiments/knapen_aot/videos/R_S_yt-Dlk44AGz-xM_37.mp4	0.0	179.58749103546143	
38	107.32425284385681	movie	1		301.0	36.0	2.5	/experiments/knapen_aot/videos/R_S_yt-Dlk44AGz-xM_37.mp4	0.0	179.59565997123718	2.5083670616149902
38	109.8326199054718	fix_post	2		12.0	36.0	2.5	/experiments/knapen_aot/videos/R_S_yt-Dlk44AGz-xM_37.mp4	0.0	182.10402703285217	0.10001111030578613
39	109.93263101577759	fix_pre	0		4.0	37.0	2.5	/experiments/knapen_aot/videos/R_S_yt-xqHrTtvFFIs_3.mp4	0.0	182.20403814315796	0.03471088409423828
39	109.95779085159302	response	0	2		37.0	2.5	/experiments/knapen_aot/videos/R_S_yt-xqHrTtvFFIs_3.mp4	0.0	182.2291979789734	
39	109.96734189987183	movie	1		301.0	37.0	2.5	/experiments/knapen_aot/videos/R_S_yt-xqHrTtvFFIs_3.mp4	0.0	182.2387490272522	2.506916046142578
39	112.4742579460144	fix_post	2		12.0	37.0	2.5	/experiments/knapen_aot/videos/R_S_yt-xqHrTtvFFIs_3.mp4	0.0	184.74566507339478	0.09993386268615723
40	112.57419180870056	fix_pre	0		15.0	38.0	2.5	/experiments/knapen_aot/videos/R_S_xTlFOCRvy68_1564.mp4	0.0	184.84559893608093	0.1250312328338623
40	112.68349885940552	response	0	2		38.0	2.5	/experiments/knapen_aot/videos/R_S_xTlFOCRvy68_1564.mp4	0.0	184.9549059867859	
40	112.69922304153442	movie	1		301.0	38.0	2.5	/experiments/knapen_aot/videos/R_S_xTlFOCRvy68_1564.mp4	0.0	184.9706301689148	2.50830078125
40	115.20752382278442	fix_post	2		12.0	38.0	2.5	/experiments/knapen_aot/videos/R_S_xTlFOCRvy68_1564.mp4	0.0	187.4789309501648	0.10003209114074707
41	115.30755591392517	fix_pre	0		11.0	39.0	2.5	/experiments/knapen_aot/videos/R_S_yt-2pRKCSgdXXU_30.mp4	0.0	187.57896304130554	0.09163904190063477
41	115.39101600646973	response	0	2		39.0	2.5	/experiments/knapen_aot/videos/R_S_yt-2pRKCSgdXXU_30.mp4	0.0	187.6624231338501	
41	115.3991949558258	movie	1		301.0	39.0	2.5	/experiments/knapen_aot/videos/R_S_yt-2pRKCSgdXXU_30.mp4	0.0	187.67060208320618	2.508298873901367
41	117.90749382972717	fix_post	2		12.0	39.0	2.5	/experiments/knapen_aot/videos/R_S_yt-2pRKCSgdXXU_30.mp4	0.0	190.17890095710754	0.10003113746643066
42	118.0075249671936	fix_pre	0		11.0	40.0	2.5	/experiments/knapen_aot/videos/S_yt--WPE_4bqQXc_26.mp4	0.0	190.27893209457397	0.09168291091918945
42	118.09100890159607	response	0	2		40.0	2.5	/experiments/knapen_aot/videos/S_yt--WPE_4bqQXc_26.mp4	0.0	190.36241602897644	
42	118.0992078781128	movie	1		301.0	40.0	2.5	/experiments/knapen_aot/videos/S_yt--WPE_4bqQXc_26.mp4	0.0	190.37061500549316	2.5082809925079346
42	120.60748887062073	fix_post	2		12.0	40.0	2.5	/experiments/knapen_aot/videos/S_yt--WPE_4bqQXc_26.mp4	0.0	192.8788959980011	0.09999704360961914
43	120.70748591423035	fix_pre	0		22.0	41.0	2.5	blank	1.0	192.97889304161072	0.18346095085144043
43	120.8827109336853	response	0	2		41.0	2.5	blank	1.0	193.15411806106567	
43	120.89094686508179	movie	1		301.0	41.0	2.5	blank	1.0	193.16235399246216	2.5082530975341797
43	123.39919996261597	fix_post	2		12.0	41.0	2.5	blank	1.0	195.67060708999634	0.09993195533752441
44	123.49913191795349	fix_pre	0		14.0	42.0	2.5	/experiments/knapen_aot/videos/R_S_comp_A009_C001_010181A_v09_SDR_PS_FINAL_20180725_SDR_2K_AVC.mp4	0.0	195.77053904533386	0.11671710014343262
44	123.60762190818787	response	0	2		42.0	2.5	/experiments/knapen_aot/videos/R_S_comp_A009_C001_010181A_v09_SDR_PS_FINAL_20180725_SDR_2K_AVC.mp4	0.0	195.87902903556824	
44	123.61584901809692	movie	1		164.0	42.0	2.5	/experiments/knapen_aot/videos/R_S_comp_A009_C001_010181A_v09_SDR_PS_FINAL_20180725_SDR_2K_AVC.mp4	0.0	195.8872561454773	2.5083370208740234
44	126.12418603897095	fix_post	2		12.0	42.0	2.5	/experiments/knapen_aot/videos/R_S_comp_A009_C001_010181A_v09_SDR_PS_FINAL_20180725_SDR_2K_AVC.mp4	0.0	198.39559316635132	0.09996700286865234
45	126.2241530418396	fix_pre	0		4.0	43.0	2.5	/experiments/knapen_aot/videos/S_yt-Ul81y6R9YbE_12.mp4	0.0	198.49556016921997	0.03466796875
45	126.24928689002991	response	0	2		43.0	2.5	/experiments/knapen_aot/videos/S_yt-Ul81y6R9YbE_12.mp4	0.0	198.52069401741028	
45	126.2588210105896	movie	1		301.0	43.0	2.5	/experiments/knapen_aot/videos/S_yt-Ul81y6R9YbE_12.mp4	0.0	198.53022813796997	2.5070409774780273
45	128.76586198806763	fix_post	2		12.0	43.0	2.5	/experiments/knapen_aot/videos/S_yt-Ul81y6R9YbE_12.mp4	0.0	201.037269115448	0.09997701644897461
46	128.8658390045166	fix_pre	0		14.0	44.0	2.5	/experiments/knapen_aot/videos/S_bing-www_dailymotion_com_video_x64hzm7_8.mp4	0.0	201.13724613189697	0.11663985252380371
46	128.96692085266113	response	0	2		44.0	2.5	/experiments/knapen_aot/videos/S_bing-www_dailymotion_com_video_x64hzm7_8.mp4	0.0	201.2383279800415	
46	128.9824788570404	movie	1		162.0	44.0	2.5	/experiments/knapen_aot/videos/S_bing-www_dailymotion_com_video_x64hzm7_8.mp4	0.0	201.25388598442078	2.5082850456237793
46	131.49076390266418	fix_post	2		12.0	44.0	2.5	/experiments/knapen_aot/videos/S_bing-www_dailymotion_com_video_x64hzm7_8.mp4	0.0	203.76217103004456	0.10004401206970215
47	131.5908079147339	fix_pre	0		23.0	45.0	2.5	/experiments/knapen_aot/videos/R_S_yt-_68FWLGgPYE_25.mp4	0.0	203.86221504211426	0.19163298606872559
47	131.7743158340454	response	0	2		45.0	2.5	/experiments/knapen_aot/videos/R_S_yt-_68FWLGgPYE_25.mp4	0.0	204.04572296142578	
47	131.7824409008026	movie	1		301.0	45.0	2.5	/experiments/knapen_aot/videos/R_S_yt-_68FWLGgPYE_25.mp4	0.0	204.05384802818298	2.5083959102630615
47	134.29083681106567	fix_post	2		12.0	45.0	2.5	/experiments/knapen_aot/videos/R_S_yt-_68FWLGgPYE_25.mp4	0.0	206.56224393844604	0.09998416900634766
48	134.39082098007202	fix_pre	0		182.0	46.0	2.5	/experiments/knapen_aot/videos/S_yt-mJzkLd3Mr_c_35.mp4	0.0	206.6622281074524	1.5166330337524414
48	135.89928793907166	response	0	2		46.0	2.5	/experiments/knapen_aot/videos/S_yt-mJzkLd3Mr_c_35.mp4	0.0	208.17069506645203	
48	135.90745401382446	movie	1		301.0	46.0	2.5	/experiments/knapen_aot/videos/S_yt-mJzkLd3Mr_c_35.mp4	0.0	208.17886114120483	2.50827693939209
48	138.41573095321655	fix_post	2		12.0	46.0	2.5	/experiments/knapen_aot/videos/S_yt-mJzkLd3Mr_c_35.mp4	0.0	210.68713808059692	0.1000828742980957
49	138.51581382751465	fix_pre	0		42.0	47.0	2.5	blank	1.0	210.78722095489502	0.3500339984893799
49	138.8575530052185	response	0	2		47.0	2.5	blank	1.0	211.12896013259888	
49	138.86584782600403	movie	1		301.0	47.0	2.5	blank	1.0	211.1372549533844	2.5082831382751465
49	141.37413096427917	fix_post	2		12.0	47.0	2.5	blank	1.0	213.64553809165955	0.10003995895385742
50	141.47417092323303	fix_pre	0		14.0	48.0	2.5	/experiments/knapen_aot/videos/S_production_ID_4765899.mp4	0.0	213.7455780506134	0.11661505699157715
50	141.5825560092926	response	0	2		48.0	2.5	/experiments/knapen_aot/videos/S_production_ID_4765899.mp4	0.0	213.85396313667297	
50	141.5907859802246	movie	1		178.0	48.0	2.5	/experiments/knapen_aot/videos/S_production_ID_4765899.mp4	0.0	213.86219310760498	2.5083699226379395
50	144.09915590286255	fix_post	2		12.0	48.0	2.5	/experiments/knapen_aot/videos/S_production_ID_4765899.mp4	0.0	216.37056303024292	0.09998106956481934
51	144.19913697242737	fix_pre	0		20.0	49.0	2.5	/experiments/knapen_aot/videos/S_yt-yPl8LcgSMjo_32.mp4	0.0	216.47054409980774	0.16660594940185547
51	144.3576009273529	response	0	2		49.0	2.5	/experiments/knapen_aot/videos/S_yt-yPl8LcgSMjo_32.mp4	0.0	216.62900805473328	
51	144.36574292182922	movie	1		301.0	49.0	2.5	/experiments/knapen_aot/videos/S_yt-yPl8LcgSMjo_32.mp4	0.0	216.6371500492096	2.5083389282226562
51	146.87408185005188	fix_post	2		12.0	49.0	2.5	/experiments/knapen_aot/videos/S_yt-yPl8LcgSMjo_32.mp4	0.0	219.14548897743225	0.10008502006530762
52	146.9741668701172	fix_pre	0		98.0	50.0	2.5	/experiments/knapen_aot/videos/S_yt-a0axt7n0GuQ_19.mp4	0.0	219.24557399749756	0.8165769577026367
52	147.78260684013367	response	0	2		50.0	2.5	/experiments/knapen_aot/videos/S_yt-a0axt7n0GuQ_19.mp4	0.0	220.05401396751404	
52	147.79074382781982	movie	1		301.0	50.0	2.5	/experiments/knapen_aot/videos/S_yt-a0axt7n0GuQ_19.mp4	0.0	220.0621509552002	2.5083401203155518
52	150.29908394813538	fix_post	2		12.0	50.0	2.5	/experiments/knapen_aot/videos/S_yt-a0axt7n0GuQ_19.mp4	0.0	222.57049107551575	0.10002708435058594
53	150.39911103248596	fix_pre	0		102.0	51.0	2.5	/experiments/knapen_aot/videos/S_yt-zam74qlzGtQ_122.mp4	0.0	222.67051815986633	0.8499748706817627
53	151.2409429550171	response	0	2		51.0	2.5	/experiments/knapen_aot/videos/S_yt-zam74qlzGtQ_122.mp4	0.0	223.51235008239746	
53	151.24908590316772	movie	1		301.0	51.0	2.5	/experiments/knapen_aot/videos/S_yt-zam74qlzGtQ_122.mp4	0.0	223.5204930305481	2.5082669258117676
53	153.7573528289795	fix_post	2		12.0	51.0	2.5	/experiments/knapen_aot/videos/S_yt-zam74qlzGtQ_122.mp4	0.0	226.02875995635986	0.09993720054626465
54	153.85729002952576	fix_pre	0		54.0	52.0	2.5	/experiments/knapen_aot/videos/R_S_G007_C004_UHD_SDR_2K_AVC.mp4	0.0	226.12869715690613	0.45008277893066406
54	154.2991828918457	response	0	2		52.0	2.5	/experiments/knapen_aot/videos/R_S_G007_C004_UHD_SDR_2K_AVC.mp4	0.0	226.57059001922607	
54	154.30737280845642	movie	1		172.0	52.0	2.5	/experiments/knapen_aot/videos/R_S_G007_C004_UHD_SDR_2K_AVC.mp4	0.0	226.5787799358368	2.5083911418914795
54	156.8157639503479	fix_post	2		12.0	52.0	2.5	/experiments/knapen_aot/videos/R_S_G007_C004_UHD_SDR_2K_AVC.mp4	0.0	229.08717107772827	0.1000058650970459
55	156.91576981544495	fix_pre	0		8.0	53.0	2.5	/experiments/knapen_aot/videos/S_yt-IDpUZ2NWBUY_60.mp4	0.0	229.18717694282532	0.06664419174194336
55	156.96670794487	response	0	2		53.0	2.5	/experiments/knapen_aot/videos/S_yt-IDpUZ2NWBUY_60.mp4	0.0	229.23811507225037	
55	156.9824140071869	movie	1		301.0	53.0	2.5	/experiments/knapen_aot/videos/S_yt-IDpUZ2NWBUY_60.mp4	0.0	229.25382113456726	2.5083060264587402
55	159.49072003364563	fix_post	2		12.0	53.0	2.5	/experiments/knapen_aot/videos/S_yt-IDpUZ2NWBUY_60.mp4	0.0	231.762127161026	0.09994292259216309
56	159.5906629562378	fix_pre	0		23.0	54.0	2.5	/experiments/knapen_aot/videos/S_yt-jUGt_Byqczw_599.mp4	0.0	231.86207008361816	0.19171690940856934
56	159.77418303489685	response	0	2		54.0	2.5	/experiments/knapen_aot/videos/S_yt-jUGt_Byqczw_599.mp4	0.0	232.04559016227722	
56	159.78237986564636	movie	1		301.0	54.0	2.5	/experiments/knapen_aot/videos/S_yt-jUGt_Byqczw_599.mp4	0.0	232.05378699302673	2.508277177810669
56	162.29065704345703	fix_post	2		12.0	54.0	2.5	/experiments/knapen_aot/videos/S_yt-jUGt_Byqczw_599.mp4	0.0	234.5620641708374	0.10012388229370117
57	162.39078092575073	fix_pre	0		18.0	55.0	2.5	blank	1.0	234.6621880531311	0.14980506896972656
57	162.5325129032135	response	0	2		55.0	2.5	blank	1.0	234.80392003059387	
57	162.54058599472046	movie	1		301.0	55.0	2.5	blank	1.0	234.81199312210083	2.508384943008423
57	165.04897093772888	fix_post	2		12.0	55.0	2.5	blank	1.0	237.32037806510925	0.10004687309265137
58	165.14901781082153	fix_pre	0		27.0	56.0	2.5	/experiments/knapen_aot/videos/S_yt-1RVw8p6Dw2Q_20.mp4	0.0	237.4204249382019	0.22501921653747559
58	165.36578702926636	response	0	2		56.0	2.5	/experiments/knapen_aot/videos/S_yt-1RVw8p6Dw2Q_20.mp4	0.0	237.63719415664673	
58	165.374037027359	movie	1		301.0	56.0	2.5	/experiments/knapen_aot/videos/S_yt-1RVw8p6Dw2Q_20.mp4	0.0	237.64544415473938	2.5082638263702393
58	167.88230085372925	fix_post	2		12.0	56.0	2.5	/experiments/knapen_aot/videos/S_yt-1RVw8p6Dw2Q_20.mp4	0.0	240.15370798110962	0.0999910831451416
59	167.9822919368744	fix_pre	0		105.0	57.0	2.5	/experiments/knapen_aot/videos/S_yt-mHLTJkMrkZI_143.mp4	0.0	240.25369906425476	0.87506103515625
59	168.84916496276855	response	0	2		57.0	2.5	/experiments/knapen_aot/videos/S_yt-mHLTJkMrkZI_143.mp4	0.0	241.12057209014893	
59	168.85735297203064	movie	1		300.0	57.0	2.5	/experiments/knapen_aot/videos/S_yt-mHLTJkMrkZI_143.mp4	0.0	241.128760099411	2.5083529949188232
59	171.36570596694946	fix_post	2		12.0	57.0	2.5	/experiments/knapen_aot/videos/S_yt-mHLTJkMrkZI_143.mp4	0.0	243.63711309432983	0.09999299049377441
59	171.39927101135254	response	2	2		57.0	2.5	/experiments/knapen_aot/videos/S_yt-mHLTJkMrkZI_143.mp4	0.0	243.6706781387329	
60	171.46569895744324	fix_pre	0		132.0	58.0	2.5	/experiments/knapen_aot/videos/S_yt-hMyqUMAbFAk_303.mp4	0.0	243.7371060848236	1.0999739170074463
60	172.55749082565308	response	0	2		58.0	2.5	/experiments/knapen_aot/videos/S_yt-hMyqUMAbFAk_303.mp4	0.0	244.82889795303345	
60	172.56567287445068	movie	1		301.0	58.0	2.5	/experiments/knapen_aot/videos/S_yt-hMyqUMAbFAk_303.mp4	0.0	244.83708000183105	2.508366107940674
60	175.07403898239136	fix_post	2		12.0	58.0	2.5	/experiments/knapen_aot/videos/S_yt-hMyqUMAbFAk_303.mp4	0.0	247.34544610977173	0.10000896453857422
61	175.17404794692993	fix_pre	0		19.0	59.0	2.5	/experiments/knapen_aot/videos/R_S_production_ID_4325509.mp4	0.0	247.4454550743103	0.1583418846130371
61	175.32412099838257	response	0	2		59.0	2.5	/experiments/knapen_aot/videos/R_S_production_ID_4325509.mp4	0.0	247.59552812576294	
61	175.33238983154297	movie	1		190.0	59.0	2.5	/experiments/knapen_aot/videos/R_S_production_ID_4325509.mp4	0.0	247.60379695892334	2.5082530975341797
61	177.84064292907715	fix_post	2		12.0	59.0	2.5	/experiments/knapen_aot/videos/R_S_production_ID_4325509.mp4	0.0	250.11205005645752	0.10002803802490234
62	177.94067096710205	fix_pre	0		18.0	60.0	2.5	/experiments/knapen_aot/videos/R_S_yt-RqWnxg1wT-0_41.mp4	0.0	250.21207809448242	0.15102100372314453
62	178.0750789642334	response	0	2		60.0	2.5	/experiments/knapen_aot/videos/R_S_yt-RqWnxg1wT-0_41.mp4	0.0	250.34648609161377	
62	178.0916919708252	movie	1		300.0	60.0	2.5	/experiments/knapen_aot/videos/R_S_yt-RqWnxg1wT-0_41.mp4	0.0	250.36309909820557	2.5072989463806152
62	180.5989909172058	fix_post	2		12.0	60.0	2.5	/experiments/knapen_aot/videos/R_S_yt-RqWnxg1wT-0_41.mp4	0.0	252.87039804458618	0.09997010231018066
63	180.698961019516	fix_pre	0		34.0	61.0	2.5	blank	1.0	252.97036814689636	0.2833139896392822
63	180.97404384613037	response	0	2		61.0	2.5	blank	1.0	253.24545097351074	
63	180.98227500915527	movie	1		301.0	61.0	2.5	blank	1.0	253.25368213653564	2.508356809616089
63	183.49063181877136	fix_post	2		12.0	61.0	2.5	blank	1.0	255.76203894615173	0.10002708435058594
64	183.59065890312195	fix_pre	0		26.0	62.0	2.5	/experiments/knapen_aot/videos/S_yt-aD-EAuBdpUo_163.mp4	0.0	255.86206603050232	0.21660900115966797
64	183.7990198135376	response	0	2		62.0	2.5	/experiments/knapen_aot/videos/S_yt-aD-EAuBdpUo_163.mp4	0.0	256.07042694091797	
64	183.80726790428162	movie	1		301.0	62.0	2.5	/experiments/knapen_aot/videos/S_yt-aD-EAuBdpUo_163.mp4	0.0	256.078675031662	2.5083909034729004
64	186.31565880775452	fix_post	2		12.0	62.0	2.5	/experiments/knapen_aot/videos/S_yt-aD-EAuBdpUo_163.mp4	0.0	258.5870659351349	0.09990406036376953
65	186.4155628681183	fix_pre	0		48.0	63.0	2.5	/experiments/knapen_aot/videos/R_S_comp_N008_C009_PS_v01_SDR_PS_20180925_SDR_2K_AVC.mp4	0.0	258.68696999549866	0.4000570774078369
65	186.80744791030884	response	0	2		63.0	2.5	/experiments/knapen_aot/videos/R_S_comp_N008_C009_PS_v01_SDR_PS_20180925_SDR_2K_AVC.mp4	0.0	259.0788550376892	
65	186.81561994552612	movie	1		168.0	63.0	2.5	/experiments/knapen_aot/videos/R_S_comp_N008_C009_PS_v01_SDR_PS_20180925_SDR_2K_AVC.mp4	0.0	259.0870270729065	2.5083038806915283
65	189.32392382621765	fix_post	2		12.0	63.0	2.5	/experiments/knapen_aot/videos/R_S_comp_N008_C009_PS_v01_SDR_PS_20180925_SDR_2K_AVC.mp4	0.0	261.595330953598	0.09994912147521973
66	189.42387294769287	fix_pre	0		5.0	64.0	2.5	/experiments/knapen_aot/videos/R_S_yt-wnQFgNEnHUI_109.mp4	0.0	261.69528007507324	0.042752981185913086
66	189.45760893821716	response	0	2		64.0	2.5	/experiments/knapen_aot/videos/R_S_yt-wnQFgNEnHUI_109.mp4	0.0	261.72901606559753	
66	189.46662592887878	movie	1		301.0	64.0	2.5	/experiments/knapen_aot/videos/R_S_yt-wnQFgNEnHUI_109.mp4	0.0	261.73803305625916	2.50728702545166
66	191.97391295433044	fix_post	2		12.0	64.0	2.5	/experiments/knapen_aot/videos/R_S_yt-wnQFgNEnHUI_109.mp4	0.0	264.2453200817108	0.10001587867736816
67	192.0739288330078	fix_pre	0		34.0	65.0	2.5	/experiments/knapen_aot/videos/R_S_pexels-kampus-production-6022792.mp4	0.0	264.3453359603882	0.2833430767059326
67	192.3490228652954	response	0	2		65.0	2.5	/experiments/knapen_aot/videos/R_S_pexels-kampus-production-6022792.mp4	0.0	264.6204299926758	
67	192.35727190971375	movie	1		166.0	65.0	2.5	/experiments/knapen_aot/videos/R_S_pexels-kampus-production-6022792.mp4	0.0	264.6286790370941	2.508297920227051
67	194.8655698299408	fix_post	2		12.0	65.0	2.5	/experiments/knapen_aot/videos/R_S_pexels-kampus-production-6022792.mp4	0.0	267.13697695732117	0.10004019737243652
68	194.96561002731323	fix_pre	0		118.0	66.0	2.5	/experiments/knapen_aot/videos/R_S_yt--a-d97T4Gak_75.mp4	0.0	267.2370171546936	0.9833028316497803
68	195.94073486328125	response	0	2		66.0	2.5	/experiments/knapen_aot/videos/R_S_yt--a-d97T4Gak_75.mp4	0.0	268.2121419906616	
68	195.948912858963	movie	1		301.0	66.0	2.5	/experiments/knapen_aot/videos/R_S_yt--a-d97T4Gak_75.mp4	0.0	268.2203199863434	2.5083420276641846
68	198.4572548866272	fix_post	2		12.0	66.0	2.5	/experiments/knapen_aot/videos/R_S_yt--a-d97T4Gak_75.mp4	0.0	270.72866201400757	0.09999203681945801
69	198.55724692344666	fix_pre	0		58.0	67.0	2.5	/experiments/knapen_aot/videos/R_S_pexels-nkem-6237382.mp4	0.0	270.828654050827	0.4832899570465088
69	199.03240084648132	response	0	2		67.0	2.5	/experiments/knapen_aot/videos/R_S_pexels-nkem-6237382.mp4	0.0	271.3038079738617	
69	199.04053688049316	movie	1		163.0	67.0	2.5	/experiments/knapen_aot/videos/R_S_pexels-nkem-6237382.mp4	0.0	271.31194400787354	2.5083651542663574
69	201.54890203475952	fix_post	2		12.0	67.0	2.5	/experiments/knapen_aot/videos/R_S_pexels-nkem-6237382.mp4	0.0	273.8203091621399	0.10002684593200684
70	201.64892888069153	fix_pre	0		15.0	68.0	2.5	/experiments/knapen_aot/videos/R_S_Pexels_Videos_2376809.mp4	0.0	273.9203360080719	0.12493610382080078
70	201.765695810318	response	0	2		68.0	2.5	/experiments/knapen_aot/videos/R_S_Pexels_Videos_2376809.mp4	0.0	274.03710293769836	
70	201.77386498451233	movie	1		163.0	68.0	2.5	/experiments/knapen_aot/videos/R_S_Pexels_Videos_2376809.mp4	0.0	274.0452721118927	2.508389949798584
70	204.2822549343109	fix_post	2		12.0	68.0	2.5	/experiments/knapen_aot/videos/R_S_Pexels_Videos_2376809.mp4	0.0	276.5536620616913	0.09997296333312988
71	204.38222789764404	fix_pre	0		15.0	69.0	2.5	blank	1.0	276.6536350250244	0.12591004371643066
71	204.49905800819397	response	0	2		69.0	2.5	blank	1.0	276.77046513557434	
71	204.50813794136047	movie	1		301.0	69.0	2.5	blank	1.0	276.77954506874084	2.5074269771575928
71	206.99068784713745	response	1	2		69.0	2.5	blank	1.0	279.2620949745178	
71	207.01556491851807	fix_post	2		12.0	69.0	2.5	blank	1.0	279.28697204589844	0.10002303123474121
72	207.1155879497528	fix_pre	0		41.0	70.0	2.5	/experiments/knapen_aot/videos/R_S_yt-H45g6700wbc_159.mp4	0.0	279.3869950771332	0.34161996841430664
72	207.44895601272583	response	0	2		70.0	2.5	/experiments/knapen_aot/videos/R_S_yt-H45g6700wbc_159.mp4	0.0	279.7203631401062	
72	207.45720791816711	movie	1		301.0	70.0	2.5	/experiments/knapen_aot/videos/R_S_yt-H45g6700wbc_159.mp4	0.0	279.7286150455475	2.508234977722168
72	209.96544289588928	fix_post	2		11.0	70.0	2.5	/experiments/knapen_aot/videos/R_S_yt-H45g6700wbc_159.mp4	0.0	282.23685002326965	0.10004210472106934
73	210.06548500061035	fix_pre	0		35.0	71.0	2.5	/experiments/knapen_aot/videos/S_pexels-laker-5793000.mp4	0.0	282.3368921279907	0.2917299270629883
73	210.34903001785278	response	0	2		71.0	2.5	/experiments/knapen_aot/videos/S_pexels-laker-5793000.mp4	0.0	282.62043714523315	
73	210.35721492767334	movie	1		168.0	71.0	2.5	/experiments/knapen_aot/videos/S_pexels-laker-5793000.mp4	0.0	282.6286220550537	2.5082719326019287
73	212.86548686027527	fix_post	2		12.0	71.0	2.5	/experiments/knapen_aot/videos/S_pexels-laker-5793000.mp4	0.0	285.13689398765564	0.09991097450256348
74	212.96539783477783	fix_pre	0		84.0	72.0	2.5	/experiments/knapen_aot/videos/R_S_yt-EApB0DJ3ECg_66.mp4	0.0	285.2368049621582	0.7000551223754883
74	213.6573338508606	response	0	2		72.0	2.5	/experiments/knapen_aot/videos/R_S_yt-EApB0DJ3ECg_66.mp4	0.0	285.92874097824097	
74	213.66545295715332	movie	1		301.0	72.0	2.5	/experiments/knapen_aot/videos/R_S_yt-EApB0DJ3ECg_66.mp4	0.0	285.9368600845337	2.508373975753784
74	216.1738269329071	fix_post	2		12.0	72.0	2.5	/experiments/knapen_aot/videos/R_S_yt-EApB0DJ3ECg_66.mp4	0.0	288.4452340602875	0.10004496574401855
75	216.27387189865112	fix_pre	0		75.0	73.0	2.5	/experiments/knapen_aot/videos/R_S_pexels-laker-5793000.mp4	0.0	288.5452790260315	0.6249830722808838
75	216.89056491851807	response	0	2		73.0	2.5	/experiments/knapen_aot/videos/R_S_pexels-laker-5793000.mp4	0.0	289.16197204589844	
75	216.898854970932	movie	1		168.0	73.0	2.5	/experiments/knapen_aot/videos/R_S_pexels-laker-5793000.mp4	0.0	289.1702620983124	2.5082759857177734
75	219.40713095664978	fix_post	2		12.0	73.0	2.5	/experiments/knapen_aot/videos/R_S_pexels-laker-5793000.mp4	0.0	291.67853808403015	0.0999610424041748
76	219.50709199905396	fix_pre	0		11.0	74.0	2.5	/experiments/knapen_aot/videos/S_pexels-c-technical-5771610.mp4	0.0	291.7784991264343	0.09169387817382812
76	219.5906150341034	response	0	2		74.0	2.5	/experiments/knapen_aot/videos/S_pexels-c-technical-5771610.mp4	0.0	291.86202216148376	
76	219.59878587722778	movie	1		206.0	74.0	2.5	/experiments/knapen_aot/videos/S_pexels-c-technical-5771610.mp4	0.0	291.87019300460815	2.508437156677246
76	222.10722303390503	fix_post	2		12.0	74.0	2.5	/experiments/knapen_aot/videos/S_pexels-c-technical-5771610.mp4	0.0	294.3786301612854	0.09990596771240234
77	222.20712900161743	fix_pre	0		20.0	75.0	2.5	blank	1.0	294.4785361289978	0.1665968894958496
77	222.36554384231567	response	0	2		75.0	2.5	blank	1.0	294.63695096969604	
77	222.37372589111328	movie	1		301.0	75.0	2.5	blank	1.0	294.64513301849365	2.508418083190918
77	224.8405179977417	response	1	4		75.0	2.5	blank	1.0	297.11192512512207	
77	224.8821439743042	fix_post	2		12.0	75.0	2.5	blank	1.0	297.15355110168457	0.09996986389160156
78	224.9821138381958	fix_pre	0		72.0	76.0	2.5	/experiments/knapen_aot/videos/S_BO_A014_C023_SDR_20190717_F240F3709_SDR_2K_AVC.mp4	0.0	297.2535209655762	0.5999801158905029
78	225.57384490966797	response	0	4		76.0	2.5	/experiments/knapen_aot/videos/S_BO_A014_C023_SDR_20190717_F240F3709_SDR_2K_AVC.mp4	0.0	297.84525203704834	
78	225.5820939540863	movie	1		166.0	76.0	2.5	/experiments/knapen_aot/videos/S_BO_A014_C023_SDR_20190717_F240F3709_SDR_2K_AVC.mp4	0.0	297.8535010814667	2.5082569122314453
78	228.09035086631775	fix_post	2		12.0	76.0	2.5	/experiments/knapen_aot/videos/S_BO_A014_C023_SDR_20190717_F240F3709_SDR_2K_AVC.mp4	0.0	300.3617579936981	0.10006117820739746
79	228.19041204452515	fix_pre	0		1.0	77.0	2.5	/experiments/knapen_aot/videos/S_ILSVRC2015_train_00324001.mp4	0.0	300.4618191719055	0.008293867111206055
79	228.19207501411438	response	0	2		77.0	2.5	/experiments/knapen_aot/videos/S_ILSVRC2015_train_00324001.mp4	0.0	300.46348214149475	
79	228.19870591163635	movie	1		301.0	77.0	2.5	/experiments/knapen_aot/videos/S_ILSVRC2015_train_00324001.mp4	0.0	300.4701130390167	2.5083110332489014
79	230.70701694488525	fix_post	2		12.0	77.0	2.5	/experiments/knapen_aot/videos/S_ILSVRC2015_train_00324001.mp4	0.0	302.9784240722656	0.10005402565002441
80	230.80707097053528	fix_pre	0		5.0	78.0	2.5	/experiments/knapen_aot/videos/R_S_ILSVRC2015_train_00323000.mp4	0.0	303.07847809791565	0.04174184799194336
80	230.84049797058105	response	0	2		78.0	2.5	/experiments/knapen_aot/videos/R_S_ILSVRC2015_train_00323000.mp4	0.0	303.1119050979614	
80	230.84881281852722	movie	1		300.0	78.0	2.5	/experiments/knapen_aot/videos/R_S_ILSVRC2015_train_00323000.mp4	0.0	303.1202199459076	2.5083231925964355
80	233.35713601112366	fix_post	2		12.0	78.0	2.5	/experiments/knapen_aot/videos/R_S_ILSVRC2015_train_00323000.mp4	0.0	305.628543138504	0.09994697570800781
81	233.45708298683167	fix_pre	0		19.0	79.0	2.5	/experiments/knapen_aot/videos/S_yt--a-d97T4Gak_75.mp4	0.0	305.72849011421204	0.15831685066223145
81	233.6072268486023	response	0	4		79.0	2.5	/experiments/knapen_aot/videos/S_yt--a-d97T4Gak_75.mp4	0.0	305.87863397598267	
81	233.6153998374939	movie	1		301.0	79.0	2.5	/experiments/knapen_aot/videos/S_yt--a-d97T4Gak_75.mp4	0.0	305.88680696487427	2.5083460807800293
81	236.12374591827393	fix_post	2		12.0	79.0	2.5	/experiments/knapen_aot/videos/S_yt--a-d97T4Gak_75.mp4	0.0	308.3951530456543	0.10000109672546387
82	236.2237470149994	fix_pre	0		25.0	80.0	2.5	/experiments/knapen_aot/videos/S_yt-4wYTkhggZNM_90.mp4	0.0	308.49515414237976	0.2082819938659668
82	236.42379903793335	response	0	2		80.0	2.5	/experiments/knapen_aot/videos/S_yt-4wYTkhggZNM_90.mp4	0.0	308.6952061653137	
82	236.43202900886536	movie	1		301.0	80.0	2.5	/experiments/knapen_aot/videos/S_yt-4wYTkhggZNM_90.mp4	0.0	308.7034361362457	2.5084028244018555
82	238.9404318332672	fix_post	2		12.0	80.0	2.5	/experiments/knapen_aot/videos/S_yt-4wYTkhggZNM_90.mp4	0.0	311.2118389606476	0.09998607635498047
83	239.0404179096222	fix_pre	0		16.0	81.0	2.5	/experiments/knapen_aot/videos/R_S_yt-8vm83GUgYxI_1.mp4	0.0	311.31182503700256	0.1340470314025879
83	239.15805292129517	response	0	4		81.0	2.5	/experiments/knapen_aot/videos/R_S_yt-8vm83GUgYxI_1.mp4	0.0	311.42946004867554	
83	239.17446494102478	movie	1		300.0	81.0	2.5	/experiments/knapen_aot/videos/R_S_yt-8vm83GUgYxI_1.mp4	0.0	311.44587206840515	2.5076189041137695
83	241.68208384513855	fix_post	2		12.0	81.0	2.5	/experiments/knapen_aot/videos/R_S_yt-8vm83GUgYxI_1.mp4	0.0	313.9534909725189	0.09998607635498047
84	241.78206992149353	fix_pre	0		10.0	82.0	2.5	/experiments/knapen_aot/videos/R_S_yt-1RVw8p6Dw2Q_20.mp4	0.0	314.0534770488739	0.08333706855773926
84	241.8572130203247	response	0	2		82.0	2.5	/experiments/knapen_aot/videos/R_S_yt-1RVw8p6Dw2Q_20.mp4	0.0	314.1286201477051	
84	241.86540699005127	movie	1		301.0	82.0	2.5	/experiments/knapen_aot/videos/R_S_yt-1RVw8p6Dw2Q_20.mp4	0.0	314.13681411743164	2.508359909057617
84	244.3737668991089	fix_post	2		12.0	82.0	2.5	/experiments/knapen_aot/videos/R_S_yt-1RVw8p6Dw2Q_20.mp4	0.0	316.64517402648926	0.09992313385009766
85	244.47369003295898	fix_pre	0		42.0	83.0	2.5	blank	1.0	316.74509716033936	0.3499448299407959
85	244.81549382209778	response	0	2		83.0	2.5	blank	1.0	317.08690094947815	
85	244.82363486289978	movie	1		301.0	83.0	2.5	blank	1.0	317.09504199028015	2.5083601474761963
85	247.33199501037598	fix_post	2		12.0	83.0	2.5	blank	1.0	319.60340213775635	0.10004591941833496
87	247.4320409297943	stim	0		79.0					319.7034480571747	0.6590099334716797
87	247.62373089790344	response	0	2						319.8951380252838	
87	248.08267998695374	response	0	space						320.3540871143341	
