trial_nr	onset	event_type	phase	response	nr_frames	movie_index	movie_duration	movie_file	blank	onset_abs	duration
0	0.1249539852142334	stim	0		94.0					75.69448399543762	0.7839770317077637
0	0.9000959396362305	response	0	space						76.46962594985962	
1	0.9089310169219971	stim	0		121.0					76.47846102714539	1.0073909759521484
1	1.9163219928741455	stim	1		120.0					77.48585200309753	1.0000391006469727
1	2.066483974456787	response	1	space						77.63601398468018	
1	2.5831611156463623	response	1	space						78.15269112586975	
2	2.916361093521118	fix_pre	0		17.0	0.0	2.5	/experiments/knapen_aot/videos/R_S_yt-khmJAQuCRRE_119.mp4	0.0	78.4858911037445	0.1450200080871582
2	3.0525150299072266	response	0	2		0.0	2.5	/experiments/knapen_aot/videos/R_S_yt-khmJAQuCRRE_119.mp4	0.0	78.62204504013062	
2	3.0613811016082764	movie	1		295.0	0.0	2.5	/experiments/knapen_aot/videos/R_S_yt-khmJAQuCRRE_119.mp4	0.0	78.63091111183167	2.5049519538879395
2	3.2088241577148438	response	1	space		0.0	2.5	/experiments/knapen_aot/videos/R_S_yt-khmJAQuCRRE_119.mp4	0.0	78.77835416793823	
2	5.566333055496216	fix_post	2		12.0	0.0	2.5	/experiments/knapen_aot/videos/R_S_yt-khmJAQuCRRE_119.mp4	0.0	81.1358630657196	0.09998703002929688
3	5.666320085525513	fix_pre	0		22.0	1.0	2.5	/experiments/knapen_aot/videos/R_S_ILSVRC2015_train_00594001.mp4	0.0	81.2358500957489	0.18670105934143066
3	5.844444036483765	response	0	2		1.0	2.5	/experiments/knapen_aot/videos/R_S_ILSVRC2015_train_00594001.mp4	0.0	81.41397404670715	
3	5.853021144866943	movie	1		300.0	1.0	2.5	/experiments/knapen_aot/videos/R_S_ILSVRC2015_train_00594001.mp4	0.0	81.42255115509033	2.505009889602661
3	8.358031034469604	fix_post	2		12.0	1.0	2.5	/experiments/knapen_aot/videos/R_S_ILSVRC2015_train_00594001.mp4	0.0	83.927561044693	0.09995913505554199
4	8.457990169525146	fix_pre	0		54.0	2.0	2.5	/experiments/knapen_aot/videos/R_S_yt-tX3slAQb9yY_13.mp4	0.0	84.02752017974854	0.4507019519805908
4	8.89980411529541	response	0	2		2.0	2.5	/experiments/knapen_aot/videos/R_S_yt-tX3slAQb9yY_13.mp4	0.0	84.4693341255188	
4	8.908692121505737	movie	1		301.0	2.0	2.5	/experiments/knapen_aot/videos/R_S_yt-tX3slAQb9yY_13.mp4	0.0	84.47822213172913	2.50763201713562
4	11.416324138641357	fix_post	2		12.0	2.0	2.5	/experiments/knapen_aot/videos/R_S_yt-tX3slAQb9yY_13.mp4	0.0	86.98585414886475	0.10007596015930176
5	11.51640009880066	fix_pre	0		11.0	3.0	2.5	/experiments/knapen_aot/videos/R_S_yt-pO5SVq-9EhU_114.mp4	0.0	87.08593010902405	0.09154105186462402
5	11.599725008010864	response	0	2		3.0	2.5	/experiments/knapen_aot/videos/R_S_yt-pO5SVq-9EhU_114.mp4	0.0	87.16925501823425	
5	11.607941150665283	movie	1		301.0	3.0	2.5	/experiments/knapen_aot/videos/R_S_yt-pO5SVq-9EhU_114.mp4	0.0	87.17747116088867	2.5083539485931396
5	14.116295099258423	fix_post	2		12.0	3.0	2.5	/experiments/knapen_aot/videos/R_S_yt-pO5SVq-9EhU_114.mp4	0.0	89.68582510948181	0.10000991821289062
6	14.216305017471313	fix_pre	0		59.0	4.0	2.5	/experiments/knapen_aot/videos/S_ILSVRC2015_train_00594001.mp4	0.0	89.7858350276947	0.49161410331726074
6	14.699722051620483	response	0	2		4.0	2.5	/experiments/knapen_aot/videos/S_ILSVRC2015_train_00594001.mp4	0.0	90.26925206184387	
6	14.707919120788574	movie	1		301.0	4.0	2.5	/experiments/knapen_aot/videos/S_ILSVRC2015_train_00594001.mp4	0.0	90.27744913101196	2.508352041244507
6	17.21627116203308	fix_post	2		12.0	4.0	2.5	/experiments/knapen_aot/videos/S_ILSVRC2015_train_00594001.mp4	0.0	92.78580117225647	0.09993100166320801
7	17.31620216369629	fix_pre	0		39.0	5.0	2.5	blank	1.0	92.88573217391968	0.32507991790771484
7	17.63308811187744	response	0	2		5.0	2.5	blank	1.0	93.20261812210083	
7	17.641282081604004	movie	1		301.0	5.0	2.5	blank	1.0	93.21081209182739	2.5083420276641846
7	20.14962410926819	fix_post	2		12.0	5.0	2.5	blank	1.0	95.71915411949158	0.0999138355255127
8	20.2495379447937	fix_pre	0		46.0	6.0	2.5	/experiments/knapen_aot/videos/S_wc-6or3Gl2Fif0m_13.mp4	0.0	95.81906795501709	0.3833770751953125
8	20.624725103378296	response	0	2		6.0	2.5	/experiments/knapen_aot/videos/S_wc-6or3Gl2Fif0m_13.mp4	0.0	96.19425511360168	
8	20.632915019989014	movie	1		166.0	6.0	2.5	/experiments/knapen_aot/videos/S_wc-6or3Gl2Fif0m_13.mp4	0.0	96.2024450302124	2.508333921432495
8	23.14124894142151	fix_post	2		11.0	6.0	2.5	/experiments/knapen_aot/videos/S_wc-6or3Gl2Fif0m_13.mp4	0.0	98.7107789516449	0.09357810020446777
8	23.224781036376953	response	2	2		6.0	2.5	/experiments/knapen_aot/videos/S_wc-6or3Gl2Fif0m_13.mp4	0.0	98.79431104660034	
9	23.234827041625977	fix_pre	0		39.0	7.0	2.5	/experiments/knapen_aot/videos/S_production_ID_4101244.mp4	0.0	98.80435705184937	0.32314395904541016
9	23.549682140350342	response	0	2		7.0	2.5	/experiments/knapen_aot/videos/S_production_ID_4101244.mp4	0.0	99.11921215057373	
9	23.557971000671387	movie	1		200.0	7.0	2.5	/experiments/knapen_aot/videos/S_production_ID_4101244.mp4	0.0	99.12750101089478	2.508233070373535
9	25.991413116455078	response	1	2		7.0	2.5	/experiments/knapen_aot/videos/S_production_ID_4101244.mp4	0.0	101.56094312667847	
9	26.066204071044922	fix_post	2		12.0	7.0	2.5	/experiments/knapen_aot/videos/S_production_ID_4101244.mp4	0.0	101.63573408126831	0.10005307197570801
10	26.16625714302063	fix_pre	0		32.0	8.0	2.5	/experiments/knapen_aot/videos/R_S_ILSVRC2015_train_00743002.mp4	0.0	101.73578715324402	0.26660990715026855
10	26.42466115951538	response	0	2		8.0	2.5	/experiments/knapen_aot/videos/R_S_ILSVRC2015_train_00743002.mp4	0.0	101.99419116973877	
10	26.4328670501709	movie	1		301.0	8.0	2.5	/experiments/knapen_aot/videos/R_S_ILSVRC2015_train_00743002.mp4	0.0	102.00239706039429	2.508358955383301
10	28.9412260055542	fix_post	2		12.0	8.0	2.5	/experiments/knapen_aot/videos/R_S_ILSVRC2015_train_00743002.mp4	0.0	104.51075601577759	0.10004496574401855
11	29.041270971298218	fix_pre	0		22.0	9.0	2.5	/experiments/knapen_aot/videos/R_S_video-11.mp4	0.0	104.6108009815216	0.18329215049743652
11	29.21640110015869	response	0	2		9.0	2.5	/experiments/knapen_aot/videos/R_S_video-11.mp4	0.0	104.78593111038208	
11	29.224563121795654	movie	1		170.0	9.0	2.5	/experiments/knapen_aot/videos/R_S_video-11.mp4	0.0	104.79409313201904	2.5082859992980957
11	30.9824640750885	response	1	2		9.0	2.5	/experiments/knapen_aot/videos/R_S_video-11.mp4	0.0	106.55199408531189	
11	31.73284912109375	fix_post	2		12.0	9.0	2.5	/experiments/knapen_aot/videos/R_S_video-11.mp4	0.0	107.30237913131714	0.10001301765441895
11	31.80799102783203	response	2	2		9.0	2.5	/experiments/knapen_aot/videos/R_S_video-11.mp4	0.0	107.37752103805542	
12	31.83286213874817	fix_pre	0		33.0	10.0	2.5	/experiments/knapen_aot/videos/S_g201_TH_804_A001_8_SDR_20191031_SDR_2K_AVC.mp4	0.0	107.40239214897156	0.27494287490844727
12	32.099684953689575	response	0	2		10.0	2.5	/experiments/knapen_aot/videos/S_g201_TH_804_A001_8_SDR_20191031_SDR_2K_AVC.mp4	0.0	107.66921496391296	
12	32.107805013656616	movie	1		163.0	10.0	2.5	/experiments/knapen_aot/videos/S_g201_TH_804_A001_8_SDR_20191031_SDR_2K_AVC.mp4	0.0	107.67733502388	2.5084099769592285
12	34.616214990615845	fix_post	2		12.0	10.0	2.5	/experiments/knapen_aot/videos/S_g201_TH_804_A001_8_SDR_20191031_SDR_2K_AVC.mp4	0.0	110.18574500083923	0.09999394416809082
13	34.716208934783936	fix_pre	0		122.0	11.0	2.5	/experiments/knapen_aot/videos/R_S_yt-BQixB0mumIk_169.mp4	0.0	110.28573894500732	1.01674222946167
13	35.724727153778076	response	0	2		11.0	2.5	/experiments/knapen_aot/videos/R_S_yt-BQixB0mumIk_169.mp4	0.0	111.29425716400146	
13	35.732951164245605	movie	1		301.0	11.0	2.5	/experiments/knapen_aot/videos/R_S_yt-BQixB0mumIk_169.mp4	0.0	111.302481174469	2.5081958770751953
13	38.2411470413208	fix_post	2		12.0	11.0	2.5	/experiments/knapen_aot/videos/R_S_yt-BQixB0mumIk_169.mp4	0.0	113.81067705154419	0.10004591941833496
14	38.341192960739136	fix_pre	0		17.0	12.0	2.5	blank	1.0	113.91072297096252	0.14156603813171387
14	38.47467803955078	response	0	2		12.0	2.5	blank	1.0	114.04420804977417	
14	38.48275899887085	movie	1		301.0	12.0	2.5	blank	1.0	114.05228900909424	2.508510112762451
14	40.9912691116333	fix_post	2		12.0	12.0	2.5	blank	1.0	116.56079912185669	0.099884033203125
15	41.091153144836426	fix_pre	0		21.0	13.0	2.5	/experiments/knapen_aot/videos/R_S_yt--OkafQ5VFHs_51.mp4	0.0	116.66068315505981	0.1749420166015625
15	41.257920026779175	response	0	2		13.0	2.5	/experiments/knapen_aot/videos/R_S_yt--OkafQ5VFHs_51.mp4	0.0	116.82745003700256	
15	41.26609516143799	movie	1		301.0	13.0	2.5	/experiments/knapen_aot/videos/R_S_yt--OkafQ5VFHs_51.mp4	0.0	116.83562517166138	2.5084829330444336
15	43.77457809448242	fix_post	2		12.0	13.0	2.5	/experiments/knapen_aot/videos/R_S_yt--OkafQ5VFHs_51.mp4	0.0	119.34410810470581	0.09994888305664062
16	43.87452697753906	fix_pre	0		18.0	14.0	2.5	/experiments/knapen_aot/videos/S_pexels-mikhail-nilov-8410084.mp4	0.0	119.44405698776245	0.1499781608581543
16	44.016255140304565	response	0	2		14.0	2.5	/experiments/knapen_aot/videos/S_pexels-mikhail-nilov-8410084.mp4	0.0	119.58578515052795	
16	44.02450513839722	movie	1		165.0	14.0	2.5	/experiments/knapen_aot/videos/S_pexels-mikhail-nilov-8410084.mp4	0.0	119.5940351486206	2.5083119869232178
16	46.532817125320435	fix_post	2		12.0	14.0	2.5	/experiments/knapen_aot/videos/S_pexels-mikhail-nilov-8410084.mp4	0.0	122.10234713554382	0.09997391700744629
17	46.63279104232788	fix_pre	0		2.0	15.0	2.5	/experiments/knapen_aot/videos/R_S_yt-GVaF4tmJBZE_253.mp4	0.0	122.20232105255127	0.016741037368774414
17	46.641250133514404	response	0	2		15.0	2.5	/experiments/knapen_aot/videos/R_S_yt-GVaF4tmJBZE_253.mp4	0.0	122.2107801437378	
17	46.649532079696655	movie	1		301.0	15.0	2.5	/experiments/knapen_aot/videos/R_S_yt-GVaF4tmJBZE_253.mp4	0.0	122.21906208992004	2.5082409381866455
17	49.1577730178833	fix_post	2		12.0	15.0	2.5	/experiments/knapen_aot/videos/R_S_yt-GVaF4tmJBZE_253.mp4	0.0	124.72730302810669	0.09996199607849121
18	49.25773501396179	fix_pre	0		33.0	16.0	2.5	/experiments/knapen_aot/videos/S_ILSVRC2015_train_00465000.mp4	0.0	124.82726502418518	0.27536797523498535
18	49.524641036987305	response	0	2		16.0	2.5	/experiments/knapen_aot/videos/S_ILSVRC2015_train_00465000.mp4	0.0	125.0941710472107	
18	49.53310298919678	movie	1		301.0	16.0	2.5	/experiments/knapen_aot/videos/S_ILSVRC2015_train_00465000.mp4	0.0	125.10263299942017	2.5079829692840576
18	52.041085958480835	fix_post	2		12.0	16.0	2.5	/experiments/knapen_aot/videos/S_ILSVRC2015_train_00465000.mp4	0.0	127.61061596870422	0.10004711151123047
19	52.141133069992065	fix_pre	0		8.0	17.0	2.5	/experiments/knapen_aot/videos/R_S_yt-_WFwhcmbXXY_51.mp4	0.0	127.71066308021545	0.06667399406433105
19	52.192036151885986	response	0	2		17.0	2.5	/experiments/knapen_aot/videos/R_S_yt-_WFwhcmbXXY_51.mp4	0.0	127.76156616210938	
19	52.2078070640564	movie	1		298.0	17.0	2.5	/experiments/knapen_aot/videos/R_S_yt-_WFwhcmbXXY_51.mp4	0.0	127.77733707427979	2.508225917816162
19	54.71603298187256	fix_post	2		12.0	17.0	2.5	/experiments/knapen_aot/videos/R_S_yt-_WFwhcmbXXY_51.mp4	0.0	130.28556299209595	0.10007905960083008
20	54.81611204147339	fix_pre	0		13.0	18.0	2.5	/experiments/knapen_aot/videos/R_S_production_ID_4122384.mp4	0.0	130.38564205169678	0.1083369255065918
20	54.91626501083374	response	0	2		18.0	2.5	/experiments/knapen_aot/videos/R_S_production_ID_4122384.mp4	0.0	130.48579502105713	
20	54.92444896697998	movie	1		166.0	18.0	2.5	/experiments/knapen_aot/videos/R_S_production_ID_4122384.mp4	0.0	130.49397897720337	2.5082969665527344
20	57.432745933532715	fix_post	2		12.0	18.0	2.5	/experiments/knapen_aot/videos/R_S_production_ID_4122384.mp4	0.0	133.0022759437561	0.09998321533203125
21	57.532729148864746	fix_pre	0		11.0	19.0	2.5	/experiments/knapen_aot/videos/R_S_video_inspire_texas_pecos_foggy-landscape_00018.1080-h264.mp4	0.0	133.10225915908813	0.0917208194732666
21	57.61629915237427	response	0	2		19.0	2.5	/experiments/knapen_aot/videos/R_S_video_inspire_texas_pecos_foggy-landscape_00018.1080-h264.mp4	0.0	133.18582916259766	
21	57.62444996833801	movie	1		169.0	19.0	2.5	/experiments/knapen_aot/videos/R_S_video_inspire_texas_pecos_foggy-landscape_00018.1080-h264.mp4	0.0	133.1939799785614	2.5082850456237793
21	60.13273501396179	fix_post	2		12.0	19.0	2.5	/experiments/knapen_aot/videos/R_S_video_inspire_texas_pecos_foggy-landscape_00018.1080-h264.mp4	0.0	135.70226502418518	0.09998798370361328
22	60.232722997665405	fix_pre	0		32.0	20.0	2.5	/experiments/knapen_aot/videos/S_yt-3JApfnMu5cU_378.mp4	0.0	135.8022530078888	0.26666998863220215
22	60.49115014076233	response	0	2		20.0	2.5	/experiments/knapen_aot/videos/S_yt-3JApfnMu5cU_378.mp4	0.0	136.06068015098572	
22	60.49939298629761	movie	1		301.0	20.0	2.5	/experiments/knapen_aot/videos/S_yt-3JApfnMu5cU_378.mp4	0.0	136.068922996521	2.5083611011505127
22	63.00775408744812	fix_post	2		12.0	20.0	2.5	/experiments/knapen_aot/videos/S_yt-3JApfnMu5cU_378.mp4	0.0	138.5772840976715	0.0999748706817627
23	63.10772895812988	fix_pre	0		4.0	21.0	2.5	blank	1.0	138.67725896835327	0.03343319892883301
23	63.13299608230591	response	0	2		21.0	2.5	blank	1.0	138.7025260925293	
23	63.141162157058716	movie	1		301.0	21.0	2.5	blank	1.0	138.7106921672821	2.5082337856292725
23	65.64939594268799	fix_post	2		12.0	21.0	2.5	blank	1.0	141.21892595291138	0.09996199607849121
24	65.74935793876648	fix_pre	0		24.0	22.0	2.5	/experiments/knapen_aot/videos/R_S_yt-uY5xsUKn8zU_17.mp4	0.0	141.31888794898987	0.20034313201904297
24	65.94122004508972	response	0	2		22.0	2.5	/experiments/knapen_aot/videos/R_S_yt-uY5xsUKn8zU_17.mp4	0.0	141.5107500553131	
24	65.94970107078552	movie	1		301.0	22.0	2.5	/experiments/knapen_aot/videos/R_S_yt-uY5xsUKn8zU_17.mp4	0.0	141.5192310810089	2.5080010890960693
24	68.45770215988159	fix_post	2		12.0	22.0	2.5	/experiments/knapen_aot/videos/R_S_yt-uY5xsUKn8zU_17.mp4	0.0	144.02723217010498	0.10001277923583984
25	68.55771493911743	fix_pre	0		24.0	23.0	2.5	/experiments/knapen_aot/videos/R_S_yt-GLK6LniTOK0_69.mp4	0.0	144.12724494934082	0.20001721382141113
25	68.74955010414124	response	0	2		23.0	2.5	/experiments/knapen_aot/videos/R_S_yt-GLK6LniTOK0_69.mp4	0.0	144.31908011436462	
25	68.75773215293884	movie	1		301.0	23.0	2.5	/experiments/knapen_aot/videos/R_S_yt-GLK6LniTOK0_69.mp4	0.0	144.32726216316223	2.5083158016204834
25	71.26604795455933	fix_post	2		12.0	23.0	2.5	/experiments/knapen_aot/videos/R_S_yt-GLK6LniTOK0_69.mp4	0.0	146.83557796478271	0.10028910636901855
26	71.36633706092834	fix_pre	0		9.0	24.0	2.5	/experiments/knapen_aot/videos/S_yt-eLQydFSMGCU_75.mp4	0.0	146.93586707115173	0.07474088668823242
26	71.43290495872498	response	0	2		24.0	2.5	/experiments/knapen_aot/videos/S_yt-eLQydFSMGCU_75.mp4	0.0	147.00243496894836	
26	71.44107794761658	movie	1		300.0	24.0	2.5	/experiments/knapen_aot/videos/S_yt-eLQydFSMGCU_75.mp4	0.0	147.01060795783997	2.5085971355438232
26	73.9496750831604	fix_post	2		12.0	24.0	2.5	/experiments/knapen_aot/videos/S_yt-eLQydFSMGCU_75.mp4	0.0	149.5192050933838	0.09977293014526367
27	74.04944801330566	fix_pre	0		13.0	25.0	2.5	/experiments/knapen_aot/videos/S_comp_N008_C009_PS_v01_SDR_PS_20180925_SDR_2K_AVC.mp4	0.0	149.61897802352905	0.10848402976989746
27	74.14959597587585	response	0	2		25.0	2.5	/experiments/knapen_aot/videos/S_comp_N008_C009_PS_v01_SDR_PS_20180925_SDR_2K_AVC.mp4	0.0	149.71912598609924	
27	74.15793204307556	movie	1		166.0	25.0	2.5	/experiments/knapen_aot/videos/S_comp_N008_C009_PS_v01_SDR_PS_20180925_SDR_2K_AVC.mp4	0.0	149.72746205329895	2.508136034011841
27	76.6660680770874	fix_post	2		12.0	25.0	2.5	/experiments/knapen_aot/videos/S_comp_N008_C009_PS_v01_SDR_PS_20180925_SDR_2K_AVC.mp4	0.0	152.2355980873108	0.1000070571899414
27	76.75783801078796	response	2	2		25.0	2.5	/experiments/knapen_aot/videos/S_comp_N008_C009_PS_v01_SDR_PS_20180925_SDR_2K_AVC.mp4	0.0	152.32736802101135	
28	76.76607513427734	fix_pre	0		30.0	26.0	2.5	/experiments/knapen_aot/videos/S_yt-0Ut9QANGX20_35.mp4	0.0	152.33560514450073	0.25000500679016113
28	77.00787210464478	response	0	2		26.0	2.5	/experiments/knapen_aot/videos/S_yt-0Ut9QANGX20_35.mp4	0.0	152.57740211486816	
28	77.0160801410675	movie	1		300.0	26.0	2.5	/experiments/knapen_aot/videos/S_yt-0Ut9QANGX20_35.mp4	0.0	152.5856101512909	2.508267879486084
28	79.52434802055359	fix_post	2		12.0	26.0	2.5	/experiments/knapen_aot/videos/S_yt-0Ut9QANGX20_35.mp4	0.0	155.09387803077698	0.10002493858337402
29	79.62437295913696	fix_pre	0		35.0	27.0	2.5	/experiments/knapen_aot/videos/R_S__9v_wUywaAA_35.mp4	0.0	155.19390296936035	0.29166102409362793
29	79.90769910812378	response	0	2		27.0	2.5	/experiments/knapen_aot/videos/R_S__9v_wUywaAA_35.mp4	0.0	155.47722911834717	
29	79.91603398323059	movie	1		301.0	27.0	2.5	/experiments/knapen_aot/videos/R_S__9v_wUywaAA_35.mp4	0.0	155.48556399345398	2.508301019668579
29	82.42433500289917	fix_post	2		12.0	27.0	2.5	/experiments/knapen_aot/videos/R_S__9v_wUywaAA_35.mp4	0.0	157.99386501312256	0.10001111030578613
30	82.52434611320496	fix_pre	0		17.0	28.0	2.5	blank	1.0	158.09387612342834	0.1417548656463623
30	82.65033102035522	response	0	2		28.0	2.5	blank	1.0	158.2198610305786	
30	82.66610097885132	movie	1		301.0	28.0	2.5	blank	1.0	158.2356309890747	2.5082290172576904
30	85.17432999610901	fix_post	2		12.0	28.0	2.5	blank	1.0	160.7438600063324	0.09994006156921387
31	85.27427005767822	fix_pre	0		58.0	29.0	2.5	/experiments/knapen_aot/videos/R_S_yt-mmvWYAttrIw_2.mp4	0.0	160.8438000679016	0.48337388038635254
31	85.74958610534668	response	0	2		29.0	2.5	/experiments/knapen_aot/videos/R_S_yt-mmvWYAttrIw_2.mp4	0.0	161.31911611557007	
31	85.75764393806458	movie	1		301.0	29.0	2.5	/experiments/knapen_aot/videos/R_S_yt-mmvWYAttrIw_2.mp4	0.0	161.32717394828796	2.5083529949188232
31	88.2659969329834	fix_post	2		12.0	29.0	2.5	/experiments/knapen_aot/videos/R_S_yt-mmvWYAttrIw_2.mp4	0.0	163.8355269432068	0.10010504722595215
32	88.36610198020935	fix_pre	0		13.0	30.0	2.5	/experiments/knapen_aot/videos/R_S_yt-c5_SFS4aaJI_1102.mp4	0.0	163.93563199043274	0.10825514793395996
32	88.46607398986816	response	0	2		30.0	2.5	/experiments/knapen_aot/videos/R_S_yt-c5_SFS4aaJI_1102.mp4	0.0	164.03560400009155	
32	88.47435712814331	movie	1		301.0	30.0	2.5	/experiments/knapen_aot/videos/R_S_yt-c5_SFS4aaJI_1102.mp4	0.0	164.0438871383667	2.5082828998565674
32	90.81768894195557	response	1	2		30.0	2.5	/experiments/knapen_aot/videos/R_S_yt-c5_SFS4aaJI_1102.mp4	0.0	166.38721895217896	
32	90.98264002799988	fix_post	2		12.0	30.0	2.5	/experiments/knapen_aot/videos/R_S_yt-c5_SFS4aaJI_1102.mp4	0.0	166.55217003822327	0.10000896453857422
33	91.08264899253845	fix_pre	0		14.0	31.0	2.5	/experiments/knapen_aot/videos/S_yt-8y7Xhp2_2e0_168.mp4	0.0	166.65217900276184	0.11680912971496582
33	91.18353295326233	response	0	2		31.0	2.5	/experiments/knapen_aot/videos/S_yt-8y7Xhp2_2e0_168.mp4	0.0	166.75306296348572	
33	91.19945812225342	movie	1		301.0	31.0	2.5	/experiments/knapen_aot/videos/S_yt-8y7Xhp2_2e0_168.mp4	0.0	166.7689881324768	2.5081980228424072
33	93.70765614509583	fix_post	2		12.0	31.0	2.5	/experiments/knapen_aot/videos/S_yt-8y7Xhp2_2e0_168.mp4	0.0	169.2771861553192	0.09997081756591797
34	93.80762696266174	fix_pre	0		27.0	32.0	2.5	/experiments/knapen_aot/videos/S_yt-KpOAdMtPGFs_17.mp4	0.0	169.37715697288513	0.22509217262268066
34	94.0243489742279	response	0	2		32.0	2.5	/experiments/knapen_aot/videos/S_yt-KpOAdMtPGFs_17.mp4	0.0	169.5938789844513	
34	94.03271913528442	movie	1		301.0	32.0	2.5	/experiments/knapen_aot/videos/S_yt-KpOAdMtPGFs_17.mp4	0.0	169.6022491455078	2.508265972137451
34	96.54098510742188	fix_post	2		12.0	32.0	2.5	/experiments/knapen_aot/videos/S_yt-KpOAdMtPGFs_17.mp4	0.0	172.11051511764526	0.10004305839538574
35	96.64102816581726	fix_pre	0		17.0	33.0	2.5	/experiments/knapen_aot/videos/R_S_yt-8RmEimCI80g_35.mp4	0.0	172.21055817604065	0.1416919231414795
35	96.77446699142456	response	0	2		33.0	2.5	/experiments/knapen_aot/videos/R_S_yt-8RmEimCI80g_35.mp4	0.0	172.34399700164795	
35	96.78272008895874	movie	1		301.0	33.0	2.5	/experiments/knapen_aot/videos/R_S_yt-8RmEimCI80g_35.mp4	0.0	172.35225009918213	2.5083069801330566
35	99.2910270690918	fix_post	2		12.0	33.0	2.5	/experiments/knapen_aot/videos/R_S_yt-8RmEimCI80g_35.mp4	0.0	174.86055707931519	0.09995508193969727
36	99.3909821510315	fix_pre	0		32.0	34.0	2.5	/experiments/knapen_aot/videos/R_S_yt-XbigWWtnGL4_75.mp4	0.0	174.96051216125488	0.2667210102081299
36	99.64943099021912	response	0	2		34.0	2.5	/experiments/knapen_aot/videos/R_S_yt-XbigWWtnGL4_75.mp4	0.0	175.2189610004425	
36	99.65770316123962	movie	1		301.0	34.0	2.5	/experiments/knapen_aot/videos/R_S_yt-XbigWWtnGL4_75.mp4	0.0	175.227233171463	2.5082709789276123
36	102.16597414016724	fix_post	2		12.0	34.0	2.5	/experiments/knapen_aot/videos/R_S_yt-XbigWWtnGL4_75.mp4	0.0	177.73550415039062	0.10005879402160645
37	102.26603293418884	fix_pre	0		10.0	35.0	2.5	blank	1.0	177.83556294441223	0.08327102661132812
37	102.34115505218506	response	0	2		35.0	2.5	blank	1.0	177.91068506240845	
37	102.34930396080017	movie	1		301.0	35.0	2.5	blank	1.0	177.91883397102356	2.508345127105713
37	104.85764908790588	fix_post	2		12.0	35.0	2.5	blank	1.0	180.42717909812927	0.09997987747192383
38	104.95762896537781	fix_pre	0		22.0	36.0	2.5	/experiments/knapen_aot/videos/R_S_yt-R0gFQo85cAE_5.mp4	0.0	180.5271589756012	0.18332409858703613
38	105.13274502754211	response	0	2		36.0	2.5	/experiments/knapen_aot/videos/R_S_yt-R0gFQo85cAE_5.mp4	0.0	180.7022750377655	
38	105.14095306396484	movie	1		300.0	36.0	2.5	/experiments/knapen_aot/videos/R_S_yt-R0gFQo85cAE_5.mp4	0.0	180.71048307418823	2.5083529949188232
38	107.64930605888367	fix_post	2		12.0	36.0	2.5	/experiments/knapen_aot/videos/R_S_yt-R0gFQo85cAE_5.mp4	0.0	183.21883606910706	0.1000208854675293
39	107.7493269443512	fix_pre	0		10.0	37.0	2.5	/experiments/knapen_aot/videos/R_S_yt-j3Sk8ZnAiEA_32.mp4	0.0	183.31885695457458	0.08328700065612793
39	107.82442498207092	response	0	2		37.0	2.5	/experiments/knapen_aot/videos/R_S_yt-j3Sk8ZnAiEA_32.mp4	0.0	183.3939549922943	
39	107.83261394500732	movie	1		301.0	37.0	2.5	/experiments/knapen_aot/videos/R_S_yt-j3Sk8ZnAiEA_32.mp4	0.0	183.4021439552307	2.508430004119873
39	110.3410439491272	fix_post	2		12.0	37.0	2.5	/experiments/knapen_aot/videos/R_S_yt-j3Sk8ZnAiEA_32.mp4	0.0	185.9105739593506	0.09991121292114258
40	110.44095516204834	fix_pre	0		14.0	38.0	2.5	/experiments/knapen_aot/videos/R_S_yt-a5TGHnldsKg_102.mp4	0.0	186.01048517227173	0.1166379451751709
40	110.5493791103363	response	0	2		38.0	2.5	/experiments/knapen_aot/videos/R_S_yt-a5TGHnldsKg_102.mp4	0.0	186.1189091205597	
40	110.55759310722351	movie	1		301.0	38.0	2.5	/experiments/knapen_aot/videos/R_S_yt-a5TGHnldsKg_102.mp4	0.0	186.1271231174469	2.5083489418029785
40	113.06594204902649	fix_post	2		12.0	38.0	2.5	/experiments/knapen_aot/videos/R_S_yt-a5TGHnldsKg_102.mp4	0.0	188.63547205924988	0.09994792938232422
41	113.16588997840881	fix_pre	0		17.0	39.0	2.5	/experiments/knapen_aot/videos/S_Y009_C015_SDR_2K_AVC.mp4	0.0	188.7354199886322	0.1416921615600586
41	113.29936099052429	response	0	2		39.0	2.5	/experiments/knapen_aot/videos/S_Y009_C015_SDR_2K_AVC.mp4	0.0	188.86889100074768	
41	113.30758213996887	movie	1		174.0	39.0	2.5	/experiments/knapen_aot/videos/S_Y009_C015_SDR_2K_AVC.mp4	0.0	188.87711215019226	2.5083580017089844
41	115.81594014167786	fix_post	2		12.0	39.0	2.5	/experiments/knapen_aot/videos/S_Y009_C015_SDR_2K_AVC.mp4	0.0	191.38547015190125	0.0999917984008789
41	115.85780906677246	response	2	2		39.0	2.5	/experiments/knapen_aot/videos/S_Y009_C015_SDR_2K_AVC.mp4	0.0	191.42733907699585	
42	115.91593194007874	fix_pre	0		54.0	40.0	2.5	/experiments/knapen_aot/videos/S_yt-J2PiBa1MXI0_210.mp4	0.0	191.48546195030212	0.4499080181121826
42	116.3575611114502	response	0	2		40.0	2.5	/experiments/knapen_aot/videos/S_yt-J2PiBa1MXI0_210.mp4	0.0	191.92709112167358	
42	116.36583995819092	movie	1		301.0	40.0	2.5	/experiments/knapen_aot/videos/S_yt-J2PiBa1MXI0_210.mp4	0.0	191.9353699684143	2.508395195007324
42	118.87423515319824	fix_post	2		12.0	40.0	2.5	/experiments/knapen_aot/videos/S_yt-J2PiBa1MXI0_210.mp4	0.0	194.44376516342163	0.09998178482055664
43	118.9742169380188	fix_pre	0		10.0	41.0	2.5	blank	1.0	194.5437469482422	0.0833899974822998
43	119.04938697814941	response	0	2		41.0	2.5	blank	1.0	194.6189169883728	
43	119.0576069355011	movie	1		301.0	41.0	2.5	blank	1.0	194.6271369457245	2.5082900524139404
43	121.56589698791504	fix_post	2		12.0	41.0	2.5	blank	1.0	197.13542699813843	0.10005307197570801
44	121.66595005989075	fix_pre	0		13.0	42.0	2.5	/experiments/knapen_aot/videos/S_production_ID_4122384.mp4	0.0	197.23548007011414	0.10825705528259277
44	121.76598405838013	response	0	2		42.0	2.5	/experiments/knapen_aot/videos/S_production_ID_4122384.mp4	0.0	197.33551406860352	
44	121.77420711517334	movie	1		169.0	42.0	2.5	/experiments/knapen_aot/videos/S_production_ID_4122384.mp4	0.0	197.34373712539673	2.508296012878418
44	124.28250312805176	fix_post	2		12.0	42.0	2.5	/experiments/knapen_aot/videos/S_production_ID_4122384.mp4	0.0	199.85203313827515	0.10000395774841309
44	124.35783410072327	response	2	2		42.0	2.5	/experiments/knapen_aot/videos/S_production_ID_4122384.mp4	0.0	199.92736411094666	
45	124.38250708580017	fix_pre	0		33.0	43.0	2.5	/experiments/knapen_aot/videos/S_comp_L012_c002_PS_v01_SDR_PS_20180925_SDR_2K_AVC.mp4	0.0	199.95203709602356	0.27500200271606445
45	124.64927697181702	response	0	2		43.0	2.5	/experiments/knapen_aot/videos/S_comp_L012_c002_PS_v01_SDR_PS_20180925_SDR_2K_AVC.mp4	0.0	200.2188069820404	
45	124.65750908851624	movie	1		170.0	43.0	2.5	/experiments/knapen_aot/videos/S_comp_L012_c002_PS_v01_SDR_PS_20180925_SDR_2K_AVC.mp4	0.0	200.22703909873962	2.508378028869629
45	127.16588711738586	fix_post	2		12.0	43.0	2.5	/experiments/knapen_aot/videos/S_comp_L012_c002_PS_v01_SDR_PS_20180925_SDR_2K_AVC.mp4	0.0	202.73541712760925	0.09997892379760742
46	127.26586604118347	fix_pre	0		8.0	44.0	2.5	/experiments/knapen_aot/videos/R_S_comp_DB_D008_C010_PSNK_v21_SDR_PS_20180914_F0F16157_SDR_2K_AVC.mp4	0.0	202.83539605140686	0.06663990020751953
46	127.32431101799011	response	0	2		44.0	2.5	/experiments/knapen_aot/videos/R_S_comp_DB_D008_C010_PSNK_v21_SDR_PS_20180914_F0F16157_SDR_2K_AVC.mp4	0.0	202.8938410282135	
46	127.33250594139099	movie	1		174.0	44.0	2.5	/experiments/knapen_aot/videos/R_S_comp_DB_D008_C010_PSNK_v21_SDR_PS_20180914_F0F16157_SDR_2K_AVC.mp4	0.0	202.90203595161438	2.5083460807800293
46	129.84085202217102	fix_post	2		12.0	44.0	2.5	/experiments/knapen_aot/videos/R_S_comp_DB_D008_C010_PSNK_v21_SDR_PS_20180914_F0F16157_SDR_2K_AVC.mp4	0.0	205.4103820323944	0.09999704360961914
46	129.8826880455017	response	2	2		44.0	2.5	/experiments/knapen_aot/videos/R_S_comp_DB_D008_C010_PSNK_v21_SDR_PS_20180914_F0F16157_SDR_2K_AVC.mp4	0.0	205.4522180557251	
47	129.94084906578064	fix_pre	0		59.0	45.0	2.5	/experiments/knapen_aot/videos/R_S_Y009_C015_SDR_2K_AVC.mp4	0.0	205.51037907600403	0.49159908294677734
47	130.42431116104126	response	0	2		45.0	2.5	/experiments/knapen_aot/videos/R_S_Y009_C015_SDR_2K_AVC.mp4	0.0	205.99384117126465	
47	130.43244814872742	movie	1		175.0	45.0	2.5	/experiments/knapen_aot/videos/R_S_Y009_C015_SDR_2K_AVC.mp4	0.0	206.0019781589508	2.5084028244018555
47	132.36606693267822	response	1	2		45.0	2.5	/experiments/knapen_aot/videos/R_S_Y009_C015_SDR_2K_AVC.mp4	0.0	207.9355969429016	
47	132.94085097312927	fix_post	2		12.0	45.0	2.5	/experiments/knapen_aot/videos/R_S_Y009_C015_SDR_2K_AVC.mp4	0.0	208.51038098335266	0.09998297691345215
47	132.96599698066711	response	2	2		45.0	2.5	/experiments/knapen_aot/videos/R_S_Y009_C015_SDR_2K_AVC.mp4	0.0	208.5355269908905	
48	133.04083395004272	fix_pre	0		46.0	46.0	2.5	/experiments/knapen_aot/videos/S_production_ID_5144823.mp4	0.0	208.6103639602661	0.3833770751953125
48	133.41595911979675	response	0	2		46.0	2.5	/experiments/knapen_aot/videos/S_production_ID_5144823.mp4	0.0	208.98548913002014	
48	133.42421102523804	movie	1		165.0	46.0	2.5	/experiments/knapen_aot/videos/S_production_ID_5144823.mp4	0.0	208.99374103546143	2.5082590579986572
48	135.9324700832367	fix_post	2		12.0	46.0	2.5	/experiments/knapen_aot/videos/S_production_ID_5144823.mp4	0.0	211.50200009346008	0.10002708435058594
49	136.03249716758728	fix_pre	0		11.0	47.0	2.5	blank	1.0	211.60202717781067	0.0917057991027832
49	136.11601614952087	response	0	2		47.0	2.5	blank	1.0	211.68554615974426	
49	136.12420296669006	movie	1		301.0	47.0	2.5	blank	1.0	211.69373297691345	2.5082859992980957
49	138.63248896598816	fix_post	2		12.0	47.0	2.5	blank	1.0	214.20201897621155	0.09985518455505371
50	138.7323441505432	fix_pre	0		29.0	48.0	2.5	/experiments/knapen_aot/videos/R_S_yt-gMqeZkpA_1Q_61.mp4	0.0	214.3018741607666	0.24175786972045898
50	138.96591210365295	response	0	2		48.0	2.5	/experiments/knapen_aot/videos/R_S_yt-gMqeZkpA_1Q_61.mp4	0.0	214.53544211387634	
50	138.97410202026367	movie	1		301.0	48.0	2.5	/experiments/knapen_aot/videos/R_S_yt-gMqeZkpA_1Q_61.mp4	0.0	214.54363203048706	2.508341073989868
50	141.48244309425354	fix_post	2		12.0	48.0	2.5	/experiments/knapen_aot/videos/R_S_yt-gMqeZkpA_1Q_61.mp4	0.0	217.05197310447693	0.09995889663696289
51	141.5824019908905	fix_pre	0		13.0	49.0	2.5	/experiments/knapen_aot/videos/S_comp_A114_C001_0305OT_v10_SDR_FINAL_22062018_SDR_2K_AVC.mp4	0.0	217.1519320011139	0.10831499099731445
51	141.68254399299622	response	0	2		49.0	2.5	/experiments/knapen_aot/videos/S_comp_A114_C001_0305OT_v10_SDR_FINAL_22062018_SDR_2K_AVC.mp4	0.0	217.2520740032196	
51	141.69071698188782	movie	1		165.0	49.0	2.5	/experiments/knapen_aot/videos/S_comp_A114_C001_0305OT_v10_SDR_FINAL_22062018_SDR_2K_AVC.mp4	0.0	217.2602469921112	2.5083601474761963
51	144.199077129364	fix_post	2		12.0	49.0	2.5	/experiments/knapen_aot/videos/S_comp_A114_C001_0305OT_v10_SDR_FINAL_22062018_SDR_2K_AVC.mp4	0.0	219.7686071395874	0.10001087188720703
52	144.29908800125122	fix_pre	0		9.0	50.0	2.5	/experiments/knapen_aot/videos/S_yt-FsXOl6JjzSY_15.mp4	0.0	219.8686180114746	0.07499814033508301
52	144.36599612236023	response	0	2		50.0	2.5	/experiments/knapen_aot/videos/S_yt-FsXOl6JjzSY_15.mp4	0.0	219.93552613258362	
52	144.3740861415863	movie	1		301.0	50.0	2.5	/experiments/knapen_aot/videos/S_yt-FsXOl6JjzSY_15.mp4	0.0	219.9436161518097	2.5083799362182617
52	146.88246607780457	fix_post	2		12.0	50.0	2.5	/experiments/knapen_aot/videos/S_yt-FsXOl6JjzSY_15.mp4	0.0	222.45199608802795	0.10000801086425781
53	146.98247408866882	fix_pre	0		18.0	51.0	2.5	/experiments/knapen_aot/videos/R_S_production_ID_5139371.mp4	0.0	222.5520040988922	0.14998388290405273
53	147.12420916557312	response	0	2		51.0	2.5	/experiments/knapen_aot/videos/R_S_production_ID_5139371.mp4	0.0	222.6937391757965	
53	147.13245797157288	movie	1		164.0	51.0	2.5	/experiments/knapen_aot/videos/R_S_production_ID_5139371.mp4	0.0	222.70198798179626	2.508347988128662
53	149.16595005989075	response	1	2		51.0	2.5	/experiments/knapen_aot/videos/R_S_production_ID_5139371.mp4	0.0	224.73548007011414	
53	149.64080595970154	fix_post	2		12.0	51.0	2.5	/experiments/knapen_aot/videos/R_S_production_ID_5139371.mp4	0.0	225.21033596992493	0.09997105598449707
54	149.74077701568604	fix_pre	0		12.0	52.0	2.5	/experiments/knapen_aot/videos/R_S_pexels-roman-odintsov-8231493.mp4	0.0	225.31030702590942	0.09997010231018066
54	149.83253812789917	response	0	2		52.0	2.5	/experiments/knapen_aot/videos/R_S_pexels-roman-odintsov-8231493.mp4	0.0	225.40206813812256	
54	149.84074711799622	movie	1		215.0	52.0	2.5	/experiments/knapen_aot/videos/R_S_pexels-roman-odintsov-8231493.mp4	0.0	225.4102771282196	2.5083160400390625
54	152.34906315803528	fix_post	2		12.0	52.0	2.5	/experiments/knapen_aot/videos/R_S_pexels-roman-odintsov-8231493.mp4	0.0	227.91859316825867	0.10004281997680664
55	152.44910597801208	fix_pre	0		9.0	53.0	2.5	/experiments/knapen_aot/videos/R_S_nvbAwZOKBS8_23.mp4	0.0	228.01863598823547	0.07623505592346191
55	152.51612997055054	response	0	2		53.0	2.5	/experiments/knapen_aot/videos/R_S_nvbAwZOKBS8_23.mp4	0.0	228.08565998077393	
55	152.52534103393555	movie	1		301.0	53.0	2.5	/experiments/knapen_aot/videos/R_S_nvbAwZOKBS8_23.mp4	0.0	228.09487104415894	2.5070929527282715
55	155.03243398666382	fix_post	2		12.0	53.0	2.5	/experiments/knapen_aot/videos/R_S_nvbAwZOKBS8_23.mp4	0.0	230.6019639968872	0.09991717338562012
56	155.13235116004944	fix_pre	0		7.0	54.0	2.5	/experiments/knapen_aot/videos/S_comp_LA_A006_C004_v01_SDR_FINAL_PS_20180730_SDR_2K_AVC.mp4	0.0	230.70188117027283	0.0595698356628418
56	155.18255496025085	response	0	2		54.0	2.5	/experiments/knapen_aot/videos/S_comp_LA_A006_C004_v01_SDR_FINAL_PS_20180730_SDR_2K_AVC.mp4	0.0	230.75208497047424	
56	155.19192099571228	movie	1		168.0	54.0	2.5	/experiments/knapen_aot/videos/S_comp_LA_A006_C004_v01_SDR_FINAL_PS_20180730_SDR_2K_AVC.mp4	0.0	230.76145100593567	2.5070860385894775
56	157.69900703430176	fix_post	2		12.0	54.0	2.5	/experiments/knapen_aot/videos/S_comp_LA_A006_C004_v01_SDR_FINAL_PS_20180730_SDR_2K_AVC.mp4	0.0	233.26853704452515	0.10007190704345703
56	157.7825391292572	response	2	2		54.0	2.5	/experiments/knapen_aot/videos/S_comp_LA_A006_C004_v01_SDR_FINAL_PS_20180730_SDR_2K_AVC.mp4	0.0	233.3520691394806	
57	157.79907894134521	fix_pre	0		31.0	55.0	2.5	blank	1.0	233.3686089515686	0.25823402404785156
57	158.04915595054626	response	0	2		55.0	2.5	blank	1.0	233.61868596076965	
57	158.05731296539307	movie	1		301.0	55.0	2.5	blank	1.0	233.62684297561646	2.50838303565979
57	160.56569600105286	fix_post	2		12.0	55.0	2.5	blank	1.0	236.13522601127625	0.10006594657897949
58	160.66576194763184	fix_pre	0		81.0	56.0	2.5	/experiments/knapen_aot/videos/S_yt--OkafQ5VFHs_51.mp4	0.0	236.23529195785522	0.6749210357666016
58	161.33248114585876	response	0	2		56.0	2.5	/experiments/knapen_aot/videos/S_yt--OkafQ5VFHs_51.mp4	0.0	236.90201115608215	
58	161.34068298339844	movie	1		301.0	56.0	2.5	/experiments/knapen_aot/videos/S_yt--OkafQ5VFHs_51.mp4	0.0	236.91021299362183	2.508334159851074
58	163.8490171432495	fix_post	2		12.0	56.0	2.5	/experiments/knapen_aot/videos/S_yt--OkafQ5VFHs_51.mp4	0.0	239.4185471534729	0.10001182556152344
59	163.94902896881104	fix_pre	0		24.0	57.0	2.5	/experiments/knapen_aot/videos/R_S_P006_C002_UHD_SDR_2K_AVC.mp4	0.0	239.51855897903442	0.20001816749572754
59	164.13326001167297	response	0	2		57.0	2.5	/experiments/knapen_aot/videos/R_S_P006_C002_UHD_SDR_2K_AVC.mp4	0.0	239.70279002189636	
59	164.14904713630676	movie	1		172.0	57.0	2.5	/experiments/knapen_aot/videos/R_S_P006_C002_UHD_SDR_2K_AVC.mp4	0.0	239.71857714653015	2.5082569122314453
59	166.6573040485382	fix_post	2		12.0	57.0	2.5	/experiments/knapen_aot/videos/R_S_P006_C002_UHD_SDR_2K_AVC.mp4	0.0	242.2268340587616	0.10004496574401855
60	166.75734901428223	fix_pre	0		19.0	58.0	2.5	/experiments/knapen_aot/videos/S_yt-KV8X9IBWuJk_48.mp4	0.0	242.32687902450562	0.15827107429504395
60	166.9074330329895	response	0	2		58.0	2.5	/experiments/knapen_aot/videos/S_yt-KV8X9IBWuJk_48.mp4	0.0	242.4769630432129	
60	166.91562008857727	movie	1		301.0	58.0	2.5	/experiments/knapen_aot/videos/S_yt-KV8X9IBWuJk_48.mp4	0.0	242.48515009880066	2.508344888687134
60	167.0668981075287	response	1	2		58.0	2.5	/experiments/knapen_aot/videos/S_yt-KV8X9IBWuJk_48.mp4	0.0	242.63642811775208	
60	168.92807912826538	response	1	2		58.0	2.5	/experiments/knapen_aot/videos/S_yt-KV8X9IBWuJk_48.mp4	0.0	244.49760913848877	
60	169.4239649772644	fix_post	2		12.0	58.0	2.5	/experiments/knapen_aot/videos/S_yt-KV8X9IBWuJk_48.mp4	0.0	244.9934949874878	0.10002803802490234
61	169.5239930152893	fix_pre	0		10.0	59.0	2.5	/experiments/knapen_aot/videos/R_S_comp_GMT060_117NC_363D_1034_AUSTRALIA_v35_SDR_PS_FINAL_20180731_SDR_2K_AVC.mp4	0.0	245.0935230255127	0.08442401885986328
61	169.5992660522461	response	0	2		59.0	2.5	/experiments/knapen_aot/videos/R_S_comp_GMT060_117NC_363D_1034_AUSTRALIA_v35_SDR_PS_FINAL_20180731_SDR_2K_AVC.mp4	0.0	245.16879606246948	
61	169.60841703414917	movie	1		166.0	59.0	2.5	/experiments/knapen_aot/videos/R_S_comp_GMT060_117NC_363D_1034_AUSTRALIA_v35_SDR_PS_FINAL_20180731_SDR_2K_AVC.mp4	0.0	245.17794704437256	2.507158041000366
61	172.11557507514954	fix_post	2		12.0	59.0	2.5	/experiments/knapen_aot/videos/R_S_comp_GMT060_117NC_363D_1034_AUSTRALIA_v35_SDR_PS_FINAL_20180731_SDR_2K_AVC.mp4	0.0	247.68510508537292	0.10007286071777344
62	172.2156479358673	fix_pre	0		15.0	60.0	2.5	/experiments/knapen_aot/videos/S_production_ID_4510883.mp4	0.0	247.7851779460907	0.12500905990600586
62	172.33239912986755	response	0	2		60.0	2.5	/experiments/knapen_aot/videos/S_production_ID_4510883.mp4	0.0	247.90192914009094	
62	172.34065699577332	movie	1		169.0	60.0	2.5	/experiments/knapen_aot/videos/S_production_ID_4510883.mp4	0.0	247.9101870059967	2.5083000659942627
62	174.84895706176758	fix_post	2		12.0	60.0	2.5	/experiments/knapen_aot/videos/S_production_ID_4510883.mp4	0.0	250.41848707199097	0.10003900527954102
63	174.94899606704712	fix_pre	0		50.0	61.0	2.5	/experiments/knapen_aot/videos/R_S_yt-NqyG4Ar2JWo_10.mp4	0.0	250.5185260772705	0.4166738986968994
63	175.3574891090393	response	0	2		61.0	2.5	/experiments/knapen_aot/videos/R_S_yt-NqyG4Ar2JWo_10.mp4	0.0	250.9270191192627	
63	175.36566996574402	movie	1		301.0	61.0	2.5	/experiments/knapen_aot/videos/R_S_yt-NqyG4Ar2JWo_10.mp4	0.0	250.9351999759674	2.508329153060913
63	177.87399911880493	fix_post	2		12.0	61.0	2.5	/experiments/knapen_aot/videos/R_S_yt-NqyG4Ar2JWo_10.mp4	0.0	253.44352912902832	0.09999704360961914
64	177.97399616241455	fix_pre	0		27.0	62.0	2.5	blank	1.0	253.54352617263794	0.2250049114227295
64	178.19077706336975	response	0	2		62.0	2.5	blank	1.0	253.76030707359314	
64	178.19900107383728	movie	1		301.0	62.0	2.5	blank	1.0	253.76853108406067	2.508352041244507
64	180.7073531150818	fix_post	2		12.0	62.0	2.5	blank	1.0	256.2768831253052	0.09998297691345215
65	180.80733609199524	fix_pre	0		27.0	63.0	2.5	/experiments/knapen_aot/videos/S_yt-YCjbGOPBQHw_131.mp4	0.0	256.3768661022186	0.2249770164489746
65	181.02412104606628	response	0	2		63.0	2.5	/experiments/knapen_aot/videos/S_yt-YCjbGOPBQHw_131.mp4	0.0	256.5936510562897	
65	181.0323131084442	movie	1		301.0	63.0	2.5	/experiments/knapen_aot/videos/S_yt-YCjbGOPBQHw_131.mp4	0.0	256.6018431186676	2.508316993713379
65	183.5406301021576	fix_post	2		12.0	63.0	2.5	/experiments/knapen_aot/videos/S_yt-YCjbGOPBQHw_131.mp4	0.0	259.110160112381	0.09998798370361328
66	183.6406180858612	fix_pre	0		11.0	64.0	2.5	/experiments/knapen_aot/videos/R_S_pexels-mikhail-nilov-8410084.mp4	0.0	259.2101480960846	0.0926508903503418
66	183.7241280078888	response	0	2		64.0	2.5	/experiments/knapen_aot/videos/R_S_pexels-mikhail-nilov-8410084.mp4	0.0	259.2936580181122	
66	183.73326897621155	movie	1		165.0	64.0	2.5	/experiments/knapen_aot/videos/R_S_pexels-mikhail-nilov-8410084.mp4	0.0	259.30279898643494	2.507349967956543
66	186.2406189441681	fix_post	2		12.0	64.0	2.5	/experiments/knapen_aot/videos/R_S_pexels-mikhail-nilov-8410084.mp4	0.0	261.8101489543915	0.10001015663146973
67	186.34062910079956	fix_pre	0		14.0	65.0	2.5	/experiments/knapen_aot/videos/S_yt-qurTr1BJMec_244.mp4	0.0	261.91015911102295	0.11659383773803711
67	186.449068069458	response	0	2		65.0	2.5	/experiments/knapen_aot/videos/S_yt-qurTr1BJMec_244.mp4	0.0	262.0185980796814	
67	186.4572229385376	movie	1		301.0	65.0	2.5	/experiments/knapen_aot/videos/S_yt-qurTr1BJMec_244.mp4	0.0	262.026752948761	2.50834321975708
67	188.96556615829468	fix_post	2		12.0	65.0	2.5	/experiments/knapen_aot/videos/S_yt-qurTr1BJMec_244.mp4	0.0	264.53509616851807	0.10000395774841309
68	189.0655701160431	fix_pre	0		34.0	66.0	2.5	/experiments/knapen_aot/videos/S_yt-FhnT_42bV7M_11.mp4	0.0	264.6351001262665	0.2833249568939209
68	189.34068202972412	response	0	2		66.0	2.5	/experiments/knapen_aot/videos/S_yt-FhnT_42bV7M_11.mp4	0.0	264.9102120399475	
68	189.348895072937	movie	1		301.0	66.0	2.5	/experiments/knapen_aot/videos/S_yt-FhnT_42bV7M_11.mp4	0.0	264.9184250831604	2.508357048034668
68	191.85725212097168	fix_post	2		12.0	66.0	2.5	/experiments/knapen_aot/videos/S_yt-FhnT_42bV7M_11.mp4	0.0	267.42678213119507	0.09998703002929688
69	191.95723915100098	fix_pre	0		7.0	67.0	2.5	/experiments/knapen_aot/videos/R_S_video_inspire_oregon_lone-ranch-beach_00021.1080-h264.mp4	0.0	267.52676916122437	0.058313846588134766
69	192.00740098953247	response	0	2		67.0	2.5	/experiments/knapen_aot/videos/R_S_video_inspire_oregon_lone-ranch-beach_00021.1080-h264.mp4	0.0	267.57693099975586	
69	192.0155529975891	movie	1		166.0	67.0	2.5	/experiments/knapen_aot/videos/R_S_video_inspire_oregon_lone-ranch-beach_00021.1080-h264.mp4	0.0	267.5850830078125	2.508291006088257
69	194.52384400367737	fix_post	2		12.0	67.0	2.5	/experiments/knapen_aot/videos/R_S_video_inspire_oregon_lone-ranch-beach_00021.1080-h264.mp4	0.0	270.09337401390076	0.10004806518554688
70	194.62389206886292	fix_pre	0		66.0	68.0	2.5	/experiments/knapen_aot/videos/S_yt-NLfzvAJgyJ4_120.mp4	0.0	270.1934220790863	0.5512969493865967
70	195.16570401191711	response	0	2		68.0	2.5	/experiments/knapen_aot/videos/S_yt-NLfzvAJgyJ4_120.mp4	0.0	270.7352340221405	
70	195.1751890182495	movie	1		299.0	68.0	2.5	/experiments/knapen_aot/videos/S_yt-NLfzvAJgyJ4_120.mp4	0.0	270.7447190284729	2.507020950317383
70	197.6822099685669	fix_post	2		12.0	68.0	2.5	/experiments/knapen_aot/videos/S_yt-NLfzvAJgyJ4_120.mp4	0.0	273.2517399787903	0.09998798370361328
71	197.7821979522705	fix_pre	0		46.0	69.0	2.5	blank	1.0	273.3517279624939	0.3833761215209961
71	198.15733695030212	response	0	2		69.0	2.5	blank	1.0	273.7268669605255	
71	198.1655740737915	movie	1		301.0	69.0	2.5	blank	1.0	273.7351040840149	2.5082409381866455
71	200.67381501197815	fix_post	2		12.0	69.0	2.5	blank	1.0	276.24334502220154	0.09999513626098633
72	200.77381014823914	fix_pre	0		28.0	70.0	2.5	/experiments/knapen_aot/videos/S_yt_R-SwXr0ScjD9o_20.mp4	0.0	276.3433401584625	0.2333979606628418
72	200.99148106575012	response	0	2		70.0	2.5	/experiments/knapen_aot/videos/S_yt_R-SwXr0ScjD9o_20.mp4	0.0	276.5610110759735	
72	201.00720810890198	movie	1		301.0	70.0	2.5	/experiments/knapen_aot/videos/S_yt_R-SwXr0ScjD9o_20.mp4	0.0	276.57673811912537	2.5083680152893066
72	203.51557612419128	fix_post	2		12.0	70.0	2.5	/experiments/knapen_aot/videos/S_yt_R-SwXr0ScjD9o_20.mp4	0.0	279.0851061344147	0.09999299049377441
73	203.61556911468506	fix_pre	0		32.0	71.0	2.5	/experiments/knapen_aot/videos/S_yt-4r-oovk9JWg_85.mp4	0.0	279.18509912490845	0.2665858268737793
73	203.8740429878235	response	0	2		71.0	2.5	/experiments/knapen_aot/videos/S_yt-4r-oovk9JWg_85.mp4	0.0	279.4435729980469	
73	203.88215494155884	movie	1		301.0	71.0	2.5	/experiments/knapen_aot/videos/S_yt-4r-oovk9JWg_85.mp4	0.0	279.4516849517822	2.5083980560302734
73	206.3905529975891	fix_post	2		12.0	71.0	2.5	/experiments/knapen_aot/videos/S_yt-4r-oovk9JWg_85.mp4	0.0	281.9600830078125	0.10001707077026367
74	206.49057006835938	fix_pre	0		16.0	72.0	2.5	/experiments/knapen_aot/videos/S_comp_LA_A006_C004_v01_SDR_FINAL_PS_20180730_SDR_2K_AVC.mp4	0.0	282.06010007858276	0.13330507278442383
74	206.6080801486969	response	0	2		72.0	2.5	/experiments/knapen_aot/videos/S_comp_LA_A006_C004_v01_SDR_FINAL_PS_20180730_SDR_2K_AVC.mp4	0.0	282.1776101589203	
74	206.6238751411438	movie	1		167.0	72.0	2.5	/experiments/knapen_aot/videos/S_comp_LA_A006_C004_v01_SDR_FINAL_PS_20180730_SDR_2K_AVC.mp4	0.0	282.1934051513672	2.508309841156006
74	209.1321849822998	fix_post	2		12.0	72.0	2.5	/experiments/knapen_aot/videos/S_comp_LA_A006_C004_v01_SDR_FINAL_PS_20180730_SDR_2K_AVC.mp4	0.0	284.7017149925232	0.10001611709594727
75	209.23220109939575	fix_pre	0		24.0	73.0	2.5	/experiments/knapen_aot/videos/S_g201_WH_D004_L014_SDR_20191031_SDR_2K_AVC.mp4	0.0	284.80173110961914	0.20000004768371582
75	209.4240210056305	response	0	2		73.0	2.5	/experiments/knapen_aot/videos/S_g201_WH_D004_L014_SDR_20191031_SDR_2K_AVC.mp4	0.0	284.9935510158539	
75	209.43220114707947	movie	1		164.0	73.0	2.5	/experiments/knapen_aot/videos/S_g201_WH_D004_L014_SDR_20191031_SDR_2K_AVC.mp4	0.0	285.00173115730286	2.5083439350128174
75	211.94054508209229	fix_post	2		12.0	73.0	2.5	/experiments/knapen_aot/videos/S_g201_WH_D004_L014_SDR_20191031_SDR_2K_AVC.mp4	0.0	287.5100750923157	0.0999910831451416
76	212.04053616523743	fix_pre	0		12.0	74.0	2.5	/experiments/knapen_aot/videos/S_P006_C002_UHD_SDR_2K_AVC.mp4	0.0	287.6100661754608	0.09997081756591797
76	212.1322729587555	response	0	2		74.0	2.5	/experiments/knapen_aot/videos/S_P006_C002_UHD_SDR_2K_AVC.mp4	0.0	287.7018029689789	
76	212.14050698280334	movie	1		163.0	74.0	2.5	/experiments/knapen_aot/videos/S_P006_C002_UHD_SDR_2K_AVC.mp4	0.0	287.71003699302673	2.508289098739624
76	214.64879608154297	fix_post	2		12.0	74.0	2.5	/experiments/knapen_aot/videos/S_P006_C002_UHD_SDR_2K_AVC.mp4	0.0	290.21832609176636	0.1000819206237793
77	214.74887800216675	fix_pre	0		15.0	75.0	2.5	blank	1.0	290.31840801239014	0.1249849796295166
77	214.86562514305115	response	0	2		75.0	2.5	blank	1.0	290.43515515327454	
77	214.87386298179626	movie	1		300.0	75.0	2.5	blank	1.0	290.44339299201965	2.5000250339508057
77	217.36559796333313	response	1	2		75.0	2.5	blank	1.0	292.9351279735565	
77	217.37388801574707	fix_post	2		13.0	75.0	2.5	blank	1.0	292.94341802597046	0.10827302932739258
78	217.48216104507446	fix_pre	0		16.0	76.0	2.5	/experiments/knapen_aot/videos/R_S_yt-5AI_SyK5sg8_112.mp4	0.0	293.05169105529785	0.13329100608825684
78	217.6072380542755	response	0	2		76.0	2.5	/experiments/knapen_aot/videos/R_S_yt-5AI_SyK5sg8_112.mp4	0.0	293.1767680644989	
78	217.61545205116272	movie	1		301.0	76.0	2.5	/experiments/knapen_aot/videos/R_S_yt-5AI_SyK5sg8_112.mp4	0.0	293.1849820613861	2.508336067199707
78	220.12378811836243	fix_post	2		12.0	76.0	2.5	/experiments/knapen_aot/videos/R_S_yt-5AI_SyK5sg8_112.mp4	0.0	295.6933181285858	0.09996390342712402
79	220.22375202178955	fix_pre	0		19.0	77.0	2.5	/experiments/knapen_aot/videos/S_pexels-anastasia-shuraeva-6014070.mp4	0.0	295.79328203201294	0.1583559513092041
79	220.37394213676453	response	0	2		77.0	2.5	/experiments/knapen_aot/videos/S_pexels-anastasia-shuraeva-6014070.mp4	0.0	295.9434721469879	
79	220.38210797309875	movie	1		210.0	77.0	2.5	/experiments/knapen_aot/videos/S_pexels-anastasia-shuraeva-6014070.mp4	0.0	295.95163798332214	2.5082850456237793
79	222.89039301872253	fix_post	2		12.0	77.0	2.5	/experiments/knapen_aot/videos/S_pexels-anastasia-shuraeva-6014070.mp4	0.0	298.4599230289459	0.10004305839538574
79	222.95739698410034	response	2	2		77.0	2.5	/experiments/knapen_aot/videos/S_pexels-anastasia-shuraeva-6014070.mp4	0.0	298.52692699432373	
80	222.99043607711792	fix_pre	0		42.0	78.0	2.5	/experiments/knapen_aot/videos/R_S_yt-4NjyKFnwHBo_13.mp4	0.0	298.5599660873413	0.3499910831451416
80	223.3321671485901	response	0	2		78.0	2.5	/experiments/knapen_aot/videos/R_S_yt-4NjyKFnwHBo_13.mp4	0.0	298.9016971588135	
80	223.34042716026306	movie	1		301.0	78.0	2.5	/experiments/knapen_aot/videos/R_S_yt-4NjyKFnwHBo_13.mp4	0.0	298.90995717048645	2.508335828781128
80	225.8487629890442	fix_post	2		12.0	78.0	2.5	/experiments/knapen_aot/videos/R_S_yt-4NjyKFnwHBo_13.mp4	0.0	301.4182929992676	0.09993696212768555
81	225.94869995117188	fix_pre	0		22.0	79.0	2.5	/experiments/knapen_aot/videos/S_yt-2l6VKd94eAI_151.mp4	0.0	301.51822996139526	0.1833951473236084
81	226.12396097183228	response	0	2		79.0	2.5	/experiments/knapen_aot/videos/S_yt-2l6VKd94eAI_151.mp4	0.0	301.69349098205566	
81	226.13209509849548	movie	1		301.0	79.0	2.5	/experiments/knapen_aot/videos/S_yt-2l6VKd94eAI_151.mp4	0.0	301.7016251087189	2.5082690715789795
81	228.64036417007446	fix_post	2		12.0	79.0	2.5	/experiments/knapen_aot/videos/S_yt-2l6VKd94eAI_151.mp4	0.0	304.20989418029785	0.10005879402160645
82	228.74042296409607	fix_pre	0		6.0	80.0	2.5	/experiments/knapen_aot/videos/S_yt-BQixB0mumIk_169.mp4	0.0	304.30995297431946	0.04995298385620117
82	228.7821991443634	response	0	2		80.0	2.5	/experiments/knapen_aot/videos/S_yt-BQixB0mumIk_169.mp4	0.0	304.3517291545868	
82	228.79037594795227	movie	1		301.0	80.0	2.5	/experiments/knapen_aot/videos/S_yt-BQixB0mumIk_169.mp4	0.0	304.35990595817566	2.5082931518554688
82	231.29866909980774	fix_post	2		12.0	80.0	2.5	/experiments/knapen_aot/videos/S_yt-BQixB0mumIk_169.mp4	0.0	306.8681991100311	0.10005593299865723
83	231.3987250328064	fix_pre	0		6.0	81.0	2.5	/experiments/knapen_aot/videos/R_S_yt-738MRS0yI6g_177.mp4	0.0	306.9682550430298	0.05009198188781738
83	231.44165515899658	response	0	2		81.0	2.5	/experiments/knapen_aot/videos/R_S_yt-738MRS0yI6g_177.mp4	0.0	307.01118516921997	
83	231.4488170146942	movie	1		301.0	81.0	2.5	/experiments/knapen_aot/videos/R_S_yt-738MRS0yI6g_177.mp4	0.0	307.0183470249176	2.5082619190216064
83	233.95707893371582	fix_post	2		12.0	81.0	2.5	/experiments/knapen_aot/videos/R_S_yt-738MRS0yI6g_177.mp4	0.0	309.5266089439392	0.10008001327514648
84	234.05715894699097	fix_pre	0		16.0	82.0	2.5	/experiments/knapen_aot/videos/S_ILSVRC2015_train_00594001.mp4	0.0	309.62668895721436	0.1339402198791504
84	234.18209505081177	response	0	2		82.0	2.5	/experiments/knapen_aot/videos/S_ILSVRC2015_train_00594001.mp4	0.0	309.75162506103516	
84	234.19109916687012	movie	1		299.0	82.0	2.5	/experiments/knapen_aot/videos/S_ILSVRC2015_train_00594001.mp4	0.0	309.7606291770935	2.507584810256958
84	236.69868397712708	fix_post	2		12.0	82.0	2.5	/experiments/knapen_aot/videos/S_ILSVRC2015_train_00594001.mp4	0.0	312.26821398735046	0.10002899169921875
84	236.77466011047363	response	2	2		82.0	2.5	/experiments/knapen_aot/videos/S_ILSVRC2015_train_00594001.mp4	0.0	312.344190120697	
85	236.7987129688263	fix_pre	0		99.0	83.0	2.5	blank	1.0	312.3682429790497	0.8250260353088379
85	237.6154079437256	response	0	2		83.0	2.5	blank	1.0	313.184937953949	
85	237.62373900413513	movie	1		301.0	83.0	2.5	blank	1.0	313.1932690143585	2.508305072784424
85	240.13204407691956	fix_post	2		12.0	83.0	2.5	blank	1.0	315.70157408714294	0.10079789161682129
87	240.23284196853638	stim	0		319.0					315.80237197875977	2.657510995864868
87	240.49892401695251	response	0	2						316.0684540271759	
87	242.0041229724884	response	0	return						317.5736529827118	
87	242.88215899467468	response	0	space						318.45168900489807	
