trial_nr	onset	event_type	phase	response	nr_frames	movie_index	movie_duration	movie_file	blank	onset_abs	duration
0	0.1388540267944336	stim	0		60.0					71.59049201011658	0.49997901916503906
0	0.6300139427185059	response	0	space						72.08165192604065	
1	0.6388330459594727	stim	0		121.0					72.09047102928162	1.0073249340057373
1	1.64615797996521	stim	1		120.0					73.09779596328735	0.9999630451202393
1	2.605545997619629	response	1	space						74.05718398094177	
2	2.646121025085449	fix_pre	0		87.0	0.0	2.5	/experiments/knapen_aot/videos/R_S_wc-ZZxbTv7oc5DQ_10.mp4	0.0	74.09775900840759	0.7250709533691406
2	3.362982988357544	response	0	space		0.0	2.5	/experiments/knapen_aot/videos/R_S_wc-ZZxbTv7oc5DQ_10.mp4	0.0	74.81462097167969	
2	3.37119197845459	movie	1		165.0	0.0	2.5	/experiments/knapen_aot/videos/R_S_wc-ZZxbTv7oc5DQ_10.mp4	0.0	74.82282996177673	2.5083248615264893
2	5.879516839981079	fix_post	2		12.0	0.0	2.5	/experiments/knapen_aot/videos/R_S_wc-ZZxbTv7oc5DQ_10.mp4	0.0	77.33115482330322	0.10018014907836914
3	5.979696989059448	fix_pre	0		37.0	1.0	2.5	/experiments/knapen_aot/videos/R_S_yt-JpOBXV46TLE_124.mp4	0.0	77.43133497238159	0.3115558624267578
3	6.283328056335449	response	0	2		1.0	2.5	/experiments/knapen_aot/videos/R_S_yt-JpOBXV46TLE_124.mp4	0.0	77.73496603965759	
3	6.291252851486206	movie	1		300.0	1.0	2.5	/experiments/knapen_aot/videos/R_S_yt-JpOBXV46TLE_124.mp4	0.0	77.74289083480835	2.5049431324005127
3	8.796195983886719	fix_post	2		12.0	1.0	2.5	/experiments/knapen_aot/videos/R_S_yt-JpOBXV46TLE_124.mp4	0.0	80.24783396720886	0.0999610424041748
4	8.896157026290894	fix_pre	0		17.0	2.0	2.5	/experiments/knapen_aot/videos/R_S_yt-RO4mhuXBVrY_67.mp4	0.0	80.34779500961304	0.14171791076660156
4	9.029661893844604	response	0	2		2.0	2.5	/experiments/knapen_aot/videos/R_S_yt-RO4mhuXBVrY_67.mp4	0.0	80.48129987716675	
4	9.037874937057495	movie	1		301.0	2.0	2.5	/experiments/knapen_aot/videos/R_S_yt-RO4mhuXBVrY_67.mp4	0.0	80.48951292037964	2.5082499980926514
4	11.546124935150146	fix_post	2		12.0	2.0	2.5	/experiments/knapen_aot/videos/R_S_yt-RO4mhuXBVrY_67.mp4	0.0	82.99776291847229	0.09995412826538086
5	11.646079063415527	fix_pre	0		20.0	3.0	2.5	/experiments/knapen_aot/videos/S_yt-z68VLDDCFdw_93.mp4	0.0	83.09771704673767	0.1667327880859375
5	11.79711103439331	response	0	2		3.0	2.5	/experiments/knapen_aot/videos/S_yt-z68VLDDCFdw_93.mp4	0.0	83.24874901771545	
5	11.812811851501465	movie	1		301.0	3.0	2.5	/experiments/knapen_aot/videos/S_yt-z68VLDDCFdw_93.mp4	0.0	83.26444983482361	2.5082831382751465
5	14.321094989776611	fix_post	2		12.0	3.0	2.5	/experiments/knapen_aot/videos/S_yt-z68VLDDCFdw_93.mp4	0.0	85.77273297309875	0.10004186630249023
6	14.421136856079102	fix_pre	0		25.0	4.0	2.5	/experiments/knapen_aot/videos/S_yt-JpOBXV46TLE_124.mp4	0.0	85.87277483940125	0.20828819274902344
6	14.621316909790039	response	0	2		4.0	2.5	/experiments/knapen_aot/videos/S_yt-JpOBXV46TLE_124.mp4	0.0	86.07295489311218	
6	14.629425048828125	movie	1		301.0	4.0	2.5	/experiments/knapen_aot/videos/S_yt-JpOBXV46TLE_124.mp4	0.0	86.08106303215027	2.508359909057617
6	17.137784957885742	fix_post	2		12.0	4.0	2.5	/experiments/knapen_aot/videos/S_yt-JpOBXV46TLE_124.mp4	0.0	88.58942294120789	0.10006308555603027
7	17.237848043441772	fix_pre	0		16.0	5.0	2.5	blank	1.0	88.68948602676392	0.13327383995056152
7	17.362937927246094	response	0	2		5.0	2.5	blank	1.0	88.81457591056824	
7	17.371121883392334	movie	1		301.0	5.0	2.5	blank	1.0	88.82275986671448	2.508334159851074
7	19.879456043243408	fix_post	2		12.0	5.0	2.5	blank	1.0	91.33109402656555	0.10002779960632324
8	19.97948384284973	fix_pre	0		19.0	6.0	2.5	/experiments/knapen_aot/videos/R_S_ILSVRC2015_train_00408000.mp4	0.0	91.43112182617188	0.15883612632751465
8	20.12957501411438	response	0	2		6.0	2.5	/experiments/knapen_aot/videos/R_S_ILSVRC2015_train_00408000.mp4	0.0	91.58121299743652	
8	20.138319969177246	movie	1		301.0	6.0	2.5	/experiments/knapen_aot/videos/R_S_ILSVRC2015_train_00408000.mp4	0.0	91.58995795249939	2.5078818798065186
8	22.646201848983765	fix_post	2		12.0	6.0	2.5	/experiments/knapen_aot/videos/R_S_ILSVRC2015_train_00408000.mp4	0.0	94.09783983230591	0.09997820854187012
9	22.746180057525635	fix_pre	0		1.0	7.0	2.5	/experiments/knapen_aot/videos/R_S_yt-Rqwi-Fk9IJQ_114.mp4	0.0	94.19781804084778	0.010807991027832031
9	22.747869968414307	response	0	2		7.0	2.5	/experiments/knapen_aot/videos/R_S_yt-Rqwi-Fk9IJQ_114.mp4	0.0	94.19950795173645	
9	22.756988048553467	movie	1		301.0	7.0	2.5	/experiments/knapen_aot/videos/R_S_yt-Rqwi-Fk9IJQ_114.mp4	0.0	94.20862603187561	2.505823850631714
9	25.26281189918518	fix_post	2		12.0	7.0	2.5	/experiments/knapen_aot/videos/R_S_yt-Rqwi-Fk9IJQ_114.mp4	0.0	96.71444988250732	0.09995102882385254
10	25.362762928009033	fix_pre	0		6.0	8.0	2.5	/experiments/knapen_aot/videos/S_yt-uE9XoCLZlFo_1.mp4	0.0	96.81440091133118	0.05005311965942383
10	25.404645919799805	response	0	2		8.0	2.5	/experiments/knapen_aot/videos/S_yt-uE9XoCLZlFo_1.mp4	0.0	96.85628390312195	
10	25.412816047668457	movie	1		301.0	8.0	2.5	/experiments/knapen_aot/videos/S_yt-uE9XoCLZlFo_1.mp4	0.0	96.8644540309906	2.5083189010620117
10	27.92113494873047	fix_post	2		12.0	8.0	2.5	/experiments/knapen_aot/videos/S_yt-uE9XoCLZlFo_1.mp4	0.0	99.37277293205261	0.09997701644897461
11	28.021111965179443	fix_pre	0		11.0	9.0	2.5	/experiments/knapen_aot/videos/S_yt-iHmshS63rBc_329.mp4	0.0	99.47274994850159	0.09160590171813965
11	28.104639053344727	response	0	2		9.0	2.5	/experiments/knapen_aot/videos/S_yt-iHmshS63rBc_329.mp4	0.0	99.55627703666687	
11	28.112717866897583	movie	1		301.0	9.0	2.5	/experiments/knapen_aot/videos/S_yt-iHmshS63rBc_329.mp4	0.0	99.56435585021973	2.5083889961242676
11	30.62110686302185	fix_post	2		12.0	9.0	2.5	/experiments/knapen_aot/videos/S_yt-iHmshS63rBc_329.mp4	0.0	102.072744846344	0.10004901885986328
12	30.721155881881714	fix_pre	0		29.0	10.0	2.5	/experiments/knapen_aot/videos/S_ux8Mvi8P16k_168.mp4	0.0	102.17279386520386	0.24163103103637695
12	30.954602003097534	response	0	2		10.0	2.5	/experiments/knapen_aot/videos/S_ux8Mvi8P16k_168.mp4	0.0	102.40623998641968	
12	30.96278691291809	movie	1		301.0	10.0	2.5	/experiments/knapen_aot/videos/S_ux8Mvi8P16k_168.mp4	0.0	102.41442489624023	2.5082969665527344
12	33.471083879470825	fix_post	2		12.0	10.0	2.5	/experiments/knapen_aot/videos/S_ux8Mvi8P16k_168.mp4	0.0	104.92272186279297	0.09993314743041992
12	33.562922954559326	response	2	2		10.0	2.5	/experiments/knapen_aot/videos/S_ux8Mvi8P16k_168.mp4	0.0	105.01456093788147	
13	33.571017026901245	fix_pre	0		47.0	11.0	2.5	/experiments/knapen_aot/videos/S_yt-MsSEF0krKE4_149.mp4	0.0	105.02265501022339	0.3917238712310791
13	33.954407930374146	response	0	2		11.0	2.5	/experiments/knapen_aot/videos/S_yt-MsSEF0krKE4_149.mp4	0.0	105.40604591369629	
13	33.962740898132324	movie	1		301.0	11.0	2.5	/experiments/knapen_aot/videos/S_yt-MsSEF0krKE4_149.mp4	0.0	105.41437888145447	2.5083160400390625
13	36.47105693817139	fix_post	2		12.0	11.0	2.5	/experiments/knapen_aot/videos/S_yt-MsSEF0krKE4_149.mp4	0.0	107.92269492149353	0.10001802444458008
14	36.57107496261597	fix_pre	0		43.0	12.0	2.5	/experiments/knapen_aot/videos/R_S_yt-28ODBE9bVh0_44.mp4	0.0	108.02271294593811	0.35877394676208496
14	36.92122793197632	response	0	2		12.0	2.5	/experiments/knapen_aot/videos/R_S_yt-28ODBE9bVh0_44.mp4	0.0	108.37286591529846	
14	36.92984890937805	movie	1		300.0	12.0	2.5	/experiments/knapen_aot/videos/R_S_yt-28ODBE9bVh0_44.mp4	0.0	108.3814868927002	2.5078940391540527
14	39.437742948532104	fix_post	2		12.0	12.0	2.5	/experiments/knapen_aot/videos/R_S_yt-28ODBE9bVh0_44.mp4	0.0	110.88938093185425	0.09996509552001953
15	39.537708044052124	fix_pre	0		22.0	13.0	2.5	/experiments/knapen_aot/videos/S_BO_A014_C023_SDR_20190717_F240F3709_SDR_2K_AVC.mp4	0.0	110.98934602737427	0.1837329864501953
15	39.712862968444824	response	0	2		13.0	2.5	/experiments/knapen_aot/videos/S_BO_A014_C023_SDR_20190717_F240F3709_SDR_2K_AVC.mp4	0.0	111.16450095176697	
15	39.72144103050232	movie	1		169.0	13.0	2.5	/experiments/knapen_aot/videos/S_BO_A014_C023_SDR_20190717_F240F3709_SDR_2K_AVC.mp4	0.0	111.17307901382446	2.507938861846924
15	42.22937989234924	fix_post	2		12.0	13.0	2.5	/experiments/knapen_aot/videos/S_BO_A014_C023_SDR_20190717_F240F3709_SDR_2K_AVC.mp4	0.0	113.68101787567139	0.10002303123474121
16	42.329402923583984	fix_pre	0		25.0	14.0	2.5	blank	1.0	113.78104090690613	0.20832014083862305
16	42.5293710231781	response	0	2		14.0	2.5	blank	1.0	113.98100900650024	
16	42.53772306442261	movie	1		301.0	14.0	2.5	blank	1.0	113.98936104774475	2.5083048343658447
16	45.04602789878845	fix_post	2		12.0	14.0	2.5	blank	1.0	116.4976658821106	0.10002613067626953
17	45.14605402946472	fix_pre	0		33.0	15.0	2.5	/experiments/knapen_aot/videos/R_S_yt-ThT8utBaywI_68.mp4	0.0	116.59769201278687	0.27495789527893066
17	45.412834882736206	response	0	2		15.0	2.5	/experiments/knapen_aot/videos/R_S_yt-ThT8utBaywI_68.mp4	0.0	116.86447286605835	
17	45.42101192474365	movie	1		301.0	15.0	2.5	/experiments/knapen_aot/videos/R_S_yt-ThT8utBaywI_68.mp4	0.0	116.8726499080658	2.508297920227051
17	47.9293098449707	fix_post	2		12.0	15.0	2.5	/experiments/knapen_aot/videos/R_S_yt-ThT8utBaywI_68.mp4	0.0	119.38094782829285	0.09994316101074219
18	48.029253005981445	fix_pre	0		34.0	16.0	2.5	/experiments/knapen_aot/videos/R_S_ILSVRC2015_train_00339001.mp4	0.0	119.48089098930359	0.28340792655944824
18	48.30451798439026	response	0	2		16.0	2.5	/experiments/knapen_aot/videos/R_S_ILSVRC2015_train_00339001.mp4	0.0	119.7561559677124	
18	48.312660932540894	movie	1		301.0	16.0	2.5	/experiments/knapen_aot/videos/R_S_ILSVRC2015_train_00339001.mp4	0.0	119.76429891586304	2.508363962173462
18	50.821024894714355	fix_post	2		12.0	16.0	2.5	/experiments/knapen_aot/videos/R_S_ILSVRC2015_train_00339001.mp4	0.0	122.2726628780365	0.099945068359375
19	50.92096996307373	fix_pre	0		65.0	17.0	2.5	/experiments/knapen_aot/videos/S_yt-utYnOeoj2Rw_3.mp4	0.0	122.37260794639587	0.5416970252990723
19	51.454375982284546	response	0	2		17.0	2.5	/experiments/knapen_aot/videos/S_yt-utYnOeoj2Rw_3.mp4	0.0	122.90601396560669	
19	51.4626669883728	movie	1		301.0	17.0	2.5	/experiments/knapen_aot/videos/S_yt-utYnOeoj2Rw_3.mp4	0.0	122.91430497169495	2.508342981338501
19	53.971009969711304	fix_post	2		12.0	17.0	2.5	/experiments/knapen_aot/videos/S_yt-utYnOeoj2Rw_3.mp4	0.0	125.42264795303345	0.09998297691345215
20	54.070992946624756	fix_pre	0		21.0	18.0	2.5	/experiments/knapen_aot/videos/R_S_yt-9EnchawJ3pA_90.mp4	0.0	125.5226309299469	0.1749870777130127
20	54.23780703544617	response	0	2		18.0	2.5	/experiments/knapen_aot/videos/R_S_yt-9EnchawJ3pA_90.mp4	0.0	125.68944501876831	
20	54.24598002433777	movie	1		301.0	18.0	2.5	/experiments/knapen_aot/videos/R_S_yt-9EnchawJ3pA_90.mp4	0.0	125.69761800765991	2.5082929134368896
20	56.75427293777466	fix_post	2		12.0	18.0	2.5	/experiments/knapen_aot/videos/R_S_yt-9EnchawJ3pA_90.mp4	0.0	128.2059109210968	0.09998297691345215
21	56.85425591468811	fix_pre	0		23.0	19.0	2.5	/experiments/knapen_aot/videos/R_S_yt-6vkiJedss6g_5.mp4	0.0	128.30589389801025	0.19172310829162598
21	57.03774094581604	response	0	2		19.0	2.5	/experiments/knapen_aot/videos/R_S_yt-6vkiJedss6g_5.mp4	0.0	128.48937892913818	
21	57.045979022979736	movie	1		301.0	19.0	2.5	/experiments/knapen_aot/videos/R_S_yt-6vkiJedss6g_5.mp4	0.0	128.49761700630188	2.508302927017212
21	59.55428194999695	fix_post	2		12.0	19.0	2.5	/experiments/knapen_aot/videos/R_S_yt-6vkiJedss6g_5.mp4	0.0	131.0059199333191	0.10001802444458008
22	59.65429997444153	fix_pre	0		26.0	20.0	2.5	/experiments/knapen_aot/videos/S_yt-GBt59U0KUR0_6.mp4	0.0	131.10593795776367	0.21663808822631836
22	59.86280298233032	response	0	2		20.0	2.5	/experiments/knapen_aot/videos/S_yt-GBt59U0KUR0_6.mp4	0.0	131.31444096565247	
22	59.87093806266785	movie	1		301.0	20.0	2.5	/experiments/knapen_aot/videos/S_yt-GBt59U0KUR0_6.mp4	0.0	131.32257604599	2.5083367824554443
22	62.37927484512329	fix_post	2		12.0	20.0	2.5	/experiments/knapen_aot/videos/S_yt-GBt59U0KUR0_6.mp4	0.0	133.83091282844543	0.10004115104675293
23	62.479315996170044	fix_pre	0		17.0	21.0	2.5	blank	1.0	133.9309539794922	0.14158296585083008
23	62.61271095275879	response	0	2		21.0	2.5	blank	1.0	134.06434893608093	
23	62.620898962020874	movie	1		301.0	21.0	2.5	blank	1.0	134.07253694534302	2.508380889892578
23	65.12927985191345	fix_post	2		12.0	21.0	2.5	blank	1.0	136.5809178352356	0.09997916221618652
24	65.22925901412964	fix_pre	0		20.0	22.0	2.5	/experiments/knapen_aot/videos/S_yt-V_2XgfjJfeQ_67.mp4	0.0	136.68089699745178	0.16669988632202148
24	65.38765287399292	response	0	2		22.0	2.5	/experiments/knapen_aot/videos/S_yt-V_2XgfjJfeQ_67.mp4	0.0	136.83929085731506	
24	65.39595890045166	movie	1		301.0	22.0	2.5	/experiments/knapen_aot/videos/S_yt-V_2XgfjJfeQ_67.mp4	0.0	136.8475968837738	2.5082621574401855
24	67.90422105789185	fix_post	2		12.0	22.0	2.5	/experiments/knapen_aot/videos/S_yt-V_2XgfjJfeQ_67.mp4	0.0	139.355859041214	0.10008096694946289
25	68.00430202484131	fix_pre	0		18.0	23.0	2.5	/experiments/knapen_aot/videos/R_S_wc-NVeGRb_y_y_5_36.mp4	0.0	139.45594000816345	0.14989686012268066
25	68.14607000350952	response	0	2		23.0	2.5	/experiments/knapen_aot/videos/R_S_wc-NVeGRb_y_y_5_36.mp4	0.0	139.59770798683167	
25	68.15419888496399	movie	1		166.0	23.0	2.5	/experiments/knapen_aot/videos/R_S_wc-NVeGRb_y_y_5_36.mp4	0.0	139.60583686828613	2.5083789825439453
25	70.66257786750793	fix_post	2		12.0	23.0	2.5	/experiments/knapen_aot/videos/R_S_wc-NVeGRb_y_y_5_36.mp4	0.0	142.11421585083008	0.1004171371459961
26	70.76299500465393	fix_pre	0		6.0	24.0	2.5	/experiments/knapen_aot/videos/R_S_yt-QXsedpZh800_275.mp4	0.0	142.21463298797607	0.04954695701599121
26	70.80442595481873	response	0	2		24.0	2.5	/experiments/knapen_aot/videos/R_S_yt-QXsedpZh800_275.mp4	0.0	142.25606393814087	
26	70.81254196166992	movie	1		301.0	24.0	2.5	/experiments/knapen_aot/videos/R_S_yt-QXsedpZh800_275.mp4	0.0	142.26417994499207	2.508375883102417
26	73.32091784477234	fix_post	2		12.0	24.0	2.5	/experiments/knapen_aot/videos/R_S_yt-QXsedpZh800_275.mp4	0.0	144.77255582809448	0.10001921653747559
27	73.42093706130981	fix_pre	0		16.0	25.0	2.5	/experiments/knapen_aot/videos/S_yt-0lfSyC79n14_7.mp4	0.0	144.87257504463196	0.13365483283996582
27	73.5459508895874	response	0	2		25.0	2.5	/experiments/knapen_aot/videos/S_yt-0lfSyC79n14_7.mp4	0.0	144.99758887290955	
27	73.55459189414978	movie	1		301.0	25.0	2.5	/experiments/knapen_aot/videos/S_yt-0lfSyC79n14_7.mp4	0.0	145.00622987747192	2.5079891681671143
27	76.0625810623169	fix_post	2		12.0	25.0	2.5	/experiments/knapen_aot/videos/S_yt-0lfSyC79n14_7.mp4	0.0	147.51421904563904	0.09998178482055664
28	76.16256284713745	fix_pre	0		3.0	26.0	2.5	blank	1.0	147.6142008304596	0.02500009536743164
28	76.17942690849304	response	0	2		26.0	2.5	blank	1.0	147.63106489181519	
28	76.18756294250488	movie	1		301.0	26.0	2.5	blank	1.0	147.63920092582703	2.5083119869232178
28	78.6958749294281	fix_post	2		12.0	26.0	2.5	blank	1.0	150.14751291275024	0.10003304481506348
29	78.79590797424316	fix_pre	0		19.0	27.0	2.5	/experiments/knapen_aot/videos/R_S_yt-GbL63AmOIss_116.mp4	0.0	150.2475459575653	0.15834903717041016
29	78.94597506523132	response	0	2		27.0	2.5	/experiments/knapen_aot/videos/R_S_yt-GbL63AmOIss_116.mp4	0.0	150.39761304855347	
29	78.95425701141357	movie	1		301.0	27.0	2.5	/experiments/knapen_aot/videos/R_S_yt-GbL63AmOIss_116.mp4	0.0	150.40589499473572	2.5083189010620117
29	81.46257591247559	fix_post	2		12.0	27.0	2.5	/experiments/knapen_aot/videos/R_S_yt-GbL63AmOIss_116.mp4	0.0	152.91421389579773	0.10001111030578613
30	81.56258702278137	fix_pre	0		31.0	28.0	2.5	/experiments/knapen_aot/videos/S_ILSVRC2015_train_00743006.mp4	0.0	153.01422500610352	0.2582888603210449
30	81.8126950263977	response	0	2		28.0	2.5	/experiments/knapen_aot/videos/S_ILSVRC2015_train_00743006.mp4	0.0	153.26433300971985	
30	81.82087588310242	movie	1		301.0	28.0	2.5	/experiments/knapen_aot/videos/S_ILSVRC2015_train_00743006.mp4	0.0	153.27251386642456	2.508277177810669
30	84.32915306091309	fix_post	2		12.0	28.0	2.5	/experiments/knapen_aot/videos/S_ILSVRC2015_train_00743006.mp4	0.0	155.78079104423523	0.1002798080444336
31	84.42943286895752	fix_pre	0		47.0	29.0	2.5	/experiments/knapen_aot/videos/R_S_yt-9CY7rDYBYUI_40.mp4	0.0	155.88107085227966	0.3914220333099365
31	84.81268286705017	response	0	2		29.0	2.5	/experiments/knapen_aot/videos/R_S_yt-9CY7rDYBYUI_40.mp4	0.0	156.26432085037231	
31	84.82085490226746	movie	1		301.0	29.0	2.5	/experiments/knapen_aot/videos/R_S_yt-9CY7rDYBYUI_40.mp4	0.0	156.2724928855896	2.5083911418914795
31	87.32924604415894	fix_post	2		12.0	29.0	2.5	/experiments/knapen_aot/videos/R_S_yt-9CY7rDYBYUI_40.mp4	0.0	158.78088402748108	0.10011100769042969
32	87.42935705184937	fix_pre	0		26.0	30.0	2.5	/experiments/knapen_aot/videos/S_yt-ThT8utBaywI_68.mp4	0.0	158.8809950351715	0.21641182899475098
32	87.63762092590332	response	0	2		30.0	2.5	/experiments/knapen_aot/videos/S_yt-ThT8utBaywI_68.mp4	0.0	159.08925890922546	
32	87.64576888084412	movie	1		301.0	30.0	2.5	/experiments/knapen_aot/videos/S_yt-ThT8utBaywI_68.mp4	0.0	159.09740686416626	2.5083329677581787
32	90.1541018486023	fix_post	2		12.0	30.0	2.5	/experiments/knapen_aot/videos/S_yt-ThT8utBaywI_68.mp4	0.0	161.60573983192444	0.10006213188171387
33	90.25416398048401	fix_pre	0		25.0	31.0	2.5	/experiments/knapen_aot/videos/S_ILSVRC2015_train_00479001.mp4	0.0	161.70580196380615	0.20833587646484375
33	90.45430994033813	response	0	2		31.0	2.5	/experiments/knapen_aot/videos/S_ILSVRC2015_train_00479001.mp4	0.0	161.90594792366028	
33	90.46249985694885	movie	1		301.0	31.0	2.5	/experiments/knapen_aot/videos/S_ILSVRC2015_train_00479001.mp4	0.0	161.914137840271	2.5085229873657227
33	92.97102284431458	fix_post	2		12.0	31.0	2.5	/experiments/knapen_aot/videos/S_ILSVRC2015_train_00479001.mp4	0.0	164.42266082763672	0.09981703758239746
34	93.07083988189697	fix_pre	0		34.0	32.0	2.5	/experiments/knapen_aot/videos/S_yt-4BAsE47kJNk_88.mp4	0.0	164.52247786521912	0.2832951545715332
34	93.34598684310913	response	0	2		32.0	2.5	/experiments/knapen_aot/videos/S_yt-4BAsE47kJNk_88.mp4	0.0	164.79762482643127	
34	93.3541350364685	movie	1		301.0	32.0	2.5	/experiments/knapen_aot/videos/S_yt-4BAsE47kJNk_88.mp4	0.0	164.80577301979065	2.508363962173462
34	95.86249899864197	fix_post	2		12.0	32.0	2.5	/experiments/knapen_aot/videos/S_yt-4BAsE47kJNk_88.mp4	0.0	167.3141369819641	0.09993696212768555
35	95.96243596076965	fix_pre	0		28.0	33.0	2.5	/experiments/knapen_aot/videos/S_BO_A014_C023_SDR_20190717_F240F3709_SDR_2K_AVC.mp4	0.0	167.4140739440918	0.23338103294372559
35	96.18754291534424	response	0	2		33.0	2.5	/experiments/knapen_aot/videos/S_BO_A014_C023_SDR_20190717_F240F3709_SDR_2K_AVC.mp4	0.0	167.63918089866638	
35	96.19581699371338	movie	1		181.0	33.0	2.5	/experiments/knapen_aot/videos/S_BO_A014_C023_SDR_20190717_F240F3709_SDR_2K_AVC.mp4	0.0	167.64745497703552	2.508352041244507
35	98.70416903495789	fix_post	2		12.0	33.0	2.5	/experiments/knapen_aot/videos/S_BO_A014_C023_SDR_20190717_F240F3709_SDR_2K_AVC.mp4	0.0	170.15580701828003	0.10017800331115723
35	98.7376618385315	response	2	2		33.0	2.5	/experiments/knapen_aot/videos/S_BO_A014_C023_SDR_20190717_F240F3709_SDR_2K_AVC.mp4	0.0	170.18929982185364	
36	98.80434703826904	fix_pre	0		53.0	34.0	2.5	/experiments/knapen_aot/videos/R_S_8amznWxLS04_212.mp4	0.0	170.2559850215912	0.4414489269256592
36	99.2375898361206	response	0	2		34.0	2.5	/experiments/knapen_aot/videos/R_S_8amznWxLS04_212.mp4	0.0	170.68922781944275	
36	99.2457959651947	movie	1		300.0	34.0	2.5	/experiments/knapen_aot/videos/R_S_8amznWxLS04_212.mp4	0.0	170.69743394851685	2.5083560943603516
36	101.75415205955505	fix_post	2		12.0	34.0	2.5	/experiments/knapen_aot/videos/R_S_8amznWxLS04_212.mp4	0.0	173.2057900428772	0.1000058650970459
37	101.8541579246521	fix_pre	0		12.0	35.0	2.5	blank	1.0	173.30579590797424	0.09996891021728516
37	101.94594097137451	response	0	2		35.0	2.5	blank	1.0	173.39757895469666	
37	101.95412683486938	movie	1		301.0	35.0	2.5	blank	1.0	173.40576481819153	2.5083160400390625
37	104.46244287490845	fix_post	2		12.0	35.0	2.5	blank	1.0	175.9140808582306	0.10000419616699219
38	104.56244707107544	fix_pre	0		20.0	36.0	2.5	/experiments/knapen_aot/videos/R_S_video_inspire_uk_edinburgh_arthursseat_010.1080-h264.mp4	0.0	176.01408505439758	0.1667029857635498
38	104.72089004516602	response	0	2		36.0	2.5	/experiments/knapen_aot/videos/R_S_video_inspire_uk_edinburgh_arthursseat_010.1080-h264.mp4	0.0	176.17252802848816	
38	104.72915005683899	movie	1		175.0	36.0	2.5	/experiments/knapen_aot/videos/R_S_video_inspire_uk_edinburgh_arthursseat_010.1080-h264.mp4	0.0	176.18078804016113	2.5082709789276123
38	107.2374210357666	fix_post	2		12.0	36.0	2.5	/experiments/knapen_aot/videos/R_S_video_inspire_uk_edinburgh_arthursseat_010.1080-h264.mp4	0.0	178.68905901908875	0.09999585151672363
39	107.33741688728333	fix_pre	0		100.0	37.0	2.5	/experiments/knapen_aot/videos/R_S_production_ID_3709168.mp4	0.0	178.78905487060547	0.8333990573883057
39	108.1625988483429	response	0	2		37.0	2.5	/experiments/knapen_aot/videos/R_S_production_ID_3709168.mp4	0.0	179.61423683166504	
39	108.17081594467163	movie	1		198.0	37.0	2.5	/experiments/knapen_aot/videos/R_S_production_ID_3709168.mp4	0.0	179.62245392799377	2.508455991744995
39	110.67927193641663	fix_post	2		12.0	37.0	2.5	/experiments/knapen_aot/videos/R_S_production_ID_3709168.mp4	0.0	182.13090991973877	0.09987902641296387
40	110.77915096282959	fix_pre	0		14.0	38.0	2.5	/experiments/knapen_aot/videos/R_S_yt-MyL1VlXiZa4_25.mp4	0.0	182.23078894615173	0.11663603782653809
40	110.88755202293396	response	0	2		38.0	2.5	/experiments/knapen_aot/videos/R_S_yt-MyL1VlXiZa4_25.mp4	0.0	182.3391900062561	
40	110.89578700065613	movie	1		301.0	38.0	2.5	/experiments/knapen_aot/videos/R_S_yt-MyL1VlXiZa4_25.mp4	0.0	182.34742498397827	2.508328914642334
40	113.40411591529846	fix_post	2		12.0	38.0	2.5	/experiments/knapen_aot/videos/R_S_yt-MyL1VlXiZa4_25.mp4	0.0	184.8557538986206	0.0999140739440918
41	113.50402998924255	fix_pre	0		20.0	39.0	2.5	/experiments/knapen_aot/videos/R_S_ILSVRC2015_train_00538001.mp4	0.0	184.9556679725647	0.16666698455810547
41	113.66253995895386	response	0	2		39.0	2.5	/experiments/knapen_aot/videos/R_S_ILSVRC2015_train_00538001.mp4	0.0	185.114177942276	
41	113.67069697380066	movie	1		301.0	39.0	2.5	/experiments/knapen_aot/videos/R_S_ILSVRC2015_train_00538001.mp4	0.0	185.1223349571228	2.508420944213867
41	116.17911791801453	fix_post	2		12.0	39.0	2.5	/experiments/knapen_aot/videos/R_S_ILSVRC2015_train_00538001.mp4	0.0	187.63075590133667	0.09997797012329102
42	116.27909588813782	fix_pre	0		42.0	40.0	2.5	blank	1.0	187.73073387145996	0.34999704360961914
42	116.62088894844055	response	0	2		40.0	2.5	blank	1.0	188.0725269317627	
42	116.62909293174744	movie	1		301.0	40.0	2.5	blank	1.0	188.08073091506958	2.5083420276641846
42	119.13743495941162	fix_post	2		12.0	40.0	2.5	blank	1.0	190.58907294273376	0.09995293617248535
43	119.2373878955841	fix_pre	0		31.0	41.0	2.5	/experiments/knapen_aot/videos/S_yt-_7HJhRPVmHw_255.mp4	0.0	190.68902587890625	0.2582681179046631
43	119.4874529838562	response	0	2		41.0	2.5	/experiments/knapen_aot/videos/S_yt-_7HJhRPVmHw_255.mp4	0.0	190.93909096717834	
43	119.49565601348877	movie	1		301.0	41.0	2.5	/experiments/knapen_aot/videos/S_yt-_7HJhRPVmHw_255.mp4	0.0	190.9472939968109	2.5083470344543457
43	121.3624370098114	response	1	2		41.0	2.5	/experiments/knapen_aot/videos/S_yt-_7HJhRPVmHw_255.mp4	0.0	192.81407499313354	
43	122.00400304794312	fix_post	2		12.0	41.0	2.5	/experiments/knapen_aot/videos/S_yt-_7HJhRPVmHw_255.mp4	0.0	193.45564103126526	0.10006093978881836
44	122.10406398773193	fix_pre	0		56.0	42.0	2.5	/experiments/knapen_aot/videos/S_ILSVRC2015_train_00696000.mp4	0.0	193.55570197105408	0.46656203269958496
44	122.56251692771912	response	0	2		42.0	2.5	/experiments/knapen_aot/videos/S_ILSVRC2015_train_00696000.mp4	0.0	194.01415491104126	
44	122.57062602043152	movie	1		299.0	42.0	2.5	/experiments/knapen_aot/videos/S_ILSVRC2015_train_00696000.mp4	0.0	194.02226400375366	2.508415937423706
44	125.07904195785522	fix_post	2		12.0	42.0	2.5	/experiments/knapen_aot/videos/S_ILSVRC2015_train_00696000.mp4	0.0	196.53067994117737	0.1000070571899414
45	125.17904901504517	fix_pre	0		38.0	43.0	2.5	/experiments/knapen_aot/videos/R_S_yt-Dlk44AGz-xM_37.mp4	0.0	196.6306869983673	0.3166518211364746
45	125.48013091087341	response	0	2		43.0	2.5	/experiments/knapen_aot/videos/R_S_yt-Dlk44AGz-xM_37.mp4	0.0	196.93176889419556	
45	125.49570083618164	movie	1		301.0	43.0	2.5	/experiments/knapen_aot/videos/R_S_yt-Dlk44AGz-xM_37.mp4	0.0	196.94733881950378	2.508392095565796
45	126.89898705482483	response	1	2		43.0	2.5	/experiments/knapen_aot/videos/R_S_yt-Dlk44AGz-xM_37.mp4	0.0	198.35062503814697	
45	128.00409293174744	fix_post	2		12.0	43.0	2.5	/experiments/knapen_aot/videos/R_S_yt-Dlk44AGz-xM_37.mp4	0.0	199.45573091506958	0.09996294975280762
46	128.10405588150024	fix_pre	0		13.0	44.0	2.5	/experiments/knapen_aot/videos/R_S_yt-nlfwzxlwRfk_12.mp4	0.0	199.5556938648224	0.10834598541259766
46	128.2041609287262	response	0	2		44.0	2.5	/experiments/knapen_aot/videos/R_S_yt-nlfwzxlwRfk_12.mp4	0.0	199.65579891204834	
46	128.21240186691284	movie	1		301.0	44.0	2.5	/experiments/knapen_aot/videos/R_S_yt-nlfwzxlwRfk_12.mp4	0.0	199.66403985023499	2.508342981338501
46	130.72074484825134	fix_post	2		12.0	44.0	2.5	/experiments/knapen_aot/videos/R_S_yt-nlfwzxlwRfk_12.mp4	0.0	202.1723828315735	0.09995222091674805
47	130.8206970691681	fix_pre	0		27.0	45.0	2.5	/experiments/knapen_aot/videos/S_yt-QXsedpZh800_275.mp4	0.0	202.27233505249023	0.22501087188720703
47	131.03753089904785	response	0	2		45.0	2.5	/experiments/knapen_aot/videos/S_yt-QXsedpZh800_275.mp4	0.0	202.48916888237	
47	131.0457079410553	movie	1		300.0	45.0	2.5	/experiments/knapen_aot/videos/S_yt-QXsedpZh800_275.mp4	0.0	202.49734592437744	2.508297920227051
47	133.55400586128235	fix_post	2		12.0	45.0	2.5	/experiments/knapen_aot/videos/S_yt-QXsedpZh800_275.mp4	0.0	205.0056438446045	0.09998011589050293
48	133.65398597717285	fix_pre	0		30.0	46.0	2.5	/experiments/knapen_aot/videos/R_S_comp_1223LV_FLARE_v21_SDR_PS_FINAL_20180709_F0F5700_SDR_2K_AVC.mp4	0.0	205.105623960495	0.2500278949737549
48	133.88825798034668	response	0	2		46.0	2.5	/experiments/knapen_aot/videos/R_S_comp_1223LV_FLARE_v21_SDR_PS_FINAL_20180709_F0F5700_SDR_2K_AVC.mp4	0.0	205.33989596366882	
48	133.9040138721466	movie	1		168.0	46.0	2.5	/experiments/knapen_aot/videos/R_S_comp_1223LV_FLARE_v21_SDR_PS_FINAL_20180709_F0F5700_SDR_2K_AVC.mp4	0.0	205.35565185546875	2.5082571506500244
48	136.41227102279663	fix_post	2		12.0	46.0	2.5	/experiments/knapen_aot/videos/R_S_comp_1223LV_FLARE_v21_SDR_PS_FINAL_20180709_F0F5700_SDR_2K_AVC.mp4	0.0	207.86390900611877	0.10013103485107422
49	136.5124020576477	fix_pre	0		39.0	47.0	2.5	/experiments/knapen_aot/videos/S_yt-9CY7rDYBYUI_40.mp4	0.0	207.96404004096985	0.3262619972229004
49	136.8291049003601	response	0	2		47.0	2.5	/experiments/knapen_aot/videos/S_yt-9CY7rDYBYUI_40.mp4	0.0	208.28074288368225	
49	136.8386640548706	movie	1		301.0	47.0	2.5	/experiments/knapen_aot/videos/S_yt-9CY7rDYBYUI_40.mp4	0.0	208.29030203819275	2.5069639682769775
49	139.34562802314758	fix_post	2		12.0	47.0	2.5	/experiments/knapen_aot/videos/S_yt-9CY7rDYBYUI_40.mp4	0.0	210.79726600646973	0.10004782676696777
50	139.44567584991455	fix_pre	0		43.0	48.0	2.5	blank	1.0	210.8973138332367	0.35831713676452637
50	139.7957799434662	response	0	2		48.0	2.5	blank	1.0	211.24741792678833	
50	139.80399298667908	movie	1		301.0	48.0	2.5	blank	1.0	211.25563097000122	2.5082850456237793
50	142.31227803230286	fix_post	2		12.0	48.0	2.5	blank	1.0	213.763916015625	0.10015392303466797
51	142.41243195533752	fix_pre	0		27.0	49.0	2.5	/experiments/knapen_aot/videos/S_yt--Ra34zJ69AU_68.mp4	0.0	213.86406993865967	0.2248220443725586
51	142.6215410232544	response	0	2		49.0	2.5	/experiments/knapen_aot/videos/S_yt--Ra34zJ69AU_68.mp4	0.0	214.07317900657654	
51	142.63725399971008	movie	1		299.0	49.0	2.5	/experiments/knapen_aot/videos/S_yt--Ra34zJ69AU_68.mp4	0.0	214.08889198303223	2.5083959102630615
51	145.14564990997314	fix_post	2		12.0	49.0	2.5	/experiments/knapen_aot/videos/S_yt--Ra34zJ69AU_68.mp4	0.0	216.5972878932953	0.09997415542602539
52	145.24562406539917	fix_pre	0		28.0	50.0	2.5	/experiments/knapen_aot/videos/R_S_yt-MsSEF0krKE4_149.mp4	0.0	216.6972620487213	0.23324799537658691
52	145.47077298164368	response	0	2		50.0	2.5	/experiments/knapen_aot/videos/R_S_yt-MsSEF0krKE4_149.mp4	0.0	216.92241096496582	
52	145.47887206077576	movie	1		301.0	50.0	2.5	/experiments/knapen_aot/videos/R_S_yt-MsSEF0krKE4_149.mp4	0.0	216.9305100440979	2.50834584236145
52	147.9872179031372	fix_post	2		12.0	50.0	2.5	/experiments/knapen_aot/videos/R_S_yt-MsSEF0krKE4_149.mp4	0.0	219.43885588645935	0.10006308555603027
53	148.08728098869324	fix_pre	0		35.0	51.0	2.5	/experiments/knapen_aot/videos/R_S_PA_A001_C007_SDR_20190717_SDR_2K_AVC.mp4	0.0	219.53891897201538	0.2929270267486572
53	148.37075090408325	response	0	2		51.0	2.5	/experiments/knapen_aot/videos/R_S_PA_A001_C007_SDR_20190717_SDR_2K_AVC.mp4	0.0	219.8223888874054	
53	148.3802080154419	movie	1		169.0	51.0	2.5	/experiments/knapen_aot/videos/R_S_PA_A001_C007_SDR_20190717_SDR_2K_AVC.mp4	0.0	219.83184599876404	2.50703501701355
53	150.88724303245544	fix_post	2		12.0	51.0	2.5	/experiments/knapen_aot/videos/R_S_PA_A001_C007_SDR_20190717_SDR_2K_AVC.mp4	0.0	222.3388810157776	0.09999895095825195
54	150.9872419834137	fix_pre	0		14.0	52.0	2.5	/experiments/knapen_aot/videos/S_yt-4Qz0m5IYh10_167.mp4	0.0	222.43887996673584	0.1166079044342041
54	151.09575486183167	response	0	2		52.0	2.5	/experiments/knapen_aot/videos/S_yt-4Qz0m5IYh10_167.mp4	0.0	222.5473928451538	
54	151.1038498878479	movie	1		300.0	52.0	2.5	/experiments/knapen_aot/videos/S_yt-4Qz0m5IYh10_167.mp4	0.0	222.55548787117004	2.508371114730835
54	153.61222100257874	fix_post	2		12.0	52.0	2.5	/experiments/knapen_aot/videos/S_yt-4Qz0m5IYh10_167.mp4	0.0	225.06385898590088	0.09998703002929688
55	153.71220803260803	fix_pre	0		7.0	53.0	2.5	/experiments/knapen_aot/videos/R_S_BO_A014_C023_SDR_20190717_F240F3709_SDR_2K_AVC.mp4	0.0	225.16384601593018	0.058354854583740234
55	153.76237201690674	response	0	2		53.0	2.5	/experiments/knapen_aot/videos/R_S_BO_A014_C023_SDR_20190717_F240F3709_SDR_2K_AVC.mp4	0.0	225.21401000022888	
55	153.77056288719177	movie	1		169.0	53.0	2.5	/experiments/knapen_aot/videos/R_S_BO_A014_C023_SDR_20190717_F240F3709_SDR_2K_AVC.mp4	0.0	225.22220087051392	2.508366107940674
55	156.27892899513245	fix_post	2		12.0	53.0	2.5	/experiments/knapen_aot/videos/R_S_BO_A014_C023_SDR_20190717_F240F3709_SDR_2K_AVC.mp4	0.0	227.7305669784546	0.09997105598449707
56	156.37890005111694	fix_pre	0		22.0	54.0	2.5	/experiments/knapen_aot/videos/S_yt-Bx2kLEUuN0E_456.mp4	0.0	227.8305380344391	0.18330883979797363
56	156.55406093597412	response	0	2		54.0	2.5	/experiments/knapen_aot/videos/S_yt-Bx2kLEUuN0E_456.mp4	0.0	228.00569891929626	
56	156.56220889091492	movie	1		301.0	54.0	2.5	/experiments/knapen_aot/videos/S_yt-Bx2kLEUuN0E_456.mp4	0.0	228.01384687423706	2.508363962173462
56	159.07057285308838	fix_post	2		12.0	54.0	2.5	/experiments/knapen_aot/videos/S_yt-Bx2kLEUuN0E_456.mp4	0.0	230.52221083641052	0.09993600845336914
57	159.17050886154175	fix_pre	0		18.0	55.0	2.5	/experiments/knapen_aot/videos/R_S_yt-y2RUPYKfBZs_12.mp4	0.0	230.6221468448639	0.1500401496887207
57	159.31233191490173	response	0	2		55.0	2.5	/experiments/knapen_aot/videos/R_S_yt-y2RUPYKfBZs_12.mp4	0.0	230.76396989822388	
57	159.32054901123047	movie	1		300.0	55.0	2.5	/experiments/knapen_aot/videos/R_S_yt-y2RUPYKfBZs_12.mp4	0.0	230.7721869945526	2.508370876312256
57	161.82891988754272	fix_post	2		12.0	55.0	2.5	/experiments/knapen_aot/videos/R_S_yt-y2RUPYKfBZs_12.mp4	0.0	233.28055787086487	0.10018801689147949
58	161.9291079044342	fix_pre	0		19.0	56.0	2.5	blank	1.0	233.38074588775635	0.15812015533447266
58	162.07904291152954	response	0	2		56.0	2.5	blank	1.0	233.53068089485168	
58	162.08722805976868	movie	1		301.0	56.0	2.5	blank	1.0	233.53886604309082	2.5083417892456055
58	164.59556984901428	fix_post	2		12.0	56.0	2.5	blank	1.0	236.04720783233643	0.09996604919433594
59	164.69553589820862	fix_pre	0		57.0	57.0	2.5	/experiments/knapen_aot/videos/R_S_yt-iHmshS63rBc_329.mp4	0.0	236.14717388153076	0.47620606422424316
59	165.16231203079224	response	0	2		57.0	2.5	/experiments/knapen_aot/videos/R_S_yt-iHmshS63rBc_329.mp4	0.0	236.61395001411438	
59	165.17174196243286	movie	1		301.0	57.0	2.5	/experiments/knapen_aot/videos/R_S_yt-iHmshS63rBc_329.mp4	0.0	236.623379945755	2.507145881652832
59	167.6788878440857	fix_post	2		12.0	57.0	2.5	/experiments/knapen_aot/videos/R_S_yt-iHmshS63rBc_329.mp4	0.0	239.13052582740784	0.09990811347961426
60	167.7787959575653	fix_pre	0		25.0	58.0	2.5	/experiments/knapen_aot/videos/S_yt-82O1uT8dmv8_12.mp4	0.0	239.23043394088745	0.20836210250854492
60	167.97889590263367	response	0	2		58.0	2.5	/experiments/knapen_aot/videos/S_yt-82O1uT8dmv8_12.mp4	0.0	239.4305338859558	
60	167.98715806007385	movie	1		301.0	58.0	2.5	/experiments/knapen_aot/videos/S_yt-82O1uT8dmv8_12.mp4	0.0	239.438796043396	2.5083818435668945
60	170.49553990364075	fix_post	2		12.0	58.0	2.5	/experiments/knapen_aot/videos/S_yt-82O1uT8dmv8_12.mp4	0.0	241.9471778869629	0.09998703002929688
61	170.59552693367004	fix_pre	0		21.0	59.0	2.5	/experiments/knapen_aot/videos/R_S_ILSVRC2015_train_00696000.mp4	0.0	242.0471649169922	0.1749711036682129
61	170.76230001449585	response	0	2		59.0	2.5	/experiments/knapen_aot/videos/R_S_ILSVRC2015_train_00696000.mp4	0.0	242.213937997818	
61	170.77049803733826	movie	1		301.0	59.0	2.5	/experiments/knapen_aot/videos/R_S_ILSVRC2015_train_00696000.mp4	0.0	242.2221360206604	2.5083110332489014
61	173.27880907058716	fix_post	2		12.0	59.0	2.5	/experiments/knapen_aot/videos/R_S_ILSVRC2015_train_00696000.mp4	0.0	244.7304470539093	0.10016894340515137
62	173.3789780139923	fix_pre	0		3.0	60.0	2.5	/experiments/knapen_aot/videos/R_S_yt-jbvXEFk2Gyw_12.mp4	0.0	244.83061599731445	0.024850845336914062
62	173.3956859111786	response	0	2		60.0	2.5	/experiments/knapen_aot/videos/R_S_yt-jbvXEFk2Gyw_12.mp4	0.0	244.84732389450073	
62	173.40382885932922	movie	1		301.0	60.0	2.5	/experiments/knapen_aot/videos/R_S_yt-jbvXEFk2Gyw_12.mp4	0.0	244.85546684265137	2.5083491802215576
62	175.91217803955078	fix_post	2		12.0	60.0	2.5	/experiments/knapen_aot/videos/R_S_yt-jbvXEFk2Gyw_12.mp4	0.0	247.36381602287292	0.09996485710144043
63	176.01214289665222	fix_pre	0		49.0	61.0	2.5	blank	1.0	247.46378087997437	0.4082951545715332
63	176.41233801841736	response	0	2		61.0	2.5	blank	1.0	247.8639760017395	
63	176.42043805122375	movie	1		301.0	61.0	2.5	blank	1.0	247.8720760345459	2.508373975753784
63	178.92881202697754	fix_post	2		12.0	61.0	2.5	blank	1.0	250.38045001029968	0.09992289543151855
64	179.02873492240906	fix_pre	0		63.0	62.0	2.5	/experiments/knapen_aot/videos/R_S_yt-gPhlnZG-pRY_4.mp4	0.0	250.4803729057312	0.525068998336792
64	179.54561185836792	response	0	2		62.0	2.5	/experiments/knapen_aot/videos/R_S_yt-gPhlnZG-pRY_4.mp4	0.0	250.99724984169006	
64	179.55380392074585	movie	1		301.0	62.0	2.5	/experiments/knapen_aot/videos/R_S_yt-gPhlnZG-pRY_4.mp4	0.0	251.005441904068	2.5083329677581787
64	182.06213688850403	fix_post	2		12.0	62.0	2.5	/experiments/knapen_aot/videos/R_S_yt-gPhlnZG-pRY_4.mp4	0.0	253.51377487182617	0.09993600845336914
65	182.1620728969574	fix_pre	0		37.0	63.0	2.5	/experiments/knapen_aot/videos/S_yt-OFbbvxTLrtM_132.mp4	0.0	253.61371088027954	0.3083341121673584
65	182.46226501464844	response	0	2		63.0	2.5	/experiments/knapen_aot/videos/S_yt-OFbbvxTLrtM_132.mp4	0.0	253.91390299797058	
65	182.47040700912476	movie	1		301.0	63.0	2.5	/experiments/knapen_aot/videos/S_yt-OFbbvxTLrtM_132.mp4	0.0	253.9220449924469	2.5084688663482666
65	184.97887587547302	fix_post	2		12.0	63.0	2.5	/experiments/knapen_aot/videos/S_yt-OFbbvxTLrtM_132.mp4	0.0	256.43051385879517	0.09989213943481445
66	185.07876801490784	fix_pre	0		59.0	64.0	2.5	/experiments/knapen_aot/videos/R_S_yt-isJga8ec5UM_32.mp4	0.0	256.53040599823	0.49158787727355957
66	185.56229496002197	response	0	2		64.0	2.5	/experiments/knapen_aot/videos/R_S_yt-isJga8ec5UM_32.mp4	0.0	257.0139329433441	
66	185.5703558921814	movie	1		299.0	64.0	2.5	/experiments/knapen_aot/videos/R_S_yt-isJga8ec5UM_32.mp4	0.0	257.02199387550354	2.5083580017089844
66	188.07871389389038	fix_post	2		12.0	64.0	2.5	/experiments/knapen_aot/videos/R_S_yt-isJga8ec5UM_32.mp4	0.0	259.5303518772125	0.10003304481506348
67	188.17874693870544	fix_pre	0		42.0	65.0	2.5	/experiments/knapen_aot/videos/S_Pexels_Videos_278654_1.mp4	0.0	259.6303849220276	0.3500831127166748
67	188.52062106132507	response	0	2		65.0	2.5	/experiments/knapen_aot/videos/S_Pexels_Videos_278654_1.mp4	0.0	259.9722590446472	
67	188.52883005142212	movie	1		167.0	65.0	2.5	/experiments/knapen_aot/videos/S_Pexels_Videos_278654_1.mp4	0.0	259.98046803474426	2.5082809925079346
67	191.03711104393005	fix_post	2		11.0	65.0	2.5	/experiments/knapen_aot/videos/S_Pexels_Videos_278654_1.mp4	0.0	262.4887490272522	0.10004401206970215
68	191.13715505599976	fix_pre	0		37.0	66.0	2.5	/experiments/knapen_aot/videos/S_yt-aD-EAuBdpUo_163.mp4	0.0	262.5887930393219	0.30823278427124023
68	191.4372889995575	response	0	2		66.0	2.5	/experiments/knapen_aot/videos/S_yt-aD-EAuBdpUo_163.mp4	0.0	262.88892698287964	
68	191.445387840271	movie	1		301.0	66.0	2.5	/experiments/knapen_aot/videos/S_yt-aD-EAuBdpUo_163.mp4	0.0	262.89702582359314	2.5084121227264404
68	193.95379996299744	fix_post	2		12.0	66.0	2.5	/experiments/knapen_aot/videos/S_yt-aD-EAuBdpUo_163.mp4	0.0	265.4054379463196	0.09995794296264648
69	194.05375790596008	fix_pre	0		50.0	67.0	2.5	/experiments/knapen_aot/videos/S_yt-ThT8utBaywI_68.mp4	0.0	265.5053958892822	0.4166140556335449
69	194.4622540473938	response	0	2		67.0	2.5	/experiments/knapen_aot/videos/S_yt-ThT8utBaywI_68.mp4	0.0	265.91389203071594	
69	194.47037196159363	movie	1		300.0	67.0	2.5	/experiments/knapen_aot/videos/S_yt-ThT8utBaywI_68.mp4	0.0	265.92200994491577	2.5084168910980225
69	196.97878885269165	fix_post	2		12.0	67.0	2.5	/experiments/knapen_aot/videos/S_yt-ThT8utBaywI_68.mp4	0.0	268.4304268360138	0.09994721412658691
70	197.07873606681824	fix_pre	0		20.0	68.0	2.5	/experiments/knapen_aot/videos/R_S_yt-Pinnv3-3GFU_452.mp4	0.0	268.5303740501404	0.16665291786193848
70	197.23734998703003	response	0	2		68.0	2.5	/experiments/knapen_aot/videos/R_S_yt-Pinnv3-3GFU_452.mp4	0.0	268.6889879703522	
70	197.24538898468018	movie	1		301.0	68.0	2.5	/experiments/knapen_aot/videos/R_S_yt-Pinnv3-3GFU_452.mp4	0.0	268.6970269680023	2.508347988128662
70	199.75373697280884	fix_post	2		12.0	68.0	2.5	/experiments/knapen_aot/videos/R_S_yt-Pinnv3-3GFU_452.mp4	0.0	271.205374956131	0.10000205039978027
71	199.85373902320862	fix_pre	0		26.0	69.0	2.5	blank	1.0	271.30537700653076	0.21668481826782227
71	200.06215500831604	response	0	2		69.0	2.5	blank	1.0	271.5137929916382	
71	200.07042384147644	movie	1		301.0	69.0	2.5	blank	1.0	271.5220618247986	2.5082900524139404
71	202.57871389389038	fix_post	2		12.0	69.0	2.5	blank	1.0	274.0303518772125	0.09994912147521973
72	202.6786630153656	fix_pre	0		49.0	70.0	2.5	/experiments/knapen_aot/videos/R_S_yt-P001x88adE4_427.mp4	0.0	274.13030099868774	0.40938591957092285
72	203.07888197898865	response	0	2		70.0	2.5	/experiments/knapen_aot/videos/R_S_yt-P001x88adE4_427.mp4	0.0	274.5305199623108	
72	203.08804893493652	movie	1		301.0	70.0	2.5	/experiments/knapen_aot/videos/R_S_yt-P001x88adE4_427.mp4	0.0	274.53968691825867	2.5073800086975098
72	205.59542894363403	fix_post	2		12.0	70.0	2.5	/experiments/knapen_aot/videos/R_S_yt-P001x88adE4_427.mp4	0.0	277.0470669269562	0.09998011589050293
73	205.69540905952454	fix_pre	0		14.0	71.0	2.5	/experiments/knapen_aot/videos/R_S_yt-ibDaDIEazxg_3.mp4	0.0	277.1470470428467	0.1166539192199707
73	205.80378794670105	response	0	2		71.0	2.5	/experiments/knapen_aot/videos/R_S_yt-ibDaDIEazxg_3.mp4	0.0	277.2554259300232	
73	205.8120629787445	movie	1		300.0	71.0	2.5	/experiments/knapen_aot/videos/R_S_yt-ibDaDIEazxg_3.mp4	0.0	277.26370096206665	2.508280038833618
73	208.32034301757812	fix_post	2		12.0	71.0	2.5	/experiments/knapen_aot/videos/R_S_yt-ibDaDIEazxg_3.mp4	0.0	279.77198100090027	0.10004401206970215
73	208.3871328830719	response	2	2		71.0	2.5	/experiments/knapen_aot/videos/R_S_yt-ibDaDIEazxg_3.mp4	0.0	279.83877086639404	
74	208.42038702964783	fix_pre	0		41.0	72.0	2.5	/experiments/knapen_aot/videos/R_S_yt-aD-EAuBdpUo_163.mp4	0.0	279.87202501296997	0.34165000915527344
74	208.7538080215454	response	0	2		72.0	2.5	/experiments/knapen_aot/videos/R_S_yt-aD-EAuBdpUo_163.mp4	0.0	280.20544600486755	
74	208.7620370388031	movie	1		301.0	72.0	2.5	/experiments/knapen_aot/videos/R_S_yt-aD-EAuBdpUo_163.mp4	0.0	280.21367502212524	2.508267879486084
74	211.27030491828918	fix_post	2		12.0	72.0	2.5	/experiments/knapen_aot/videos/R_S_yt-aD-EAuBdpUo_163.mp4	0.0	282.7219429016113	0.10008502006530762
75	211.3703899383545	fix_pre	0		30.0	73.0	2.5	/experiments/knapen_aot/videos/R_S_2RTDFkjD6vI_93.mp4	0.0	282.82202792167664	0.24992704391479492
75	211.6122260093689	response	0	2		73.0	2.5	/experiments/knapen_aot/videos/R_S_2RTDFkjD6vI_93.mp4	0.0	283.06386399269104	
75	211.6203169822693	movie	1		301.0	73.0	2.5	/experiments/knapen_aot/videos/R_S_2RTDFkjD6vI_93.mp4	0.0	283.07195496559143	2.5084228515625
75	214.1287398338318	fix_post	2		12.0	73.0	2.5	/experiments/knapen_aot/videos/R_S_2RTDFkjD6vI_93.mp4	0.0	285.58037781715393	0.1001272201538086
76	214.2288670539856	fix_pre	0		25.0	74.0	2.5	/experiments/knapen_aot/videos/R_S_ILSVRC2015_train_00324000.mp4	0.0	285.68050503730774	0.2080988883972168
76	214.42886805534363	response	0	2		74.0	2.5	/experiments/knapen_aot/videos/R_S_ILSVRC2015_train_00324000.mp4	0.0	285.88050603866577	
76	214.4369659423828	movie	1		300.0	74.0	2.5	/experiments/knapen_aot/videos/R_S_ILSVRC2015_train_00324000.mp4	0.0	285.88860392570496	2.5083680152893066
76	216.94533395767212	fix_post	2		12.0	74.0	2.5	/experiments/knapen_aot/videos/R_S_ILSVRC2015_train_00324000.mp4	0.0	288.39697194099426	0.10001397132873535
77	217.04534792900085	fix_pre	0		31.0	75.0	2.5	blank	1.0	288.496985912323	0.2583160400390625
77	217.29536604881287	response	0	2		75.0	2.5	blank	1.0	288.747004032135	
77	217.30366396903992	movie	1		301.0	75.0	2.5	blank	1.0	288.75530195236206	2.508363962173462
77	219.81202793121338	fix_post	2		12.0	75.0	2.5	blank	1.0	291.2636659145355	0.09990596771240234
78	219.91193389892578	fix_pre	0		42.0	76.0	2.5	/experiments/knapen_aot/videos/R_S_yt-146gReE6xKw_379.mp4	0.0	291.3635718822479	0.3500330448150635
78	220.25377583503723	response	0	2		76.0	2.5	/experiments/knapen_aot/videos/R_S_yt-146gReE6xKw_379.mp4	0.0	291.7054138183594	
78	220.26196694374084	movie	1		301.0	76.0	2.5	/experiments/knapen_aot/videos/R_S_yt-146gReE6xKw_379.mp4	0.0	291.713604927063	2.508368968963623
78	222.77033591270447	fix_post	2		12.0	76.0	2.5	/experiments/knapen_aot/videos/R_S_yt-146gReE6xKw_379.mp4	0.0	294.2219738960266	0.10001301765441895
79	222.8703489303589	fix_pre	0		4.0	77.0	2.5	/experiments/knapen_aot/videos/R_S_ILSVRC2015_train_00017007.mp4	0.0	294.32198691368103	0.03340005874633789
79	222.89546394348145	response	0	2		77.0	2.5	/experiments/knapen_aot/videos/R_S_ILSVRC2015_train_00017007.mp4	0.0	294.3471019268036	
79	222.90374898910522	movie	1		301.0	77.0	2.5	/experiments/knapen_aot/videos/R_S_ILSVRC2015_train_00017007.mp4	0.0	294.35538697242737	2.5082578659057617
79	225.412006855011	fix_post	2		12.0	77.0	2.5	/experiments/knapen_aot/videos/R_S_ILSVRC2015_train_00017007.mp4	0.0	296.86364483833313	0.10002398490905762
80	225.51203083992004	fix_pre	0		15.0	78.0	2.5	/experiments/knapen_aot/videos/S_yt-etF_WUW5D68_3.mp4	0.0	296.9636688232422	0.12496209144592285
80	225.6288239955902	response	0	2		78.0	2.5	/experiments/knapen_aot/videos/S_yt-etF_WUW5D68_3.mp4	0.0	297.08046197891235	
80	225.63699293136597	movie	1		301.0	78.0	2.5	/experiments/knapen_aot/videos/S_yt-etF_WUW5D68_3.mp4	0.0	297.0886309146881	2.5083460807800293
80	228.145339012146	fix_post	2		12.0	78.0	2.5	/experiments/knapen_aot/videos/S_yt-etF_WUW5D68_3.mp4	0.0	299.59697699546814	0.10002398490905762
81	228.24536299705505	fix_pre	0		21.0	79.0	2.5	/experiments/knapen_aot/videos/S_wc-zkO_omg3nTvg_5.mp4	0.0	299.6970009803772	0.17586493492126465
81	228.40462684631348	response	0	2		79.0	2.5	/experiments/knapen_aot/videos/S_wc-zkO_omg3nTvg_5.mp4	0.0	299.8562648296356	
81	228.42122793197632	movie	1		165.0	79.0	2.5	/experiments/knapen_aot/videos/S_wc-zkO_omg3nTvg_5.mp4	0.0	299.87286591529846	2.5074079036712646
81	230.92863583564758	fix_post	2		12.0	79.0	2.5	/experiments/knapen_aot/videos/S_wc-zkO_omg3nTvg_5.mp4	0.0	302.3802738189697	0.1000220775604248
82	231.028657913208	fix_pre	0		7.0	80.0	2.5	/experiments/knapen_aot/videos/S_yt-uXDyvrm0Tw0_17.mp4	0.0	302.48029589653015	0.05911612510681152
82	231.07877492904663	response	0	2		80.0	2.5	/experiments/knapen_aot/videos/S_yt-uXDyvrm0Tw0_17.mp4	0.0	302.5304129123688	
82	231.08777403831482	movie	1		301.0	80.0	2.5	/experiments/knapen_aot/videos/S_yt-uXDyvrm0Tw0_17.mp4	0.0	302.53941202163696	2.507478952407837
82	233.59525299072266	fix_post	2		12.0	80.0	2.5	/experiments/knapen_aot/videos/S_yt-uXDyvrm0Tw0_17.mp4	0.0	305.0468909740448	0.10005402565002441
83	233.69530701637268	fix_pre	0		17.0	81.0	2.5	/experiments/knapen_aot/videos/R_S_production_ID_5139371.mp4	0.0	305.1469449996948	0.14251303672790527
83	233.82902789115906	response	0	2		81.0	2.5	/experiments/knapen_aot/videos/R_S_production_ID_5139371.mp4	0.0	305.2806658744812	
83	233.8378200531006	movie	1		167.0	81.0	2.5	/experiments/knapen_aot/videos/R_S_production_ID_5139371.mp4	0.0	305.28945803642273	2.50744891166687
83	236.34526896476746	fix_post	2		12.0	81.0	2.5	/experiments/knapen_aot/videos/R_S_production_ID_5139371.mp4	0.0	307.7969069480896	0.10002708435058594
84	236.44529604911804	fix_pre	0		11.0	82.0	2.5	/experiments/knapen_aot/videos/S_production_ID_5139371.mp4	0.0	307.8969340324402	0.09166097640991211
84	236.52117800712585	response	0	2		82.0	2.5	/experiments/knapen_aot/videos/S_production_ID_5139371.mp4	0.0	307.972815990448	
84	236.53695702552795	movie	1		164.0	82.0	2.5	/experiments/knapen_aot/videos/S_production_ID_5139371.mp4	0.0	307.9885950088501	2.5082449913024902
84	239.04520201683044	fix_post	2		12.0	82.0	2.5	/experiments/knapen_aot/videos/S_production_ID_5139371.mp4	0.0	310.4968400001526	0.10007405281066895
85	239.1452760696411	fix_pre	0		16.0	83.0	2.5	blank	1.0	310.59691405296326	0.13320088386535645
85	239.2703468799591	response	0	2		83.0	2.5	blank	1.0	310.72198486328125	
85	239.27847695350647	movie	1		301.0	83.0	2.5	blank	1.0	310.7301149368286	2.5084280967712402
85	241.7869050502777	fix_post	2		12.0	83.0	2.5	blank	1.0	313.23854303359985	0.10001301765441895
87	241.88691806793213	stim	0		158.0					313.3385560512543	1.3188560009002686
87	242.1369948387146	response	0	2						313.58863282203674	
87	243.19763684272766	response	0	space						314.6492748260498	
