trial_nr	onset	event_type	phase	response	nr_frames	movie_index	movie_duration	movie_file	blank	onset_abs	duration
0	0.12909388542175293	stim	0		31.0					87.91840982437134	0.2597670555114746
0	0.3791959285736084	response	0	space						88.1685118675232	
1	0.38886094093322754	stim	0		121.0					88.17817687988281	1.006525993347168
1	1.3953869342803955	stim	1		120.0					89.18470287322998	1.0000619888305664
2	2.395448923110962	fix_pre	0		13.0	0.0	2.5	/experiments/knapen_aot/videos/R_S_yt-JPsTqfqfPIY_319.mp4	0.0	90.18476486206055	0.10825514793395996
2	2.4956469535827637	response	0	space		0.0	2.5	/experiments/knapen_aot/videos/R_S_yt-JPsTqfqfPIY_319.mp4	0.0	90.28496289253235	
2	2.503704071044922	movie	1		300.0	0.0	2.5	/experiments/knapen_aot/videos/R_S_yt-JPsTqfqfPIY_319.mp4	0.0	90.2930200099945	2.508265972137451
2	5.011970043182373	fix_post	2		12.0	0.0	2.5	/experiments/knapen_aot/videos/R_S_yt-JPsTqfqfPIY_319.mp4	0.0	92.80128598213196	0.10014104843139648
3	5.1121110916137695	fix_pre	0		6.0	1.0	2.5	/experiments/knapen_aot/videos/R_S_ILSVRC2015_train_00373001.mp4	0.0	92.90142703056335	0.049954891204833984
3	5.15608811378479	response	0	2		1.0	2.5	/experiments/knapen_aot/videos/R_S_ILSVRC2015_train_00373001.mp4	0.0	92.94540405273438	
3	5.1620659828186035	movie	1		301.0	1.0	2.5	/experiments/knapen_aot/videos/R_S_ILSVRC2015_train_00373001.mp4	0.0	92.95138192176819	2.5085999965667725
3	7.670665979385376	fix_post	2		12.0	1.0	2.5	/experiments/knapen_aot/videos/R_S_ILSVRC2015_train_00373001.mp4	0.0	95.45998191833496	0.09971904754638672
4	7.770385026931763	fix_pre	0		10.0	2.0	2.5	/experiments/knapen_aot/videos/S_comp_A001_C001_120530_v04_SDR_FINAL_20180706_SDR_2K_AVC.mp4	0.0	95.55970096588135	0.08329105377197266
4	7.845449924468994	response	0	2		2.0	2.5	/experiments/knapen_aot/videos/S_comp_A001_C001_120530_v04_SDR_FINAL_20180706_SDR_2K_AVC.mp4	0.0	95.63476586341858	
4	7.853676080703735	movie	1		168.0	2.0	2.5	/experiments/knapen_aot/videos/S_comp_A001_C001_120530_v04_SDR_FINAL_20180706_SDR_2K_AVC.mp4	0.0	95.64299201965332	2.508396863937378
4	10.362072944641113	fix_post	2		12.0	2.0	2.5	/experiments/knapen_aot/videos/S_comp_A001_C001_120530_v04_SDR_FINAL_20180706_SDR_2K_AVC.mp4	0.0	98.1513888835907	0.10001206398010254
5	10.462085008621216	fix_pre	0		25.0	3.0	2.5	/experiments/knapen_aot/videos/S_BO_A012_C031_SDR_20190726_SDR_2K_AVC.mp4	0.0	98.2514009475708	0.20827698707580566
5	10.662245988845825	response	0	2		3.0	2.5	/experiments/knapen_aot/videos/S_BO_A012_C031_SDR_20190726_SDR_2K_AVC.mp4	0.0	98.45156192779541	
5	10.670361995697021	movie	1		162.0	3.0	2.5	/experiments/knapen_aot/videos/S_BO_A012_C031_SDR_20190726_SDR_2K_AVC.mp4	0.0	98.4596779346466	2.50832200050354
5	13.178683996200562	fix_post	2		12.0	3.0	2.5	/experiments/knapen_aot/videos/S_BO_A012_C031_SDR_20190726_SDR_2K_AVC.mp4	0.0	100.96799993515015	0.10000205039978027
6	13.278686046600342	fix_pre	0		4.0	4.0	2.5	/experiments/knapen_aot/videos/R_S_wc-8bTJmWfuVyJ4_8.mp4	0.0	101.06800198554993	0.033360958099365234
6	13.303750038146973	response	0	2		4.0	2.5	/experiments/knapen_aot/videos/R_S_wc-8bTJmWfuVyJ4_8.mp4	0.0	101.09306597709656	
6	13.312047004699707	movie	1		163.0	4.0	2.5	/experiments/knapen_aot/videos/R_S_wc-8bTJmWfuVyJ4_8.mp4	0.0	101.10136294364929	2.5086889266967773
6	15.820735931396484	fix_post	2		12.0	4.0	2.5	/experiments/knapen_aot/videos/R_S_wc-8bTJmWfuVyJ4_8.mp4	0.0	103.61005187034607	0.09954595565795898
7	15.920281887054443	fix_pre	0		9.0	5.0	2.5	blank	1.0	103.70959782600403	0.07505512237548828
7	15.987184047698975	response	0	2		5.0	2.5	blank	1.0	103.77649998664856	
7	15.995337009429932	movie	1		301.0	5.0	2.5	blank	1.0	103.78465294837952	2.5083820819854736
7	18.503719091415405	fix_post	2		12.0	5.0	2.5	blank	1.0	106.29303503036499	0.10001587867736816
8	18.603734970092773	fix_pre	0		63.0	6.0	2.5	/experiments/knapen_aot/videos/R_S_yt--5ls65Ue1RA_52.mp4	0.0	106.39305090904236	0.5250611305236816
8	19.120523929595947	response	0	2		6.0	2.5	/experiments/knapen_aot/videos/R_S_yt--5ls65Ue1RA_52.mp4	0.0	106.90983986854553	
8	19.128796100616455	movie	1		301.0	6.0	2.5	/experiments/knapen_aot/videos/R_S_yt--5ls65Ue1RA_52.mp4	0.0	106.91811203956604	2.508220911026001
8	21.637017011642456	fix_post	2		12.0	6.0	2.5	/experiments/knapen_aot/videos/R_S_yt--5ls65Ue1RA_52.mp4	0.0	109.42633295059204	0.1000208854675293
9	21.737037897109985	fix_pre	0		5.0	7.0	2.5	/experiments/knapen_aot/videos/R_S_ILSVRC2015_train_00479000.mp4	0.0	109.52635383605957	0.04163813591003418
9	21.763005018234253	response	0	2		7.0	2.5	/experiments/knapen_aot/videos/R_S_ILSVRC2015_train_00479000.mp4	0.0	109.55232095718384	
9	21.77867603302002	movie	1		301.0	7.0	2.5	/experiments/knapen_aot/videos/R_S_ILSVRC2015_train_00479000.mp4	0.0	109.5679919719696	2.508316993713379
9	24.2869930267334	fix_post	2		12.0	7.0	2.5	/experiments/knapen_aot/videos/R_S_ILSVRC2015_train_00479000.mp4	0.0	112.07630896568298	0.09992790222167969
10	24.386920928955078	fix_pre	0		8.0	8.0	2.5	/experiments/knapen_aot/videos/S_ILSVRC2015_train_00457000.mp4	0.0	112.17623686790466	0.06673216819763184
10	24.44544005393982	response	0	2		8.0	2.5	/experiments/knapen_aot/videos/S_ILSVRC2015_train_00457000.mp4	0.0	112.2347559928894	
10	24.45365309715271	movie	1		301.0	8.0	2.5	/experiments/knapen_aot/videos/S_ILSVRC2015_train_00457000.mp4	0.0	112.2429690361023	2.5083189010620117
10	26.96197199821472	fix_post	2		12.0	8.0	2.5	/experiments/knapen_aot/videos/S_ILSVRC2015_train_00457000.mp4	0.0	114.7512879371643	0.09999799728393555
11	27.061969995498657	fix_pre	0		23.0	9.0	2.5	/experiments/knapen_aot/videos/R_S_yt--5ls65Ue1RA_52.mp4	0.0	114.85128593444824	0.1916489601135254
11	27.245277881622314	response	0	2		9.0	2.5	/experiments/knapen_aot/videos/R_S_yt--5ls65Ue1RA_52.mp4	0.0	115.0345938205719	
11	27.253618955612183	movie	1		301.0	9.0	2.5	/experiments/knapen_aot/videos/R_S_yt--5ls65Ue1RA_52.mp4	0.0	115.04293489456177	2.508358955383301
11	29.761977910995483	fix_post	2		12.0	9.0	2.5	/experiments/knapen_aot/videos/R_S_yt--5ls65Ue1RA_52.mp4	0.0	117.55129384994507	0.10002613067626953
12	29.862004041671753	fix_pre	0		6.0	10.0	2.5	/experiments/knapen_aot/videos/S_yt-5doJmCcFL7s_3.mp4	0.0	117.65131998062134	0.049913883209228516
12	29.903764963150024	response	0	2		10.0	2.5	/experiments/knapen_aot/videos/S_yt-5doJmCcFL7s_3.mp4	0.0	117.69308090209961	
12	29.91191792488098	movie	1		301.0	10.0	2.5	/experiments/knapen_aot/videos/S_yt-5doJmCcFL7s_3.mp4	0.0	117.70123386383057	2.508362054824829
12	32.42027997970581	fix_post	2		12.0	10.0	2.5	/experiments/knapen_aot/videos/S_yt-5doJmCcFL7s_3.mp4	0.0	120.2095959186554	0.09997391700744629
13	32.52025389671326	fix_pre	0		16.0	11.0	2.5	/experiments/knapen_aot/videos/S_ILSVRC2015_train_00044004.mp4	0.0	120.30956983566284	0.1333022117614746
13	32.64543008804321	response	0	2		11.0	2.5	/experiments/knapen_aot/videos/S_ILSVRC2015_train_00044004.mp4	0.0	120.4347460269928	
13	32.65355610847473	movie	1		301.0	11.0	2.5	/experiments/knapen_aot/videos/S_ILSVRC2015_train_00044004.mp4	0.0	120.44287204742432	2.5083138942718506
13	35.16187000274658	fix_post	2		12.0	11.0	2.5	/experiments/knapen_aot/videos/S_ILSVRC2015_train_00044004.mp4	0.0	122.95118594169617	0.10004901885986328
14	35.261919021606445	fix_pre	0		20.0	12.0	2.5	/experiments/knapen_aot/videos/S_yt-mQESmS4uqRU_208.mp4	0.0	123.05123496055603	0.16789698600769043
14	35.42041206359863	response	0	2		12.0	2.5	/experiments/knapen_aot/videos/S_yt-mQESmS4uqRU_208.mp4	0.0	123.20972800254822	
14	35.429816007614136	movie	1		301.0	12.0	2.5	/experiments/knapen_aot/videos/S_yt-mQESmS4uqRU_208.mp4	0.0	123.21913194656372	2.507107973098755
14	37.93692398071289	fix_post	2		12.0	12.0	2.5	/experiments/knapen_aot/videos/S_yt-mQESmS4uqRU_208.mp4	0.0	125.72623991966248	0.0999460220336914
15	38.03687000274658	fix_pre	0		25.0	13.0	2.5	/experiments/knapen_aot/videos/R_S_yt-ZE8Af60eNsI_15.mp4	0.0	125.82618594169617	0.20834589004516602
15	38.23701095581055	response	0	2		13.0	2.5	/experiments/knapen_aot/videos/R_S_yt-ZE8Af60eNsI_15.mp4	0.0	126.02632689476013	
15	38.24521589279175	movie	1		301.0	13.0	2.5	/experiments/knapen_aot/videos/R_S_yt-ZE8Af60eNsI_15.mp4	0.0	126.03453183174133	2.5083870887756348
15	40.75360298156738	fix_post	2		12.0	13.0	2.5	/experiments/knapen_aot/videos/R_S_yt-ZE8Af60eNsI_15.mp4	0.0	128.54291892051697	0.09993696212768555
16	40.85353994369507	fix_pre	0		24.0	14.0	2.5	blank	1.0	128.64285588264465	0.2000420093536377
16	41.04535508155823	response	0	2		14.0	2.5	blank	1.0	128.8346710205078	
16	41.053581953048706	movie	1		301.0	14.0	2.5	blank	1.0	128.8428978919983	2.5084080696105957
16	43.5619900226593	fix_post	2		12.0	14.0	2.5	blank	1.0	131.3513059616089	0.09990906715393066
17	43.66189908981323	fix_pre	0		25.0	15.0	2.5	/experiments/knapen_aot/videos/R_S_ILSVRC2015_train_00074011.mp4	0.0	131.45121502876282	0.20829486846923828
17	43.86201095581055	response	0	2		15.0	2.5	/experiments/knapen_aot/videos/R_S_ILSVRC2015_train_00074011.mp4	0.0	131.65132689476013	
17	43.87019395828247	movie	1		301.0	15.0	2.5	/experiments/knapen_aot/videos/R_S_ILSVRC2015_train_00074011.mp4	0.0	131.65950989723206	2.5084049701690674
17	46.37859892845154	fix_post	2		12.0	15.0	2.5	/experiments/knapen_aot/videos/R_S_ILSVRC2015_train_00074011.mp4	0.0	134.16791486740112	0.10001802444458008
18	46.47861695289612	fix_pre	0		13.0	16.0	2.5	/experiments/knapen_aot/videos/S_pexels-pavel-danilyuk-8626652.mp4	0.0	134.2679328918457	0.10819506645202637
18	46.57864499092102	response	0	2		16.0	2.5	/experiments/knapen_aot/videos/S_pexels-pavel-danilyuk-8626652.mp4	0.0	134.3679609298706	
18	46.586812019348145	movie	1		162.0	16.0	2.5	/experiments/knapen_aot/videos/S_pexels-pavel-danilyuk-8626652.mp4	0.0	134.37612795829773	2.5084750652313232
18	49.09528708457947	fix_post	2		12.0	16.0	2.5	/experiments/knapen_aot/videos/S_pexels-pavel-danilyuk-8626652.mp4	0.0	136.88460302352905	0.0999917984008789
19	49.19527888298035	fix_pre	0		15.0	17.0	2.5	/experiments/knapen_aot/videos/S_yt--WPE_4bqQXc_26.mp4	0.0	136.98459482192993	0.12491321563720703
19	49.31207489967346	response	0	2		17.0	2.5	/experiments/knapen_aot/videos/S_yt--WPE_4bqQXc_26.mp4	0.0	137.10139083862305	
19	49.320192098617554	movie	1		301.0	17.0	2.5	/experiments/knapen_aot/videos/S_yt--WPE_4bqQXc_26.mp4	0.0	137.10950803756714	2.5083718299865723
19	51.828563928604126	fix_post	2		12.0	17.0	2.5	/experiments/knapen_aot/videos/S_yt--WPE_4bqQXc_26.mp4	0.0	139.6178798675537	0.10004997253417969
20	51.928613901138306	fix_pre	0		29.0	18.0	2.5	/experiments/knapen_aot/videos/R_S_ILSVRC2015_train_00682009.mp4	0.0	139.7179298400879	0.24158215522766113
20	52.16197109222412	response	0	2		18.0	2.5	/experiments/knapen_aot/videos/R_S_ILSVRC2015_train_00682009.mp4	0.0	139.9512870311737	
20	52.17019605636597	movie	1		301.0	18.0	2.5	/experiments/knapen_aot/videos/R_S_ILSVRC2015_train_00682009.mp4	0.0	139.95951199531555	2.5083189010620117
20	54.67851495742798	fix_post	2		12.0	18.0	2.5	/experiments/knapen_aot/videos/R_S_ILSVRC2015_train_00682009.mp4	0.0	142.46783089637756	0.10000109672546387
21	54.77851605415344	fix_pre	0		15.0	19.0	2.5	/experiments/knapen_aot/videos/S_yt-kAUL5o7i5mo_116.mp4	0.0	142.56783199310303	0.12502789497375488
21	54.8952898979187	response	0	2		19.0	2.5	/experiments/knapen_aot/videos/S_yt-kAUL5o7i5mo_116.mp4	0.0	142.6846058368683	
21	54.9035439491272	movie	1		301.0	19.0	2.5	/experiments/knapen_aot/videos/S_yt-kAUL5o7i5mo_116.mp4	0.0	142.69285988807678	2.5082919597625732
21	57.41183590888977	fix_post	2		12.0	19.0	2.5	/experiments/knapen_aot/videos/S_yt-kAUL5o7i5mo_116.mp4	0.0	145.20115184783936	0.10003399848937988
22	57.51186990737915	fix_pre	0		20.0	20.0	2.5	/experiments/knapen_aot/videos/R_S_g201_TH_803_A001_8_SDR_20191031_SDR_2K_AVC.mp4	0.0	145.30118584632874	0.16770505905151367
22	57.67024803161621	response	0	2		20.0	2.5	/experiments/knapen_aot/videos/R_S_g201_TH_803_A001_8_SDR_20191031_SDR_2K_AVC.mp4	0.0	145.4595639705658	
22	57.679574966430664	movie	1		164.0	20.0	2.5	/experiments/knapen_aot/videos/R_S_g201_TH_803_A001_8_SDR_20191031_SDR_2K_AVC.mp4	0.0	145.46889090538025	2.5072851181030273
22	60.18686008453369	fix_post	2		12.0	20.0	2.5	/experiments/knapen_aot/videos/R_S_g201_TH_803_A001_8_SDR_20191031_SDR_2K_AVC.mp4	0.0	147.97617602348328	0.09998202323913574
23	60.28684210777283	fix_pre	0		5.0	21.0	2.5	blank	1.0	148.0761580467224	0.04163384437561035
23	60.32033610343933	response	0	2		21.0	2.5	blank	1.0	148.10965204238892	
23	60.32847595214844	movie	1		301.0	21.0	2.5	blank	1.0	148.11779189109802	2.5083839893341064
23	62.836859941482544	fix_post	2		12.0	21.0	2.5	blank	1.0	150.62617588043213	0.09997200965881348
24	62.93683195114136	fix_pre	0		18.0	22.0	2.5	/experiments/knapen_aot/videos/S_ILSVRC2015_train_00457000.mp4	0.0	150.72614789009094	0.15003609657287598
24	63.07860994338989	response	0	2		22.0	2.5	/experiments/knapen_aot/videos/S_ILSVRC2015_train_00457000.mp4	0.0	150.86792588233948	
24	63.08686804771423	movie	1		301.0	22.0	2.5	/experiments/knapen_aot/videos/S_ILSVRC2015_train_00457000.mp4	0.0	150.87618398666382	2.5082688331604004
24	65.59513688087463	fix_post	2		12.0	22.0	2.5	/experiments/knapen_aot/videos/S_ILSVRC2015_train_00457000.mp4	0.0	153.38445281982422	0.09999513626098633
25	65.69513201713562	fix_pre	0		15.0	23.0	2.5	/experiments/knapen_aot/videos/R_S_I003_C015_SDR_2K_AVC.mp4	0.0	153.4844479560852	0.12500500679016113
25	65.80441999435425	response	0	2		23.0	2.5	/experiments/knapen_aot/videos/R_S_I003_C015_SDR_2K_AVC.mp4	0.0	153.59373593330383	
25	65.82013702392578	movie	1		170.0	23.0	2.5	/experiments/knapen_aot/videos/R_S_I003_C015_SDR_2K_AVC.mp4	0.0	153.60945296287537	2.5083460807800293
25	68.32848310470581	fix_post	2		12.0	23.0	2.5	/experiments/knapen_aot/videos/R_S_I003_C015_SDR_2K_AVC.mp4	0.0	156.1177990436554	0.09995079040527344
26	68.42843389511108	fix_pre	0		38.0	24.0	2.5	/experiments/knapen_aot/videos/S_yt-savE5_jePKQ_25.mp4	0.0	156.21774983406067	0.3166670799255371
26	68.73686909675598	response	0	2		24.0	2.5	/experiments/knapen_aot/videos/S_yt-savE5_jePKQ_25.mp4	0.0	156.52618503570557	
26	68.74510097503662	movie	1		301.0	24.0	2.5	/experiments/knapen_aot/videos/S_yt-savE5_jePKQ_25.mp4	0.0	156.5344169139862	2.508359909057617
26	71.25346088409424	fix_post	2		12.0	24.0	2.5	/experiments/knapen_aot/videos/S_yt-savE5_jePKQ_25.mp4	0.0	159.04277682304382	0.09998416900634766
26	71.28687906265259	response	2	2		24.0	2.5	/experiments/knapen_aot/videos/S_yt-savE5_jePKQ_25.mp4	0.0	159.07619500160217	
27	71.35344505310059	fix_pre	0		44.0	25.0	2.5	/experiments/knapen_aot/videos/R_S_yt-3DM_SqT4RII_10.mp4	0.0	159.14276099205017	0.36760902404785156
27	71.71178698539734	response	0	2		25.0	2.5	/experiments/knapen_aot/videos/R_S_yt-3DM_SqT4RII_10.mp4	0.0	159.50110292434692	
27	71.72105407714844	movie	1		301.0	25.0	2.5	/experiments/knapen_aot/videos/R_S_yt-3DM_SqT4RII_10.mp4	0.0	159.51037001609802	2.5073819160461426
27	74.22843599319458	fix_post	2		12.0	25.0	2.5	/experiments/knapen_aot/videos/R_S_yt-3DM_SqT4RII_10.mp4	0.0	162.01775193214417	0.0999610424041748
28	74.32839703559875	fix_pre	0		6.0	26.0	2.5	blank	1.0	162.11771297454834	0.05005002021789551
28	74.37024402618408	response	0	2		26.0	2.5	blank	1.0	162.15955996513367	
28	74.37844705581665	movie	1		301.0	26.0	2.5	blank	1.0	162.16776299476624	2.5083229541778564
28	76.8867700099945	fix_post	2		12.0	26.0	2.5	blank	1.0	164.6760859489441	0.10001397132873535
29	76.98678398132324	fix_pre	0		27.0	27.0	2.5	/experiments/knapen_aot/videos/S_flickr-51283549@N02-23064904264_16.mp4	0.0	164.77609992027283	0.22491192817687988
29	77.20344400405884	response	0	2		27.0	2.5	/experiments/knapen_aot/videos/S_flickr-51283549@N02-23064904264_16.mp4	0.0	164.99275994300842	
29	77.21169590950012	movie	1		165.0	27.0	2.5	/experiments/knapen_aot/videos/S_flickr-51283549@N02-23064904264_16.mp4	0.0	165.0010118484497	2.5083541870117188
29	79.72005009651184	fix_post	2		12.0	27.0	2.5	/experiments/knapen_aot/videos/S_flickr-51283549@N02-23064904264_16.mp4	0.0	167.50936603546143	0.10007381439208984
30	79.82012391090393	fix_pre	0		17.0	28.0	2.5	/experiments/knapen_aot/videos/R_S_ILSVRC2015_train_00363000.mp4	0.0	167.60943984985352	0.14154505729675293
30	79.9534420967102	response	0	2		28.0	2.5	/experiments/knapen_aot/videos/R_S_ILSVRC2015_train_00363000.mp4	0.0	167.7427580356598	
30	79.96166896820068	movie	1		301.0	28.0	2.5	/experiments/knapen_aot/videos/R_S_ILSVRC2015_train_00363000.mp4	0.0	167.75098490715027	2.5084009170532227
30	82.4700698852539	fix_post	2		12.0	28.0	2.5	/experiments/knapen_aot/videos/R_S_ILSVRC2015_train_00363000.mp4	0.0	170.2593858242035	0.09992122650146484
31	82.56999111175537	fix_pre	0		8.0	29.0	2.5	/experiments/knapen_aot/videos/R_S_yt-xWCPbUQc-vg_7.mp4	0.0	170.35930705070496	0.06778383255004883
31	82.62842297554016	response	0	2		29.0	2.5	/experiments/knapen_aot/videos/R_S_yt-xWCPbUQc-vg_7.mp4	0.0	170.41773891448975	
31	82.63777494430542	movie	1		300.0	29.0	2.5	/experiments/knapen_aot/videos/R_S_yt-xWCPbUQc-vg_7.mp4	0.0	170.427090883255	2.507272958755493
31	85.14504790306091	fix_post	2		12.0	29.0	2.5	/experiments/knapen_aot/videos/R_S_yt-xWCPbUQc-vg_7.mp4	0.0	172.9343638420105	0.0999460220336914
32	85.2449939250946	fix_pre	0		12.0	30.0	2.5	/experiments/knapen_aot/videos/S_yt-EKPrSw5xF7k_112.mp4	0.0	173.0343098640442	0.10104203224182129
32	85.33685398101807	response	0	2		30.0	2.5	/experiments/knapen_aot/videos/S_yt-EKPrSw5xF7k_112.mp4	0.0	173.12616991996765	
32	85.34603595733643	movie	1		301.0	30.0	2.5	/experiments/knapen_aot/videos/S_yt-EKPrSw5xF7k_112.mp4	0.0	173.135351896286	2.5073511600494385
32	87.85338711738586	fix_post	2		12.0	30.0	2.5	/experiments/knapen_aot/videos/S_yt-EKPrSw5xF7k_112.mp4	0.0	175.64270305633545	0.09994387626647949
33	87.95333099365234	fix_pre	0		30.0	31.0	2.5	/experiments/knapen_aot/videos/R_S_yt-O6FS0xnF0CU_106.mp4	0.0	175.74264693260193	0.2500190734863281
33	88.19506192207336	response	0	2		31.0	2.5	/experiments/knapen_aot/videos/R_S_yt-O6FS0xnF0CU_106.mp4	0.0	175.98437786102295	
33	88.20335006713867	movie	1		301.0	31.0	2.5	/experiments/knapen_aot/videos/R_S_yt-O6FS0xnF0CU_106.mp4	0.0	175.99266600608826	2.5083680152893066
33	90.71171808242798	fix_post	2		12.0	31.0	2.5	/experiments/knapen_aot/videos/R_S_yt-O6FS0xnF0CU_106.mp4	0.0	178.50103402137756	0.10001397132873535
34	90.81173205375671	fix_pre	0		2.0	32.0	2.5	/experiments/knapen_aot/videos/R_S_yt-LZS1RrEtTeQ_136.mp4	0.0	178.6010479927063	0.016628026962280273
34	90.8201789855957	response	0	2		32.0	2.5	/experiments/knapen_aot/videos/R_S_yt-LZS1RrEtTeQ_136.mp4	0.0	178.6094949245453	
34	90.828360080719	movie	1		301.0	32.0	2.5	/experiments/knapen_aot/videos/R_S_yt-LZS1RrEtTeQ_136.mp4	0.0	178.61767601966858	2.508333921432495
34	93.33669400215149	fix_post	2		12.0	32.0	2.5	/experiments/knapen_aot/videos/R_S_yt-LZS1RrEtTeQ_136.mp4	0.0	181.12600994110107	0.0999300479888916
35	93.43662405014038	fix_pre	0		17.0	33.0	2.5	/experiments/knapen_aot/videos/R_S_yt-K7viJXt9vX8_143.mp4	0.0	181.22593998908997	0.14169001579284668
35	93.57011198997498	response	0	2		33.0	2.5	/experiments/knapen_aot/videos/R_S_yt-K7viJXt9vX8_143.mp4	0.0	181.35942792892456	
35	93.57831406593323	movie	1		301.0	33.0	2.5	/experiments/knapen_aot/videos/R_S_yt-K7viJXt9vX8_143.mp4	0.0	181.3676300048828	2.508417844772339
35	96.08673191070557	fix_post	2		12.0	33.0	2.5	/experiments/knapen_aot/videos/R_S_yt-K7viJXt9vX8_143.mp4	0.0	183.87604784965515	0.10006117820739746
36	96.18679308891296	fix_pre	0		17.0	34.0	2.5	blank	1.0	183.97610902786255	0.14152979850769043
36	96.32008600234985	response	0	2		34.0	2.5	blank	1.0	184.10940194129944	
36	96.32832288742065	movie	1		301.0	34.0	2.5	blank	1.0	184.11763882637024	2.508413076400757
36	98.83673596382141	fix_post	2		12.0	34.0	2.5	blank	1.0	186.626051902771	0.09994292259216309
37	98.93667888641357	fix_pre	0		33.0	35.0	2.5	/experiments/knapen_aot/videos/R_S_yt-33PKaLVxDC4_2703.mp4	0.0	186.72599482536316	0.27492809295654297
37	99.19591689109802	response	0	2		35.0	2.5	/experiments/knapen_aot/videos/R_S_yt-33PKaLVxDC4_2703.mp4	0.0	186.9852328300476	
37	99.21160697937012	movie	1		301.0	35.0	2.5	/experiments/knapen_aot/videos/R_S_yt-33PKaLVxDC4_2703.mp4	0.0	187.0009229183197	2.508424997329712
37	101.72003197669983	fix_post	2		12.0	35.0	2.5	/experiments/knapen_aot/videos/R_S_yt-33PKaLVxDC4_2703.mp4	0.0	189.5093479156494	0.09994792938232422
38	101.81997990608215	fix_pre	0		31.0	36.0	2.5	/experiments/knapen_aot/videos/R_S_yt-1uk2k3PnTNw_37.0.mp4	0.0	189.60929584503174	0.2582590579986572
38	102.07002305984497	response	0	2		36.0	2.5	/experiments/knapen_aot/videos/R_S_yt-1uk2k3PnTNw_37.0.mp4	0.0	189.85933899879456	
38	102.07823896408081	movie	1		301.0	36.0	2.5	/experiments/knapen_aot/videos/R_S_yt-1uk2k3PnTNw_37.0.mp4	0.0	189.8675549030304	2.508366107940674
38	104.58660507202148	fix_post	2		12.0	36.0	2.5	/experiments/knapen_aot/videos/R_S_yt-1uk2k3PnTNw_37.0.mp4	0.0	192.37592101097107	0.10004401206970215
39	104.68664908409119	fix_pre	0		33.0	37.0	2.5	/experiments/knapen_aot/videos/S_ILSVRC2015_train_00066005.mp4	0.0	192.47596502304077	0.2749929428100586
39	104.95335006713867	response	0	2		37.0	2.5	/experiments/knapen_aot/videos/S_ILSVRC2015_train_00066005.mp4	0.0	192.74266600608826	
39	104.96164202690125	movie	1		301.0	37.0	2.5	/experiments/knapen_aot/videos/S_ILSVRC2015_train_00066005.mp4	0.0	192.75095796585083	2.5083470344543457
39	107.46998906135559	fix_post	2		12.0	37.0	2.5	/experiments/knapen_aot/videos/S_ILSVRC2015_train_00066005.mp4	0.0	195.25930500030518	0.09999394416809082
40	107.56998300552368	fix_pre	0		62.0	38.0	2.5	/experiments/knapen_aot/videos/R_S_yt-33PKaLVxDC4_2703.mp4	0.0	195.35929894447327	0.5166208744049072
40	108.07843899726868	response	0	2		38.0	2.5	/experiments/knapen_aot/videos/R_S_yt-33PKaLVxDC4_2703.mp4	0.0	195.86775493621826	
40	108.08660387992859	movie	1		301.0	38.0	2.5	/experiments/knapen_aot/videos/R_S_yt-33PKaLVxDC4_2703.mp4	0.0	195.87591981887817	2.508437156677246
40	110.59504103660583	fix_post	2		12.0	38.0	2.5	/experiments/knapen_aot/videos/R_S_yt-33PKaLVxDC4_2703.mp4	0.0	198.38435697555542	0.10008597373962402
41	110.69512701034546	fix_pre	0		36.0	39.0	2.5	/experiments/knapen_aot/videos/R_S_yt-1uk2k3PnTNw_37.0.mp4	0.0	198.48444294929504	0.29982805252075195
41	110.98676991462708	response	0	2		39.0	2.5	/experiments/knapen_aot/videos/R_S_yt-1uk2k3PnTNw_37.0.mp4	0.0	198.77608585357666	
41	110.99495506286621	movie	1		301.0	39.0	2.5	/experiments/knapen_aot/videos/R_S_yt-1uk2k3PnTNw_37.0.mp4	0.0	198.7842710018158	2.508363962173462
41	113.50331902503967	fix_post	2		12.0	39.0	2.5	/experiments/knapen_aot/videos/R_S_yt-1uk2k3PnTNw_37.0.mp4	0.0	201.29263496398926	0.09997296333312988
42	113.6032919883728	fix_pre	0		22.0	40.0	2.5	blank	1.0	201.3926079273224	0.18342900276184082
42	113.7714729309082	response	0	2		40.0	2.5	blank	1.0	201.5607888698578	
42	113.78672099113464	movie	1		301.0	40.0	2.5	blank	1.0	201.57603693008423	2.508212089538574
42	116.29493308067322	fix_post	2		12.0	40.0	2.5	blank	1.0	204.0842490196228	0.10003089904785156
43	116.39496397972107	fix_pre	0		30.0	41.0	2.5	/experiments/knapen_aot/videos/S_comp_A351_C001_v06_SDR_PS_20180725_SDR_2K_AVC.mp4	0.0	204.18427991867065	0.24991106986999512
43	116.63673496246338	response	0	2		41.0	2.5	/experiments/knapen_aot/videos/S_comp_A351_C001_v06_SDR_PS_20180725_SDR_2K_AVC.mp4	0.0	204.42605090141296	
43	116.64487504959106	movie	1		166.0	41.0	2.5	/experiments/knapen_aot/videos/S_comp_A351_C001_v06_SDR_PS_20180725_SDR_2K_AVC.mp4	0.0	204.43419098854065	2.5083930492401123
43	119.15326809883118	fix_post	2		12.0	41.0	2.5	/experiments/knapen_aot/videos/S_comp_A351_C001_v06_SDR_PS_20180725_SDR_2K_AVC.mp4	0.0	206.94258403778076	0.1000828742980957
44	119.25335097312927	fix_pre	0		9.0	42.0	2.5	/experiments/knapen_aot/videos/R_S_yt-he_RSdeVinA_68.mp4	0.0	207.04266691207886	0.07492804527282715
44	119.31998491287231	response	0	2		42.0	2.5	/experiments/knapen_aot/videos/R_S_yt-he_RSdeVinA_68.mp4	0.0	207.1093008518219	
44	119.3282790184021	movie	1		301.0	42.0	2.5	/experiments/knapen_aot/videos/R_S_yt-he_RSdeVinA_68.mp4	0.0	207.11759495735168	2.508384943008423
44	121.83666396141052	fix_post	2		12.0	42.0	2.5	/experiments/knapen_aot/videos/R_S_yt-he_RSdeVinA_68.mp4	0.0	209.6259799003601	0.09993600845336914
45	121.93659996986389	fix_pre	0		7.0	43.0	2.5	/experiments/knapen_aot/videos/R_S_ILSVRC2015_train_00682005.mp4	0.0	209.72591590881348	0.058277130126953125
45	121.98673105239868	response	0	2		43.0	2.5	/experiments/knapen_aot/videos/R_S_ILSVRC2015_train_00682005.mp4	0.0	209.77604699134827	
45	121.99487709999084	movie	1		301.0	43.0	2.5	/experiments/knapen_aot/videos/R_S_ILSVRC2015_train_00682005.mp4	0.0	209.78419303894043	2.508427858352661
45	124.5033049583435	fix_post	2		12.0	43.0	2.5	/experiments/knapen_aot/videos/R_S_ILSVRC2015_train_00682005.mp4	0.0	212.2926208972931	0.09993696212768555
46	124.60324192047119	fix_pre	0		8.0	44.0	2.5	/experiments/knapen_aot/videos/S_yt-AHbFln6blfE_36.mp4	0.0	212.39255785942078	0.0666351318359375
46	124.66159391403198	response	0	2		44.0	2.5	/experiments/knapen_aot/videos/S_yt-AHbFln6blfE_36.mp4	0.0	212.45090985298157	
46	124.66987705230713	movie	1		301.0	44.0	2.5	/experiments/knapen_aot/videos/S_yt-AHbFln6blfE_36.mp4	0.0	212.4591929912567	2.5083439350128174
46	127.17822098731995	fix_post	2		12.0	44.0	2.5	/experiments/knapen_aot/videos/S_yt-AHbFln6blfE_36.mp4	0.0	214.96753692626953	0.10013604164123535
47	127.27835702896118	fix_pre	0		11.0	45.0	2.5	/experiments/knapen_aot/videos/R_S_pexels-rodnae-productions-7467585.mp4	0.0	215.06767296791077	0.09147405624389648
47	127.36164999008179	response	0	2		45.0	2.5	/experiments/knapen_aot/videos/R_S_pexels-rodnae-productions-7467585.mp4	0.0	215.15096592903137	
47	127.36983108520508	movie	1		164.0	45.0	2.5	/experiments/knapen_aot/videos/R_S_pexels-rodnae-productions-7467585.mp4	0.0	215.15914702415466	2.5083680152893066
47	129.87819910049438	fix_post	2		12.0	45.0	2.5	/experiments/knapen_aot/videos/R_S_pexels-rodnae-productions-7467585.mp4	0.0	217.66751503944397	0.10002779960632324
47	129.95331192016602	response	2	2		45.0	2.5	/experiments/knapen_aot/videos/R_S_pexels-rodnae-productions-7467585.mp4	0.0	217.7426278591156	
48	129.9782269001007	fix_pre	0		53.0	46.0	2.5	/experiments/knapen_aot/videos/R_S_comp_A001_C001_120530_v04_SDR_FINAL_20180706_SDR_2K_AVC.mp4	0.0	217.7675428390503	0.44164514541625977
48	130.40403008460999	response	0	2		46.0	2.5	/experiments/knapen_aot/videos/R_S_comp_A001_C001_120530_v04_SDR_FINAL_20180706_SDR_2K_AVC.mp4	0.0	218.19334602355957	
48	130.41987204551697	movie	1		170.0	46.0	2.5	/experiments/knapen_aot/videos/R_S_comp_A001_C001_120530_v04_SDR_FINAL_20180706_SDR_2K_AVC.mp4	0.0	218.20918798446655	2.5083959102630615
48	132.92826795578003	fix_post	2		12.0	46.0	2.5	/experiments/knapen_aot/videos/R_S_comp_A001_C001_120530_v04_SDR_FINAL_20180706_SDR_2K_AVC.mp4	0.0	220.71758389472961	0.0998990535736084
48	132.97084498405457	response	2	2		46.0	2.5	/experiments/knapen_aot/videos/R_S_comp_A001_C001_120530_v04_SDR_FINAL_20180706_SDR_2K_AVC.mp4	0.0	220.76016092300415	
49	133.02816700935364	fix_pre	0		44.0	47.0	2.5	/experiments/knapen_aot/videos/S_yt-c5IgOXX8YZ0_24.mp4	0.0	220.81748294830322	0.36658287048339844
49	133.38660502433777	response	0	2		47.0	2.5	/experiments/knapen_aot/videos/S_yt-c5IgOXX8YZ0_24.mp4	0.0	221.17592096328735	
49	133.39474987983704	movie	1		301.0	47.0	2.5	/experiments/knapen_aot/videos/S_yt-c5IgOXX8YZ0_24.mp4	0.0	221.18406581878662	2.5084922313690186
49	135.90324211120605	fix_post	2		12.0	47.0	2.5	/experiments/knapen_aot/videos/S_yt-c5IgOXX8YZ0_24.mp4	0.0	223.69255805015564	0.09991693496704102
50	136.0031590461731	fix_pre	0		3.0	48.0	2.5	blank	1.0	223.79247498512268	0.025053024291992188
50	136.019877910614	response	0	2		48.0	2.5	blank	1.0	223.8091938495636	
50	136.0282120704651	movie	1		301.0	48.0	2.5	blank	1.0	223.81752800941467	2.508333921432495
50	138.53654599189758	fix_post	2		12.0	48.0	2.5	blank	1.0	226.32586193084717	0.10071802139282227
51	138.6372640132904	fix_pre	0		18.0	49.0	2.5	/experiments/knapen_aot/videos/S_yt-O6FS0xnF0CU_106.mp4	0.0	226.42657995224	0.149216890335083
51	138.77829694747925	response	0	2		49.0	2.5	/experiments/knapen_aot/videos/S_yt-O6FS0xnF0CU_106.mp4	0.0	226.56761288642883	
51	138.7864809036255	movie	1		301.0	49.0	2.5	/experiments/knapen_aot/videos/S_yt-O6FS0xnF0CU_106.mp4	0.0	226.57579684257507	2.508376121520996
51	141.29485702514648	fix_post	2		12.0	49.0	2.5	/experiments/knapen_aot/videos/S_yt-O6FS0xnF0CU_106.mp4	0.0	229.08417296409607	0.09994792938232422
52	141.3948049545288	fix_pre	0		24.0	50.0	2.5	/experiments/knapen_aot/videos/R_S_yt-8aJDzfAaArQ_75.mp4	0.0	229.1841208934784	0.20073509216308594
52	141.5865330696106	response	0	2		50.0	2.5	/experiments/knapen_aot/videos/R_S_yt-8aJDzfAaArQ_75.mp4	0.0	229.37584900856018	
52	141.5955400466919	movie	1		301.0	50.0	2.5	/experiments/knapen_aot/videos/R_S_yt-8aJDzfAaArQ_75.mp4	0.0	229.38485598564148	2.5075650215148926
52	144.1031050682068	fix_post	2		12.0	50.0	2.5	/experiments/knapen_aot/videos/R_S_yt-8aJDzfAaArQ_75.mp4	0.0	231.89242100715637	0.09998488426208496
53	144.20308995246887	fix_pre	0		30.0	51.0	2.5	/experiments/knapen_aot/videos/R_S_yt-K0CzoUy_uIA_22.mp4	0.0	231.99240589141846	0.25014209747314453
53	144.44487595558167	response	0	2		51.0	2.5	/experiments/knapen_aot/videos/R_S_yt-K0CzoUy_uIA_22.mp4	0.0	232.23419189453125	
53	144.45323204994202	movie	1		301.0	51.0	2.5	/experiments/knapen_aot/videos/R_S_yt-K0CzoUy_uIA_22.mp4	0.0	232.2425479888916	2.508220911026001
53	146.96145296096802	fix_post	2		12.0	51.0	2.5	/experiments/knapen_aot/videos/R_S_yt-K0CzoUy_uIA_22.mp4	0.0	234.7507688999176	0.0999901294708252
54	147.06144309043884	fix_pre	0		5.0	52.0	2.5	/experiments/knapen_aot/videos/S_yt-XYULt48onn4_6.mp4	0.0	234.85075902938843	0.041673898696899414
54	147.09492206573486	response	0	2		52.0	2.5	/experiments/knapen_aot/videos/S_yt-XYULt48onn4_6.mp4	0.0	234.88423800468445	
54	147.10311698913574	movie	1		301.0	52.0	2.5	/experiments/knapen_aot/videos/S_yt-XYULt48onn4_6.mp4	0.0	234.89243292808533	2.508526086807251
54	149.611643075943	fix_post	2		12.0	52.0	2.5	/experiments/knapen_aot/videos/S_yt-XYULt48onn4_6.mp4	0.0	237.40095901489258	0.09994387626647949
55	149.71158695220947	fix_pre	0		19.0	53.0	2.5	/experiments/knapen_aot/videos/S_yt-1V0KJEc4cJ4_203.mp4	0.0	237.50090289115906	0.15818214416503906
55	149.8615219593048	response	0	2		53.0	2.5	/experiments/knapen_aot/videos/S_yt-1V0KJEc4cJ4_203.mp4	0.0	237.6508378982544	
55	149.8697690963745	movie	1		301.0	53.0	2.5	/experiments/knapen_aot/videos/S_yt-1V0KJEc4cJ4_203.mp4	0.0	237.6590850353241	2.508375883102417
55	152.37814497947693	fix_post	2		12.0	53.0	2.5	/experiments/knapen_aot/videos/S_yt-1V0KJEc4cJ4_203.mp4	0.0	240.1674609184265	0.10003113746643066
56	152.47817611694336	fix_pre	0		6.0	54.0	2.5	/experiments/knapen_aot/videos/S_yt-he_RSdeVinA_68.mp4	0.0	240.26749205589294	0.04990577697753906
56	152.51982808113098	response	0	2		54.0	2.5	/experiments/knapen_aot/videos/S_yt-he_RSdeVinA_68.mp4	0.0	240.30914402008057	
56	152.5280818939209	movie	1		301.0	54.0	2.5	/experiments/knapen_aot/videos/S_yt-he_RSdeVinA_68.mp4	0.0	240.31739783287048	2.508385181427002
56	155.0364670753479	fix_post	2		12.0	54.0	2.5	/experiments/knapen_aot/videos/S_yt-he_RSdeVinA_68.mp4	0.0	242.82578301429749	0.09997701644897461
57	155.13644409179688	fix_pre	0		23.0	55.0	2.5	blank	1.0	242.92576003074646	0.191619873046875
57	155.3198220729828	response	0	2		55.0	2.5	blank	1.0	243.10913801193237	
57	155.32806396484375	movie	1		301.0	55.0	2.5	blank	1.0	243.11737990379333	2.508328914642334
57	157.83639287948608	fix_post	2		12.0	55.0	2.5	blank	1.0	245.62570881843567	0.1000981330871582
58	157.93649101257324	fix_pre	0		24.0	56.0	2.5	/experiments/knapen_aot/videos/R_S_yt-s73Xqkcq9Js_285.mp4	0.0	245.72580695152283	0.2004249095916748
58	158.12817406654358	response	0	2		56.0	2.5	/experiments/knapen_aot/videos/R_S_yt-s73Xqkcq9Js_285.mp4	0.0	245.91749000549316	
58	158.13691592216492	movie	1		301.0	56.0	2.5	/experiments/knapen_aot/videos/R_S_yt-s73Xqkcq9Js_285.mp4	0.0	245.9262318611145	2.5078060626983643
58	160.64472198486328	fix_post	2		12.0	56.0	2.5	/experiments/knapen_aot/videos/R_S_yt-s73Xqkcq9Js_285.mp4	0.0	248.43403792381287	0.10001611709594727
59	160.74473810195923	fix_pre	0		9.0	57.0	2.5	/experiments/knapen_aot/videos/S_pexels-roman-odintsov-8232443_1.mp4	0.0	248.5340540409088	0.07498598098754883
59	160.81150102615356	response	0	2		57.0	2.5	/experiments/knapen_aot/videos/S_pexels-roman-odintsov-8232443_1.mp4	0.0	248.60081696510315	
59	160.81972408294678	movie	1		193.0	57.0	2.5	/experiments/knapen_aot/videos/S_pexels-roman-odintsov-8232443_1.mp4	0.0	248.60904002189636	2.5082919597625732
59	163.32801604270935	fix_post	2		12.0	57.0	2.5	/experiments/knapen_aot/videos/S_pexels-roman-odintsov-8232443_1.mp4	0.0	251.11733198165894	0.10005688667297363
60	163.42807292938232	fix_pre	0		2.0	58.0	2.5	/experiments/knapen_aot/videos/R_S_yt-kuzdrmHa-W0_39.mp4	0.0	251.2173888683319	0.01666998863220215
60	163.43652510643005	response	0	2		58.0	2.5	/experiments/knapen_aot/videos/R_S_yt-kuzdrmHa-W0_39.mp4	0.0	251.22584104537964	
60	163.44474291801453	movie	1		301.0	58.0	2.5	/experiments/knapen_aot/videos/R_S_yt-kuzdrmHa-W0_39.mp4	0.0	251.2340588569641	2.5083019733428955
60	165.95304489135742	fix_post	2		12.0	58.0	2.5	/experiments/knapen_aot/videos/R_S_yt-kuzdrmHa-W0_39.mp4	0.0	253.742360830307	0.10054802894592285
61	166.05359292030334	fix_pre	0		17.0	59.0	2.5	/experiments/knapen_aot/videos/R_S_comp_GMT329_117NC_401C_1037_IRELAND_TO_ASIA_v48_SDR_PS_FINAL_20180725_F0F6300_SDR_2K_AVC.mp4	0.0	253.84290885925293	0.14110517501831055
61	166.186448097229	response	0	2		59.0	2.5	/experiments/knapen_aot/videos/R_S_comp_GMT329_117NC_401C_1037_IRELAND_TO_ASIA_v48_SDR_PS_FINAL_20180725_F0F6300_SDR_2K_AVC.mp4	0.0	253.9757640361786	
61	166.19469809532166	movie	1		164.0	59.0	2.5	/experiments/knapen_aot/videos/R_S_comp_GMT329_117NC_401C_1037_IRELAND_TO_ASIA_v48_SDR_PS_FINAL_20180725_F0F6300_SDR_2K_AVC.mp4	0.0	253.98401403427124	2.508356809616089
61	168.70305490493774	fix_post	2		12.0	59.0	2.5	/experiments/knapen_aot/videos/R_S_comp_GMT329_117NC_401C_1037_IRELAND_TO_ASIA_v48_SDR_PS_FINAL_20180725_F0F6300_SDR_2K_AVC.mp4	0.0	256.49237084388733	0.1000051498413086
62	168.80306005477905	fix_pre	0		10.0	60.0	2.5	/experiments/knapen_aot/videos/S_comp_LA_A005_C009_PSNK_ALT_v09_SDR_PS_201809134_SDR_2K_AVC.mp4	0.0	256.59237599372864	0.08387398719787598
62	168.8782958984375	response	0	2		60.0	2.5	/experiments/knapen_aot/videos/S_comp_LA_A005_C009_PSNK_ALT_v09_SDR_PS_201809134_SDR_2K_AVC.mp4	0.0	256.6676118373871	
62	168.88693404197693	movie	1		168.0	60.0	2.5	/experiments/knapen_aot/videos/S_comp_LA_A005_C009_PSNK_ALT_v09_SDR_PS_201809134_SDR_2K_AVC.mp4	0.0	256.6762499809265	2.507844924926758
62	171.3947789669037	fix_post	2		12.0	60.0	2.5	/experiments/knapen_aot/videos/S_comp_LA_A005_C009_PSNK_ALT_v09_SDR_PS_201809134_SDR_2K_AVC.mp4	0.0	259.18409490585327	0.09999704360961914
62	171.46982789039612	response	2	2		60.0	2.5	/experiments/knapen_aot/videos/S_comp_LA_A005_C009_PSNK_ALT_v09_SDR_PS_201809134_SDR_2K_AVC.mp4	0.0	259.2591438293457	
63	171.4947760105133	fix_pre	0		52.0	61.0	2.5	blank	1.0	259.2840919494629	0.43364691734313965
63	171.919823884964	response	0	2		61.0	2.5	blank	1.0	259.7091398239136	
63	171.92842292785645	movie	1		301.0	61.0	2.5	blank	1.0	259.71773886680603	2.5079240798950195
63	174.43634700775146	fix_post	2		12.0	61.0	2.5	blank	1.0	262.22566294670105	0.09999608993530273
64	174.53634309768677	fix_pre	0		24.0	62.0	2.5	/experiments/knapen_aot/videos/S_yt-GWgG8PVM1iw_34.mp4	0.0	262.32565903663635	0.19994497299194336
64	174.72814202308655	response	0	2		62.0	2.5	/experiments/knapen_aot/videos/S_yt-GWgG8PVM1iw_34.mp4	0.0	262.51745796203613	
64	174.7362880706787	movie	1		301.0	62.0	2.5	/experiments/knapen_aot/videos/S_yt-GWgG8PVM1iw_34.mp4	0.0	262.5256040096283	2.508384943008423
64	177.24467301368713	fix_post	2		12.0	62.0	2.5	/experiments/knapen_aot/videos/S_yt-GWgG8PVM1iw_34.mp4	0.0	265.0339889526367	0.1000070571899414
65	177.34468007087708	fix_pre	0		40.0	63.0	2.5	/experiments/knapen_aot/videos/R_S_yt-pKl8nduxfTI_798.mp4	0.0	265.13399600982666	0.3337118625640869
65	177.66978001594543	response	0	2		63.0	2.5	/experiments/knapen_aot/videos/R_S_yt-pKl8nduxfTI_798.mp4	0.0	265.459095954895	
65	177.67839193344116	movie	1		301.0	63.0	2.5	/experiments/knapen_aot/videos/R_S_yt-pKl8nduxfTI_798.mp4	0.0	265.46770787239075	2.5079541206359863
65	180.18634605407715	fix_post	2		12.0	63.0	2.5	/experiments/knapen_aot/videos/R_S_yt-pKl8nduxfTI_798.mp4	0.0	267.97566199302673	0.09995794296264648
66	180.2863039970398	fix_pre	0		40.0	64.0	2.5	/experiments/knapen_aot/videos/R_S_flickr-53807584@N00-5565833509_7.mp4	0.0	268.0756199359894	0.3332788944244385
66	180.6040050983429	response	0	2		64.0	2.5	/experiments/knapen_aot/videos/R_S_flickr-53807584@N00-5565833509_7.mp4	0.0	268.3933210372925	
66	180.61958289146423	movie	1		301.0	64.0	2.5	/experiments/knapen_aot/videos/R_S_flickr-53807584@N00-5565833509_7.mp4	0.0	268.4088988304138	2.508390188217163
66	183.1279730796814	fix_post	2		12.0	64.0	2.5	/experiments/knapen_aot/videos/R_S_flickr-53807584@N00-5565833509_7.mp4	0.0	270.917289018631	0.09998202323913574
67	183.22795510292053	fix_pre	0		1.0	65.0	2.5	/experiments/knapen_aot/videos/R_S_BO_A012_C031_SDR_20190726_SDR_2K_AVC.mp4	0.0	271.0172710418701	0.008291959762573242
67	183.22952795028687	response	0	2		65.0	2.5	/experiments/knapen_aot/videos/R_S_BO_A012_C031_SDR_20190726_SDR_2K_AVC.mp4	0.0	271.01884388923645	
67	183.2362470626831	movie	1		166.0	65.0	2.5	/experiments/knapen_aot/videos/R_S_BO_A012_C031_SDR_20190726_SDR_2K_AVC.mp4	0.0	271.0255630016327	2.508441925048828
67	185.74468898773193	fix_post	2		12.0	65.0	2.5	/experiments/knapen_aot/videos/R_S_BO_A012_C031_SDR_20190726_SDR_2K_AVC.mp4	0.0	273.5340049266815	0.09991693496704102
68	185.84460592269897	fix_pre	0		13.0	66.0	2.5	/experiments/knapen_aot/videos/S_ILSVRC2015_train_00471000.mp4	0.0	273.63392186164856	0.10830998420715332
68	185.94476008415222	response	0	2		66.0	2.5	/experiments/knapen_aot/videos/S_ILSVRC2015_train_00471000.mp4	0.0	273.7340760231018	
68	185.95291590690613	movie	1		301.0	66.0	2.5	/experiments/knapen_aot/videos/S_ILSVRC2015_train_00471000.mp4	0.0	273.7422318458557	2.5083460807800293
68	188.46126198768616	fix_post	2		12.0	66.0	2.5	/experiments/knapen_aot/videos/S_ILSVRC2015_train_00471000.mp4	0.0	276.25057792663574	0.10003495216369629
69	188.56129693984985	fix_pre	0		16.0	67.0	2.5	/experiments/knapen_aot/videos/S_yt-a0axt7n0GuQ_19.mp4	0.0	276.35061287879944	0.13329601287841797
69	188.68641591072083	response	0	2		67.0	2.5	/experiments/knapen_aot/videos/S_yt-a0axt7n0GuQ_19.mp4	0.0	276.4757318496704	
69	188.69459295272827	movie	1		301.0	67.0	2.5	/experiments/knapen_aot/videos/S_yt-a0axt7n0GuQ_19.mp4	0.0	276.48390889167786	2.508373975753784
69	191.20296692848206	fix_post	2		12.0	67.0	2.5	/experiments/knapen_aot/videos/S_yt-a0axt7n0GuQ_19.mp4	0.0	278.99228286743164	0.10055899620056152
70	191.30352592468262	fix_pre	0		17.0	68.0	2.5	blank	1.0	279.0928418636322	0.14116597175598145
70	191.43635511398315	response	0	2		68.0	2.5	blank	1.0	279.22567105293274	
70	191.4446918964386	movie	1		301.0	68.0	2.5	blank	1.0	279.2340078353882	2.508228063583374
70	193.95291996002197	fix_post	2		12.0	68.0	2.5	blank	1.0	281.74223589897156	0.09997010231018066
71	194.05289006233215	fix_pre	0		48.0	69.0	2.5	/experiments/knapen_aot/videos/R_S_production_ID_3735542.mp4	0.0	281.84220600128174	0.400007963180542
71	194.44480800628662	response	0	2		69.0	2.5	/experiments/knapen_aot/videos/R_S_production_ID_3735542.mp4	0.0	282.2341239452362	
71	194.4528980255127	movie	1		164.0	69.0	2.5	/experiments/knapen_aot/videos/R_S_production_ID_3735542.mp4	0.0	282.2422139644623	2.508347988128662
71	196.96124601364136	fix_post	2		12.0	69.0	2.5	/experiments/knapen_aot/videos/R_S_production_ID_3735542.mp4	0.0	284.75056195259094	0.10000205039978027
72	197.06124806404114	fix_pre	0		21.0	70.0	2.5	/experiments/knapen_aot/videos/S_wc-8bTJmWfuVyJ4_8.mp4	0.0	284.8505640029907	0.1750798225402832
72	197.22800302505493	response	0	2		70.0	2.5	/experiments/knapen_aot/videos/S_wc-8bTJmWfuVyJ4_8.mp4	0.0	285.0173189640045	
72	197.23632788658142	movie	1		171.0	70.0	2.5	/experiments/knapen_aot/videos/S_wc-8bTJmWfuVyJ4_8.mp4	0.0	285.025643825531	2.508657217025757
72	199.74498510360718	fix_post	2		12.0	70.0	2.5	/experiments/knapen_aot/videos/S_wc-8bTJmWfuVyJ4_8.mp4	0.0	287.53430104255676	0.09976887702941895
73	199.8447539806366	fix_pre	0		15.0	71.0	2.5	/experiments/knapen_aot/videos/R_S_yt-N7ztk2fa3Ls_137.mp4	0.0	287.6340699195862	0.12510108947753906
73	199.9613790512085	response	0	2		71.0	2.5	/experiments/knapen_aot/videos/R_S_yt-N7ztk2fa3Ls_137.mp4	0.0	287.7506949901581	
73	199.96985507011414	movie	1		301.0	71.0	2.5	/experiments/knapen_aot/videos/R_S_yt-N7ztk2fa3Ls_137.mp4	0.0	287.7591710090637	2.50809383392334
73	202.47794890403748	fix_post	2		12.0	71.0	2.5	/experiments/knapen_aot/videos/R_S_yt-N7ztk2fa3Ls_137.mp4	0.0	290.26726484298706	0.09991717338562012
74	202.5778660774231	fix_pre	0		24.0	72.0	2.5	/experiments/knapen_aot/videos/R_S_yt-XYULt48onn4_6.mp4	0.0	290.3671820163727	0.19990992546081543
74	202.76209902763367	response	0	2		72.0	2.5	/experiments/knapen_aot/videos/R_S_yt-XYULt48onn4_6.mp4	0.0	290.55141496658325	
74	202.7777760028839	movie	1		301.0	72.0	2.5	/experiments/knapen_aot/videos/R_S_yt-XYULt48onn4_6.mp4	0.0	290.5670919418335	2.5083720684051514
74	205.28614807128906	fix_post	2		12.0	72.0	2.5	/experiments/knapen_aot/videos/R_S_yt-XYULt48onn4_6.mp4	0.0	293.07546401023865	0.10045003890991211
75	205.38659811019897	fix_pre	0		21.0	73.0	2.5	/experiments/knapen_aot/videos/R_S_pexels-c-technical-6753390_2.mp4	0.0	293.17591404914856	0.17455291748046875
75	205.55291104316711	response	0	2		73.0	2.5	/experiments/knapen_aot/videos/R_S_pexels-c-technical-6753390_2.mp4	0.0	293.3422269821167	
75	205.56115102767944	movie	1		196.0	73.0	2.5	/experiments/knapen_aot/videos/R_S_pexels-c-technical-6753390_2.mp4	0.0	293.350466966629	2.5085089206695557
75	208.069659948349	fix_post	2		12.0	73.0	2.5	/experiments/knapen_aot/videos/R_S_pexels-c-technical-6753390_2.mp4	0.0	295.8589758872986	0.09990310668945312
76	208.16956305503845	fix_pre	0		2.0	74.0	2.5	/experiments/knapen_aot/videos/R_S_xTlFOCRvy68_1564.mp4	0.0	295.95887899398804	0.016562938690185547
76	208.17850804328918	response	0	2		74.0	2.5	/experiments/knapen_aot/videos/R_S_xTlFOCRvy68_1564.mp4	0.0	295.96782398223877	
76	208.18612599372864	movie	1		301.0	74.0	2.5	/experiments/knapen_aot/videos/R_S_xTlFOCRvy68_1564.mp4	0.0	295.9754419326782	2.5084710121154785
76	210.69459700584412	fix_post	2		12.0	74.0	2.5	/experiments/knapen_aot/videos/R_S_xTlFOCRvy68_1564.mp4	0.0	298.4839129447937	0.1000359058380127
77	210.79463291168213	fix_pre	0		15.0	75.0	2.5	blank	1.0	298.5839488506317	0.12475109100341797
77	210.90379810333252	response	0	2		75.0	2.5	blank	1.0	298.6931140422821	
77	210.91938400268555	movie	1		301.0	75.0	2.5	blank	1.0	298.70869994163513	2.5084009170532227
77	213.42778491973877	fix_post	2		12.0	75.0	2.5	blank	1.0	301.21710085868835	0.10013318061828613
78	213.52791810035706	fix_pre	0		67.0	76.0	2.5	/experiments/knapen_aot/videos/S_comp_A001_C001_120530_v04_SDR_FINAL_20180706_SDR_2K_AVC.mp4	0.0	301.31723403930664	0.5581398010253906
78	214.07795190811157	response	0	2		76.0	2.5	/experiments/knapen_aot/videos/S_comp_A001_C001_120530_v04_SDR_FINAL_20180706_SDR_2K_AVC.mp4	0.0	301.86726784706116	
78	214.08605790138245	movie	1		165.0	76.0	2.5	/experiments/knapen_aot/videos/S_comp_A001_C001_120530_v04_SDR_FINAL_20180706_SDR_2K_AVC.mp4	0.0	301.87537384033203	2.5085721015930176
78	216.59463000297546	fix_post	2		12.0	76.0	2.5	/experiments/knapen_aot/videos/S_comp_A001_C001_120530_v04_SDR_FINAL_20180706_SDR_2K_AVC.mp4	0.0	304.38394594192505	0.09985494613647461
79	216.69448494911194	fix_pre	0		21.0	77.0	2.5	/experiments/knapen_aot/videos/R_S_ahJft-G235A_122.mp4	0.0	304.4838008880615	0.17508912086486816
79	216.86128497123718	response	0	2		77.0	2.5	/experiments/knapen_aot/videos/R_S_ahJft-G235A_122.mp4	0.0	304.65060091018677	
79	216.8695740699768	movie	1		301.0	77.0	2.5	/experiments/knapen_aot/videos/R_S_ahJft-G235A_122.mp4	0.0	304.6588900089264	2.50836181640625
79	219.37793588638306	fix_post	2		12.0	77.0	2.5	/experiments/knapen_aot/videos/R_S_ahJft-G235A_122.mp4	0.0	307.16725182533264	0.09988617897033691
80	219.4778220653534	fix_pre	0		8.0	78.0	2.5	/experiments/knapen_aot/videos/R_S_ILSVRC2015_train_00363000.mp4	0.0	307.267138004303	0.06672096252441406
80	219.53623509407043	response	0	2		78.0	2.5	/experiments/knapen_aot/videos/R_S_ILSVRC2015_train_00363000.mp4	0.0	307.32555103302	
80	219.5445430278778	movie	1		301.0	78.0	2.5	/experiments/knapen_aot/videos/R_S_ILSVRC2015_train_00363000.mp4	0.0	307.3338589668274	2.5083038806915283
80	222.05284690856934	fix_post	2		12.0	78.0	2.5	/experiments/knapen_aot/videos/R_S_ILSVRC2015_train_00363000.mp4	0.0	309.8421628475189	0.09998607635498047
81	222.15283298492432	fix_pre	0		6.0	79.0	2.5	/experiments/knapen_aot/videos/S_yt-5doJmCcFL7s_3.mp4	0.0	309.9421489238739	0.04993104934692383
81	222.19462895393372	response	0	2		79.0	2.5	/experiments/knapen_aot/videos/S_yt-5doJmCcFL7s_3.mp4	0.0	309.9839448928833	
81	222.20276403427124	movie	1		301.0	79.0	2.5	/experiments/knapen_aot/videos/S_yt-5doJmCcFL7s_3.mp4	0.0	309.9920799732208	2.508380889892578
81	224.71114492416382	fix_post	2		12.0	79.0	2.5	/experiments/knapen_aot/videos/S_yt-5doJmCcFL7s_3.mp4	0.0	312.5004608631134	0.10002398490905762
82	224.81116890907288	fix_pre	0		14.0	80.0	2.5	/experiments/knapen_aot/videos/R_S_yt-TNtO8RPd3iE_25.mp4	0.0	312.60048484802246	0.11679816246032715
82	224.9194929599762	response	0	2		80.0	2.5	/experiments/knapen_aot/videos/R_S_yt-TNtO8RPd3iE_25.mp4	0.0	312.7088088989258	
82	224.9279670715332	movie	1		301.0	80.0	2.5	/experiments/knapen_aot/videos/R_S_yt-TNtO8RPd3iE_25.mp4	0.0	312.7172830104828	2.5081558227539062
82	227.4361228942871	fix_post	2		12.0	80.0	2.5	/experiments/knapen_aot/videos/R_S_yt-TNtO8RPd3iE_25.mp4	0.0	315.2254388332367	0.1001741886138916
83	227.536297082901	fix_pre	0		16.0	81.0	2.5	/experiments/knapen_aot/videos/R_S_comp_A001_C001_120530_v04_SDR_FINAL_20180706_SDR_2K_AVC.mp4	0.0	315.3256130218506	0.13316798210144043
83	227.66124892234802	response	0	2		81.0	2.5	/experiments/knapen_aot/videos/R_S_comp_A001_C001_120530_v04_SDR_FINAL_20180706_SDR_2K_AVC.mp4	0.0	315.4505648612976	
83	227.66946506500244	movie	1		168.0	81.0	2.5	/experiments/knapen_aot/videos/R_S_comp_A001_C001_120530_v04_SDR_FINAL_20180706_SDR_2K_AVC.mp4	0.0	315.458781003952	2.5085129737854004
83	230.17797803878784	fix_post	2		12.0	81.0	2.5	/experiments/knapen_aot/videos/R_S_comp_A001_C001_120530_v04_SDR_FINAL_20180706_SDR_2K_AVC.mp4	0.0	317.9672939777374	0.09973692893981934
83	230.26953792572021	response	2	2		81.0	2.5	/experiments/knapen_aot/videos/R_S_comp_A001_C001_120530_v04_SDR_FINAL_20180706_SDR_2K_AVC.mp4	0.0	318.0588538646698	
84	230.27771496772766	fix_pre	0		57.0	82.0	2.5	/experiments/knapen_aot/videos/S_yt-c5IgOXX8YZ0_24.mp4	0.0	318.06703090667725	0.474992036819458
84	230.74453592300415	response	0	2		82.0	2.5	/experiments/knapen_aot/videos/S_yt-c5IgOXX8YZ0_24.mp4	0.0	318.53385186195374	
84	230.75270700454712	movie	1		301.0	82.0	2.5	/experiments/knapen_aot/videos/S_yt-c5IgOXX8YZ0_24.mp4	0.0	318.5420229434967	2.508413076400757
84	233.26112008094788	fix_post	2		12.0	82.0	2.5	/experiments/knapen_aot/videos/S_yt-c5IgOXX8YZ0_24.mp4	0.0	321.05043601989746	0.09995889663696289
85	233.36107897758484	fix_pre	0		21.0	83.0	2.5	blank	1.0	321.1503949165344	0.17499303817749023
85	233.52785110473633	response	0	2		83.0	2.5	blank	1.0	321.3171670436859	
85	233.53607201576233	movie	1		301.0	83.0	2.5	blank	1.0	321.3253879547119	2.508354902267456
85	236.04442691802979	fix_post	2		12.0	83.0	2.5	blank	1.0	323.83374285697937	0.10005712509155273
87	236.14448404312134	stim	0		318.0					323.9337999820709	2.6514270305633545
87	236.38642692565918	response	0	2						324.17574286460876	
87	238.78756308555603	response	0	space						326.5768790245056	
