trial_nr	onset	event_type	phase	response	nr_frames	movie_index	movie_duration	movie_file	blank	onset_abs	duration
0	0.11699390411376953	stim	0		30.0					96.05315780639648	0.2501051425933838
0	0.35850095748901367	response	0	space						96.29466485977173	
1	0.3670990467071533	stim	0		121.0					96.30326294898987	1.0075600147247314
1	1.3746590614318848	stim	1		120.0					97.3108229637146	1.0000579357147217
1	2.3413779735565186	response	1	space						98.27754187583923	
2	2.3747169971466064	fix_pre	0		40.0	0.0	2.5	/experiments/knapen_aot/videos/R_S_wc-jujp1kJRHrkJ_54.mp4	0.0	98.31088089942932	0.3332030773162842
2	2.699805974960327	response	0	space		0.0	2.5	/experiments/knapen_aot/videos/R_S_wc-jujp1kJRHrkJ_54.mp4	0.0	98.63596987724304	
2	2.7079200744628906	movie	1		301.0	0.0	2.5	/experiments/knapen_aot/videos/R_S_wc-jujp1kJRHrkJ_54.mp4	0.0	98.6440839767456	2.5083699226379395
2	5.21628999710083	fix_post	2		12.0	0.0	2.5	/experiments/knapen_aot/videos/R_S_wc-jujp1kJRHrkJ_54.mp4	0.0	101.15245389938354	0.10008096694946289
3	5.316370964050293	fix_pre	0		88.0	1.0	2.5	/experiments/knapen_aot/videos/S_yt-QD74nNliDvI_10.mp4	0.0	101.25253486633301	0.7377579212188721
3	6.046391010284424	response	0	4		1.0	2.5	/experiments/knapen_aot/videos/S_yt-QD74nNliDvI_10.mp4	0.0	101.98255491256714	
3	6.054128885269165	movie	1		297.0	1.0	2.5	/experiments/knapen_aot/videos/S_yt-QD74nNliDvI_10.mp4	0.0	101.99029278755188	2.5040671825408936
3	8.558196067810059	fix_post	2		12.0	1.0	2.5	/experiments/knapen_aot/videos/S_yt-QD74nNliDvI_10.mp4	0.0	104.49435997009277	0.10021305084228516
4	8.658409118652344	fix_pre	0		44.0	2.0	2.5	/experiments/knapen_aot/videos/S_Pexels_Videos_2376809.mp4	0.0	104.59457302093506	0.366257905960083
4	9.008970975875854	response	0	4		2.0	2.5	/experiments/knapen_aot/videos/S_Pexels_Videos_2376809.mp4	0.0	104.94513487815857	
4	9.024667024612427	movie	1		167.0	2.0	2.5	/experiments/knapen_aot/videos/S_Pexels_Videos_2376809.mp4	0.0	104.96083092689514	2.5083229541778564
4	11.532989978790283	fix_post	2		12.0	2.0	2.5	/experiments/knapen_aot/videos/S_Pexels_Videos_2376809.mp4	0.0	107.469153881073	0.0999441146850586
5	11.632934093475342	fix_pre	0		63.0	3.0	2.5	/experiments/knapen_aot/videos/S_yt-jy7rAnpu0u8_128.mp4	0.0	107.56909799575806	0.5252759456634521
5	12.149830102920532	response	0	4		3.0	2.5	/experiments/knapen_aot/videos/S_yt-jy7rAnpu0u8_128.mp4	0.0	108.08599400520325	
5	12.158210039138794	movie	1		301.0	3.0	2.5	/experiments/knapen_aot/videos/S_yt-jy7rAnpu0u8_128.mp4	0.0	108.09437394142151	2.5081729888916016
5	14.666383028030396	fix_post	2		12.0	3.0	2.5	/experiments/knapen_aot/videos/S_yt-jy7rAnpu0u8_128.mp4	0.0	110.60254693031311	0.09996795654296875
6	14.766350984573364	fix_pre	0		74.0	4.0	2.5	/experiments/knapen_aot/videos/S_yt-KLInd-KrK_w_19.mp4	0.0	110.70251488685608	0.616569995880127
6	15.37475299835205	response	0	4		4.0	2.5	/experiments/knapen_aot/videos/S_yt-KLInd-KrK_w_19.mp4	0.0	111.31091690063477	
6	15.382920980453491	movie	1		301.0	4.0	2.5	/experiments/knapen_aot/videos/S_yt-KLInd-KrK_w_19.mp4	0.0	111.3190848827362	2.508342981338501
6	17.891263961791992	fix_post	2		12.0	4.0	2.5	/experiments/knapen_aot/videos/S_yt-KLInd-KrK_w_19.mp4	0.0	113.8274278640747	0.10028600692749023
7	17.991549968719482	fix_pre	0		53.0	5.0	2.5	/experiments/knapen_aot/videos/S_yt-tfHCqgH1guY_235.mp4	0.0	113.9277138710022	0.4413580894470215
7	18.424787044525146	response	0	4		5.0	2.5	/experiments/knapen_aot/videos/S_yt-tfHCqgH1guY_235.mp4	0.0	114.36095094680786	
7	18.432908058166504	movie	1		301.0	5.0	2.5	/experiments/knapen_aot/videos/S_yt-tfHCqgH1guY_235.mp4	0.0	114.36907196044922	2.508327007293701
7	20.941235065460205	fix_post	2		12.0	5.0	2.5	/experiments/knapen_aot/videos/S_yt-tfHCqgH1guY_235.mp4	0.0	116.87739896774292	0.10006093978881836
8	21.041296005249023	fix_pre	0		75.0	6.0	2.5	/experiments/knapen_aot/videos/S_yt-QD74nNliDvI_10.mp4	0.0	116.97745990753174	0.6249499320983887
8	21.658045053482056	response	0	4		6.0	2.5	/experiments/knapen_aot/videos/S_yt-QD74nNliDvI_10.mp4	0.0	117.59420895576477	
8	21.666245937347412	movie	1		301.0	6.0	2.5	/experiments/knapen_aot/videos/S_yt-QD74nNliDvI_10.mp4	0.0	117.60240983963013	2.508347988128662
8	24.174593925476074	fix_post	2		12.0	6.0	2.5	/experiments/knapen_aot/videos/S_yt-QD74nNliDvI_10.mp4	0.0	120.11075782775879	0.10001397132873535
9	24.27460789680481	fix_pre	0		33.0	7.0	2.5	blank	1.0	120.21077179908752	0.2749791145324707
9	24.541322946548462	response	0	4		7.0	2.5	blank	1.0	120.47748684883118	
9	24.54958701133728	movie	1		301.0	7.0	2.5	blank	1.0	120.48575091362	2.50827693939209
9	27.05786395072937	fix_post	2		12.0	7.0	2.5	blank	1.0	122.99402785301208	0.10028600692749023
10	27.15814995765686	fix_pre	0		27.0	8.0	2.5	/experiments/knapen_aot/videos/R_S_yt-4qU-6TEW06E_38.mp4	0.0	123.09431385993958	0.22478795051574707
10	27.37460494041443	response	0	4		8.0	2.5	/experiments/knapen_aot/videos/R_S_yt-4qU-6TEW06E_38.mp4	0.0	123.31076884269714	
10	27.382937908172607	movie	1		301.0	8.0	2.5	/experiments/knapen_aot/videos/R_S_yt-4qU-6TEW06E_38.mp4	0.0	123.31910181045532	2.5082831382751465
10	29.891221046447754	fix_post	2		12.0	8.0	2.5	/experiments/knapen_aot/videos/R_S_yt-4qU-6TEW06E_38.mp4	0.0	125.82738494873047	0.10030794143676758
11	29.99152898788452	fix_pre	0		65.0	9.0	2.5	/experiments/knapen_aot/videos/R_S_yt-316ecr1BT84_44.mp4	0.0	125.92769289016724	0.5416018962860107
11	30.524707078933716	response	0	4		9.0	2.5	/experiments/knapen_aot/videos/R_S_yt-316ecr1BT84_44.mp4	0.0	126.46087098121643	
11	30.533130884170532	movie	1		301.0	9.0	2.5	/experiments/knapen_aot/videos/R_S_yt-316ecr1BT84_44.mp4	0.0	126.46929478645325	2.5081050395965576
11	33.04123592376709	fix_post	2		12.0	9.0	2.5	/experiments/knapen_aot/videos/R_S_yt-316ecr1BT84_44.mp4	0.0	128.9773998260498	0.09993815422058105
12	33.14117407798767	fix_pre	0		51.0	10.0	2.5	/experiments/knapen_aot/videos/S_yt-GO26QIueqRw_385.mp4	0.0	129.07733798027039	0.42504286766052246
12	33.558011054992676	response	0	4		10.0	2.5	/experiments/knapen_aot/videos/S_yt-GO26QIueqRw_385.mp4	0.0	129.4941749572754	
12	33.56621694564819	movie	1		301.0	10.0	2.5	/experiments/knapen_aot/videos/S_yt-GO26QIueqRw_385.mp4	0.0	129.5023808479309	2.5085079669952393
12	36.07472491264343	fix_post	2		12.0	10.0	2.5	/experiments/knapen_aot/videos/S_yt-GO26QIueqRw_385.mp4	0.0	132.01088881492615	0.0998389720916748
13	36.17456388473511	fix_pre	0		31.0	11.0	2.5	/experiments/knapen_aot/videos/R_S_yt-26obL-Z5obg_131.mp4	0.0	132.11072778701782	0.2583010196685791
13	36.424654960632324	response	0	4		11.0	2.5	/experiments/knapen_aot/videos/R_S_yt-26obL-Z5obg_131.mp4	0.0	132.36081886291504	
13	36.43286490440369	movie	1		301.0	11.0	2.5	/experiments/knapen_aot/videos/R_S_yt-26obL-Z5obg_131.mp4	0.0	132.3690288066864	2.5083980560302734
13	38.94126296043396	fix_post	2		12.0	11.0	2.5	/experiments/knapen_aot/videos/R_S_yt-26obL-Z5obg_131.mp4	0.0	134.87742686271667	0.09993910789489746
14	39.04120206832886	fix_pre	0		46.0	12.0	2.5	/experiments/knapen_aot/videos/S_yt-tX5U0Lyo6Gs_376.mp4	0.0	134.97736597061157	0.38326096534729004
14	39.41633892059326	response	0	4		12.0	2.5	/experiments/knapen_aot/videos/S_yt-tX5U0Lyo6Gs_376.mp4	0.0	135.35250282287598	
14	39.42446303367615	movie	1		301.0	12.0	2.5	/experiments/knapen_aot/videos/S_yt-tX5U0Lyo6Gs_376.mp4	0.0	135.36062693595886	2.5083930492401123
14	41.93285608291626	fix_post	2		12.0	12.0	2.5	/experiments/knapen_aot/videos/S_yt-tX5U0Lyo6Gs_376.mp4	0.0	137.86901998519897	0.1002039909362793
15	42.03306007385254	fix_pre	0		51.0	13.0	2.5	/experiments/knapen_aot/videos/S_flickr-53807584@N00-5565833509_7.mp4	0.0	137.96922397613525	0.4248018264770508
15	42.44967603683472	response	0	4		13.0	2.5	/experiments/knapen_aot/videos/S_flickr-53807584@N00-5565833509_7.mp4	0.0	138.38583993911743	
15	42.45786190032959	movie	1		301.0	13.0	2.5	/experiments/knapen_aot/videos/S_flickr-53807584@N00-5565833509_7.mp4	0.0	138.3940258026123	2.5083420276641846
15	44.966203927993774	fix_post	2		12.0	13.0	2.5	/experiments/knapen_aot/videos/S_flickr-53807584@N00-5565833509_7.mp4	0.0	140.9023678302765	0.099945068359375
16	45.06614899635315	fix_pre	0		64.0	14.0	2.5	blank	1.0	141.00231289863586	0.5334079265594482
16	45.59132504463196	response	0	4		14.0	2.5	blank	1.0	141.52748894691467	
16	45.5995569229126	movie	1		301.0	14.0	2.5	blank	1.0	141.5357208251953	2.508193016052246
16	48.107749938964844	fix_post	2		12.0	14.0	2.5	blank	1.0	144.04391384124756	0.10019207000732422
17	48.20794200897217	fix_pre	0		26.0	15.0	2.5	/experiments/knapen_aot/videos/R_S_yt-MUfa26F8dfE_97.mp4	0.0	144.14410591125488	0.21649503707885742
17	48.41636395454407	response	0	4		15.0	2.5	/experiments/knapen_aot/videos/R_S_yt-MUfa26F8dfE_97.mp4	0.0	144.35252785682678	
17	48.424437046051025	movie	1		301.0	15.0	2.5	/experiments/knapen_aot/videos/R_S_yt-MUfa26F8dfE_97.mp4	0.0	144.36060094833374	2.508631944656372
17	50.9330689907074	fix_post	2		12.0	15.0	2.5	/experiments/knapen_aot/videos/R_S_yt-MUfa26F8dfE_97.mp4	0.0	146.8692328929901	0.09988093376159668
18	51.032949924468994	fix_pre	0		102.0	16.0	2.5	/experiments/knapen_aot/videos/S_yt-OLDm2slgfA4_3.mp4	0.0	146.9691138267517	0.8498120307922363
18	51.87462091445923	response	0	4		16.0	2.5	/experiments/knapen_aot/videos/S_yt-OLDm2slgfA4_3.mp4	0.0	147.81078481674194	
18	51.88276195526123	movie	1		301.0	16.0	2.5	/experiments/knapen_aot/videos/S_yt-OLDm2slgfA4_3.mp4	0.0	147.81892585754395	2.5083799362182617
18	54.39114189147949	fix_post	2		12.0	16.0	2.5	/experiments/knapen_aot/videos/S_yt-OLDm2slgfA4_3.mp4	0.0	150.3273057937622	0.10008811950683594
19	54.49123001098633	fix_pre	0		32.0	17.0	2.5	/experiments/knapen_aot/videos/S_video-2.mp4	0.0	150.42739391326904	0.26651597023010254
19	54.74956488609314	response	0	4		17.0	2.5	/experiments/knapen_aot/videos/S_video-2.mp4	0.0	150.68572878837585	
19	54.75774598121643	movie	1		164.0	17.0	2.5	/experiments/knapen_aot/videos/S_video-2.mp4	0.0	150.69390988349915	2.5085599422454834
19	57.266305923461914	fix_post	2		12.0	17.0	2.5	/experiments/knapen_aot/videos/S_video-2.mp4	0.0	153.20246982574463	0.09989309310913086
20	57.366199016571045	fix_pre	0		32.0	18.0	2.5	/experiments/knapen_aot/videos/S_yt-wVMhACNFF-M_154.mp4	0.0	153.30236291885376	0.2665069103240967
20	57.62455606460571	response	0	4		18.0	2.5	/experiments/knapen_aot/videos/S_yt-wVMhACNFF-M_154.mp4	0.0	153.56071996688843	
20	57.63270592689514	movie	1		301.0	18.0	2.5	/experiments/knapen_aot/videos/S_yt-wVMhACNFF-M_154.mp4	0.0	153.56886982917786	2.5084409713745117
20	60.14114689826965	fix_post	2		12.0	18.0	2.5	/experiments/knapen_aot/videos/S_yt-wVMhACNFF-M_154.mp4	0.0	156.07731080055237	0.10001516342163086
21	60.241162061691284	fix_pre	0		39.0	19.0	2.5	/experiments/knapen_aot/videos/R_S_yt-aD-EAuBdpUo_163.mp4	0.0	156.177325963974	0.3248779773712158
21	60.55788588523865	response	0	4		19.0	2.5	/experiments/knapen_aot/videos/R_S_yt-aD-EAuBdpUo_163.mp4	0.0	156.49404978752136	
21	60.5660400390625	movie	1		301.0	19.0	2.5	/experiments/knapen_aot/videos/R_S_yt-aD-EAuBdpUo_163.mp4	0.0	156.50220394134521	2.508424997329712
21	63.07446503639221	fix_post	2		12.0	19.0	2.5	/experiments/knapen_aot/videos/R_S_yt-aD-EAuBdpUo_163.mp4	0.0	159.01062893867493	0.09999585151672363
22	63.174460887908936	fix_pre	0		31.0	20.0	2.5	/experiments/knapen_aot/videos/S_ILSVRC2015_train_00743005.mp4	0.0	159.11062479019165	0.25832700729370117
22	63.4245240688324	response	0	4		20.0	2.5	/experiments/knapen_aot/videos/S_ILSVRC2015_train_00743005.mp4	0.0	159.3606879711151	
22	63.43278789520264	movie	1		301.0	20.0	2.5	/experiments/knapen_aot/videos/S_ILSVRC2015_train_00743005.mp4	0.0	159.36895179748535	2.508319139480591
22	65.94110703468323	fix_post	2		12.0	20.0	2.5	/experiments/knapen_aot/videos/S_ILSVRC2015_train_00743005.mp4	0.0	161.87727093696594	0.09992790222167969
23	66.04103493690491	fix_pre	0		49.0	21.0	2.5	blank	1.0	161.97719883918762	0.4083399772644043
23	66.44117999076843	response	0	4		21.0	2.5	blank	1.0	162.37734389305115	
23	66.44937491416931	movie	1		301.0	21.0	2.5	blank	1.0	162.38553881645203	2.508402109146118
23	68.95777702331543	fix_post	2		12.0	21.0	2.5	blank	1.0	164.89394092559814	0.10001397132873535
24	69.05779099464417	fix_pre	0		62.0	22.0	2.5	/experiments/knapen_aot/videos/R_S_ILSVRC2015_train_00404003.mp4	0.0	164.99395489692688	0.5165150165557861
24	69.55867505073547	response	0	4		22.0	2.5	/experiments/knapen_aot/videos/R_S_ILSVRC2015_train_00404003.mp4	0.0	165.4948389530182	
24	69.57430601119995	movie	1		301.0	22.0	2.5	/experiments/knapen_aot/videos/R_S_ILSVRC2015_train_00404003.mp4	0.0	165.51046991348267	2.5084800720214844
24	72.08278608322144	fix_post	2		12.0	22.0	2.5	/experiments/knapen_aot/videos/R_S_ILSVRC2015_train_00404003.mp4	0.0	168.01894998550415	0.09997987747192383
25	72.18276596069336	fix_pre	0		50.0	23.0	2.5	/experiments/knapen_aot/videos/R_S_goAwcQiFu1Q_99.mp4	0.0	168.11892986297607	0.41663694381713867
25	72.59122490882874	response	0	4		23.0	2.5	/experiments/knapen_aot/videos/R_S_goAwcQiFu1Q_99.mp4	0.0	168.52738881111145	
25	72.5994029045105	movie	1		301.0	23.0	2.5	/experiments/knapen_aot/videos/R_S_goAwcQiFu1Q_99.mp4	0.0	168.5355668067932	2.5082790851593018
25	75.1076819896698	fix_post	2		12.0	23.0	2.5	/experiments/knapen_aot/videos/R_S_goAwcQiFu1Q_99.mp4	0.0	171.04384589195251	0.10004711151123047
26	75.20772910118103	fix_pre	0		48.0	24.0	2.5	/experiments/knapen_aot/videos/S_yt-N1EsjM9gD5Q_21.mp4	0.0	171.14389300346375	0.3998878002166748
26	75.59946703910828	response	0	4		24.0	2.5	/experiments/knapen_aot/videos/S_yt-N1EsjM9gD5Q_21.mp4	0.0	171.535630941391	
26	75.6076169013977	movie	1		301.0	24.0	2.5	/experiments/knapen_aot/videos/S_yt-N1EsjM9gD5Q_21.mp4	0.0	171.54378080368042	2.508589029312134
26	78.11620593070984	fix_post	2		12.0	24.0	2.5	/experiments/knapen_aot/videos/S_yt-N1EsjM9gD5Q_21.mp4	0.0	174.05236983299255	0.09984111785888672
27	78.21604704856873	fix_pre	0		41.0	25.0	2.5	/experiments/knapen_aot/videos/R_S_video-2.mp4	0.0	174.15221095085144	0.3416299819946289
27	78.54949903488159	response	0	4		25.0	2.5	/experiments/knapen_aot/videos/R_S_video-2.mp4	0.0	174.4856629371643	
27	78.55767703056335	movie	1		164.0	25.0	2.5	/experiments/knapen_aot/videos/R_S_video-2.mp4	0.0	174.49384093284607	2.5083439350128174
27	80.29833793640137	response	1	4		25.0	2.5	/experiments/knapen_aot/videos/R_S_video-2.mp4	0.0	176.23450183868408	
27	81.06602096557617	fix_post	2		12.0	25.0	2.5	/experiments/knapen_aot/videos/R_S_video-2.mp4	0.0	177.0021848678589	0.1000361442565918
28	81.16605710983276	fix_pre	0		55.0	26.0	2.5	blank	1.0	177.10222101211548	0.45829081535339355
28	81.61618399620056	response	0	4		26.0	2.5	blank	1.0	177.55234789848328	
28	81.62434792518616	movie	1		301.0	26.0	2.5	blank	1.0	177.56051182746887	2.508255958557129
28	84.13260388374329	fix_post	2		12.0	26.0	2.5	blank	1.0	180.068767786026	0.1001582145690918
29	84.23276209831238	fix_pre	0		23.0	27.0	2.5	/experiments/knapen_aot/videos/R_S_yt-rY_ra5Tb9XU_51.mp4	0.0	180.1689260005951	0.1915428638458252
29	84.41611194610596	response	0	4		27.0	2.5	/experiments/knapen_aot/videos/R_S_yt-rY_ra5Tb9XU_51.mp4	0.0	180.35227584838867	
29	84.4243049621582	movie	1		301.0	27.0	2.5	/experiments/knapen_aot/videos/R_S_yt-rY_ra5Tb9XU_51.mp4	0.0	180.36046886444092	2.5083460807800293
29	86.93265104293823	fix_post	2		12.0	27.0	2.5	/experiments/knapen_aot/videos/R_S_yt-rY_ra5Tb9XU_51.mp4	0.0	182.86881494522095	0.10002493858337402
30	87.0326759815216	fix_pre	0		40.0	28.0	2.5	/experiments/knapen_aot/videos/S_yt-cgYmOmMzn98_103.mp4	0.0	182.96883988380432	0.3333170413970947
30	87.35053205490112	response	0	4		28.0	2.5	/experiments/knapen_aot/videos/S_yt-cgYmOmMzn98_103.mp4	0.0	183.28669595718384	
30	87.3659930229187	movie	1		301.0	28.0	2.5	/experiments/knapen_aot/videos/S_yt-cgYmOmMzn98_103.mp4	0.0	183.30215692520142	2.5085489749908447
30	89.87454199790955	fix_post	2		12.0	28.0	2.5	/experiments/knapen_aot/videos/S_yt-cgYmOmMzn98_103.mp4	0.0	185.81070590019226	0.09985709190368652
31	89.97439908981323	fix_pre	0		109.0	29.0	2.5	/experiments/knapen_aot/videos/R_S_yt-lGQ3wMI5-Yg_140.mp4	0.0	185.91056299209595	0.9082589149475098
31	90.87441110610962	response	0	4		29.0	2.5	/experiments/knapen_aot/videos/R_S_yt-lGQ3wMI5-Yg_140.mp4	0.0	186.81057500839233	
31	90.88265800476074	movie	1		301.0	29.0	2.5	/experiments/knapen_aot/videos/R_S_yt-lGQ3wMI5-Yg_140.mp4	0.0	186.81882190704346	2.5083489418029785
31	93.39100694656372	fix_post	2		12.0	29.0	2.5	/experiments/knapen_aot/videos/R_S_yt-lGQ3wMI5-Yg_140.mp4	0.0	189.32717084884644	0.10004615783691406
32	93.49105310440063	fix_pre	0		38.0	30.0	2.5	/experiments/knapen_aot/videos/S_bing-www_break_com_video_like-a-cat-catching-a-fly-3131008_12.mp4	0.0	189.42721700668335	0.31661081314086914
32	93.79945111274719	response	0	4		30.0	2.5	/experiments/knapen_aot/videos/S_bing-www_break_com_video_like-a-cat-catching-a-fly-3131008_12.mp4	0.0	189.7356150150299	
32	93.8076639175415	movie	1		301.0	30.0	2.5	/experiments/knapen_aot/videos/S_bing-www_break_com_video_like-a-cat-catching-a-fly-3131008_12.mp4	0.0	189.74382781982422	2.508484125137329
32	96.31614804267883	fix_post	2		12.0	30.0	2.5	/experiments/knapen_aot/videos/S_bing-www_break_com_video_like-a-cat-catching-a-fly-3131008_12.mp4	0.0	192.25231194496155	0.09988784790039062
33	96.41603589057922	fix_pre	0		55.0	31.0	2.5	/experiments/knapen_aot/videos/R_S_yt-N1EsjM9gD5Q_21.mp4	0.0	192.35219979286194	0.45825815200805664
33	96.86614203453064	response	0	4		31.0	2.5	/experiments/knapen_aot/videos/R_S_yt-N1EsjM9gD5Q_21.mp4	0.0	192.80230593681335	
33	96.87429404258728	movie	1		301.0	31.0	2.5	/experiments/knapen_aot/videos/R_S_yt-N1EsjM9gD5Q_21.mp4	0.0	192.81045794487	2.50844407081604
33	99.38273811340332	fix_post	2		12.0	31.0	2.5	/experiments/knapen_aot/videos/R_S_yt-N1EsjM9gD5Q_21.mp4	0.0	195.31890201568604	0.09988284111022949
34	99.48262095451355	fix_pre	0		65.0	32.0	2.5	/experiments/knapen_aot/videos/S_flickr-csgzs-8144064966_10.mp4	0.0	195.41878485679626	0.5428760051727295
34	100.01597499847412	response	0	4		32.0	2.5	/experiments/knapen_aot/videos/S_flickr-csgzs-8144064966_10.mp4	0.0	195.95213890075684	
34	100.02549695968628	movie	1		301.0	32.0	2.5	/experiments/knapen_aot/videos/S_flickr-csgzs-8144064966_10.mp4	0.0	195.961660861969	2.5071799755096436
34	102.53267693519592	fix_post	2		12.0	32.0	2.5	/experiments/knapen_aot/videos/S_flickr-csgzs-8144064966_10.mp4	0.0	198.46884083747864	0.09994101524353027
35	102.63261795043945	fix_pre	0		63.0	33.0	2.5	/experiments/knapen_aot/videos/R_S_yt-e1RAhIW6WAs_535.mp4	0.0	198.56878185272217	0.5249850749969482
35	103.1493968963623	response	0	4		33.0	2.5	/experiments/knapen_aot/videos/R_S_yt-e1RAhIW6WAs_535.mp4	0.0	199.08556079864502	
35	103.1576030254364	movie	1		301.0	33.0	2.5	/experiments/knapen_aot/videos/R_S_yt-e1RAhIW6WAs_535.mp4	0.0	199.09376692771912	2.5083580017089844
35	105.66596102714539	fix_post	2		12.0	33.0	2.5	/experiments/knapen_aot/videos/R_S_yt-e1RAhIW6WAs_535.mp4	0.0	201.6021249294281	0.09997391700744629
36	105.76593494415283	fix_pre	0		42.0	34.0	2.5	/experiments/knapen_aot/videos/S_yt-y3tyx6cZjmA_412.mp4	0.0	201.70209884643555	0.3498811721801758
36	106.10774993896484	response	0	4		34.0	2.5	/experiments/knapen_aot/videos/S_yt-y3tyx6cZjmA_412.mp4	0.0	202.04391384124756	
36	106.11581611633301	movie	1		301.0	34.0	2.5	/experiments/knapen_aot/videos/S_yt-y3tyx6cZjmA_412.mp4	0.0	202.05198001861572	2.5085268020629883
36	108.624342918396	fix_post	2		12.0	34.0	2.5	/experiments/knapen_aot/videos/S_yt-y3tyx6cZjmA_412.mp4	0.0	204.5605068206787	0.09993314743041992
37	108.72427606582642	fix_pre	0		131.0	35.0	2.5	blank	1.0	204.66043996810913	1.0916478633880615
37	109.80771589279175	response	0	4		35.0	2.5	blank	1.0	205.74387979507446	
37	109.81592392921448	movie	1		301.0	35.0	2.5	blank	1.0	205.7520878314972	2.508352041244507
37	112.32427597045898	fix_post	2		12.0	35.0	2.5	blank	1.0	208.2604398727417	0.10000109672546387
38	112.42427706718445	fix_pre	0		46.0	36.0	2.5	/experiments/knapen_aot/videos/R_S_yt-YeT4acsbqok_210.mp4	0.0	208.36044096946716	0.3833119869232178
38	112.79937505722046	response	0	4		36.0	2.5	/experiments/knapen_aot/videos/R_S_yt-YeT4acsbqok_210.mp4	0.0	208.73553895950317	
38	112.80758905410767	movie	1		301.0	36.0	2.5	/experiments/knapen_aot/videos/R_S_yt-YeT4acsbqok_210.mp4	0.0	208.74375295639038	2.508270025253296
38	115.31585907936096	fix_post	2		12.0	36.0	2.5	/experiments/knapen_aot/videos/R_S_yt-YeT4acsbqok_210.mp4	0.0	211.25202298164368	0.09998488426208496
39	115.41584396362305	fix_pre	0		329.0	37.0	2.5	/experiments/knapen_aot/videos/S_ILSVRC2015_train_00457000.mp4	0.0	211.35200786590576	2.7416210174560547
39	118.14177393913269	response	0	4		37.0	2.5	/experiments/knapen_aot/videos/S_ILSVRC2015_train_00457000.mp4	0.0	214.0779378414154	
39	118.1574649810791	movie	1		301.0	37.0	2.5	/experiments/knapen_aot/videos/S_ILSVRC2015_train_00457000.mp4	0.0	214.09362888336182	2.5083980560302734
39	120.66586303710938	fix_post	2		12.0	37.0	2.5	/experiments/knapen_aot/videos/S_ILSVRC2015_train_00457000.mp4	0.0	216.6020269393921	0.0999460220336914
40	120.76580905914307	fix_pre	0		31.0	38.0	2.5	/experiments/knapen_aot/videos/S_ILSVRC2015_train_00404003.mp4	0.0	216.70197296142578	0.259443998336792
40	121.01597499847412	response	0	4		38.0	2.5	/experiments/knapen_aot/videos/S_ILSVRC2015_train_00404003.mp4	0.0	216.95213890075684	
40	121.02525305747986	movie	1		301.0	38.0	2.5	/experiments/knapen_aot/videos/S_ILSVRC2015_train_00404003.mp4	0.0	216.96141695976257	2.5072450637817383
40	123.5324981212616	fix_post	2		12.0	38.0	2.5	/experiments/knapen_aot/videos/S_ILSVRC2015_train_00404003.mp4	0.0	219.4686620235443	0.09995293617248535
41	123.63245105743408	fix_pre	0		46.0	39.0	2.5	/experiments/knapen_aot/videos/R_S_yt-uT4MXm0UBJM_64.mp4	0.0	219.5686149597168	0.3833930492401123
41	124.00759196281433	response	0	4		39.0	2.5	/experiments/knapen_aot/videos/R_S_yt-uT4MXm0UBJM_64.mp4	0.0	219.94375586509705	
41	124.0158441066742	movie	1		301.0	39.0	2.5	/experiments/knapen_aot/videos/R_S_yt-uT4MXm0UBJM_64.mp4	0.0	219.9520080089569	2.508298873901367
41	126.52414298057556	fix_post	2		12.0	39.0	2.5	/experiments/knapen_aot/videos/R_S_yt-uT4MXm0UBJM_64.mp4	0.0	222.46030688285828	0.1000370979309082
42	126.62418007850647	fix_pre	0		47.0	40.0	2.5	/experiments/knapen_aot/videos/R_S_yt-Jro_TRE8NUQ_234.mp4	0.0	222.56034398078918	0.3915889263153076
42	127.00757098197937	response	0	4		40.0	2.5	/experiments/knapen_aot/videos/R_S_yt-Jro_TRE8NUQ_234.mp4	0.0	222.94373488426208	
42	127.01576900482178	movie	1		301.0	40.0	2.5	/experiments/knapen_aot/videos/R_S_yt-Jro_TRE8NUQ_234.mp4	0.0	222.9519329071045	2.508366107940674
42	129.52413511276245	fix_post	2		12.0	40.0	2.5	/experiments/knapen_aot/videos/R_S_yt-Jro_TRE8NUQ_234.mp4	0.0	225.46029901504517	0.10002279281616211
43	129.6241579055786	fix_pre	0		55.0	41.0	2.5	blank	1.0	225.56032180786133	0.4583261013031006
43	130.07428097724915	response	0	4		41.0	2.5	blank	1.0	226.01044487953186	
43	130.0824840068817	movie	1		301.0	41.0	2.5	blank	1.0	226.01864790916443	2.5083398818969727
43	132.5908238887787	fix_post	2		12.0	41.0	2.5	blank	1.0	228.5269877910614	0.10000920295715332
44	132.69083309173584	fix_pre	0		24.0	42.0	2.5	/experiments/knapen_aot/videos/S_yt-CZ2qiY-kS7Y_105.mp4	0.0	228.62699699401855	0.1999650001525879
44	132.88256812095642	response	0	4		42.0	2.5	/experiments/knapen_aot/videos/S_yt-CZ2qiY-kS7Y_105.mp4	0.0	228.81873202323914	
44	132.89079809188843	movie	1		301.0	42.0	2.5	/experiments/knapen_aot/videos/S_yt-CZ2qiY-kS7Y_105.mp4	0.0	228.82696199417114	2.5083348751068115
44	135.39913296699524	fix_post	2		12.0	42.0	2.5	/experiments/knapen_aot/videos/S_yt-CZ2qiY-kS7Y_105.mp4	0.0	231.33529686927795	0.0999460220336914
45	135.49907898902893	fix_pre	0		39.0	43.0	2.5	/experiments/knapen_aot/videos/R_S_yt-bQRBtP9zkms_111.mp4	0.0	231.43524289131165	0.32506489753723145
45	135.81588912010193	response	0	4		43.0	2.5	/experiments/knapen_aot/videos/R_S_yt-bQRBtP9zkms_111.mp4	0.0	231.75205302238464	
45	135.82414388656616	movie	1		301.0	43.0	2.5	/experiments/knapen_aot/videos/R_S_yt-bQRBtP9zkms_111.mp4	0.0	231.76030778884888	2.5083250999450684
45	138.33246898651123	fix_post	2		12.0	43.0	2.5	/experiments/knapen_aot/videos/R_S_yt-bQRBtP9zkms_111.mp4	0.0	234.26863288879395	0.10042500495910645
46	138.43289399147034	fix_pre	0		21.0	44.0	2.5	/experiments/knapen_aot/videos/S_Pexels_Videos_278654_1.mp4	0.0	234.36905789375305	0.1755690574645996
46	138.59922909736633	response	0	4		44.0	2.5	/experiments/knapen_aot/videos/S_Pexels_Videos_278654_1.mp4	0.0	234.53539299964905	
46	138.60846304893494	movie	1		168.0	44.0	2.5	/experiments/knapen_aot/videos/S_Pexels_Videos_278654_1.mp4	0.0	234.54462695121765	2.50736403465271
46	141.11582708358765	fix_post	2		12.0	44.0	2.5	/experiments/knapen_aot/videos/S_Pexels_Videos_278654_1.mp4	0.0	237.05199098587036	0.09997296333312988
47	141.21580004692078	fix_pre	0		244.0	45.0	2.5	/experiments/knapen_aot/videos/S_yt-4qU-6TEW06E_38.mp4	0.0	237.1519639492035	2.033262014389038
47	143.24084997177124	response	0	4		45.0	2.5	/experiments/knapen_aot/videos/S_yt-4qU-6TEW06E_38.mp4	0.0	239.17701387405396	
47	143.24906206130981	movie	1		301.0	45.0	2.5	/experiments/knapen_aot/videos/S_yt-4qU-6TEW06E_38.mp4	0.0	239.18522596359253	2.5083320140838623
47	145.75739407539368	fix_post	2		12.0	45.0	2.5	/experiments/knapen_aot/videos/S_yt-4qU-6TEW06E_38.mp4	0.0	241.6935579776764	0.09998583793640137
48	145.85737991333008	fix_pre	0		75.0	46.0	2.5	/experiments/knapen_aot/videos/S_flickr-southeasternstar-3464778323_10.mp4	0.0	241.7935438156128	0.6259191036224365
48	146.4743230342865	response	0	4		46.0	2.5	/experiments/knapen_aot/videos/S_flickr-southeasternstar-3464778323_10.mp4	0.0	242.4104869365692	
48	146.48329901695251	movie	1		301.0	46.0	2.5	/experiments/knapen_aot/videos/S_flickr-southeasternstar-3464778323_10.mp4	0.0	242.41946291923523	2.507436990737915
48	148.99073600769043	fix_post	2		12.0	46.0	2.5	/experiments/knapen_aot/videos/S_flickr-southeasternstar-3464778323_10.mp4	0.0	244.92689990997314	0.10004401206970215
49	149.09078001976013	fix_pre	0		42.0	47.0	2.5	blank	1.0	245.02694392204285	0.34992194175720215
49	149.43246793746948	response	0	4		47.0	2.5	blank	1.0	245.3686318397522	
49	149.44070196151733	movie	1		301.0	47.0	2.5	blank	1.0	245.37686586380005	2.5083811283111572
49	151.9490830898285	fix_post	2		12.0	47.0	2.5	blank	1.0	247.8852469921112	0.09989190101623535
50	152.04897499084473	fix_pre	0		16.0	48.0	2.5	/experiments/knapen_aot/videos/R_S_ILSVRC2015_train_00743005.mp4	0.0	247.98513889312744	0.1334230899810791
50	152.16665291786194	response	0	4		48.0	2.5	/experiments/knapen_aot/videos/R_S_ILSVRC2015_train_00743005.mp4	0.0	248.10281682014465	
50	152.1823980808258	movie	1		301.0	48.0	2.5	/experiments/knapen_aot/videos/R_S_ILSVRC2015_train_00743005.mp4	0.0	248.11856198310852	2.508291006088257
50	154.69068908691406	fix_post	2		12.0	48.0	2.5	/experiments/knapen_aot/videos/R_S_ILSVRC2015_train_00743005.mp4	0.0	250.62685298919678	0.10002303123474121
51	154.7907121181488	fix_pre	0		29.0	49.0	2.5	/experiments/knapen_aot/videos/R_S_yt-RlHmMGUjT9E_130.mp4	0.0	250.72687602043152	0.2416539192199707
51	155.0241711139679	response	0	4		49.0	2.5	/experiments/knapen_aot/videos/R_S_yt-RlHmMGUjT9E_130.mp4	0.0	250.9603350162506	
51	155.03236603736877	movie	1		301.0	49.0	2.5	/experiments/knapen_aot/videos/R_S_yt-RlHmMGUjT9E_130.mp4	0.0	250.9685299396515	2.5084190368652344
51	157.540785074234	fix_post	2		12.0	49.0	2.5	/experiments/knapen_aot/videos/R_S_yt-RlHmMGUjT9E_130.mp4	0.0	253.47694897651672	0.09992194175720215
52	157.6407070159912	fix_pre	0		82.0	50.0	2.5	/experiments/knapen_aot/videos/S_yt-K-iCphzt_RE_17.mp4	0.0	253.57687091827393	0.683305025100708
52	158.31582307815552	response	0	4		50.0	2.5	/experiments/knapen_aot/videos/S_yt-K-iCphzt_RE_17.mp4	0.0	254.25198698043823	
52	158.32401204109192	movie	1		301.0	50.0	2.5	/experiments/knapen_aot/videos/S_yt-K-iCphzt_RE_17.mp4	0.0	254.26017594337463	2.5083770751953125
52	160.83238911628723	fix_post	2		12.0	50.0	2.5	/experiments/knapen_aot/videos/S_yt-K-iCphzt_RE_17.mp4	0.0	256.76855301856995	0.0999908447265625
53	160.9323799610138	fix_pre	0		30.0	51.0	2.5	/experiments/knapen_aot/videos/R_S_yt-XYULt48onn4_6.mp4	0.0	256.8685438632965	0.24994492530822754
53	161.17413711547852	response	0	4		51.0	2.5	/experiments/knapen_aot/videos/R_S_yt-XYULt48onn4_6.mp4	0.0	257.11030101776123	
53	161.18232488632202	movie	1		301.0	51.0	2.5	/experiments/knapen_aot/videos/R_S_yt-XYULt48onn4_6.mp4	0.0	257.11848878860474	2.5083491802215576
53	163.69067406654358	fix_post	2		12.0	51.0	2.5	/experiments/knapen_aot/videos/R_S_yt-XYULt48onn4_6.mp4	0.0	259.6268379688263	0.10009288787841797
54	163.790766954422	fix_pre	0		55.0	52.0	2.5	/experiments/knapen_aot/videos/R_S_ahUa35lQM6E_44.mp4	0.0	259.7269308567047	0.4582369327545166
54	164.24080109596252	response	0	4		52.0	2.5	/experiments/knapen_aot/videos/R_S_ahUa35lQM6E_44.mp4	0.0	260.17696499824524	
54	164.2490038871765	movie	1		301.0	52.0	2.5	/experiments/knapen_aot/videos/R_S_ahUa35lQM6E_44.mp4	0.0	260.18516778945923	2.508301019668579
54	166.7573049068451	fix_post	2		12.0	52.0	2.5	/experiments/knapen_aot/videos/R_S_ahUa35lQM6E_44.mp4	0.0	262.6934688091278	0.10006403923034668
55	166.85736894607544	fix_pre	0		53.0	53.0	2.5	/experiments/knapen_aot/videos/R_S_pexels-mart-production-7698911_1.mp4	0.0	262.79353284835815	0.44161200523376465
55	167.2908010482788	response	0	4		53.0	2.5	/experiments/knapen_aot/videos/R_S_pexels-mart-production-7698911_1.mp4	0.0	263.2269649505615	
55	167.2989809513092	movie	1		206.0	53.0	2.5	/experiments/knapen_aot/videos/R_S_pexels-mart-production-7698911_1.mp4	0.0	263.2351448535919	2.5083200931549072
55	169.8073010444641	fix_post	2		12.0	53.0	2.5	/experiments/knapen_aot/videos/R_S_pexels-mart-production-7698911_1.mp4	0.0	265.7434649467468	0.10002994537353516
56	169.90733098983765	fix_pre	0		43.0	54.0	2.5	/experiments/knapen_aot/videos/S_yt-K-iCphzt_RE_17.mp4	0.0	265.84349489212036	0.3582041263580322
56	170.2573800086975	response	0	4		54.0	2.5	/experiments/knapen_aot/videos/S_yt-K-iCphzt_RE_17.mp4	0.0	266.1935439109802	
56	170.26553511619568	movie	1		301.0	54.0	2.5	/experiments/knapen_aot/videos/S_yt-K-iCphzt_RE_17.mp4	0.0	266.2016990184784	2.508436918258667
56	172.77397203445435	fix_post	2		12.0	54.0	2.5	/experiments/knapen_aot/videos/S_yt-K-iCphzt_RE_17.mp4	0.0	268.71013593673706	0.10008096694946289
57	172.8740530014038	fix_pre	0		27.0	55.0	2.5	blank	1.0	268.8102169036865	0.22494196891784668
57	173.08324790000916	response	0	4		55.0	2.5	blank	1.0	269.01941180229187	
57	173.09899497032166	movie	1		301.0	55.0	2.5	blank	1.0	269.03515887260437	2.508319139480591
57	174.5407121181488	response	1	4		55.0	2.5	blank	1.0	270.4768760204315	
57	175.60731410980225	fix_post	2		12.0	55.0	2.5	blank	1.0	271.54347801208496	0.0999748706817627
58	175.707288980484	fix_pre	0		38.0	56.0	2.5	/experiments/knapen_aot/videos/R_S_yt--I4Ggi6-QOE_23.mp4	0.0	271.6434528827667	0.31745409965515137
58	176.00819897651672	response	0	4		56.0	2.5	/experiments/knapen_aot/videos/R_S_yt--I4Ggi6-QOE_23.mp4	0.0	271.94436287879944	
58	176.02474308013916	movie	1		301.0	56.0	2.5	/experiments/knapen_aot/videos/R_S_yt--I4Ggi6-QOE_23.mp4	0.0	271.9609069824219	2.507544994354248
58	178.5322880744934	fix_post	2		12.0	56.0	2.5	/experiments/knapen_aot/videos/R_S_yt--I4Ggi6-QOE_23.mp4	0.0	274.4684519767761	0.10001397132873535
59	178.63230204582214	fix_pre	0		36.0	57.0	2.5	/experiments/knapen_aot/videos/S_pexels-mart-production-7277934.mp4	0.0	274.56846594810486	0.2999699115753174
59	178.92408394813538	response	0	4		57.0	2.5	/experiments/knapen_aot/videos/S_pexels-mart-production-7277934.mp4	0.0	274.8602478504181	
59	178.93227195739746	movie	1		164.0	57.0	2.5	/experiments/knapen_aot/videos/S_pexels-mart-production-7277934.mp4	0.0	274.8684358596802	2.5085110664367676
59	181.44078302383423	fix_post	2		12.0	57.0	2.5	/experiments/knapen_aot/videos/S_pexels-mart-production-7277934.mp4	0.0	277.37694692611694	0.09982109069824219
60	181.54060411453247	fix_pre	0		31.0	58.0	2.5	/experiments/knapen_aot/videos/R_S_yt-MUfa26F8dfE_97.mp4	0.0	277.4767680168152	0.2583029270172119
60	181.7907269001007	response	0	4		58.0	2.5	/experiments/knapen_aot/videos/R_S_yt-MUfa26F8dfE_97.mp4	0.0	277.7268908023834	
60	181.79890704154968	movie	1		300.0	58.0	2.5	/experiments/knapen_aot/videos/R_S_yt-MUfa26F8dfE_97.mp4	0.0	277.7350709438324	2.499971866607666
60	184.2907679080963	response	1	4		58.0	2.5	/experiments/knapen_aot/videos/R_S_yt-MUfa26F8dfE_97.mp4	0.0	280.226931810379	
60	184.29887890815735	fix_post	2		13.0	58.0	2.5	/experiments/knapen_aot/videos/R_S_yt-MUfa26F8dfE_97.mp4	0.0	280.23504281044006	0.1085519790649414
61	184.4074308872223	fix_pre	0		73.0	59.0	2.5	/experiments/knapen_aot/videos/R_S_yt-nqRBIR8dFYc_328.mp4	0.0	280.343594789505	0.6081321239471436
61	185.00735306739807	response	0	4		59.0	2.5	/experiments/knapen_aot/videos/R_S_yt-nqRBIR8dFYc_328.mp4	0.0	280.9435169696808	
61	185.01556301116943	movie	1		301.0	59.0	2.5	/experiments/knapen_aot/videos/R_S_yt-nqRBIR8dFYc_328.mp4	0.0	280.95172691345215	2.508491039276123
61	187.52405405044556	fix_post	2		12.0	59.0	2.5	/experiments/knapen_aot/videos/R_S_yt-nqRBIR8dFYc_328.mp4	0.0	283.46021795272827	0.09988093376159668
62	187.62393498420715	fix_pre	0		63.0	60.0	2.5	/experiments/knapen_aot/videos/S_yt-n_eO-7KedAE_21.mp4	0.0	283.56009888648987	0.5258009433746338
62	188.14089488983154	response	0	4		60.0	2.5	/experiments/knapen_aot/videos/S_yt-n_eO-7KedAE_21.mp4	0.0	284.07705879211426	
62	188.1497359275818	movie	1		301.0	60.0	2.5	/experiments/knapen_aot/videos/S_yt-n_eO-7KedAE_21.mp4	0.0	284.0858998298645	2.507534980773926
62	189.65739607810974	response	1	4		60.0	2.5	/experiments/knapen_aot/videos/S_yt-n_eO-7KedAE_21.mp4	0.0	285.59355998039246	
62	190.6572709083557	fix_post	2		12.0	60.0	2.5	/experiments/knapen_aot/videos/S_yt-n_eO-7KedAE_21.mp4	0.0	286.5934348106384	0.09999704360961914
63	190.75726795196533	fix_pre	0		39.0	61.0	2.5	/experiments/knapen_aot/videos/S_yt-PyO8-WsbaLU_43.mp4	0.0	286.69343185424805	0.3248600959777832
63	191.06631112098694	response	0	4		61.0	2.5	/experiments/knapen_aot/videos/S_yt-PyO8-WsbaLU_43.mp4	0.0	287.00247502326965	
63	191.08212804794312	movie	1		301.0	61.0	2.5	/experiments/knapen_aot/videos/S_yt-PyO8-WsbaLU_43.mp4	0.0	287.01829195022583	2.5083930492401123
63	193.59052109718323	fix_post	2		12.0	61.0	2.5	/experiments/knapen_aot/videos/S_yt-PyO8-WsbaLU_43.mp4	0.0	289.52668499946594	0.10006999969482422
64	193.69059109687805	fix_pre	0		40.0	62.0	2.5	/experiments/knapen_aot/videos/R_S_flickr-csgzs-8144064966_10.mp4	0.0	289.62675499916077	0.3340749740600586
64	194.0156888961792	response	0	4		62.0	2.5	/experiments/knapen_aot/videos/R_S_flickr-csgzs-8144064966_10.mp4	0.0	289.9518527984619	
64	194.0246660709381	movie	1		301.0	62.0	2.5	/experiments/knapen_aot/videos/R_S_flickr-csgzs-8144064966_10.mp4	0.0	289.9608299732208	2.5075769424438477
64	196.53224301338196	fix_post	2		12.0	62.0	2.5	/experiments/knapen_aot/videos/R_S_flickr-csgzs-8144064966_10.mp4	0.0	292.4684069156647	0.09996509552001953
65	196.63220810890198	fix_pre	0		6.0	63.0	2.5	blank	1.0	292.5683720111847	0.05003499984741211
65	196.66668891906738	response	0	4		63.0	2.5	blank	1.0	292.6028528213501	
65	196.6822431087494	movie	1		301.0	63.0	2.5	blank	1.0	292.6184070110321	2.5083119869232178
65	199.1905550956726	fix_post	2		12.0	63.0	2.5	blank	1.0	295.1267189979553	0.09999680519104004
65	199.26569890975952	response	2	4		63.0	2.5	blank	1.0	295.20186281204224	
66	199.29055190086365	fix_pre	0		56.0	64.0	2.5	/experiments/knapen_aot/videos/R_S_yt-jy7rAnpu0u8_128.mp4	0.0	295.22671580314636	0.46663904190063477
66	199.74893188476562	response	0	4		64.0	2.5	/experiments/knapen_aot/videos/R_S_yt-jy7rAnpu0u8_128.mp4	0.0	295.68509578704834	
66	199.75719094276428	movie	1		301.0	64.0	2.5	/experiments/knapen_aot/videos/R_S_yt-jy7rAnpu0u8_128.mp4	0.0	295.693354845047	2.508355140686035
66	202.26554608345032	fix_post	2		12.0	64.0	2.5	/experiments/knapen_aot/videos/R_S_yt-jy7rAnpu0u8_128.mp4	0.0	298.20170998573303	0.09995293617248535
67	202.3654990196228	fix_pre	0		48.0	65.0	2.5	/experiments/knapen_aot/videos/R_S_ahJft-G235A_122.mp4	0.0	298.3016629219055	0.3999950885772705
67	202.75735211372375	response	0	4		65.0	2.5	/experiments/knapen_aot/videos/R_S_ahJft-G235A_122.mp4	0.0	298.69351601600647	
67	202.76549410820007	movie	1		301.0	65.0	2.5	/experiments/knapen_aot/videos/R_S_ahJft-G235A_122.mp4	0.0	298.7016580104828	2.5083889961242676
67	204.7907190322876	response	1	4		65.0	2.5	/experiments/knapen_aot/videos/R_S_ahJft-G235A_122.mp4	0.0	300.7268829345703	
67	205.27388310432434	fix_post	2		12.0	65.0	2.5	/experiments/knapen_aot/videos/R_S_ahJft-G235A_122.mp4	0.0	301.21004700660706	0.09999799728393555
68	205.37388110160828	fix_pre	0		36.0	66.0	2.5	/experiments/knapen_aot/videos/S_goAwcQiFu1Q_99.mp4	0.0	301.310045003891	0.299954891204834
68	205.66567611694336	response	0	4		66.0	2.5	/experiments/knapen_aot/videos/S_goAwcQiFu1Q_99.mp4	0.0	301.6018400192261	
68	205.6738359928131	movie	1		301.0	66.0	2.5	/experiments/knapen_aot/videos/S_goAwcQiFu1Q_99.mp4	0.0	301.6099998950958	2.5083510875701904
68	207.85786700248718	response	1	4		66.0	2.5	/experiments/knapen_aot/videos/S_goAwcQiFu1Q_99.mp4	0.0	303.7940309047699	
68	208.1821870803833	fix_post	2		12.0	66.0	2.5	/experiments/knapen_aot/videos/S_goAwcQiFu1Q_99.mp4	0.0	304.118350982666	0.0999898910522461
69	208.28217697143555	fix_pre	0		31.0	67.0	2.5	/experiments/knapen_aot/videos/R_S_comp_GMT060_117NC_363D_1034_AUSTRALIA_v35_SDR_PS_FINAL_20180731_SDR_2K_AVC.mp4	0.0	304.21834087371826	0.25832200050354004
69	208.5323610305786	response	0	4		67.0	2.5	/experiments/knapen_aot/videos/R_S_comp_GMT060_117NC_363D_1034_AUSTRALIA_v35_SDR_PS_FINAL_20180731_SDR_2K_AVC.mp4	0.0	304.4685249328613	
69	208.5404989719391	movie	1		163.0	67.0	2.5	/experiments/knapen_aot/videos/R_S_comp_GMT060_117NC_363D_1034_AUSTRALIA_v35_SDR_PS_FINAL_20180731_SDR_2K_AVC.mp4	0.0	304.4766628742218	2.5083401203155518
69	211.04883909225464	fix_post	2		12.0	67.0	2.5	/experiments/knapen_aot/videos/R_S_comp_GMT060_117NC_363D_1034_AUSTRALIA_v35_SDR_PS_FINAL_20180731_SDR_2K_AVC.mp4	0.0	306.98500299453735	0.10010695457458496
69	211.13227605819702	response	2	4		67.0	2.5	/experiments/knapen_aot/videos/R_S_comp_GMT060_117NC_363D_1034_AUSTRALIA_v35_SDR_PS_FINAL_20180731_SDR_2K_AVC.mp4	0.0	307.06843996047974	
70	211.14894604682922	fix_pre	0		54.0	68.0	2.5	blank	1.0	307.08510994911194	0.44985294342041016
70	211.59064507484436	response	0	4		68.0	2.5	blank	1.0	307.5268089771271	
70	211.59879899024963	movie	1		301.0	68.0	2.5	blank	1.0	307.53496289253235	2.508410930633545
70	213.7406771183014	response	1	4		68.0	2.5	blank	1.0	309.6768410205841	
70	214.10720992088318	fix_post	2		12.0	68.0	2.5	blank	1.0	310.0433738231659	0.09999513626098633
71	214.20720505714417	fix_pre	0		52.0	69.0	2.5	/experiments/knapen_aot/videos/R_S_yt-6MwA-jx56AQ_612.mp4	0.0	310.1433689594269	0.4332408905029297
71	214.6322259902954	response	0	4		69.0	2.5	/experiments/knapen_aot/videos/R_S_yt-6MwA-jx56AQ_612.mp4	0.0	310.5683898925781	
71	214.6404459476471	movie	1		301.0	69.0	2.5	/experiments/knapen_aot/videos/R_S_yt-6MwA-jx56AQ_612.mp4	0.0	310.5766098499298	2.5084149837493896
71	217.14886093139648	fix_post	2		12.0	69.0	2.5	/experiments/knapen_aot/videos/R_S_yt-6MwA-jx56AQ_612.mp4	0.0	313.0850248336792	0.09995412826538086
72	217.24881505966187	fix_pre	0		34.0	70.0	2.5	/experiments/knapen_aot/videos/S_pexels-ekaterina-bolovtsova-7669220.mp4	0.0	313.1849789619446	0.2834029197692871
72	217.52396202087402	response	0	4		70.0	2.5	/experiments/knapen_aot/videos/S_pexels-ekaterina-bolovtsova-7669220.mp4	0.0	313.46012592315674	
72	217.53221797943115	movie	1		163.0	70.0	2.5	/experiments/knapen_aot/videos/S_pexels-ekaterina-bolovtsova-7669220.mp4	0.0	313.46838188171387	2.5082550048828125
72	220.04047298431396	fix_post	2		12.0	70.0	2.5	/experiments/knapen_aot/videos/S_pexels-ekaterina-bolovtsova-7669220.mp4	0.0	315.9766368865967	0.10001993179321289
73	220.14049291610718	fix_pre	0		21.0	71.0	2.5	/experiments/knapen_aot/videos/R_S_yt-7XDVHp75fu4_93.mp4	0.0	316.0766568183899	0.17553305625915527
73	220.30721306800842	response	0	4		71.0	2.5	/experiments/knapen_aot/videos/R_S_yt-7XDVHp75fu4_93.mp4	0.0	316.24337697029114	
73	220.31602597236633	movie	1		301.0	71.0	2.5	/experiments/knapen_aot/videos/R_S_yt-7XDVHp75fu4_93.mp4	0.0	316.25218987464905	2.507859945297241
73	222.71556305885315	response	1	4		71.0	2.5	/experiments/knapen_aot/videos/R_S_yt-7XDVHp75fu4_93.mp4	0.0	318.65172696113586	
73	222.82388591766357	fix_post	2		12.0	71.0	2.5	/experiments/knapen_aot/videos/R_S_yt-7XDVHp75fu4_93.mp4	0.0	318.7600498199463	0.09988999366760254
74	222.92377591133118	fix_pre	0		51.0	72.0	2.5	/experiments/knapen_aot/videos/R_S_yt-hHdxZ26SImA_17.mp4	0.0	318.8599398136139	0.4249730110168457
74	223.34052991867065	response	0	4		72.0	2.5	/experiments/knapen_aot/videos/R_S_yt-hHdxZ26SImA_17.mp4	0.0	319.27669382095337	
74	223.34874892234802	movie	1		301.0	72.0	2.5	/experiments/knapen_aot/videos/R_S_yt-hHdxZ26SImA_17.mp4	0.0	319.28491282463074	2.50829815864563
74	224.62407302856445	response	1	4		72.0	2.5	/experiments/knapen_aot/videos/R_S_yt-hHdxZ26SImA_17.mp4	0.0	320.56023693084717	
74	225.85704708099365	fix_post	2		12.0	72.0	2.5	/experiments/knapen_aot/videos/R_S_yt-hHdxZ26SImA_17.mp4	0.0	321.79321098327637	0.10004401206970215
75	225.95709109306335	fix_pre	0		47.0	73.0	2.5	/experiments/knapen_aot/videos/S_yt-s5YONFy3vb4_46.mp4	0.0	321.89325499534607	0.39159679412841797
75	226.3404860496521	response	0	4		73.0	2.5	/experiments/knapen_aot/videos/S_yt-s5YONFy3vb4_46.mp4	0.0	322.2766499519348	
75	226.34868788719177	movie	1		301.0	73.0	2.5	/experiments/knapen_aot/videos/S_yt-s5YONFy3vb4_46.mp4	0.0	322.2848517894745	2.5084571838378906
75	228.85714507102966	fix_post	2		12.0	73.0	2.5	/experiments/knapen_aot/videos/S_yt-s5YONFy3vb4_46.mp4	0.0	324.7933089733124	0.0999300479888916
76	228.95707511901855	fix_pre	0		149.0	74.0	2.5	/experiments/knapen_aot/videos/S_production_ID_4325585.mp4	0.0	324.89323902130127	1.2415227890014648
76	230.19050192832947	response	0	4		74.0	2.5	/experiments/knapen_aot/videos/S_production_ID_4325585.mp4	0.0	326.1266658306122	
76	230.19859790802002	movie	1		194.0	74.0	2.5	/experiments/knapen_aot/videos/S_production_ID_4325585.mp4	0.0	326.13476181030273	2.5086710453033447
76	231.1823010444641	response	1	4		74.0	2.5	/experiments/knapen_aot/videos/S_production_ID_4325585.mp4	0.0	327.1184649467468	
76	232.47524905204773	response	1	4		74.0	2.5	/experiments/knapen_aot/videos/S_production_ID_4325585.mp4	0.0	328.41141295433044	
76	232.70726895332336	fix_post	2		12.0	74.0	2.5	/experiments/knapen_aot/videos/S_production_ID_4325585.mp4	0.0	328.6434328556061	0.0998220443725586
77	232.80709099769592	fix_pre	0		106.0	75.0	2.5	/experiments/knapen_aot/videos/S_yt-2ftSsLqRQnA_84.mp4	0.0	328.74325489997864	0.8837780952453613
77	233.68213391304016	response	0	4		75.0	2.5	/experiments/knapen_aot/videos/S_yt-2ftSsLqRQnA_84.mp4	0.0	329.6182978153229	
77	233.69086909294128	movie	1		301.0	75.0	2.5	/experiments/knapen_aot/videos/S_yt-2ftSsLqRQnA_84.mp4	0.0	329.627032995224	2.507887840270996
77	235.77427196502686	response	1	4		75.0	2.5	/experiments/knapen_aot/videos/S_yt-2ftSsLqRQnA_84.mp4	0.0	331.71043586730957	
77	236.19875693321228	fix_post	2		12.0	75.0	2.5	/experiments/knapen_aot/videos/S_yt-2ftSsLqRQnA_84.mp4	0.0	332.134920835495	0.10001897811889648
78	236.29877591133118	fix_pre	0		50.0	76.0	2.5	blank	1.0	332.2349398136139	0.41660213470458984
78	236.70716190338135	response	0	4		76.0	2.5	blank	1.0	332.64332580566406	
78	236.71537804603577	movie	1		301.0	76.0	2.5	blank	1.0	332.6515419483185	2.5083558559417725
78	238.5654480457306	response	1	4		76.0	2.5	blank	1.0	334.5016119480133	
78	239.22373390197754	fix_post	2		12.0	76.0	2.5	blank	1.0	335.15989780426025	0.10013103485107422
79	239.3238649368286	fix_pre	0		23.0	77.0	2.5	/experiments/knapen_aot/videos/R_S_yt-PaxmJhMoP3w_87.mp4	0.0	335.2600288391113	0.19147801399230957
79	239.50710010528564	response	0	4		77.0	2.5	/experiments/knapen_aot/videos/R_S_yt-PaxmJhMoP3w_87.mp4	0.0	335.44326400756836	
79	239.51534295082092	movie	1		301.0	77.0	2.5	/experiments/knapen_aot/videos/R_S_yt-PaxmJhMoP3w_87.mp4	0.0	335.45150685310364	2.508573055267334
79	242.02391600608826	fix_post	2		12.0	77.0	2.5	/experiments/knapen_aot/videos/R_S_yt-PaxmJhMoP3w_87.mp4	0.0	337.960079908371	0.0999140739440918
80	242.12383008003235	fix_pre	0		35.0	78.0	2.5	/experiments/knapen_aot/videos/S_G009_C014_UHD_SDR_2K_AVC.mp4	0.0	338.05999398231506	0.29151391983032227
80	242.40718603134155	response	0	4		78.0	2.5	/experiments/knapen_aot/videos/S_G009_C014_UHD_SDR_2K_AVC.mp4	0.0	338.34334993362427	
80	242.41534399986267	movie	1		170.0	78.0	2.5	/experiments/knapen_aot/videos/S_G009_C014_UHD_SDR_2K_AVC.mp4	0.0	338.3515079021454	2.508366107940674
80	244.40652894973755	response	1	4		78.0	2.5	/experiments/knapen_aot/videos/S_G009_C014_UHD_SDR_2K_AVC.mp4	0.0	340.34269285202026	
80	244.92371010780334	fix_post	2		12.0	78.0	2.5	/experiments/knapen_aot/videos/S_G009_C014_UHD_SDR_2K_AVC.mp4	0.0	340.85987401008606	0.10003185272216797
81	245.0237419605255	fix_pre	0		66.0	79.0	2.5	/experiments/knapen_aot/videos/S_yt-Fm97IY0Z2LU_79.mp4	0.0	340.9599058628082	0.5498931407928467
81	245.55796194076538	response	0	4		79.0	2.5	/experiments/knapen_aot/videos/S_yt-Fm97IY0Z2LU_79.mp4	0.0	341.4941258430481	
81	245.57363510131836	movie	1		301.0	79.0	2.5	/experiments/knapen_aot/videos/S_yt-Fm97IY0Z2LU_79.mp4	0.0	341.5097990036011	2.50833797454834
81	247.97580909729004	response	1	4		79.0	2.5	/experiments/knapen_aot/videos/S_yt-Fm97IY0Z2LU_79.mp4	0.0	343.91197299957275	
81	248.0819730758667	fix_post	2		12.0	79.0	2.5	/experiments/knapen_aot/videos/S_yt-Fm97IY0Z2LU_79.mp4	0.0	344.0181369781494	0.0999898910522461
82	248.18196296691895	fix_pre	0		42.0	80.0	2.5	/experiments/knapen_aot/videos/R_S_yt-roThCERxVCs_133.mp4	0.0	344.11812686920166	0.35001301765441895
82	248.51611495018005	response	0	4		80.0	2.5	/experiments/knapen_aot/videos/R_S_yt-roThCERxVCs_133.mp4	0.0	344.45227885246277	
82	248.53197598457336	movie	1		301.0	80.0	2.5	/experiments/knapen_aot/videos/R_S_yt-roThCERxVCs_133.mp4	0.0	344.4681398868561	2.5083730220794678
82	251.04034900665283	fix_post	2		12.0	80.0	2.5	/experiments/knapen_aot/videos/R_S_yt-roThCERxVCs_133.mp4	0.0	346.97651290893555	0.10004401206970215
83	251.14039301872253	fix_pre	0		64.0	81.0	2.5	/experiments/knapen_aot/videos/S_production_ID_5144824.mp4	0.0	347.07655692100525	0.5331990718841553
83	251.66548204421997	response	0	4		81.0	2.5	/experiments/knapen_aot/videos/S_production_ID_5144824.mp4	0.0	347.6016459465027	
83	251.6735920906067	movie	1		165.0	81.0	2.5	/experiments/knapen_aot/videos/S_production_ID_5144824.mp4	0.0	347.6097559928894	2.5085299015045166
83	253.6812789440155	response	1	4		81.0	2.5	/experiments/knapen_aot/videos/S_production_ID_5144824.mp4	0.0	349.6174428462982	
83	254.1821219921112	fix_post	2		12.0	81.0	2.5	/experiments/knapen_aot/videos/S_production_ID_5144824.mp4	0.0	350.1182858943939	0.0998690128326416
84	254.28199100494385	fix_pre	0		97.0	82.0	2.5	/experiments/knapen_aot/videos/R_S_yt-e9AZJKNv9ow_359.mp4	0.0	350.21815490722656	0.8082759380340576
84	255.08210396766663	response	0	4		82.0	2.5	/experiments/knapen_aot/videos/R_S_yt-e9AZJKNv9ow_359.mp4	0.0	351.01826786994934	
84	255.0902669429779	movie	1		301.0	82.0	2.5	/experiments/knapen_aot/videos/R_S_yt-e9AZJKNv9ow_359.mp4	0.0	351.0264308452606	2.5083611011505127
84	257.5986280441284	fix_post	2		12.0	82.0	2.5	/experiments/knapen_aot/videos/R_S_yt-e9AZJKNv9ow_359.mp4	0.0	353.53479194641113	0.10002803802490234
85	257.6986560821533	fix_pre	0		67.0	83.0	2.5	blank	1.0	353.63481998443604	0.558290958404541
85	258.24891209602356	response	0	4		83.0	2.5	blank	1.0	354.1850759983063	
85	258.25694704055786	movie	1		301.0	83.0	2.5	blank	1.0	354.1931109428406	2.5082850456237793
85	259.60702991485596	response	1	4		83.0	2.5	blank	1.0	355.5431938171387	
85	260.76523208618164	fix_post	2		12.0	83.0	2.5	blank	1.0	356.70139598846436	0.10014581680297852
87	260.8653779029846	stim	0		407.0					356.80154180526733	3.394667148590088
87	261.04972410202026	response	0	4						356.985888004303	
87	264.245726108551	response	0	space						360.18189001083374	
