trial_nr	onset	event_type	phase	response	nr_frames	movie_index	movie_duration	movie_file	blank	onset_abs	duration
0	0.12842488288879395	stim	0		50.0					150.2276668548584	0.4132349491119385
0	0.5333690643310547	response	0	space						150.63261103630066	
1	0.5416598320007324	stim	0		121.0					150.64090180397034	1.0083801746368408
1	1.1667308807373047	response	0	space						151.2659728527069	
1	1.5500400066375732	stim	1		120.0					151.64928197860718	0.999675989151001
1	1.799710988998413	response	1	space						151.89895296096802	
1	2.2247469425201416	response	1	space						152.32398891448975	
2	2.549715995788574	fix_pre	0		14.0	0.0	2.5	/experiments/knapen_aot/videos/S_yt-z16pdVTZK1o_3.mp4	0.0	152.64895796775818	0.11659097671508789
2	2.6581039428710938	response	0	space		0.0	2.5	/experiments/knapen_aot/videos/S_yt-z16pdVTZK1o_3.mp4	0.0	152.7573459148407	
2	2.666306972503662	movie	1		300.0	0.0	2.5	/experiments/knapen_aot/videos/S_yt-z16pdVTZK1o_3.mp4	0.0	152.76554894447327	2.508352041244507
2	5.174659013748169	fix_post	2		12.0	0.0	2.5	/experiments/knapen_aot/videos/S_yt-z16pdVTZK1o_3.mp4	0.0	155.27390098571777	0.09999394416809082
3	5.27465295791626	fix_pre	0		53.0	1.0	2.5	/experiments/knapen_aot/videos/R_S_yt-JH6qCYAnX-I_70.mp4	0.0	155.37389492988586	0.44357991218566895
3	5.710041046142578	response	0	2		1.0	2.5	/experiments/knapen_aot/videos/R_S_yt-JH6qCYAnX-I_70.mp4	0.0	155.80928301811218	
3	5.718232870101929	movie	1		301.0	1.0	2.5	/experiments/knapen_aot/videos/R_S_yt-JH6qCYAnX-I_70.mp4	0.0	155.81747484207153	2.506395101547241
3	8.22462797164917	fix_post	2		12.0	1.0	2.5	/experiments/knapen_aot/videos/R_S_yt-JH6qCYAnX-I_70.mp4	0.0	158.32386994361877	0.1000070571899414
4	8.324635028839111	fix_pre	0		30.0	2.0	2.5	/experiments/knapen_aot/videos/S_yt-3V8US8ZD3NU_229.mp4	0.0	158.42387700080872	0.24997782707214355
4	8.566436052322388	response	0	2		2.0	2.5	/experiments/knapen_aot/videos/S_yt-3V8US8ZD3NU_229.mp4	0.0	158.665678024292	
4	8.574612855911255	movie	1		300.0	2.0	2.5	/experiments/knapen_aot/videos/S_yt-3V8US8ZD3NU_229.mp4	0.0	158.67385482788086	2.5083181858062744
4	11.08293104171753	fix_post	2		12.0	2.0	2.5	/experiments/knapen_aot/videos/S_yt-3V8US8ZD3NU_229.mp4	0.0	161.18217301368713	0.1006169319152832
5	11.183547973632812	fix_pre	0		46.0	3.0	2.5	/experiments/knapen_aot/videos/R_S_yt-MNo__ov96eI_22.mp4	0.0	161.28278994560242	0.38271307945251465
5	11.558162927627563	response	0	2		3.0	2.5	/experiments/knapen_aot/videos/R_S_yt-MNo__ov96eI_22.mp4	0.0	161.65740489959717	
5	11.566261053085327	movie	1		301.0	3.0	2.5	/experiments/knapen_aot/videos/R_S_yt-MNo__ov96eI_22.mp4	0.0	161.66550302505493	2.508335828781128
5	14.074596881866455	fix_post	2		12.0	3.0	2.5	/experiments/knapen_aot/videos/R_S_yt-MNo__ov96eI_22.mp4	0.0	164.17383885383606	0.10001206398010254
6	14.174608945846558	fix_pre	0		24.0	4.0	2.5	/experiments/knapen_aot/videos/R_S_ILSVRC2015_train_00601000.mp4	0.0	164.27385091781616	0.20000410079956055
6	14.366322994232178	response	0	2		4.0	2.5	/experiments/knapen_aot/videos/R_S_ILSVRC2015_train_00601000.mp4	0.0	164.46556496620178	
6	14.374613046646118	movie	1		301.0	4.0	2.5	/experiments/knapen_aot/videos/R_S_ILSVRC2015_train_00601000.mp4	0.0	164.47385501861572	2.5083389282226562
6	16.882951974868774	fix_post	2		12.0	4.0	2.5	/experiments/knapen_aot/videos/R_S_ILSVRC2015_train_00601000.mp4	0.0	166.98219394683838	0.09995388984680176
7	16.982905864715576	fix_pre	0		63.0	5.0	2.5	/experiments/knapen_aot/videos/R_S_comp_A001_C001_120530_v04_SDR_FINAL_20180706_SDR_2K_AVC.mp4	0.0	167.08214783668518	0.5250101089477539
7	17.49975085258484	response	0	2		5.0	2.5	/experiments/knapen_aot/videos/R_S_comp_A001_C001_120530_v04_SDR_FINAL_20180706_SDR_2K_AVC.mp4	0.0	167.59899282455444	
7	17.50791597366333	movie	1		168.0	5.0	2.5	/experiments/knapen_aot/videos/R_S_comp_A001_C001_120530_v04_SDR_FINAL_20180706_SDR_2K_AVC.mp4	0.0	167.60715794563293	2.5083119869232178
7	20.016227960586548	fix_post	2		12.0	5.0	2.5	/experiments/knapen_aot/videos/R_S_comp_A001_C001_120530_v04_SDR_FINAL_20180706_SDR_2K_AVC.mp4	0.0	170.11546993255615	0.09997987747192383
8	20.11620783805847	fix_pre	0		63.0	6.0	2.5	/experiments/knapen_aot/videos/S_yt--jzScB82vKI_212.mp4	0.0	170.21544981002808	0.5254321098327637
8	20.633028030395508	response	0	2		6.0	2.5	/experiments/knapen_aot/videos/S_yt--jzScB82vKI_212.mp4	0.0	170.7322700023651	
8	20.641639947891235	movie	1		301.0	6.0	2.5	/experiments/knapen_aot/videos/S_yt--jzScB82vKI_212.mp4	0.0	170.74088191986084	2.5079081058502197
8	23.149548053741455	fix_post	2		12.0	6.0	2.5	/experiments/knapen_aot/videos/S_yt--jzScB82vKI_212.mp4	0.0	173.24879002571106	0.09993886947631836
9	23.249486923217773	fix_pre	0		67.0	7.0	2.5	blank	1.0	173.34872889518738	0.558866024017334
9	23.799635887145996	response	0	2		7.0	2.5	blank	1.0	173.8988778591156	
9	23.808352947235107	movie	1		301.0	7.0	2.5	blank	1.0	173.9075949192047	2.507781982421875
9	23.83298397064209	response	1	2		7.0	2.5	blank	1.0	173.9322259426117	
9	26.316134929656982	fix_post	2		12.0	7.0	2.5	blank	1.0	176.4153769016266	0.10002708435058594
10	26.41616201400757	fix_pre	0		99.0	8.0	2.5	/experiments/knapen_aot/videos/S_production_ID_3735542.mp4	0.0	176.51540398597717	0.8250720500946045
10	27.232985019683838	response	0	2		8.0	2.5	/experiments/knapen_aot/videos/S_production_ID_3735542.mp4	0.0	177.33222699165344	
10	27.241234064102173	movie	1		163.0	8.0	2.5	/experiments/knapen_aot/videos/S_production_ID_3735542.mp4	0.0	177.34047603607178	2.5082709789276123
10	29.749505043029785	fix_post	2		12.0	8.0	2.5	/experiments/knapen_aot/videos/S_production_ID_3735542.mp4	0.0	179.8487470149994	0.1004648208618164
11	29.8499698638916	fix_pre	0		27.0	9.0	2.5	/experiments/knapen_aot/videos/S_comp_A001_C001_120530_v04_SDR_FINAL_20180706_SDR_2K_AVC.mp4	0.0	179.9492118358612	0.22452807426452637
11	30.066200971603394	response	0	2		9.0	2.5	/experiments/knapen_aot/videos/S_comp_A001_C001_120530_v04_SDR_FINAL_20180706_SDR_2K_AVC.mp4	0.0	180.165442943573	
11	30.074497938156128	movie	1		162.0	9.0	2.5	/experiments/knapen_aot/videos/S_comp_A001_C001_120530_v04_SDR_FINAL_20180706_SDR_2K_AVC.mp4	0.0	180.17373991012573	2.5083470344543457
11	32.582844972610474	fix_post	2		12.0	9.0	2.5	/experiments/knapen_aot/videos/S_comp_A001_C001_120530_v04_SDR_FINAL_20180706_SDR_2K_AVC.mp4	0.0	182.68208694458008	0.10024499893188477
12	32.68308997154236	fix_pre	0		25.0	10.0	2.5	/experiments/knapen_aot/videos/R_S_yt-JpOBXV46TLE_124.mp4	0.0	182.78233194351196	0.20849990844726562
12	32.8829870223999	response	0	2		10.0	2.5	/experiments/knapen_aot/videos/R_S_yt-JpOBXV46TLE_124.mp4	0.0	182.9822289943695	
12	32.891589879989624	movie	1		301.0	10.0	2.5	/experiments/knapen_aot/videos/R_S_yt-JpOBXV46TLE_124.mp4	0.0	182.99083185195923	2.5078749656677246
12	35.39946484565735	fix_post	2		12.0	10.0	2.5	/experiments/knapen_aot/videos/R_S_yt-JpOBXV46TLE_124.mp4	0.0	185.49870681762695	0.10003209114074707
13	35.499496936798096	fix_pre	0		60.0	11.0	2.5	/experiments/knapen_aot/videos/S_comp_HK_H004_C001_PSNK_DENOISE_v14_SDR_PS_FINAL_20180731_SDR_2K_AVC.mp4	0.0	185.5987389087677	0.5000510215759277
13	35.99128603935242	response	0	2		11.0	2.5	/experiments/knapen_aot/videos/S_comp_HK_H004_C001_PSNK_DENOISE_v14_SDR_PS_FINAL_20180731_SDR_2K_AVC.mp4	0.0	186.09052801132202	
13	35.99954795837402	movie	1		164.0	11.0	2.5	/experiments/knapen_aot/videos/S_comp_HK_H004_C001_PSNK_DENOISE_v14_SDR_PS_FINAL_20180731_SDR_2K_AVC.mp4	0.0	186.09878993034363	2.5083069801330566
13	37.30708193778992	response	1	2		11.0	2.5	/experiments/knapen_aot/videos/S_comp_HK_H004_C001_PSNK_DENOISE_v14_SDR_PS_FINAL_20180731_SDR_2K_AVC.mp4	0.0	187.40632390975952	
13	38.50785493850708	fix_post	2		12.0	11.0	2.5	/experiments/knapen_aot/videos/S_comp_HK_H004_C001_PSNK_DENOISE_v14_SDR_PS_FINAL_20180731_SDR_2K_AVC.mp4	0.0	188.60709691047668	0.1000070571899414
14	38.60786199569702	fix_pre	0		51.0	12.0	2.5	/experiments/knapen_aot/videos/S_P001_C005_UHD_SDR_2K_AVC.mp4	0.0	188.70710396766663	0.4248669147491455
14	39.024582862854004	response	0	2		12.0	2.5	/experiments/knapen_aot/videos/S_P001_C005_UHD_SDR_2K_AVC.mp4	0.0	189.1238248348236	
14	39.03272891044617	movie	1		166.0	12.0	2.5	/experiments/knapen_aot/videos/S_P001_C005_UHD_SDR_2K_AVC.mp4	0.0	189.13197088241577	2.5083811283111572
14	41.541110038757324	fix_post	2		12.0	12.0	2.5	/experiments/knapen_aot/videos/S_P001_C005_UHD_SDR_2K_AVC.mp4	0.0	191.64035201072693	0.1000509262084961
15	41.64116096496582	fix_pre	0		284.0	13.0	2.5	/experiments/knapen_aot/videos/R_S_yt-RHPOCG1mII0_138.mp4	0.0	191.74040293693542	2.366590976715088
15	43.99954700469971	response	0	2		13.0	2.5	/experiments/knapen_aot/videos/R_S_yt-RHPOCG1mII0_138.mp4	0.0	194.0987889766693	
15	44.00775194168091	movie	1		301.0	13.0	2.5	/experiments/knapen_aot/videos/R_S_yt-RHPOCG1mII0_138.mp4	0.0	194.1069939136505	2.5085489749908447
15	46.51630091667175	fix_post	2		12.0	13.0	2.5	/experiments/knapen_aot/videos/R_S_yt-RHPOCG1mII0_138.mp4	0.0	196.61554288864136	0.09981203079223633
16	46.61611294746399	fix_pre	0		40.0	14.0	2.5	blank	1.0	196.7153549194336	0.3332500457763672
16	46.94120693206787	response	0	2		14.0	2.5	blank	1.0	197.04044890403748	
16	46.949362993240356	movie	1		301.0	14.0	2.5	blank	1.0	197.04860496520996	2.508436918258667
16	49.24108386039734	response	1	2		14.0	2.5	blank	1.0	199.34032583236694	
16	49.45779991149902	fix_post	2		12.0	14.0	2.5	blank	1.0	199.55704188346863	0.09994292259216309
17	49.55774283409119	fix_pre	0		41.0	15.0	2.5	/experiments/knapen_aot/videos/R_S_yt-4sSV4iIs8gQ_55.mp4	0.0	199.6569848060608	0.3415980339050293
17	49.8911669254303	response	0	2		15.0	2.5	/experiments/knapen_aot/videos/R_S_yt-4sSV4iIs8gQ_55.mp4	0.0	199.9904088973999	
17	49.899340867996216	movie	1		301.0	15.0	2.5	/experiments/knapen_aot/videos/R_S_yt-4sSV4iIs8gQ_55.mp4	0.0	199.99858283996582	2.5085301399230957
17	52.40787100791931	fix_post	2		12.0	15.0	2.5	/experiments/knapen_aot/videos/R_S_yt-4sSV4iIs8gQ_55.mp4	0.0	202.50711297988892	0.0998690128326416
18	52.50774002075195	fix_pre	0		110.0	16.0	2.5	/experiments/knapen_aot/videos/S_pexels-mart-production-7277934.mp4	0.0	202.60698199272156	0.9166369438171387
18	53.4162859916687	response	0	2		16.0	2.5	/experiments/knapen_aot/videos/S_pexels-mart-production-7277934.mp4	0.0	203.5155279636383	
18	53.42437696456909	movie	1		170.0	16.0	2.5	/experiments/knapen_aot/videos/S_pexels-mart-production-7277934.mp4	0.0	203.5236189365387	2.5083799362182617
18	55.93275690078735	fix_post	2		12.0	16.0	2.5	/experiments/knapen_aot/videos/S_pexels-mart-production-7277934.mp4	0.0	206.03199887275696	0.09998893737792969
19	56.03274583816528	fix_pre	0		41.0	17.0	2.5	/experiments/knapen_aot/videos/S_goAwcQiFu1Q_99.mp4	0.0	206.1319878101349	0.3415861129760742
19	56.3586528301239	response	0	2		17.0	2.5	/experiments/knapen_aot/videos/S_goAwcQiFu1Q_99.mp4	0.0	206.4578948020935	
19	56.37433195114136	movie	1		301.0	17.0	2.5	/experiments/knapen_aot/videos/S_goAwcQiFu1Q_99.mp4	0.0	206.47357392311096	2.508457899093628
19	58.882789850234985	fix_post	2		12.0	17.0	2.5	/experiments/knapen_aot/videos/S_goAwcQiFu1Q_99.mp4	0.0	208.9820318222046	0.09994316101074219
20	58.98273301124573	fix_pre	0		36.0	18.0	2.5	/experiments/knapen_aot/videos/R_S_yt-YFl_NAWBFAw_166.mp4	0.0	209.08197498321533	0.2999699115753174
20	59.274497985839844	response	0	2		18.0	2.5	/experiments/knapen_aot/videos/R_S_yt-YFl_NAWBFAw_166.mp4	0.0	209.37373995780945	
20	59.282702922821045	movie	1		301.0	18.0	2.5	/experiments/knapen_aot/videos/R_S_yt-YFl_NAWBFAw_166.mp4	0.0	209.38194489479065	2.508333921432495
20	61.79103684425354	fix_post	2		12.0	18.0	2.5	/experiments/knapen_aot/videos/R_S_yt-YFl_NAWBFAw_166.mp4	0.0	211.89027881622314	0.10029101371765137
21	61.89132785797119	fix_pre	0		74.0	19.0	2.5	/experiments/knapen_aot/videos/R_S_yt-GVaF4tmJBZE_253.mp4	0.0	211.9905698299408	0.6163501739501953
21	62.49948787689209	response	0	2		19.0	2.5	/experiments/knapen_aot/videos/R_S_yt-GVaF4tmJBZE_253.mp4	0.0	212.5987298488617	
21	62.50767803192139	movie	1		301.0	19.0	2.5	/experiments/knapen_aot/videos/R_S_yt-GVaF4tmJBZE_253.mp4	0.0	212.606920003891	2.5083868503570557
21	65.01606488227844	fix_post	2		12.0	19.0	2.5	/experiments/knapen_aot/videos/R_S_yt-GVaF4tmJBZE_253.mp4	0.0	215.11530685424805	0.0999460220336914
22	65.11601090431213	fix_pre	0		29.0	20.0	2.5	blank	1.0	215.21525287628174	0.24165010452270508
22	65.34951591491699	response	0	2		20.0	2.5	blank	1.0	215.4487578868866	
22	65.35766100883484	movie	1		301.0	20.0	2.5	blank	1.0	215.45690298080444	2.5083909034729004
22	66.74109983444214	response	1	2		20.0	2.5	blank	1.0	216.84034180641174	
22	67.86605191230774	fix_post	2		12.0	20.0	2.5	blank	1.0	217.96529388427734	0.09998703002929688
23	67.96603894233704	fix_pre	0		8.0	21.0	2.5	/experiments/knapen_aot/videos/S_Person_Going_Through_A_Bible.mp4	0.0	218.06528091430664	0.0665900707244873
23	68.02446484565735	response	0	2		21.0	2.5	/experiments/knapen_aot/videos/S_Person_Going_Through_A_Bible.mp4	0.0	218.12370681762695	
23	68.03262901306152	movie	1		167.0	21.0	2.5	/experiments/knapen_aot/videos/S_Person_Going_Through_A_Bible.mp4	0.0	218.13187098503113	2.5083508491516113
23	69.61618494987488	response	1	2		21.0	2.5	/experiments/knapen_aot/videos/S_Person_Going_Through_A_Bible.mp4	0.0	219.71542692184448	
23	70.54097986221313	fix_post	2		12.0	21.0	2.5	/experiments/knapen_aot/videos/S_Person_Going_Through_A_Bible.mp4	0.0	220.64022183418274	0.10033416748046875
24	70.6413140296936	fix_pre	0		37.0	22.0	2.5	/experiments/knapen_aot/videos/R_S_goAwcQiFu1Q_99.mp4	0.0	220.7405560016632	0.30800890922546387
24	70.94108605384827	response	0	2		22.0	2.5	/experiments/knapen_aot/videos/R_S_goAwcQiFu1Q_99.mp4	0.0	221.04032802581787	
24	70.94932293891907	movie	1		300.0	22.0	2.5	/experiments/knapen_aot/videos/R_S_goAwcQiFu1Q_99.mp4	0.0	221.04856491088867	2.508484125137329
24	73.4578070640564	fix_post	2		12.0	22.0	2.5	/experiments/knapen_aot/videos/R_S_goAwcQiFu1Q_99.mp4	0.0	223.557049036026	0.10006594657897949
25	73.55787301063538	fix_pre	0		25.0	23.0	2.5	/experiments/knapen_aot/videos/R_S_yt-kXarkCFJLeg_46.mp4	0.0	223.65711498260498	0.20824503898620605
25	73.75778698921204	response	0	2		23.0	2.5	/experiments/knapen_aot/videos/R_S_yt-kXarkCFJLeg_46.mp4	0.0	223.85702896118164	
25	73.76611804962158	movie	1		301.0	23.0	2.5	/experiments/knapen_aot/videos/R_S_yt-kXarkCFJLeg_46.mp4	0.0	223.8653600215912	2.508201837539673
25	76.27431988716125	fix_post	2		12.0	23.0	2.5	/experiments/knapen_aot/videos/R_S_yt-kXarkCFJLeg_46.mp4	0.0	226.37356185913086	0.10000300407409668
26	76.37432289123535	fix_pre	0		4.0	24.0	2.5	/experiments/knapen_aot/videos/S_yt-MTo50ReVNmU_2.mp4	0.0	226.47356486320496	0.03327202796936035
26	76.39945387840271	response	0	2		24.0	2.5	/experiments/knapen_aot/videos/S_yt-MTo50ReVNmU_2.mp4	0.0	226.49869585037231	
26	76.40759491920471	movie	1		301.0	24.0	2.5	/experiments/knapen_aot/videos/S_yt-MTo50ReVNmU_2.mp4	0.0	226.50683689117432	2.5083041191101074
26	78.91589903831482	fix_post	2		12.0	24.0	2.5	/experiments/knapen_aot/videos/S_yt-MTo50ReVNmU_2.mp4	0.0	229.01514101028442	0.10028982162475586
27	79.01618885993958	fix_pre	0		173.0	25.0	2.5	/experiments/knapen_aot/videos/S_ILSVRC2015_train_00371012.mp4	0.0	229.11543083190918	1.4413650035858154
27	80.44939088821411	response	0	2		25.0	2.5	/experiments/knapen_aot/videos/S_ILSVRC2015_train_00371012.mp4	0.0	230.54863286018372	
27	80.45755386352539	movie	1		301.0	25.0	2.5	/experiments/knapen_aot/videos/S_ILSVRC2015_train_00371012.mp4	0.0	230.556795835495	2.508342981338501
27	82.96589684486389	fix_post	2		12.0	25.0	2.5	/experiments/knapen_aot/videos/S_ILSVRC2015_train_00371012.mp4	0.0	233.0651388168335	0.10007309913635254
28	83.06596994400024	fix_pre	0		98.0	26.0	2.5	/experiments/knapen_aot/videos/S_ILSVRC2015_train_00411001.mp4	0.0	233.16521191596985	0.8165509700775146
28	83.87440395355225	response	0	2		26.0	2.5	/experiments/knapen_aot/videos/S_ILSVRC2015_train_00411001.mp4	0.0	233.97364592552185	
28	83.88252091407776	movie	1		301.0	26.0	2.5	/experiments/knapen_aot/videos/S_ILSVRC2015_train_00411001.mp4	0.0	233.98176288604736	2.5085690021514893
28	86.30845499038696	response	1	2		26.0	2.5	/experiments/knapen_aot/videos/S_ILSVRC2015_train_00411001.mp4	0.0	236.40769696235657	
28	86.39108991622925	fix_post	2		12.0	26.0	2.5	/experiments/knapen_aot/videos/S_ILSVRC2015_train_00411001.mp4	0.0	236.49033188819885	0.09984803199768066
29	86.49093794822693	fix_pre	0		234.0	27.0	2.5	/experiments/knapen_aot/videos/R_S_production_ID_4325509.mp4	0.0	236.59017992019653	1.9499759674072266
29	88.43274998664856	response	0	2		27.0	2.5	/experiments/knapen_aot/videos/R_S_production_ID_4325509.mp4	0.0	238.53199195861816	
29	88.44091391563416	movie	1		197.0	27.0	2.5	/experiments/knapen_aot/videos/R_S_production_ID_4325509.mp4	0.0	238.54015588760376	2.50833797454834
29	89.87440490722656	response	1	2		27.0	2.5	/experiments/knapen_aot/videos/R_S_production_ID_4325509.mp4	0.0	239.97364687919617	
29	90.9492518901825	fix_post	2		12.0	27.0	2.5	/experiments/knapen_aot/videos/R_S_production_ID_4325509.mp4	0.0	241.0484938621521	0.09992694854736328
30	91.04917883872986	fix_pre	0		24.0	28.0	2.5	blank	1.0	241.14842081069946	0.2000291347503662
30	91.24110794067383	response	0	2		28.0	2.5	blank	1.0	241.34034991264343	
30	91.24920797348022	movie	1		301.0	28.0	2.5	blank	1.0	241.34844994544983	2.5084309577941895
30	93.75763893127441	fix_post	2		12.0	28.0	2.5	blank	1.0	243.85688090324402	0.09992408752441406
31	93.85756301879883	fix_pre	0		49.0	29.0	2.5	/experiments/knapen_aot/videos/R_S_production_ID_4101225.mp4	0.0	243.95680499076843	0.40835094451904297
31	94.2575478553772	response	0	2		29.0	2.5	/experiments/knapen_aot/videos/R_S_production_ID_4101225.mp4	0.0	244.3567898273468	
31	94.26591396331787	movie	1		204.0	29.0	2.5	/experiments/knapen_aot/videos/R_S_production_ID_4101225.mp4	0.0	244.36515593528748	2.508302927017212
31	95.71741104125977	response	1	2		29.0	2.5	/experiments/knapen_aot/videos/R_S_production_ID_4101225.mp4	0.0	245.81665301322937	
31	96.77421689033508	fix_post	2		12.0	29.0	2.5	/experiments/knapen_aot/videos/R_S_production_ID_4101225.mp4	0.0	246.8734588623047	0.10002017021179199
32	96.87423706054688	fix_pre	0		229.0	30.0	2.5	/experiments/knapen_aot/videos/S_yt-3R23XwTXpKs_238.mp4	0.0	246.97347903251648	1.90830397605896
32	98.77438497543335	response	0	2		30.0	2.5	/experiments/knapen_aot/videos/S_yt-3R23XwTXpKs_238.mp4	0.0	248.87362694740295	
32	98.78254103660583	movie	1		301.0	30.0	2.5	/experiments/knapen_aot/videos/S_yt-3R23XwTXpKs_238.mp4	0.0	248.88178300857544	2.508396863937378
32	99.38408589363098	response	1	2		30.0	2.5	/experiments/knapen_aot/videos/S_yt-3R23XwTXpKs_238.mp4	0.0	249.4833278656006	
32	101.29093790054321	fix_post	2		12.0	30.0	2.5	/experiments/knapen_aot/videos/S_yt-3R23XwTXpKs_238.mp4	0.0	251.39017987251282	0.10004210472106934
33	101.39098000526428	fix_pre	0		69.0	31.0	2.5	/experiments/knapen_aot/videos/R_S_pexels-mart-production-7277934.mp4	0.0	251.4902219772339	0.5749218463897705
33	101.95772194862366	response	0	2		31.0	2.5	/experiments/knapen_aot/videos/R_S_pexels-mart-production-7277934.mp4	0.0	252.05696392059326	
33	101.96590185165405	movie	1		164.0	31.0	2.5	/experiments/knapen_aot/videos/R_S_pexels-mart-production-7277934.mp4	0.0	252.06514382362366	2.5085999965667725
33	102.49882197380066	response	1	2		31.0	2.5	/experiments/knapen_aot/videos/R_S_pexels-mart-production-7277934.mp4	0.0	252.59806394577026	
33	104.47450184822083	fix_post	2		12.0	31.0	2.5	/experiments/knapen_aot/videos/R_S_pexels-mart-production-7277934.mp4	0.0	254.57374382019043	0.10004520416259766
34	104.57454705238342	fix_pre	0		21.0	32.0	2.5	/experiments/knapen_aot/videos/R_S_yt-EApB0DJ3ECg_66.mp4	0.0	254.67378902435303	0.17464494705200195
34	104.74090504646301	response	0	2		32.0	2.5	/experiments/knapen_aot/videos/R_S_yt-EApB0DJ3ECg_66.mp4	0.0	254.84014701843262	
34	104.74919199943542	movie	1		301.0	32.0	2.5	/experiments/knapen_aot/videos/R_S_yt-EApB0DJ3ECg_66.mp4	0.0	254.84843397140503	2.5086328983306885
34	107.25782489776611	fix_post	2		12.0	32.0	2.5	/experiments/knapen_aot/videos/R_S_yt-EApB0DJ3ECg_66.mp4	0.0	257.3570668697357	0.09975814819335938
35	107.35758304595947	fix_pre	0		35.0	33.0	2.5	/experiments/knapen_aot/videos/R_S_yt-2IfvnrF3IV0_241.mp4	0.0	257.4568250179291	0.29160094261169434
35	107.64104390144348	response	0	2		33.0	2.5	/experiments/knapen_aot/videos/R_S_yt-2IfvnrF3IV0_241.mp4	0.0	257.7402858734131	
35	107.64918398857117	movie	1		301.0	33.0	2.5	/experiments/knapen_aot/videos/R_S_yt-2IfvnrF3IV0_241.mp4	0.0	257.74842596054077	2.5083580017089844
35	110.15754199028015	fix_post	2		12.0	33.0	2.5	/experiments/knapen_aot/videos/R_S_yt-2IfvnrF3IV0_241.mp4	0.0	260.25678396224976	0.09994888305664062
36	110.25749087333679	fix_pre	0		60.0	34.0	2.5	blank	1.0	260.3567328453064	0.4999721050262451
36	110.74925994873047	response	0	2		34.0	2.5	blank	1.0	260.8485019207001	
36	110.75746297836304	movie	1		301.0	34.0	2.5	blank	1.0	260.85670495033264	2.508375883102417
36	112.99091601371765	response	1	2		34.0	2.5	blank	1.0	263.09015798568726	
36	113.26583886146545	fix_post	2		12.0	34.0	2.5	blank	1.0	263.36508083343506	0.09997320175170898
37	113.36581206321716	fix_pre	0		168.0	35.0	2.5	/experiments/knapen_aot/videos/S_b1-3.mp4	0.0	263.46505403518677	1.3999788761138916
37	114.75758004188538	response	0	2		35.0	2.5	/experiments/knapen_aot/videos/S_b1-3.mp4	0.0	264.856822013855	
37	114.76579093933105	movie	1		165.0	35.0	2.5	/experiments/knapen_aot/videos/S_b1-3.mp4	0.0	264.86503291130066	2.508430004119873
37	117.27422094345093	fix_post	2		12.0	35.0	2.5	/experiments/knapen_aot/videos/S_b1-3.mp4	0.0	267.37346291542053	0.09992599487304688
38	117.37414693832397	fix_pre	0		153.0	36.0	2.5	/experiments/knapen_aot/videos/R_S_yt-4sSV4iIs8gQ_55.mp4	0.0	267.4733889102936	1.2749300003051758
38	118.6409559249878	response	0	2		36.0	2.5	/experiments/knapen_aot/videos/R_S_yt-4sSV4iIs8gQ_55.mp4	0.0	268.7401978969574	
38	118.64907693862915	movie	1		301.0	36.0	2.5	/experiments/knapen_aot/videos/R_S_yt-4sSV4iIs8gQ_55.mp4	0.0	268.74831891059875	2.5083680152893066
38	121.15744495391846	fix_post	2		12.0	36.0	2.5	/experiments/knapen_aot/videos/R_S_yt-4sSV4iIs8gQ_55.mp4	0.0	271.25668692588806	0.10003089904785156
39	121.25747585296631	fix_pre	0		236.0	37.0	2.5	/experiments/knapen_aot/videos/S_wc-jujp1kJRHrkJ_54.mp4	0.0	271.3567178249359	1.9666190147399902
39	123.21590805053711	response	0	2		37.0	2.5	/experiments/knapen_aot/videos/S_wc-jujp1kJRHrkJ_54.mp4	0.0	273.3151500225067	
39	123.2240948677063	movie	1		301.0	37.0	2.5	/experiments/knapen_aot/videos/S_wc-jujp1kJRHrkJ_54.mp4	0.0	273.3233368396759	2.508341073989868
39	125.73243594169617	fix_post	2		12.0	37.0	2.5	/experiments/knapen_aot/videos/S_wc-jujp1kJRHrkJ_54.mp4	0.0	275.83167791366577	0.09999895095825195
40	125.83243489265442	fix_pre	0		69.0	38.0	2.5	/experiments/knapen_aot/videos/R_S_yt-c5IgOXX8YZ0_24.mp4	0.0	275.931676864624	0.5749709606170654
40	126.39928483963013	response	0	2		38.0	2.5	/experiments/knapen_aot/videos/R_S_yt-c5IgOXX8YZ0_24.mp4	0.0	276.49852681159973	
40	126.40740585327148	movie	1		301.0	38.0	2.5	/experiments/knapen_aot/videos/R_S_yt-c5IgOXX8YZ0_24.mp4	0.0	276.5066478252411	2.5083630084991455
40	128.91576886177063	fix_post	2		12.0	38.0	2.5	/experiments/knapen_aot/videos/R_S_yt-c5IgOXX8YZ0_24.mp4	0.0	279.01501083374023	0.1000051498413086
41	129.01577401161194	fix_pre	0		337.0	39.0	2.5	/experiments/knapen_aot/videos/R_S_video-2.mp4	0.0	279.11501598358154	2.8082828521728516
41	131.8158619403839	response	0	2		39.0	2.5	/experiments/knapen_aot/videos/R_S_video-2.mp4	0.0	281.9151039123535	
41	131.8240568637848	movie	1		164.0	39.0	2.5	/experiments/knapen_aot/videos/R_S_video-2.mp4	0.0	281.9232988357544	2.508350133895874
41	134.33240699768066	fix_post	2		12.0	39.0	2.5	/experiments/knapen_aot/videos/R_S_video-2.mp4	0.0	284.43164896965027	0.09999704360961914
42	134.43240404129028	fix_pre	0		142.0	40.0	2.5	/experiments/knapen_aot/videos/S_ILSVRC2015_train_00292006.mp4	0.0	284.5316460132599	1.1832988262176514
42	135.60744786262512	response	0	2		40.0	2.5	/experiments/knapen_aot/videos/S_ILSVRC2015_train_00292006.mp4	0.0	285.7066898345947	
42	135.61570286750793	movie	1		301.0	40.0	2.5	/experiments/knapen_aot/videos/S_ILSVRC2015_train_00292006.mp4	0.0	285.71494483947754	2.5084400177001953
42	138.12414288520813	fix_post	2		12.0	40.0	2.5	/experiments/knapen_aot/videos/S_ILSVRC2015_train_00292006.mp4	0.0	288.22338485717773	0.09991312026977539
43	138.2240560054779	fix_pre	0		30.0	41.0	2.5	blank	1.0	288.3232979774475	0.24994897842407227
43	138.46578788757324	response	0	2		41.0	2.5	blank	1.0	288.56502985954285	
43	138.47400498390198	movie	1		301.0	41.0	2.5	blank	1.0	288.5732469558716	2.5083858966827393
43	140.98239088058472	fix_post	2		12.0	41.0	2.5	blank	1.0	291.0816328525543	0.10000896453857422
44	141.0823998451233	fix_pre	0		35.0	42.0	2.5	/experiments/knapen_aot/videos/S_yt-y6zr69M0yHI_76.mp4	0.0	291.1816418170929	0.29175901412963867
44	141.3658208847046	response	0	2		42.0	2.5	/experiments/knapen_aot/videos/S_yt-y6zr69M0yHI_76.mp4	0.0	291.4650628566742	
44	141.37415885925293	movie	1		301.0	42.0	2.5	/experiments/knapen_aot/videos/S_yt-y6zr69M0yHI_76.mp4	0.0	291.47340083122253	2.508305072784424
44	143.88246393203735	fix_post	2		12.0	42.0	2.5	/experiments/knapen_aot/videos/S_yt-y6zr69M0yHI_76.mp4	0.0	293.98170590400696	0.0999441146850586
45	143.9824080467224	fix_pre	0		601.0	43.0	2.5	/experiments/knapen_aot/videos/S_yt-p0buJEEKeuI_61.mp4	0.0	294.081650018692	5.008197784423828
45	148.98250198364258	response	0	2		43.0	2.5	/experiments/knapen_aot/videos/S_yt-p0buJEEKeuI_61.mp4	0.0	299.0817439556122	
45	148.99060583114624	movie	1		301.0	43.0	2.5	/experiments/knapen_aot/videos/S_yt-p0buJEEKeuI_61.mp4	0.0	299.08984780311584	2.5084052085876465
45	151.4990110397339	fix_post	2		12.0	43.0	2.5	/experiments/knapen_aot/videos/S_yt-p0buJEEKeuI_61.mp4	0.0	301.5982530117035	0.09999799728393555
46	151.59900903701782	fix_pre	0		361.0	44.0	2.5	/experiments/knapen_aot/videos/S_yt-PaxmJhMoP3w_87.mp4	0.0	301.6982510089874	3.008220911026001
46	154.59911489486694	response	0	2		44.0	2.5	/experiments/knapen_aot/videos/S_yt-PaxmJhMoP3w_87.mp4	0.0	304.69835686683655	
46	154.60722994804382	movie	1		301.0	44.0	2.5	/experiments/knapen_aot/videos/S_yt-PaxmJhMoP3w_87.mp4	0.0	304.7064719200134	2.508384943008423
46	157.11561489105225	fix_post	2		12.0	44.0	2.5	/experiments/knapen_aot/videos/S_yt-PaxmJhMoP3w_87.mp4	0.0	307.21485686302185	0.09999513626098633
47	157.21561002731323	fix_pre	0		96.0	45.0	2.5	/experiments/knapen_aot/videos/S_yt-EApB0DJ3ECg_66.mp4	0.0	307.31485199928284	0.7999598979949951
47	158.00740504264832	response	0	2		45.0	2.5	/experiments/knapen_aot/videos/S_yt-EApB0DJ3ECg_66.mp4	0.0	308.1066470146179	
47	158.01556992530823	movie	1		301.0	45.0	2.5	/experiments/knapen_aot/videos/S_yt-EApB0DJ3ECg_66.mp4	0.0	308.11481189727783	2.5085971355438232
47	160.52416706085205	fix_post	2		12.0	45.0	2.5	/experiments/knapen_aot/videos/S_yt-EApB0DJ3ECg_66.mp4	0.0	310.62340903282166	0.09972882270812988
48	160.62389588356018	fix_pre	0		51.0	46.0	2.5	/experiments/knapen_aot/videos/R_S_ILSVRC2015_train_00339001.mp4	0.0	310.7231378555298	0.42499399185180664
48	161.03318095207214	response	0	2		46.0	2.5	/experiments/knapen_aot/videos/R_S_ILSVRC2015_train_00339001.mp4	0.0	311.13242292404175	
48	161.048889875412	movie	1		301.0	46.0	2.5	/experiments/knapen_aot/videos/R_S_ILSVRC2015_train_00339001.mp4	0.0	311.1481318473816	2.5083861351013184
48	163.5572760105133	fix_post	2		12.0	46.0	2.5	/experiments/knapen_aot/videos/R_S_ILSVRC2015_train_00339001.mp4	0.0	313.6565179824829	0.10001492500305176
49	163.65729093551636	fix_pre	0		180.0	47.0	2.5	blank	1.0	313.75653290748596	1.4999189376831055
49	165.149160861969	response	0	2		47.0	2.5	blank	1.0	315.2484028339386	
49	165.15720987319946	movie	1		301.0	47.0	2.5	blank	1.0	315.25645184516907	2.5084099769592285
49	167.6656198501587	fix_post	2		12.0	47.0	2.5	blank	1.0	317.7648618221283	0.09998917579650879
50	167.7656090259552	fix_pre	0		78.0	48.0	2.5	/experiments/knapen_aot/videos/R_S_yt-qYuLW5vSotM_160.mp4	0.0	317.8648509979248	0.6499450206756592
50	168.40740489959717	response	0	2		48.0	2.5	/experiments/knapen_aot/videos/R_S_yt-qYuLW5vSotM_160.mp4	0.0	318.5066468715668	
50	168.41555404663086	movie	1		301.0	48.0	2.5	/experiments/knapen_aot/videos/R_S_yt-qYuLW5vSotM_160.mp4	0.0	318.51479601860046	2.508556842803955
50	170.92411088943481	fix_post	2		12.0	48.0	2.5	/experiments/knapen_aot/videos/R_S_yt-qYuLW5vSotM_160.mp4	0.0	321.0233528614044	0.09977912902832031
51	171.02389001846313	fix_pre	0		73.0	49.0	2.5	/experiments/knapen_aot/videos/S_yt-2y6A9DJPsDU_65.mp4	0.0	321.12313199043274	0.6093590259552002
51	171.62406396865845	response	0	2		49.0	2.5	/experiments/knapen_aot/videos/S_yt-2y6A9DJPsDU_65.mp4	0.0	321.72330594062805	
51	171.63324904441833	movie	1		301.0	49.0	2.5	/experiments/knapen_aot/videos/S_yt-2y6A9DJPsDU_65.mp4	0.0	321.73249101638794	2.507375955581665
51	172.7489879131317	response	1	2		49.0	2.5	/experiments/knapen_aot/videos/S_yt-2y6A9DJPsDU_65.mp4	0.0	322.8482298851013	
51	174.140625	fix_post	2		12.0	49.0	2.5	/experiments/knapen_aot/videos/S_yt-2y6A9DJPsDU_65.mp4	0.0	324.2398669719696	0.09992194175720215
52	174.2405469417572	fix_pre	0		1.0	50.0	2.5	/experiments/knapen_aot/videos/R_S_yt-4GDusA21cEA_170.mp4	0.0	324.3397889137268	0.010786056518554688
52	174.24210000038147	response	0	2		50.0	2.5	/experiments/knapen_aot/videos/R_S_yt-4GDusA21cEA_170.mp4	0.0	324.3413419723511	
52	174.25133299827576	movie	1		301.0	50.0	2.5	/experiments/knapen_aot/videos/R_S_yt-4GDusA21cEA_170.mp4	0.0	324.35057497024536	2.505936861038208
52	174.81902384757996	response	1	2		50.0	2.5	/experiments/knapen_aot/videos/R_S_yt-4GDusA21cEA_170.mp4	0.0	324.91826581954956	
52	175.37646985054016	response	1	2		50.0	2.5	/experiments/knapen_aot/videos/R_S_yt-4GDusA21cEA_170.mp4	0.0	325.47571182250977	
52	175.86559796333313	response	1	2		50.0	2.5	/experiments/knapen_aot/videos/R_S_yt-4GDusA21cEA_170.mp4	0.0	325.96483993530273	
52	176.29341983795166	response	1	2		50.0	2.5	/experiments/knapen_aot/videos/R_S_yt-4GDusA21cEA_170.mp4	0.0	326.39266180992126	
52	176.75726985931396	fix_post	2		12.0	50.0	2.5	/experiments/knapen_aot/videos/R_S_yt-4GDusA21cEA_170.mp4	0.0	326.85651183128357	0.1002800464630127
52	176.77398991584778	response	2	2		50.0	2.5	/experiments/knapen_aot/videos/R_S_yt-4GDusA21cEA_170.mp4	0.0	326.8732318878174	
53	176.85754990577698	fix_pre	0		47.0	51.0	2.5	/experiments/knapen_aot/videos/R_S_yt-lADkWM79teI_18.mp4	0.0	326.9567918777466	0.39135193824768066
53	177.24052691459656	response	0	2		51.0	2.5	/experiments/knapen_aot/videos/R_S_yt-lADkWM79teI_18.mp4	0.0	327.33976888656616	
53	177.24890184402466	movie	1		301.0	51.0	2.5	/experiments/knapen_aot/videos/R_S_yt-lADkWM79teI_18.mp4	0.0	327.34814381599426	2.5083420276641846
53	177.6854898929596	response	1	2		51.0	2.5	/experiments/knapen_aot/videos/R_S_yt-lADkWM79teI_18.mp4	0.0	327.7847318649292	
53	178.58232188224792	response	1	2		51.0	2.5	/experiments/knapen_aot/videos/R_S_yt-lADkWM79teI_18.mp4	0.0	328.68156385421753	
53	179.75724387168884	fix_post	2		12.0	51.0	2.5	/experiments/knapen_aot/videos/R_S_yt-lADkWM79teI_18.mp4	0.0	329.85648584365845	0.09996700286865234
54	179.8572108745575	fix_pre	0		24.0	52.0	2.5	/experiments/knapen_aot/videos/S_yt-RVoC19C420Y_27.mp4	0.0	329.9564528465271	0.19999003410339355
54	180.04898595809937	response	0	2		52.0	2.5	/experiments/knapen_aot/videos/S_yt-RVoC19C420Y_27.mp4	0.0	330.14822793006897	
54	180.0572009086609	movie	1		301.0	52.0	2.5	/experiments/knapen_aot/videos/S_yt-RVoC19C420Y_27.mp4	0.0	330.1564428806305	2.508347988128662
54	182.0656759738922	response	1	2		52.0	2.5	/experiments/knapen_aot/videos/S_yt-RVoC19C420Y_27.mp4	0.0	332.1649179458618	
54	182.56554889678955	fix_post	2		12.0	52.0	2.5	/experiments/knapen_aot/videos/S_yt-RVoC19C420Y_27.mp4	0.0	332.66479086875916	0.09996199607849121
55	182.66551089286804	fix_pre	0		90.0	53.0	2.5	/experiments/knapen_aot/videos/S_yt-wqdTPz0bLrM_561.mp4	0.0	332.76475286483765	0.7499680519104004
55	183.3997130393982	response	0	2		53.0	2.5	/experiments/knapen_aot/videos/S_yt-wqdTPz0bLrM_561.mp4	0.0	333.4989550113678	
55	183.41547894477844	movie	1		301.0	53.0	2.5	/experiments/knapen_aot/videos/S_yt-wqdTPz0bLrM_561.mp4	0.0	333.51472091674805	2.5083770751953125
55	185.92385601997375	fix_post	2		12.0	53.0	2.5	/experiments/knapen_aot/videos/S_yt-wqdTPz0bLrM_561.mp4	0.0	336.02309799194336	0.10000085830688477
56	186.02385687828064	fix_pre	0		63.0	54.0	2.5	blank	1.0	336.12309885025024	0.5260260105133057
56	186.54063200950623	response	0	2		54.0	2.5	blank	1.0	336.63987398147583	
56	186.54988288879395	movie	1		301.0	54.0	2.5	blank	1.0	336.64912486076355	2.5072901248931885
56	187.29890203475952	response	1	2		54.0	2.5	blank	1.0	337.3981440067291	
56	188.32396793365479	response	1	2		54.0	2.5	blank	1.0	338.4232099056244	
56	188.8654899597168	response	1	2		54.0	2.5	blank	1.0	338.9647319316864	
56	189.05717301368713	fix_post	2		12.0	54.0	2.5	blank	1.0	339.15641498565674	0.1000218391418457
57	189.15719485282898	fix_pre	0		31.0	55.0	2.5	/experiments/knapen_aot/videos/S_yt-xCh0LI9VKeI_28.mp4	0.0	339.2564368247986	0.25832509994506836
57	189.40715384483337	response	0	2		55.0	2.5	/experiments/knapen_aot/videos/S_yt-xCh0LI9VKeI_28.mp4	0.0	339.506395816803	
57	189.41551995277405	movie	1		301.0	55.0	2.5	/experiments/knapen_aot/videos/S_yt-xCh0LI9VKeI_28.mp4	0.0	339.51476192474365	2.5083260536193848
57	191.92384600639343	fix_post	2		12.0	55.0	2.5	/experiments/knapen_aot/videos/S_yt-xCh0LI9VKeI_28.mp4	0.0	342.02308797836304	0.10001087188720703
58	192.02385687828064	fix_pre	0		58.0	56.0	2.5	/experiments/knapen_aot/videos/S_yt-uX7qYKQm_pg_277.mp4	0.0	342.12309885025024	0.4842231273651123
58	192.49891686439514	response	0	2		56.0	2.5	/experiments/knapen_aot/videos/S_yt-uX7qYKQm_pg_277.mp4	0.0	342.59815883636475	
58	192.50808000564575	movie	1		301.0	56.0	2.5	/experiments/knapen_aot/videos/S_yt-uX7qYKQm_pg_277.mp4	0.0	342.60732197761536	2.5073769092559814
58	195.01545691490173	fix_post	2		12.0	56.0	2.5	/experiments/knapen_aot/videos/S_yt-uX7qYKQm_pg_277.mp4	0.0	345.11469888687134	0.1000509262084961
59	195.11550784111023	fix_pre	0		37.0	57.0	2.5	/experiments/knapen_aot/videos/S_production_ID_5146014.mp4	0.0	345.21474981307983	0.3092081546783447
59	195.41555190086365	response	0	2		57.0	2.5	/experiments/knapen_aot/videos/S_production_ID_5146014.mp4	0.0	345.51479387283325	
59	195.42471599578857	movie	1		164.0	57.0	2.5	/experiments/knapen_aot/videos/S_production_ID_5146014.mp4	0.0	345.5239579677582	2.507416009902954
59	197.93213200569153	fix_post	2		12.0	57.0	2.5	/experiments/knapen_aot/videos/S_production_ID_5146014.mp4	0.0	348.03137397766113	0.10001993179321289
60	198.03215193748474	fix_pre	0		27.0	58.0	2.5	/experiments/knapen_aot/videos/R_S_bing-www_cnet_com_videos_amazon-wants-to-put-alexa-on-your-pc__50.mp4	0.0	348.13139390945435	0.22586297988891602
60	198.24890184402466	response	0	2		58.0	2.5	/experiments/knapen_aot/videos/R_S_bing-www_cnet_com_videos_amazon-wants-to-put-alexa-on-your-pc__50.mp4	0.0	348.34814381599426	
60	198.25801491737366	movie	1		165.0	58.0	2.5	/experiments/knapen_aot/videos/R_S_bing-www_cnet_com_videos_amazon-wants-to-put-alexa-on-your-pc__50.mp4	0.0	348.35725688934326	2.5074751377105713
60	199.43364906311035	response	1	2		58.0	2.5	/experiments/knapen_aot/videos/R_S_bing-www_cnet_com_videos_amazon-wants-to-put-alexa-on-your-pc__50.mp4	0.0	349.53289103507996	
60	200.76549005508423	fix_post	2		12.0	58.0	2.5	/experiments/knapen_aot/videos/R_S_bing-www_cnet_com_videos_amazon-wants-to-put-alexa-on-your-pc__50.mp4	0.0	350.86473202705383	0.0999908447265625
61	200.8654808998108	fix_pre	0		190.0	59.0	2.5	/experiments/knapen_aot/videos/S_ILSVRC2015_train_00339001.mp4	0.0	350.9647228717804	1.5832829475402832
61	202.44053196907043	response	0	2		59.0	2.5	/experiments/knapen_aot/videos/S_ILSVRC2015_train_00339001.mp4	0.0	352.53977394104004	
61	202.44876384735107	movie	1		301.0	59.0	2.5	/experiments/knapen_aot/videos/S_ILSVRC2015_train_00339001.mp4	0.0	352.5480058193207	2.5083742141723633
61	204.95713806152344	fix_post	2		12.0	59.0	2.5	/experiments/knapen_aot/videos/S_ILSVRC2015_train_00339001.mp4	0.0	355.05638003349304	0.09996891021728516
62	205.05710697174072	fix_pre	0		64.0	60.0	2.5	/experiments/knapen_aot/videos/R_S_yt-PCSXJ5YB_AE_3.mp4	0.0	355.1563489437103	0.5341839790344238
62	205.58222198486328	response	0	2		60.0	2.5	/experiments/knapen_aot/videos/R_S_yt-PCSXJ5YB_AE_3.mp4	0.0	355.6814639568329	
62	205.59129095077515	movie	1		301.0	60.0	2.5	/experiments/knapen_aot/videos/R_S_yt-PCSXJ5YB_AE_3.mp4	0.0	355.69053292274475	2.507685899734497
62	208.09897685050964	fix_post	2		12.0	60.0	2.5	/experiments/knapen_aot/videos/R_S_yt-PCSXJ5YB_AE_3.mp4	0.0	358.19821882247925	0.09977006912231445
63	208.19874691963196	fix_pre	0		249.0	61.0	2.5	/experiments/knapen_aot/videos/S_nTA7B2uHaCQ_1.mp4	0.0	358.29798889160156	2.075000047683716
63	210.26562190055847	response	0	2		61.0	2.5	/experiments/knapen_aot/videos/S_nTA7B2uHaCQ_1.mp4	0.0	360.3648638725281	
63	210.27374696731567	movie	1		301.0	61.0	2.5	/experiments/knapen_aot/videos/S_nTA7B2uHaCQ_1.mp4	0.0	360.3729889392853	2.5083260536193848
63	212.78207302093506	fix_post	2		12.0	61.0	2.5	/experiments/knapen_aot/videos/S_nTA7B2uHaCQ_1.mp4	0.0	362.88131499290466	0.10001897811889648
64	212.88209199905396	fix_pre	0		38.0	62.0	2.5	blank	1.0	362.98133397102356	0.31665706634521484
64	213.19048690795898	response	0	2		62.0	2.5	blank	1.0	363.2897288799286	
64	213.19874906539917	movie	1		301.0	62.0	2.5	blank	1.0	363.2979910373688	2.5082919597625732
64	215.70704102516174	fix_post	2		12.0	62.0	2.5	blank	1.0	365.80628299713135	0.1000509262084961
65	215.80709195137024	fix_pre	0		36.0	63.0	2.5	/experiments/knapen_aot/videos/R_S_yt-qazCIJqjxUU_3.mp4	0.0	365.90633392333984	0.29991888999938965
65	216.09886002540588	response	0	2		63.0	2.5	/experiments/knapen_aot/videos/R_S_yt-qazCIJqjxUU_3.mp4	0.0	366.1981019973755	
65	216.10701084136963	movie	1		301.0	63.0	2.5	/experiments/knapen_aot/videos/R_S_yt-qazCIJqjxUU_3.mp4	0.0	366.20625281333923	2.5083770751953125
65	218.61538791656494	fix_post	2		12.0	63.0	2.5	/experiments/knapen_aot/videos/R_S_yt-qazCIJqjxUU_3.mp4	0.0	368.71462988853455	0.10000801086425781
66	218.7153959274292	fix_pre	0		57.0	64.0	2.5	/experiments/knapen_aot/videos/S_yt-Ndwek2tpIOA_169.mp4	0.0	368.8146378993988	0.47496795654296875
66	219.18219304084778	response	0	2		64.0	2.5	/experiments/knapen_aot/videos/S_yt-Ndwek2tpIOA_169.mp4	0.0	369.2814350128174	
66	219.19036388397217	movie	1		301.0	64.0	2.5	/experiments/knapen_aot/videos/S_yt-Ndwek2tpIOA_169.mp4	0.0	369.2896058559418	2.5082740783691406
66	221.6986379623413	fix_post	2		12.0	64.0	2.5	/experiments/knapen_aot/videos/S_yt-Ndwek2tpIOA_169.mp4	0.0	371.7978799343109	0.10008788108825684
67	221.79872584342957	fix_pre	0		47.0	65.0	2.5	/experiments/knapen_aot/videos/S_yt-HoRtvVuuvOs_5.mp4	0.0	371.89796781539917	0.3915281295776367
67	222.18211603164673	response	0	2		65.0	2.5	/experiments/knapen_aot/videos/S_yt-HoRtvVuuvOs_5.mp4	0.0	372.28135800361633	
67	222.1902539730072	movie	1		301.0	65.0	2.5	/experiments/knapen_aot/videos/S_yt-HoRtvVuuvOs_5.mp4	0.0	372.2894959449768	2.50846791267395
67	224.69872188568115	fix_post	2		12.0	65.0	2.5	/experiments/knapen_aot/videos/S_yt-HoRtvVuuvOs_5.mp4	0.0	374.79796385765076	0.09998512268066406
68	224.79870700836182	fix_pre	0		91.0	66.0	2.5	/experiments/knapen_aot/videos/R_S_yt-2IxVZeiSv3g_28.mp4	0.0	374.8979489803314	0.7582600116729736
68	225.548810005188	response	0	2		66.0	2.5	/experiments/knapen_aot/videos/R_S_yt-2IxVZeiSv3g_28.mp4	0.0	375.6480519771576	
68	225.5569670200348	movie	1		301.0	66.0	2.5	/experiments/knapen_aot/videos/R_S_yt-2IxVZeiSv3g_28.mp4	0.0	375.6562089920044	2.508356809616089
68	228.06532382965088	fix_post	2		12.0	66.0	2.5	/experiments/knapen_aot/videos/R_S_yt-2IxVZeiSv3g_28.mp4	0.0	378.1645658016205	0.1001901626586914
69	228.16551399230957	fix_pre	0		66.0	67.0	2.5	/experiments/knapen_aot/videos/R_S_yt-ikhlUegH24c_552.mp4	0.0	378.2647559642792	0.5506119728088379
69	228.70712089538574	response	0	2		67.0	2.5	/experiments/knapen_aot/videos/R_S_yt-ikhlUegH24c_552.mp4	0.0	378.80636286735535	
69	228.7161259651184	movie	1		301.0	67.0	2.5	/experiments/knapen_aot/videos/R_S_yt-ikhlUegH24c_552.mp4	0.0	378.815367937088	2.5075879096984863
69	231.2237138748169	fix_post	2		12.0	67.0	2.5	/experiments/knapen_aot/videos/R_S_yt-ikhlUegH24c_552.mp4	0.0	381.3229558467865	0.09998703002929688
70	231.3237009048462	fix_pre	0		54.0	68.0	2.5	/experiments/knapen_aot/videos/R_S_b1-3.mp4	0.0	381.4229428768158	0.44998693466186523
70	231.76549100875854	response	0	2		68.0	2.5	/experiments/knapen_aot/videos/R_S_b1-3.mp4	0.0	381.86473298072815	
70	231.77368783950806	movie	1		169.0	68.0	2.5	/experiments/knapen_aot/videos/R_S_b1-3.mp4	0.0	381.87292981147766	2.5085721015930176
70	234.28225994110107	fix_post	2		12.0	68.0	2.5	/experiments/knapen_aot/videos/R_S_b1-3.mp4	0.0	384.3815019130707	0.09975910186767578
71	234.38201904296875	fix_pre	0		48.0	69.0	2.5	blank	1.0	384.48126101493835	0.39998292922973633
71	234.7737820148468	response	0	2		69.0	2.5	blank	1.0	384.8730239868164	
71	234.7820019721985	movie	1		301.0	69.0	2.5	blank	1.0	384.8812439441681	2.5083389282226562
71	236.8070809841156	response	1	2		69.0	2.5	blank	1.0	386.9063229560852	
71	237.29034090042114	fix_post	2		12.0	69.0	2.5	blank	1.0	387.38958287239075	0.09992599487304688
72	237.3902668952942	fix_pre	0		90.0	70.0	2.5	/experiments/knapen_aot/videos/S_yt-5DD4XtHSA9Q_171.mp4	0.0	387.4895088672638	0.7500081062316895
72	238.13197803497314	response	0	2		70.0	2.5	/experiments/knapen_aot/videos/S_yt-5DD4XtHSA9Q_171.mp4	0.0	388.23122000694275	
72	238.14027500152588	movie	1		301.0	70.0	2.5	/experiments/knapen_aot/videos/S_yt-5DD4XtHSA9Q_171.mp4	0.0	388.2395169734955	2.5083439350128174
72	240.6486189365387	fix_post	2		12.0	70.0	2.5	/experiments/knapen_aot/videos/S_yt-5DD4XtHSA9Q_171.mp4	0.0	390.7478609085083	0.10003995895385742
73	240.74865889549255	fix_pre	0		33.0	71.0	2.5	/experiments/knapen_aot/videos/S_g201_AK_A003_C014_SDR_20191113_SDR_2K_AVC.mp4	0.0	390.84790086746216	0.27493906021118164
73	241.00782799720764	response	0	2		71.0	2.5	/experiments/knapen_aot/videos/S_g201_AK_A003_C014_SDR_20191113_SDR_2K_AVC.mp4	0.0	391.10706996917725	
73	241.02359795570374	movie	1		163.0	71.0	2.5	/experiments/knapen_aot/videos/S_g201_AK_A003_C014_SDR_20191113_SDR_2K_AVC.mp4	0.0	391.12283992767334	2.5084640979766846
73	243.53206205368042	fix_post	2		12.0	71.0	2.5	/experiments/knapen_aot/videos/S_g201_AK_A003_C014_SDR_20191113_SDR_2K_AVC.mp4	0.0	393.63130402565	0.0998678207397461
74	243.63192987442017	fix_pre	0		40.0	72.0	2.5	/experiments/knapen_aot/videos/R_S_ILSVRC2015_train_00404000.mp4	0.0	393.73117184638977	0.3341031074523926
74	243.95707392692566	response	0	2		72.0	2.5	/experiments/knapen_aot/videos/R_S_ILSVRC2015_train_00404000.mp4	0.0	394.05631589889526	
74	243.96603298187256	movie	1		301.0	72.0	2.5	/experiments/knapen_aot/videos/R_S_ILSVRC2015_train_00404000.mp4	0.0	394.06527495384216	2.507624864578247
74	246.4154109954834	response	1	2		72.0	2.5	/experiments/knapen_aot/videos/R_S_ILSVRC2015_train_00404000.mp4	0.0	396.514652967453	
74	246.4736578464508	fix_post	2		12.0	72.0	2.5	/experiments/knapen_aot/videos/R_S_ILSVRC2015_train_00404000.mp4	0.0	396.5728998184204	0.09992218017578125
75	246.5735800266266	fix_pre	0		421.0	73.0	2.5	/experiments/knapen_aot/videos/R_S_Pexels_Videos_2786546.mp4	0.0	396.6728219985962	3.5084309577941895
75	250.07368993759155	response	0	2		73.0	2.5	/experiments/knapen_aot/videos/R_S_Pexels_Videos_2786546.mp4	0.0	400.17293190956116	
75	250.08201098442078	movie	1		165.0	73.0	2.5	/experiments/knapen_aot/videos/R_S_Pexels_Videos_2786546.mp4	0.0	400.1812529563904	2.508225917816162
75	252.59023690223694	fix_post	2		12.0	73.0	2.5	/experiments/knapen_aot/videos/R_S_Pexels_Videos_2786546.mp4	0.0	402.68947887420654	0.09993195533752441
76	252.69016885757446	fix_pre	0		196.0	74.0	2.5	/experiments/knapen_aot/videos/R_S_DL_B002_C011_SDR_20191122_SDR_2K_AVC.mp4	0.0	402.78941082954407	1.633378028869629
76	254.31538486480713	response	0	2		74.0	2.5	/experiments/knapen_aot/videos/R_S_DL_B002_C011_SDR_20191122_SDR_2K_AVC.mp4	0.0	404.41462683677673	
76	254.3235468864441	movie	1		164.0	74.0	2.5	/experiments/knapen_aot/videos/R_S_DL_B002_C011_SDR_20191122_SDR_2K_AVC.mp4	0.0	404.4227888584137	2.508373975753784
76	255.97368097305298	response	1	2		74.0	2.5	/experiments/knapen_aot/videos/R_S_DL_B002_C011_SDR_20191122_SDR_2K_AVC.mp4	0.0	406.0729229450226	
76	256.8319208621979	fix_post	2		12.0	74.0	2.5	/experiments/knapen_aot/videos/R_S_DL_B002_C011_SDR_20191122_SDR_2K_AVC.mp4	0.0	406.9311628341675	0.09997010231018066
77	256.93189096450806	fix_pre	0		55.0	75.0	2.5	/experiments/knapen_aot/videos/S_yt-O6W6CZPXvlA_15.mp4	0.0	407.03113293647766	0.45829200744628906
77	257.38193583488464	response	0	2		75.0	2.5	/experiments/knapen_aot/videos/S_yt-O6W6CZPXvlA_15.mp4	0.0	407.48117780685425	
77	257.39018297195435	movie	1		301.0	75.0	2.5	/experiments/knapen_aot/videos/S_yt-O6W6CZPXvlA_15.mp4	0.0	407.48942494392395	2.5084428787231445
77	259.8986258506775	fix_post	2		12.0	75.0	2.5	/experiments/knapen_aot/videos/S_yt-O6W6CZPXvlA_15.mp4	0.0	409.9978678226471	0.09992504119873047
78	259.9985508918762	fix_pre	0		33.0	76.0	2.5	/experiments/knapen_aot/videos/R_S_production_ID_4101225.mp4	0.0	410.0977928638458	0.2749781608581543
78	260.265310049057	response	0	2		76.0	2.5	/experiments/knapen_aot/videos/R_S_production_ID_4101225.mp4	0.0	410.3645520210266	
78	260.2735290527344	movie	1		196.0	76.0	2.5	/experiments/knapen_aot/videos/R_S_production_ID_4101225.mp4	0.0	410.372771024704	2.508373975753784
78	262.78190302848816	fix_post	2		12.0	76.0	2.5	/experiments/knapen_aot/videos/R_S_production_ID_4101225.mp4	0.0	412.88114500045776	0.09990096092224121
79	262.8818039894104	fix_pre	0		82.0	77.0	2.5	blank	1.0	412.98104596138	0.6834139823913574
79	263.5569169521332	response	0	2		77.0	2.5	blank	1.0	413.6561589241028	
79	263.56521797180176	movie	1		301.0	77.0	2.5	blank	1.0	413.66445994377136	2.5082850456237793
79	265.3402359485626	response	1	2		77.0	2.5	blank	1.0	415.4394779205322	
79	266.07350301742554	fix_post	2		12.0	77.0	2.5	blank	1.0	416.17274498939514	0.10073685646057129
80	266.1742398738861	fix_pre	0		55.0	78.0	2.5	/experiments/knapen_aot/videos/R_S_ILSVRC2015_train_00574000.mp4	0.0	416.2734818458557	0.45811009407043457
80	266.62360095977783	response	0	2		78.0	2.5	/experiments/knapen_aot/videos/R_S_ILSVRC2015_train_00574000.mp4	0.0	416.72284293174744	
80	266.63234996795654	movie	1		301.0	78.0	2.5	/experiments/knapen_aot/videos/R_S_ILSVRC2015_train_00574000.mp4	0.0	416.73159193992615	2.5078470706939697
80	269.1401970386505	fix_post	2		12.0	78.0	2.5	/experiments/knapen_aot/videos/R_S_ILSVRC2015_train_00574000.mp4	0.0	419.2394390106201	0.09997892379760742
81	269.2401759624481	fix_pre	0		234.0	79.0	2.5	/experiments/knapen_aot/videos/S_yt-X6ivH9SqGu8_306.mp4	0.0	419.3394179344177	1.9499669075012207
81	271.1819589138031	response	0	2		79.0	2.5	/experiments/knapen_aot/videos/S_yt-X6ivH9SqGu8_306.mp4	0.0	421.2812008857727	
81	271.19014286994934	movie	1		301.0	79.0	2.5	/experiments/knapen_aot/videos/S_yt-X6ivH9SqGu8_306.mp4	0.0	421.28938484191895	2.5083320140838623
81	271.79555583000183	response	1	2		79.0	2.5	/experiments/knapen_aot/videos/S_yt-X6ivH9SqGu8_306.mp4	0.0	421.89479780197144	
81	273.6984748840332	fix_post	2		12.0	79.0	2.5	/experiments/knapen_aot/videos/S_yt-X6ivH9SqGu8_306.mp4	0.0	423.7977168560028	0.09993505477905273
82	273.79840993881226	fix_pre	0		436.0	80.0	2.5	/experiments/knapen_aot/videos/S_yt--v_iMUMMX6g_39.mp4	0.0	423.89765191078186	3.6333470344543457
82	277.42354798316956	response	0	2		80.0	2.5	/experiments/knapen_aot/videos/S_yt--v_iMUMMX6g_39.mp4	0.0	427.52278995513916	
82	277.4317569732666	movie	1		301.0	80.0	2.5	/experiments/knapen_aot/videos/S_yt--v_iMUMMX6g_39.mp4	0.0	427.5309989452362	2.5084049701690674
82	279.2436258792877	response	1	2		80.0	2.5	/experiments/knapen_aot/videos/S_yt--v_iMUMMX6g_39.mp4	0.0	429.3428678512573	
82	279.94016194343567	fix_post	2		12.0	80.0	2.5	/experiments/knapen_aot/videos/S_yt--v_iMUMMX6g_39.mp4	0.0	430.0394039154053	0.10001611709594727
83	280.0401780605316	fix_pre	0		70.0	81.0	2.5	/experiments/knapen_aot/videos/S_video_inspire_sanfrancisco_castro_005.1080-h264.mp4	0.0	430.1394200325012	0.5832278728485107
83	280.60761189460754	response	0	2		81.0	2.5	/experiments/knapen_aot/videos/S_video_inspire_sanfrancisco_castro_005.1080-h264.mp4	0.0	430.70685386657715	
83	280.6234059333801	movie	1		166.0	81.0	2.5	/experiments/knapen_aot/videos/S_video_inspire_sanfrancisco_castro_005.1080-h264.mp4	0.0	430.72264790534973	2.508402109146118
83	283.13180804252625	fix_post	2		12.0	81.0	2.5	/experiments/knapen_aot/videos/S_video_inspire_sanfrancisco_castro_005.1080-h264.mp4	0.0	433.23105001449585	0.10000801086425781
84	283.2318160533905	fix_pre	0		88.0	82.0	2.5	blank	1.0	433.3310580253601	0.733752965927124
84	283.956876039505	response	0	2		82.0	2.5	blank	1.0	434.0561180114746	
84	283.9655690193176	movie	1		301.0	82.0	2.5	blank	1.0	434.06481099128723	2.5081188678741455
84	286.4736878871918	fix_post	2		12.0	82.0	2.5	blank	1.0	436.5729298591614	0.09972214698791504
85	286.5734100341797	fix_pre	0		116.0	83.0	2.5	/experiments/knapen_aot/videos/R_S_pexels-koolshooters-7327412_1.mp4	0.0	436.6726520061493	0.9666628837585449
85	287.5318880081177	response	0	2		83.0	2.5	/experiments/knapen_aot/videos/R_S_pexels-koolshooters-7327412_1.mp4	0.0	437.6311299800873	
85	287.54007291793823	movie	1		162.0	83.0	2.5	/experiments/knapen_aot/videos/R_S_pexels-koolshooters-7327412_1.mp4	0.0	437.63931488990784	2.5084409713745117
85	290.04851388931274	fix_post	2		12.0	83.0	2.5	/experiments/knapen_aot/videos/R_S_pexels-koolshooters-7327412_1.mp4	0.0	440.14775586128235	0.09990811347961426
87	290.14842200279236	stim	0		90.0					440.24766397476196	0.7546260356903076
87	290.1741478443146	response	0	2						440.2733898162842	
87	290.89473390579224	response	0	space						440.99397587776184	
