trial_nr	onset	event_type	phase	response	nr_frames	movie_index	movie_duration	movie_file	blank	onset_abs	duration
0	0.1588301658630371	stim	0		21.0					58.418002128601074	0.17461681365966797
0	0.3256981372833252	response	0	space						58.58487010002136	
1	0.3334469795227051	stim	0		121.0					58.59261894226074	1.0082111358642578
1	1.341658115386963	stim	1		120.0					59.600830078125	0.9995920658111572
1	1.9671711921691895	response	1	space						60.22634315490723	
2	2.34125018119812	fix_pre	0		30.0	0.0	2.5	/experiments/knapen_aot/videos/R_S_g201_TH_804_A001_8_SDR_20191031_SDR_2K_AVC.mp4	0.0	60.60042214393616	0.2500419616699219
2	2.5755419731140137	response	0	space		0.0	2.5	/experiments/knapen_aot/videos/R_S_g201_TH_804_A001_8_SDR_20191031_SDR_2K_AVC.mp4	0.0	60.83471393585205	
2	2.591292142868042	movie	1		165.0	0.0	2.5	/experiments/knapen_aot/videos/R_S_g201_TH_804_A001_8_SDR_20191031_SDR_2K_AVC.mp4	0.0	60.85046410560608	2.5084099769592285
2	5.0997021198272705	fix_post	2		12.0	0.0	2.5	/experiments/knapen_aot/videos/R_S_g201_TH_804_A001_8_SDR_20191031_SDR_2K_AVC.mp4	0.0	63.35887408256531	0.09989786148071289
3	5.199599981307983	fix_pre	0		1.0	1.0	2.5	/experiments/knapen_aot/videos/R_S_yt-VQtbKGzI9SE_431.mp4	0.0	63.45877194404602	0.008314132690429688
3	5.20429801940918	response	0	2		1.0	2.5	/experiments/knapen_aot/videos/R_S_yt-VQtbKGzI9SE_431.mp4	0.0	63.46346998214722	
3	5.207914113998413	movie	1		301.0	1.0	2.5	/experiments/knapen_aot/videos/R_S_yt-VQtbKGzI9SE_431.mp4	0.0	63.46708607673645	2.508404016494751
3	7.716318130493164	fix_post	2		12.0	1.0	2.5	/experiments/knapen_aot/videos/R_S_yt-VQtbKGzI9SE_431.mp4	0.0	65.9754900932312	0.10007500648498535
4	7.816393136978149	fix_pre	0		13.0	2.0	2.5	/experiments/knapen_aot/videos/R_S_ILSVRC2015_train_00479004.mp4	0.0	66.07556509971619	0.10813283920288086
4	7.9164299964904785	response	0	2		2.0	2.5	/experiments/knapen_aot/videos/R_S_ILSVRC2015_train_00479004.mp4	0.0	66.17560195922852	
4	7.92452597618103	movie	1		301.0	2.0	2.5	/experiments/knapen_aot/videos/R_S_ILSVRC2015_train_00479004.mp4	0.0	66.18369793891907	2.50832200050354
4	10.43284797668457	fix_post	2		12.0	2.0	2.5	/experiments/knapen_aot/videos/R_S_ILSVRC2015_train_00479004.mp4	0.0	68.69201993942261	0.10004305839538574
5	10.532891035079956	fix_pre	0		9.0	3.0	2.5	/experiments/knapen_aot/videos/S_pexels-cottonbro-10640532.mp4	0.0	68.792062997818	0.07501006126403809
5	10.599690198898315	response	0	2		3.0	2.5	/experiments/knapen_aot/videos/S_pexels-cottonbro-10640532.mp4	0.0	68.85886216163635	
5	10.607901096343994	movie	1		200.0	3.0	2.5	/experiments/knapen_aot/videos/S_pexels-cottonbro-10640532.mp4	0.0	68.86707305908203	2.508424997329712
5	13.116326093673706	fix_post	2		12.0	3.0	2.5	/experiments/knapen_aot/videos/S_pexels-cottonbro-10640532.mp4	0.0	71.37549805641174	0.10025906562805176
6	13.216585159301758	fix_pre	0		23.0	4.0	2.5	/experiments/knapen_aot/videos/S_comp_A103_C002_0205DG_v12_SDR_FINAL_20180706_SDR_2K_AVC.mp4	0.0	71.4757571220398	0.19190597534179688
6	13.399698972702026	response	0	2		4.0	2.5	/experiments/knapen_aot/videos/S_comp_A103_C002_0205DG_v12_SDR_FINAL_20180706_SDR_2K_AVC.mp4	0.0	71.65887093544006	
6	13.408491134643555	movie	1		164.0	4.0	2.5	/experiments/knapen_aot/videos/S_comp_A103_C002_0205DG_v12_SDR_FINAL_20180706_SDR_2K_AVC.mp4	0.0	71.66766309738159	2.5078580379486084
6	15.916349172592163	fix_post	2		12.0	4.0	2.5	/experiments/knapen_aot/videos/S_comp_A103_C002_0205DG_v12_SDR_FINAL_20180706_SDR_2K_AVC.mp4	0.0	74.1755211353302	0.0998690128326416
7	16.016218185424805	fix_pre	0		10.0	5.0	2.5	blank	1.0	74.27539014816284	0.0833280086517334
7	16.08380699157715	response	0	2		5.0	2.5	blank	1.0	74.34297895431519	
7	16.099546194076538	movie	1		301.0	5.0	2.5	blank	1.0	74.35871815681458	2.5083258152008057
7	18.607872009277344	fix_post	2		12.0	5.0	2.5	blank	1.0	76.86704397201538	0.10005307197570801
8	18.70792508125305	fix_pre	0		69.0	6.0	2.5	/experiments/knapen_aot/videos/S_pexels-c-technical-6763571.mp4	0.0	76.96709704399109	0.5753719806671143
8	19.274646043777466	response	0	2		6.0	2.5	/experiments/knapen_aot/videos/S_pexels-c-technical-6763571.mp4	0.0	77.5338180065155	
8	19.283297061920166	movie	1		198.0	6.0	2.5	/experiments/knapen_aot/videos/S_pexels-c-technical-6763571.mp4	0.0	77.5424690246582	2.507925033569336
8	21.791222095489502	fix_post	2		12.0	6.0	2.5	/experiments/knapen_aot/videos/S_pexels-c-technical-6763571.mp4	0.0	80.05039405822754	0.09993505477905273
9	21.891157150268555	fix_pre	0		22.0	7.0	2.5	/experiments/knapen_aot/videos/R_S_ILSVRC2015_train_00444000.mp4	0.0	80.15032911300659	0.1839158535003662
9	22.06628704071045	response	0	2		7.0	2.5	/experiments/knapen_aot/videos/R_S_ILSVRC2015_train_00444000.mp4	0.0	80.32545900344849	
9	22.07507300376892	movie	1		301.0	7.0	2.5	/experiments/knapen_aot/videos/R_S_ILSVRC2015_train_00444000.mp4	0.0	80.33424496650696	2.5078179836273193
9	24.58289098739624	fix_post	2		12.0	7.0	2.5	/experiments/knapen_aot/videos/R_S_ILSVRC2015_train_00444000.mp4	0.0	82.84206295013428	0.1001291275024414
10	24.68302011489868	fix_pre	0		3.0	8.0	2.5	/experiments/knapen_aot/videos/S_ILSVRC2015_train_00547001.mp4	0.0	82.94219207763672	0.02480292320251465
10	24.699650049209595	response	0	2		8.0	2.5	/experiments/knapen_aot/videos/S_ILSVRC2015_train_00547001.mp4	0.0	82.95882201194763	
10	24.707823038101196	movie	1		301.0	8.0	2.5	/experiments/knapen_aot/videos/S_ILSVRC2015_train_00547001.mp4	0.0	82.96699500083923	2.5084469318389893
10	27.033435106277466	response	1	2		8.0	2.5	/experiments/knapen_aot/videos/S_ILSVRC2015_train_00547001.mp4	0.0	85.2926070690155	
10	27.216269969940186	fix_post	2		12.0	8.0	2.5	/experiments/knapen_aot/videos/S_ILSVRC2015_train_00547001.mp4	0.0	85.47544193267822	0.09989714622497559
11	27.31616711616516	fix_pre	0		10.0	9.0	2.5	/experiments/knapen_aot/videos/S_flickr-53807584@N00-5565833509_7.mp4	0.0	85.5753390789032	0.08330893516540527
11	27.39124298095703	response	0	2		9.0	2.5	/experiments/knapen_aot/videos/S_flickr-53807584@N00-5565833509_7.mp4	0.0	85.65041494369507	
11	27.399476051330566	movie	1		301.0	9.0	2.5	/experiments/knapen_aot/videos/S_flickr-53807584@N00-5565833509_7.mp4	0.0	85.6586480140686	2.5083580017089844
11	29.90783405303955	fix_post	2		12.0	9.0	2.5	/experiments/knapen_aot/videos/S_flickr-53807584@N00-5565833509_7.mp4	0.0	88.16700601577759	0.10002708435058594
12	30.007861137390137	fix_pre	0		10.0	10.0	2.5	/experiments/knapen_aot/videos/S_yt-fIEGqReekCM_10.mp4	0.0	88.26703310012817	0.08329606056213379
12	30.082880973815918	response	0	2		10.0	2.5	/experiments/knapen_aot/videos/S_yt-fIEGqReekCM_10.mp4	0.0	88.34205293655396	
12	30.09115719795227	movie	1		301.0	10.0	2.5	/experiments/knapen_aot/videos/S_yt-fIEGqReekCM_10.mp4	0.0	88.35032916069031	2.508333921432495
12	32.599491119384766	fix_post	2		12.0	10.0	2.5	/experiments/knapen_aot/videos/S_yt-fIEGqReekCM_10.mp4	0.0	90.8586630821228	0.10041284561157227
13	32.69990396499634	fix_pre	0		12.0	11.0	2.5	/experiments/knapen_aot/videos/S_yt-4r-oovk9JWg_85.mp4	0.0	90.95907592773438	0.09955406188964844
13	32.79127502441406	response	0	2		11.0	2.5	/experiments/knapen_aot/videos/S_yt-4r-oovk9JWg_85.mp4	0.0	91.0504469871521	
13	32.799458026885986	movie	1		301.0	11.0	2.5	/experiments/knapen_aot/videos/S_yt-4r-oovk9JWg_85.mp4	0.0	91.05862998962402	2.508437156677246
13	35.30789518356323	fix_post	2		12.0	11.0	2.5	/experiments/knapen_aot/videos/S_yt-4r-oovk9JWg_85.mp4	0.0	93.56706714630127	0.10037899017333984
14	35.40827417373657	fix_pre	0		9.0	12.0	2.5	/experiments/knapen_aot/videos/R_S_yt-TSSPDwAQLXs_158.mp4	0.0	93.66744613647461	0.07445597648620605
14	35.47463798522949	response	0	2		12.0	2.5	/experiments/knapen_aot/videos/R_S_yt-TSSPDwAQLXs_158.mp4	0.0	93.73380994796753	
14	35.48273015022278	movie	1		301.0	12.0	2.5	/experiments/knapen_aot/videos/R_S_yt-TSSPDwAQLXs_158.mp4	0.0	93.74190211296082	2.5086209774017334
14	37.99135112762451	fix_post	2		12.0	12.0	2.5	/experiments/knapen_aot/videos/R_S_yt-TSSPDwAQLXs_158.mp4	0.0	96.25052309036255	0.09975790977478027
15	38.09110903739929	fix_pre	0		24.0	13.0	2.5	blank	1.0	96.35028100013733	0.20000410079956055
15	38.28287696838379	response	0	2		13.0	2.5	blank	1.0	96.54204893112183	
15	38.29111313819885	movie	1		301.0	13.0	2.5	blank	1.0	96.55028510093689	2.5082619190216064
15	40.79937505722046	fix_post	2		12.0	13.0	2.5	blank	1.0	99.0585470199585	0.10007190704345703
16	40.899446964263916	fix_pre	0		32.0	14.0	2.5	/experiments/knapen_aot/videos/S_ILSVRC2015_train_00155004.mp4	0.0	99.15861892700195	0.2666151523590088
16	41.158305168151855	response	0	2		14.0	2.5	/experiments/knapen_aot/videos/S_ILSVRC2015_train_00155004.mp4	0.0	99.41747713088989	
16	41.166062116622925	movie	1		301.0	14.0	2.5	/experiments/knapen_aot/videos/S_ILSVRC2015_train_00155004.mp4	0.0	99.42523407936096	2.5083160400390625
16	43.67437815666199	fix_post	2		12.0	14.0	2.5	/experiments/knapen_aot/videos/S_ILSVRC2015_train_00155004.mp4	0.0	101.93355011940002	0.10008788108825684
17	43.774466037750244	fix_pre	0		20.0	15.0	2.5	/experiments/knapen_aot/videos/R_S_yt-z68VLDDCFdw_93.mp4	0.0	102.03363800048828	0.1665630340576172
17	43.9328670501709	response	0	2		15.0	2.5	/experiments/knapen_aot/videos/R_S_yt-z68VLDDCFdw_93.mp4	0.0	102.19203901290894	
17	43.94102907180786	movie	1		301.0	15.0	2.5	/experiments/knapen_aot/videos/R_S_yt-z68VLDDCFdw_93.mp4	0.0	102.2002010345459	2.50838303565979
17	46.44941210746765	fix_post	2		12.0	15.0	2.5	/experiments/knapen_aot/videos/R_S_yt-z68VLDDCFdw_93.mp4	0.0	104.70858407020569	0.10006093978881836
18	46.54947304725647	fix_pre	0		27.0	16.0	2.5	/experiments/knapen_aot/videos/S_I003_C015_SDR_2K_AVC.mp4	0.0	104.8086450099945	0.224898099899292
18	46.766276121139526	response	0	2		16.0	2.5	/experiments/knapen_aot/videos/S_I003_C015_SDR_2K_AVC.mp4	0.0	105.02544808387756	
18	46.77437114715576	movie	1		167.0	16.0	2.5	/experiments/knapen_aot/videos/S_I003_C015_SDR_2K_AVC.mp4	0.0	105.0335431098938	2.50833797454834
18	49.2827091217041	fix_post	2		12.0	16.0	2.5	/experiments/knapen_aot/videos/S_I003_C015_SDR_2K_AVC.mp4	0.0	107.54188108444214	0.10000395774841309
19	49.382713079452515	fix_pre	0		8.0	17.0	2.5	/experiments/knapen_aot/videos/S_pexels-c-technical-6753390_2.mp4	0.0	107.64188504219055	0.06701493263244629
19	49.44114112854004	response	0	2		17.0	2.5	/experiments/knapen_aot/videos/S_pexels-c-technical-6753390_2.mp4	0.0	107.70031309127808	
19	49.44972801208496	movie	1		191.0	17.0	2.5	/experiments/knapen_aot/videos/S_pexels-c-technical-6753390_2.mp4	0.0	107.708899974823	2.5080461502075195
19	51.95777416229248	fix_post	2		12.0	17.0	2.5	/experiments/knapen_aot/videos/S_pexels-c-technical-6753390_2.mp4	0.0	110.21694612503052	0.09994387626647949
20	52.05771803855896	fix_pre	0		19.0	18.0	2.5	/experiments/knapen_aot/videos/S_wc-NVeGRb_y_y_5_36.mp4	0.0	110.316890001297	0.15830707550048828
20	52.20778703689575	response	0	2		18.0	2.5	/experiments/knapen_aot/videos/S_wc-NVeGRb_y_y_5_36.mp4	0.0	110.46695899963379	
20	52.21602511405945	movie	1		167.0	18.0	2.5	/experiments/knapen_aot/videos/S_wc-NVeGRb_y_y_5_36.mp4	0.0	110.47519707679749	2.508575916290283
20	54.72460103034973	fix_post	2		12.0	18.0	2.5	/experiments/knapen_aot/videos/S_wc-NVeGRb_y_y_5_36.mp4	0.0	112.98377299308777	0.09978103637695312
21	54.824382066726685	fix_pre	0		25.0	19.0	2.5	/experiments/knapen_aot/videos/R_S_video-11.mp4	0.0	113.08355402946472	0.20867609977722168
21	55.02448296546936	response	0	2		19.0	2.5	/experiments/knapen_aot/videos/R_S_video-11.mp4	0.0	113.2836549282074	
21	55.033058166503906	movie	1		165.0	19.0	2.5	/experiments/knapen_aot/videos/R_S_video-11.mp4	0.0	113.29223012924194	2.5081639289855957
21	57.5412220954895	fix_post	2		12.0	19.0	2.5	/experiments/knapen_aot/videos/R_S_video-11.mp4	0.0	115.80039405822754	0.09983491897583008
22	57.64105701446533	fix_pre	0		23.0	20.0	2.5	/experiments/knapen_aot/videos/S_ILSVRC2015_train_00743002.mp4	0.0	115.90022897720337	0.19158601760864258
22	57.824467182159424	response	0	2		20.0	2.5	/experiments/knapen_aot/videos/S_ILSVRC2015_train_00743002.mp4	0.0	116.08363914489746	
22	57.832643032073975	movie	1		301.0	20.0	2.5	/experiments/knapen_aot/videos/S_ILSVRC2015_train_00743002.mp4	0.0	116.09181499481201	2.508384943008423
22	60.3410279750824	fix_post	2		12.0	20.0	2.5	/experiments/knapen_aot/videos/S_ILSVRC2015_train_00743002.mp4	0.0	118.60019993782043	0.10001611709594727
23	60.441044092178345	fix_pre	0		31.0	21.0	2.5	blank	1.0	118.70021605491638	0.2585749626159668
23	60.69107103347778	response	0	2		21.0	2.5	blank	1.0	118.95024299621582	
23	60.69961905479431	movie	1		301.0	21.0	2.5	blank	1.0	118.95879101753235	2.508031129837036
23	63.20765018463135	fix_post	2		12.0	21.0	2.5	blank	1.0	121.46682214736938	0.10002589225769043
24	63.30767607688904	fix_pre	0		26.0	22.0	2.5	/experiments/knapen_aot/videos/R_S_ILSVRC2015_train_00479004.mp4	0.0	121.56684803962708	0.21667790412902832
24	63.516056060791016	response	0	2		22.0	2.5	/experiments/knapen_aot/videos/R_S_ILSVRC2015_train_00479004.mp4	0.0	121.77522802352905	
24	63.524353981018066	movie	1		301.0	22.0	2.5	/experiments/knapen_aot/videos/R_S_ILSVRC2015_train_00479004.mp4	0.0	121.7835259437561	2.508280038833618
24	66.03263401985168	fix_post	2		12.0	22.0	2.5	/experiments/knapen_aot/videos/R_S_ILSVRC2015_train_00479004.mp4	0.0	124.29180598258972	0.09999895095825195
25	66.13263297080994	fix_pre	0		47.0	23.0	2.5	/experiments/knapen_aot/videos/S_ILSVRC2015_train_00715000.mp4	0.0	124.39180493354797	0.3915691375732422
25	66.50850009918213	response	0	2		23.0	2.5	/experiments/knapen_aot/videos/S_ILSVRC2015_train_00715000.mp4	0.0	124.76767206192017	
25	66.52420210838318	movie	1		301.0	23.0	2.5	/experiments/knapen_aot/videos/S_ILSVRC2015_train_00715000.mp4	0.0	124.78337407112122	2.5083348751068115
25	69.03253698348999	fix_post	2		12.0	23.0	2.5	/experiments/knapen_aot/videos/S_ILSVRC2015_train_00715000.mp4	0.0	127.29170894622803	0.10011601448059082
26	69.13265299797058	fix_pre	0		51.0	24.0	2.5	/experiments/knapen_aot/videos/S_yt-XYULt48onn4_6.mp4	0.0	127.39182496070862	0.4249730110168457
26	69.54945397377014	response	0	2		24.0	2.5	/experiments/knapen_aot/videos/S_yt-XYULt48onn4_6.mp4	0.0	127.80862593650818	
26	69.55762600898743	movie	1		301.0	24.0	2.5	/experiments/knapen_aot/videos/S_yt-XYULt48onn4_6.mp4	0.0	127.81679797172546	2.5083720684051514
26	72.06599807739258	fix_post	2		12.0	24.0	2.5	/experiments/knapen_aot/videos/S_yt-XYULt48onn4_6.mp4	0.0	130.32517004013062	0.0998990535736084
27	72.16589713096619	fix_pre	0		26.0	25.0	2.5	/experiments/knapen_aot/videos/S_yt-6mRpmfIvdew_1435.mp4	0.0	130.42506909370422	0.21668696403503418
27	72.37439918518066	response	0	2		25.0	2.5	/experiments/knapen_aot/videos/S_yt-6mRpmfIvdew_1435.mp4	0.0	130.6335711479187	
27	72.38258409500122	movie	1		301.0	25.0	2.5	/experiments/knapen_aot/videos/S_yt-6mRpmfIvdew_1435.mp4	0.0	130.64175605773926	2.5083909034729004
27	74.89097499847412	fix_post	2		12.0	25.0	2.5	/experiments/knapen_aot/videos/S_yt-6mRpmfIvdew_1435.mp4	0.0	133.15014696121216	0.10020613670349121
28	74.99118113517761	fix_pre	0		38.0	26.0	2.5	/experiments/knapen_aot/videos/S_comp_A105_C003_0212CT_FLARE_v10_SDR_PS_FINAL_20180711_SDR_2K_AVC.mp4	0.0	133.25035309791565	0.3163909912109375
28	75.29938316345215	response	0	2		26.0	2.5	/experiments/knapen_aot/videos/S_comp_A105_C003_0212CT_FLARE_v10_SDR_PS_FINAL_20180711_SDR_2K_AVC.mp4	0.0	133.55855512619019	
28	75.30757212638855	movie	1		163.0	26.0	2.5	/experiments/knapen_aot/videos/S_comp_A105_C003_0212CT_FLARE_v10_SDR_PS_FINAL_20180711_SDR_2K_AVC.mp4	0.0	133.5667440891266	2.508333921432495
28	77.81590604782104	fix_post	2		12.0	26.0	2.5	/experiments/knapen_aot/videos/S_comp_A105_C003_0212CT_FLARE_v10_SDR_PS_FINAL_20180711_SDR_2K_AVC.mp4	0.0	136.07507801055908	0.10025691986083984
29	77.91616296768188	fix_pre	0		20.0	27.0	2.5	/experiments/knapen_aot/videos/S_yt-ZzC953ahaxs_195.mp4	0.0	136.17533493041992	0.1664111614227295
29	78.07434010505676	response	0	2		27.0	2.5	/experiments/knapen_aot/videos/S_yt-ZzC953ahaxs_195.mp4	0.0	136.3335120677948	
29	78.08257412910461	movie	1		301.0	27.0	2.5	/experiments/knapen_aot/videos/S_yt-ZzC953ahaxs_195.mp4	0.0	136.34174609184265	2.5083138942718506
29	80.59088802337646	fix_post	2		12.0	27.0	2.5	/experiments/knapen_aot/videos/S_yt-ZzC953ahaxs_195.mp4	0.0	138.8500599861145	0.09999513626098633
30	80.69088315963745	fix_pre	0		16.0	28.0	2.5	blank	1.0	138.9500551223755	0.1334989070892334
30	80.8160150051117	response	0	2		28.0	2.5	blank	1.0	139.07518696784973	
30	80.82438206672668	movie	1		301.0	28.0	2.5	blank	1.0	139.08355402946472	2.508168935775757
30	83.33255100250244	fix_post	2		12.0	28.0	2.5	blank	1.0	141.59172296524048	0.1000821590423584
31	83.4326331615448	fix_pre	0		54.0	29.0	2.5	/experiments/knapen_aot/videos/R_S_yt-aiWUhl8MCto_71.mp4	0.0	141.69180512428284	0.44991493225097656
31	83.87432503700256	response	0	2		29.0	2.5	/experiments/knapen_aot/videos/R_S_yt-aiWUhl8MCto_71.mp4	0.0	142.1334969997406	
31	83.88254809379578	movie	1		301.0	29.0	2.5	/experiments/knapen_aot/videos/R_S_yt-aiWUhl8MCto_71.mp4	0.0	142.1417200565338	2.5083301067352295
31	86.390878200531	fix_post	2		12.0	29.0	2.5	/experiments/knapen_aot/videos/R_S_yt-aiWUhl8MCto_71.mp4	0.0	144.65005016326904	0.10023999214172363
32	86.49111819267273	fix_pre	0		34.0	30.0	2.5	/experiments/knapen_aot/videos/S_yt-LUIvP_NDWAs_45.mp4	0.0	144.75029015541077	0.283066987991333
32	86.7660460472107	response	0	2		30.0	2.5	/experiments/knapen_aot/videos/S_yt-LUIvP_NDWAs_45.mp4	0.0	145.02521800994873	
32	86.77418518066406	movie	1		301.0	30.0	2.5	/experiments/knapen_aot/videos/S_yt-LUIvP_NDWAs_45.mp4	0.0	145.0333571434021	2.508718967437744
32	89.2829041481018	fix_post	2		12.0	30.0	2.5	/experiments/knapen_aot/videos/S_yt-LUIvP_NDWAs_45.mp4	0.0	147.54207611083984	0.09962892532348633
33	89.3825330734253	fix_pre	0		28.0	31.0	2.5	/experiments/knapen_aot/videos/R_S_pexels-cottonbro-10640532.mp4	0.0	147.64170503616333	0.2334120273590088
33	89.60767817497253	response	0	2		31.0	2.5	/experiments/knapen_aot/videos/R_S_pexels-cottonbro-10640532.mp4	0.0	147.86685013771057	
33	89.6159451007843	movie	1		191.0	31.0	2.5	/experiments/knapen_aot/videos/R_S_pexels-cottonbro-10640532.mp4	0.0	147.87511706352234	2.508181095123291
33	92.12412619590759	fix_post	2		12.0	31.0	2.5	/experiments/knapen_aot/videos/R_S_pexels-cottonbro-10640532.mp4	0.0	150.38329815864563	0.1000669002532959
34	92.22419309616089	fix_pre	0		17.0	32.0	2.5	/experiments/knapen_aot/videos/S_g201_WH_D004_L014_SDR_20191031_SDR_2K_AVC.mp4	0.0	150.48336505889893	0.1417369842529297
34	92.3576271533966	response	0	2		32.0	2.5	/experiments/knapen_aot/videos/S_g201_WH_D004_L014_SDR_20191031_SDR_2K_AVC.mp4	0.0	150.61679911613464	
34	92.36593008041382	movie	1		164.0	32.0	2.5	/experiments/knapen_aot/videos/S_g201_WH_D004_L014_SDR_20191031_SDR_2K_AVC.mp4	0.0	150.62510204315186	2.5081920623779297
34	94.87412214279175	fix_post	2		12.0	32.0	2.5	/experiments/knapen_aot/videos/S_g201_WH_D004_L014_SDR_20191031_SDR_2K_AVC.mp4	0.0	153.13329410552979	0.10008883476257324
35	94.97421097755432	fix_pre	0		16.0	33.0	2.5	blank	1.0	153.23338294029236	0.13331317901611328
35	95.09925508499146	response	0	2		33.0	2.5	blank	1.0	153.3584270477295	
35	95.10752415657043	movie	1		301.0	33.0	2.5	blank	1.0	153.36669611930847	2.5085198879241943
35	97.61604404449463	fix_post	2		12.0	33.0	2.5	blank	1.0	155.87521600723267	0.09978795051574707
36	97.71583199501038	fix_pre	0		23.0	34.0	2.5	/experiments/knapen_aot/videos/S_yt-n1snPiGfg0A_45.mp4	0.0	155.9750039577484	0.19179415702819824
36	97.89931297302246	response	0	2		34.0	2.5	/experiments/knapen_aot/videos/S_yt-n1snPiGfg0A_45.mp4	0.0	156.1584849357605	
36	97.90762615203857	movie	1		301.0	34.0	2.5	/experiments/knapen_aot/videos/S_yt-n1snPiGfg0A_45.mp4	0.0	156.1667981147766	2.5082008838653564
36	100.41582703590393	fix_post	2		12.0	34.0	2.5	/experiments/knapen_aot/videos/S_yt-n1snPiGfg0A_45.mp4	0.0	158.67499899864197	0.09992599487304688
37	100.51575303077698	fix_pre	0		35.0	35.0	2.5	/experiments/knapen_aot/videos/R_S_yt-i1h9ZiYZ86U_28.mp4	0.0	158.77492499351501	0.2917001247406006
37	100.7992331981659	response	0	2		35.0	2.5	/experiments/knapen_aot/videos/R_S_yt-i1h9ZiYZ86U_28.mp4	0.0	159.05840516090393	
37	100.80745315551758	movie	1		301.0	35.0	2.5	/experiments/knapen_aot/videos/R_S_yt-i1h9ZiYZ86U_28.mp4	0.0	159.06662511825562	2.50839900970459
37	103.31585216522217	fix_post	2		12.0	35.0	2.5	/experiments/knapen_aot/videos/R_S_yt-i1h9ZiYZ86U_28.mp4	0.0	161.5750241279602	0.09999299049377441
38	103.41584515571594	fix_pre	0		16.0	36.0	2.5	/experiments/knapen_aot/videos/S_yt-yyIimWrvRyI_246.mp4	0.0	161.67501711845398	0.13328886032104492
38	103.54093909263611	response	0	2		36.0	2.5	/experiments/knapen_aot/videos/S_yt-yyIimWrvRyI_246.mp4	0.0	161.80011105537415	
38	103.54913401603699	movie	1		301.0	36.0	2.5	/experiments/knapen_aot/videos/S_yt-yyIimWrvRyI_246.mp4	0.0	161.80830597877502	2.5083110332489014
38	106.05744504928589	fix_post	2		12.0	36.0	2.5	/experiments/knapen_aot/videos/S_yt-yyIimWrvRyI_246.mp4	0.0	164.31661701202393	0.10004115104675293
39	106.15748620033264	fix_pre	0		25.0	37.0	2.5	/experiments/knapen_aot/videos/R_S_ILSVRC2015_train_00292006.mp4	0.0	164.41665816307068	0.2082839012145996
39	106.35759401321411	response	0	2		37.0	2.5	/experiments/knapen_aot/videos/R_S_ILSVRC2015_train_00292006.mp4	0.0	164.61676597595215	
39	106.36577010154724	movie	1		301.0	37.0	2.5	/experiments/knapen_aot/videos/R_S_ILSVRC2015_train_00292006.mp4	0.0	164.62494206428528	2.5084478855133057
39	108.87421798706055	fix_post	2		12.0	37.0	2.5	/experiments/knapen_aot/videos/R_S_ILSVRC2015_train_00292006.mp4	0.0	167.13338994979858	0.10002398490905762
40	108.9742419719696	fix_pre	0		22.0	38.0	2.5	/experiments/knapen_aot/videos/S_yt-kuzdrmHa-W0_39.mp4	0.0	167.23341393470764	0.18320322036743164
40	109.14172005653381	response	0	2		38.0	2.5	/experiments/knapen_aot/videos/S_yt-kuzdrmHa-W0_39.mp4	0.0	167.40089201927185	
40	109.15744519233704	movie	1		301.0	38.0	2.5	/experiments/knapen_aot/videos/S_yt-kuzdrmHa-W0_39.mp4	0.0	167.41661715507507	2.5083768367767334
40	111.66582202911377	fix_post	2		12.0	38.0	2.5	/experiments/knapen_aot/videos/S_yt-kuzdrmHa-W0_39.mp4	0.0	169.9249939918518	0.0999610424041748
41	111.76578307151794	fix_pre	0		21.0	39.0	2.5	/experiments/knapen_aot/videos/S_yt-i1h9ZiYZ86U_28.mp4	0.0	170.02495503425598	0.17501211166381836
41	111.93260717391968	response	0	2		39.0	2.5	/experiments/knapen_aot/videos/S_yt-i1h9ZiYZ86U_28.mp4	0.0	170.19177913665771	
41	111.94079518318176	movie	1		300.0	39.0	2.5	/experiments/knapen_aot/videos/S_yt-i1h9ZiYZ86U_28.mp4	0.0	170.1999671459198	2.508354902267456
41	114.44915008544922	fix_post	2		12.0	39.0	2.5	/experiments/knapen_aot/videos/S_yt-i1h9ZiYZ86U_28.mp4	0.0	172.70832204818726	0.09990310668945312
42	114.54905319213867	fix_pre	0		25.0	40.0	2.5	/experiments/knapen_aot/videos/S_yt-jcuaf9iSEkI_169.mp4	0.0	172.8082251548767	0.20836281776428223
42	114.74920916557312	response	0	2		40.0	2.5	/experiments/knapen_aot/videos/S_yt-jcuaf9iSEkI_169.mp4	0.0	173.00838112831116	
42	114.75741600990295	movie	1		301.0	40.0	2.5	/experiments/knapen_aot/videos/S_yt-jcuaf9iSEkI_169.mp4	0.0	173.016587972641	2.5083141326904297
42	117.26573014259338	fix_post	2		12.0	40.0	2.5	/experiments/knapen_aot/videos/S_yt-jcuaf9iSEkI_169.mp4	0.0	175.52490210533142	0.1001119613647461
43	117.36584210395813	fix_pre	0		33.0	41.0	2.5	blank	1.0	175.62501406669617	0.27488088607788086
43	117.63245701789856	response	0	2		41.0	2.5	blank	1.0	175.8916289806366	
43	117.64072299003601	movie	1		301.0	41.0	2.5	blank	1.0	175.89989495277405	2.508472204208374
43	120.14919519424438	fix_post	2		12.0	41.0	2.5	blank	1.0	178.40836715698242	0.10007286071777344
44	120.24926805496216	fix_pre	0		44.0	42.0	2.5	/experiments/knapen_aot/videos/S_yt-NqyG4Ar2JWo_10.mp4	0.0	178.5084400177002	0.3664131164550781
44	120.60754704475403	response	0	2		42.0	2.5	/experiments/knapen_aot/videos/S_yt-NqyG4Ar2JWo_10.mp4	0.0	178.86671900749207	
44	120.61568117141724	movie	1		301.0	42.0	2.5	/experiments/knapen_aot/videos/S_yt-NqyG4Ar2JWo_10.mp4	0.0	178.87485313415527	2.508342981338501
44	123.12402415275574	fix_post	2		12.0	42.0	2.5	/experiments/knapen_aot/videos/S_yt-NqyG4Ar2JWo_10.mp4	0.0	181.38319611549377	0.10003089904785156
45	123.22405505180359	fix_pre	0		27.0	43.0	2.5	/experiments/knapen_aot/videos/R_S_yt-alGXD2Drh_g_19.mp4	0.0	181.48322701454163	0.2249469757080078
45	123.44082307815552	response	0	2		43.0	2.5	/experiments/knapen_aot/videos/R_S_yt-alGXD2Drh_g_19.mp4	0.0	181.69999504089355	
45	123.4490020275116	movie	1		301.0	43.0	2.5	/experiments/knapen_aot/videos/R_S_yt-alGXD2Drh_g_19.mp4	0.0	181.70817399024963	2.5083680152893066
45	125.9573700428009	fix_post	2		12.0	43.0	2.5	/experiments/knapen_aot/videos/R_S_yt-alGXD2Drh_g_19.mp4	0.0	184.21654200553894	0.10001111030578613
46	126.05738115310669	fix_pre	0		12.0	44.0	2.5	/experiments/knapen_aot/videos/S_IrGYVLkWeQs_9.mp4	0.0	184.31655311584473	0.09995698928833008
46	126.14909219741821	response	0	2		44.0	2.5	/experiments/knapen_aot/videos/S_IrGYVLkWeQs_9.mp4	0.0	184.40826416015625	
46	126.15733814239502	movie	1		301.0	44.0	2.5	/experiments/knapen_aot/videos/S_IrGYVLkWeQs_9.mp4	0.0	184.41651010513306	2.508327007293701
46	128.66566514968872	fix_post	2		12.0	44.0	2.5	/experiments/knapen_aot/videos/S_IrGYVLkWeQs_9.mp4	0.0	186.92483711242676	0.09998393058776855
47	128.7656490802765	fix_pre	0		15.0	45.0	2.5	/experiments/knapen_aot/videos/S_yt-tqxZlasEvZA_43.mp4	0.0	187.02482104301453	0.12498593330383301
47	128.88248801231384	response	0	2		45.0	2.5	/experiments/knapen_aot/videos/S_yt-tqxZlasEvZA_43.mp4	0.0	187.14165997505188	
47	128.89063501358032	movie	1		301.0	45.0	2.5	/experiments/knapen_aot/videos/S_yt-tqxZlasEvZA_43.mp4	0.0	187.14980697631836	2.508497953414917
47	131.39913296699524	fix_post	2		12.0	45.0	2.5	/experiments/knapen_aot/videos/S_yt-tqxZlasEvZA_43.mp4	0.0	189.65830492973328	0.09985518455505371
48	131.4989881515503	fix_pre	0		18.0	46.0	2.5	/experiments/knapen_aot/videos/R_S_yt-K0CzoUy_uIA_22.mp4	0.0	189.75816011428833	0.15160298347473145
48	131.64078497886658	response	0	2		46.0	2.5	/experiments/knapen_aot/videos/R_S_yt-K0CzoUy_uIA_22.mp4	0.0	189.89995694160461	
48	131.65059113502502	movie	1		301.0	46.0	2.5	/experiments/knapen_aot/videos/R_S_yt-K0CzoUy_uIA_22.mp4	0.0	189.90976309776306	2.5067930221557617
48	134.1573841571808	fix_post	2		12.0	46.0	2.5	/experiments/knapen_aot/videos/R_S_yt-K0CzoUy_uIA_22.mp4	0.0	192.41655611991882	0.10043692588806152
49	134.25782108306885	fix_pre	0		10.0	47.0	2.5	/experiments/knapen_aot/videos/S_yt-BDCyXL5e9S4_223.mp4	0.0	192.51699304580688	0.08281207084655762
49	134.33249807357788	response	0	2		47.0	2.5	/experiments/knapen_aot/videos/S_yt-BDCyXL5e9S4_223.mp4	0.0	192.59167003631592	
49	134.3406331539154	movie	1		301.0	47.0	2.5	/experiments/knapen_aot/videos/S_yt-BDCyXL5e9S4_223.mp4	0.0	192.59980511665344	2.5083699226379395
49	136.84900307655334	fix_post	2		12.0	47.0	2.5	/experiments/knapen_aot/videos/S_yt-BDCyXL5e9S4_223.mp4	0.0	195.10817503929138	0.09998297691345215
50	136.9489860534668	fix_pre	0		30.0	48.0	2.5	blank	1.0	195.20815801620483	0.2499840259552002
50	137.1907901763916	response	0	2		48.0	2.5	blank	1.0	195.44996213912964	
50	137.198970079422	movie	1		301.0	48.0	2.5	blank	1.0	195.45814204216003	2.5083889961242676
50	139.70735907554626	fix_post	2		12.0	48.0	2.5	blank	1.0	197.9665310382843	0.09993505477905273
51	139.80729413032532	fix_pre	0		29.0	49.0	2.5	/experiments/knapen_aot/videos/R_S_yt-CNq5mTA8oXY_176.mp4	0.0	198.06646609306335	0.2416548728942871
51	140.04072499275208	response	0	2		49.0	2.5	/experiments/knapen_aot/videos/R_S_yt-CNq5mTA8oXY_176.mp4	0.0	198.2998969554901	
51	140.0489490032196	movie	1		301.0	49.0	2.5	/experiments/knapen_aot/videos/R_S_yt-CNq5mTA8oXY_176.mp4	0.0	198.30812096595764	2.508342981338501
51	142.5572919845581	fix_post	2		12.0	49.0	2.5	/experiments/knapen_aot/videos/R_S_yt-CNq5mTA8oXY_176.mp4	0.0	200.81646394729614	0.10003018379211426
52	142.65732216835022	fix_pre	0		24.0	50.0	2.5	/experiments/knapen_aot/videos/R_S_yt-pB9w3AA-woE_37.mp4	0.0	200.91649413108826	0.19994282722473145
52	142.8490490913391	response	0	2		50.0	2.5	/experiments/knapen_aot/videos/R_S_yt-pB9w3AA-woE_37.mp4	0.0	201.10822105407715	
52	142.85726499557495	movie	1		301.0	50.0	2.5	/experiments/knapen_aot/videos/R_S_yt-pB9w3AA-woE_37.mp4	0.0	201.116436958313	2.508419990539551
52	145.3656849861145	fix_post	2		12.0	50.0	2.5	/experiments/knapen_aot/videos/R_S_yt-pB9w3AA-woE_37.mp4	0.0	203.62485694885254	0.09990906715393066
53	145.46559405326843	fix_pre	0		30.0	51.0	2.5	/experiments/knapen_aot/videos/S_pexels-anthony-shkraba-7569650.mp4	0.0	203.72476601600647	0.24996399879455566
53	145.70737719535828	response	0	2		51.0	2.5	/experiments/knapen_aot/videos/S_pexels-anthony-shkraba-7569650.mp4	0.0	203.9665491580963	
53	145.715558052063	movie	1		196.0	51.0	2.5	/experiments/knapen_aot/videos/S_pexels-anthony-shkraba-7569650.mp4	0.0	203.97473001480103	2.508497953414917
53	148.2240560054779	fix_post	2		12.0	51.0	2.5	/experiments/knapen_aot/videos/S_pexels-anthony-shkraba-7569650.mp4	0.0	206.48322796821594	0.09990215301513672
54	148.32395815849304	fix_pre	0		15.0	52.0	2.5	/experiments/knapen_aot/videos/R_S_ILSVRC2015_train_00444000.mp4	0.0	206.58313012123108	0.12491703033447266
54	148.44071316719055	response	0	2		52.0	2.5	/experiments/knapen_aot/videos/R_S_ILSVRC2015_train_00444000.mp4	0.0	206.6998851299286	
54	148.44887518882751	movie	1		301.0	52.0	2.5	/experiments/knapen_aot/videos/R_S_ILSVRC2015_train_00444000.mp4	0.0	206.70804715156555	2.508530855178833
54	150.95740604400635	fix_post	2		12.0	52.0	2.5	/experiments/knapen_aot/videos/R_S_ILSVRC2015_train_00444000.mp4	0.0	209.21657800674438	0.09984111785888672
55	151.05724716186523	fix_pre	0		5.0	53.0	2.5	/experiments/knapen_aot/videos/S_yt-2lnxIdOTxog_157.mp4	0.0	209.31641912460327	0.0416569709777832
55	151.08318996429443	response	0	2		53.0	2.5	/experiments/knapen_aot/videos/S_yt-2lnxIdOTxog_157.mp4	0.0	209.34236192703247	
55	151.09890413284302	movie	1		301.0	53.0	2.5	/experiments/knapen_aot/videos/S_yt-2lnxIdOTxog_157.mp4	0.0	209.35807609558105	2.508373975753784
55	153.6072781085968	fix_post	2		12.0	53.0	2.5	/experiments/knapen_aot/videos/S_yt-2lnxIdOTxog_157.mp4	0.0	211.86645007133484	0.09999394416809082
56	153.7072720527649	fix_pre	0		11.0	54.0	2.5	blank	1.0	211.96644401550293	0.09163093566894531
56	153.79065608978271	response	0	2		54.0	2.5	blank	1.0	212.04982805252075	
56	153.79890298843384	movie	1		301.0	54.0	2.5	blank	1.0	212.05807495117188	2.508291006088257
56	156.3071939945221	fix_post	2		12.0	54.0	2.5	blank	1.0	214.56636595726013	0.10011816024780273
57	156.4073121547699	fix_pre	0		41.0	55.0	2.5	/experiments/knapen_aot/videos/R_S_yt-1V0KJEc4cJ4_203.mp4	0.0	214.66648411750793	0.3415679931640625
57	156.73318314552307	response	0	2		55.0	2.5	/experiments/knapen_aot/videos/R_S_yt-1V0KJEc4cJ4_203.mp4	0.0	214.9923551082611	
57	156.74888014793396	movie	1		301.0	55.0	2.5	/experiments/knapen_aot/videos/R_S_yt-1V0KJEc4cJ4_203.mp4	0.0	215.008052110672	2.508352041244507
57	159.25723218917847	fix_post	2		12.0	55.0	2.5	/experiments/knapen_aot/videos/R_S_yt-1V0KJEc4cJ4_203.mp4	0.0	217.5164041519165	0.1002500057220459
58	159.3574821949005	fix_pre	0		34.0	56.0	2.5	/experiments/knapen_aot/videos/R_S_comp_A009_C001_010181A_v09_SDR_PS_FINAL_20180725_SDR_2K_AVC.mp4	0.0	217.61665415763855	0.2830789089202881
58	159.6323630809784	response	0	2		56.0	2.5	/experiments/knapen_aot/videos/R_S_comp_A009_C001_010181A_v09_SDR_PS_FINAL_20180725_SDR_2K_AVC.mp4	0.0	217.89153504371643	
58	159.6405611038208	movie	1		165.0	56.0	2.5	/experiments/knapen_aot/videos/R_S_comp_A009_C001_010181A_v09_SDR_PS_FINAL_20180725_SDR_2K_AVC.mp4	0.0	217.89973306655884	2.50839900970459
58	162.1489601135254	fix_post	2		12.0	56.0	2.5	/experiments/knapen_aot/videos/R_S_comp_A009_C001_010181A_v09_SDR_PS_FINAL_20180725_SDR_2K_AVC.mp4	0.0	220.40813207626343	0.09997797012329102
59	162.24893808364868	fix_pre	0		8.0	57.0	2.5	/experiments/knapen_aot/videos/S_yt-z68VLDDCFdw_93.mp4	0.0	220.50811004638672	0.06793904304504395
59	162.30739307403564	response	0	2		57.0	2.5	/experiments/knapen_aot/videos/S_yt-z68VLDDCFdw_93.mp4	0.0	220.56656503677368	
59	162.31687712669373	movie	1		301.0	57.0	2.5	/experiments/knapen_aot/videos/S_yt-z68VLDDCFdw_93.mp4	0.0	220.57604908943176	2.5070300102233887
59	164.82390713691711	fix_post	2		12.0	57.0	2.5	/experiments/knapen_aot/videos/S_yt-z68VLDDCFdw_93.mp4	0.0	223.08307909965515	0.10001683235168457
60	164.9239239692688	fix_pre	0		38.0	58.0	2.5	/experiments/knapen_aot/videos/S_yt-IC62JSYpq9w_71.mp4	0.0	223.18309593200684	0.3166170120239258
60	165.23232007026672	response	0	2		58.0	2.5	/experiments/knapen_aot/videos/S_yt-IC62JSYpq9w_71.mp4	0.0	223.49149203300476	
60	165.24054098129272	movie	1		301.0	58.0	2.5	/experiments/knapen_aot/videos/S_yt-IC62JSYpq9w_71.mp4	0.0	223.49971294403076	2.508378028869629
60	167.74891901016235	fix_post	2		12.0	58.0	2.5	/experiments/knapen_aot/videos/S_yt-IC62JSYpq9w_71.mp4	0.0	226.0080909729004	0.09999918937683105
61	167.84891819953918	fix_pre	0		90.0	59.0	2.5	/experiments/knapen_aot/videos/R_S_yt-kQpE9L-fsNE_55.mp4	0.0	226.10809016227722	0.749957799911499
61	168.59070205688477	response	0	2		59.0	2.5	/experiments/knapen_aot/videos/R_S_yt-kQpE9L-fsNE_55.mp4	0.0	226.8498740196228	
61	168.59887599945068	movie	1		301.0	59.0	2.5	/experiments/knapen_aot/videos/R_S_yt-kQpE9L-fsNE_55.mp4	0.0	226.85804796218872	2.508249044418335
61	171.10712504386902	fix_post	2		12.0	59.0	2.5	/experiments/knapen_aot/videos/R_S_yt-kQpE9L-fsNE_55.mp4	0.0	229.36629700660706	0.10004711151123047
62	171.20717215538025	fix_pre	0		17.0	60.0	2.5	/experiments/knapen_aot/videos/R_S_yt-AbJBxqEYoMg_27.mp4	0.0	229.4663441181183	0.14162087440490723
62	171.34064507484436	response	0	2		60.0	2.5	/experiments/knapen_aot/videos/R_S_yt-AbJBxqEYoMg_27.mp4	0.0	229.5998170375824	
62	171.34879302978516	movie	1		301.0	60.0	2.5	/experiments/knapen_aot/videos/R_S_yt-AbJBxqEYoMg_27.mp4	0.0	229.6079649925232	2.5083539485931396
62	173.8571469783783	fix_post	2		12.0	60.0	2.5	/experiments/knapen_aot/videos/R_S_yt-AbJBxqEYoMg_27.mp4	0.0	232.11631894111633	0.10015606880187988
63	173.95730304718018	fix_pre	0		20.0	61.0	2.5	/experiments/knapen_aot/videos/S_yt-TZ107yBhXoA_1.mp4	0.0	232.2164750099182	0.16650605201721191
63	174.1155641078949	response	0	2		61.0	2.5	/experiments/knapen_aot/videos/S_yt-TZ107yBhXoA_1.mp4	0.0	232.37473607063293	
63	174.1238090991974	movie	1		301.0	61.0	2.5	/experiments/knapen_aot/videos/S_yt-TZ107yBhXoA_1.mp4	0.0	232.38298106193542	2.508336067199707
63	176.6321451663971	fix_post	2		12.0	61.0	2.5	/experiments/knapen_aot/videos/S_yt-TZ107yBhXoA_1.mp4	0.0	234.89131712913513	0.10000181198120117
64	176.7321469783783	fix_pre	0		29.0	62.0	2.5	blank	1.0	234.99131894111633	0.24166417121887207
64	176.96562004089355	response	0	2		62.0	2.5	blank	1.0	235.2247920036316	
64	176.97381114959717	movie	1		301.0	62.0	2.5	blank	1.0	235.2329831123352	2.508368968963623
64	179.4821801185608	fix_post	2		12.0	62.0	2.5	blank	1.0	237.74135208129883	0.10001993179321289
65	179.582200050354	fix_pre	0		20.0	63.0	2.5	/experiments/knapen_aot/videos/R_S_wc-ikynRrpJVaWp_12.mp4	0.0	237.84137201309204	0.16656899452209473
65	179.74065709114075	response	0	2		63.0	2.5	/experiments/knapen_aot/videos/R_S_wc-ikynRrpJVaWp_12.mp4	0.0	237.99982905387878	
65	179.7487690448761	movie	1		166.0	63.0	2.5	/experiments/knapen_aot/videos/R_S_wc-ikynRrpJVaWp_12.mp4	0.0	238.00794100761414	2.5085160732269287
65	182.25728511810303	fix_post	2		12.0	63.0	2.5	/experiments/knapen_aot/videos/R_S_wc-ikynRrpJVaWp_12.mp4	0.0	240.51645708084106	0.10010504722595215
66	182.35739016532898	fix_pre	0		44.0	64.0	2.5	/experiments/knapen_aot/videos/S_ILSVRC2015_train_00568002.mp4	0.0	240.61656212806702	0.36635780334472656
66	182.71558904647827	response	0	2		64.0	2.5	/experiments/knapen_aot/videos/S_ILSVRC2015_train_00568002.mp4	0.0	240.9747610092163	
66	182.7237479686737	movie	1		301.0	64.0	2.5	/experiments/knapen_aot/videos/S_ILSVRC2015_train_00568002.mp4	0.0	240.98291993141174	2.508324146270752
66	185.23207211494446	fix_post	2		12.0	64.0	2.5	/experiments/knapen_aot/videos/S_ILSVRC2015_train_00568002.mp4	0.0	243.4912440776825	0.10003805160522461
67	185.33211016654968	fix_pre	0		18.0	65.0	2.5	/experiments/knapen_aot/videos/R_S_yt-Ud9uqaeHtY4_302.mp4	0.0	243.59128212928772	0.15132594108581543
67	185.4738781452179	response	0	2		65.0	2.5	/experiments/knapen_aot/videos/R_S_yt-Ud9uqaeHtY4_302.mp4	0.0	243.73305010795593	
67	185.4834361076355	movie	1		301.0	65.0	2.5	/experiments/knapen_aot/videos/R_S_yt-Ud9uqaeHtY4_302.mp4	0.0	243.74260807037354	2.50705885887146
67	187.99049496650696	fix_post	2		12.0	65.0	2.5	/experiments/knapen_aot/videos/R_S_yt-Ud9uqaeHtY4_302.mp4	0.0	246.249666929245	0.09987807273864746
68	188.0903730392456	fix_pre	0		13.0	66.0	2.5	/experiments/knapen_aot/videos/S_yt-tqxZlasEvZA_43.mp4	0.0	246.34954500198364	0.10832500457763672
68	188.19053602218628	response	0	2		66.0	2.5	/experiments/knapen_aot/videos/S_yt-tqxZlasEvZA_43.mp4	0.0	246.44970798492432	
68	188.19869804382324	movie	1		301.0	66.0	2.5	/experiments/knapen_aot/videos/S_yt-tqxZlasEvZA_43.mp4	0.0	246.45787000656128	2.5083601474761963
68	190.70705819129944	fix_post	2		12.0	66.0	2.5	/experiments/knapen_aot/videos/S_yt-tqxZlasEvZA_43.mp4	0.0	248.96623015403748	0.10004186630249023
69	190.80710005760193	fix_pre	0		26.0	67.0	2.5	/experiments/knapen_aot/videos/R_S_yt-2V2tq9-O_Nc_1669.mp4	0.0	249.06627202033997	0.21776795387268066
69	191.01554417610168	response	0	2		67.0	2.5	/experiments/knapen_aot/videos/R_S_yt-2V2tq9-O_Nc_1669.mp4	0.0	249.27471613883972	
69	191.0248680114746	movie	1		301.0	67.0	2.5	/experiments/knapen_aot/videos/R_S_yt-2V2tq9-O_Nc_1669.mp4	0.0	249.28403997421265	2.507169008255005
69	193.53203701972961	fix_post	2		12.0	67.0	2.5	/experiments/knapen_aot/videos/R_S_yt-2V2tq9-O_Nc_1669.mp4	0.0	251.79120898246765	0.10007715225219727
70	193.6321141719818	fix_pre	0		11.0	68.0	2.5	/experiments/knapen_aot/videos/S_yt-33PKaLVxDC4_2703.mp4	0.0	251.89128613471985	0.09162688255310059
70	193.71548318862915	response	0	2		68.0	2.5	/experiments/knapen_aot/videos/S_yt-33PKaLVxDC4_2703.mp4	0.0	251.9746551513672	
70	193.7237410545349	movie	1		301.0	68.0	2.5	/experiments/knapen_aot/videos/S_yt-33PKaLVxDC4_2703.mp4	0.0	251.98291301727295	2.508307933807373
70	196.23204898834229	fix_post	2		12.0	68.0	2.5	/experiments/knapen_aot/videos/S_yt-33PKaLVxDC4_2703.mp4	0.0	254.49122095108032	0.09998202323913574
71	196.33203101158142	fix_pre	0		11.0	69.0	2.5	/experiments/knapen_aot/videos/R_S_yt-AOP7QYQntPI_28.mp4	0.0	254.59120297431946	0.09163904190063477
71	196.41549515724182	response	0	2		69.0	2.5	/experiments/knapen_aot/videos/R_S_yt-AOP7QYQntPI_28.mp4	0.0	254.67466711997986	
71	196.42367005348206	movie	1		301.0	69.0	2.5	/experiments/knapen_aot/videos/R_S_yt-AOP7QYQntPI_28.mp4	0.0	254.6828420162201	2.5083720684051514
71	198.9320421218872	fix_post	2		12.0	69.0	2.5	/experiments/knapen_aot/videos/R_S_yt-AOP7QYQntPI_28.mp4	0.0	257.19121408462524	0.1000220775604248
72	199.03206419944763	fix_pre	0		19.0	70.0	2.5	blank	1.0	257.29123616218567	0.15830278396606445
72	199.1746711730957	response	0	2		70.0	2.5	blank	1.0	257.43384313583374	
72	199.1903669834137	movie	1		301.0	70.0	2.5	blank	1.0	257.44953894615173	2.5083060264587402
72	201.69867300987244	fix_post	2		12.0	70.0	2.5	blank	1.0	259.9578449726105	0.10004210472106934
73	201.7987151145935	fix_pre	0		26.0	71.0	2.5	/experiments/knapen_aot/videos/R_S_yt-XYULt48onn4_6.mp4	0.0	260.05788707733154	0.2166450023651123
73	202.00710201263428	response	0	2		71.0	2.5	/experiments/knapen_aot/videos/R_S_yt-XYULt48onn4_6.mp4	0.0	260.2662739753723	
73	202.01536011695862	movie	1		301.0	71.0	2.5	/experiments/knapen_aot/videos/R_S_yt-XYULt48onn4_6.mp4	0.0	260.27453207969666	2.5083749294281006
73	204.52373504638672	fix_post	2		12.0	71.0	2.5	/experiments/knapen_aot/videos/R_S_yt-XYULt48onn4_6.mp4	0.0	262.78290700912476	0.10019111633300781
74	204.62392616271973	fix_pre	0		36.0	72.0	2.5	/experiments/knapen_aot/videos/R_S_yt-c5IgOXX8YZ0_24.mp4	0.0	262.88309812545776	0.29973697662353516
74	204.90801119804382	response	0	2		72.0	2.5	/experiments/knapen_aot/videos/R_S_yt-c5IgOXX8YZ0_24.mp4	0.0	263.16718316078186	
74	204.92366313934326	movie	1		301.0	72.0	2.5	/experiments/knapen_aot/videos/R_S_yt-c5IgOXX8YZ0_24.mp4	0.0	263.1828351020813	2.5085859298706055
74	207.43224906921387	fix_post	2		12.0	72.0	2.5	/experiments/knapen_aot/videos/R_S_yt-c5IgOXX8YZ0_24.mp4	0.0	265.6914210319519	0.09975790977478027
75	207.53200697898865	fix_pre	0		29.0	73.0	2.5	/experiments/knapen_aot/videos/R_S_yt-F3hhts3bwWg_25.mp4	0.0	265.7911789417267	0.24260902404785156
75	207.76546907424927	response	0	2		73.0	2.5	/experiments/knapen_aot/videos/R_S_yt-F3hhts3bwWg_25.mp4	0.0	266.0246410369873	
75	207.7746160030365	movie	1		301.0	73.0	2.5	/experiments/knapen_aot/videos/R_S_yt-F3hhts3bwWg_25.mp4	0.0	266.03378796577454	2.5073771476745605
75	210.28199315071106	fix_post	2		12.0	73.0	2.5	/experiments/knapen_aot/videos/R_S_yt-F3hhts3bwWg_25.mp4	0.0	268.5411651134491	0.10009503364562988
76	210.3820881843567	fix_pre	0		26.0	74.0	2.5	/experiments/knapen_aot/videos/S_video_inspire_california_catalina_00005.1080-h264.mp4	0.0	268.6412601470947	0.21653485298156738
76	210.59042310714722	response	0	2		74.0	2.5	/experiments/knapen_aot/videos/S_video_inspire_california_catalina_00005.1080-h264.mp4	0.0	268.84959506988525	
76	210.59862303733826	movie	1		167.0	74.0	2.5	/experiments/knapen_aot/videos/S_video_inspire_california_catalina_00005.1080-h264.mp4	0.0	268.8577950000763	2.5083799362182617
76	213.10700297355652	fix_post	2		12.0	74.0	2.5	/experiments/knapen_aot/videos/S_video_inspire_california_catalina_00005.1080-h264.mp4	0.0	271.36617493629456	0.0999901294708252
77	213.20699310302734	fix_pre	0		14.0	75.0	2.5	/experiments/knapen_aot/videos/S_yt-2lnxIdOTxog_157.mp4	0.0	271.4661650657654	0.1166219711303711
77	213.31543397903442	response	0	2		75.0	2.5	/experiments/knapen_aot/videos/S_yt-2lnxIdOTxog_157.mp4	0.0	271.57460594177246	
77	213.32361507415771	movie	1		301.0	75.0	2.5	/experiments/knapen_aot/videos/S_yt-2lnxIdOTxog_157.mp4	0.0	271.58278703689575	2.5083210468292236
77	215.83193612098694	fix_post	2		12.0	75.0	2.5	/experiments/knapen_aot/videos/S_yt-2lnxIdOTxog_157.mp4	0.0	274.091108083725	0.1000669002532959
78	215.93200302124023	fix_pre	0		25.0	76.0	2.5	/experiments/knapen_aot/videos/R_S_ILSVRC2015_train_00066005.mp4	0.0	274.19117498397827	0.20830917358398438
78	216.13211917877197	response	0	2		76.0	2.5	/experiments/knapen_aot/videos/R_S_ILSVRC2015_train_00066005.mp4	0.0	274.39129114151	
78	216.14031219482422	movie	1		301.0	76.0	2.5	/experiments/knapen_aot/videos/R_S_ILSVRC2015_train_00066005.mp4	0.0	274.39948415756226	2.5083248615264893
78	218.6486370563507	fix_post	2		12.0	76.0	2.5	/experiments/knapen_aot/videos/R_S_ILSVRC2015_train_00066005.mp4	0.0	276.90780901908875	0.1000819206237793
79	218.7487189769745	fix_pre	0		25.0	77.0	2.5	blank	1.0	277.0078909397125	0.20826220512390137
79	218.94866800308228	response	0	2		77.0	2.5	blank	1.0	277.2078399658203	
79	218.9569811820984	movie	1		301.0	77.0	2.5	blank	1.0	277.2161531448364	2.5083279609680176
79	221.4653091430664	fix_post	2		12.0	77.0	2.5	blank	1.0	279.72448110580444	0.10000205039978027
80	221.5653111934662	fix_pre	0		134.0	78.0	2.5	/experiments/knapen_aot/videos/S_yt-AOP7QYQntPI_28.mp4	0.0	279.8244831562042	1.116607904434204
80	222.67375206947327	response	0	2		78.0	2.5	/experiments/knapen_aot/videos/S_yt-AOP7QYQntPI_28.mp4	0.0	280.9329240322113	
80	222.6819190979004	movie	1		301.0	78.0	2.5	/experiments/knapen_aot/videos/S_yt-AOP7QYQntPI_28.mp4	0.0	280.9410910606384	2.5083611011505127
80	225.1902801990509	fix_post	2		12.0	78.0	2.5	/experiments/knapen_aot/videos/S_yt-AOP7QYQntPI_28.mp4	0.0	283.44945216178894	0.09999299049377441
81	225.29027318954468	fix_pre	0		29.0	79.0	2.5	/experiments/knapen_aot/videos/S_xTlFOCRvy68_1564.mp4	0.0	283.5494451522827	0.24164891242980957
81	225.52369499206543	response	0	2		79.0	2.5	/experiments/knapen_aot/videos/S_xTlFOCRvy68_1564.mp4	0.0	283.78286695480347	
81	225.5319221019745	movie	1		301.0	79.0	2.5	/experiments/knapen_aot/videos/S_xTlFOCRvy68_1564.mp4	0.0	283.7910940647125	2.508331060409546
81	228.04025316238403	fix_post	2		12.0	79.0	2.5	/experiments/knapen_aot/videos/S_xTlFOCRvy68_1564.mp4	0.0	286.29942512512207	0.09999799728393555
82	228.14025115966797	fix_pre	0		6.0	80.0	2.5	/experiments/knapen_aot/videos/R_S_yt-8aJDzfAaArQ_75.mp4	0.0	286.399423122406	0.05074501037597656
82	228.18205213546753	response	0	2		80.0	2.5	/experiments/knapen_aot/videos/R_S_yt-8aJDzfAaArQ_75.mp4	0.0	286.44122409820557	
82	228.19099617004395	movie	1		301.0	80.0	2.5	/experiments/knapen_aot/videos/R_S_yt-8aJDzfAaArQ_75.mp4	0.0	286.450168132782	2.507606029510498
82	230.506982088089	response	1	2		80.0	2.5	/experiments/knapen_aot/videos/R_S_yt-8aJDzfAaArQ_75.mp4	0.0	288.766154050827	
82	230.69860219955444	fix_post	2		12.0	80.0	2.5	/experiments/knapen_aot/videos/R_S_yt-8aJDzfAaArQ_75.mp4	0.0	288.9577741622925	0.09992599487304688
83	230.7985281944275	fix_pre	0		13.0	81.0	2.5	/experiments/knapen_aot/videos/R_S_ILSVRC2015_train_00715000.mp4	0.0	289.0577001571655	0.10834598541259766
83	230.898677110672	response	0	2		81.0	2.5	/experiments/knapen_aot/videos/R_S_ILSVRC2015_train_00715000.mp4	0.0	289.15784907341003	
83	230.9068741798401	movie	1		301.0	81.0	2.5	/experiments/knapen_aot/videos/R_S_ILSVRC2015_train_00715000.mp4	0.0	289.1660461425781	2.5083649158477783
83	233.41523909568787	fix_post	2		12.0	81.0	2.5	/experiments/knapen_aot/videos/R_S_ILSVRC2015_train_00715000.mp4	0.0	291.6744110584259	0.09999489784240723
84	233.51523399353027	fix_pre	0		19.0	82.0	2.5	/experiments/knapen_aot/videos/R_S_yt-pKl8nduxfTI_798.mp4	0.0	291.7744059562683	0.15832304954528809
84	233.66538214683533	response	0	2		82.0	2.5	/experiments/knapen_aot/videos/R_S_yt-pKl8nduxfTI_798.mp4	0.0	291.92455410957336	
84	233.67355704307556	movie	1		301.0	82.0	2.5	/experiments/knapen_aot/videos/R_S_yt-pKl8nduxfTI_798.mp4	0.0	291.9327290058136	2.5083560943603516
84	236.1819131374359	fix_post	2		12.0	82.0	2.5	/experiments/knapen_aot/videos/R_S_yt-pKl8nduxfTI_798.mp4	0.0	294.44108510017395	0.09998393058776855
85	236.28189706802368	fix_pre	0		30.0	83.0	2.5	blank	1.0	294.5410690307617	0.2498779296875
85	236.5236780643463	response	0	2		83.0	2.5	blank	1.0	294.78285002708435	
85	236.53177499771118	movie	1		301.0	83.0	2.5	blank	1.0	294.7909469604492	2.5083630084991455
85	239.04013800621033	fix_post	2		12.0	83.0	2.5	blank	1.0	297.29930996894836	0.10013198852539062
87	239.14026999473572	stim	0		168.0					297.39944195747375	1.3998692035675049
87	240.53561210632324	response	0	space						298.7947840690613	
