trial_nr	onset	event_type	phase	response	nr_frames	movie_index	movie_duration	movie_file	blank	onset_abs	duration
0	0.13193798065185547	stim	0		87.0					77.74700880050659	0.7222092151641846
0	0.8458871841430664	response	0	space						78.4609580039978	
1	0.85414719581604	stim	0		121.0					78.46921801567078	1.0081708431243896
1	1.8623180389404297	stim	1		120.0					79.47738885879517	1.000067949295044
1	2.1708130836486816	response	1	space						79.78588390350342	
2	2.8623859882354736	fix_pre	0		7.0	0.0	2.5	/experiments/knapen_aot/videos/R_S_yt-xCh0LI9VKeI_28.mp4	0.0	80.47745680809021	0.05829906463623047
2	2.9125430583953857	response	0	space		0.0	2.5	/experiments/knapen_aot/videos/R_S_yt-xCh0LI9VKeI_28.mp4	0.0	80.52761387825012	
2	2.920685052871704	movie	1		300.0	0.0	2.5	/experiments/knapen_aot/videos/R_S_yt-xCh0LI9VKeI_28.mp4	0.0	80.53575587272644	2.5083351135253906
2	5.429020166397095	fix_post	2		12.0	0.0	2.5	/experiments/knapen_aot/videos/R_S_yt-xCh0LI9VKeI_28.mp4	0.0	83.04409098625183	0.0999898910522461
3	5.529010057449341	fix_pre	0		139.0	1.0	2.5	/experiments/knapen_aot/videos/R_S_yt-2CWrK9nbhTk_211.mp4	0.0	83.14408087730408	1.158297061920166
3	6.682528018951416	response	0	2		1.0	2.5	/experiments/knapen_aot/videos/R_S_yt-2CWrK9nbhTk_211.mp4	0.0	84.29759883880615	
3	6.687307119369507	movie	1		301.0	1.0	2.5	/experiments/knapen_aot/videos/R_S_yt-2CWrK9nbhTk_211.mp4	0.0	84.30237793922424	2.5083608627319336
3	9.19566798210144	fix_post	2		12.0	1.0	2.5	/experiments/knapen_aot/videos/R_S_yt-2CWrK9nbhTk_211.mp4	0.0	86.81073880195618	0.10004520416259766
4	9.295713186264038	fix_pre	0		21.0	2.0	2.5	/experiments/knapen_aot/videos/S_yt-AbJBxqEYoMg_27.mp4	0.0	86.91078400611877	0.17614388465881348
4	9.462440013885498	response	0	2		2.0	2.5	/experiments/knapen_aot/videos/S_yt-AbJBxqEYoMg_27.mp4	0.0	87.07751083374023	
4	9.471857070922852	movie	1		301.0	2.0	2.5	/experiments/knapen_aot/videos/S_yt-AbJBxqEYoMg_27.mp4	0.0	87.08692789077759	2.5071561336517334
4	11.979013204574585	fix_post	2		12.0	2.0	2.5	/experiments/knapen_aot/videos/S_yt-AbJBxqEYoMg_27.mp4	0.0	89.59408402442932	0.09988594055175781
5	12.078899145126343	fix_pre	0		17.0	3.0	2.5	/experiments/knapen_aot/videos/S_yt-Ja7d2a6e5xE_279.mp4	0.0	89.69396996498108	0.14290285110473633
5	12.212465047836304	response	0	2		3.0	2.5	/experiments/knapen_aot/videos/S_yt-Ja7d2a6e5xE_279.mp4	0.0	89.82753586769104	
5	12.221801996231079	movie	1		301.0	3.0	2.5	/experiments/knapen_aot/videos/S_yt-Ja7d2a6e5xE_279.mp4	0.0	89.83687281608582	2.507171154022217
5	14.728973150253296	fix_post	2		12.0	3.0	2.5	/experiments/knapen_aot/videos/S_yt-Ja7d2a6e5xE_279.mp4	0.0	92.34404397010803	0.09995603561401367
6	14.82892918586731	fix_pre	0		8.0	4.0	2.5	/experiments/knapen_aot/videos/S_yt-XbigWWtnGL4_75.mp4	0.0	92.44400000572205	0.0666358470916748
6	14.887289047241211	response	0	2		4.0	2.5	/experiments/knapen_aot/videos/S_yt-XbigWWtnGL4_75.mp4	0.0	92.50235986709595	
6	14.895565032958984	movie	1		301.0	4.0	2.5	/experiments/knapen_aot/videos/S_yt-XbigWWtnGL4_75.mp4	0.0	92.51063585281372	2.508362054824829
6	17.403927087783813	fix_post	2		12.0	4.0	2.5	/experiments/knapen_aot/videos/S_yt-XbigWWtnGL4_75.mp4	0.0	95.01899790763855	0.09996509552001953
7	17.503892183303833	fix_pre	0		9.0	5.0	2.5	/experiments/knapen_aot/videos/R_S_yt-EBuE7GbFw7U_180.mp4	0.0	95.11896300315857	0.07501482963562012
7	17.57073998451233	response	0	2		5.0	2.5	/experiments/knapen_aot/videos/R_S_yt-EBuE7GbFw7U_180.mp4	0.0	95.18581080436707	
7	17.578907012939453	movie	1		301.0	5.0	2.5	/experiments/knapen_aot/videos/R_S_yt-EBuE7GbFw7U_180.mp4	0.0	95.19397783279419	2.508280038833618
7	20.08718705177307	fix_post	2		11.0	5.0	2.5	/experiments/knapen_aot/videos/R_S_yt-EBuE7GbFw7U_180.mp4	0.0	97.70225787162781	0.09287309646606445
7	20.170700073242188	response	2	2		5.0	2.5	/experiments/knapen_aot/videos/R_S_yt-EBuE7GbFw7U_180.mp4	0.0	97.78577089309692	
8	20.180060148239136	fix_pre	0		52.0	6.0	2.5	/experiments/knapen_aot/videos/R_S_yt-qiPhBL4lBr0_44.mp4	0.0	97.79513096809387	0.43213391304016113
8	20.59648609161377	response	0	2		6.0	2.5	/experiments/knapen_aot/videos/R_S_yt-qiPhBL4lBr0_44.mp4	0.0	98.2115569114685	
8	20.612194061279297	movie	1		300.0	6.0	2.5	/experiments/knapen_aot/videos/R_S_yt-qiPhBL4lBr0_44.mp4	0.0	98.22726488113403	2.508357048034668
8	23.120551109313965	fix_post	2		12.0	6.0	2.5	/experiments/knapen_aot/videos/R_S_yt-qiPhBL4lBr0_44.mp4	0.0	100.7356219291687	0.10003304481506348
9	23.22058415412903	fix_pre	0		7.0	7.0	2.5	blank	1.0	100.83565497398376	0.05820488929748535
9	23.270713090896606	response	0	2		7.0	2.5	blank	1.0	100.88578391075134	
9	23.278789043426514	movie	1		301.0	7.0	2.5	blank	1.0	100.89385986328125	2.5084049701690674
9	25.78719401359558	fix_post	2		12.0	7.0	2.5	blank	1.0	103.40226483345032	0.10003113746643066
10	25.88722515106201	fix_pre	0		19.0	8.0	2.5	/experiments/knapen_aot/videos/R_S_yt-3R23XwTXpKs_238.mp4	0.0	103.50229597091675	0.15830492973327637
10	26.037504196166992	response	0	2		8.0	2.5	/experiments/knapen_aot/videos/R_S_yt-3R23XwTXpKs_238.mp4	0.0	103.65257501602173	
10	26.045530080795288	movie	1		301.0	8.0	2.5	/experiments/knapen_aot/videos/R_S_yt-3R23XwTXpKs_238.mp4	0.0	103.66060090065002	2.5083250999450684
10	28.553855180740356	fix_post	2		12.0	8.0	2.5	/experiments/knapen_aot/videos/R_S_yt-3R23XwTXpKs_238.mp4	0.0	106.16892600059509	0.09995889663696289
11	28.65381407737732	fix_pre	0		26.0	9.0	2.5	/experiments/knapen_aot/videos/S_ILSVRC2015_train_00632002.mp4	0.0	106.26888489723206	0.2166900634765625
11	28.862197160720825	response	0	2		9.0	2.5	/experiments/knapen_aot/videos/S_ILSVRC2015_train_00632002.mp4	0.0	106.47726798057556	
11	28.870504140853882	movie	1		301.0	9.0	2.5	/experiments/knapen_aot/videos/S_ILSVRC2015_train_00632002.mp4	0.0	106.48557496070862	2.5083348751068115
11	31.378839015960693	fix_post	2		12.0	9.0	2.5	/experiments/knapen_aot/videos/S_ILSVRC2015_train_00632002.mp4	0.0	108.99390983581543	0.09998416900634766
12	31.47882318496704	fix_pre	0		13.0	10.0	2.5	/experiments/knapen_aot/videos/R_S_yt-AbJBxqEYoMg_27.mp4	0.0	109.09389400482178	0.10837888717651367
12	31.57893204689026	response	0	2		10.0	2.5	/experiments/knapen_aot/videos/R_S_yt-AbJBxqEYoMg_27.mp4	0.0	109.194002866745	
12	31.587202072143555	movie	1		301.0	10.0	2.5	/experiments/knapen_aot/videos/R_S_yt-AbJBxqEYoMg_27.mp4	0.0	109.20227289199829	2.5084519386291504
12	32.7075572013855	response	1	4		10.0	2.5	/experiments/knapen_aot/videos/R_S_yt-AbJBxqEYoMg_27.mp4	0.0	110.32262802124023	
12	34.095654010772705	fix_post	2		12.0	10.0	2.5	/experiments/knapen_aot/videos/R_S_yt-AbJBxqEYoMg_27.mp4	0.0	111.71072483062744	0.09986400604248047
13	34.195518016815186	fix_pre	0		26.0	11.0	2.5	/experiments/knapen_aot/videos/R_S_yt-zSSnQYeO_DE_338.mp4	0.0	111.81058883666992	0.21655797958374023
13	34.40400314331055	response	0	4		11.0	2.5	/experiments/knapen_aot/videos/R_S_yt-zSSnQYeO_DE_338.mp4	0.0	112.01907396316528	
13	34.412075996398926	movie	1		301.0	11.0	2.5	/experiments/knapen_aot/videos/R_S_yt-zSSnQYeO_DE_338.mp4	0.0	112.02714681625366	2.5083839893341064
13	36.48734402656555	response	1	2		11.0	2.5	/experiments/knapen_aot/videos/R_S_yt-zSSnQYeO_DE_338.mp4	0.0	114.10241484642029	
13	36.92045998573303	fix_post	2		12.0	11.0	2.5	/experiments/knapen_aot/videos/R_S_yt-zSSnQYeO_DE_338.mp4	0.0	114.53553080558777	0.10006999969482422
14	37.020529985427856	fix_pre	0		16.0	12.0	2.5	/experiments/knapen_aot/videos/R_S_yt-YCjbGOPBQHw_131.mp4	0.0	114.63560080528259	0.13330507278442383
14	37.138044118881226	response	0	2		12.0	2.5	/experiments/knapen_aot/videos/R_S_yt-YCjbGOPBQHw_131.mp4	0.0	114.75311493873596	
14	37.15383505821228	movie	1		301.0	12.0	2.5	/experiments/knapen_aot/videos/R_S_yt-YCjbGOPBQHw_131.mp4	0.0	114.76890587806702	2.508315086364746
14	39.03731918334961	response	1	2		12.0	2.5	/experiments/knapen_aot/videos/R_S_yt-YCjbGOPBQHw_131.mp4	0.0	116.65239000320435	
14	39.45390701293945	response	1	2		12.0	2.5	/experiments/knapen_aot/videos/R_S_yt-YCjbGOPBQHw_131.mp4	0.0	117.06897783279419	
14	39.662150144577026	fix_post	2		12.0	12.0	2.5	/experiments/knapen_aot/videos/R_S_yt-YCjbGOPBQHw_131.mp4	0.0	117.27722096443176	0.09997296333312988
15	39.762123107910156	fix_pre	0		13.0	13.0	2.5	blank	1.0	117.37719392776489	0.10830187797546387
15	39.86224412918091	response	0	2		13.0	2.5	blank	1.0	117.47731494903564	
15	39.87042498588562	movie	1		301.0	13.0	2.5	blank	1.0	117.48549580574036	2.50835919380188
15	42.3787841796875	fix_post	2		12.0	13.0	2.5	blank	1.0	119.99385499954224	0.09998703002929688
16	42.4787712097168	fix_pre	0		47.0	14.0	2.5	/experiments/knapen_aot/videos/S_yt-FhnT_42bV7M_11.mp4	0.0	120.09384202957153	0.3916637897491455
16	42.86241316795349	response	0	2		14.0	2.5	/experiments/knapen_aot/videos/S_yt-FhnT_42bV7M_11.mp4	0.0	120.47748398780823	
16	42.87043499946594	movie	1		297.0	14.0	2.5	/experiments/knapen_aot/videos/S_yt-FhnT_42bV7M_11.mp4	0.0	120.48550581932068	2.5083541870117188
16	45.37878918647766	fix_post	2		12.0	14.0	2.5	/experiments/knapen_aot/videos/S_yt-FhnT_42bV7M_11.mp4	0.0	122.9938600063324	0.09997701644897461
17	45.478766202926636	fix_pre	0		39.0	15.0	2.5	/experiments/knapen_aot/videos/S_yt-8RmEimCI80g_35.mp4	0.0	123.09383702278137	0.32605981826782227
17	45.795544147491455	response	0	2		15.0	2.5	/experiments/knapen_aot/videos/S_yt-8RmEimCI80g_35.mp4	0.0	123.41061496734619	
17	45.80482602119446	movie	1		299.0	15.0	2.5	/experiments/knapen_aot/videos/S_yt-8RmEimCI80g_35.mp4	0.0	123.4198968410492	2.5073421001434326
17	48.31216812133789	fix_post	2		12.0	15.0	2.5	/experiments/knapen_aot/videos/S_yt-8RmEimCI80g_35.mp4	0.0	125.92723894119263	0.10000205039978027
18	48.41217017173767	fix_pre	0		22.0	16.0	2.5	/experiments/knapen_aot/videos/S_ahJft-G235A_122.mp4	0.0	126.02724099159241	0.18430089950561523
18	48.58728504180908	response	0	2		16.0	2.5	/experiments/knapen_aot/videos/S_ahJft-G235A_122.mp4	0.0	126.20235586166382	
18	48.596471071243286	movie	1		301.0	16.0	2.5	/experiments/knapen_aot/videos/S_ahJft-G235A_122.mp4	0.0	126.21154189109802	2.5073490142822266
18	51.037352085113525	response	1	2		16.0	2.5	/experiments/knapen_aot/videos/S_ahJft-G235A_122.mp4	0.0	128.65242290496826	
18	51.10382008552551	fix_post	2		12.0	16.0	2.5	/experiments/knapen_aot/videos/S_ahJft-G235A_122.mp4	0.0	128.71889090538025	0.0999300479888916
19	51.203750133514404	fix_pre	0		17.0	17.0	2.5	/experiments/knapen_aot/videos/R_S_yt-HRuCkU_kBoE_239.mp4	0.0	128.81882095336914	0.14271807670593262
19	51.33721709251404	response	0	2		17.0	2.5	/experiments/knapen_aot/videos/R_S_yt-HRuCkU_kBoE_239.mp4	0.0	128.95228791236877	
19	51.34646821022034	movie	1		301.0	17.0	2.5	/experiments/knapen_aot/videos/R_S_yt-HRuCkU_kBoE_239.mp4	0.0	128.96153903007507	2.507255792617798
19	53.853724002838135	fix_post	2		12.0	17.0	2.5	/experiments/knapen_aot/videos/R_S_yt-HRuCkU_kBoE_239.mp4	0.0	131.46879482269287	0.09996604919433594
20	53.95369005203247	fix_pre	0		32.0	18.0	2.5	/experiments/knapen_aot/videos/R_S_yt-GyMWMiWvuiA_237.mp4	0.0	131.5687608718872	0.2676889896392822
20	54.212172985076904	response	0	2		18.0	2.5	/experiments/knapen_aot/videos/R_S_yt-GyMWMiWvuiA_237.mp4	0.0	131.82724380493164	
20	54.22137904167175	movie	1		300.0	18.0	2.5	/experiments/knapen_aot/videos/R_S_yt-GyMWMiWvuiA_237.mp4	0.0	131.8364498615265	2.5073721408843994
20	56.72875118255615	fix_post	2		12.0	18.0	2.5	/experiments/knapen_aot/videos/R_S_yt-GyMWMiWvuiA_237.mp4	0.0	134.3438220024109	0.10001993179321289
21	56.828771114349365	fix_pre	0		16.0	19.0	2.5	/experiments/knapen_aot/videos/S_yt-zSSnQYeO_DE_338.mp4	0.0	134.4438419342041	0.1332859992980957
21	56.95390701293945	response	0	2		19.0	2.5	/experiments/knapen_aot/videos/S_yt-zSSnQYeO_DE_338.mp4	0.0	134.5689778327942	
21	56.96205711364746	movie	1		301.0	19.0	2.5	/experiments/knapen_aot/videos/S_yt-zSSnQYeO_DE_338.mp4	0.0	134.5771279335022	2.508405923843384
21	59.470463037490845	fix_post	2		12.0	19.0	2.5	/experiments/knapen_aot/videos/S_yt-zSSnQYeO_DE_338.mp4	0.0	137.08553385734558	0.09998703002929688
22	59.57045006752014	fix_pre	0		31.0	20.0	2.5	blank	1.0	137.18552088737488	0.25829601287841797
22	59.820563077926636	response	0	2		20.0	2.5	blank	1.0	137.43563389778137	
22	59.82874608039856	movie	1		301.0	20.0	2.5	blank	1.0	137.4438169002533	2.5082900524139404
22	62.3370361328125	fix_post	2		12.0	20.0	2.5	blank	1.0	139.95210695266724	0.10003495216369629
23	62.437071084976196	fix_pre	0		92.0	21.0	2.5	/experiments/knapen_aot/videos/S_yt-8y7Xhp2_2e0_168.mp4	0.0	140.05214190483093	0.7666230201721191
23	63.19556403160095	response	0	2		21.0	2.5	/experiments/knapen_aot/videos/S_yt-8y7Xhp2_2e0_168.mp4	0.0	140.8106348514557	
23	63.203694105148315	movie	1		300.0	21.0	2.5	/experiments/knapen_aot/videos/S_yt-8y7Xhp2_2e0_168.mp4	0.0	140.81876492500305	2.5083839893341064
23	65.71207809448242	fix_post	2		12.0	21.0	2.5	/experiments/knapen_aot/videos/S_yt-8y7Xhp2_2e0_168.mp4	0.0	143.32714891433716	0.09998607635498047
24	65.8120641708374	fix_pre	0		31.0	22.0	2.5	/experiments/knapen_aot/videos/S_yt-0xzYSBvVfYM_197.mp4	0.0	143.42713499069214	0.25830888748168945
24	66.06209421157837	response	0	2		22.0	2.5	/experiments/knapen_aot/videos/S_yt-0xzYSBvVfYM_197.mp4	0.0	143.6771650314331	
24	66.07037305831909	movie	1		301.0	22.0	2.5	/experiments/knapen_aot/videos/S_yt-0xzYSBvVfYM_197.mp4	0.0	143.68544387817383	2.508312940597534
24	68.57868599891663	fix_post	2		12.0	22.0	2.5	/experiments/knapen_aot/videos/S_yt-0xzYSBvVfYM_197.mp4	0.0	146.19375681877136	0.09997010231018066
25	68.6786561012268	fix_pre	0		14.0	23.0	2.5	/experiments/knapen_aot/videos/R_S_yt-H3EadcgKySM_58.mp4	0.0	146.29372692108154	0.11670804023742676
25	68.78719210624695	response	0	2		23.0	2.5	/experiments/knapen_aot/videos/R_S_yt-H3EadcgKySM_58.mp4	0.0	146.40226292610168	
25	68.79536414146423	movie	1		301.0	23.0	2.5	/experiments/knapen_aot/videos/R_S_yt-H3EadcgKySM_58.mp4	0.0	146.41043496131897	2.5082738399505615
25	71.3036379814148	fix_post	2		12.0	23.0	2.5	/experiments/knapen_aot/videos/R_S_yt-H3EadcgKySM_58.mp4	0.0	148.91870880126953	0.10001111030578613
26	71.40364909172058	fix_pre	0		27.0	24.0	2.5	/experiments/knapen_aot/videos/S_pexels-koolshooters-7327401_1.mp4	0.0	149.01871991157532	0.22498202323913574
26	71.62049698829651	response	0	2		24.0	2.5	/experiments/knapen_aot/videos/S_pexels-koolshooters-7327401_1.mp4	0.0	149.23556780815125	
26	71.62863111495972	movie	1		164.0	24.0	2.5	/experiments/knapen_aot/videos/S_pexels-koolshooters-7327401_1.mp4	0.0	149.24370193481445	2.508445978164673
26	74.13707709312439	fix_post	2		12.0	24.0	2.5	/experiments/knapen_aot/videos/S_pexels-koolshooters-7327401_1.mp4	0.0	151.75214791297913	0.09994006156921387
27	74.2370171546936	fix_pre	0		7.0	25.0	2.5	/experiments/knapen_aot/videos/R_S_comp_A114_C001_0305OT_v10_SDR_FINAL_22062018_SDR_2K_AVC.mp4	0.0	151.85208797454834	0.05849289894104004
27	74.28725004196167	response	0	2		25.0	2.5	/experiments/knapen_aot/videos/R_S_comp_A114_C001_0305OT_v10_SDR_FINAL_22062018_SDR_2K_AVC.mp4	0.0	151.9023208618164	
27	74.29551005363464	movie	1		173.0	25.0	2.5	/experiments/knapen_aot/videos/R_S_comp_A114_C001_0305OT_v10_SDR_FINAL_22062018_SDR_2K_AVC.mp4	0.0	151.91058087348938	2.5082249641418457
27	76.80373501777649	fix_post	2		12.0	25.0	2.5	/experiments/knapen_aot/videos/R_S_comp_A114_C001_0305OT_v10_SDR_FINAL_22062018_SDR_2K_AVC.mp4	0.0	154.41880583763123	0.10006117820739746
28	76.90379619598389	fix_pre	0		57.0	26.0	2.5	blank	1.0	154.51886701583862	0.47494983673095703
28	77.36297416687012	response	0	2		26.0	2.5	blank	1.0	154.97804498672485	
28	77.37874603271484	movie	1		301.0	26.0	2.5	blank	1.0	154.99381685256958	2.5082321166992188
28	79.88697814941406	fix_post	2		12.0	26.0	2.5	blank	1.0	157.5020489692688	0.09993600845336914
29	79.98691415786743	fix_pre	0		1.0	27.0	2.5	/experiments/knapen_aot/videos/S_yt-9Q7SZR0mgMA_155.mp4	0.0	157.60198497772217	0.008394002914428711
29	79.97986817359924	response	0	4		27.0	2.5	/experiments/knapen_aot/videos/S_yt-9Q7SZR0mgMA_155.mp4	0.0	157.59493899345398	
29	79.99530816078186	movie	1		301.0	27.0	2.5	/experiments/knapen_aot/videos/S_yt-9Q7SZR0mgMA_155.mp4	0.0	157.6103789806366	2.508307933807373
29	80.23727297782898	response	1	4		27.0	2.5	/experiments/knapen_aot/videos/S_yt-9Q7SZR0mgMA_155.mp4	0.0	157.85234379768372	
29	82.50361609458923	fix_post	2		12.0	27.0	2.5	/experiments/knapen_aot/videos/S_yt-9Q7SZR0mgMA_155.mp4	0.0	160.11868691444397	0.09995794296264648
30	82.60357403755188	fix_pre	0		18.0	28.0	2.5	/experiments/knapen_aot/videos/R_S_ILSVRC2015_train_00469000.mp4	0.0	160.21864485740662	0.15002012252807617
30	82.74549007415771	response	0	2		28.0	2.5	/experiments/knapen_aot/videos/R_S_ILSVRC2015_train_00469000.mp4	0.0	160.36056089401245	
30	82.75359416007996	movie	1		301.0	28.0	2.5	/experiments/knapen_aot/videos/R_S_ILSVRC2015_train_00469000.mp4	0.0	160.3686649799347	2.5083088874816895
30	85.26190304756165	fix_post	2		10.0	28.0	2.5	/experiments/knapen_aot/videos/R_S_ILSVRC2015_train_00469000.mp4	0.0	162.87697386741638	0.10007500648498535
31	85.36197805404663	fix_pre	0		14.0	29.0	2.5	/experiments/knapen_aot/videos/R_S_yt-CLX1rmSf2Rs_194.mp4	0.0	162.97704887390137	0.11664509773254395
31	85.47038316726685	response	0	2		29.0	2.5	/experiments/knapen_aot/videos/R_S_yt-CLX1rmSf2Rs_194.mp4	0.0	163.08545398712158	
31	85.47862315177917	movie	1		301.0	29.0	2.5	/experiments/knapen_aot/videos/R_S_yt-CLX1rmSf2Rs_194.mp4	0.0	163.0936939716339	2.5083389282226562
31	87.98696208000183	fix_post	2		12.0	29.0	2.5	/experiments/knapen_aot/videos/R_S_yt-CLX1rmSf2Rs_194.mp4	0.0	165.60203289985657	0.10002303123474121
32	88.08698511123657	fix_pre	0		14.0	30.0	2.5	/experiments/knapen_aot/videos/R_S_yt-CLX1rmSf2Rs_194.mp4	0.0	165.7020559310913	0.11661791801452637
32	88.19537210464478	response	0	2		30.0	2.5	/experiments/knapen_aot/videos/R_S_yt-CLX1rmSf2Rs_194.mp4	0.0	165.8104429244995	
32	88.2036030292511	movie	1		301.0	30.0	2.5	/experiments/knapen_aot/videos/R_S_yt-CLX1rmSf2Rs_194.mp4	0.0	165.81867384910583	2.508358955383301
32	90.7119619846344	fix_post	2		12.0	30.0	2.5	/experiments/knapen_aot/videos/R_S_yt-CLX1rmSf2Rs_194.mp4	0.0	168.32703280448914	0.09992408752441406
33	90.81188607215881	fix_pre	0		17.0	31.0	2.5	/experiments/knapen_aot/videos/S_ILSVRC2015_train_00423000.mp4	0.0	168.42695689201355	0.14178705215454102
33	90.94540119171143	response	0	2		31.0	2.5	/experiments/knapen_aot/videos/S_ILSVRC2015_train_00423000.mp4	0.0	168.56047201156616	
33	90.95367312431335	movie	1		301.0	31.0	2.5	/experiments/knapen_aot/videos/S_ILSVRC2015_train_00423000.mp4	0.0	168.5687439441681	2.508291006088257
33	93.17034816741943	response	1	2		31.0	2.5	/experiments/knapen_aot/videos/S_ILSVRC2015_train_00423000.mp4	0.0	170.78541898727417	
33	93.46196413040161	fix_post	2		12.0	31.0	2.5	/experiments/knapen_aot/videos/S_ILSVRC2015_train_00423000.mp4	0.0	171.07703495025635	0.09999799728393555
33	93.4635751247406	response	2	2		31.0	2.5	/experiments/knapen_aot/videos/S_ILSVRC2015_train_00423000.mp4	0.0	171.07864594459534	
34	93.56196212768555	fix_pre	0		19.0	32.0	2.5	/experiments/knapen_aot/videos/S_yt-4NjyKFnwHBo_13.mp4	0.0	171.17703294754028	0.15908288955688477
34	93.71205711364746	response	0	2		32.0	2.5	/experiments/knapen_aot/videos/S_yt-4NjyKFnwHBo_13.mp4	0.0	171.3271279335022	
34	93.72104501724243	movie	1		300.0	32.0	2.5	/experiments/knapen_aot/videos/S_yt-4NjyKFnwHBo_13.mp4	0.0	171.33611583709717	2.507596015930176
34	96.22864103317261	fix_post	2		12.0	32.0	2.5	/experiments/knapen_aot/videos/S_yt-4NjyKFnwHBo_13.mp4	0.0	173.84371185302734	0.09999704360961914
35	96.32863807678223	fix_pre	0		18.0	33.0	2.5	/experiments/knapen_aot/videos/R_S_ILSVRC2015_train_00469000.mp4	0.0	173.94370889663696	0.14996910095214844
35	96.47038412094116	response	0	2		33.0	2.5	/experiments/knapen_aot/videos/R_S_ILSVRC2015_train_00469000.mp4	0.0	174.0854549407959	
35	96.47860717773438	movie	1		301.0	33.0	2.5	/experiments/knapen_aot/videos/R_S_ILSVRC2015_train_00469000.mp4	0.0	174.0936779975891	2.5083138942718506
35	98.98692107200623	fix_post	2		12.0	33.0	2.5	/experiments/knapen_aot/videos/R_S_ILSVRC2015_train_00469000.mp4	0.0	176.60199189186096	0.09999799728393555
36	99.08691906929016	fix_pre	0		9.0	34.0	2.5	/experiments/knapen_aot/videos/S_yt-H3EadcgKySM_58.mp4	0.0	176.7019898891449	0.0750420093536377
36	99.14670920372009	response	0	2		34.0	2.5	/experiments/knapen_aot/videos/S_yt-H3EadcgKySM_58.mp4	0.0	176.76178002357483	
36	99.1619610786438	movie	1		301.0	34.0	2.5	/experiments/knapen_aot/videos/S_yt-H3EadcgKySM_58.mp4	0.0	176.77703189849854	2.5082640647888184
36	101.67022514343262	fix_post	2		12.0	34.0	2.5	/experiments/knapen_aot/videos/S_yt-H3EadcgKySM_58.mp4	0.0	179.28529596328735	0.10004186630249023
37	101.77026700973511	fix_pre	0		20.0	35.0	2.5	blank	1.0	179.38533782958984	0.16668415069580078
37	101.92118501663208	response	0	2		35.0	2.5	blank	1.0	179.53625583648682	
37	101.93695116043091	movie	1		301.0	35.0	2.5	blank	1.0	179.55202198028564	2.5082650184631348
37	104.44521617889404	fix_post	2		12.0	35.0	2.5	blank	1.0	182.06028699874878	0.09992384910583496
38	104.54514002799988	fix_pre	0		77.0	36.0	2.5	/experiments/knapen_aot/videos/S_yt-RKo978aBdzw_173.mp4	0.0	182.16021084785461	0.6416549682617188
38	105.178719997406	response	0	2		36.0	2.5	/experiments/knapen_aot/videos/S_yt-RKo978aBdzw_173.mp4	0.0	182.79379081726074	
38	105.1867949962616	movie	1		301.0	36.0	2.5	/experiments/knapen_aot/videos/S_yt-RKo978aBdzw_173.mp4	0.0	182.80186581611633	2.5083370208740234
38	107.69513201713562	fix_post	2		12.0	36.0	2.5	/experiments/knapen_aot/videos/S_yt-RKo978aBdzw_173.mp4	0.0	185.31020283699036	0.1000370979309082
39	107.79516911506653	fix_pre	0		21.0	37.0	2.5	/experiments/knapen_aot/videos/R_S_yt-ebzrQh5ErI4_3.mp4	0.0	185.41023993492126	0.17566609382629395
39	107.96199107170105	response	0	2		37.0	2.5	/experiments/knapen_aot/videos/R_S_yt-ebzrQh5ErI4_3.mp4	0.0	185.5770618915558	
39	107.97083520889282	movie	1		301.0	37.0	2.5	/experiments/knapen_aot/videos/R_S_yt-ebzrQh5ErI4_3.mp4	0.0	185.58590602874756	2.5077009201049805
39	110.4785361289978	fix_post	2		12.0	37.0	2.5	/experiments/knapen_aot/videos/R_S_yt-ebzrQh5ErI4_3.mp4	0.0	188.09360694885254	0.09999895095825195
40	110.57853507995605	fix_pre	0		13.0	38.0	2.5	/experiments/knapen_aot/videos/S_comp_L012_c002_PS_v01_SDR_PS_20180925_SDR_2K_AVC.mp4	0.0	188.1936058998108	0.10829401016235352
40	110.67876100540161	response	0	2		38.0	2.5	/experiments/knapen_aot/videos/S_comp_L012_c002_PS_v01_SDR_PS_20180925_SDR_2K_AVC.mp4	0.0	188.29383182525635	
40	110.68682909011841	movie	1		164.0	38.0	2.5	/experiments/knapen_aot/videos/S_comp_L012_c002_PS_v01_SDR_PS_20180925_SDR_2K_AVC.mp4	0.0	188.30189990997314	2.5084609985351562
40	113.19529008865356	fix_post	2		12.0	38.0	2.5	/experiments/knapen_aot/videos/S_comp_L012_c002_PS_v01_SDR_PS_20180925_SDR_2K_AVC.mp4	0.0	190.8103609085083	0.09995198249816895
41	113.29524207115173	fix_pre	0		15.0	39.0	2.5	/experiments/knapen_aot/videos/S_yt-1ruRqcfBMw0_21.mp4	0.0	190.91031289100647	0.12491393089294434
41	113.40462112426758	response	0	2		39.0	2.5	/experiments/knapen_aot/videos/S_yt-1ruRqcfBMw0_21.mp4	0.0	191.01969194412231	
41	113.42015600204468	movie	1		301.0	39.0	2.5	/experiments/knapen_aot/videos/S_yt-1ruRqcfBMw0_21.mp4	0.0	191.0352268218994	2.5083460807800293
41	115.9285020828247	fix_post	2		12.0	39.0	2.5	/experiments/knapen_aot/videos/S_yt-1ruRqcfBMw0_21.mp4	0.0	193.54357290267944	0.10001301765441895
42	116.02851510047913	fix_pre	0		30.0	40.0	2.5	/experiments/knapen_aot/videos/S_yt-4NjyKFnwHBo_13.mp4	0.0	193.64358592033386	0.25001001358032227
42	116.2703959941864	response	0	2		40.0	2.5	/experiments/knapen_aot/videos/S_yt-4NjyKFnwHBo_13.mp4	0.0	193.88546681404114	
42	116.27852511405945	movie	1		301.0	40.0	2.5	/experiments/knapen_aot/videos/S_yt-4NjyKFnwHBo_13.mp4	0.0	193.89359593391418	2.508228063583374
42	118.78675317764282	fix_post	2		12.0	40.0	2.5	/experiments/knapen_aot/videos/S_yt-4NjyKFnwHBo_13.mp4	0.0	196.40182399749756	0.10011100769042969
43	118.88686418533325	fix_pre	0		25.0	41.0	2.5	/experiments/knapen_aot/videos/S_production_ID_4101309.mp4	0.0	196.501935005188	0.20884990692138672
43	119.0869390964508	response	0	2		41.0	2.5	/experiments/knapen_aot/videos/S_production_ID_4101309.mp4	0.0	196.70200991630554	
43	119.09571409225464	movie	1		185.0	41.0	2.5	/experiments/knapen_aot/videos/S_production_ID_4101309.mp4	0.0	196.71078491210938	2.5077691078186035
43	121.60348320007324	fix_post	2		12.0	41.0	2.5	/experiments/knapen_aot/videos/S_production_ID_4101309.mp4	0.0	199.21855401992798	0.09998893737792969
44	121.70347213745117	fix_pre	0		28.0	42.0	2.5	blank	1.0	199.3185429573059	0.23333191871643066
44	121.92862606048584	response	0	2		42.0	2.5	blank	1.0	199.54369688034058	
44	121.9368040561676	movie	1		301.0	42.0	2.5	blank	1.0	199.55187487602234	2.5083301067352295
44	124.44513416290283	fix_post	2		12.0	42.0	2.5	blank	1.0	202.06020498275757	0.09995388984680176
45	124.54508805274963	fix_pre	0		26.0	43.0	2.5	/experiments/knapen_aot/videos/R_S_ILSVRC2015_train_00485001.mp4	0.0	202.16015887260437	0.21724915504455566
45	124.74604797363281	response	0	2		43.0	2.5	/experiments/knapen_aot/videos/R_S_ILSVRC2015_train_00485001.mp4	0.0	202.36111879348755	
45	124.76233720779419	movie	1		301.0	43.0	2.5	/experiments/knapen_aot/videos/R_S_ILSVRC2015_train_00485001.mp4	0.0	202.37740802764893	2.507758855819702
45	126.481938123703	response	1	2		43.0	2.5	/experiments/knapen_aot/videos/R_S_ILSVRC2015_train_00485001.mp4	0.0	204.09700894355774	
45	127.27009606361389	fix_post	2		12.0	43.0	2.5	/experiments/knapen_aot/videos/R_S_ILSVRC2015_train_00485001.mp4	0.0	204.88516688346863	0.10003495216369629
46	127.37013101577759	fix_pre	0		8.0	44.0	2.5	/experiments/knapen_aot/videos/S_yt-SyePE8wOlxs_321.mp4	0.0	204.98520183563232	0.06669306755065918
46	127.42894315719604	response	0	2		44.0	2.5	/experiments/knapen_aot/videos/S_yt-SyePE8wOlxs_321.mp4	0.0	205.04401397705078	
46	127.43682408332825	movie	1		301.0	44.0	2.5	/experiments/knapen_aot/videos/S_yt-SyePE8wOlxs_321.mp4	0.0	205.05189490318298	2.5082430839538574
46	129.9450671672821	fix_post	2		12.0	44.0	2.5	/experiments/knapen_aot/videos/S_yt-SyePE8wOlxs_321.mp4	0.0	207.56013798713684	0.10005784034729004
47	130.0451250076294	fix_pre	0		21.0	45.0	2.5	/experiments/knapen_aot/videos/R_S_yt-KpOAdMtPGFs_17.mp4	0.0	207.66019582748413	0.175490140914917
47	130.21186017990112	response	0	2		45.0	2.5	/experiments/knapen_aot/videos/R_S_yt-KpOAdMtPGFs_17.mp4	0.0	207.82693099975586	
47	130.2206151485443	movie	1		301.0	45.0	2.5	/experiments/knapen_aot/videos/R_S_yt-KpOAdMtPGFs_17.mp4	0.0	207.83568596839905	2.507814884185791
47	132.7284300327301	fix_post	2		12.0	45.0	2.5	/experiments/knapen_aot/videos/R_S_yt-KpOAdMtPGFs_17.mp4	0.0	210.34350085258484	0.10001802444458008
48	132.82844805717468	fix_pre	0		47.0	46.0	2.5	/experiments/knapen_aot/videos/S_yt-N7ztk2fa3Ls_137.mp4	0.0	210.44351887702942	0.3921849727630615
48	133.2119221687317	response	0	2		46.0	2.5	/experiments/knapen_aot/videos/S_yt-N7ztk2fa3Ls_137.mp4	0.0	210.82699298858643	
48	133.22063302993774	movie	1		301.0	46.0	2.5	/experiments/knapen_aot/videos/S_yt-N7ztk2fa3Ls_137.mp4	0.0	210.83570384979248	2.507826089859009
48	135.48691821098328	response	1	2		46.0	2.5	/experiments/knapen_aot/videos/S_yt-N7ztk2fa3Ls_137.mp4	0.0	213.101989030838	
48	135.72845911979675	fix_post	2		12.0	46.0	2.5	/experiments/knapen_aot/videos/S_yt-N7ztk2fa3Ls_137.mp4	0.0	213.3435299396515	0.09999704360961914
49	135.82845616340637	fix_pre	0		15.0	47.0	2.5	/experiments/knapen_aot/videos/R_S_g201_TH_804_A001_8_SDR_20191031_SDR_2K_AVC.mp4	0.0	213.4435269832611	0.12499094009399414
49	135.9451789855957	response	0	2		47.0	2.5	/experiments/knapen_aot/videos/R_S_g201_TH_804_A001_8_SDR_20191031_SDR_2K_AVC.mp4	0.0	213.56024980545044	
49	135.95344710350037	movie	1		165.0	47.0	2.5	/experiments/knapen_aot/videos/R_S_g201_TH_804_A001_8_SDR_20191031_SDR_2K_AVC.mp4	0.0	213.5685179233551	2.5082669258117676
49	138.46171402931213	fix_post	2		12.0	47.0	2.5	/experiments/knapen_aot/videos/R_S_g201_TH_804_A001_8_SDR_20191031_SDR_2K_AVC.mp4	0.0	216.07678484916687	0.10001707077026367
50	138.5617311000824	fix_pre	0		18.0	48.0	2.5	blank	1.0	216.17680191993713	0.1499950885772705
50	138.7035310268402	response	0	2		48.0	2.5	blank	1.0	216.31860184669495	
50	138.71172618865967	movie	1		301.0	48.0	2.5	blank	1.0	216.3267970085144	2.508366823196411
50	141.22009301185608	fix_post	2		12.0	48.0	2.5	blank	1.0	218.83516383171082	0.10000801086425781
51	141.32010102272034	fix_pre	0		135.0	49.0	2.5	/experiments/knapen_aot/videos/R_S_yt-KK6fVRAMm-c_476.mp4	0.0	218.93517184257507	1.1249830722808838
51	142.42931699752808	response	0	2		49.0	2.5	/experiments/knapen_aot/videos/R_S_yt-KK6fVRAMm-c_476.mp4	0.0	220.0443878173828	
51	142.44508409500122	movie	1		301.0	49.0	2.5	/experiments/knapen_aot/videos/R_S_yt-KK6fVRAMm-c_476.mp4	0.0	220.06015491485596	2.508341073989868
51	144.9534251689911	fix_post	2		12.0	49.0	2.5	/experiments/knapen_aot/videos/R_S_yt-KK6fVRAMm-c_476.mp4	0.0	222.56849598884583	0.09995484352111816
52	145.0533800125122	fix_pre	0		10.0	50.0	2.5	/experiments/knapen_aot/videos/S_yt-y6JsUW0eSW8_32.mp4	0.0	222.66845083236694	0.08381915092468262
52	145.12844610214233	response	0	2		50.0	2.5	/experiments/knapen_aot/videos/S_yt-y6JsUW0eSW8_32.mp4	0.0	222.74351692199707	
52	145.1371991634369	movie	1		301.0	50.0	2.5	/experiments/knapen_aot/videos/S_yt-y6JsUW0eSW8_32.mp4	0.0	222.75226998329163	2.5078389644622803
52	147.64503812789917	fix_post	2		12.0	50.0	2.5	/experiments/knapen_aot/videos/S_yt-y6JsUW0eSW8_32.mp4	0.0	225.2601089477539	0.10001492500305176
53	147.74505305290222	fix_pre	0		8.0	51.0	2.5	/experiments/knapen_aot/videos/S_yt-w_e3sxIzepA_27.mp4	0.0	225.36012387275696	0.06668996810913086
53	147.80435919761658	response	0	2		51.0	2.5	/experiments/knapen_aot/videos/S_yt-w_e3sxIzepA_27.mp4	0.0	225.4194300174713	
53	147.81174302101135	movie	1		301.0	51.0	2.5	/experiments/knapen_aot/videos/S_yt-w_e3sxIzepA_27.mp4	0.0	225.4268138408661	2.508319139480591
53	150.32006216049194	fix_post	2		12.0	51.0	2.5	/experiments/knapen_aot/videos/S_yt-w_e3sxIzepA_27.mp4	0.0	227.93513298034668	0.0999908447265625
54	150.4200530052185	fix_pre	0		12.0	52.0	2.5	/experiments/knapen_aot/videos/R_S_ahJft-G235A_122.mp4	0.0	228.03512382507324	0.09999918937683105
54	150.5118281841278	response	0	2		52.0	2.5	/experiments/knapen_aot/videos/R_S_ahJft-G235A_122.mp4	0.0	228.12689900398254	
54	150.52005219459534	movie	1		301.0	52.0	2.5	/experiments/knapen_aot/videos/R_S_ahJft-G235A_122.mp4	0.0	228.13512301445007	2.5082550048828125
54	153.02830719947815	fix_post	2		12.0	52.0	2.5	/experiments/knapen_aot/videos/R_S_ahJft-G235A_122.mp4	0.0	230.64337801933289	0.10006284713745117
55	153.1283700466156	fix_pre	0		14.0	53.0	2.5	/experiments/knapen_aot/videos/R_S_production_ID_5144824.mp4	0.0	230.74344086647034	0.11663007736206055
55	153.2368462085724	response	0	2		53.0	2.5	/experiments/knapen_aot/videos/R_S_production_ID_5144824.mp4	0.0	230.85191702842712	
55	153.24500012397766	movie	1		164.0	53.0	2.5	/experiments/knapen_aot/videos/R_S_production_ID_5144824.mp4	0.0	230.8600709438324	2.508333921432495
55	155.75333404541016	fix_post	2		12.0	53.0	2.5	/experiments/knapen_aot/videos/R_S_production_ID_5144824.mp4	0.0	233.3684048652649	0.10003113746643066
56	155.8533651828766	fix_pre	0		17.0	54.0	2.5	/experiments/knapen_aot/videos/R_S_yt-0xzYSBvVfYM_197.mp4	0.0	233.46843600273132	0.14159393310546875
56	155.98683905601501	response	0	2		54.0	2.5	/experiments/knapen_aot/videos/R_S_yt-0xzYSBvVfYM_197.mp4	0.0	233.60190987586975	
56	155.99495911598206	movie	1		301.0	54.0	2.5	/experiments/knapen_aot/videos/R_S_yt-0xzYSBvVfYM_197.mp4	0.0	233.6100299358368	2.5084030628204346
56	158.5033621788025	fix_post	2		12.0	54.0	2.5	/experiments/knapen_aot/videos/R_S_yt-0xzYSBvVfYM_197.mp4	0.0	236.11843299865723	0.10001897811889648
57	158.6033811569214	fix_pre	0		39.0	55.0	2.5	/experiments/knapen_aot/videos/R_S_yt-738MRS0yI6g_177.mp4	0.0	236.21845197677612	0.3252899646759033
57	158.92015314102173	response	0	2		55.0	2.5	/experiments/knapen_aot/videos/R_S_yt-738MRS0yI6g_177.mp4	0.0	236.53522396087646	
57	158.9286711215973	movie	1		301.0	55.0	2.5	/experiments/knapen_aot/videos/R_S_yt-738MRS0yI6g_177.mp4	0.0	236.54374194145203	2.50797700881958
57	161.43664813041687	fix_post	2		12.0	55.0	2.5	/experiments/knapen_aot/videos/R_S_yt-738MRS0yI6g_177.mp4	0.0	239.0517189502716	0.10010504722595215
58	161.53675317764282	fix_pre	0		36.0	56.0	2.5	blank	1.0	239.15182399749756	0.29994797706604004
58	161.82096910476685	response	0	2		56.0	2.5	blank	1.0	239.43603992462158	
58	161.83670115470886	movie	1		301.0	56.0	2.5	blank	1.0	239.4517719745636	2.5083019733428955
58	164.34500312805176	fix_post	2		12.0	56.0	2.5	blank	1.0	241.9600739479065	0.09991693496704102
59	164.4449200630188	fix_pre	0		40.0	57.0	2.5	/experiments/knapen_aot/videos/R_S_ILSVRC2015_train_00371010.mp4	0.0	242.05999088287354	0.3333549499511719
59	164.7700171470642	response	0	2		57.0	2.5	/experiments/knapen_aot/videos/R_S_ILSVRC2015_train_00371010.mp4	0.0	242.38508796691895	
59	164.77827501296997	movie	1		301.0	57.0	2.5	/experiments/knapen_aot/videos/R_S_ILSVRC2015_train_00371010.mp4	0.0	242.3933458328247	2.5084149837493896
59	167.28668999671936	fix_post	2		12.0	57.0	2.5	/experiments/knapen_aot/videos/R_S_ILSVRC2015_train_00371010.mp4	0.0	244.9017608165741	0.0999600887298584
60	167.38665008544922	fix_pre	0		22.0	58.0	2.5	/experiments/knapen_aot/videos/S_yt-KNdCiW8m1uY_168.mp4	0.0	245.00172090530396	0.183319091796875
60	167.56170511245728	response	0	2		58.0	2.5	/experiments/knapen_aot/videos/S_yt-KNdCiW8m1uY_168.mp4	0.0	245.176775932312	
60	167.5699691772461	movie	1		301.0	58.0	2.5	/experiments/knapen_aot/videos/S_yt-KNdCiW8m1uY_168.mp4	0.0	245.18503999710083	2.5083298683166504
60	170.07829904556274	fix_post	2		12.0	58.0	2.5	/experiments/knapen_aot/videos/S_yt-KNdCiW8m1uY_168.mp4	0.0	247.69336986541748	0.10000896453857422
61	170.17830801010132	fix_pre	0		22.0	59.0	2.5	/experiments/knapen_aot/videos/S_yt-J2PiBa1MXI0_210.mp4	0.0	247.79337882995605	0.18329405784606934
61	170.35344910621643	response	0	2		59.0	2.5	/experiments/knapen_aot/videos/S_yt-J2PiBa1MXI0_210.mp4	0.0	247.96851992607117	
61	170.3616020679474	movie	1		301.0	59.0	2.5	/experiments/knapen_aot/videos/S_yt-J2PiBa1MXI0_210.mp4	0.0	247.97667288780212	2.5083630084991455
61	172.86996507644653	fix_post	2		12.0	59.0	2.5	/experiments/knapen_aot/videos/S_yt-J2PiBa1MXI0_210.mp4	0.0	250.48503589630127	0.10002613067626953
62	172.9699912071228	fix_pre	0		22.0	60.0	2.5	/experiments/knapen_aot/videos/R_S_ILSVRC2015_train_00405001.mp4	0.0	250.58506202697754	0.1833479404449463
62	173.1377191543579	response	0	2		60.0	2.5	/experiments/knapen_aot/videos/R_S_ILSVRC2015_train_00405001.mp4	0.0	250.75278997421265	
62	173.15333914756775	movie	1		301.0	60.0	2.5	/experiments/knapen_aot/videos/R_S_ILSVRC2015_train_00405001.mp4	0.0	250.76840996742249	2.5082900524139404
62	175.6616291999817	fix_post	2		12.0	60.0	2.5	/experiments/knapen_aot/videos/R_S_ILSVRC2015_train_00405001.mp4	0.0	253.27670001983643	0.09999299049377441
63	175.76162219047546	fix_pre	0		17.0	61.0	2.5	blank	1.0	253.3766930103302	0.14165496826171875
63	175.89503598213196	response	0	2		61.0	2.5	blank	1.0	253.5101068019867	
63	175.90327715873718	movie	1		301.0	61.0	2.5	blank	1.0	253.51834797859192	2.508327007293701
63	178.41160416603088	fix_post	2		12.0	61.0	2.5	blank	1.0	256.0266749858856	0.1003718376159668
64	178.51197600364685	fix_pre	0		25.0	62.0	2.5	/experiments/knapen_aot/videos/R_S_yt-QQPv17nfR_E_2.mp4	0.0	256.1270468235016	0.20824003219604492
64	178.71177315711975	response	0	2		62.0	2.5	/experiments/knapen_aot/videos/R_S_yt-QQPv17nfR_E_2.mp4	0.0	256.3268439769745	
64	178.7202160358429	movie	1		301.0	62.0	2.5	/experiments/knapen_aot/videos/R_S_yt-QQPv17nfR_E_2.mp4	0.0	256.33528685569763	2.5080201625823975
64	181.2282361984253	fix_post	2		12.0	62.0	2.5	/experiments/knapen_aot/videos/R_S_yt-QQPv17nfR_E_2.mp4	0.0	258.84330701828003	0.09992480278015137
65	181.32816100120544	fix_pre	0		10.0	63.0	2.5	/experiments/knapen_aot/videos/S_yt-gMqeZkpA_1Q_61.mp4	0.0	258.9432318210602	0.08342814445495605
65	181.4033501148224	response	0	2		63.0	2.5	/experiments/knapen_aot/videos/S_yt-gMqeZkpA_1Q_61.mp4	0.0	259.0184209346771	
65	181.4115891456604	movie	1		301.0	63.0	2.5	/experiments/knapen_aot/videos/S_yt-gMqeZkpA_1Q_61.mp4	0.0	259.02665996551514	2.5083260536193848
65	183.91991519927979	fix_post	2		12.0	63.0	2.5	/experiments/knapen_aot/videos/S_yt-gMqeZkpA_1Q_61.mp4	0.0	261.5349860191345	0.10002279281616211
66	184.01993799209595	fix_pre	0		12.0	64.0	2.5	/experiments/knapen_aot/videos/R_S_yt-Fci3dBzt2T4_223.mp4	0.0	261.6350088119507	0.09997320175170898
66	184.11164498329163	response	0	2		64.0	2.5	/experiments/knapen_aot/videos/R_S_yt-Fci3dBzt2T4_223.mp4	0.0	261.72671580314636	
66	184.11991119384766	movie	1		301.0	64.0	2.5	/experiments/knapen_aot/videos/R_S_yt-Fci3dBzt2T4_223.mp4	0.0	261.7349820137024	2.508314847946167
66	186.62822604179382	fix_post	2		12.0	64.0	2.5	/experiments/knapen_aot/videos/R_S_yt-Fci3dBzt2T4_223.mp4	0.0	264.24329686164856	0.10002493858337402
67	186.7282509803772	fix_pre	0		7.0	65.0	2.5	/experiments/knapen_aot/videos/S_pexels-anastasia-shuraeva-6014070.mp4	0.0	264.34332180023193	0.05829501152038574
67	186.7709310054779	response	0	2		65.0	2.5	/experiments/knapen_aot/videos/S_pexels-anastasia-shuraeva-6014070.mp4	0.0	264.38600182533264	
67	186.78654599189758	movie	1		195.0	65.0	2.5	/experiments/knapen_aot/videos/S_pexels-anastasia-shuraeva-6014070.mp4	0.0	264.4016168117523	2.5082900524139404
67	189.29483604431152	fix_post	2		12.0	65.0	2.5	/experiments/knapen_aot/videos/S_pexels-anastasia-shuraeva-6014070.mp4	0.0	266.90990686416626	0.09999704360961914
68	189.39483308792114	fix_pre	0		2.0	66.0	2.5	/experiments/knapen_aot/videos/S_yt-OTNdgakSIJE_97.mp4	0.0	267.0099039077759	0.016709089279174805
68	189.4034321308136	response	0	2		66.0	2.5	/experiments/knapen_aot/videos/S_yt-OTNdgakSIJE_97.mp4	0.0	267.01850295066833	
68	189.41154217720032	movie	1		301.0	66.0	2.5	/experiments/knapen_aot/videos/S_yt-OTNdgakSIJE_97.mp4	0.0	267.02661299705505	2.5083038806915283
68	191.91984605789185	fix_post	2		12.0	66.0	2.5	/experiments/knapen_aot/videos/S_yt-OTNdgakSIJE_97.mp4	0.0	269.5349168777466	0.09999608993530273
69	192.01984214782715	fix_pre	0		21.0	67.0	2.5	/experiments/knapen_aot/videos/R_S_yt-zam74qlzGtQ_122.mp4	0.0	269.6349129676819	0.17501497268676758
69	192.18666410446167	response	0	2		67.0	2.5	/experiments/knapen_aot/videos/R_S_yt-zam74qlzGtQ_122.mp4	0.0	269.8017349243164	
69	192.19485712051392	movie	1		300.0	67.0	2.5	/experiments/knapen_aot/videos/R_S_yt-zam74qlzGtQ_122.mp4	0.0	269.80992794036865	2.508357048034668
69	194.70321416854858	fix_post	2		12.0	67.0	2.5	/experiments/knapen_aot/videos/R_S_yt-zam74qlzGtQ_122.mp4	0.0	272.3182849884033	0.10019898414611816
70	194.8034131526947	fix_pre	0		18.0	68.0	2.5	/experiments/knapen_aot/videos/S_ILSVRC2015_train_00001009.mp4	0.0	272.41848397254944	0.14978289604187012
70	194.9450330734253	response	0	2		68.0	2.5	/experiments/knapen_aot/videos/S_ILSVRC2015_train_00001009.mp4	0.0	272.56010389328003	
70	194.95319604873657	movie	1		301.0	68.0	2.5	/experiments/knapen_aot/videos/S_ILSVRC2015_train_00001009.mp4	0.0	272.5682668685913	2.508329153060913
70	197.46152520179749	fix_post	2		12.0	68.0	2.5	/experiments/knapen_aot/videos/S_ILSVRC2015_train_00001009.mp4	0.0	275.0765960216522	0.09999895095825195
71	197.56152415275574	fix_pre	0		20.0	69.0	2.5	blank	1.0	275.1765949726105	0.16665887832641602
71	197.71994304656982	response	0	2		69.0	2.5	blank	1.0	275.33501386642456	
71	197.72818303108215	movie	1		301.0	69.0	2.5	blank	1.0	275.3432538509369	2.508277177810669
71	200.23646020889282	fix_post	2		12.0	69.0	2.5	blank	1.0	277.85153102874756	0.10006999969482422
72	200.33653020858765	fix_pre	0		24.0	70.0	2.5	/experiments/knapen_aot/videos/R_S_comp_DB_D008_C010_PSNK_v21_SDR_PS_20180914_F0F16157_SDR_2K_AVC.mp4	0.0	277.9516010284424	0.1999499797821045
72	200.52074813842773	response	0	2		70.0	2.5	/experiments/knapen_aot/videos/R_S_comp_DB_D008_C010_PSNK_v21_SDR_PS_20180914_F0F16157_SDR_2K_AVC.mp4	0.0	278.13581895828247	
72	200.53648018836975	movie	1		169.0	70.0	2.5	/experiments/knapen_aot/videos/R_S_comp_DB_D008_C010_PSNK_v21_SDR_PS_20180914_F0F16157_SDR_2K_AVC.mp4	0.0	278.1515510082245	2.5083749294281006
72	203.04485511779785	fix_post	2		12.0	70.0	2.5	/experiments/knapen_aot/videos/R_S_comp_DB_D008_C010_PSNK_v21_SDR_PS_20180914_F0F16157_SDR_2K_AVC.mp4	0.0	280.6599259376526	0.09999990463256836
73	203.14485502243042	fix_pre	0		9.0	71.0	2.5	/experiments/knapen_aot/videos/S_comp_N008_C003_PS_v01_SDR_PS_20180925_SDR_2K_AVC.mp4	0.0	280.75992584228516	0.07515811920166016
73	203.2116219997406	response	0	2		71.0	2.5	/experiments/knapen_aot/videos/S_comp_N008_C003_PS_v01_SDR_PS_20180925_SDR_2K_AVC.mp4	0.0	280.82669281959534	
73	203.22001314163208	movie	1		163.0	71.0	2.5	/experiments/knapen_aot/videos/S_comp_N008_C003_PS_v01_SDR_PS_20180925_SDR_2K_AVC.mp4	0.0	280.8350839614868	2.508180856704712
73	205.7281939983368	fix_post	2		12.0	71.0	2.5	/experiments/knapen_aot/videos/S_comp_N008_C003_PS_v01_SDR_PS_20180925_SDR_2K_AVC.mp4	0.0	283.3432648181915	0.10004305839538574
74	205.82823705673218	fix_pre	0		155.0	72.0	2.5	/experiments/knapen_aot/videos/R_S_comp_L007_C007_PS_v01_SDR_PS_20180925_SDR_2K_AVC.mp4	0.0	283.4433078765869	1.2945160865783691
74	207.1116180419922	response	0	2		72.0	2.5	/experiments/knapen_aot/videos/R_S_comp_L007_C007_PS_v01_SDR_PS_20180925_SDR_2K_AVC.mp4	0.0	284.7266888618469	
74	207.12275314331055	movie	1		172.0	72.0	2.5	/experiments/knapen_aot/videos/R_S_comp_L007_C007_PS_v01_SDR_PS_20180925_SDR_2K_AVC.mp4	0.0	284.7378239631653	2.5054268836975098
74	209.62818002700806	fix_post	2		12.0	72.0	2.5	/experiments/knapen_aot/videos/R_S_comp_L007_C007_PS_v01_SDR_PS_20180925_SDR_2K_AVC.mp4	0.0	287.2432508468628	0.10004997253417969
75	209.72822999954224	fix_pre	0		4.0	73.0	2.5	/experiments/knapen_aot/videos/R_S_yt-SyePE8wOlxs_321.mp4	0.0	287.343300819397	0.03422117233276367
75	209.75331711769104	response	0	2		73.0	2.5	/experiments/knapen_aot/videos/R_S_yt-SyePE8wOlxs_321.mp4	0.0	287.3683879375458	
75	209.762451171875	movie	1		301.0	73.0	2.5	/experiments/knapen_aot/videos/R_S_yt-SyePE8wOlxs_321.mp4	0.0	287.37752199172974	2.5073978900909424
75	212.26984906196594	fix_post	2		12.0	73.0	2.5	/experiments/knapen_aot/videos/R_S_yt-SyePE8wOlxs_321.mp4	0.0	289.8849198818207	0.0999610424041748
76	212.36981010437012	fix_pre	0		24.0	74.0	2.5	/experiments/knapen_aot/videos/S_yt-HRuCkU_kBoE_239.mp4	0.0	289.98488092422485	0.19994592666625977
76	212.56158900260925	response	0	2		74.0	2.5	/experiments/knapen_aot/videos/S_yt-HRuCkU_kBoE_239.mp4	0.0	290.176659822464	
76	212.56975603103638	movie	1		301.0	74.0	2.5	/experiments/knapen_aot/videos/S_yt-HRuCkU_kBoE_239.mp4	0.0	290.1848268508911	2.508357048034668
76	215.07811307907104	fix_post	2		12.0	74.0	2.5	/experiments/knapen_aot/videos/S_yt-HRuCkU_kBoE_239.mp4	0.0	292.6931838989258	0.10016512870788574
77	215.17827820777893	fix_pre	0		21.0	75.0	2.5	blank	1.0	292.79334902763367	0.17484784126281738
77	215.34498119354248	response	0	2		75.0	2.5	blank	1.0	292.9600520133972	
77	215.35312604904175	movie	1		301.0	75.0	2.5	blank	1.0	292.9681968688965	2.5082430839538574
77	217.8613691329956	fix_post	2		12.0	75.0	2.5	blank	1.0	295.47643995285034	0.10004186630249023
78	217.9614109992981	fix_pre	0		29.0	76.0	2.5	/experiments/knapen_aot/videos/S_ILSVRC2015_train_00369000.mp4	0.0	295.57648181915283	0.24181199073791504
78	218.19487619400024	response	0	2		76.0	2.5	/experiments/knapen_aot/videos/S_ILSVRC2015_train_00369000.mp4	0.0	295.809947013855	
78	218.203222990036	movie	1		301.0	76.0	2.5	/experiments/knapen_aot/videos/S_ILSVRC2015_train_00369000.mp4	0.0	295.81829380989075	2.50822114944458
78	220.7114441394806	fix_post	2		12.0	76.0	2.5	/experiments/knapen_aot/videos/S_ILSVRC2015_train_00369000.mp4	0.0	298.3265149593353	0.09991097450256348
79	220.81135511398315	fix_pre	0		14.0	77.0	2.5	/experiments/knapen_aot/videos/R_S_yt-J2PiBa1MXI0_210.mp4	0.0	298.4264259338379	0.11677908897399902
79	220.919860124588	response	0	2		77.0	2.5	/experiments/knapen_aot/videos/R_S_yt-J2PiBa1MXI0_210.mp4	0.0	298.53493094444275	
79	220.92813420295715	movie	1		301.0	77.0	2.5	/experiments/knapen_aot/videos/R_S_yt-J2PiBa1MXI0_210.mp4	0.0	298.5432050228119	2.508262872695923
79	223.43639707565308	fix_post	2		12.0	77.0	2.5	/experiments/knapen_aot/videos/R_S_yt-J2PiBa1MXI0_210.mp4	0.0	301.0514678955078	0.10002803802490234
80	223.53642511367798	fix_pre	0		42.0	78.0	2.5	/experiments/knapen_aot/videos/R_S_IrGYVLkWeQs_9.mp4	0.0	301.1514959335327	0.3500978946685791
80	223.87826013565063	response	0	2		78.0	2.5	/experiments/knapen_aot/videos/R_S_IrGYVLkWeQs_9.mp4	0.0	301.49333095550537	
80	223.88652300834656	movie	1		301.0	78.0	2.5	/experiments/knapen_aot/videos/R_S_IrGYVLkWeQs_9.mp4	0.0	301.5015938282013	2.5081441402435303
80	226.3946671485901	fix_post	2		12.0	78.0	2.5	/experiments/knapen_aot/videos/R_S_IrGYVLkWeQs_9.mp4	0.0	304.0097379684448	0.09994196891784668
81	226.49460911750793	fix_pre	0		17.0	79.0	2.5	/experiments/knapen_aot/videos/S_yt-BQixB0mumIk_169.mp4	0.0	304.10967993736267	0.14182806015014648
81	226.62815403938293	response	0	2		79.0	2.5	/experiments/knapen_aot/videos/S_yt-BQixB0mumIk_169.mp4	0.0	304.24322485923767	
81	226.63643717765808	movie	1		300.0	79.0	2.5	/experiments/knapen_aot/videos/S_yt-BQixB0mumIk_169.mp4	0.0	304.2515079975128	2.5082309246063232
81	229.1446681022644	fix_post	2		12.0	79.0	2.5	/experiments/knapen_aot/videos/S_yt-BQixB0mumIk_169.mp4	0.0	306.75973892211914	0.10000395774841309
82	229.24467206001282	fix_pre	0		12.0	80.0	2.5	/experiments/knapen_aot/videos/R_S_yt-EBuE7GbFw7U_180.mp4	0.0	306.85974287986755	0.10009908676147461
82	229.33647918701172	response	0	2		80.0	2.5	/experiments/knapen_aot/videos/R_S_yt-EBuE7GbFw7U_180.mp4	0.0	306.95155000686646	
82	229.3447711467743	movie	1		301.0	80.0	2.5	/experiments/knapen_aot/videos/R_S_yt-EBuE7GbFw7U_180.mp4	0.0	306.959841966629	2.5082180500030518
82	231.85298919677734	fix_post	2		12.0	80.0	2.5	/experiments/knapen_aot/videos/R_S_yt-EBuE7GbFw7U_180.mp4	0.0	309.4680600166321	0.09998178482055664
83	231.9529709815979	fix_pre	0		6.0	81.0	2.5	/experiments/knapen_aot/videos/S_wc-q23aBNJMZbnZ_27.mp4	0.0	309.56804180145264	0.050057172775268555
83	231.99484014511108	response	0	2		81.0	2.5	/experiments/knapen_aot/videos/S_wc-q23aBNJMZbnZ_27.mp4	0.0	309.6099109649658	
83	232.00302815437317	movie	1		165.0	81.0	2.5	/experiments/knapen_aot/videos/S_wc-q23aBNJMZbnZ_27.mp4	0.0	309.6180989742279	2.508335828781128
83	234.5113639831543	fix_post	2		12.0	81.0	2.5	/experiments/knapen_aot/videos/S_wc-q23aBNJMZbnZ_27.mp4	0.0	312.12643480300903	0.0999760627746582
84	234.61134004592896	fix_pre	0		16.0	82.0	2.5	blank	1.0	312.2264108657837	0.1333470344543457
84	234.7364661693573	response	0	2		82.0	2.5	blank	1.0	312.35153698921204	
84	234.7446870803833	movie	1		301.0	82.0	2.5	blank	1.0	312.35975790023804	2.5082790851593018
84	237.2529661655426	fix_post	2		12.0	82.0	2.5	blank	1.0	314.86803698539734	0.09998703002929688
85	237.3529531955719	fix_pre	0		39.0	83.0	2.5	/experiments/knapen_aot/videos/S_yt-wIZprsJwxBM_298.mp4	0.0	314.96802401542664	0.32505297660827637
85	237.66976809501648	response	0	2		83.0	2.5	/experiments/knapen_aot/videos/S_yt-wIZprsJwxBM_298.mp4	0.0	315.2848389148712	
85	237.67800617218018	movie	1		301.0	83.0	2.5	/experiments/knapen_aot/videos/S_yt-wIZprsJwxBM_298.mp4	0.0	315.2930769920349	2.5083470344543457
85	240.18635320663452	fix_post	2		12.0	83.0	2.5	/experiments/knapen_aot/videos/S_yt-wIZprsJwxBM_298.mp4	0.0	317.80142402648926	0.10000085830688477
87	240.2863540649414	stim	0		200.0					317.90142488479614	1.6666450500488281
87	240.3707799911499	response	0	2						317.98585081100464	
87	240.71709609031677	response	0	return						318.3321669101715	
87	241.28642416000366	response	0	return						318.9014949798584	
87	241.9447660446167	response	0	space						319.55983686447144	
