trial_nr	onset	event_type	phase	response	nr_frames	movie_index	movie_duration	movie_file	blank	onset_abs	duration
0	0.13518190383911133	stim	0		37.0					89.74269199371338	0.3065519332885742
0	0.433743953704834	response	0	space						90.0412540435791	
1	0.44173383712768555	stim	0		121.0					90.04924392700195	1.0079751014709473
1	1.4497089385986328	stim	1		120.0					91.0572190284729	0.9999630451202393
1	1.6415328979492188	response	1	space						91.24904298782349	
1	2.3081247806549072	response	1	space						91.91563487052917	
2	2.449671983718872	fix_pre	0		42.0	0.0	2.5	/experiments/knapen_aot/videos/R_S_yt-ZdXwVfF6T-s_25.mp4	0.0	92.05718207359314	0.34999990463256836
2	2.791468858718872	response	0	space		0.0	2.5	/experiments/knapen_aot/videos/R_S_yt-ZdXwVfF6T-s_25.mp4	0.0	92.39897894859314	
2	2.7996718883514404	movie	1		301.0	0.0	2.5	/experiments/knapen_aot/videos/R_S_yt-ZdXwVfF6T-s_25.mp4	0.0	92.40718197822571	2.508471965789795
2	5.308143854141235	fix_post	2		12.0	0.0	2.5	/experiments/knapen_aot/videos/R_S_yt-ZdXwVfF6T-s_25.mp4	0.0	94.9156539440155	0.0998680591583252
3	5.4080119132995605	fix_pre	0		116.0	1.0	2.5	/experiments/knapen_aot/videos/S_yt-eoASPwIAiHY_244.mp4	0.0	95.01552200317383	0.9695770740509033
3	6.370130777359009	response	0	2		1.0	2.5	/experiments/knapen_aot/videos/S_yt-eoASPwIAiHY_244.mp4	0.0	95.97764086723328	
3	6.377588987350464	movie	1		300.0	1.0	2.5	/experiments/knapen_aot/videos/S_yt-eoASPwIAiHY_244.mp4	0.0	95.98509907722473	2.5054450035095215
3	8.883033990859985	fix_post	2		12.0	1.0	2.5	/experiments/knapen_aot/videos/S_yt-eoASPwIAiHY_244.mp4	0.0	98.49054408073425	0.09996581077575684
4	8.982999801635742	fix_pre	0		55.0	2.0	2.5	/experiments/knapen_aot/videos/S_yt--cAfxH1WnPo_3.mp4	0.0	98.59050989151001	0.45842909812927246
4	9.433140993118286	response	0	2		2.0	2.5	/experiments/knapen_aot/videos/S_yt--cAfxH1WnPo_3.mp4	0.0	99.04065108299255	
4	9.441428899765015	movie	1		301.0	2.0	2.5	/experiments/knapen_aot/videos/S_yt--cAfxH1WnPo_3.mp4	0.0	99.04893898963928	2.5081839561462402
4	11.949612855911255	fix_post	2		12.0	2.0	2.5	/experiments/knapen_aot/videos/S_yt--cAfxH1WnPo_3.mp4	0.0	101.55712294578552	0.09994292259216309
5	12.049555778503418	fix_pre	0		63.0	3.0	2.5	/experiments/knapen_aot/videos/S_comp_H004_C009_PS_v01_SDR_PS_20180925_SDR_2K_AVC.mp4	0.0	101.65706586837769	0.5250329971313477
5	12.566482782363892	response	0	2		3.0	2.5	/experiments/knapen_aot/videos/S_comp_H004_C009_PS_v01_SDR_PS_20180925_SDR_2K_AVC.mp4	0.0	102.17399287223816	
5	12.574588775634766	movie	1		164.0	3.0	2.5	/experiments/knapen_aot/videos/S_comp_H004_C009_PS_v01_SDR_PS_20180925_SDR_2K_AVC.mp4	0.0	102.18209886550903	2.508369207382202
5	15.082957983016968	fix_post	2		12.0	3.0	2.5	/experiments/knapen_aot/videos/S_comp_H004_C009_PS_v01_SDR_PS_20180925_SDR_2K_AVC.mp4	0.0	104.69046807289124	0.10007691383361816
6	15.183034896850586	fix_pre	0		37.0	4.0	2.5	/experiments/knapen_aot/videos/S_yt-RO4mhuXBVrY_67.mp4	0.0	104.79054498672485	0.3082098960876465
6	15.48306679725647	response	0	2		4.0	2.5	/experiments/knapen_aot/videos/S_yt-RO4mhuXBVrY_67.mp4	0.0	105.09057688713074	
6	15.491244792938232	movie	1		301.0	4.0	2.5	/experiments/knapen_aot/videos/S_yt-RO4mhuXBVrY_67.mp4	0.0	105.0987548828125	2.5083541870117188
6	17.99959897994995	fix_post	2		12.0	4.0	2.5	/experiments/knapen_aot/videos/S_yt-RO4mhuXBVrY_67.mp4	0.0	107.60710906982422	0.10009193420410156
7	18.099690914154053	fix_pre	0		50.0	5.0	2.5	blank	1.0	107.70720100402832	0.41666293144226074
7	18.5081148147583	response	0	2		5.0	2.5	blank	1.0	108.11562490463257	
7	18.516353845596313	movie	1		301.0	5.0	2.5	blank	1.0	108.12386393547058	2.508296012878418
7	21.02464985847473	fix_post	2		12.0	5.0	2.5	blank	1.0	110.632159948349	0.10005712509155273
8	21.124706983566284	fix_pre	0		60.0	6.0	2.5	/experiments/knapen_aot/videos/S_yt-oVS_k_9upmo_205.mp4	0.0	110.73221707344055	0.4998798370361328
8	21.61640691757202	response	0	2		6.0	2.5	/experiments/knapen_aot/videos/S_yt-oVS_k_9upmo_205.mp4	0.0	111.22391700744629	
8	21.624586820602417	movie	1		299.0	6.0	2.5	/experiments/knapen_aot/videos/S_yt-oVS_k_9upmo_205.mp4	0.0	111.23209691047668	2.5083541870117188
8	24.132941007614136	fix_post	2		12.0	6.0	2.5	/experiments/knapen_aot/videos/S_yt-oVS_k_9upmo_205.mp4	0.0	113.7404510974884	0.09994983673095703
9	24.232890844345093	fix_pre	0		39.0	7.0	2.5	/experiments/knapen_aot/videos/S_yt-oPq1uvbw-lQ_62.mp4	0.0	113.84040093421936	0.3250761032104492
9	24.54975390434265	response	0	2		7.0	2.5	/experiments/knapen_aot/videos/S_yt-oPq1uvbw-lQ_62.mp4	0.0	114.15726399421692	
9	24.557966947555542	movie	1		301.0	7.0	2.5	/experiments/knapen_aot/videos/S_yt-oPq1uvbw-lQ_62.mp4	0.0	114.16547703742981	2.508296012878418
9	27.06626296043396	fix_post	2		12.0	7.0	2.5	/experiments/knapen_aot/videos/S_yt-oPq1uvbw-lQ_62.mp4	0.0	116.67377305030823	0.10000896453857422
10	27.166271924972534	fix_pre	0		46.0	8.0	2.5	/experiments/knapen_aot/videos/S_production_ID_3943334.mp4	0.0	116.7737820148468	0.38330507278442383
10	27.541499853134155	response	0	2		8.0	2.5	/experiments/knapen_aot/videos/S_production_ID_3943334.mp4	0.0	117.14900994300842	
10	27.549576997756958	movie	1		193.0	8.0	2.5	/experiments/knapen_aot/videos/S_production_ID_3943334.mp4	0.0	117.15708708763123	2.5083439350128174
10	30.057920932769775	fix_post	2		12.0	8.0	2.5	/experiments/knapen_aot/videos/S_production_ID_3943334.mp4	0.0	119.66543102264404	0.10000300407409668
11	30.157923936843872	fix_pre	0		36.0	9.0	2.5	/experiments/knapen_aot/videos/R_S_ILSVRC2015_train_00165011.mp4	0.0	119.76543402671814	0.2999918460845947
11	30.449712991714478	response	0	2		9.0	2.5	/experiments/knapen_aot/videos/R_S_ILSVRC2015_train_00165011.mp4	0.0	120.05722308158875	
11	30.457915782928467	movie	1		301.0	9.0	2.5	/experiments/knapen_aot/videos/R_S_ILSVRC2015_train_00165011.mp4	0.0	120.06542587280273	2.508327007293701
11	32.96624279022217	fix_post	2		12.0	9.0	2.5	/experiments/knapen_aot/videos/R_S_ILSVRC2015_train_00165011.mp4	0.0	122.57375288009644	0.09995007514953613
12	33.066192865371704	fix_pre	0		45.0	10.0	2.5	/experiments/knapen_aot/videos/S_ILSVRC2015_train_00599000.mp4	0.0	122.67370295524597	0.374953031539917
12	33.43297982215881	response	0	2		10.0	2.5	/experiments/knapen_aot/videos/S_ILSVRC2015_train_00599000.mp4	0.0	123.04048991203308	
12	33.44114589691162	movie	1		301.0	10.0	2.5	/experiments/knapen_aot/videos/S_ILSVRC2015_train_00599000.mp4	0.0	123.04865598678589	2.5083460807800293
12	35.94949197769165	fix_post	2		12.0	10.0	2.5	/experiments/knapen_aot/videos/S_ILSVRC2015_train_00599000.mp4	0.0	125.55700206756592	0.10008502006530762
13	36.04957699775696	fix_pre	0		52.0	11.0	2.5	/experiments/knapen_aot/videos/R_S_yt-y6JsUW0eSW8_32.mp4	0.0	125.65708708763123	0.43323278427124023
13	36.47463297843933	response	0	2		11.0	2.5	/experiments/knapen_aot/videos/R_S_yt-y6JsUW0eSW8_32.mp4	0.0	126.0821430683136	
13	36.4828097820282	movie	1		301.0	11.0	2.5	/experiments/knapen_aot/videos/R_S_yt-y6JsUW0eSW8_32.mp4	0.0	126.09031987190247	2.50839900970459
13	38.99120879173279	fix_post	2		12.0	11.0	2.5	/experiments/knapen_aot/videos/R_S_yt-y6JsUW0eSW8_32.mp4	0.0	128.59871888160706	0.10001111030578613
14	39.091219902038574	fix_pre	0		31.0	12.0	2.5	/experiments/knapen_aot/videos/R_S_yt-cBCeq1NQgj0_1129.mp4	0.0	128.69872999191284	0.2581760883331299
14	39.34127378463745	response	0	2		12.0	2.5	/experiments/knapen_aot/videos/R_S_yt-cBCeq1NQgj0_1129.mp4	0.0	128.94878387451172	
14	39.349395990371704	movie	1		301.0	12.0	2.5	/experiments/knapen_aot/videos/R_S_yt-cBCeq1NQgj0_1129.mp4	0.0	128.95690608024597	2.50836181640625
14	41.857757806777954	fix_post	2		12.0	12.0	2.5	/experiments/knapen_aot/videos/R_S_yt-cBCeq1NQgj0_1129.mp4	0.0	131.46526789665222	0.10004210472106934
15	41.95779991149902	fix_pre	0		60.0	13.0	2.5	blank	1.0	131.5653100013733	0.5
15	42.44963192939758	response	0	2		13.0	2.5	blank	1.0	132.05714201927185	
15	42.45779991149902	movie	1		301.0	13.0	2.5	blank	1.0	132.0653100013733	2.508301019668579
15	44.9661009311676	fix_post	2		12.0	13.0	2.5	blank	1.0	134.57361102104187	0.09999704360961914
16	45.06609797477722	fix_pre	0		70.0	14.0	2.5	/experiments/knapen_aot/videos/S_yt-H2ce6U0SbVA_542.mp4	0.0	134.6736080646515	0.5833339691162109
16	45.6412467956543	response	0	2		14.0	2.5	/experiments/knapen_aot/videos/S_yt-H2ce6U0SbVA_542.mp4	0.0	135.24875688552856	
16	45.64943194389343	movie	1		301.0	14.0	2.5	/experiments/knapen_aot/videos/S_yt-H2ce6U0SbVA_542.mp4	0.0	135.2569420337677	2.5083889961242676
16	48.1578209400177	fix_post	2		12.0	14.0	2.5	/experiments/knapen_aot/videos/S_yt-H2ce6U0SbVA_542.mp4	0.0	137.76533102989197	0.09997391700744629
17	48.25779485702515	fix_pre	0		49.0	15.0	2.5	/experiments/knapen_aot/videos/R_S_yt-9CY7rDYBYUI_40.mp4	0.0	137.8653049468994	0.40833497047424316
17	48.65791392326355	response	0	2		15.0	2.5	/experiments/knapen_aot/videos/R_S_yt-9CY7rDYBYUI_40.mp4	0.0	138.26542401313782	
17	48.66612982749939	movie	1		301.0	15.0	2.5	/experiments/knapen_aot/videos/R_S_yt-9CY7rDYBYUI_40.mp4	0.0	138.27363991737366	2.5082759857177734
17	51.17440581321716	fix_post	2		12.0	15.0	2.5	/experiments/knapen_aot/videos/R_S_yt-9CY7rDYBYUI_40.mp4	0.0	140.78191590309143	0.10002803802490234
18	51.274433851242065	fix_pre	0		50.0	16.0	2.5	/experiments/knapen_aot/videos/R_S_yt-qYuLW5vSotM_160.mp4	0.0	140.88194394111633	0.41664600372314453
18	51.68292689323425	response	0	2		16.0	2.5	/experiments/knapen_aot/videos/R_S_yt-qYuLW5vSotM_160.mp4	0.0	141.29043698310852	
18	51.69107985496521	movie	1		301.0	16.0	2.5	/experiments/knapen_aot/videos/R_S_yt-qYuLW5vSotM_160.mp4	0.0	141.29858994483948	2.5083770751953125
18	54.19945693016052	fix_post	2		12.0	16.0	2.5	/experiments/knapen_aot/videos/R_S_yt-qYuLW5vSotM_160.mp4	0.0	143.8069670200348	0.09995603561401367
19	54.299412965774536	fix_pre	0		27.0	17.0	2.5	/experiments/knapen_aot/videos/S_yt-cBCeq1NQgj0_1129.mp4	0.0	143.9069230556488	0.22502493858337402
19	54.51623296737671	response	0	2		17.0	2.5	/experiments/knapen_aot/videos/S_yt-cBCeq1NQgj0_1129.mp4	0.0	144.12374305725098	
19	54.52443790435791	movie	1		301.0	17.0	2.5	/experiments/knapen_aot/videos/S_yt-cBCeq1NQgj0_1129.mp4	0.0	144.13194799423218	2.5082409381866455
19	57.032678842544556	fix_post	2		12.0	17.0	2.5	/experiments/knapen_aot/videos/S_yt-cBCeq1NQgj0_1129.mp4	0.0	146.64018893241882	0.10009098052978516
20	57.13276982307434	fix_pre	0		42.0	18.0	2.5	/experiments/knapen_aot/videos/R_S_yt-hRAqAwRhmwE_58.mp4	0.0	146.7402799129486	0.3499720096588135
20	57.474554777145386	response	0	2		18.0	2.5	/experiments/knapen_aot/videos/R_S_yt-hRAqAwRhmwE_58.mp4	0.0	147.08206486701965	
20	57.482741832733154	movie	1		301.0	18.0	2.5	/experiments/knapen_aot/videos/R_S_yt-hRAqAwRhmwE_58.mp4	0.0	147.09025192260742	2.5083611011505127
20	59.99110293388367	fix_post	2		12.0	18.0	2.5	/experiments/knapen_aot/videos/R_S_yt-hRAqAwRhmwE_58.mp4	0.0	149.59861302375793	0.0998990535736084
21	60.091001987457275	fix_pre	0		47.0	19.0	2.5	blank	1.0	149.69851207733154	0.39175891876220703
21	60.47453188896179	response	0	2		19.0	2.5	blank	1.0	150.08204197883606	
21	60.48276090621948	movie	1		301.0	19.0	2.5	blank	1.0	150.09027099609375	2.508316993713379
21	62.99107789993286	fix_post	2		12.0	19.0	2.5	blank	1.0	152.59858798980713	0.10000801086425781
22	63.09108591079712	fix_pre	0		44.0	20.0	2.5	/experiments/knapen_aot/videos/R_S_yt-W00vtWnXgIk_73.mp4	0.0	152.6985960006714	0.36660194396972656
22	63.4494788646698	response	0	2		20.0	2.5	/experiments/knapen_aot/videos/R_S_yt-W00vtWnXgIk_73.mp4	0.0	153.05698895454407	
22	63.457687854766846	movie	1		301.0	20.0	2.5	/experiments/knapen_aot/videos/R_S_yt-W00vtWnXgIk_73.mp4	0.0	153.0651979446411	2.5083699226379395
22	65.96605777740479	fix_post	2		12.0	20.0	2.5	/experiments/knapen_aot/videos/R_S_yt-W00vtWnXgIk_73.mp4	0.0	155.57356786727905	0.09994912147521973
23	66.06600689888	fix_pre	0		32.0	21.0	2.5	/experiments/knapen_aot/videos/S_yt-3DM_SqT4RII_10.mp4	0.0	155.67351698875427	0.26668500900268555
23	66.3244698047638	response	0	2		21.0	2.5	/experiments/knapen_aot/videos/S_yt-3DM_SqT4RII_10.mp4	0.0	155.93197989463806	
23	66.33269190788269	movie	1		301.0	21.0	2.5	/experiments/knapen_aot/videos/S_yt-3DM_SqT4RII_10.mp4	0.0	155.94020199775696	2.508297920227051
23	68.84098982810974	fix_post	2		12.0	21.0	2.5	/experiments/knapen_aot/videos/S_yt-3DM_SqT4RII_10.mp4	0.0	158.448499917984	0.10001611709594727
24	68.94100594520569	fix_pre	0		40.0	22.0	2.5	/experiments/knapen_aot/videos/S_yt-xnqqB-leeaQ_128.mp4	0.0	158.54851603507996	0.3333580493927002
24	69.26615190505981	response	0	2		22.0	2.5	/experiments/knapen_aot/videos/S_yt-xnqqB-leeaQ_128.mp4	0.0	158.87366199493408	
24	69.27436399459839	movie	1		301.0	22.0	2.5	/experiments/knapen_aot/videos/S_yt-xnqqB-leeaQ_128.mp4	0.0	158.88187408447266	2.5083508491516113
24	71.78271484375	fix_post	2		12.0	22.0	2.5	/experiments/knapen_aot/videos/S_yt-xnqqB-leeaQ_128.mp4	0.0	161.39022493362427	0.09999895095825195
25	71.88271379470825	fix_pre	0		40.0	23.0	2.5	/experiments/knapen_aot/videos/S_yt-wLylWnZs3z0_27.mp4	0.0	161.49022388458252	0.3345491886138916
25	72.20790886878967	response	0	2		23.0	2.5	/experiments/knapen_aot/videos/S_yt-wLylWnZs3z0_27.mp4	0.0	161.81541895866394	
25	72.21726298332214	movie	1		301.0	23.0	2.5	/experiments/knapen_aot/videos/S_yt-wLylWnZs3z0_27.mp4	0.0	161.8247730731964	2.5070629119873047
25	74.72432589530945	fix_post	2		12.0	23.0	2.5	/experiments/knapen_aot/videos/S_yt-wLylWnZs3z0_27.mp4	0.0	164.33183598518372	0.09999704360961914
26	74.82432293891907	fix_pre	0		38.0	24.0	2.5	/experiments/knapen_aot/videos/S_ILSVRC2015_train_00599000.mp4	0.0	164.43183302879333	0.31666088104248047
26	75.13282990455627	response	0	2		24.0	2.5	/experiments/knapen_aot/videos/S_ILSVRC2015_train_00599000.mp4	0.0	164.74033999443054	
26	75.14098381996155	movie	1		301.0	24.0	2.5	/experiments/knapen_aot/videos/S_ILSVRC2015_train_00599000.mp4	0.0	164.74849390983582	2.5083751678466797
26	77.64935898780823	fix_post	2		12.0	24.0	2.5	/experiments/knapen_aot/videos/S_ILSVRC2015_train_00599000.mp4	0.0	167.2568690776825	0.09991097450256348
27	77.74926996231079	fix_pre	0		59.0	25.0	2.5	/experiments/knapen_aot/videos/S_yt-LYnwnfi1JJ4_120.mp4	0.0	167.35678005218506	0.4916980266571045
27	78.23278188705444	response	0	2		25.0	2.5	/experiments/knapen_aot/videos/S_yt-LYnwnfi1JJ4_120.mp4	0.0	167.8402919769287	
27	78.2409679889679	movie	1		301.0	25.0	2.5	/experiments/knapen_aot/videos/S_yt-LYnwnfi1JJ4_120.mp4	0.0	167.84847807884216	2.508391857147217
27	80.74935984611511	fix_post	2		12.0	25.0	2.5	/experiments/knapen_aot/videos/S_yt-LYnwnfi1JJ4_120.mp4	0.0	170.35686993598938	0.09996414184570312
28	80.84932398796082	fix_pre	0		31.0	26.0	2.5	blank	1.0	170.45683407783508	0.25833892822265625
28	81.09954786300659	response	0	2		26.0	2.5	blank	1.0	170.70705795288086	
28	81.10766291618347	movie	1		301.0	26.0	2.5	blank	1.0	170.71517300605774	2.5083019733428955
28	83.61596488952637	fix_post	2		12.0	26.0	2.5	blank	1.0	173.22347497940063	0.10001611709594727
29	83.71598100662231	fix_pre	0		49.0	27.0	2.5	/experiments/knapen_aot/videos/S_yt-xQPKYWDRy2A_491.mp4	0.0	173.32349109649658	0.4082639217376709
29	84.1161379814148	response	0	2		27.0	2.5	/experiments/knapen_aot/videos/S_yt-xQPKYWDRy2A_491.mp4	0.0	173.72364807128906	
29	84.12424492835999	movie	1		301.0	27.0	2.5	/experiments/knapen_aot/videos/S_yt-xQPKYWDRy2A_491.mp4	0.0	173.73175501823425	2.5084009170532227
29	86.63264584541321	fix_post	2		12.0	27.0	2.5	/experiments/knapen_aot/videos/S_yt-xQPKYWDRy2A_491.mp4	0.0	176.24015593528748	0.10001802444458008
30	86.73266386985779	fix_pre	0		46.0	28.0	2.5	/experiments/knapen_aot/videos/R_S_yt-Snha8C5YOiY_26.mp4	0.0	176.34017395973206	0.38329100608825684
30	87.10781598091125	response	0	2		28.0	2.5	/experiments/knapen_aot/videos/R_S_yt-Snha8C5YOiY_26.mp4	0.0	176.71532607078552	
30	87.11595487594604	movie	1		299.0	28.0	2.5	/experiments/knapen_aot/videos/R_S_yt-Snha8C5YOiY_26.mp4	0.0	176.7234649658203	2.508265972137451
30	89.6242208480835	fix_post	2		12.0	28.0	2.5	/experiments/knapen_aot/videos/R_S_yt-Snha8C5YOiY_26.mp4	0.0	179.23173093795776	0.10009503364562988
31	89.72431588172913	fix_pre	0		50.0	29.0	2.5	/experiments/knapen_aot/videos/R_S_yt-eoASPwIAiHY_244.mp4	0.0	179.3318259716034	0.4165821075439453
31	90.13272285461426	response	0	2		29.0	2.5	/experiments/knapen_aot/videos/R_S_yt-eoASPwIAiHY_244.mp4	0.0	179.74023294448853	
31	90.14089798927307	movie	1		301.0	29.0	2.5	/experiments/knapen_aot/videos/R_S_yt-eoASPwIAiHY_244.mp4	0.0	179.74840807914734	2.508389949798584
31	92.64928793907166	fix_post	2		12.0	29.0	2.5	/experiments/knapen_aot/videos/R_S_yt-eoASPwIAiHY_244.mp4	0.0	182.25679802894592	0.09996485710144043
32	92.7492527961731	fix_pre	0		25.0	30.0	2.5	/experiments/knapen_aot/videos/S_ILSVRC2015_train_00318000.mp4	0.0	182.35676288604736	0.20825719833374023
32	92.94938397407532	response	0	2		30.0	2.5	/experiments/knapen_aot/videos/S_ILSVRC2015_train_00318000.mp4	0.0	182.55689406394958	
32	92.95750999450684	movie	1		301.0	30.0	2.5	/experiments/knapen_aot/videos/S_ILSVRC2015_train_00318000.mp4	0.0	182.5650200843811	2.5083489418029785
32	95.46585893630981	fix_post	2		12.0	30.0	2.5	/experiments/knapen_aot/videos/S_ILSVRC2015_train_00318000.mp4	0.0	185.07336902618408	0.1000509262084961
33	95.56590986251831	fix_pre	0		43.0	31.0	2.5	/experiments/knapen_aot/videos/S_yt-Ja7d2a6e5xE_279.mp4	0.0	185.17341995239258	0.35935497283935547
33	95.91613984107971	response	0	2		31.0	2.5	/experiments/knapen_aot/videos/S_yt-Ja7d2a6e5xE_279.mp4	0.0	185.52364993095398	
33	95.92526483535767	movie	1		301.0	31.0	2.5	/experiments/knapen_aot/videos/S_yt-Ja7d2a6e5xE_279.mp4	0.0	185.53277492523193	2.507344961166382
33	98.43260979652405	fix_post	2		12.0	31.0	2.5	/experiments/knapen_aot/videos/S_yt-Ja7d2a6e5xE_279.mp4	0.0	188.04011988639832	0.10000109672546387
34	98.53261089324951	fix_pre	0		38.0	32.0	2.5	/experiments/knapen_aot/videos/R_S_comp_A351_C001_v06_SDR_PS_20180725_SDR_2K_AVC.mp4	0.0	188.14012098312378	0.3166930675506592
34	98.84112787246704	response	0	2		32.0	2.5	/experiments/knapen_aot/videos/R_S_comp_A351_C001_v06_SDR_PS_20180725_SDR_2K_AVC.mp4	0.0	188.4486379623413	
34	98.84930396080017	movie	1		165.0	32.0	2.5	/experiments/knapen_aot/videos/R_S_comp_A351_C001_v06_SDR_PS_20180725_SDR_2K_AVC.mp4	0.0	188.45681405067444	2.5082600116729736
34	101.35756397247314	fix_post	2		12.0	32.0	2.5	/experiments/knapen_aot/videos/R_S_comp_A351_C001_v06_SDR_PS_20180725_SDR_2K_AVC.mp4	0.0	190.9650740623474	0.09993290901184082
35	101.45749688148499	fix_pre	0		33.0	33.0	2.5	blank	1.0	191.06500697135925	0.2749629020690918
35	101.72434997558594	response	0	2		33.0	2.5	blank	1.0	191.3318600654602	
35	101.73245978355408	movie	1		301.0	33.0	2.5	blank	1.0	191.33996987342834	2.5084211826324463
35	104.24088096618652	fix_post	2		12.0	33.0	2.5	blank	1.0	193.8483910560608	0.09996390342712402
36	104.34084486961365	fix_pre	0		40.0	34.0	2.5	/experiments/knapen_aot/videos/S_yt-jy7rAnpu0u8_128.mp4	0.0	193.94835495948792	0.3344099521636963
36	104.66598892211914	response	0	2		34.0	2.5	/experiments/knapen_aot/videos/S_yt-jy7rAnpu0u8_128.mp4	0.0	194.2734990119934	
36	104.67525482177734	movie	1		301.0	34.0	2.5	/experiments/knapen_aot/videos/S_yt-jy7rAnpu0u8_128.mp4	0.0	194.2827649116516	2.5073130130767822
36	107.18256783485413	fix_post	2		12.0	34.0	2.5	/experiments/knapen_aot/videos/S_yt-jy7rAnpu0u8_128.mp4	0.0	196.7900779247284	0.10017108917236328
37	107.28273892402649	fix_pre	0		42.0	35.0	2.5	/experiments/knapen_aot/videos/S_video-6.mp4	0.0	196.89024901390076	0.35080599784851074
37	107.62436985969543	response	0	2		35.0	2.5	/experiments/knapen_aot/videos/S_video-6.mp4	0.0	197.2318799495697	
37	107.633544921875	movie	1		162.0	35.0	2.5	/experiments/knapen_aot/videos/S_video-6.mp4	0.0	197.24105501174927	2.507361888885498
37	110.1409068107605	fix_post	2		12.0	35.0	2.5	/experiments/knapen_aot/videos/S_video-6.mp4	0.0	199.74841690063477	0.09995913505554199
38	110.24086594581604	fix_pre	0		47.0	36.0	2.5	/experiments/knapen_aot/videos/S_yt-JH6qCYAnX-I_70.mp4	0.0	199.8483760356903	0.3926670551300049
38	110.62434196472168	response	0	2		36.0	2.5	/experiments/knapen_aot/videos/S_yt-JH6qCYAnX-I_70.mp4	0.0	200.23185205459595	
38	110.63353300094604	movie	1		301.0	36.0	2.5	/experiments/knapen_aot/videos/S_yt-JH6qCYAnX-I_70.mp4	0.0	200.2410430908203	2.50730299949646
38	113.1408360004425	fix_post	2		12.0	36.0	2.5	/experiments/knapen_aot/videos/S_yt-JH6qCYAnX-I_70.mp4	0.0	202.74834609031677	0.09995579719543457
39	113.24079179763794	fix_pre	0		84.0	37.0	2.5	/experiments/knapen_aot/videos/R_S_ILSVRC2015_train_00697001.mp4	0.0	202.8483018875122	0.6999630928039551
39	113.93267798423767	response	0	2		37.0	2.5	/experiments/knapen_aot/videos/R_S_ILSVRC2015_train_00697001.mp4	0.0	203.54018807411194	
39	113.9407548904419	movie	1		299.0	37.0	2.5	/experiments/knapen_aot/videos/R_S_ILSVRC2015_train_00697001.mp4	0.0	203.54826498031616	2.5084240436553955
39	116.44917893409729	fix_post	2		12.0	37.0	2.5	/experiments/knapen_aot/videos/R_S_ILSVRC2015_train_00697001.mp4	0.0	206.05668902397156	0.09997296333312988
40	116.54915189743042	fix_pre	0		37.0	38.0	2.5	/experiments/knapen_aot/videos/R_S_yt-BLmwmX-mni8_56.mp4	0.0	206.1566619873047	0.3083200454711914
40	116.84934782981873	response	0	2		38.0	2.5	/experiments/knapen_aot/videos/R_S_yt-BLmwmX-mni8_56.mp4	0.0	206.456857919693	
40	116.85747194290161	movie	1		301.0	38.0	2.5	/experiments/knapen_aot/videos/R_S_yt-BLmwmX-mni8_56.mp4	0.0	206.46498203277588	2.5083298683166504
40	119.36580181121826	fix_post	2		12.0	38.0	2.5	/experiments/knapen_aot/videos/R_S_yt-BLmwmX-mni8_56.mp4	0.0	208.97331190109253	0.10000205039978027
41	119.46580386161804	fix_pre	0		30.0	39.0	2.5	/experiments/knapen_aot/videos/S_yt-hmtcRLNoYZc_17.mp4	0.0	209.0733139514923	0.2509889602661133
41	119.70759081840515	response	0	2		39.0	2.5	/experiments/knapen_aot/videos/S_yt-hmtcRLNoYZc_17.mp4	0.0	209.31510090827942	
41	119.71679282188416	movie	1		301.0	39.0	2.5	/experiments/knapen_aot/videos/S_yt-hmtcRLNoYZc_17.mp4	0.0	209.32430291175842	2.5074050426483154
41	122.22419786453247	fix_post	2		12.0	39.0	2.5	/experiments/knapen_aot/videos/S_yt-hmtcRLNoYZc_17.mp4	0.0	211.83170795440674	0.10001397132873535
42	122.3242118358612	fix_pre	0		78.0	40.0	2.5	/experiments/knapen_aot/videos/R_S_yt-zh2yLr-o_8A_953.mp4	0.0	211.93172192573547	0.6499409675598145
42	122.96598887443542	response	0	2		40.0	2.5	/experiments/knapen_aot/videos/R_S_yt-zh2yLr-o_8A_953.mp4	0.0	212.5734989643097	
42	122.97415280342102	movie	1		301.0	40.0	2.5	/experiments/knapen_aot/videos/R_S_yt-zh2yLr-o_8A_953.mp4	0.0	212.5816628932953	2.5082900524139404
42	125.48244285583496	fix_post	2		12.0	40.0	2.5	/experiments/knapen_aot/videos/R_S_yt-zh2yLr-o_8A_953.mp4	0.0	215.08995294570923	0.10004901885986328
43	125.58249187469482	fix_pre	0		27.0	41.0	2.5	/experiments/knapen_aot/videos/S_ILSVRC2015_train_00322000.mp4	0.0	215.1900019645691	0.22501301765441895
43	125.79928493499756	response	0	2		41.0	2.5	/experiments/knapen_aot/videos/S_ILSVRC2015_train_00322000.mp4	0.0	215.40679502487183	
43	125.80750489234924	movie	1		301.0	41.0	2.5	/experiments/knapen_aot/videos/S_ILSVRC2015_train_00322000.mp4	0.0	215.4150149822235	2.5083038806915283
43	128.31580877304077	fix_post	2		12.0	41.0	2.5	/experiments/knapen_aot/videos/S_ILSVRC2015_train_00322000.mp4	0.0	217.92331886291504	0.09997820854187012
44	128.41578698158264	fix_pre	0		45.0	42.0	2.5	blank	1.0	218.0232970714569	0.37502193450927734
44	128.78260779380798	response	0	2		42.0	2.5	blank	1.0	218.39011788368225	
44	128.79080891609192	movie	1		301.0	42.0	2.5	blank	1.0	218.3983190059662	2.5082619190216064
44	131.29907083511353	fix_post	2		12.0	42.0	2.5	blank	1.0	220.9065809249878	0.09998202323913574
45	131.39905285835266	fix_pre	0		40.0	43.0	2.5	/experiments/knapen_aot/videos/R_S_yt--cAfxH1WnPo_3.mp4	0.0	221.00656294822693	0.33331298828125
45	131.7166109085083	response	0	2		43.0	2.5	/experiments/knapen_aot/videos/R_S_yt--cAfxH1WnPo_3.mp4	0.0	221.32412099838257	
45	131.7323658466339	movie	1		301.0	43.0	2.5	/experiments/knapen_aot/videos/R_S_yt--cAfxH1WnPo_3.mp4	0.0	221.33987593650818	2.5083749294281006
45	134.240740776062	fix_post	2		12.0	43.0	2.5	/experiments/knapen_aot/videos/R_S_yt--cAfxH1WnPo_3.mp4	0.0	223.84825086593628	0.10003805160522461
46	134.34077882766724	fix_pre	0		59.0	44.0	2.5	/experiments/knapen_aot/videos/R_S_ILSVRC2015_train_00569002.mp4	0.0	223.9482889175415	0.4916231632232666
46	134.82414078712463	response	0	2		44.0	2.5	/experiments/knapen_aot/videos/R_S_ILSVRC2015_train_00569002.mp4	0.0	224.4316508769989	
46	134.8324019908905	movie	1		301.0	44.0	2.5	/experiments/knapen_aot/videos/R_S_ILSVRC2015_train_00569002.mp4	0.0	224.43991208076477	2.508354902267456
46	137.34075689315796	fix_post	2		12.0	44.0	2.5	/experiments/knapen_aot/videos/R_S_ILSVRC2015_train_00569002.mp4	0.0	226.94826698303223	0.0999610424041748
47	137.44071793556213	fix_pre	0		46.0	45.0	2.5	/experiments/knapen_aot/videos/R_S_yt-gmiyqQDGN78_7.mp4	0.0	227.0482280254364	0.38334107398986816
47	137.8158438205719	response	0	2		45.0	2.5	/experiments/knapen_aot/videos/R_S_yt-gmiyqQDGN78_7.mp4	0.0	227.42335391044617	
47	137.824059009552	movie	1		300.0	45.0	2.5	/experiments/knapen_aot/videos/R_S_yt-gmiyqQDGN78_7.mp4	0.0	227.43156909942627	2.5083699226379395
47	140.33242893218994	fix_post	2		12.0	45.0	2.5	/experiments/knapen_aot/videos/R_S_yt-gmiyqQDGN78_7.mp4	0.0	229.9399390220642	0.09998488426208496
48	140.43241381645203	fix_pre	0		34.0	46.0	2.5	/experiments/knapen_aot/videos/R_S_yt--koo4FOfZE0_86.mp4	0.0	230.0399239063263	0.28418517112731934
48	140.70753479003906	response	0	2		46.0	2.5	/experiments/knapen_aot/videos/R_S_yt--koo4FOfZE0_86.mp4	0.0	230.31504487991333	
48	140.71659898757935	movie	1		301.0	46.0	2.5	/experiments/knapen_aot/videos/R_S_yt--koo4FOfZE0_86.mp4	0.0	230.3241090774536	2.507457971572876
48	143.22405695915222	fix_post	2		12.0	46.0	2.5	/experiments/knapen_aot/videos/R_S_yt--koo4FOfZE0_86.mp4	0.0	232.8315670490265	0.10008502006530762
49	143.32414197921753	fix_pre	0		42.0	47.0	2.5	/experiments/knapen_aot/videos/R_S_comp_A351_C001_v06_SDR_PS_20180725_SDR_2K_AVC.mp4	0.0	232.9316520690918	0.35076093673706055
49	143.66583490371704	response	0	2		47.0	2.5	/experiments/knapen_aot/videos/R_S_comp_A351_C001_v06_SDR_PS_20180725_SDR_2K_AVC.mp4	0.0	233.2733449935913	
49	143.6749029159546	movie	1		165.0	47.0	2.5	/experiments/knapen_aot/videos/R_S_comp_A351_C001_v06_SDR_PS_20180725_SDR_2K_AVC.mp4	0.0	233.28241300582886	2.507493019104004
49	146.1823959350586	fix_post	2		12.0	47.0	2.5	/experiments/knapen_aot/videos/R_S_comp_A351_C001_v06_SDR_PS_20180725_SDR_2K_AVC.mp4	0.0	235.78990602493286	0.09999990463256836
50	146.28239583969116	fix_pre	0		64.0	48.0	2.5	blank	1.0	235.88990592956543	0.5333459377288818
50	146.80751991271973	response	0	2		48.0	2.5	blank	1.0	236.415030002594	
50	146.81574177742004	movie	1		301.0	48.0	2.5	blank	1.0	236.4232518672943	2.508303165435791
50	149.32404494285583	fix_post	2		12.0	48.0	2.5	blank	1.0	238.9315550327301	0.09997892379760742
51	149.42402386665344	fix_pre	0		84.0	49.0	2.5	/experiments/knapen_aot/videos/R_S_yt-yPl8LcgSMjo_32.mp4	0.0	239.0315339565277	0.700019121170044
51	150.11591792106628	response	0	2		49.0	2.5	/experiments/knapen_aot/videos/R_S_yt-yPl8LcgSMjo_32.mp4	0.0	239.72342801094055	
51	150.1240429878235	movie	1		301.0	49.0	2.5	/experiments/knapen_aot/videos/R_S_yt-yPl8LcgSMjo_32.mp4	0.0	239.73155307769775	2.5083179473876953
51	152.63236093521118	fix_post	2		12.0	49.0	2.5	/experiments/knapen_aot/videos/R_S_yt-yPl8LcgSMjo_32.mp4	0.0	242.23987102508545	0.1000509262084961
52	152.73241186141968	fix_pre	0		38.0	50.0	2.5	/experiments/knapen_aot/videos/R_S_production_ID_3943334.mp4	0.0	242.33992195129395	0.3173689842224121
52	153.04082679748535	response	0	2		50.0	2.5	/experiments/knapen_aot/videos/R_S_production_ID_3943334.mp4	0.0	242.64833688735962	
52	153.0497808456421	movie	1		184.0	50.0	2.5	/experiments/knapen_aot/videos/R_S_production_ID_3943334.mp4	0.0	242.65729093551636	2.5075860023498535
52	155.55736684799194	fix_post	2		12.0	50.0	2.5	/experiments/knapen_aot/videos/R_S_production_ID_3943334.mp4	0.0	245.1648769378662	0.09998106956481934
53	155.65734791755676	fix_pre	0		69.0	51.0	2.5	/experiments/knapen_aot/videos/R_S_yt-uXDyvrm0Tw0_17.mp4	0.0	245.26485800743103	0.5749950408935547
53	156.22413992881775	response	0	2		51.0	2.5	/experiments/knapen_aot/videos/R_S_yt-uXDyvrm0Tw0_17.mp4	0.0	245.83165001869202	
53	156.23234295845032	movie	1		301.0	51.0	2.5	/experiments/knapen_aot/videos/R_S_yt-uXDyvrm0Tw0_17.mp4	0.0	245.83985304832458	2.508291006088257
53	158.74063396453857	fix_post	2		12.0	51.0	2.5	/experiments/knapen_aot/videos/R_S_yt-uXDyvrm0Tw0_17.mp4	0.0	248.34814405441284	0.09997081756591797
54	158.8406047821045	fix_pre	0		35.0	52.0	2.5	/experiments/knapen_aot/videos/S_yt-mdxs8FCKLFc_232.mp4	0.0	248.44811487197876	0.2924160957336426
54	159.12405395507812	response	0	2		52.0	2.5	/experiments/knapen_aot/videos/S_yt-mdxs8FCKLFc_232.mp4	0.0	248.7315640449524	
54	159.13302087783813	movie	1		301.0	52.0	2.5	/experiments/knapen_aot/videos/S_yt-mdxs8FCKLFc_232.mp4	0.0	248.7405309677124	2.507601022720337
54	161.64062190055847	fix_post	2		12.0	52.0	2.5	/experiments/knapen_aot/videos/S_yt-mdxs8FCKLFc_232.mp4	0.0	251.24813199043274	0.09997701644897461
55	161.74059891700745	fix_pre	0		79.0	53.0	2.5	/experiments/knapen_aot/videos/S_yt-NQSCGMpo-p8_118.mp4	0.0	251.3481090068817	0.6583359241485596
55	162.39072179794312	response	0	2		53.0	2.5	/experiments/knapen_aot/videos/S_yt-NQSCGMpo-p8_118.mp4	0.0	251.99823188781738	
55	162.398934841156	movie	1		301.0	53.0	2.5	/experiments/knapen_aot/videos/S_yt-NQSCGMpo-p8_118.mp4	0.0	252.00644493103027	2.5083160400390625
55	164.90725088119507	fix_post	2		12.0	53.0	2.5	/experiments/knapen_aot/videos/S_yt-NQSCGMpo-p8_118.mp4	0.0	254.51476097106934	0.10007190704345703
56	165.00732278823853	fix_pre	0		80.0	54.0	2.5	/experiments/knapen_aot/videos/S_g201_TH_804_A001_8_SDR_20191031_SDR_2K_AVC.mp4	0.0	254.6148328781128	0.667288064956665
56	165.6657497882843	response	0	2		54.0	2.5	/experiments/knapen_aot/videos/S_g201_TH_804_A001_8_SDR_20191031_SDR_2K_AVC.mp4	0.0	255.27325987815857	
56	165.6746108531952	movie	1		163.0	54.0	2.5	/experiments/knapen_aot/videos/S_g201_TH_804_A001_8_SDR_20191031_SDR_2K_AVC.mp4	0.0	255.28212094306946	2.5076560974121094
56	168.1822669506073	fix_post	2		12.0	54.0	2.5	/experiments/knapen_aot/videos/S_g201_TH_804_A001_8_SDR_20191031_SDR_2K_AVC.mp4	0.0	257.78977704048157	0.09997296333312988
57	168.28223991394043	fix_pre	0		50.0	55.0	2.5	/experiments/knapen_aot/videos/R_S_yt--jzScB82vKI_212.mp4	0.0	257.8897500038147	0.416640043258667
57	168.6906499862671	response	0	2		55.0	2.5	/experiments/knapen_aot/videos/R_S_yt--jzScB82vKI_212.mp4	0.0	258.29816007614136	
57	168.6988799571991	movie	1		300.0	55.0	2.5	/experiments/knapen_aot/videos/R_S_yt--jzScB82vKI_212.mp4	0.0	258.30639004707336	2.5084879398345947
57	171.2073678970337	fix_post	2		12.0	55.0	2.5	/experiments/knapen_aot/videos/R_S_yt--jzScB82vKI_212.mp4	0.0	260.81487798690796	0.09986305236816406
58	171.30723094940186	fix_pre	0		256.0	56.0	2.5	blank	1.0	260.9147410392761	2.1332859992980957
58	173.43228483200073	response	0	2		56.0	2.5	blank	1.0	263.039794921875	
58	173.44051694869995	movie	1		301.0	56.0	2.5	blank	1.0	263.0480270385742	2.508373975753784
58	175.94889092445374	fix_post	2		12.0	56.0	2.5	blank	1.0	265.556401014328	0.09994101524353027
59	176.04883193969727	fix_pre	0		69.0	57.0	2.5	/experiments/knapen_aot/videos/R_S_yt-kXarkCFJLeg_46.mp4	0.0	265.65634202957153	0.5750439167022705
59	176.61570382118225	response	0	2		57.0	2.5	/experiments/knapen_aot/videos/R_S_yt-kXarkCFJLeg_46.mp4	0.0	266.2232139110565	
59	176.62387585639954	movie	1		301.0	57.0	2.5	/experiments/knapen_aot/videos/R_S_yt-kXarkCFJLeg_46.mp4	0.0	266.2313859462738	2.5083401203155518
59	179.1322159767151	fix_post	2		12.0	57.0	2.5	/experiments/knapen_aot/videos/R_S_yt-kXarkCFJLeg_46.mp4	0.0	268.73972606658936	0.09992289543151855
60	179.2321388721466	fix_pre	0		39.0	58.0	2.5	/experiments/knapen_aot/videos/S_yt-7v3kHYBe7-E_8.mp4	0.0	268.8396489620209	0.3249990940093994
60	179.54898595809937	response	0	2		58.0	2.5	/experiments/knapen_aot/videos/S_yt-7v3kHYBe7-E_8.mp4	0.0	269.15649604797363	
60	179.557137966156	movie	1		301.0	58.0	2.5	/experiments/knapen_aot/videos/S_yt-7v3kHYBe7-E_8.mp4	0.0	269.1646480560303	2.5084049701690674
60	182.06554293632507	fix_post	2		12.0	58.0	2.5	/experiments/knapen_aot/videos/S_yt-7v3kHYBe7-E_8.mp4	0.0	271.67305302619934	0.10000801086425781
61	182.16555094718933	fix_pre	0		72.0	59.0	2.5	/experiments/knapen_aot/videos/S_yt-LYnwnfi1JJ4_120.mp4	0.0	271.7730610370636	0.5999388694763184
61	182.7572808265686	response	0	2		59.0	2.5	/experiments/knapen_aot/videos/S_yt-LYnwnfi1JJ4_120.mp4	0.0	272.36479091644287	
61	182.76548981666565	movie	1		301.0	59.0	2.5	/experiments/knapen_aot/videos/S_yt-LYnwnfi1JJ4_120.mp4	0.0	272.3729999065399	2.508336067199707
61	185.27382588386536	fix_post	2		12.0	59.0	2.5	/experiments/knapen_aot/videos/S_yt-LYnwnfi1JJ4_120.mp4	0.0	274.8813359737396	0.10013699531555176
62	185.3739628791809	fix_pre	0		35.0	60.0	2.5	/experiments/knapen_aot/videos/S_ILSVRC2015_train_00303005.mp4	0.0	274.9814729690552	0.2915480136871338
62	185.65729880332947	response	0	2		60.0	2.5	/experiments/knapen_aot/videos/S_ILSVRC2015_train_00303005.mp4	0.0	275.26480889320374	
62	185.66551089286804	movie	1		299.0	60.0	2.5	/experiments/knapen_aot/videos/S_ILSVRC2015_train_00303005.mp4	0.0	275.2730209827423	2.5083510875701904
62	188.17386198043823	fix_post	2		12.0	60.0	2.5	/experiments/knapen_aot/videos/S_ILSVRC2015_train_00303005.mp4	0.0	277.7813720703125	0.09993600845336914
63	188.2737979888916	fix_pre	0		32.0	61.0	2.5	/experiments/knapen_aot/videos/R_S_yt-cBCeq1NQgj0_1129.mp4	0.0	277.88130807876587	0.2666938304901123
63	188.53237199783325	response	0	2		61.0	2.5	/experiments/knapen_aot/videos/R_S_yt-cBCeq1NQgj0_1129.mp4	0.0	278.1398820877075	
63	188.5404918193817	movie	1		301.0	61.0	2.5	/experiments/knapen_aot/videos/R_S_yt-cBCeq1NQgj0_1129.mp4	0.0	278.148001909256	2.5082671642303467
63	191.04875898361206	fix_post	2		12.0	61.0	2.5	/experiments/knapen_aot/videos/R_S_yt-cBCeq1NQgj0_1129.mp4	0.0	280.6562690734863	0.09999680519104004
64	191.1487557888031	fix_pre	0		43.0	62.0	2.5	/experiments/knapen_aot/videos/R_S_yt-PyO8-WsbaLU_43.mp4	0.0	280.75626587867737	0.3589670658111572
64	191.49895882606506	response	0	2		62.0	2.5	/experiments/knapen_aot/videos/R_S_yt-PyO8-WsbaLU_43.mp4	0.0	281.10646891593933	
64	191.50772285461426	movie	1		301.0	62.0	2.5	/experiments/knapen_aot/videos/R_S_yt-PyO8-WsbaLU_43.mp4	0.0	281.1152329444885	2.507683038711548
64	194.0154058933258	fix_post	2		12.0	62.0	2.5	/experiments/knapen_aot/videos/R_S_yt-PyO8-WsbaLU_43.mp4	0.0	283.6229159832001	0.10001492500305176
65	194.11542081832886	fix_pre	0		33.0	63.0	2.5	blank	1.0	283.7229309082031	0.2749300003051758
65	194.3822169303894	response	0	2		63.0	2.5	blank	1.0	283.9897270202637	
65	194.39035081863403	movie	1		301.0	63.0	2.5	blank	1.0	283.9978609085083	2.50839900970459
65	196.89874982833862	fix_post	2		12.0	63.0	2.5	blank	1.0	286.5062599182129	0.10001707077026367
66	196.9987668991089	fix_pre	0		34.0	64.0	2.5	/experiments/knapen_aot/videos/S_yt-TxU1H5A6BaQ_52.mp4	0.0	286.60627698898315	0.28334689140319824
66	197.27385592460632	response	0	2		64.0	2.5	/experiments/knapen_aot/videos/S_yt-TxU1H5A6BaQ_52.mp4	0.0	286.8813660144806	
66	197.28211379051208	movie	1		301.0	64.0	2.5	/experiments/knapen_aot/videos/S_yt-TxU1H5A6BaQ_52.mp4	0.0	286.88962388038635	2.508352041244507
66	199.7904658317566	fix_post	2		12.0	64.0	2.5	/experiments/knapen_aot/videos/S_yt-TxU1H5A6BaQ_52.mp4	0.0	289.39797592163086	0.0999460220336914
67	199.89041185379028	fix_pre	0		74.0	65.0	2.5	/experiments/knapen_aot/videos/S_yt-jYSri2JVUqo_1036.mp4	0.0	289.49792194366455	0.6172430515289307
67	200.49891996383667	response	0	2		65.0	2.5	/experiments/knapen_aot/videos/S_yt-jYSri2JVUqo_1036.mp4	0.0	290.10643005371094	
67	200.5076549053192	movie	1		301.0	65.0	2.5	/experiments/knapen_aot/videos/S_yt-jYSri2JVUqo_1036.mp4	0.0	290.1151649951935	2.507746934890747
67	203.01540184020996	fix_post	2		12.0	65.0	2.5	/experiments/knapen_aot/videos/S_yt-jYSri2JVUqo_1036.mp4	0.0	292.62291193008423	0.0999901294708252
68	203.1153919696808	fix_pre	0		61.0	66.0	2.5	/experiments/knapen_aot/videos/S_pexels-mikhail-nilov-8410088.mp4	0.0	292.72290205955505	0.5083708763122559
68	203.61549282073975	response	0	2		66.0	2.5	/experiments/knapen_aot/videos/S_pexels-mikhail-nilov-8410088.mp4	0.0	293.223002910614	
68	203.62376284599304	movie	1		163.0	66.0	2.5	/experiments/knapen_aot/videos/S_pexels-mikhail-nilov-8410088.mp4	0.0	293.2312729358673	2.508263111114502
68	206.13202595710754	fix_post	2		12.0	66.0	2.5	/experiments/knapen_aot/videos/S_pexels-mikhail-nilov-8410088.mp4	0.0	295.7395360469818	0.10011792182922363
69	206.23214387893677	fix_pre	0		39.0	67.0	2.5	/experiments/knapen_aot/videos/S_yt-UBqUhu-GEVg_6.mp4	0.0	295.83965396881104	0.3248291015625
69	206.5489490032196	response	0	2		67.0	2.5	/experiments/knapen_aot/videos/S_yt-UBqUhu-GEVg_6.mp4	0.0	296.1564590930939	
69	206.55697298049927	movie	1		301.0	67.0	2.5	/experiments/knapen_aot/videos/S_yt-UBqUhu-GEVg_6.mp4	0.0	296.16448307037354	2.5084688663482666
69	209.06544184684753	fix_post	2		12.0	67.0	2.5	/experiments/knapen_aot/videos/S_yt-UBqUhu-GEVg_6.mp4	0.0	298.6729519367218	0.09999394416809082
70	209.16543579101562	fix_pre	0		55.0	68.0	2.5	blank	1.0	298.7729458808899	0.4583280086517334
70	209.61559081077576	response	0	2		68.0	2.5	blank	1.0	299.22310090065	
70	209.62376379966736	movie	1		301.0	68.0	2.5	blank	1.0	299.2312738895416	2.508336067199707
70	212.13209986686707	fix_post	2		12.0	68.0	2.5	blank	1.0	301.73960995674133	0.09997892379760742
71	212.23207879066467	fix_pre	0		30.0	69.0	2.5	/experiments/knapen_aot/videos/R_S_yt-Ol4xuEA8xQc_776.mp4	0.0	301.83958888053894	0.24997901916503906
71	212.47386193275452	response	0	2		69.0	2.5	/experiments/knapen_aot/videos/R_S_yt-Ol4xuEA8xQc_776.mp4	0.0	302.0813720226288	
71	212.4820578098297	movie	1		301.0	69.0	2.5	/experiments/knapen_aot/videos/R_S_yt-Ol4xuEA8xQc_776.mp4	0.0	302.089567899704	2.5083420276641846
71	214.9903998374939	fix_post	2		12.0	69.0	2.5	/experiments/knapen_aot/videos/R_S_yt-Ol4xuEA8xQc_776.mp4	0.0	304.59790992736816	0.10002613067626953
72	215.09042596817017	fix_pre	0		45.0	70.0	2.5	/experiments/knapen_aot/videos/S_yt-83nimFMNhrM_131.mp4	0.0	304.69793605804443	0.3753829002380371
72	215.4572148323059	response	0	2		70.0	2.5	/experiments/knapen_aot/videos/S_yt-83nimFMNhrM_131.mp4	0.0	305.0647249221802	
72	215.4658088684082	movie	1		301.0	70.0	2.5	/experiments/knapen_aot/videos/S_yt-83nimFMNhrM_131.mp4	0.0	305.07331895828247	2.5078790187835693
72	217.97368788719177	fix_post	2		12.0	70.0	2.5	/experiments/knapen_aot/videos/S_yt-83nimFMNhrM_131.mp4	0.0	307.58119797706604	0.10003495216369629
73	218.07372283935547	fix_pre	0		53.0	71.0	2.5	/experiments/knapen_aot/videos/R_S_yt-5MyvZYFlc9g_125.mp4	0.0	307.68123292922974	0.4416360855102539
73	218.50721788406372	response	0	2		71.0	2.5	/experiments/knapen_aot/videos/R_S_yt-5MyvZYFlc9g_125.mp4	0.0	308.114727973938	
73	218.51535892486572	movie	1		301.0	71.0	2.5	/experiments/knapen_aot/videos/R_S_yt-5MyvZYFlc9g_125.mp4	0.0	308.12286901474	2.5083558559417725
73	221.0237147808075	fix_post	2		12.0	71.0	2.5	/experiments/knapen_aot/videos/R_S_yt-5MyvZYFlc9g_125.mp4	0.0	310.63122487068176	0.09998607635498047
74	221.12370085716248	fix_pre	0		49.0	72.0	2.5	/experiments/knapen_aot/videos/R_S_yt-eoASPwIAiHY_244.mp4	0.0	310.73121094703674	0.4083240032196045
74	221.52391290664673	response	0	2		72.0	2.5	/experiments/knapen_aot/videos/R_S_yt-eoASPwIAiHY_244.mp4	0.0	311.131422996521	
74	221.53202486038208	movie	1		301.0	72.0	2.5	/experiments/knapen_aot/videos/R_S_yt-eoASPwIAiHY_244.mp4	0.0	311.13953495025635	2.5083370208740234
74	224.0403618812561	fix_post	2		12.0	72.0	2.5	/experiments/knapen_aot/videos/R_S_yt-eoASPwIAiHY_244.mp4	0.0	313.64787197113037	0.10007095336914062
75	224.14043283462524	fix_pre	0		18.0	73.0	2.5	/experiments/knapen_aot/videos/R_S_bing-www_nbcnews_com_storyline_isis-terror_fall-isis-stronghold-raqqa-will-change-war-extremists-not-end-n808621_86.mp4	0.0	313.7479429244995	0.14993810653686523
75	224.28212881088257	response	0	2		73.0	2.5	/experiments/knapen_aot/videos/R_S_bing-www_nbcnews_com_storyline_isis-terror_fall-isis-stronghold-raqqa-will-change-war-extremists-not-end-n808621_86.mp4	0.0	313.88963890075684	
75	224.2903709411621	movie	1		166.0	73.0	2.5	/experiments/knapen_aot/videos/R_S_bing-www_nbcnews_com_storyline_isis-terror_fall-isis-stronghold-raqqa-will-change-war-extremists-not-end-n808621_86.mp4	0.0	313.8978810310364	2.5083069801330566
75	226.79867792129517	fix_post	2		12.0	73.0	2.5	/experiments/knapen_aot/videos/R_S_bing-www_nbcnews_com_storyline_isis-terror_fall-isis-stronghold-raqqa-will-change-war-extremists-not-end-n808621_86.mp4	0.0	316.40618801116943	0.09995198249816895
76	226.89862990379333	fix_pre	0		47.0	74.0	2.5	/experiments/knapen_aot/videos/S_yt-wz2opOBqClo_14.mp4	0.0	316.5061399936676	0.39171791076660156
76	227.28209400177002	response	0	2		74.0	2.5	/experiments/knapen_aot/videos/S_yt-wz2opOBqClo_14.mp4	0.0	316.8896040916443	
76	227.29034781455994	movie	1		301.0	74.0	2.5	/experiments/knapen_aot/videos/S_yt-wz2opOBqClo_14.mp4	0.0	316.8978579044342	2.5083301067352295
76	229.79867792129517	fix_post	2		12.0	74.0	2.5	/experiments/knapen_aot/videos/S_yt-wz2opOBqClo_14.mp4	0.0	319.40618801116943	0.09999704360961914
77	229.89867496490479	fix_pre	0		60.0	75.0	2.5	blank	1.0	319.50618505477905	0.4999358654022217
77	230.39046597480774	response	0	2		75.0	2.5	blank	1.0	319.997976064682	
77	230.398610830307	movie	1		301.0	75.0	2.5	blank	1.0	320.0061209201813	2.5083179473876953
77	232.9069287776947	fix_post	2		12.0	75.0	2.5	blank	1.0	322.51443886756897	0.10004305839538574
78	233.0069718360901	fix_pre	0		36.0	76.0	2.5	/experiments/knapen_aot/videos/S_yt-T7RmOAme5dU_213.mp4	0.0	322.61448192596436	0.2999999523162842
78	233.29879188537598	response	0	2		76.0	2.5	/experiments/knapen_aot/videos/S_yt-T7RmOAme5dU_213.mp4	0.0	322.90630197525024	
78	233.30697178840637	movie	1		301.0	76.0	2.5	/experiments/knapen_aot/videos/S_yt-T7RmOAme5dU_213.mp4	0.0	322.91448187828064	2.5083701610565186
78	235.8153419494629	fix_post	2		12.0	76.0	2.5	/experiments/knapen_aot/videos/S_yt-T7RmOAme5dU_213.mp4	0.0	325.42285203933716	0.0999898910522461
79	235.91533184051514	fix_pre	0		28.0	77.0	2.5	/experiments/knapen_aot/videos/R_S_production_ID_4325591.mp4	0.0	325.5228419303894	0.23328208923339844
79	236.14047384262085	response	0	2		77.0	2.5	/experiments/knapen_aot/videos/R_S_production_ID_4325591.mp4	0.0	325.7479839324951	
79	236.14861392974854	movie	1		207.0	77.0	2.5	/experiments/knapen_aot/videos/R_S_production_ID_4325591.mp4	0.0	325.7561240196228	2.508380889892578
79	238.6569948196411	fix_post	2		12.0	77.0	2.5	/experiments/knapen_aot/videos/R_S_production_ID_4325591.mp4	0.0	328.2645049095154	0.09999203681945801
80	238.75698685646057	fix_pre	0		58.0	78.0	2.5	/experiments/knapen_aot/videos/S_flickr-53807584@N00-5565833509_7.mp4	0.0	328.36449694633484	0.4846310615539551
80	239.23211288452148	response	0	2		78.0	2.5	/experiments/knapen_aot/videos/S_flickr-53807584@N00-5565833509_7.mp4	0.0	328.83962297439575	
80	239.24161791801453	movie	1		301.0	78.0	2.5	/experiments/knapen_aot/videos/S_flickr-53807584@N00-5565833509_7.mp4	0.0	328.8491280078888	2.5069949626922607
80	241.7486128807068	fix_post	2		12.0	78.0	2.5	/experiments/knapen_aot/videos/S_flickr-53807584@N00-5565833509_7.mp4	0.0	331.35612297058105	0.09996604919433594
81	241.84857892990112	fix_pre	0		48.0	79.0	2.5	/experiments/knapen_aot/videos/R_S_pexels-kampus-production-6022792.mp4	0.0	331.4560890197754	0.39999985694885254
81	242.24042677879333	response	0	2		79.0	2.5	/experiments/knapen_aot/videos/R_S_pexels-kampus-production-6022792.mp4	0.0	331.8479368686676	
81	242.24857878684998	movie	1		161.0	79.0	2.5	/experiments/knapen_aot/videos/R_S_pexels-kampus-production-6022792.mp4	0.0	331.85608887672424	2.5083141326904297
81	244.7568929195404	fix_post	2		12.0	79.0	2.5	/experiments/knapen_aot/videos/R_S_pexels-kampus-production-6022792.mp4	0.0	334.3644030094147	0.09995102882385254
82	244.85684394836426	fix_pre	0		63.0	80.0	2.5	/experiments/knapen_aot/videos/R_S_production_ID_5139371.mp4	0.0	334.4643540382385	0.5253839492797852
82	245.37369680404663	response	0	2		80.0	2.5	/experiments/knapen_aot/videos/R_S_production_ID_5139371.mp4	0.0	334.9812068939209	
82	245.38222789764404	movie	1		164.0	80.0	2.5	/experiments/knapen_aot/videos/R_S_production_ID_5139371.mp4	0.0	334.9897379875183	2.50803804397583
82	247.89026594161987	fix_post	2		12.0	80.0	2.5	/experiments/knapen_aot/videos/R_S_production_ID_5139371.mp4	0.0	337.49777603149414	0.10002493858337402
83	247.99029088020325	fix_pre	0		28.0	81.0	2.5	/experiments/knapen_aot/videos/R_S_yt-mdxs8FCKLFc_232.mp4	0.0	337.5978009700775	0.23326396942138672
83	248.21541786193848	response	0	2		81.0	2.5	/experiments/knapen_aot/videos/R_S_yt-mdxs8FCKLFc_232.mp4	0.0	337.82292795181274	
83	248.22355484962463	movie	1		301.0	81.0	2.5	/experiments/knapen_aot/videos/R_S_yt-mdxs8FCKLFc_232.mp4	0.0	337.8310649394989	2.508355140686035
83	250.73190999031067	fix_post	2		12.0	81.0	2.5	/experiments/knapen_aot/videos/R_S_yt-mdxs8FCKLFc_232.mp4	0.0	340.33942008018494	0.09995889663696289
84	250.83186888694763	fix_pre	0		34.0	82.0	2.5	blank	1.0	340.4393789768219	0.28336596488952637
84	251.10701298713684	response	0	2		82.0	2.5	blank	1.0	340.7145230770111	
84	251.11523485183716	movie	1		301.0	82.0	2.5	blank	1.0	340.7227449417114	2.5083200931549072
84	253.62355494499207	fix_post	2		12.0	82.0	2.5	blank	1.0	343.23106503486633	0.10000395774841309
85	253.72355890274048	fix_pre	0		49.0	83.0	2.5	/experiments/knapen_aot/videos/S_pexels-anastasia-shuraeva-6014070.mp4	0.0	343.33106899261475	0.4085500240325928
85	254.1236629486084	response	0	2		83.0	2.5	/experiments/knapen_aot/videos/S_pexels-anastasia-shuraeva-6014070.mp4	0.0	343.73117303848267	
85	254.13210892677307	movie	1		201.0	83.0	2.5	/experiments/knapen_aot/videos/S_pexels-anastasia-shuraeva-6014070.mp4	0.0	343.73961901664734	2.5080959796905518
85	256.6402049064636	fix_post	2		12.0	83.0	2.5	/experiments/knapen_aot/videos/S_pexels-anastasia-shuraeva-6014070.mp4	0.0	346.2477149963379	0.09999799728393555
87	256.74020290374756	stim	0		110.0					346.3477129936218	0.9196939468383789
87	257.65292382240295	response	0	space						347.2604339122772	
