trial_nr	onset	event_type	phase	response	nr_frames	movie_index	movie_duration	movie_file	blank	onset_abs	duration
0	0.12816405296325684	stim	0		37.0					55.67226314544678	0.3094511032104492
0	0.42830920219421387	response	0	space						55.972408294677734	
1	0.43761515617370605	stim	0		121.0					55.98171424865723	1.0069210529327393
1	1.3366219997406006	response	0	space						56.88072109222412	
1	1.4445362091064453	stim	1		120.0					56.988635301589966	0.9998347759246826
1	1.5862581729888916	response	1	space						57.13035726547241	
1	1.8695921897888184	response	1	space						57.41369128227234	
1	2.119547128677368	response	1	space						57.66364622116089	
1	2.4362192153930664	response	1	space						57.98031830787659	
2	2.444370985031128	fix_pre	0		48.0	0.0	2.5	/experiments/knapen_aot/videos/S_production_ID_4584682.mp4	0.0	57.98847007751465	0.40011119842529297
2	2.8362600803375244	response	0	space		0.0	2.5	/experiments/knapen_aot/videos/S_production_ID_4584682.mp4	0.0	58.380359172821045	
2	2.844482183456421	movie	1		163.0	0.0	2.5	/experiments/knapen_aot/videos/S_production_ID_4584682.mp4	0.0	58.38858127593994	2.5083138942718506
2	5.3527960777282715	fix_post	2		12.0	0.0	2.5	/experiments/knapen_aot/videos/S_production_ID_4584682.mp4	0.0	60.89689517021179	0.09998703002929688
3	5.452783107757568	fix_pre	0		59.0	1.0	2.5	/experiments/knapen_aot/videos/R_S_yt-Co4dzHwupRM_18.mp4	0.0	60.99688220024109	0.4916698932647705
3	5.9392311573028564	response	0	2		1.0	2.5	/experiments/knapen_aot/videos/R_S_yt-Co4dzHwupRM_18.mp4	0.0	61.48333024978638	
3	5.944453001022339	movie	1		298.0	1.0	2.5	/experiments/knapen_aot/videos/R_S_yt-Co4dzHwupRM_18.mp4	0.0	61.48855209350586	2.508342981338501
3	8.45279598236084	fix_post	2		12.0	1.0	2.5	/experiments/knapen_aot/videos/R_S_yt-Co4dzHwupRM_18.mp4	0.0	63.99689507484436	0.0999460220336914
4	8.552742004394531	fix_pre	0		43.0	2.0	2.5	/experiments/knapen_aot/videos/R_S_yt-v9WGfC67DPk_50.mp4	0.0	64.09684109687805	0.3585190773010254
4	8.902888059616089	response	0	2		2.0	2.5	/experiments/knapen_aot/videos/R_S_yt-v9WGfC67DPk_50.mp4	0.0	64.44698715209961	
4	8.911261081695557	movie	1		301.0	2.0	2.5	/experiments/knapen_aot/videos/R_S_yt-v9WGfC67DPk_50.mp4	0.0	64.45536017417908	2.5081779956817627
4	11.41943907737732	fix_post	2		12.0	2.0	2.5	/experiments/knapen_aot/videos/R_S_yt-v9WGfC67DPk_50.mp4	0.0	66.96353816986084	0.09995794296264648
5	11.519397020339966	fix_pre	0		41.0	3.0	2.5	/experiments/knapen_aot/videos/S_yt-7e6Z9QQieAk_183.mp4	0.0	67.06349611282349	0.3416941165924072
5	11.85289216041565	response	0	2		3.0	2.5	/experiments/knapen_aot/videos/S_yt-7e6Z9QQieAk_183.mp4	0.0	67.39699125289917	
5	11.861091136932373	movie	1		301.0	3.0	2.5	/experiments/knapen_aot/videos/S_yt-7e6Z9QQieAk_183.mp4	0.0	67.4051902294159	2.5083389282226562
5	14.36943006515503	fix_post	2		12.0	3.0	2.5	/experiments/knapen_aot/videos/S_yt-7e6Z9QQieAk_183.mp4	0.0	69.91352915763855	0.09995293617248535
6	14.469383001327515	fix_pre	0		55.0	4.0	2.5	/experiments/knapen_aot/videos/R_S_Xq0a2BWE3zA_53.mp4	0.0	70.01348209381104	0.45830702781677246
6	14.919532060623169	response	0	2		4.0	2.5	/experiments/knapen_aot/videos/R_S_Xq0a2BWE3zA_53.mp4	0.0	70.46363115310669	
6	14.927690029144287	movie	1		301.0	4.0	2.5	/experiments/knapen_aot/videos/R_S_Xq0a2BWE3zA_53.mp4	0.0	70.47178912162781	2.5085301399230957
6	17.436220169067383	fix_post	2		12.0	4.0	2.5	/experiments/knapen_aot/videos/R_S_Xq0a2BWE3zA_53.mp4	0.0	72.9803192615509	0.09993886947631836
7	17.5361590385437	fix_pre	0		35.0	5.0	2.5	/experiments/knapen_aot/videos/S_comp_A007_C017_01156B_v02_SDR_PS_20180925_SDR_2K_AVC.mp4	0.0	73.08025813102722	0.29154300689697266
7	17.819488048553467	response	0	2		5.0	2.5	/experiments/knapen_aot/videos/S_comp_A007_C017_01156B_v02_SDR_PS_20180925_SDR_2K_AVC.mp4	0.0	73.36358714103699	
7	17.827702045440674	movie	1		165.0	5.0	2.5	/experiments/knapen_aot/videos/S_comp_A007_C017_01156B_v02_SDR_PS_20180925_SDR_2K_AVC.mp4	0.0	73.3718011379242	2.5083460807800293
7	20.336048126220703	fix_post	2		12.0	5.0	2.5	/experiments/knapen_aot/videos/S_comp_A007_C017_01156B_v02_SDR_PS_20180925_SDR_2K_AVC.mp4	0.0	75.88014721870422	0.10002708435058594
8	20.43607521057129	fix_pre	0		58.0	6.0	2.5	blank	1.0	75.98017430305481	0.48328280448913574
8	20.911187171936035	response	0	2		6.0	2.5	blank	1.0	76.45528626441956	
8	20.919358015060425	movie	1		301.0	6.0	2.5	blank	1.0	76.46345710754395	2.5083470344543457
8	23.42770504951477	fix_post	2		12.0	6.0	2.5	blank	1.0	78.97180414199829	0.1000051498413086
9	23.52771019935608	fix_pre	0		42.0	7.0	2.5	/experiments/knapen_aot/videos/S_yt-1sn8u-rQRas_7.mp4	0.0	79.0718092918396	0.349931001663208
9	23.86942720413208	response	0	2		7.0	2.5	/experiments/knapen_aot/videos/S_yt-1sn8u-rQRas_7.mp4	0.0	79.4135262966156	
9	23.877641201019287	movie	1		301.0	7.0	2.5	/experiments/knapen_aot/videos/S_yt-1sn8u-rQRas_7.mp4	0.0	79.42174029350281	2.5086288452148438
9	26.38627004623413	fix_post	2		12.0	7.0	2.5	/experiments/knapen_aot/videos/S_yt-1sn8u-rQRas_7.mp4	0.0	81.93036913871765	0.09979414939880371
10	26.486064195632935	fix_pre	0		37.0	8.0	2.5	/experiments/knapen_aot/videos/R_S_yt-mQRzWCcKOR8_28.mp4	0.0	82.03016328811646	0.3082308769226074
10	26.786118030548096	response	0	2		8.0	2.5	/experiments/knapen_aot/videos/R_S_yt-mQRzWCcKOR8_28.mp4	0.0	82.33021712303162	
10	26.794295072555542	movie	1		301.0	8.0	2.5	/experiments/knapen_aot/videos/R_S_yt-mQRzWCcKOR8_28.mp4	0.0	82.33839416503906	2.508357048034668
10	29.30265212059021	fix_post	2		12.0	8.0	2.5	/experiments/knapen_aot/videos/R_S_yt-mQRzWCcKOR8_28.mp4	0.0	84.84675121307373	0.09998106956481934
11	29.40263319015503	fix_pre	0		31.0	9.0	2.5	/experiments/knapen_aot/videos/R_S_video_inspire_california_vineyard_sierra-mar_sunrise_110.1080-h264.mp4	0.0	84.94673228263855	0.25833702087402344
11	29.652793169021606	response	0	2		9.0	2.5	/experiments/knapen_aot/videos/R_S_video_inspire_california_vineyard_sierra-mar_sunrise_110.1080-h264.mp4	0.0	85.19689226150513	
11	29.660970211029053	movie	1		168.0	9.0	2.5	/experiments/knapen_aot/videos/R_S_video_inspire_california_vineyard_sierra-mar_sunrise_110.1080-h264.mp4	0.0	85.20506930351257	2.508441925048828
11	32.16941213607788	fix_post	2		12.0	9.0	2.5	/experiments/knapen_aot/videos/R_S_video_inspire_california_vineyard_sierra-mar_sunrise_110.1080-h264.mp4	0.0	87.7135112285614	0.09987092018127441
12	32.269283056259155	fix_pre	0		34.0	10.0	2.5	/experiments/knapen_aot/videos/S_yt-fk-z6WCvjjA_3.mp4	0.0	87.81338214874268	0.2833249568939209
12	32.544485092163086	response	0	2		10.0	2.5	/experiments/knapen_aot/videos/S_yt-fk-z6WCvjjA_3.mp4	0.0	88.0885841846466	
12	32.552608013153076	movie	1		301.0	10.0	2.5	/experiments/knapen_aot/videos/S_yt-fk-z6WCvjjA_3.mp4	0.0	88.0967071056366	2.5083820819854736
12	35.06099009513855	fix_post	2		12.0	10.0	2.5	/experiments/knapen_aot/videos/S_yt-fk-z6WCvjjA_3.mp4	0.0	90.60508918762207	0.0999760627746582
13	35.16096615791321	fix_pre	0		47.0	11.0	2.5	/experiments/knapen_aot/videos/S_yt-qycUhA3Isjg_76.mp4	0.0	90.70506525039673	0.39162397384643555
13	35.54444217681885	response	0	2		11.0	2.5	/experiments/knapen_aot/videos/S_yt-qycUhA3Isjg_76.mp4	0.0	91.08854126930237	
13	35.552590131759644	movie	1		301.0	11.0	2.5	/experiments/knapen_aot/videos/S_yt-qycUhA3Isjg_76.mp4	0.0	91.09668922424316	2.5085649490356445
13	38.06115508079529	fix_post	2		12.0	11.0	2.5	/experiments/knapen_aot/videos/S_yt-qycUhA3Isjg_76.mp4	0.0	93.60525417327881	0.09983301162719727
14	38.160988092422485	fix_pre	0		49.0	12.0	2.5	/experiments/knapen_aot/videos/R_S_pexels-ron-lach-8071987.mp4	0.0	93.705087184906	0.4082911014556885
14	38.56118607521057	response	0	2		12.0	2.5	/experiments/knapen_aot/videos/R_S_pexels-ron-lach-8071987.mp4	0.0	94.10528516769409	
14	38.569279193878174	movie	1		196.0	12.0	2.5	/experiments/knapen_aot/videos/R_S_pexels-ron-lach-8071987.mp4	0.0	94.1133782863617	2.508340835571289
14	41.07762002944946	fix_post	2		12.0	12.0	2.5	/experiments/knapen_aot/videos/R_S_pexels-ron-lach-8071987.mp4	0.0	96.62171912193298	0.10001516342163086
15	41.177635192871094	fix_pre	0		33.0	13.0	2.5	/experiments/knapen_aot/videos/S_pexels-rodnae-productions-5544703.mp4	0.0	96.72173428535461	0.27492499351501465
15	41.44435405731201	response	0	2		13.0	2.5	/experiments/knapen_aot/videos/S_pexels-rodnae-productions-5544703.mp4	0.0	96.98845314979553	
15	41.45256018638611	movie	1		166.0	13.0	2.5	/experiments/knapen_aot/videos/S_pexels-rodnae-productions-5544703.mp4	0.0	96.99665927886963	2.5084228515625
15	43.96098303794861	fix_post	2		12.0	13.0	2.5	/experiments/knapen_aot/videos/S_pexels-rodnae-productions-5544703.mp4	0.0	99.50508213043213	0.09996294975280762
16	44.060945987701416	fix_pre	0		62.0	14.0	2.5	blank	1.0	99.60504508018494	0.5166161060333252
16	44.569334983825684	response	0	2		14.0	2.5	blank	1.0	100.1134340763092	
16	44.57756209373474	movie	1		301.0	14.0	2.5	blank	1.0	100.12166118621826	2.508366107940674
16	47.085928201675415	fix_post	2		12.0	14.0	2.5	blank	1.0	102.63002729415894	0.10001087188720703
17	47.18593907356262	fix_pre	0		76.0	15.0	2.5	/experiments/knapen_aot/videos/S_OdxWh1oU8e8_1.mp4	0.0	102.73003816604614	0.6332509517669678
17	47.8109610080719	response	0	2		15.0	2.5	/experiments/knapen_aot/videos/S_OdxWh1oU8e8_1.mp4	0.0	103.35506010055542	
17	47.81919002532959	movie	1		301.0	15.0	2.5	/experiments/knapen_aot/videos/S_OdxWh1oU8e8_1.mp4	0.0	103.36328911781311	2.5083930492401123
17	50.3275830745697	fix_post	2		12.0	15.0	2.5	/experiments/knapen_aot/videos/S_OdxWh1oU8e8_1.mp4	0.0	105.87168216705322	0.10009193420410156
18	50.427675008773804	fix_pre	0		31.0	16.0	2.5	/experiments/knapen_aot/videos/R_S_yt-83nimFMNhrM_131.mp4	0.0	105.97177410125732	0.25896310806274414
18	50.677733182907104	response	0	2		16.0	2.5	/experiments/knapen_aot/videos/R_S_yt-83nimFMNhrM_131.mp4	0.0	106.22183227539062	
18	50.68663811683655	movie	1		301.0	16.0	2.5	/experiments/knapen_aot/videos/R_S_yt-83nimFMNhrM_131.mp4	0.0	106.23073720932007	2.5075159072875977
18	53.194154024124146	fix_post	2		12.0	16.0	2.5	/experiments/knapen_aot/videos/R_S_yt-83nimFMNhrM_131.mp4	0.0	108.73825311660767	0.10007810592651367
19	53.29423213005066	fix_pre	0		71.0	17.0	2.5	/experiments/knapen_aot/videos/S_comp_N008_C003_PS_v01_SDR_PS_20180925_SDR_2K_AVC.mp4	0.0	108.83833122253418	0.5916059017181396
19	53.87768602371216	response	0	2		17.0	2.5	/experiments/knapen_aot/videos/S_comp_N008_C003_PS_v01_SDR_PS_20180925_SDR_2K_AVC.mp4	0.0	109.42178511619568	
19	53.8858380317688	movie	1		163.0	17.0	2.5	/experiments/knapen_aot/videos/S_comp_N008_C003_PS_v01_SDR_PS_20180925_SDR_2K_AVC.mp4	0.0	109.42993712425232	2.5085201263427734
19	56.39435815811157	fix_post	2		12.0	17.0	2.5	/experiments/knapen_aot/videos/S_comp_N008_C003_PS_v01_SDR_PS_20180925_SDR_2K_AVC.mp4	0.0	111.93845725059509	0.09985685348510742
20	56.49421501159668	fix_pre	0		41.0	18.0	2.5	/experiments/knapen_aot/videos/S_yt--vHa85DHvLU_31.mp4	0.0	112.0383141040802	0.3416280746459961
20	56.827614068984985	response	0	2		18.0	2.5	/experiments/knapen_aot/videos/S_yt--vHa85DHvLU_31.mp4	0.0	112.3717131614685	
20	56.835843086242676	movie	1		301.0	18.0	2.5	/experiments/knapen_aot/videos/S_yt--vHa85DHvLU_31.mp4	0.0	112.3799421787262	2.5084340572357178
20	59.344277143478394	fix_post	2		12.0	18.0	2.5	/experiments/knapen_aot/videos/S_yt--vHa85DHvLU_31.mp4	0.0	114.88837623596191	0.10000491142272949
21	59.44428205490112	fix_pre	0		65.0	19.0	2.5	/experiments/knapen_aot/videos/S_yt-WASlRH1zA8c_175.mp4	0.0	114.98838114738464	0.541546106338501
21	59.97758913040161	response	0	2		19.0	2.5	/experiments/knapen_aot/videos/S_yt-WASlRH1zA8c_175.mp4	0.0	115.52168822288513	
21	59.985828161239624	movie	1		301.0	19.0	2.5	/experiments/knapen_aot/videos/S_yt-WASlRH1zA8c_175.mp4	0.0	115.52992725372314	2.5084500312805176
21	62.49427819252014	fix_post	2		12.0	19.0	2.5	/experiments/knapen_aot/videos/S_yt-WASlRH1zA8c_175.mp4	0.0	118.03837728500366	0.10010099411010742
22	62.59437918663025	fix_pre	0		72.0	20.0	2.5	/experiments/knapen_aot/videos/S_yt-tX3slAQb9yY_13.mp4	0.0	118.13847827911377	0.599869966506958
22	63.18597412109375	response	0	2		20.0	2.5	/experiments/knapen_aot/videos/S_yt-tX3slAQb9yY_13.mp4	0.0	118.73007321357727	
22	63.19424915313721	movie	1		301.0	20.0	2.5	/experiments/knapen_aot/videos/S_yt-tX3slAQb9yY_13.mp4	0.0	118.73834824562073	2.5082499980926514
22	65.70249915122986	fix_post	2		12.0	20.0	2.5	/experiments/knapen_aot/videos/S_yt-tX3slAQb9yY_13.mp4	0.0	121.24659824371338	0.09997296333312988
23	65.80247211456299	fix_pre	0		57.0	21.0	2.5	blank	1.0	121.34657120704651	0.4749150276184082
23	66.26166200637817	response	0	2		21.0	2.5	blank	1.0	121.8057610988617	
23	66.2773871421814	movie	1		301.0	21.0	2.5	blank	1.0	121.82148623466492	2.508568048477173
23	68.78595519065857	fix_post	2		12.0	21.0	2.5	blank	1.0	124.33005428314209	0.09988284111022949
24	68.8858380317688	fix_pre	0		83.0	22.0	2.5	/experiments/knapen_aot/videos/S_wc-AyT9mzwZsu0T_14.mp4	0.0	124.42993712425232	0.6915371417999268
24	69.56931805610657	response	0	2		22.0	2.5	/experiments/knapen_aot/videos/S_wc-AyT9mzwZsu0T_14.mp4	0.0	125.11341714859009	
24	69.57737517356873	movie	1		168.0	22.0	2.5	/experiments/knapen_aot/videos/S_wc-AyT9mzwZsu0T_14.mp4	0.0	125.12147426605225	2.5086569786071777
24	72.0860321521759	fix_post	2		12.0	22.0	2.5	/experiments/knapen_aot/videos/S_wc-AyT9mzwZsu0T_14.mp4	0.0	127.63013124465942	0.0997929573059082
25	72.18582510948181	fix_pre	0		77.0	23.0	2.5	/experiments/knapen_aot/videos/S_WCwb-DeQOSg_85.mp4	0.0	127.72992420196533	0.6416070461273193
25	72.81928420066833	response	0	2		23.0	2.5	/experiments/knapen_aot/videos/S_WCwb-DeQOSg_85.mp4	0.0	128.36338329315186	
25	72.82743215560913	movie	1		300.0	23.0	2.5	/experiments/knapen_aot/videos/S_WCwb-DeQOSg_85.mp4	0.0	128.37153124809265	2.508302927017212
25	75.33573508262634	fix_post	2		12.0	23.0	2.5	/experiments/knapen_aot/videos/S_WCwb-DeQOSg_85.mp4	0.0	130.87983417510986	0.10008406639099121
26	75.43581914901733	fix_pre	0		31.0	24.0	2.5	/experiments/knapen_aot/videos/R_S_yt-Co4dzHwupRM_18.mp4	0.0	130.97991824150085	0.2582979202270508
26	75.68588399887085	response	0	2		24.0	2.5	/experiments/knapen_aot/videos/R_S_yt-Co4dzHwupRM_18.mp4	0.0	131.22998309135437	
26	75.69411706924438	movie	1		301.0	24.0	2.5	/experiments/knapen_aot/videos/R_S_yt-Co4dzHwupRM_18.mp4	0.0	131.2382161617279	2.508312940597534
26	78.20243000984192	fix_post	2		12.0	24.0	2.5	/experiments/knapen_aot/videos/R_S_yt-Co4dzHwupRM_18.mp4	0.0	133.74652910232544	0.0999751091003418
27	78.30240511894226	fix_pre	0		41.0	25.0	2.5	/experiments/knapen_aot/videos/R_S_AK_A004_C012_SDR_20191217_SDR_2K_AVC.mp4	0.0	133.84650421142578	0.3422679901123047
27	78.62846899032593	response	0	2		25.0	2.5	/experiments/knapen_aot/videos/R_S_AK_A004_C012_SDR_20191217_SDR_2K_AVC.mp4	0.0	134.17256808280945	
27	78.64467310905457	movie	1		167.0	25.0	2.5	/experiments/knapen_aot/videos/R_S_AK_A004_C012_SDR_20191217_SDR_2K_AVC.mp4	0.0	134.1887722015381	2.507781982421875
27	81.15245509147644	fix_post	2		12.0	25.0	2.5	/experiments/knapen_aot/videos/R_S_AK_A004_C012_SDR_20191217_SDR_2K_AVC.mp4	0.0	136.69655418395996	0.10010409355163574
28	81.25255918502808	fix_pre	0		40.0	26.0	2.5	blank	1.0	136.7966582775116	0.33311986923217773
28	81.57751607894897	response	0	2		26.0	2.5	blank	1.0	137.1216151714325	
28	81.58567905426025	movie	1		301.0	26.0	2.5	blank	1.0	137.12977814674377	2.508394956588745
28	84.094074010849	fix_post	2		12.0	26.0	2.5	blank	1.0	139.63817310333252	0.10007810592651367
29	84.19415211677551	fix_pre	0		39.0	27.0	2.5	/experiments/knapen_aot/videos/S_pexels-cottonbro-6789228.mp4	0.0	139.73825120925903	0.32536888122558594
29	84.51081609725952	response	0	2		27.0	2.5	/experiments/knapen_aot/videos/S_pexels-cottonbro-6789228.mp4	0.0	140.05491518974304	
29	84.5195209980011	movie	1		199.0	27.0	2.5	/experiments/knapen_aot/videos/S_pexels-cottonbro-6789228.mp4	0.0	140.06362009048462	2.5080010890960693
29	87.02752208709717	fix_post	2		12.0	27.0	2.5	/experiments/knapen_aot/videos/S_pexels-cottonbro-6789228.mp4	0.0	142.5716211795807	0.0999300479888916
30	87.12745213508606	fix_pre	0		56.0	28.0	2.5	/experiments/knapen_aot/videos/S_video_inspire_texas_pecos_foggy-landscape_00018.1080-h264.mp4	0.0	142.67155122756958	0.46666407585144043
30	87.585862159729	response	0	2		28.0	2.5	/experiments/knapen_aot/videos/S_video_inspire_texas_pecos_foggy-landscape_00018.1080-h264.mp4	0.0	143.12996125221252	
30	87.5941162109375	movie	1		165.0	28.0	2.5	/experiments/knapen_aot/videos/S_video_inspire_texas_pecos_foggy-landscape_00018.1080-h264.mp4	0.0	143.13821530342102	2.5083038806915283
30	90.10242009162903	fix_post	2		12.0	28.0	2.5	/experiments/knapen_aot/videos/S_video_inspire_texas_pecos_foggy-landscape_00018.1080-h264.mp4	0.0	145.64651918411255	0.10000491142272949
31	90.20242500305176	fix_pre	0		39.0	29.0	2.5	/experiments/knapen_aot/videos/S_wc-DcFDe419cL3d_17.mp4	0.0	145.74652409553528	0.32499003410339355
31	90.5191900730133	response	0	2		29.0	2.5	/experiments/knapen_aot/videos/S_wc-DcFDe419cL3d_17.mp4	0.0	146.06328916549683	
31	90.52741503715515	movie	1		163.0	29.0	2.5	/experiments/knapen_aot/videos/S_wc-DcFDe419cL3d_17.mp4	0.0	146.07151412963867	2.5082931518554688
31	93.03570818901062	fix_post	2		12.0	29.0	2.5	/experiments/knapen_aot/videos/S_wc-DcFDe419cL3d_17.mp4	0.0	148.57980728149414	0.09998083114624023
32	93.13568902015686	fix_pre	0		49.0	30.0	2.5	/experiments/knapen_aot/videos/R_S_yt-06XMUn9DTKc_35.mp4	0.0	148.67978811264038	0.40827298164367676
32	93.53590321540833	response	0	2		30.0	2.5	/experiments/knapen_aot/videos/R_S_yt-06XMUn9DTKc_35.mp4	0.0	149.08000230789185	
32	93.54396200180054	movie	1		301.0	30.0	2.5	/experiments/knapen_aot/videos/R_S_yt-06XMUn9DTKc_35.mp4	0.0	149.08806109428406	2.5083320140838623
32	96.0522940158844	fix_post	2		12.0	30.0	2.5	/experiments/knapen_aot/videos/R_S_yt-06XMUn9DTKc_35.mp4	0.0	151.59639310836792	0.10004019737243652
33	96.15233421325684	fix_pre	0		41.0	31.0	2.5	/experiments/knapen_aot/videos/S_wc-dwTccI0TNwps_15.mp4	0.0	151.69643330574036	0.34166789054870605
33	96.4858181476593	response	0	2		31.0	2.5	/experiments/knapen_aot/videos/S_wc-dwTccI0TNwps_15.mp4	0.0	152.02991724014282	
33	96.49400210380554	movie	1		301.0	31.0	2.5	/experiments/knapen_aot/videos/S_wc-dwTccI0TNwps_15.mp4	0.0	152.03810119628906	2.5083301067352295
33	99.00233221054077	fix_post	2		12.0	31.0	2.5	/experiments/knapen_aot/videos/S_wc-dwTccI0TNwps_15.mp4	0.0	154.5464313030243	0.10000777244567871
34	99.10233998298645	fix_pre	0		62.0	32.0	2.5	/experiments/knapen_aot/videos/R_S_yt-ol2u_-gd0-o_13.mp4	0.0	154.64643907546997	0.5166151523590088
34	99.60315608978271	response	0	2		32.0	2.5	/experiments/knapen_aot/videos/R_S_yt-ol2u_-gd0-o_13.mp4	0.0	155.14725518226624	
34	99.61895513534546	movie	1		301.0	32.0	2.5	/experiments/knapen_aot/videos/R_S_yt-ol2u_-gd0-o_13.mp4	0.0	155.16305422782898	2.5084378719329834
34	102.12739300727844	fix_post	2		12.0	32.0	2.5	/experiments/knapen_aot/videos/R_S_yt-ol2u_-gd0-o_13.mp4	0.0	157.67149209976196	0.099945068359375
35	102.22733807563782	fix_pre	0		43.0	33.0	2.5	/experiments/knapen_aot/videos/R_S_BO_A014_C008_SDR_20190719_SDR_2K_AVC.mp4	0.0	157.77143716812134	0.35825490951538086
35	102.56994009017944	response	0	2		33.0	2.5	/experiments/knapen_aot/videos/R_S_BO_A014_C008_SDR_20190719_SDR_2K_AVC.mp4	0.0	158.11403918266296	
35	102.5855929851532	movie	1		165.0	33.0	2.5	/experiments/knapen_aot/videos/R_S_BO_A014_C008_SDR_20190719_SDR_2K_AVC.mp4	0.0	158.12969207763672	2.5084481239318848
35	105.09404110908508	fix_post	2		12.0	33.0	2.5	/experiments/knapen_aot/videos/R_S_BO_A014_C008_SDR_20190719_SDR_2K_AVC.mp4	0.0	160.6381402015686	0.09988594055175781
36	105.19392704963684	fix_pre	0		36.0	34.0	2.5	blank	1.0	160.73802614212036	0.29998111724853516
36	105.48571610450745	response	0	2		34.0	2.5	blank	1.0	161.02981519699097	
36	105.49390816688538	movie	1		301.0	34.0	2.5	blank	1.0	161.0380072593689	2.5083940029144287
36	108.0023021697998	fix_post	2		12.0	34.0	2.5	blank	1.0	163.54640126228333	0.1000509262084961
37	108.1023530960083	fix_pre	0		70.0	35.0	2.5	/experiments/knapen_aot/videos/R_S_yt-9t5-3Qe_t9A_591.mp4	0.0	163.64645218849182	0.583636999130249
37	108.67740106582642	response	0	2		35.0	2.5	/experiments/knapen_aot/videos/R_S_yt-9t5-3Qe_t9A_591.mp4	0.0	164.22150015830994	
37	108.68599009513855	movie	1		301.0	35.0	2.5	/experiments/knapen_aot/videos/R_S_yt-9t5-3Qe_t9A_591.mp4	0.0	164.23008918762207	2.5079739093780518
37	111.1939640045166	fix_post	2		12.0	35.0	2.5	/experiments/knapen_aot/videos/R_S_yt-9t5-3Qe_t9A_591.mp4	0.0	166.73806309700012	0.09999418258666992
38	111.29395818710327	fix_pre	0		34.0	36.0	2.5	/experiments/knapen_aot/videos/R_S_yt-2jVJb1PR2XA_16.mp4	0.0	166.8380572795868	0.28333497047424316
38	111.56897711753845	response	0	2		36.0	2.5	/experiments/knapen_aot/videos/R_S_yt-2jVJb1PR2XA_16.mp4	0.0	167.11307621002197	
38	111.57729315757751	movie	1		301.0	36.0	2.5	/experiments/knapen_aot/videos/R_S_yt-2jVJb1PR2XA_16.mp4	0.0	167.12139225006104	2.5083260536193848
38	114.0856192111969	fix_post	2		12.0	36.0	2.5	/experiments/knapen_aot/videos/R_S_yt-2jVJb1PR2XA_16.mp4	0.0	169.62971830368042	0.10004496574401855
39	114.18566417694092	fix_pre	0		63.0	37.0	2.5	/experiments/knapen_aot/videos/S_ILSVRC2015_train_00450001.mp4	0.0	169.72976326942444	0.5249269008636475
39	114.70231509208679	response	0	2		37.0	2.5	/experiments/knapen_aot/videos/S_ILSVRC2015_train_00450001.mp4	0.0	170.2464141845703	
39	114.71059107780457	movie	1		301.0	37.0	2.5	/experiments/knapen_aot/videos/S_ILSVRC2015_train_00450001.mp4	0.0	170.2546901702881	2.5083301067352295
39	117.2189211845398	fix_post	2		12.0	37.0	2.5	/experiments/knapen_aot/videos/S_ILSVRC2015_train_00450001.mp4	0.0	172.76302027702332	0.10002899169921875
40	117.31895017623901	fix_pre	0		41.0	38.0	2.5	/experiments/knapen_aot/videos/S_3WAnGcPubBY_179.mp4	0.0	172.86304926872253	0.3416178226470947
40	117.65232014656067	response	0	2		38.0	2.5	/experiments/knapen_aot/videos/S_3WAnGcPubBY_179.mp4	0.0	173.1964192390442	
40	117.66056799888611	movie	1		301.0	38.0	2.5	/experiments/knapen_aot/videos/S_3WAnGcPubBY_179.mp4	0.0	173.20466709136963	2.5084891319274902
40	120.1690571308136	fix_post	2		12.0	38.0	2.5	/experiments/knapen_aot/videos/S_3WAnGcPubBY_179.mp4	0.0	175.71315622329712	0.09993600845336914
41	120.26899313926697	fix_pre	0		42.0	39.0	2.5	/experiments/knapen_aot/videos/R_S_yt-jcuaf9iSEkI_169.mp4	0.0	175.8130922317505	0.349869966506958
41	120.61068511009216	response	0	2		39.0	2.5	/experiments/knapen_aot/videos/R_S_yt-jcuaf9iSEkI_169.mp4	0.0	176.15478420257568	
41	120.61886310577393	movie	1		301.0	39.0	2.5	/experiments/knapen_aot/videos/R_S_yt-jcuaf9iSEkI_169.mp4	0.0	176.16296219825745	2.5083799362182617
41	123.12724304199219	fix_post	2		12.0	39.0	2.5	/experiments/knapen_aot/videos/R_S_yt-jcuaf9iSEkI_169.mp4	0.0	178.6713421344757	0.09997296333312988
42	123.22721600532532	fix_pre	0		57.0	40.0	2.5	/experiments/knapen_aot/videos/S_yt-GWO7FHN1Jb4_142.mp4	0.0	178.77131509780884	0.4749751091003418
42	123.69404411315918	response	0	2		40.0	2.5	/experiments/knapen_aot/videos/S_yt-GWO7FHN1Jb4_142.mp4	0.0	179.2381432056427	
42	123.70219111442566	movie	1		301.0	40.0	2.5	/experiments/knapen_aot/videos/S_yt-GWO7FHN1Jb4_142.mp4	0.0	179.24629020690918	2.5082690715789795
42	126.21046018600464	fix_post	2		12.0	40.0	2.5	/experiments/knapen_aot/videos/S_yt-GWO7FHN1Jb4_142.mp4	0.0	181.75455927848816	0.10006284713745117
43	126.31052303314209	fix_pre	0		56.0	41.0	2.5	/experiments/knapen_aot/videos/R_S_video_inspire_california_catalina_avalon_00053.1080-h264.mp4	0.0	181.8546221256256	0.46660900115966797
43	126.76902914047241	response	0	2		41.0	2.5	/experiments/knapen_aot/videos/R_S_video_inspire_california_catalina_avalon_00053.1080-h264.mp4	0.0	182.31312823295593	
43	126.77713203430176	movie	1		172.0	41.0	2.5	/experiments/knapen_aot/videos/R_S_video_inspire_california_catalina_avalon_00053.1080-h264.mp4	0.0	182.32123112678528	2.5085251331329346
43	129.2856571674347	fix_post	2		12.0	41.0	2.5	/experiments/knapen_aot/videos/R_S_video_inspire_california_catalina_avalon_00053.1080-h264.mp4	0.0	184.8297562599182	0.09988999366760254
44	129.3855471611023	fix_pre	0		58.0	42.0	2.5	blank	1.0	184.92964625358582	0.48330092430114746
44	129.86057710647583	response	0	2		42.0	2.5	blank	1.0	185.40467619895935	
44	129.86884808540344	movie	1		301.0	42.0	2.5	blank	1.0	185.41294717788696	2.5083279609680176
44	132.37717604637146	fix_post	2		12.0	42.0	2.5	blank	1.0	187.92127513885498	0.10036015510559082
45	132.47753620147705	fix_pre	0		60.0	43.0	2.5	/experiments/knapen_aot/videos/S_BO_A014_C008_SDR_20190719_SDR_2K_AVC.mp4	0.0	188.02163529396057	0.4998509883880615
45	132.9689221382141	response	0	2		43.0	2.5	/experiments/knapen_aot/videos/S_BO_A014_C008_SDR_20190719_SDR_2K_AVC.mp4	0.0	188.51302123069763	
45	132.9773871898651	movie	1		178.0	43.0	2.5	/experiments/knapen_aot/videos/S_BO_A014_C008_SDR_20190719_SDR_2K_AVC.mp4	0.0	188.52148628234863	2.5081028938293457
45	135.48549008369446	fix_post	2		12.0	43.0	2.5	/experiments/knapen_aot/videos/S_BO_A014_C008_SDR_20190719_SDR_2K_AVC.mp4	0.0	191.02958917617798	0.10001206398010254
46	135.58550214767456	fix_pre	0		53.0	44.0	2.5	/experiments/knapen_aot/videos/S_wc-AyT9mzwZsu0T_14.mp4	0.0	191.12960124015808	0.44165706634521484
46	136.01892399787903	response	0	2		44.0	2.5	/experiments/knapen_aot/videos/S_wc-AyT9mzwZsu0T_14.mp4	0.0	191.56302309036255	
46	136.02715921401978	movie	1		164.0	44.0	2.5	/experiments/knapen_aot/videos/S_wc-AyT9mzwZsu0T_14.mp4	0.0	191.5712583065033	2.5083718299865723
46	138.53553104400635	fix_post	2		12.0	44.0	2.5	/experiments/knapen_aot/videos/S_wc-AyT9mzwZsu0T_14.mp4	0.0	194.07963013648987	0.09998703002929688
47	138.63551807403564	fix_pre	0		31.0	45.0	2.5	/experiments/knapen_aot/videos/S_yt-7Ya-rGPO8cM_159.mp4	0.0	194.17961716651917	0.2591209411621094
47	138.8781180381775	response	0	2		45.0	2.5	/experiments/knapen_aot/videos/S_yt-7Ya-rGPO8cM_159.mp4	0.0	194.422217130661	
47	138.89463901519775	movie	1		301.0	45.0	2.5	/experiments/knapen_aot/videos/S_yt-7Ya-rGPO8cM_159.mp4	0.0	194.43873810768127	2.507601022720337
47	141.4022400379181	fix_post	2		12.0	45.0	2.5	/experiments/knapen_aot/videos/S_yt-7Ya-rGPO8cM_159.mp4	0.0	196.9463391304016	0.09993100166320801
48	141.5021710395813	fix_pre	0		42.0	46.0	2.5	/experiments/knapen_aot/videos/R_S_ILSVRC2015_train_00743005.mp4	0.0	197.04627013206482	0.3502011299133301
48	141.84399008750916	response	0	2		46.0	2.5	/experiments/knapen_aot/videos/R_S_ILSVRC2015_train_00743005.mp4	0.0	197.38808917999268	
48	141.85237216949463	movie	1		301.0	46.0	2.5	/experiments/knapen_aot/videos/R_S_ILSVRC2015_train_00743005.mp4	0.0	197.39647126197815	2.508208990097046
48	144.36058115959167	fix_post	2		12.0	46.0	2.5	/experiments/knapen_aot/videos/R_S_ILSVRC2015_train_00743005.mp4	0.0	199.9046802520752	0.09996891021728516
49	144.46055006980896	fix_pre	0		30.0	47.0	2.5	/experiments/knapen_aot/videos/R_S_comp_LA_A005_C009_PSNK_ALT_v09_SDR_PS_201809134_SDR_2K_AVC.mp4	0.0	200.00464916229248	0.24989604949951172
49	144.7022840976715	response	0	2		47.0	2.5	/experiments/knapen_aot/videos/R_S_comp_LA_A005_C009_PSNK_ALT_v09_SDR_PS_201809134_SDR_2K_AVC.mp4	0.0	200.24638319015503	
49	144.71044611930847	movie	1		168.0	47.0	2.5	/experiments/knapen_aot/videos/R_S_comp_LA_A005_C009_PSNK_ALT_v09_SDR_PS_201809134_SDR_2K_AVC.mp4	0.0	200.254545211792	2.5083279609680176
49	147.2187740802765	fix_post	2		12.0	47.0	2.5	/experiments/knapen_aot/videos/R_S_comp_LA_A005_C009_PSNK_ALT_v09_SDR_PS_201809134_SDR_2K_AVC.mp4	0.0	202.76287317276	0.10015201568603516
50	147.31892609596252	fix_pre	0		21.0	48.0	2.5	/experiments/knapen_aot/videos/S_yt-06XMUn9DTKc_35.mp4	0.0	202.86302518844604	0.17481207847595215
50	147.48560905456543	response	0	2		48.0	2.5	/experiments/knapen_aot/videos/S_yt-06XMUn9DTKc_35.mp4	0.0	203.02970814704895	
50	147.49373817443848	movie	1		301.0	48.0	2.5	/experiments/knapen_aot/videos/S_yt-06XMUn9DTKc_35.mp4	0.0	203.037837266922	2.508441925048828
50	150.0021800994873	fix_post	2		12.0	48.0	2.5	/experiments/knapen_aot/videos/S_yt-06XMUn9DTKc_35.mp4	0.0	205.54627919197083	0.10040497779846191
51	150.10258507728577	fix_pre	0		49.0	49.0	2.5	blank	1.0	205.6466841697693	0.40786194801330566
51	150.50223112106323	response	0	2		49.0	2.5	blank	1.0	206.04633021354675	
51	150.51044702529907	movie	1		301.0	49.0	2.5	blank	1.0	206.0545461177826	2.5085771083831787
51	153.01902413368225	fix_post	2		12.0	49.0	2.5	blank	1.0	208.56312322616577	0.09971499443054199
52	153.1187391281128	fix_pre	0		50.0	50.0	2.5	/experiments/knapen_aot/videos/R_S_I003_C004_SDR_2K_AVC.mp4	0.0	208.6628382205963	0.4165990352630615
52	153.52709698677063	response	0	2		50.0	2.5	/experiments/knapen_aot/videos/R_S_I003_C004_SDR_2K_AVC.mp4	0.0	209.07119607925415	
52	153.53533816337585	movie	1		169.0	50.0	2.5	/experiments/knapen_aot/videos/R_S_I003_C004_SDR_2K_AVC.mp4	0.0	209.07943725585938	2.5084869861602783
52	156.04382514953613	fix_post	2		12.0	50.0	2.5	/experiments/knapen_aot/videos/R_S_I003_C004_SDR_2K_AVC.mp4	0.0	211.58792424201965	0.10019302368164062
53	156.14401817321777	fix_pre	0		45.0	51.0	2.5	/experiments/knapen_aot/videos/R_S_yt-PREz5XiiXg0_107.mp4	0.0	211.6881172657013	0.3748769760131836
53	156.50304102897644	response	0	2		51.0	2.5	/experiments/knapen_aot/videos/R_S_yt-PREz5XiiXg0_107.mp4	0.0	212.04714012145996	
53	156.51889514923096	movie	1		301.0	51.0	2.5	/experiments/knapen_aot/videos/R_S_yt-PREz5XiiXg0_107.mp4	0.0	212.06299424171448	2.508100986480713
53	159.02699613571167	fix_post	2		12.0	51.0	2.5	/experiments/knapen_aot/videos/R_S_yt-PREz5XiiXg0_107.mp4	0.0	214.5710952281952	0.10015201568603516
54	159.1271481513977	fix_pre	0		48.0	52.0	2.5	/experiments/knapen_aot/videos/S_yt-XtzmBXKYEWk_60.mp4	0.0	214.67124724388123	0.39987683296203613
54	159.5113081932068	response	0	2		52.0	2.5	/experiments/knapen_aot/videos/S_yt-XtzmBXKYEWk_60.mp4	0.0	215.0554072856903	
54	159.52702498435974	movie	1		301.0	52.0	2.5	/experiments/knapen_aot/videos/S_yt-XtzmBXKYEWk_60.mp4	0.0	215.07112407684326	2.5083391666412354
54	162.03536415100098	fix_post	2		12.0	52.0	2.5	/experiments/knapen_aot/videos/S_yt-XtzmBXKYEWk_60.mp4	0.0	217.5794632434845	0.10001897811889648
55	162.13538312911987	fix_pre	0		66.0	53.0	2.5	/experiments/knapen_aot/videos/R_S_Y009_C015_SDR_2K_AVC.mp4	0.0	217.6794822216034	0.5500550270080566
55	162.67718410491943	response	0	2		53.0	2.5	/experiments/knapen_aot/videos/R_S_Y009_C015_SDR_2K_AVC.mp4	0.0	218.22128319740295	
55	162.68543815612793	movie	1		176.0	53.0	2.5	/experiments/knapen_aot/videos/R_S_Y009_C015_SDR_2K_AVC.mp4	0.0	218.22953724861145	2.508288860321045
55	165.19372701644897	fix_post	2		12.0	53.0	2.5	/experiments/knapen_aot/videos/R_S_Y009_C015_SDR_2K_AVC.mp4	0.0	220.7378261089325	0.1000211238861084
56	165.29374814033508	fix_pre	0		69.0	54.0	2.5	/experiments/knapen_aot/videos/R_S_yt-Fdv-V--QlR0_117.mp4	0.0	220.8378472328186	0.5749459266662598
56	165.8605020046234	response	0	2		54.0	2.5	/experiments/knapen_aot/videos/R_S_yt-Fdv-V--QlR0_117.mp4	0.0	221.40460109710693	
56	165.86869406700134	movie	1		301.0	54.0	2.5	/experiments/knapen_aot/videos/R_S_yt-Fdv-V--QlR0_117.mp4	0.0	221.41279315948486	2.508355140686035
56	168.37704920768738	fix_post	2		12.0	54.0	2.5	/experiments/knapen_aot/videos/R_S_yt-Fdv-V--QlR0_117.mp4	0.0	223.9211483001709	0.10022187232971191
57	168.4772710800171	fix_pre	0		91.0	55.0	2.5	blank	1.0	224.0213701725006	0.7580859661102295
57	169.22722101211548	response	0	2		55.0	2.5	blank	1.0	224.771320104599	
57	169.23535704612732	movie	1		301.0	55.0	2.5	blank	1.0	224.77945613861084	2.508305072784424
57	171.74366211891174	fix_post	2		12.0	55.0	2.5	blank	1.0	227.28776121139526	0.10003495216369629
58	171.84369707107544	fix_pre	0		88.0	56.0	2.5	/experiments/knapen_aot/videos/R_S_yt-WrwPgZYBXlA_34.mp4	0.0	227.38779616355896	0.7332971096038818
58	172.5688190460205	response	0	2		56.0	2.5	/experiments/knapen_aot/videos/R_S_yt-WrwPgZYBXlA_34.mp4	0.0	228.11291813850403	
58	172.57699418067932	movie	1		301.0	56.0	2.5	/experiments/knapen_aot/videos/R_S_yt-WrwPgZYBXlA_34.mp4	0.0	228.12109327316284	2.5083580017089844
58	175.0853521823883	fix_post	2		12.0	56.0	2.5	/experiments/knapen_aot/videos/R_S_yt-WrwPgZYBXlA_34.mp4	0.0	230.62945127487183	0.1000978946685791
59	175.18545007705688	fix_pre	0		63.0	57.0	2.5	/experiments/knapen_aot/videos/S_production_ID_4101309.mp4	0.0	230.7295491695404	0.5248820781707764
59	175.70211005210876	response	0	2		57.0	2.5	/experiments/knapen_aot/videos/S_production_ID_4101309.mp4	0.0	231.24620914459229	
59	175.71033215522766	movie	1		194.0	57.0	2.5	/experiments/knapen_aot/videos/S_production_ID_4101309.mp4	0.0	231.25443124771118	2.508327007293701
59	178.21865916252136	fix_post	2		12.0	57.0	2.5	/experiments/knapen_aot/videos/S_production_ID_4101309.mp4	0.0	233.76275825500488	0.09997391700744629
60	178.3186330795288	fix_pre	0		52.0	58.0	2.5	/experiments/knapen_aot/videos/R_S_yt--vHa85DHvLU_31.mp4	0.0	233.86273217201233	0.4333040714263916
60	178.74356412887573	response	0	2		58.0	2.5	/experiments/knapen_aot/videos/R_S_yt--vHa85DHvLU_31.mp4	0.0	234.28766322135925	
60	178.7519371509552	movie	1		301.0	58.0	2.5	/experiments/knapen_aot/videos/R_S_yt--vHa85DHvLU_31.mp4	0.0	234.29603624343872	2.5083489418029785
60	181.26028609275818	fix_post	2		12.0	58.0	2.5	/experiments/knapen_aot/videos/R_S_yt--vHa85DHvLU_31.mp4	0.0	236.8043851852417	0.10004997253417969
61	181.36033606529236	fix_pre	0		61.0	59.0	2.5	/experiments/knapen_aot/videos/S_comp_LA_A005_C009_PSNK_ALT_v09_SDR_PS_201809134_SDR_2K_AVC.mp4	0.0	236.90443515777588	0.5082459449768066
61	181.86040902137756	response	0	2		59.0	2.5	/experiments/knapen_aot/videos/S_comp_LA_A005_C009_PSNK_ALT_v09_SDR_PS_201809134_SDR_2K_AVC.mp4	0.0	237.40450811386108	
61	181.86858201026917	movie	1		167.0	59.0	2.5	/experiments/knapen_aot/videos/S_comp_LA_A005_C009_PSNK_ALT_v09_SDR_PS_201809134_SDR_2K_AVC.mp4	0.0	237.41268110275269	2.508336067199707
61	184.37691807746887	fix_post	2		12.0	59.0	2.5	/experiments/knapen_aot/videos/S_comp_LA_A005_C009_PSNK_ALT_v09_SDR_PS_201809134_SDR_2K_AVC.mp4	0.0	239.9210171699524	0.10030412673950195
62	184.47722220420837	fix_pre	0		44.0	60.0	2.5	/experiments/knapen_aot/videos/S_yt-O4wUEZwHLyI_114.mp4	0.0	240.0213212966919	0.3663368225097656
62	184.83537912368774	response	0	2		60.0	2.5	/experiments/knapen_aot/videos/S_yt-O4wUEZwHLyI_114.mp4	0.0	240.37947821617126	
62	184.84355902671814	movie	1		301.0	60.0	2.5	/experiments/knapen_aot/videos/S_yt-O4wUEZwHLyI_114.mp4	0.0	240.38765811920166	2.5084550380706787
62	187.35201406478882	fix_post	2		12.0	60.0	2.5	/experiments/knapen_aot/videos/S_yt-O4wUEZwHLyI_114.mp4	0.0	242.89611315727234	0.09982800483703613
63	187.45184206962585	fix_pre	0		47.0	61.0	2.5	/experiments/knapen_aot/videos/S_yt-fk-z6WCvjjA_3.mp4	0.0	242.99594116210938	0.3916749954223633
63	187.83536219596863	response	0	2		61.0	2.5	/experiments/knapen_aot/videos/S_yt-fk-z6WCvjjA_3.mp4	0.0	243.37946128845215	
63	187.84351706504822	movie	1		301.0	61.0	2.5	/experiments/knapen_aot/videos/S_yt-fk-z6WCvjjA_3.mp4	0.0	243.38761615753174	2.5083611011505127
63	190.35187816619873	fix_post	2		12.0	61.0	2.5	/experiments/knapen_aot/videos/S_yt-fk-z6WCvjjA_3.mp4	0.0	245.89597725868225	0.10010099411010742
64	190.45197916030884	fix_pre	0		62.0	62.0	2.5	/experiments/knapen_aot/videos/R_S_yt-pPIHiIYSjW8_653.mp4	0.0	245.99607825279236	0.516571044921875
64	190.96032309532166	response	0	2		62.0	2.5	/experiments/knapen_aot/videos/R_S_yt-pPIHiIYSjW8_653.mp4	0.0	246.50442218780518	
64	190.9685502052307	movie	1		301.0	62.0	2.5	/experiments/knapen_aot/videos/R_S_yt-pPIHiIYSjW8_653.mp4	0.0	246.51264929771423	2.5084218978881836
64	193.4769721031189	fix_post	2		12.0	62.0	2.5	/experiments/knapen_aot/videos/R_S_yt-pPIHiIYSjW8_653.mp4	0.0	249.02107119560242	0.0999140739440918
65	193.576886177063	fix_pre	0		41.0	63.0	2.5	blank	1.0	249.1209852695465	0.34170103073120117
65	193.91034317016602	response	0	2		63.0	2.5	blank	1.0	249.45444226264954	
65	193.9185872077942	movie	1		301.0	63.0	2.5	blank	1.0	249.4626863002777	2.508255958557129
65	196.42684316635132	fix_post	2		12.0	63.0	2.5	blank	1.0	251.97094225883484	0.10004496574401855
66	196.52688813209534	fix_pre	0		86.0	64.0	2.5	/experiments/knapen_aot/videos/R_S_yt-ZBhTpmrAlUY_70.mp4	0.0	252.07098722457886	0.7166309356689453
66	197.2352170944214	response	0	2		64.0	2.5	/experiments/knapen_aot/videos/R_S_yt-ZBhTpmrAlUY_70.mp4	0.0	252.7793161869049	
66	197.24351906776428	movie	1		301.0	64.0	2.5	/experiments/knapen_aot/videos/R_S_yt-ZBhTpmrAlUY_70.mp4	0.0	252.7876181602478	2.5086779594421387
66	199.75219702720642	fix_post	2		12.0	64.0	2.5	/experiments/knapen_aot/videos/R_S_yt-ZBhTpmrAlUY_70.mp4	0.0	255.29629611968994	0.09966015815734863
67	199.85185718536377	fix_pre	0		37.0	65.0	2.5	/experiments/knapen_aot/videos/S_yt-9mWz93En7Gw_97.mp4	0.0	255.3959562778473	0.3083457946777344
67	200.15194416046143	response	0	2		65.0	2.5	/experiments/knapen_aot/videos/S_yt-9mWz93En7Gw_97.mp4	0.0	255.69604325294495	
67	200.1602029800415	movie	1		301.0	65.0	2.5	/experiments/knapen_aot/videos/S_yt-9mWz93En7Gw_97.mp4	0.0	255.70430207252502	2.508296012878418
67	202.66849899291992	fix_post	2		12.0	65.0	2.5	/experiments/knapen_aot/videos/S_yt-9mWz93En7Gw_97.mp4	0.0	258.21259808540344	0.09996819496154785
68	202.76846718788147	fix_pre	0		52.0	66.0	2.5	/experiments/knapen_aot/videos/R_S_Pexels_Videos_2786546.mp4	0.0	258.312566280365	0.43332791328430176
68	203.19359397888184	response	0	2		66.0	2.5	/experiments/knapen_aot/videos/R_S_Pexels_Videos_2786546.mp4	0.0	258.73769307136536	
68	203.20179510116577	movie	1		165.0	66.0	2.5	/experiments/knapen_aot/videos/R_S_Pexels_Videos_2786546.mp4	0.0	258.7458941936493	2.5083529949188232
68	205.7101480960846	fix_post	2		12.0	66.0	2.5	/experiments/knapen_aot/videos/R_S_Pexels_Videos_2786546.mp4	0.0	261.2542471885681	0.10023689270019531
69	205.8103849887848	fix_pre	0		26.0	67.0	2.5	/experiments/knapen_aot/videos/S_yt-VJ65ukWmdxQ_193.mp4	0.0	261.3544840812683	0.21640801429748535
69	206.0185730457306	response	0	2		67.0	2.5	/experiments/knapen_aot/videos/S_yt-VJ65ukWmdxQ_193.mp4	0.0	261.5626721382141	
69	206.02679300308228	movie	1		301.0	67.0	2.5	/experiments/knapen_aot/videos/S_yt-VJ65ukWmdxQ_193.mp4	0.0	261.5708920955658	2.508378028869629
69	208.5351710319519	fix_post	2		12.0	67.0	2.5	/experiments/knapen_aot/videos/S_yt-VJ65ukWmdxQ_193.mp4	0.0	264.0792701244354	0.09996294975280762
70	208.6351339817047	fix_pre	0		41.0	68.0	2.5	/experiments/knapen_aot/videos/R_S_yt-M8wvzt_BMXM_173.mp4	0.0	264.17923307418823	0.3416931629180908
70	208.96860599517822	response	0	2		68.0	2.5	/experiments/knapen_aot/videos/R_S_yt-M8wvzt_BMXM_173.mp4	0.0	264.51270508766174	
70	208.9768271446228	movie	1		301.0	68.0	2.5	/experiments/knapen_aot/videos/R_S_yt-M8wvzt_BMXM_173.mp4	0.0	264.5209262371063	2.5084128379821777
70	211.48523998260498	fix_post	2		12.0	68.0	2.5	/experiments/knapen_aot/videos/R_S_yt-M8wvzt_BMXM_173.mp4	0.0	267.0293390750885	0.09986019134521484
71	211.5851001739502	fix_pre	0		32.0	69.0	2.5	/experiments/knapen_aot/videos/R_S_flickr-slruok-8006772217_6.mp4	0.0	267.1291992664337	0.26665592193603516
71	211.8436222076416	response	0	2		69.0	2.5	/experiments/knapen_aot/videos/R_S_flickr-slruok-8006772217_6.mp4	0.0	267.3877213001251	
71	211.85175609588623	movie	1		301.0	69.0	2.5	/experiments/knapen_aot/videos/R_S_flickr-slruok-8006772217_6.mp4	0.0	267.39585518836975	2.5083999633789062
71	214.36015605926514	fix_post	2		12.0	69.0	2.5	/experiments/knapen_aot/videos/R_S_flickr-slruok-8006772217_6.mp4	0.0	269.90425515174866	0.0999901294708252
72	214.46014618873596	fix_pre	0		41.0	70.0	2.5	blank	1.0	270.0042452812195	0.3416919708251953
72	214.79356503486633	response	0	2		70.0	2.5	blank	1.0	270.33766412734985	
72	214.80183815956116	movie	1		301.0	70.0	2.5	blank	1.0	270.3459372520447	2.5083260536193848
72	217.31016421318054	fix_post	2		12.0	70.0	2.5	blank	1.0	272.85426330566406	0.10008883476257324
73	217.41025304794312	fix_pre	0		53.0	71.0	2.5	/experiments/knapen_aot/videos/R_S_yt-JH6qCYAnX-I_70.mp4	0.0	272.95435214042664	0.4414660930633545
73	217.8435561656952	response	0	2		71.0	2.5	/experiments/knapen_aot/videos/R_S_yt-JH6qCYAnX-I_70.mp4	0.0	273.3876552581787	
73	217.85171914100647	movie	1		301.0	71.0	2.5	/experiments/knapen_aot/videos/R_S_yt-JH6qCYAnX-I_70.mp4	0.0	273.39581823349	2.508363962173462
73	220.36008310317993	fix_post	2		12.0	71.0	2.5	/experiments/knapen_aot/videos/R_S_yt-JH6qCYAnX-I_70.mp4	0.0	275.90418219566345	0.10004591941833496
74	220.46012902259827	fix_pre	0		31.0	72.0	2.5	/experiments/knapen_aot/videos/R_S_pexels-mart-production-7698693.mp4	0.0	276.0042281150818	0.2595860958099365
74	220.710223197937	response	0	2		72.0	2.5	/experiments/knapen_aot/videos/R_S_pexels-mart-production-7698693.mp4	0.0	276.25432229042053	
74	220.7197151184082	movie	1		209.0	72.0	2.5	/experiments/knapen_aot/videos/R_S_pexels-mart-production-7698693.mp4	0.0	276.2638142108917	2.5071640014648438
74	223.22687911987305	fix_post	2		12.0	72.0	2.5	/experiments/knapen_aot/videos/R_S_pexels-mart-production-7698693.mp4	0.0	278.77097821235657	0.09982895851135254
75	223.3267080783844	fix_pre	0		55.0	73.0	2.5	/experiments/knapen_aot/videos/R_S_P005_C002_UHD_SDR_2K_AVC.mp4	0.0	278.8708071708679	0.45831799507141113
75	223.7768931388855	response	0	2		73.0	2.5	/experiments/knapen_aot/videos/R_S_P005_C002_UHD_SDR_2K_AVC.mp4	0.0	279.320992231369	
75	223.7850260734558	movie	1		169.0	73.0	2.5	/experiments/knapen_aot/videos/R_S_P005_C002_UHD_SDR_2K_AVC.mp4	0.0	279.32912516593933	2.5085151195526123
75	226.29354119300842	fix_post	2		12.0	73.0	2.5	/experiments/knapen_aot/videos/R_S_P005_C002_UHD_SDR_2K_AVC.mp4	0.0	281.83764028549194	0.09989380836486816
76	226.3934350013733	fix_pre	0		34.0	74.0	2.5	/experiments/knapen_aot/videos/R_S_yt-YMI27rk5qUQ_117.mp4	0.0	281.9375340938568	0.28453707695007324
76	226.66851210594177	response	0	2		74.0	2.5	/experiments/knapen_aot/videos/R_S_yt-YMI27rk5qUQ_117.mp4	0.0	282.2126111984253	
76	226.67797207832336	movie	1		301.0	74.0	2.5	/experiments/knapen_aot/videos/R_S_yt-YMI27rk5qUQ_117.mp4	0.0	282.2220711708069	2.5073671340942383
76	229.1853392124176	fix_post	2		12.0	74.0	2.5	/experiments/knapen_aot/videos/R_S_yt-YMI27rk5qUQ_117.mp4	0.0	284.7294383049011	0.09974193572998047
77	229.28508114814758	fix_pre	0		50.0	75.0	2.5	/experiments/knapen_aot/videos/R_S_production_ID_4101242.mp4	0.0	284.8291802406311	0.41670703887939453
77	229.69340300559998	response	0	2		75.0	2.5	/experiments/knapen_aot/videos/R_S_production_ID_4101242.mp4	0.0	285.2375020980835	
77	229.70178818702698	movie	1		192.0	75.0	2.5	/experiments/knapen_aot/videos/R_S_production_ID_4101242.mp4	0.0	285.2458872795105	2.508297920227051
77	232.21008610725403	fix_post	2		12.0	75.0	2.5	/experiments/knapen_aot/videos/R_S_production_ID_4101242.mp4	0.0	287.75418519973755	0.09995889663696289
78	232.310045003891	fix_pre	0		37.0	76.0	2.5	blank	1.0	287.8541440963745	0.3083150386810303
78	232.61022305488586	response	0	2		76.0	2.5	blank	1.0	288.1543221473694	
78	232.61836004257202	movie	1		301.0	76.0	2.5	blank	1.0	288.16245913505554	2.5083060264587402
78	235.12666606903076	fix_post	2		12.0	76.0	2.5	blank	1.0	290.6707651615143	0.10001611709594727
79	235.2266821861267	fix_pre	0		40.0	77.0	2.5	/experiments/knapen_aot/videos/S_yt-v9WGfC67DPk_50.mp4	0.0	290.77078127861023	0.33333802223205566
79	235.551824092865	response	0	2		77.0	2.5	/experiments/knapen_aot/videos/S_yt-v9WGfC67DPk_50.mp4	0.0	291.0959231853485	
79	235.56002020835876	movie	1		301.0	77.0	2.5	/experiments/knapen_aot/videos/S_yt-v9WGfC67DPk_50.mp4	0.0	291.1041193008423	2.508297920227051
79	238.06831812858582	fix_post	2		12.0	77.0	2.5	/experiments/knapen_aot/videos/S_yt-v9WGfC67DPk_50.mp4	0.0	293.61241722106934	0.1000368595123291
80	238.16835498809814	fix_pre	0		44.0	78.0	2.5	/experiments/knapen_aot/videos/S_yt-XtzmBXKYEWk_60.mp4	0.0	293.71245408058167	0.36658501625061035
80	238.52677416801453	response	0	2		78.0	2.5	/experiments/knapen_aot/videos/S_yt-XtzmBXKYEWk_60.mp4	0.0	294.07087326049805	
80	238.53494000434875	movie	1		301.0	78.0	2.5	/experiments/knapen_aot/videos/S_yt-XtzmBXKYEWk_60.mp4	0.0	294.0790390968323	2.5084261894226074
80	241.04336619377136	fix_post	2		12.0	78.0	2.5	/experiments/knapen_aot/videos/S_yt-XtzmBXKYEWk_60.mp4	0.0	296.5874652862549	0.09994387626647949
81	241.14331007003784	fix_pre	0		28.0	79.0	2.5	/experiments/knapen_aot/videos/S_yt-82O1uT8dmv8_12.mp4	0.0	296.68740916252136	0.2332899570465088
81	241.3684561252594	response	0	2		79.0	2.5	/experiments/knapen_aot/videos/S_yt-82O1uT8dmv8_12.mp4	0.0	296.9125552177429	
81	241.37660002708435	movie	1		301.0	79.0	2.5	/experiments/knapen_aot/videos/S_yt-82O1uT8dmv8_12.mp4	0.0	296.92069911956787	2.5083630084991455
81	243.8849630355835	fix_post	2		12.0	79.0	2.5	/experiments/knapen_aot/videos/S_yt-82O1uT8dmv8_12.mp4	0.0	299.429062128067	0.09998798370361328
82	243.9849510192871	fix_pre	0		40.0	80.0	2.5	/experiments/knapen_aot/videos/S_yt-xrPrnzvWUkY_7.mp4	0.0	299.52905011177063	0.33333802223205566
82	244.310054063797	response	0	2		80.0	2.5	/experiments/knapen_aot/videos/S_yt-xrPrnzvWUkY_7.mp4	0.0	299.8541531562805	
82	244.31828904151917	movie	1		301.0	80.0	2.5	/experiments/knapen_aot/videos/S_yt-xrPrnzvWUkY_7.mp4	0.0	299.8623881340027	2.5083329677581787
82	246.82662200927734	fix_post	2		12.0	80.0	2.5	/experiments/knapen_aot/videos/S_yt-xrPrnzvWUkY_7.mp4	0.0	302.37072110176086	0.10000014305114746
83	246.9266221523285	fix_pre	0		118.0	81.0	2.5	/experiments/knapen_aot/videos/S_m-aeoYPMqfg_185.mp4	0.0	302.470721244812	0.9832789897918701
83	247.90165305137634	response	0	2		81.0	2.5	/experiments/knapen_aot/videos/S_m-aeoYPMqfg_185.mp4	0.0	303.44575214385986	
83	247.90990114212036	movie	1		301.0	81.0	2.5	/experiments/knapen_aot/videos/S_m-aeoYPMqfg_185.mp4	0.0	303.4540002346039	2.50838303565979
83	250.41828417778015	fix_post	2		12.0	81.0	2.5	/experiments/knapen_aot/videos/S_m-aeoYPMqfg_185.mp4	0.0	305.9623832702637	0.10007500648498535
84	250.51835918426514	fix_pre	0		36.0	82.0	2.5	blank	1.0	306.06245827674866	0.29988598823547363
84	250.81008219718933	response	0	2		82.0	2.5	blank	1.0	306.35418128967285	
84	250.8182451725006	movie	1		301.0	82.0	2.5	blank	1.0	306.36234426498413	2.5083279609680176
84	253.32657313346863	fix_post	2		12.0	82.0	2.5	blank	1.0	308.87067222595215	0.10021495819091797
85	253.42678809165955	fix_pre	0		31.0	83.0	2.5	/experiments/knapen_aot/videos/R_S_yt-BrepyEWKrPQ_20.mp4	0.0	308.97088718414307	0.2580840587615967
85	253.6767179965973	response	0	2		83.0	2.5	/experiments/knapen_aot/videos/R_S_yt-BrepyEWKrPQ_20.mp4	0.0	309.2208170890808	
85	253.68487215042114	movie	1		301.0	83.0	2.5	/experiments/knapen_aot/videos/R_S_yt-BrepyEWKrPQ_20.mp4	0.0	309.22897124290466	2.5084168910980225
85	256.19328904151917	fix_post	2		12.0	83.0	2.5	/experiments/knapen_aot/videos/R_S_yt-BrepyEWKrPQ_20.mp4	0.0	311.7373881340027	0.09998703002929688
87	256.29327607154846	stim	0		173.0					311.837375164032	1.441627025604248
87	256.5100190639496	response	0	2						312.0541181564331	
87	257.7310471534729	response	0	space						313.2751462459564	
