trial_nr	onset	event_type	phase	response	nr_frames	movie_index	movie_duration	movie_file	blank	onset_abs	duration
0	0.12671303749084473	stim	0		111.0					69.41411995887756	0.923846960067749
0	1.0416920185089111	response	0	space						70.32909893989563	
1	1.0505599975585938	stim	0		121.0					70.33796691894531	1.0075039863586426
1	1.9206860065460205	response	0	2						71.20809292793274	
1	2.0580639839172363	stim	1		120.0					71.34547090530396	1.0000040531158447
1	2.4045751094818115	response	1	space						71.69198203086853	
1	2.749753952026367	response	1	space						72.03716087341309	
2	3.058068037033081	fix_pre	0		23.0	0.0	2.5	/experiments/knapen_aot/videos/R_S_P001_C005_UHD_SDR_2K_AVC.mp4	0.0	72.3454749584198	0.19150900840759277
2	3.241370916366577	response	0	space		0.0	2.5	/experiments/knapen_aot/videos/R_S_P001_C005_UHD_SDR_2K_AVC.mp4	0.0	72.5287778377533	
2	3.249577045440674	movie	1		169.0	0.0	2.5	/experiments/knapen_aot/videos/R_S_P001_C005_UHD_SDR_2K_AVC.mp4	0.0	72.53698396682739	2.5084149837493896
2	5.7579920291900635	fix_post	2		12.0	0.0	2.5	/experiments/knapen_aot/videos/R_S_P001_C005_UHD_SDR_2K_AVC.mp4	0.0	75.04539895057678	0.10003185272216797
3	5.8580238819122314	fix_pre	0		9.0	1.0	2.5	/experiments/knapen_aot/videos/R_S_yt-Ndwek2tpIOA_169.mp4	0.0	75.14543080329895	0.07492613792419434
3	5.922204971313477	response	0	2		1.0	2.5	/experiments/knapen_aot/videos/R_S_yt-Ndwek2tpIOA_169.mp4	0.0	75.2096118927002	
3	5.932950019836426	movie	1		301.0	1.0	2.5	/experiments/knapen_aot/videos/R_S_yt-Ndwek2tpIOA_169.mp4	0.0	75.22035694122314	2.5083489418029785
3	8.441298961639404	fix_post	2		12.0	1.0	2.5	/experiments/knapen_aot/videos/R_S_yt-Ndwek2tpIOA_169.mp4	0.0	77.72870588302612	0.10024714469909668
4	8.541546106338501	fix_pre	0		63.0	2.0	2.5	/experiments/knapen_aot/videos/S_yt-YCjbGOPBQHw_131.mp4	0.0	77.82895302772522	0.5247218608856201
4	9.058115005493164	response	0	2		2.0	2.5	/experiments/knapen_aot/videos/S_yt-YCjbGOPBQHw_131.mp4	0.0	78.34552192687988	
4	9.066267967224121	movie	1		301.0	2.0	2.5	/experiments/knapen_aot/videos/S_yt-YCjbGOPBQHw_131.mp4	0.0	78.35367488861084	2.50839900970459
4	11.574666976928711	fix_post	2		12.0	2.0	2.5	/experiments/knapen_aot/videos/S_yt-YCjbGOPBQHw_131.mp4	0.0	80.86207389831543	0.09995412826538086
5	11.674621105194092	fix_pre	0		76.0	3.0	2.5	/experiments/knapen_aot/videos/S_pexels-sora-shimazaki-5925295.mp4	0.0	80.96202802658081	0.6333630084991455
5	12.299832105636597	response	0	2		3.0	2.5	/experiments/knapen_aot/videos/S_pexels-sora-shimazaki-5925295.mp4	0.0	81.58723902702332	
5	12.307984113693237	movie	1		161.0	3.0	2.5	/experiments/knapen_aot/videos/S_pexels-sora-shimazaki-5925295.mp4	0.0	81.59539103507996	2.508220911026001
5	14.816205024719238	fix_post	2		12.0	3.0	2.5	/experiments/knapen_aot/videos/S_pexels-sora-shimazaki-5925295.mp4	0.0	84.10361194610596	0.10012292861938477
6	14.916327953338623	fix_pre	0		123.0	4.0	2.5	/experiments/knapen_aot/videos/R_S_pexels-mart-production-7279749.mp4	0.0	84.20373487472534	1.0248761177062988
6	15.933048009872437	response	0	2		4.0	2.5	/experiments/knapen_aot/videos/R_S_pexels-mart-production-7279749.mp4	0.0	85.22045493125916	
6	15.941204071044922	movie	1		164.0	4.0	2.5	/experiments/knapen_aot/videos/R_S_pexels-mart-production-7279749.mp4	0.0	85.22861099243164	2.508391857147217
6	18.44959592819214	fix_post	2		12.0	4.0	2.5	/experiments/knapen_aot/videos/R_S_pexels-mart-production-7279749.mp4	0.0	87.73700284957886	0.09998011589050293
7	18.54957604408264	fix_pre	0		18.0	5.0	2.5	/experiments/knapen_aot/videos/R_S_comp_LA_A006_C008_PSNK_ALL_LOGOS_v10_SDR_PS_FINAL_20180801_SDR_2K_AVC.mp4	0.0	87.83698296546936	0.14996695518493652
7	18.691379070281982	response	0	2		5.0	2.5	/experiments/knapen_aot/videos/R_S_comp_LA_A006_C008_PSNK_ALL_LOGOS_v10_SDR_PS_FINAL_20180801_SDR_2K_AVC.mp4	0.0	87.9787859916687	
7	18.699542999267578	movie	1		175.0	5.0	2.5	/experiments/knapen_aot/videos/R_S_comp_LA_A006_C008_PSNK_ALL_LOGOS_v10_SDR_PS_FINAL_20180801_SDR_2K_AVC.mp4	0.0	87.9869499206543	2.5084218978881836
7	21.20796489715576	fix_post	2		12.0	5.0	2.5	/experiments/knapen_aot/videos/R_S_comp_LA_A006_C008_PSNK_ALL_LOGOS_v10_SDR_PS_FINAL_20180801_SDR_2K_AVC.mp4	0.0	90.49537181854248	0.0999610424041748
8	21.307925939559937	fix_pre	0		24.0	6.0	2.5	/experiments/knapen_aot/videos/R_S_nTA7B2uHaCQ_1.mp4	0.0	90.59533286094666	0.20036101341247559
8	21.499713897705078	response	0	2		6.0	2.5	/experiments/knapen_aot/videos/R_S_nTA7B2uHaCQ_1.mp4	0.0	90.7871208190918	
8	21.508286952972412	movie	1		301.0	6.0	2.5	/experiments/knapen_aot/videos/R_S_nTA7B2uHaCQ_1.mp4	0.0	90.79569387435913	2.5079760551452637
8	24.016263008117676	fix_post	2		12.0	6.0	2.5	/experiments/knapen_aot/videos/R_S_nTA7B2uHaCQ_1.mp4	0.0	93.3036699295044	0.10001993179321289
9	24.11628293991089	fix_pre	0		28.0	7.0	2.5	blank	1.0	93.40368986129761	0.23331403732299805
9	24.341367959976196	response	0	2		7.0	2.5	blank	1.0	93.62877488136292	
9	24.349596977233887	movie	1		301.0	7.0	2.5	blank	1.0	93.6370038986206	2.5083870887756348
9	26.85798406600952	fix_post	2		12.0	7.0	2.5	blank	1.0	96.14539098739624	0.09995603561401367
10	26.957940101623535	fix_pre	0		11.0	8.0	2.5	/experiments/knapen_aot/videos/R_S_ILSVRC2015_train_00574000.mp4	0.0	96.24534702301025	0.09213685989379883
10	27.041300058364868	response	0	2		8.0	2.5	/experiments/knapen_aot/videos/R_S_ILSVRC2015_train_00574000.mp4	0.0	96.32870697975159	
10	27.050076961517334	movie	1		301.0	8.0	2.5	/experiments/knapen_aot/videos/R_S_ILSVRC2015_train_00574000.mp4	0.0	96.33748388290405	2.507939100265503
10	29.558016061782837	fix_post	2		12.0	8.0	2.5	/experiments/knapen_aot/videos/R_S_ILSVRC2015_train_00574000.mp4	0.0	98.84542298316956	0.09984397888183594
11	29.657860040664673	fix_pre	0		47.0	9.0	2.5	/experiments/knapen_aot/videos/R_S_yt-BAwvfRmE1LU_79.mp4	0.0	98.94526696205139	0.39211606979370117
11	30.04135489463806	response	0	2		9.0	2.5	/experiments/knapen_aot/videos/R_S_yt-BAwvfRmE1LU_79.mp4	0.0	99.32876181602478	
11	30.049976110458374	movie	1		301.0	9.0	2.5	/experiments/knapen_aot/videos/R_S_yt-BAwvfRmE1LU_79.mp4	0.0	99.33738303184509	2.507978916168213
11	32.55795502662659	fix_post	2		12.0	9.0	2.5	/experiments/knapen_aot/videos/R_S_yt-BAwvfRmE1LU_79.mp4	0.0	101.8453619480133	0.09998393058776855
12	32.657938957214355	fix_pre	0		32.0	10.0	2.5	/experiments/knapen_aot/videos/R_S_yt-1UFhynm5g6Y_266.mp4	0.0	101.94534587860107	0.2671220302581787
12	32.91629600524902	response	0	2		10.0	2.5	/experiments/knapen_aot/videos/R_S_yt-1UFhynm5g6Y_266.mp4	0.0	102.20370292663574	
12	32.925060987472534	movie	1		301.0	10.0	2.5	/experiments/knapen_aot/videos/R_S_yt-1UFhynm5g6Y_266.mp4	0.0	102.21246790885925	2.5079550743103027
12	35.43301606178284	fix_post	2		12.0	10.0	2.5	/experiments/knapen_aot/videos/R_S_yt-1UFhynm5g6Y_266.mp4	0.0	104.72042298316956	0.09990191459655762
13	35.532917976379395	fix_pre	0		36.0	11.0	2.5	/experiments/knapen_aot/videos/S_yt-kkbtZP78JxQ_96.mp4	0.0	104.82032489776611	0.2999260425567627
13	35.82467007637024	response	0	2		11.0	2.5	/experiments/knapen_aot/videos/S_yt-kkbtZP78JxQ_96.mp4	0.0	105.11207699775696	
13	35.83284401893616	movie	1		301.0	11.0	2.5	/experiments/knapen_aot/videos/S_yt-kkbtZP78JxQ_96.mp4	0.0	105.12025094032288	2.5084869861602783
13	38.341331005096436	fix_post	2		12.0	11.0	2.5	/experiments/knapen_aot/videos/S_yt-kkbtZP78JxQ_96.mp4	0.0	107.62873792648315	0.09993195533752441
14	38.44126296043396	fix_pre	0		23.0	12.0	2.5	/experiments/knapen_aot/videos/R_S_pexels-mart-production-7698911_1.mp4	0.0	107.72866988182068	0.19187593460083008
14	38.62459897994995	response	0	2		12.0	2.5	/experiments/knapen_aot/videos/R_S_pexels-mart-production-7698911_1.mp4	0.0	107.91200590133667	
14	38.63313889503479	movie	1		179.0	12.0	2.5	/experiments/knapen_aot/videos/R_S_pexels-mart-production-7698911_1.mp4	0.0	107.92054581642151	2.5081300735473633
14	41.14126896858215	fix_post	2		12.0	12.0	2.5	/experiments/knapen_aot/videos/R_S_pexels-mart-production-7698911_1.mp4	0.0	110.42867588996887	0.09987807273864746
15	41.2411470413208	fix_pre	0		42.0	13.0	2.5	blank	1.0	110.52855396270752	0.3503730297088623
15	41.58286499977112	response	0	2		13.0	2.5	blank	1.0	110.87027192115784	
15	41.59152007102966	movie	1		301.0	13.0	2.5	blank	1.0	110.87892699241638	2.5079739093780518
15	44.099493980407715	fix_post	2		12.0	13.0	2.5	blank	1.0	113.38690090179443	0.1002810001373291
16	44.199774980545044	fix_pre	0		45.0	14.0	2.5	/experiments/knapen_aot/videos/S_ILSVRC2015_train_00762000.mp4	0.0	113.48718190193176	0.37468791007995605
16	44.55874300003052	response	0	2		14.0	2.5	/experiments/knapen_aot/videos/S_ILSVRC2015_train_00762000.mp4	0.0	113.84614992141724	
16	44.574462890625	movie	1		301.0	14.0	2.5	/experiments/knapen_aot/videos/S_ILSVRC2015_train_00762000.mp4	0.0	113.86186981201172	2.5085442066192627
16	47.08300709724426	fix_post	2		12.0	14.0	2.5	/experiments/knapen_aot/videos/S_ILSVRC2015_train_00762000.mp4	0.0	116.37041401863098	0.09977579116821289
17	47.182782888412476	fix_pre	0		21.0	15.0	2.5	/experiments/knapen_aot/videos/R_S_yt-452RKqKIeRU_16.mp4	0.0	116.4701898097992	0.1749861240386963
17	47.34959602355957	response	0	2		15.0	2.5	/experiments/knapen_aot/videos/R_S_yt-452RKqKIeRU_16.mp4	0.0	116.63700294494629	
17	47.35776901245117	movie	1		301.0	15.0	2.5	/experiments/knapen_aot/videos/R_S_yt-452RKqKIeRU_16.mp4	0.0	116.64517593383789	2.508272886276245
17	49.86604189872742	fix_post	2		12.0	15.0	2.5	/experiments/knapen_aot/videos/R_S_yt-452RKqKIeRU_16.mp4	0.0	119.15344882011414	0.10049200057983398
18	49.96653389930725	fix_pre	0		37.0	16.0	2.5	/experiments/knapen_aot/videos/R_S_yt-26obL-Z5obg_131.mp4	0.0	119.25394082069397	0.3078629970550537
18	50.26619911193848	response	0	2		16.0	2.5	/experiments/knapen_aot/videos/R_S_yt-26obL-Z5obg_131.mp4	0.0	119.5536060333252	
18	50.274396896362305	movie	1		301.0	16.0	2.5	/experiments/knapen_aot/videos/R_S_yt-26obL-Z5obg_131.mp4	0.0	119.56180381774902	2.5085771083831787
18	52.78297400474548	fix_post	2		12.0	16.0	2.5	/experiments/knapen_aot/videos/R_S_yt-26obL-Z5obg_131.mp4	0.0	122.0703809261322	0.09995198249816895
19	52.88292598724365	fix_pre	0		17.0	17.0	2.5	/experiments/knapen_aot/videos/R_S_yt-M_ApPnq00iE_67.mp4	0.0	122.17033290863037	0.14154410362243652
19	53.008683919906616	response	0	2		17.0	2.5	/experiments/knapen_aot/videos/R_S_yt-M_ApPnq00iE_67.mp4	0.0	122.29609084129333	
19	53.02447009086609	movie	1		301.0	17.0	2.5	/experiments/knapen_aot/videos/R_S_yt-M_ApPnq00iE_67.mp4	0.0	122.31187701225281	2.5083138942718506
19	55.53278398513794	fix_post	2		12.0	17.0	2.5	/experiments/knapen_aot/videos/R_S_yt-M_ApPnq00iE_67.mp4	0.0	124.82019090652466	0.1004331111907959
20	55.633217096328735	fix_pre	0		42.0	18.0	2.5	/experiments/knapen_aot/videos/R_S_yt-STL3ejY9u_Q_73.mp4	0.0	124.92062401771545	0.3495779037475586
20	55.97453999519348	response	0	2		18.0	2.5	/experiments/knapen_aot/videos/R_S_yt-STL3ejY9u_Q_73.mp4	0.0	125.2619469165802	
20	55.982795000076294	movie	1		301.0	18.0	2.5	/experiments/knapen_aot/videos/R_S_yt-STL3ejY9u_Q_73.mp4	0.0	125.27020192146301	2.5085010528564453
20	58.49129605293274	fix_post	2		12.0	18.0	2.5	/experiments/knapen_aot/videos/R_S_yt-STL3ejY9u_Q_73.mp4	0.0	127.77870297431946	0.1000828742980957
21	58.591378927230835	fix_pre	0		139.0	19.0	2.5	/experiments/knapen_aot/videos/R_S_yt-Xkx53mjgj2E_30.mp4	0.0	127.87878584861755	1.1580431461334229
21	59.7412109375	response	0	2		19.0	2.5	/experiments/knapen_aot/videos/R_S_yt-Xkx53mjgj2E_30.mp4	0.0	129.02861785888672	
21	59.74942207336426	movie	1		301.0	19.0	2.5	/experiments/knapen_aot/videos/R_S_yt-Xkx53mjgj2E_30.mp4	0.0	129.03682899475098	2.508584976196289
21	62.25800704956055	fix_post	2		12.0	19.0	2.5	/experiments/knapen_aot/videos/R_S_yt-Xkx53mjgj2E_30.mp4	0.0	131.54541397094727	0.09974098205566406
22	62.35774803161621	fix_pre	0		202.0	20.0	2.5	/experiments/knapen_aot/videos/S_yt-ZwnliF0525U_95.mp4	0.0	131.64515495300293	1.6832900047302246
22	64.03280711174011	response	0	2		20.0	2.5	/experiments/knapen_aot/videos/S_yt-ZwnliF0525U_95.mp4	0.0	133.32021403312683	
22	64.04103803634644	movie	1		301.0	20.0	2.5	/experiments/knapen_aot/videos/S_yt-ZwnliF0525U_95.mp4	0.0	133.32844495773315	2.508375883102417
22	66.54941391944885	fix_post	2		12.0	20.0	2.5	/experiments/knapen_aot/videos/S_yt-ZwnliF0525U_95.mp4	0.0	135.83682084083557	0.09995698928833008
23	66.64937090873718	fix_pre	0		105.0	21.0	2.5	blank	1.0	135.9367778301239	0.8749611377716064
23	67.51612091064453	response	0	2		21.0	2.5	blank	1.0	136.80352783203125	
23	67.52433204650879	movie	1		301.0	21.0	2.5	blank	1.0	136.8117389678955	2.508391857147217
23	70.032723903656	fix_post	2		12.0	21.0	2.5	blank	1.0	139.32013082504272	0.10022997856140137
23	70.06613492965698	response	2	2		21.0	2.5	blank	1.0	139.3535418510437	
24	70.13295388221741	fix_pre	0		48.0	22.0	2.5	/experiments/knapen_aot/videos/S_ILSVRC2015_train_00601000.mp4	0.0	139.42036080360413	0.3997011184692383
24	70.51690697669983	response	0	2		22.0	2.5	/experiments/knapen_aot/videos/S_ILSVRC2015_train_00601000.mp4	0.0	139.80431389808655	
24	70.53265500068665	movie	1		301.0	22.0	2.5	/experiments/knapen_aot/videos/S_ILSVRC2015_train_00601000.mp4	0.0	139.82006192207336	2.50846004486084
24	73.04111504554749	fix_post	2		12.0	22.0	2.5	/experiments/knapen_aot/videos/S_ILSVRC2015_train_00601000.mp4	0.0	142.3285219669342	0.09984493255615234
25	73.14095997810364	fix_pre	0		30.0	23.0	2.5	/experiments/knapen_aot/videos/R_S_yt-26obL-Z5obg_131.mp4	0.0	142.42836689949036	0.25002312660217285
25	73.38283610343933	response	0	2		23.0	2.5	/experiments/knapen_aot/videos/R_S_yt-26obL-Z5obg_131.mp4	0.0	142.67024302482605	
25	73.39098310470581	movie	1		301.0	23.0	2.5	/experiments/knapen_aot/videos/R_S_yt-26obL-Z5obg_131.mp4	0.0	142.67839002609253	2.50833797454834
25	75.89932107925415	fix_post	2		12.0	23.0	2.5	/experiments/knapen_aot/videos/R_S_yt-26obL-Z5obg_131.mp4	0.0	145.18672800064087	0.09996891021728516
26	75.99928998947144	fix_pre	0		27.0	24.0	2.5	/experiments/knapen_aot/videos/S_yt-p0buJEEKeuI_61.mp4	0.0	145.28669691085815	0.2250049114227295
26	76.21607708930969	response	0	2		24.0	2.5	/experiments/knapen_aot/videos/S_yt-p0buJEEKeuI_61.mp4	0.0	145.5034840106964	
26	76.22429490089417	movie	1		301.0	24.0	2.5	/experiments/knapen_aot/videos/S_yt-p0buJEEKeuI_61.mp4	0.0	145.51170182228088	2.508435010910034
26	78.7327299118042	fix_post	2		12.0	24.0	2.5	/experiments/knapen_aot/videos/S_yt-p0buJEEKeuI_61.mp4	0.0	148.02013683319092	0.09998011589050293
27	78.8327100276947	fix_pre	0		29.0	25.0	2.5	/experiments/knapen_aot/videos/S_yt-lADkWM79teI_18.mp4	0.0	148.12011694908142	0.2415320873260498
27	79.06608295440674	response	0	2		25.0	2.5	/experiments/knapen_aot/videos/S_yt-lADkWM79teI_18.mp4	0.0	148.35348987579346	
27	79.07424211502075	movie	1		301.0	25.0	2.5	/experiments/knapen_aot/videos/S_yt-lADkWM79teI_18.mp4	0.0	148.36164903640747	2.5084187984466553
27	81.58266091346741	fix_post	2		12.0	25.0	2.5	/experiments/knapen_aot/videos/S_yt-lADkWM79teI_18.mp4	0.0	150.87006783485413	0.10002899169921875
28	81.68268990516663	fix_pre	0		62.0	26.0	2.5	/experiments/knapen_aot/videos/S_yt-QJ2k6vA8aco_12.mp4	0.0	150.97009682655334	0.5165700912475586
28	82.19114303588867	response	0	2		26.0	2.5	/experiments/knapen_aot/videos/S_yt-QJ2k6vA8aco_12.mp4	0.0	151.4785499572754	
28	82.19925999641418	movie	1		301.0	26.0	2.5	/experiments/knapen_aot/videos/S_yt-QJ2k6vA8aco_12.mp4	0.0	151.4866669178009	2.5083909034729004
28	84.70765089988708	fix_post	2		12.0	26.0	2.5	/experiments/knapen_aot/videos/S_yt-QJ2k6vA8aco_12.mp4	0.0	153.9950578212738	0.09991312026977539
29	84.80756402015686	fix_pre	0		29.0	27.0	2.5	/experiments/knapen_aot/videos/R_S_yt-jYSri2JVUqo_1036.mp4	0.0	154.09497094154358	0.2418210506439209
29	85.03357291221619	response	0	2		27.0	2.5	/experiments/knapen_aot/videos/R_S_yt-jYSri2JVUqo_1036.mp4	0.0	154.3209798336029	
29	85.04938507080078	movie	1		301.0	27.0	2.5	/experiments/knapen_aot/videos/R_S_yt-jYSri2JVUqo_1036.mp4	0.0	154.3367919921875	2.508445978164673
29	87.55783104896545	fix_post	2		12.0	27.0	2.5	/experiments/knapen_aot/videos/R_S_yt-jYSri2JVUqo_1036.mp4	0.0	156.84523797035217	0.09980201721191406
30	87.65763306617737	fix_pre	0		36.0	28.0	2.5	blank	1.0	156.9450399875641	0.29997897148132324
30	87.94942593574524	response	0	2		28.0	2.5	blank	1.0	157.23683285713196	
30	87.95761203765869	movie	1		301.0	28.0	2.5	blank	1.0	157.2450189590454	2.5084760189056396
30	89.89107203483582	response	1	2		28.0	2.5	blank	1.0	159.17847895622253	
30	90.46608805656433	fix_post	2		12.0	28.0	2.5	blank	1.0	159.75349497795105	0.09993886947631836
31	90.56602692604065	fix_pre	0		73.0	29.0	2.5	/experiments/knapen_aot/videos/S_wc-DcFDe419cL3d_17.mp4	0.0	159.85343384742737	0.6084060668945312
31	91.16606497764587	response	0	2		29.0	2.5	/experiments/knapen_aot/videos/S_wc-DcFDe419cL3d_17.mp4	0.0	160.4534718990326	
31	91.17443299293518	movie	1		164.0	29.0	2.5	/experiments/knapen_aot/videos/S_wc-DcFDe419cL3d_17.mp4	0.0	160.4618399143219	2.508173942565918
31	93.6826069355011	fix_post	2		12.0	29.0	2.5	/experiments/knapen_aot/videos/S_wc-DcFDe419cL3d_17.mp4	0.0	162.97001385688782	0.10009598731994629
32	93.78270292282104	fix_pre	0		42.0	30.0	2.5	/experiments/knapen_aot/videos/R_S_yt-4-u4Fw_J_q8_45.mp4	0.0	163.07010984420776	0.34989500045776367
32	94.12429594993591	response	0	2		30.0	2.5	/experiments/knapen_aot/videos/R_S_yt-4-u4Fw_J_q8_45.mp4	0.0	163.41170287132263	
32	94.13259792327881	movie	1		301.0	30.0	2.5	/experiments/knapen_aot/videos/R_S_yt-4-u4Fw_J_q8_45.mp4	0.0	163.42000484466553	2.5083930492401123
32	96.64099097251892	fix_post	2		12.0	30.0	2.5	/experiments/knapen_aot/videos/R_S_yt-4-u4Fw_J_q8_45.mp4	0.0	165.92839789390564	0.09988903999328613
33	96.7408800125122	fix_pre	0		20.0	31.0	2.5	/experiments/knapen_aot/videos/S_yt-452RKqKIeRU_16.mp4	0.0	166.02828693389893	0.1666560173034668
33	96.89929604530334	response	0	2		31.0	2.5	/experiments/knapen_aot/videos/S_yt-452RKqKIeRU_16.mp4	0.0	166.18670296669006	
33	96.90753602981567	movie	1		301.0	31.0	2.5	/experiments/knapen_aot/videos/S_yt-452RKqKIeRU_16.mp4	0.0	166.1949429512024	2.5083999633789062
33	99.41593599319458	fix_post	2		12.0	31.0	2.5	/experiments/knapen_aot/videos/S_yt-452RKqKIeRU_16.mp4	0.0	168.7033429145813	0.09997797012329102
34	99.51591396331787	fix_pre	0		41.0	32.0	2.5	/experiments/knapen_aot/videos/R_S_yt-2y6A9DJPsDU_65.mp4	0.0	168.8033208847046	0.34165215492248535
34	99.8493299484253	response	0	2		32.0	2.5	/experiments/knapen_aot/videos/R_S_yt-2y6A9DJPsDU_65.mp4	0.0	169.136736869812	
34	99.85756611824036	movie	1		300.0	32.0	2.5	/experiments/knapen_aot/videos/R_S_yt-2y6A9DJPsDU_65.mp4	0.0	169.14497303962708	2.5083138942718506
34	102.3658800125122	fix_post	2		12.0	32.0	2.5	/experiments/knapen_aot/videos/R_S_yt-2y6A9DJPsDU_65.mp4	0.0	171.65328693389893	0.10018706321716309
35	102.46606707572937	fix_pre	0		369.0	33.0	2.5	/experiments/knapen_aot/videos/R_S_yt-Ryb0K9lGPrg_5.mp4	0.0	171.7534739971161	3.0748279094696045
35	105.53262495994568	response	0	2		33.0	2.5	/experiments/knapen_aot/videos/R_S_yt-Ryb0K9lGPrg_5.mp4	0.0	174.8200318813324	
35	105.54089498519897	movie	1		301.0	33.0	2.5	/experiments/knapen_aot/videos/R_S_yt-Ryb0K9lGPrg_5.mp4	0.0	174.8283019065857	2.508392095565796
35	108.04928708076477	fix_post	2		12.0	33.0	2.5	/experiments/knapen_aot/videos/R_S_yt-Ryb0K9lGPrg_5.mp4	0.0	177.3366940021515	0.09992003440856934
36	108.14920711517334	fix_pre	0		47.0	34.0	2.5	/experiments/knapen_aot/videos/R_S_yt-HoRtvVuuvOs_5.mp4	0.0	177.43661403656006	0.3916308879852295
36	108.53269410133362	response	0	2		34.0	2.5	/experiments/knapen_aot/videos/R_S_yt-HoRtvVuuvOs_5.mp4	0.0	177.82010102272034	
36	108.54083800315857	movie	1		301.0	34.0	2.5	/experiments/knapen_aot/videos/R_S_yt-HoRtvVuuvOs_5.mp4	0.0	177.8282449245453	2.5084140300750732
36	111.04925203323364	fix_post	2		12.0	34.0	2.5	/experiments/knapen_aot/videos/R_S_yt-HoRtvVuuvOs_5.mp4	0.0	180.33665895462036	0.1000518798828125
37	111.14930391311646	fix_pre	0		22.0	35.0	2.5	blank	1.0	180.43671083450317	0.18314003944396973
37	111.32428908348083	response	0	2		35.0	2.5	blank	1.0	180.61169600486755	
37	111.33244395256042	movie	1		301.0	35.0	2.5	blank	1.0	180.61985087394714	2.508388042449951
37	113.84083199501038	fix_post	2		12.0	35.0	2.5	blank	1.0	183.1282389163971	0.09997797012329102
38	113.94080996513367	fix_pre	0		37.0	36.0	2.5	/experiments/knapen_aot/videos/S_yt-RqWnxg1wT-0_41.mp4	0.0	183.22821688652039	0.3082609176635742
38	114.24093699455261	response	0	2		36.0	2.5	/experiments/knapen_aot/videos/S_yt-RqWnxg1wT-0_41.mp4	0.0	183.52834391593933	
38	114.24907088279724	movie	1		301.0	36.0	2.5	/experiments/knapen_aot/videos/S_yt-RqWnxg1wT-0_41.mp4	0.0	183.53647780418396	2.5085501670837402
38	116.75762104988098	fix_post	2		12.0	36.0	2.5	/experiments/knapen_aot/videos/S_yt-RqWnxg1wT-0_41.mp4	0.0	186.0450279712677	0.09987688064575195
39	116.85749793052673	fix_pre	0		25.0	37.0	2.5	/experiments/knapen_aot/videos/R_S_yt-BIDHmbneB10_998.mp4	0.0	186.14490485191345	0.20831012725830078
39	117.05765008926392	response	0	2		37.0	2.5	/experiments/knapen_aot/videos/R_S_yt-BIDHmbneB10_998.mp4	0.0	186.34505701065063	
39	117.06580805778503	movie	1		301.0	37.0	2.5	/experiments/knapen_aot/videos/R_S_yt-BIDHmbneB10_998.mp4	0.0	186.35321497917175	2.5084660053253174
39	119.57427406311035	fix_post	2		12.0	37.0	2.5	/experiments/knapen_aot/videos/R_S_yt-BIDHmbneB10_998.mp4	0.0	188.86168098449707	0.09993195533752441
40	119.67420601844788	fix_pre	0		66.0	38.0	2.5	/experiments/knapen_aot/videos/R_S_yt-YyKEeu2gLrI_158.mp4	0.0	188.9616129398346	0.5499629974365234
40	120.21597695350647	response	0	2		38.0	2.5	/experiments/knapen_aot/videos/R_S_yt-YyKEeu2gLrI_158.mp4	0.0	189.5033838748932	
40	120.2241690158844	movie	1		301.0	38.0	2.5	/experiments/knapen_aot/videos/R_S_yt-YyKEeu2gLrI_158.mp4	0.0	189.51157593727112	2.508291006088257
40	122.73246002197266	fix_post	2		12.0	38.0	2.5	/experiments/knapen_aot/videos/R_S_yt-YyKEeu2gLrI_158.mp4	0.0	192.01986694335938	0.10000395774841309
41	122.83246397972107	fix_pre	0		33.0	39.0	2.5	/experiments/knapen_aot/videos/S_yt-3eQHOLBzOqA_100.mp4	0.0	192.1198709011078	0.27497291564941406
41	123.09923601150513	response	0	2		39.0	2.5	/experiments/knapen_aot/videos/S_yt-3eQHOLBzOqA_100.mp4	0.0	192.38664293289185	
41	123.10743689537048	movie	1		301.0	39.0	2.5	/experiments/knapen_aot/videos/S_yt-3eQHOLBzOqA_100.mp4	0.0	192.3948438167572	2.508380174636841
41	125.61581707000732	fix_post	2		12.0	39.0	2.5	/experiments/knapen_aot/videos/S_yt-3eQHOLBzOqA_100.mp4	0.0	194.90322399139404	0.09997200965881348
42	125.71578907966614	fix_pre	0		88.0	40.0	2.5	/experiments/knapen_aot/videos/R_S_ILSVRC2015_train_00411001.mp4	0.0	195.00319600105286	0.7333090305328369
42	126.43338394165039	response	0	2		40.0	2.5	/experiments/knapen_aot/videos/R_S_ILSVRC2015_train_00411001.mp4	0.0	195.7207908630371	
42	126.44909811019897	movie	1		301.0	40.0	2.5	/experiments/knapen_aot/videos/R_S_ILSVRC2015_train_00411001.mp4	0.0	195.7365050315857	2.5083677768707275
42	128.9574658870697	fix_post	2		12.0	40.0	2.5	/experiments/knapen_aot/videos/R_S_ILSVRC2015_train_00411001.mp4	0.0	198.24487280845642	0.0999751091003418
43	129.05744099617004	fix_pre	0		37.0	41.0	2.5	/experiments/knapen_aot/videos/R_S_yt-aiwDdJm1ek8_90.mp4	0.0	198.34484791755676	0.3082759380340576
43	129.35761094093323	response	0	2		41.0	2.5	/experiments/knapen_aot/videos/R_S_yt-aiwDdJm1ek8_90.mp4	0.0	198.64501786231995	
43	129.3657169342041	movie	1		301.0	41.0	2.5	/experiments/knapen_aot/videos/R_S_yt-aiwDdJm1ek8_90.mp4	0.0	198.65312385559082	2.508373975753784
43	131.87409090995789	fix_post	2		12.0	41.0	2.5	/experiments/knapen_aot/videos/R_S_yt-aiwDdJm1ek8_90.mp4	0.0	201.1614978313446	0.10001707077026367
44	131.97410798072815	fix_pre	0		77.0	42.0	2.5	blank	1.0	201.26151490211487	0.6416110992431641
44	132.6075439453125	response	0	2		42.0	2.5	blank	1.0	201.89495086669922	
44	132.6157190799713	movie	1		301.0	42.0	2.5	blank	1.0	201.90312600135803	2.5083699226379395
44	134.77419304847717	response	1	2		42.0	2.5	blank	1.0	204.0615999698639	
44	135.12408900260925	fix_post	2		12.0	42.0	2.5	blank	1.0	204.41149592399597	0.10022401809692383
45	135.22431302070618	fix_pre	0		26.0	43.0	2.5	/experiments/knapen_aot/videos/R_S_comp_A105_C002_v06_SDR_FINAL_25062018_SDR_2K_AVC.mp4	0.0	204.5117199420929	0.2164020538330078
45	135.43255400657654	response	0	2		43.0	2.5	/experiments/knapen_aot/videos/R_S_comp_A105_C002_v06_SDR_FINAL_25062018_SDR_2K_AVC.mp4	0.0	204.71996092796326	
45	135.44071507453918	movie	1		166.0	43.0	2.5	/experiments/knapen_aot/videos/R_S_comp_A105_C002_v06_SDR_FINAL_25062018_SDR_2K_AVC.mp4	0.0	204.7281219959259	2.508577823638916
45	137.9492928981781	fix_post	2		12.0	43.0	2.5	/experiments/knapen_aot/videos/R_S_comp_A105_C002_v06_SDR_FINAL_25062018_SDR_2K_AVC.mp4	0.0	207.23669981956482	0.09978008270263672
46	138.04907298088074	fix_pre	0		23.0	44.0	2.5	/experiments/knapen_aot/videos/R_S_yt-BAwvfRmE1LU_79.mp4	0.0	207.33647990226746	0.19161200523376465
46	138.2250280380249	response	0	2		44.0	2.5	/experiments/knapen_aot/videos/R_S_yt-BAwvfRmE1LU_79.mp4	0.0	207.51243495941162	
46	138.2406849861145	movie	1		301.0	44.0	2.5	/experiments/knapen_aot/videos/R_S_yt-BAwvfRmE1LU_79.mp4	0.0	207.52809190750122	2.5084240436553955
46	139.3943099975586	response	1	2		44.0	2.5	/experiments/knapen_aot/videos/R_S_yt-BAwvfRmE1LU_79.mp4	0.0	208.6817169189453	
46	140.7491090297699	fix_post	2		12.0	44.0	2.5	/experiments/knapen_aot/videos/R_S_yt-BAwvfRmE1LU_79.mp4	0.0	210.03651595115662	0.09996199607849121
47	140.8490710258484	fix_pre	0		33.0	45.0	2.5	/experiments/knapen_aot/videos/S_yt-uX7qYKQm_pg_277.mp4	0.0	210.1364779472351	0.276263952255249
47	141.1158480644226	response	0	2		45.0	2.5	/experiments/knapen_aot/videos/S_yt-uX7qYKQm_pg_277.mp4	0.0	210.40325498580933	
47	141.12533497810364	movie	1		301.0	45.0	2.5	/experiments/knapen_aot/videos/S_yt-uX7qYKQm_pg_277.mp4	0.0	210.41274189949036	2.507169008255005
47	143.29209303855896	response	1	2		45.0	2.5	/experiments/knapen_aot/videos/S_yt-uX7qYKQm_pg_277.mp4	0.0	212.57949995994568	
47	143.63250398635864	fix_post	2		12.0	45.0	2.5	/experiments/knapen_aot/videos/S_yt-uX7qYKQm_pg_277.mp4	0.0	212.91991090774536	0.10022211074829102
48	143.73272609710693	fix_pre	0		290.0	46.0	2.5	/experiments/knapen_aot/videos/R_S_yt-wqdTPz0bLrM_561.mp4	0.0	213.02013301849365	2.416303873062134
48	146.14081001281738	response	0	2		46.0	2.5	/experiments/knapen_aot/videos/R_S_yt-wqdTPz0bLrM_561.mp4	0.0	215.4282169342041	
48	146.14902997016907	movie	1		301.0	46.0	2.5	/experiments/knapen_aot/videos/R_S_yt-wqdTPz0bLrM_561.mp4	0.0	215.4364368915558	2.5084080696105957
48	148.65743803977966	fix_post	2		12.0	46.0	2.5	/experiments/knapen_aot/videos/R_S_yt-wqdTPz0bLrM_561.mp4	0.0	217.94484496116638	0.09990406036376953
49	148.75734210014343	fix_pre	0		41.0	47.0	2.5	/experiments/knapen_aot/videos/R_S_yt-LsCCAQ8BRO8_7.mp4	0.0	218.04474902153015	0.34174084663391113
49	149.09079694747925	response	0	2		47.0	2.5	/experiments/knapen_aot/videos/R_S_yt-LsCCAQ8BRO8_7.mp4	0.0	218.37820386886597	
49	149.09908294677734	movie	1		301.0	47.0	2.5	/experiments/knapen_aot/videos/R_S_yt-LsCCAQ8BRO8_7.mp4	0.0	218.38648986816406	2.5082859992980957
49	151.60736894607544	fix_post	2		12.0	47.0	2.5	/experiments/knapen_aot/videos/R_S_yt-LsCCAQ8BRO8_7.mp4	0.0	220.89477586746216	0.10011100769042969
50	151.70747995376587	fix_pre	0		90.0	48.0	2.5	/experiments/knapen_aot/videos/R_S_yt-Q9fI2ar05IE_77.mp4	0.0	220.9948868751526	0.7511711120605469
50	152.4491469860077	response	0	2		48.0	2.5	/experiments/knapen_aot/videos/R_S_yt-Q9fI2ar05IE_77.mp4	0.0	221.7365539073944	
50	152.45865106582642	movie	1		301.0	48.0	2.5	/experiments/knapen_aot/videos/R_S_yt-Q9fI2ar05IE_77.mp4	0.0	221.74605798721313	2.5070629119873047
50	154.96571397781372	fix_post	2		12.0	48.0	2.5	/experiments/knapen_aot/videos/R_S_yt-Q9fI2ar05IE_77.mp4	0.0	224.25312089920044	0.09997200965881348
51	155.06568598747253	fix_pre	0		10.0	49.0	2.5	blank	1.0	224.35309290885925	0.08327102661132812
51	155.1406979560852	response	0	2		49.0	2.5	blank	1.0	224.42810487747192	
51	155.14895701408386	movie	1		301.0	49.0	2.5	blank	1.0	224.43636393547058	2.508384943008423
51	156.69903206825256	response	1	2		49.0	2.5	blank	1.0	225.98643898963928	
51	157.65734195709229	fix_post	2		12.0	49.0	2.5	blank	1.0	226.944748878479	0.09995293617248535
52	157.75729489326477	fix_pre	0		26.0	50.0	2.5	/experiments/knapen_aot/videos/S_yt-X6ivH9SqGu8_306.mp4	0.0	227.0447018146515	0.21666622161865234
52	157.9657518863678	response	0	2		50.0	2.5	/experiments/knapen_aot/videos/S_yt-X6ivH9SqGu8_306.mp4	0.0	227.25315880775452	
52	157.97396111488342	movie	1		301.0	50.0	2.5	/experiments/knapen_aot/videos/S_yt-X6ivH9SqGu8_306.mp4	0.0	227.26136803627014	2.5083558559417725
52	160.4823169708252	fix_post	2		12.0	50.0	2.5	/experiments/knapen_aot/videos/S_yt-X6ivH9SqGu8_306.mp4	0.0	229.7697238922119	0.10001397132873535
53	160.58233094215393	fix_pre	0		40.0	51.0	2.5	/experiments/knapen_aot/videos/R_S_yt-XRQ_LSGGr3Y_712.mp4	0.0	229.86973786354065	0.3345010280609131
53	160.90737891197205	response	0	2		51.0	2.5	/experiments/knapen_aot/videos/R_S_yt-XRQ_LSGGr3Y_712.mp4	0.0	230.19478583335876	
53	160.91683197021484	movie	1		301.0	51.0	2.5	/experiments/knapen_aot/videos/R_S_yt-XRQ_LSGGr3Y_712.mp4	0.0	230.20423889160156	2.507344961166382
53	162.7432999610901	response	1	2		51.0	2.5	/experiments/knapen_aot/videos/R_S_yt-XRQ_LSGGr3Y_712.mp4	0.0	232.0307068824768	
53	163.42417693138123	fix_post	2		12.0	51.0	2.5	/experiments/knapen_aot/videos/R_S_yt-XRQ_LSGGr3Y_712.mp4	0.0	232.71158385276794	0.09983015060424805
54	163.52400708198547	fix_pre	0		39.0	52.0	2.5	/experiments/knapen_aot/videos/R_S_yt-3V8US8ZD3NU_229.mp4	0.0	232.8114140033722	0.3249659538269043
54	163.84077191352844	response	0	2		52.0	2.5	/experiments/knapen_aot/videos/R_S_yt-3V8US8ZD3NU_229.mp4	0.0	233.12817883491516	
54	163.84897303581238	movie	1		301.0	52.0	2.5	/experiments/knapen_aot/videos/R_S_yt-3V8US8ZD3NU_229.mp4	0.0	233.1363799571991	2.508305072784424
54	166.3572781085968	fix_post	2		12.0	52.0	2.5	/experiments/knapen_aot/videos/R_S_yt-3V8US8ZD3NU_229.mp4	0.0	235.64468502998352	0.09997200965881348
55	166.45725011825562	fix_pre	0		31.0	53.0	2.5	/experiments/knapen_aot/videos/S_yt-3NMDWrZr1Z4_255.mp4	0.0	235.74465703964233	0.2583458423614502
55	166.70736694335938	response	0	2		53.0	2.5	/experiments/knapen_aot/videos/S_yt-3NMDWrZr1Z4_255.mp4	0.0	235.9947738647461	
55	166.71559596061707	movie	1		301.0	53.0	2.5	/experiments/knapen_aot/videos/S_yt-3NMDWrZr1Z4_255.mp4	0.0	236.00300288200378	2.508350133895874
55	169.22394609451294	fix_post	2		12.0	53.0	2.5	/experiments/knapen_aot/videos/S_yt-3NMDWrZr1Z4_255.mp4	0.0	238.51135301589966	0.1000218391418457
56	169.32396793365479	fix_pre	0		53.0	54.0	2.5	/experiments/knapen_aot/videos/S_yt-LsCCAQ8BRO8_7.mp4	0.0	238.6113748550415	0.4416539669036865
56	169.7573320865631	response	0	2		54.0	2.5	/experiments/knapen_aot/videos/S_yt-LsCCAQ8BRO8_7.mp4	0.0	239.04473900794983	
56	169.76562190055847	movie	1		301.0	54.0	2.5	/experiments/knapen_aot/videos/S_yt-LsCCAQ8BRO8_7.mp4	0.0	239.0530288219452	2.508376121520996
56	172.27399802207947	fix_post	2		12.0	54.0	2.5	/experiments/knapen_aot/videos/S_yt-LsCCAQ8BRO8_7.mp4	0.0	241.5614049434662	0.10002398490905762
57	172.37402200698853	fix_pre	0		44.0	55.0	2.5	blank	1.0	241.66142892837524	0.3665950298309326
57	172.73235893249512	response	0	2		55.0	2.5	blank	1.0	242.01976585388184	
57	172.74061703681946	movie	1		301.0	55.0	2.5	blank	1.0	242.02802395820618	2.5083370208740234
57	174.01562690734863	response	1	2		55.0	2.5	blank	1.0	243.30303382873535	
57	175.03230905532837	response	1	2		55.0	2.5	blank	1.0	244.3197159767151	
57	175.24895405769348	fix_post	2		12.0	55.0	2.5	blank	1.0	244.5363609790802	0.10010504722595215
58	175.34905910491943	fix_pre	0		29.0	56.0	2.5	/experiments/knapen_aot/videos/S_bing-www_dailymotion_com_video_x64c56w_164.mp4	0.0	244.63646602630615	0.24150800704956055
58	175.58232998847961	response	0	2		56.0	2.5	/experiments/knapen_aot/videos/S_bing-www_dailymotion_com_video_x64c56w_164.mp4	0.0	244.86973690986633	
58	175.590567111969	movie	1		180.0	56.0	2.5	/experiments/knapen_aot/videos/S_bing-www_dailymotion_com_video_x64c56w_164.mp4	0.0	244.8779740333557	2.5083539485931396
58	178.09892106056213	fix_post	2		12.0	56.0	2.5	/experiments/knapen_aot/videos/S_bing-www_dailymotion_com_video_x64c56w_164.mp4	0.0	247.38632798194885	0.10000395774841309
58	178.1406750679016	response	2	2		56.0	2.5	/experiments/knapen_aot/videos/S_bing-www_dailymotion_com_video_x64c56w_164.mp4	0.0	247.42808198928833	
59	178.19892501831055	fix_pre	0		52.0	57.0	2.5	/experiments/knapen_aot/videos/S_pexels-c-technical-6763571.mp4	0.0	247.48633193969727	0.4332859516143799
59	178.6239049434662	response	0	2		57.0	2.5	/experiments/knapen_aot/videos/S_pexels-c-technical-6763571.mp4	0.0	247.9113118648529	
59	178.63221096992493	movie	1		192.0	57.0	2.5	/experiments/knapen_aot/videos/S_pexels-c-technical-6763571.mp4	0.0	247.91961789131165	2.508255958557129
59	180.43915700912476	response	1	2		57.0	2.5	/experiments/knapen_aot/videos/S_pexels-c-technical-6763571.mp4	0.0	249.72656393051147	
59	181.14046692848206	fix_post	2		12.0	57.0	2.5	/experiments/knapen_aot/videos/S_pexels-c-technical-6763571.mp4	0.0	250.42787384986877	0.10013508796691895
60	181.24060201644897	fix_pre	0		120.0	58.0	2.5	/experiments/knapen_aot/videos/R_S_yt-GytLOB9Qjro_76.mp4	0.0	250.5280089378357	0.9999048709869385
60	182.23249506950378	response	0	2		58.0	2.5	/experiments/knapen_aot/videos/R_S_yt-GytLOB9Qjro_76.mp4	0.0	251.5199019908905	
60	182.2405068874359	movie	1		301.0	58.0	2.5	/experiments/knapen_aot/videos/R_S_yt-GytLOB9Qjro_76.mp4	0.0	251.52791380882263	2.5083560943603516
60	184.04164505004883	response	1	2		58.0	2.5	/experiments/knapen_aot/videos/R_S_yt-GytLOB9Qjro_76.mp4	0.0	253.32905197143555	
60	184.74886298179626	fix_post	2		12.0	58.0	2.5	/experiments/knapen_aot/videos/R_S_yt-GytLOB9Qjro_76.mp4	0.0	254.03626990318298	0.10002613067626953
61	184.84888911247253	fix_pre	0		41.0	59.0	2.5	/experiments/knapen_aot/videos/R_S_yt-xCh0LI9VKeI_28.mp4	0.0	254.13629603385925	0.3415849208831787
61	185.18233489990234	response	0	2		59.0	2.5	/experiments/knapen_aot/videos/R_S_yt-xCh0LI9VKeI_28.mp4	0.0	254.46974182128906	
61	185.1904740333557	movie	1		301.0	59.0	2.5	/experiments/knapen_aot/videos/R_S_yt-xCh0LI9VKeI_28.mp4	0.0	254.47788095474243	2.508492946624756
61	187.69896697998047	fix_post	2		12.0	59.0	2.5	/experiments/knapen_aot/videos/R_S_yt-xCh0LI9VKeI_28.mp4	0.0	256.9863739013672	0.09999608993530273
62	187.79896306991577	fix_pre	0		28.0	60.0	2.5	/experiments/knapen_aot/videos/S_yt-wjBwgccZM5k_150.mp4	0.0	257.0863699913025	0.2331678867340088
62	188.01646208763123	response	0	2		60.0	2.5	/experiments/knapen_aot/videos/S_yt-wjBwgccZM5k_150.mp4	0.0	257.30386900901794	
62	188.03213095664978	movie	1		301.0	60.0	2.5	/experiments/knapen_aot/videos/S_yt-wjBwgccZM5k_150.mp4	0.0	257.3195378780365	2.5084099769592285
62	190.540540933609	fix_post	2		12.0	60.0	2.5	/experiments/knapen_aot/videos/S_yt-wjBwgccZM5k_150.mp4	0.0	259.8279478549957	0.1001739501953125
63	190.64071488380432	fix_pre	0		45.0	61.0	2.5	/experiments/knapen_aot/videos/R_S_yt-kA0ybjmoiMc_284.mp4	0.0	259.92812180519104	0.37480807304382324
63	191.0073049068451	response	0	2		61.0	2.5	/experiments/knapen_aot/videos/R_S_yt-kA0ybjmoiMc_284.mp4	0.0	260.2947118282318	
63	191.01552295684814	movie	1		301.0	61.0	2.5	/experiments/knapen_aot/videos/R_S_yt-kA0ybjmoiMc_284.mp4	0.0	260.30292987823486	2.5082521438598633
63	193.523775100708	fix_post	2		12.0	61.0	2.5	/experiments/knapen_aot/videos/R_S_yt-kA0ybjmoiMc_284.mp4	0.0	262.8111820220947	0.10007882118225098
64	193.62385392189026	fix_pre	0		20.0	62.0	2.5	blank	1.0	262.911260843277	0.16663599014282227
64	193.78226900100708	response	0	2		62.0	2.5	blank	1.0	263.0696759223938	
64	193.79048991203308	movie	1		301.0	62.0	2.5	blank	1.0	263.0778968334198	2.50835919380188
64	196.29884910583496	fix_post	2		12.0	62.0	2.5	blank	1.0	265.5862560272217	0.09991192817687988
65	196.39876103401184	fix_pre	0		24.0	63.0	2.5	/experiments/knapen_aot/videos/S_b1-3.mp4	0.0	265.68616795539856	0.19996190071105957
65	196.59057998657227	response	0	2		63.0	2.5	/experiments/knapen_aot/videos/S_b1-3.mp4	0.0	265.877986907959	
65	196.5987229347229	movie	1		163.0	63.0	2.5	/experiments/knapen_aot/videos/S_b1-3.mp4	0.0	265.8861298561096	2.508413076400757
65	199.10713601112366	fix_post	2		12.0	63.0	2.5	/experiments/knapen_aot/videos/S_b1-3.mp4	0.0	268.3945429325104	0.10000300407409668
66	199.20713901519775	fix_pre	0		37.0	64.0	2.5	/experiments/knapen_aot/videos/S_yt-xNKgc8sFYvU_35.mp4	0.0	268.4945459365845	0.3082239627838135
66	199.50728392601013	response	0	2		64.0	2.5	/experiments/knapen_aot/videos/S_yt-xNKgc8sFYvU_35.mp4	0.0	268.79469084739685	
66	199.51536297798157	movie	1		301.0	64.0	2.5	/experiments/knapen_aot/videos/S_yt-xNKgc8sFYvU_35.mp4	0.0	268.8027698993683	2.5084710121154785
66	201.29151892662048	response	1	2		64.0	2.5	/experiments/knapen_aot/videos/S_yt-xNKgc8sFYvU_35.mp4	0.0	270.5789258480072	
66	202.02383399009705	fix_post	2		12.0	64.0	2.5	/experiments/knapen_aot/videos/S_yt-xNKgc8sFYvU_35.mp4	0.0	271.31124091148376	0.0999898910522461
67	202.1238238811493	fix_pre	0		33.0	65.0	2.5	/experiments/knapen_aot/videos/S_yt-26obL-Z5obg_131.mp4	0.0	271.411230802536	0.27495312690734863
67	202.39052295684814	response	0	2		65.0	2.5	/experiments/knapen_aot/videos/S_yt-26obL-Z5obg_131.mp4	0.0	271.67792987823486	
67	202.39877700805664	movie	1		301.0	65.0	2.5	/experiments/knapen_aot/videos/S_yt-26obL-Z5obg_131.mp4	0.0	271.68618392944336	2.5083260536193848
67	203.04887008666992	response	1	2		65.0	2.5	/experiments/knapen_aot/videos/S_yt-26obL-Z5obg_131.mp4	0.0	272.33627700805664	
67	204.90710306167603	fix_post	2		12.0	65.0	2.5	/experiments/knapen_aot/videos/S_yt-26obL-Z5obg_131.mp4	0.0	274.19450998306274	0.10001182556152344
68	205.00711488723755	fix_pre	0		23.0	66.0	2.5	/experiments/knapen_aot/videos/S_yt-CNq5mTA8oXY_176.mp4	0.0	274.29452180862427	0.19162702560424805
68	205.19053292274475	response	0	2		66.0	2.5	/experiments/knapen_aot/videos/S_yt-CNq5mTA8oXY_176.mp4	0.0	274.47793984413147	
68	205.1987419128418	movie	1		301.0	66.0	2.5	/experiments/knapen_aot/videos/S_yt-CNq5mTA8oXY_176.mp4	0.0	274.4861488342285	2.508268117904663
68	207.70701003074646	fix_post	2		12.0	66.0	2.5	/experiments/knapen_aot/videos/S_yt-CNq5mTA8oXY_176.mp4	0.0	276.9944169521332	0.10009193420410156
69	207.80710196495056	fix_pre	0		14.0	67.0	2.5	/experiments/knapen_aot/videos/S_yt-Xkx53mjgj2E_30.mp4	0.0	277.0945088863373	0.11665606498718262
69	207.91555190086365	response	0	2		67.0	2.5	/experiments/knapen_aot/videos/S_yt-Xkx53mjgj2E_30.mp4	0.0	277.20295882225037	
69	207.92375802993774	movie	1		301.0	67.0	2.5	/experiments/knapen_aot/videos/S_yt-Xkx53mjgj2E_30.mp4	0.0	277.21116495132446	2.508331060409546
69	209.45131611824036	response	1	2		67.0	2.5	/experiments/knapen_aot/videos/S_yt-Xkx53mjgj2E_30.mp4	0.0	278.7387230396271	
69	210.4320890903473	fix_post	2		12.0	67.0	2.5	/experiments/knapen_aot/videos/S_yt-Xkx53mjgj2E_30.mp4	0.0	279.719496011734	0.09998583793640137
70	210.5320749282837	fix_pre	0		48.0	68.0	2.5	/experiments/knapen_aot/videos/S_yt-n2PnABmSpxI_115.mp4	0.0	279.8194818496704	0.3999149799346924
70	210.91629195213318	response	0	2		68.0	2.5	/experiments/knapen_aot/videos/S_yt-n2PnABmSpxI_115.mp4	0.0	280.2036988735199	
70	210.93198990821838	movie	1		301.0	68.0	2.5	/experiments/knapen_aot/videos/S_yt-n2PnABmSpxI_115.mp4	0.0	280.2193968296051	2.5084149837493896
70	213.44040489196777	fix_post	2		12.0	68.0	2.5	/experiments/knapen_aot/videos/S_yt-n2PnABmSpxI_115.mp4	0.0	282.7278118133545	0.09999799728393555
71	213.5404028892517	fix_pre	0		43.0	69.0	2.5	blank	1.0	282.8278098106384	0.358288049697876
71	213.89050197601318	response	0	2		69.0	2.5	blank	1.0	283.1779088973999	
71	213.89869093894958	movie	1		301.0	69.0	2.5	blank	1.0	283.1860978603363	2.5083961486816406
71	216.40708708763123	fix_post	2		12.0	69.0	2.5	blank	1.0	285.69449400901794	0.09997200965881348
72	216.50705909729004	fix_pre	0		64.0	70.0	2.5	/experiments/knapen_aot/videos/S_production_ID_4101225.mp4	0.0	285.79446601867676	0.5342378616333008
72	217.03209900856018	response	0	2		70.0	2.5	/experiments/knapen_aot/videos/S_production_ID_4101225.mp4	0.0	286.3195059299469	
72	217.04129695892334	movie	1		201.0	70.0	2.5	/experiments/knapen_aot/videos/S_production_ID_4101225.mp4	0.0	286.32870388031006	2.507420063018799
72	219.54871702194214	fix_post	2		12.0	70.0	2.5	/experiments/knapen_aot/videos/S_production_ID_4101225.mp4	0.0	288.83612394332886	0.10003089904785156
73	219.64874792099	fix_pre	0		28.0	71.0	2.5	/experiments/knapen_aot/videos/S_yt--jzScB82vKI_212.mp4	0.0	288.9361548423767	0.23328900337219238
73	219.87382102012634	response	0	2		71.0	2.5	/experiments/knapen_aot/videos/S_yt--jzScB82vKI_212.mp4	0.0	289.16122794151306	
73	219.88203692436218	movie	1		301.0	71.0	2.5	/experiments/knapen_aot/videos/S_yt--jzScB82vKI_212.mp4	0.0	289.1694438457489	2.5083231925964355
73	222.39036011695862	fix_post	2		12.0	71.0	2.5	/experiments/knapen_aot/videos/S_yt--jzScB82vKI_212.mp4	0.0	291.67776703834534	0.09998178482055664
74	222.49034190177917	fix_pre	0		63.0	72.0	2.5	/experiments/knapen_aot/videos/R_S_yt-NQSCGMpo-p8_118.mp4	0.0	291.7777488231659	0.5249781608581543
74	223.0072410106659	response	0	2		72.0	2.5	/experiments/knapen_aot/videos/R_S_yt-NQSCGMpo-p8_118.mp4	0.0	292.2946479320526	
74	223.01532006263733	movie	1		301.0	72.0	2.5	/experiments/knapen_aot/videos/R_S_yt-NQSCGMpo-p8_118.mp4	0.0	292.30272698402405	2.508435010910034
74	225.52375507354736	fix_post	2		12.0	72.0	2.5	/experiments/knapen_aot/videos/R_S_yt-NQSCGMpo-p8_118.mp4	0.0	294.8111619949341	0.09998703002929688
75	225.62374210357666	fix_pre	0		161.0	73.0	2.5	/experiments/knapen_aot/videos/R_S_CR_A009_C007_SDR_20191113_SDR_2K_AVC.mp4	0.0	294.9111490249634	1.3415069580078125
75	226.94965291023254	response	0	2		73.0	2.5	/experiments/knapen_aot/videos/R_S_CR_A009_C007_SDR_20191113_SDR_2K_AVC.mp4	0.0	296.23705983161926	
75	226.96524906158447	movie	1		169.0	73.0	2.5	/experiments/knapen_aot/videos/R_S_CR_A009_C007_SDR_20191113_SDR_2K_AVC.mp4	0.0	296.2526559829712	2.5084118843078613
75	229.47366094589233	fix_post	2		12.0	73.0	2.5	/experiments/knapen_aot/videos/R_S_CR_A009_C007_SDR_20191113_SDR_2K_AVC.mp4	0.0	298.76106786727905	0.10001206398010254
76	229.57367300987244	fix_pre	0		37.0	74.0	2.5	/experiments/knapen_aot/videos/S_production_ID_4325509.mp4	0.0	298.86107993125916	0.3082730770111084
76	229.87378907203674	response	0	2		74.0	2.5	/experiments/knapen_aot/videos/S_production_ID_4325509.mp4	0.0	299.16119599342346	
76	229.88194608688354	movie	1		207.0	74.0	2.5	/experiments/knapen_aot/videos/S_production_ID_4325509.mp4	0.0	299.16935300827026	2.508464813232422
76	232.39041090011597	fix_post	2		12.0	74.0	2.5	/experiments/knapen_aot/videos/S_production_ID_4325509.mp4	0.0	301.6778178215027	0.09992599487304688
77	232.490336894989	fix_pre	0		38.0	75.0	2.5	/experiments/knapen_aot/videos/R_S_yt-y6zr69M0yHI_76.mp4	0.0	301.77774381637573	0.3166329860687256
77	232.79868388175964	response	0	2		75.0	2.5	/experiments/knapen_aot/videos/R_S_yt-y6zr69M0yHI_76.mp4	0.0	302.08609080314636	
77	232.80696988105774	movie	1		301.0	75.0	2.5	/experiments/knapen_aot/videos/R_S_yt-y6zr69M0yHI_76.mp4	0.0	302.09437680244446	2.5083460807800293
77	235.31531596183777	fix_post	2		12.0	75.0	2.5	/experiments/knapen_aot/videos/R_S_yt-y6zr69M0yHI_76.mp4	0.0	304.6027228832245	0.09996700286865234
78	235.41528296470642	fix_pre	0		41.0	76.0	2.5	/experiments/knapen_aot/videos/S_wc-zkO_omg3nTvg_5.mp4	0.0	304.70268988609314	0.3416759967803955
78	235.7487690448761	response	0	2		76.0	2.5	/experiments/knapen_aot/videos/S_wc-zkO_omg3nTvg_5.mp4	0.0	305.0361759662628	
78	235.75695896148682	movie	1		164.0	76.0	2.5	/experiments/knapen_aot/videos/S_wc-zkO_omg3nTvg_5.mp4	0.0	305.04436588287354	2.5083401203155518
78	238.26529908180237	fix_post	2		12.0	76.0	2.5	/experiments/knapen_aot/videos/S_wc-zkO_omg3nTvg_5.mp4	0.0	307.5527060031891	0.10001683235168457
79	238.36531591415405	fix_pre	0		27.0	77.0	2.5	blank	1.0	307.65272283554077	0.22498512268066406
79	238.58210110664368	response	0	2		77.0	2.5	blank	1.0	307.8695080280304	
79	238.59030103683472	movie	1		301.0	77.0	2.5	blank	1.0	307.87770795822144	2.5083069801330566
79	240.94033002853394	response	1	2		77.0	2.5	blank	1.0	310.22773694992065	
79	241.09860801696777	fix_post	2		12.0	77.0	2.5	blank	1.0	310.3860149383545	0.09995388984680176
80	241.19856190681458	fix_pre	0		31.0	78.0	2.5	/experiments/knapen_aot/videos/S_yt-5DD4XtHSA9Q_171.mp4	0.0	310.4859688282013	0.25913119316101074
80	241.44868302345276	response	0	2		78.0	2.5	/experiments/knapen_aot/videos/S_yt-5DD4XtHSA9Q_171.mp4	0.0	310.7360899448395	
80	241.4576930999756	movie	1		301.0	78.0	2.5	/experiments/knapen_aot/videos/S_yt-5DD4XtHSA9Q_171.mp4	0.0	310.7451000213623	2.507676839828491
80	243.96536993980408	fix_post	2		12.0	78.0	2.5	/experiments/knapen_aot/videos/S_yt-5DD4XtHSA9Q_171.mp4	0.0	313.2527768611908	0.09992504119873047
81	244.0652949810028	fix_pre	0		33.0	79.0	2.5	/experiments/knapen_aot/videos/S_production_ID_4428752.mp4	0.0	313.3527019023895	0.2749519348144531
81	244.33210492134094	response	0	2		79.0	2.5	/experiments/knapen_aot/videos/S_production_ID_4428752.mp4	0.0	313.61951184272766	
81	244.34024691581726	movie	1		163.0	79.0	2.5	/experiments/knapen_aot/videos/S_production_ID_4428752.mp4	0.0	313.627653837204	2.508409023284912
81	246.84865593910217	fix_post	2		12.0	79.0	2.5	/experiments/knapen_aot/videos/S_production_ID_4428752.mp4	0.0	316.1360628604889	0.10005497932434082
82	246.9487109184265	fix_pre	0		30.0	80.0	2.5	/experiments/knapen_aot/videos/S_-vPHq-7BJ70_15.mp4	0.0	316.23611783981323	0.2498490810394287
82	247.19032311439514	response	0	2		80.0	2.5	/experiments/knapen_aot/videos/S_-vPHq-7BJ70_15.mp4	0.0	316.47773003578186	
82	247.19855999946594	movie	1		301.0	80.0	2.5	/experiments/knapen_aot/videos/S_-vPHq-7BJ70_15.mp4	0.0	316.48596692085266	2.5084118843078613
82	249.7069718837738	fix_post	2		12.0	80.0	2.5	/experiments/knapen_aot/videos/S_-vPHq-7BJ70_15.mp4	0.0	318.9943788051605	0.10000205039978027
83	249.80697393417358	fix_pre	0		19.0	81.0	2.5	/experiments/knapen_aot/videos/R_S_production_ID_4428752.mp4	0.0	319.0943808555603	0.1582779884338379
83	249.95704889297485	response	0	2		81.0	2.5	/experiments/knapen_aot/videos/R_S_production_ID_4428752.mp4	0.0	319.2444558143616	
83	249.96525192260742	movie	1		163.0	81.0	2.5	/experiments/knapen_aot/videos/R_S_production_ID_4428752.mp4	0.0	319.25265884399414	2.5083460807800293
83	252.47359800338745	fix_post	2		12.0	81.0	2.5	/experiments/knapen_aot/videos/R_S_production_ID_4428752.mp4	0.0	321.76100492477417	0.10022592544555664
84	252.573823928833	fix_pre	0		23.0	82.0	2.5	/experiments/knapen_aot/videos/S_yt-BIDHmbneB10_998.mp4	0.0	321.8612308502197	0.19141507148742676
84	252.75706911087036	response	0	2		82.0	2.5	/experiments/knapen_aot/videos/S_yt-BIDHmbneB10_998.mp4	0.0	322.0444760322571	
84	252.76523900032043	movie	1		301.0	82.0	2.5	/experiments/knapen_aot/videos/S_yt-BIDHmbneB10_998.mp4	0.0	322.05264592170715	2.5084049701690674
84	255.2736439704895	fix_post	2		12.0	82.0	2.5	/experiments/knapen_aot/videos/S_yt-BIDHmbneB10_998.mp4	0.0	324.5610508918762	0.09995698928833008
85	255.37360095977783	fix_pre	0		68.0	83.0	2.5	blank	1.0	324.66100788116455	0.5666611194610596
85	255.9321060180664	response	0	2		83.0	2.5	blank	1.0	325.2195129394531	
85	255.9402620792389	movie	1		301.0	83.0	2.5	blank	1.0	325.2276690006256	2.5083229541778564
85	258.0320188999176	response	1	2		83.0	2.5	blank	1.0	327.3194258213043	
85	258.44858503341675	fix_post	2		12.0	83.0	2.5	blank	1.0	327.73599195480347	0.0999598503112793
87	258.548544883728	stim	0		468.0					327.83595180511475	3.902066230773926
87	258.7830650806427	response	0	2						328.0704720020294	
87	262.4451370239258	response	0	space						331.7325439453125	
