trial_nr	onset	event_type	phase	response	nr_frames	movie_index	movie_duration	movie_file	blank	onset_abs	duration
0	0.13333702087402344	stim	0		98.0					291.81867003440857	0.8170139789581299
0	0.9416449069976807	response	0	space						292.6269779205322	
1	0.9503509998321533	stim	0		121.0					292.6356840133667	1.0075650215148926
1	1.957916021347046	stim	1		120.0					293.6432490348816	1.0000159740447998
1	2.0414838790893555	response	1	space						293.7268168926239	
2	2.9579319953918457	fix_pre	0		17.0	0.0	2.5	/experiments/knapen_aot/videos/R_S_yt-rPYBHkUEwwc_10.mp4	0.0	294.6432650089264	0.14165091514587402
2	3.0913400650024414	response	0	space		0.0	2.5	/experiments/knapen_aot/videos/R_S_yt-rPYBHkUEwwc_10.mp4	0.0	294.776673078537	
2	3.0995829105377197	movie	1		296.0	0.0	2.5	/experiments/knapen_aot/videos/R_S_yt-rPYBHkUEwwc_10.mp4	0.0	294.78491592407227	2.508392095565796
2	5.607975006103516	fix_post	2		12.0	0.0	2.5	/experiments/knapen_aot/videos/R_S_yt-rPYBHkUEwwc_10.mp4	0.0	297.29330801963806	0.09998393058776855
3	5.707958936691284	fix_pre	0		28.0	1.0	2.5	/experiments/knapen_aot/videos/R_S_yt-XHYYkaHcEtM_72.mp4	0.0	297.39329195022583	0.2347729206085205
3	5.934666872024536	response	0	2		1.0	2.5	/experiments/knapen_aot/videos/R_S_yt-XHYYkaHcEtM_72.mp4	0.0	297.6199998855591	
3	5.942731857299805	movie	1		301.0	1.0	2.5	/experiments/knapen_aot/videos/R_S_yt-XHYYkaHcEtM_72.mp4	0.0	297.62806487083435	2.5069591999053955
3	8.4496910572052	fix_post	2		12.0	1.0	2.5	/experiments/knapen_aot/videos/R_S_yt-XHYYkaHcEtM_72.mp4	0.0	300.13502407073975	0.09981584548950195
4	8.549506902694702	fix_pre	0		46.0	2.0	2.5	/experiments/knapen_aot/videos/R_S_yt-FLMdajcbjcg_35.mp4	0.0	300.23483991622925	0.3833930492401123
4	8.924722909927368	response	0	2		2.0	2.5	/experiments/knapen_aot/videos/R_S_yt-FLMdajcbjcg_35.mp4	0.0	300.6100559234619	
4	8.932899951934814	movie	1		301.0	2.0	2.5	/experiments/knapen_aot/videos/R_S_yt-FLMdajcbjcg_35.mp4	0.0	300.61823296546936	2.508441925048828
4	11.441341876983643	fix_post	2		12.0	2.0	2.5	/experiments/knapen_aot/videos/R_S_yt-FLMdajcbjcg_35.mp4	0.0	303.1266748905182	0.09991717338562012
5	11.541259050369263	fix_pre	0		243.0	3.0	2.5	/experiments/knapen_aot/videos/S_Pexels_Videos_2795736.mp4	0.0	303.2265920639038	2.0249509811401367
5	13.558032989501953	response	0	2		3.0	2.5	/experiments/knapen_aot/videos/S_Pexels_Videos_2795736.mp4	0.0	305.2433660030365	
5	13.5662100315094	movie	1		164.0	3.0	2.5	/experiments/knapen_aot/videos/S_Pexels_Videos_2795736.mp4	0.0	305.25154304504395	2.508420944213867
5	16.074630975723267	fix_post	2		12.0	3.0	2.5	/experiments/knapen_aot/videos/S_Pexels_Videos_2795736.mp4	0.0	307.7599639892578	0.09991192817687988
6	16.174542903900146	fix_pre	0		17.0	4.0	2.5	/experiments/knapen_aot/videos/S_pexels-cottonbro-6789231.mp4	0.0	307.8598759174347	0.141618013381958
6	16.308053970336914	response	0	2		4.0	2.5	/experiments/knapen_aot/videos/S_pexels-cottonbro-6789231.mp4	0.0	307.99338698387146	
6	16.316160917282104	movie	1		187.0	4.0	2.5	/experiments/knapen_aot/videos/S_pexels-cottonbro-6789231.mp4	0.0	308.00149393081665	2.508423089981079
6	18.824584007263184	fix_post	2		12.0	4.0	2.5	/experiments/knapen_aot/videos/S_pexels-cottonbro-6789231.mp4	0.0	310.50991702079773	0.10000395774841309
7	18.924587965011597	fix_pre	0		26.0	5.0	2.5	/experiments/knapen_aot/videos/S_yt-AOP7QYQntPI_28.mp4	0.0	310.60992097854614	0.2165699005126953
7	19.133198976516724	response	0	2		5.0	2.5	/experiments/knapen_aot/videos/S_yt-AOP7QYQntPI_28.mp4	0.0	310.81853199005127	
7	19.141157865524292	movie	1		301.0	5.0	2.5	/experiments/knapen_aot/videos/S_yt-AOP7QYQntPI_28.mp4	0.0	310.82649087905884	2.508336067199707
7	21.649493932724	fix_post	2		12.0	5.0	2.5	/experiments/knapen_aot/videos/S_yt-AOP7QYQntPI_28.mp4	0.0	313.33482694625854	0.09991693496704102
8	21.74941086769104	fix_pre	0		42.0	6.0	2.5	blank	1.0	313.4347438812256	0.3501131534576416
8	22.091485023498535	response	0	2		6.0	2.5	blank	1.0	313.7768180370331	
8	22.09952402114868	movie	1		301.0	6.0	2.5	blank	1.0	313.7848570346832	2.508262872695923
8	24.607786893844604	fix_post	2		12.0	6.0	2.5	blank	1.0	316.29311990737915	0.10003805160522461
9	24.70782494544983	fix_pre	0		45.0	7.0	2.5	/experiments/knapen_aot/videos/S_yt-Ub5Xx5BqIOk_74.mp4	0.0	316.3931579589844	0.3749959468841553
9	25.074760913848877	response	0	2		7.0	2.5	/experiments/knapen_aot/videos/S_yt-Ub5Xx5BqIOk_74.mp4	0.0	316.7600939273834	
9	25.082820892333984	movie	1		301.0	7.0	2.5	/experiments/knapen_aot/videos/S_yt-Ub5Xx5BqIOk_74.mp4	0.0	316.76815390586853	2.5083980560302734
9	27.591218948364258	fix_post	2		12.0	7.0	2.5	/experiments/knapen_aot/videos/S_yt-Ub5Xx5BqIOk_74.mp4	0.0	319.2765519618988	0.09998607635498047
10	27.69120502471924	fix_pre	0		184.0	8.0	2.5	/experiments/knapen_aot/videos/R_S_yt-ZzC953ahaxs_195.mp4	0.0	319.3765380382538	1.5332708358764648
10	29.216233015060425	response	0	2		8.0	2.5	/experiments/knapen_aot/videos/R_S_yt-ZzC953ahaxs_195.mp4	0.0	320.90156602859497	
10	29.224475860595703	movie	1		301.0	8.0	2.5	/experiments/knapen_aot/videos/R_S_yt-ZzC953ahaxs_195.mp4	0.0	320.90980887413025	2.508268117904663
10	31.732743978500366	fix_post	2		12.0	8.0	2.5	/experiments/knapen_aot/videos/R_S_yt-ZzC953ahaxs_195.mp4	0.0	323.4180769920349	0.10010194778442383
11	31.83284592628479	fix_pre	0		30.0	9.0	2.5	/experiments/knapen_aot/videos/R_S_yt-dkBlyE3igk0_44.mp4	0.0	323.51817893981934	0.24997591972351074
11	32.074585914611816	response	0	2		9.0	2.5	/experiments/knapen_aot/videos/R_S_yt-dkBlyE3igk0_44.mp4	0.0	323.75991892814636	
11	32.0828218460083	movie	1		301.0	9.0	2.5	/experiments/knapen_aot/videos/R_S_yt-dkBlyE3igk0_44.mp4	0.0	323.76815485954285	2.5083320140838623
11	34.59115386009216	fix_post	2		12.0	9.0	2.5	/experiments/knapen_aot/videos/R_S_yt-dkBlyE3igk0_44.mp4	0.0	326.2764868736267	0.09998106956481934
12	34.69113492965698	fix_pre	0		31.0	10.0	2.5	/experiments/knapen_aot/videos/R_S_ILSVRC2015_train_00079001.mp4	0.0	326.3764679431915	0.2583150863647461
12	34.94130492210388	response	0	2		10.0	2.5	/experiments/knapen_aot/videos/R_S_ILSVRC2015_train_00079001.mp4	0.0	326.6266379356384	
12	34.94945001602173	movie	1		301.0	10.0	2.5	/experiments/knapen_aot/videos/R_S_ILSVRC2015_train_00079001.mp4	0.0	326.6347830295563	2.508327007293701
12	37.45777702331543	fix_post	2		12.0	10.0	2.5	/experiments/knapen_aot/videos/R_S_ILSVRC2015_train_00079001.mp4	0.0	329.14311003685	0.09995198249816895
13	37.5577290058136	fix_pre	0		142.0	11.0	2.5	/experiments/knapen_aot/videos/S_ILSVRC2015_train_00594000.mp4	0.0	329.24306201934814	1.1833689212799072
13	38.73292589187622	response	0	2		11.0	2.5	/experiments/knapen_aot/videos/S_ILSVRC2015_train_00594000.mp4	0.0	330.41825890541077	
13	38.741097927093506	movie	1		301.0	11.0	2.5	/experiments/knapen_aot/videos/S_ILSVRC2015_train_00594000.mp4	0.0	330.42643094062805	2.5082919597625732
13	41.24938988685608	fix_post	2		12.0	11.0	2.5	/experiments/knapen_aot/videos/S_ILSVRC2015_train_00594000.mp4	0.0	332.9347229003906	0.09992408752441406
14	41.34931397438049	fix_pre	0		29.0	12.0	2.5	blank	1.0	333.03464698791504	0.24174094200134277
14	41.58292484283447	response	0	2		12.0	2.5	blank	1.0	333.268257856369	
14	41.591054916381836	movie	1		301.0	12.0	2.5	blank	1.0	333.2763879299164	2.5083601474761963
14	44.09941506385803	fix_post	2		12.0	12.0	2.5	blank	1.0	335.7847480773926	0.1001739501953125
15	44.199589014053345	fix_pre	0		21.0	13.0	2.5	/experiments/knapen_aot/videos/S_yt-452RKqKIeRU_16.mp4	0.0	335.8849220275879	0.17482995986938477
15	44.366183042526245	response	0	4		13.0	2.5	/experiments/knapen_aot/videos/S_yt-452RKqKIeRU_16.mp4	0.0	336.0515160560608	
15	44.37441897392273	movie	1		301.0	13.0	2.5	/experiments/knapen_aot/videos/S_yt-452RKqKIeRU_16.mp4	0.0	336.0597519874573	2.508331060409546
15	46.882750034332275	fix_post	2		12.0	13.0	2.5	/experiments/knapen_aot/videos/S_yt-452RKqKIeRU_16.mp4	0.0	338.5680830478668	0.09998393058776855
16	46.982733964920044	fix_pre	0		11.0	14.0	2.5	/experiments/knapen_aot/videos/S_g201_AK_A003_C014_SDR_20191113_SDR_2K_AVC.mp4	0.0	338.6680669784546	0.09164190292358398
16	47.06618595123291	response	0	4		14.0	2.5	/experiments/knapen_aot/videos/S_g201_AK_A003_C014_SDR_20191113_SDR_2K_AVC.mp4	0.0	338.75151896476746	
16	47.07437586784363	movie	1		165.0	14.0	2.5	/experiments/knapen_aot/videos/S_g201_AK_A003_C014_SDR_20191113_SDR_2K_AVC.mp4	0.0	338.7597088813782	2.5083651542663574
16	49.582741022109985	fix_post	2		12.0	14.0	2.5	/experiments/knapen_aot/videos/S_g201_AK_A003_C014_SDR_20191113_SDR_2K_AVC.mp4	0.0	341.26807403564453	0.09996795654296875
17	49.682708978652954	fix_pre	0		12.0	15.0	2.5	/experiments/knapen_aot/videos/R_S_production_ID_4428752.mp4	0.0	341.3680419921875	0.10000205039978027
17	49.77458691596985	response	0	4		15.0	2.5	/experiments/knapen_aot/videos/R_S_production_ID_4428752.mp4	0.0	341.4599199295044	
17	49.782711029052734	movie	1		172.0	15.0	2.5	/experiments/knapen_aot/videos/R_S_production_ID_4428752.mp4	0.0	341.4680440425873	2.508352041244507
17	52.29106307029724	fix_post	2		12.0	15.0	2.5	/experiments/knapen_aot/videos/R_S_production_ID_4428752.mp4	0.0	343.9763960838318	0.09998583793640137
18	52.39104890823364	fix_pre	0		32.0	16.0	2.5	/experiments/knapen_aot/videos/S_yt-kawmL3oVw8c_2.mp4	0.0	344.0763819217682	0.26659703254699707
18	52.64950895309448	response	0	4		16.0	2.5	/experiments/knapen_aot/videos/S_yt-kawmL3oVw8c_2.mp4	0.0	344.334841966629	
18	52.65764594078064	movie	1		301.0	16.0	2.5	/experiments/knapen_aot/videos/S_yt-kawmL3oVw8c_2.mp4	0.0	344.3429789543152	2.5083401203155518
18	55.16598606109619	fix_post	2		12.0	16.0	2.5	/experiments/knapen_aot/videos/S_yt-kawmL3oVw8c_2.mp4	0.0	346.85131907463074	0.10004782676696777
19	55.26603388786316	fix_pre	0		55.0	17.0	2.5	/experiments/knapen_aot/videos/R_S_yt-TxU1H5A6BaQ_52.mp4	0.0	346.9513669013977	0.4582951068878174
19	55.71612596511841	response	0	4		17.0	2.5	/experiments/knapen_aot/videos/R_S_yt-TxU1H5A6BaQ_52.mp4	0.0	347.40145897865295	
19	55.72432899475098	movie	1		301.0	17.0	2.5	/experiments/knapen_aot/videos/R_S_yt-TxU1H5A6BaQ_52.mp4	0.0	347.4096620082855	2.5083460807800293
19	58.232675075531006	fix_post	2		12.0	17.0	2.5	/experiments/knapen_aot/videos/R_S_yt-TxU1H5A6BaQ_52.mp4	0.0	349.91800808906555	0.09994077682495117
20	58.33261585235596	fix_pre	0		169.0	18.0	2.5	/experiments/knapen_aot/videos/R_S_yt-Ub5Xx5BqIOk_74.mp4	0.0	350.0179488658905	1.4083740711212158
20	59.732845067977905	response	0	4		18.0	2.5	/experiments/knapen_aot/videos/R_S_yt-Ub5Xx5BqIOk_74.mp4	0.0	351.41817808151245	
20	59.74098992347717	movie	1		301.0	18.0	2.5	/experiments/knapen_aot/videos/R_S_yt-Ub5Xx5BqIOk_74.mp4	0.0	351.4263229370117	2.5083940029144287
20	62.2493839263916	fix_post	2		12.0	18.0	2.5	/experiments/knapen_aot/videos/R_S_yt-Ub5Xx5BqIOk_74.mp4	0.0	353.93471693992615	0.09995412826538086
21	62.34933805465698	fix_pre	0		63.0	19.0	2.5	/experiments/knapen_aot/videos/S_yt-cokedWwwYYs_136.mp4	0.0	354.0346710681915	0.5248978137969971
21	62.866167068481445	response	0	4		19.0	2.5	/experiments/knapen_aot/videos/S_yt-cokedWwwYYs_136.mp4	0.0	354.551500082016	
21	62.87423586845398	movie	1		301.0	19.0	2.5	/experiments/knapen_aot/videos/S_yt-cokedWwwYYs_136.mp4	0.0	354.5595688819885	2.5084760189056396
21	65.38271188735962	fix_post	2		12.0	19.0	2.5	/experiments/knapen_aot/videos/S_yt-cokedWwwYYs_136.mp4	0.0	357.06804490089417	0.09996604919433594
22	65.48267793655396	fix_pre	0		170.0	20.0	2.5	blank	1.0	357.1680109500885	1.4166450500488281
22	66.89112591743469	response	0	4		20.0	2.5	blank	1.0	358.57645893096924	
22	66.89932298660278	movie	1		301.0	20.0	2.5	blank	1.0	358.58465600013733	2.5083370208740234
22	69.4076600074768	fix_post	2		12.0	20.0	2.5	blank	1.0	361.09299302101135	0.09994792938232422
23	69.50760793685913	fix_pre	0		27.0	21.0	2.5	/experiments/knapen_aot/videos/R_S_yt-452RKqKIeRU_16.mp4	0.0	361.1929409503937	0.22501707077026367
23	69.71716904640198	response	0	2		21.0	2.5	/experiments/knapen_aot/videos/R_S_yt-452RKqKIeRU_16.mp4	0.0	361.4025020599365	
23	69.7326250076294	movie	1		300.0	21.0	2.5	/experiments/knapen_aot/videos/R_S_yt-452RKqKIeRU_16.mp4	0.0	361.41795802116394	2.508333921432495
23	72.24095892906189	fix_post	2		12.0	21.0	2.5	/experiments/knapen_aot/videos/R_S_yt-452RKqKIeRU_16.mp4	0.0	363.92629194259644	0.09999704360961914
24	72.34095597267151	fix_pre	0		50.0	22.0	2.5	/experiments/knapen_aot/videos/S_wc-auTIuWLTxxkn_5.mp4	0.0	364.02628898620605	0.4166219234466553
24	72.7493588924408	response	0	2		22.0	2.5	/experiments/knapen_aot/videos/S_wc-auTIuWLTxxkn_5.mp4	0.0	364.43469190597534	
24	72.75757789611816	movie	1		167.0	22.0	2.5	/experiments/knapen_aot/videos/S_wc-auTIuWLTxxkn_5.mp4	0.0	364.4429109096527	2.5083940029144287
24	75.26597189903259	fix_post	2		12.0	22.0	2.5	/experiments/knapen_aot/videos/S_wc-auTIuWLTxxkn_5.mp4	0.0	366.95130491256714	0.10006403923034668
25	75.36603593826294	fix_pre	0		147.0	23.0	2.5	/experiments/knapen_aot/videos/S_yt-4oacL3aXtlU_11.mp4	0.0	367.0513689517975	1.224884033203125
25	76.58269906044006	response	0	2		23.0	2.5	/experiments/knapen_aot/videos/S_yt-4oacL3aXtlU_11.mp4	0.0	368.2680320739746	
25	76.59091997146606	movie	1		301.0	23.0	2.5	/experiments/knapen_aot/videos/S_yt-4oacL3aXtlU_11.mp4	0.0	368.2762529850006	2.5083260536193848
25	79.09924602508545	fix_post	2		12.0	23.0	2.5	/experiments/knapen_aot/videos/S_yt-4oacL3aXtlU_11.mp4	0.0	370.78457903862	0.09999585151672363
26	79.19924187660217	fix_pre	0		103.0	24.0	2.5	/experiments/knapen_aot/videos/S_yt-cgYmOmMzn98_103.mp4	0.0	370.8845748901367	0.8583409786224365
26	80.04942393302917	response	0	2		24.0	2.5	/experiments/knapen_aot/videos/S_yt-cgYmOmMzn98_103.mp4	0.0	371.7347569465637	
26	80.05758285522461	movie	1		301.0	24.0	2.5	/experiments/knapen_aot/videos/S_yt-cgYmOmMzn98_103.mp4	0.0	371.74291586875916	2.5082850456237793
26	82.56586790084839	fix_post	2		12.0	24.0	2.5	/experiments/knapen_aot/videos/S_yt-cgYmOmMzn98_103.mp4	0.0	374.25120091438293	0.09997415542602539
27	82.66584205627441	fix_pre	0		27.0	25.0	2.5	/experiments/knapen_aot/videos/R_S_yt-kawmL3oVw8c_2.mp4	0.0	374.35117506980896	0.22504281997680664
27	82.88275384902954	response	0	2		25.0	2.5	/experiments/knapen_aot/videos/R_S_yt-kawmL3oVw8c_2.mp4	0.0	374.5680868625641	
27	82.89088487625122	movie	1		299.0	25.0	2.5	/experiments/knapen_aot/videos/R_S_yt-kawmL3oVw8c_2.mp4	0.0	374.57621788978577	2.5083420276641846
27	85.3992269039154	fix_post	2		12.0	25.0	2.5	/experiments/knapen_aot/videos/R_S_yt-kawmL3oVw8c_2.mp4	0.0	377.08455991744995	0.10001015663146973
28	85.49923706054688	fix_pre	0		118.0	26.0	2.5	blank	1.0	377.1845700740814	0.9833099842071533
28	86.47438907623291	response	0	2		26.0	2.5	blank	1.0	378.15972208976746	
28	86.48254704475403	movie	1		301.0	26.0	2.5	blank	1.0	378.1678800582886	2.508333921432495
28	88.99088096618652	fix_post	2		12.0	26.0	2.5	blank	1.0	380.67621397972107	0.09998488426208496
29	89.09086585044861	fix_pre	0		32.0	27.0	2.5	/experiments/knapen_aot/videos/S_yt-MXLxcvKZDHw_22.mp4	0.0	380.77619886398315	0.26776719093322754
29	89.34936690330505	response	0	2		27.0	2.5	/experiments/knapen_aot/videos/S_yt-MXLxcvKZDHw_22.mp4	0.0	381.0346999168396	
29	89.35863304138184	movie	1		301.0	27.0	2.5	/experiments/knapen_aot/videos/S_yt-MXLxcvKZDHw_22.mp4	0.0	381.0439660549164	2.507260799407959
29	91.8658938407898	fix_post	2		12.0	27.0	2.5	/experiments/knapen_aot/videos/S_yt-MXLxcvKZDHw_22.mp4	0.0	383.55122685432434	0.09999704360961914
30	91.96589088439941	fix_pre	0		63.0	28.0	2.5	/experiments/knapen_aot/videos/R_S_ILSVRC2015_train_00569006.mp4	0.0	383.65122389793396	0.5249340534210205
30	92.48267388343811	response	0	2		28.0	2.5	/experiments/knapen_aot/videos/R_S_ILSVRC2015_train_00569006.mp4	0.0	384.16800689697266	
30	92.49082493782043	movie	1		301.0	28.0	2.5	/experiments/knapen_aot/videos/R_S_ILSVRC2015_train_00569006.mp4	0.0	384.176157951355	2.508389949798584
30	94.99921488761902	fix_post	2		12.0	28.0	2.5	/experiments/knapen_aot/videos/R_S_ILSVRC2015_train_00569006.mp4	0.0	386.68454790115356	0.09993815422058105
31	95.0991530418396	fix_pre	0		36.0	29.0	2.5	/experiments/knapen_aot/videos/S_yt-QOnORDmVMyU_10.mp4	0.0	386.78448605537415	0.30109691619873047
31	95.3835060596466	response	0	2		29.0	2.5	/experiments/knapen_aot/videos/S_yt-QOnORDmVMyU_10.mp4	0.0	387.06883907318115	
31	95.40024995803833	movie	1		301.0	29.0	2.5	/experiments/knapen_aot/videos/S_yt-QOnORDmVMyU_10.mp4	0.0	387.0855829715729	2.507236957550049
31	97.90748691558838	fix_post	2		12.0	29.0	2.5	/experiments/knapen_aot/videos/S_yt-QOnORDmVMyU_10.mp4	0.0	389.5928199291229	0.09998297691345215
32	98.00746989250183	fix_pre	0		179.0	30.0	2.5	/experiments/knapen_aot/videos/S_yt-y6JsUW0eSW8_32.mp4	0.0	389.6928029060364	1.49167799949646
32	99.49103689193726	response	0	2		30.0	2.5	/experiments/knapen_aot/videos/S_yt-y6JsUW0eSW8_32.mp4	0.0	391.1763699054718	
32	99.49914789199829	movie	1		301.0	30.0	2.5	/experiments/knapen_aot/videos/S_yt-y6JsUW0eSW8_32.mp4	0.0	391.18448090553284	2.508418083190918
32	102.00756597518921	fix_post	2		12.0	30.0	2.5	/experiments/knapen_aot/videos/S_yt-y6JsUW0eSW8_32.mp4	0.0	393.69289898872375	0.09997200965881348
33	102.10753798484802	fix_pre	0		21.0	31.0	2.5	/experiments/knapen_aot/videos/R_S_production_ID_4802710.mp4	0.0	393.79287099838257	0.1749708652496338
33	102.27423405647278	response	0	4		31.0	2.5	/experiments/knapen_aot/videos/R_S_production_ID_4802710.mp4	0.0	393.9595670700073	
33	102.28250885009766	movie	1		167.0	31.0	2.5	/experiments/knapen_aot/videos/R_S_production_ID_4802710.mp4	0.0	393.9678418636322	2.5083210468292236
33	104.79082989692688	fix_post	2		12.0	31.0	2.5	/experiments/knapen_aot/videos/R_S_production_ID_4802710.mp4	0.0	396.4761629104614	0.10003900527954102
34	104.89086890220642	fix_pre	0		23.0	32.0	2.5	/experiments/knapen_aot/videos/R_S_yt--jzScB82vKI_212.mp4	0.0	396.57620191574097	0.1915440559387207
34	105.07429194450378	response	0	4		32.0	2.5	/experiments/knapen_aot/videos/R_S_yt--jzScB82vKI_212.mp4	0.0	396.75962495803833	
34	105.08241295814514	movie	1		301.0	32.0	2.5	/experiments/knapen_aot/videos/R_S_yt--jzScB82vKI_212.mp4	0.0	396.7677459716797	2.5083889961242676
34	107.59080195426941	fix_post	2		12.0	32.0	2.5	/experiments/knapen_aot/videos/R_S_yt--jzScB82vKI_212.mp4	0.0	399.27613496780396	0.10002803802490234
35	107.69082999229431	fix_pre	0		170.0	33.0	2.5	/experiments/knapen_aot/videos/S_video_inspire_alabama_montgomery_countryside_00007.1080-h264.mp4	0.0	399.37616300582886	1.4176030158996582
35	109.09927892684937	response	0	2		33.0	2.5	/experiments/knapen_aot/videos/S_video_inspire_alabama_montgomery_countryside_00007.1080-h264.mp4	0.0	400.7846119403839	
35	109.10843300819397	movie	1		166.0	33.0	2.5	/experiments/knapen_aot/videos/S_video_inspire_alabama_montgomery_countryside_00007.1080-h264.mp4	0.0	400.7937660217285	2.5073230266571045
35	111.61575603485107	fix_post	2		12.0	33.0	2.5	/experiments/knapen_aot/videos/S_video_inspire_alabama_montgomery_countryside_00007.1080-h264.mp4	0.0	403.3010890483856	0.0999748706817627
36	111.71573090553284	fix_pre	0		28.0	34.0	2.5	/experiments/knapen_aot/videos/S_yt-4BAsE47kJNk_88.mp4	0.0	403.4010639190674	0.23335814476013184
36	111.94085693359375	response	0	4		34.0	2.5	/experiments/knapen_aot/videos/S_yt-4BAsE47kJNk_88.mp4	0.0	403.6261899471283	
36	111.94908905029297	movie	1		299.0	34.0	2.5	/experiments/knapen_aot/videos/S_yt-4BAsE47kJNk_88.mp4	0.0	403.6344220638275	2.508314847946167
36	114.45740389823914	fix_post	2		12.0	34.0	2.5	/experiments/knapen_aot/videos/S_yt-4BAsE47kJNk_88.mp4	0.0	406.1427369117737	0.09995698928833008
37	114.55736088752747	fix_pre	0		47.0	35.0	2.5	blank	1.0	406.242693901062	0.3916940689086914
37	114.94086790084839	response	0	4		35.0	2.5	blank	1.0	406.62620091438293	
37	114.94905495643616	movie	1		301.0	35.0	2.5	blank	1.0	406.6343879699707	2.5083560943603516
37	117.45741105079651	fix_post	2		12.0	35.0	2.5	blank	1.0	409.14274406433105	0.10003399848937988
38	117.55744504928589	fix_pre	0		30.0	36.0	2.5	/experiments/knapen_aot/videos/R_S_ILSVRC2015_train_00369002.mp4	0.0	409.24277806282043	0.24993491172790527
38	117.79923605918884	response	0	2		36.0	2.5	/experiments/knapen_aot/videos/R_S_ILSVRC2015_train_00369002.mp4	0.0	409.4845690727234	
38	117.8073799610138	movie	1		301.0	36.0	2.5	/experiments/knapen_aot/videos/R_S_ILSVRC2015_train_00369002.mp4	0.0	409.49271297454834	2.5083670616149902
38	120.31574702262878	fix_post	2		12.0	36.0	2.5	/experiments/knapen_aot/videos/R_S_ILSVRC2015_train_00369002.mp4	0.0	412.00108003616333	0.10000801086425781
39	120.41575503349304	fix_pre	0		48.0	37.0	2.5	/experiments/knapen_aot/videos/S_yt-ZzC953ahaxs_195.mp4	0.0	412.1010880470276	0.4009389877319336
39	120.80755186080933	response	0	2		37.0	2.5	/experiments/knapen_aot/videos/S_yt-ZzC953ahaxs_195.mp4	0.0	412.4928848743439	
39	120.81669402122498	movie	1		301.0	37.0	2.5	/experiments/knapen_aot/videos/S_yt-ZzC953ahaxs_195.mp4	0.0	412.5020270347595	2.5074679851531982
39	123.32416200637817	fix_post	2		12.0	37.0	2.5	/experiments/knapen_aot/videos/S_yt-ZzC953ahaxs_195.mp4	0.0	415.0094950199127	0.0999000072479248
40	123.4240620136261	fix_pre	0		72.0	38.0	2.5	/experiments/knapen_aot/videos/S_yt-hRAqAwRhmwE_58.mp4	0.0	415.10939502716064	0.600924015045166
40	124.01587796211243	response	0	2		38.0	2.5	/experiments/knapen_aot/videos/S_yt-hRAqAwRhmwE_58.mp4	0.0	415.701210975647	
40	124.02498602867126	movie	1		301.0	38.0	2.5	/experiments/knapen_aot/videos/S_yt-hRAqAwRhmwE_58.mp4	0.0	415.7103190422058	2.50744891166687
40	126.53243494033813	fix_post	2		12.0	38.0	2.5	/experiments/knapen_aot/videos/S_yt-hRAqAwRhmwE_58.mp4	0.0	418.2177679538727	0.0999751091003418
41	126.63241004943848	fix_pre	0		38.0	39.0	2.5	/experiments/knapen_aot/videos/S_ILSVRC2015_train_00601000.mp4	0.0	418.317743062973	0.31661295890808105
41	126.94079899787903	response	0	2		39.0	2.5	/experiments/knapen_aot/videos/S_ILSVRC2015_train_00601000.mp4	0.0	418.6261320114136	
41	126.94902300834656	movie	1		301.0	39.0	2.5	/experiments/knapen_aot/videos/S_ILSVRC2015_train_00601000.mp4	0.0	418.6343560218811	2.508344888687134
41	129.4573678970337	fix_post	2		12.0	39.0	2.5	/experiments/knapen_aot/videos/S_ILSVRC2015_train_00601000.mp4	0.0	421.14270091056824	0.10001802444458008
42	129.55738592147827	fix_pre	0		104.0	40.0	2.5	blank	1.0	421.2427189350128	0.8666400909423828
42	130.41585397720337	response	0	2		40.0	2.5	blank	1.0	422.1011869907379	
42	130.42402601242065	movie	1		301.0	40.0	2.5	blank	1.0	422.1093590259552	2.508280038833618
42	132.93230605125427	fix_post	2		12.0	40.0	2.5	blank	1.0	424.6176390647888	0.10004782676696777
43	133.03235387802124	fix_pre	0		30.0	41.0	2.5	/experiments/knapen_aot/videos/S_comp_H012_C009_PS_v01_SDR_PS_20180925_SDR_2K_AVC.mp4	0.0	424.7176868915558	0.2500159740447998
43	133.27429485321045	response	0	2		41.0	2.5	/experiments/knapen_aot/videos/S_comp_H012_C009_PS_v01_SDR_PS_20180925_SDR_2K_AVC.mp4	0.0	424.959627866745	
43	133.28236985206604	movie	1		166.0	41.0	2.5	/experiments/knapen_aot/videos/S_comp_H012_C009_PS_v01_SDR_PS_20180925_SDR_2K_AVC.mp4	0.0	424.9677028656006	2.50835919380188
43	135.79072904586792	fix_post	2		12.0	41.0	2.5	/experiments/knapen_aot/videos/S_comp_H012_C009_PS_v01_SDR_PS_20180925_SDR_2K_AVC.mp4	0.0	427.47606205940247	0.10000300407409668
44	135.89073204994202	fix_pre	0		20.0	42.0	2.5	/experiments/knapen_aot/videos/S_ILSVRC2015_train_00723001.mp4	0.0	427.57606506347656	0.16665101051330566
44	136.0491280555725	response	0	2		42.0	2.5	/experiments/knapen_aot/videos/S_ILSVRC2015_train_00723001.mp4	0.0	427.73446106910706	
44	136.05738306045532	movie	1		301.0	42.0	2.5	/experiments/knapen_aot/videos/S_ILSVRC2015_train_00723001.mp4	0.0	427.74271607398987	2.5083138942718506
44	138.56569695472717	fix_post	2		12.0	42.0	2.5	/experiments/knapen_aot/videos/S_ILSVRC2015_train_00723001.mp4	0.0	430.2510299682617	0.0999751091003418
45	138.66567206382751	fix_pre	0		189.0	43.0	2.5	/experiments/knapen_aot/videos/S_wc-NzEeGIXLxvwp_19.mp4	0.0	430.35100507736206	1.5749809741973877
45	140.2324619293213	response	0	2		43.0	2.5	/experiments/knapen_aot/videos/S_wc-NzEeGIXLxvwp_19.mp4	0.0	431.91779494285583	
45	140.2406530380249	movie	1		165.0	43.0	2.5	/experiments/knapen_aot/videos/S_wc-NzEeGIXLxvwp_19.mp4	0.0	431.92598605155945	2.5083019733428955
45	142.7489550113678	fix_post	2		12.0	43.0	2.5	/experiments/knapen_aot/videos/S_wc-NzEeGIXLxvwp_19.mp4	0.0	434.43428802490234	0.09997797012329102
46	142.8489329814911	fix_pre	0		39.0	44.0	2.5	/experiments/knapen_aot/videos/R_S_ILSVRC2015_train_00599000.mp4	0.0	434.53426599502563	0.3250279426574707
46	143.16579484939575	response	0	2		44.0	2.5	/experiments/knapen_aot/videos/R_S_ILSVRC2015_train_00599000.mp4	0.0	434.8511278629303	
46	143.17396092414856	movie	1		301.0	44.0	2.5	/experiments/knapen_aot/videos/R_S_ILSVRC2015_train_00599000.mp4	0.0	434.8592939376831	2.508378028869629
46	145.6823389530182	fix_post	2		12.0	44.0	2.5	/experiments/knapen_aot/videos/R_S_ILSVRC2015_train_00599000.mp4	0.0	437.36767196655273	0.09997892379760742
47	145.7823178768158	fix_pre	0		36.0	45.0	2.5	/experiments/knapen_aot/videos/S_pexels-laker-5793000.mp4	0.0	437.46765089035034	0.30002403259277344
47	146.07411694526672	response	0	2		45.0	2.5	/experiments/knapen_aot/videos/S_pexels-laker-5793000.mp4	0.0	437.75944995880127	
47	146.08234190940857	movie	1		165.0	45.0	2.5	/experiments/knapen_aot/videos/S_pexels-laker-5793000.mp4	0.0	437.7676749229431	2.508258104324341
47	148.5906000137329	fix_post	2		12.0	45.0	2.5	/experiments/knapen_aot/videos/S_pexels-laker-5793000.mp4	0.0	440.27593302726746	0.10004091262817383
48	148.69064092636108	fix_pre	0		173.0	46.0	2.5	/experiments/knapen_aot/videos/S_ILSVRC2015_train_00569006.mp4	0.0	440.37597393989563	1.4416530132293701
48	150.12406587600708	response	0	2		46.0	2.5	/experiments/knapen_aot/videos/S_ILSVRC2015_train_00569006.mp4	0.0	441.8093988895416	
48	150.13229393959045	movie	1		301.0	46.0	2.5	/experiments/knapen_aot/videos/S_ILSVRC2015_train_00569006.mp4	0.0	441.817626953125	2.508316993713379
48	152.64061093330383	fix_post	2		12.0	46.0	2.5	/experiments/knapen_aot/videos/S_ILSVRC2015_train_00569006.mp4	0.0	444.3259439468384	0.10003113746643066
49	152.74064207077026	fix_pre	0		55.0	47.0	2.5	/experiments/knapen_aot/videos/S_yt-1UFhynm5g6Y_266.mp4	0.0	444.4259750843048	0.4582939147949219
49	153.19075202941895	response	0	2		47.0	2.5	/experiments/knapen_aot/videos/S_yt-1UFhynm5g6Y_266.mp4	0.0	444.8760850429535	
49	153.19893598556519	movie	1		301.0	47.0	2.5	/experiments/knapen_aot/videos/S_yt-1UFhynm5g6Y_266.mp4	0.0	444.88426899909973	2.5083529949188232
49	155.707288980484	fix_post	2		12.0	47.0	2.5	/experiments/knapen_aot/videos/S_yt-1UFhynm5g6Y_266.mp4	0.0	447.39262199401855	0.10002493858337402
50	155.80731391906738	fix_pre	0		50.0	48.0	2.5	/experiments/knapen_aot/videos/R_S_yt-loYSF41PfgI_79.mp4	0.0	447.49264693260193	0.41659998893737793
50	156.21569204330444	response	0	2		48.0	2.5	/experiments/knapen_aot/videos/R_S_yt-loYSF41PfgI_79.mp4	0.0	447.901025056839	
50	156.22391390800476	movie	1		301.0	48.0	2.5	/experiments/knapen_aot/videos/R_S_yt-loYSF41PfgI_79.mp4	0.0	447.9092469215393	2.5083041191101074
50	158.73221802711487	fix_post	2		12.0	48.0	2.5	/experiments/knapen_aot/videos/R_S_yt-loYSF41PfgI_79.mp4	0.0	450.4175510406494	0.09998703002929688
51	158.83220505714417	fix_pre	0		32.0	49.0	2.5	blank	1.0	450.5175380706787	0.2666149139404297
51	159.0906789302826	response	0	2		49.0	2.5	blank	1.0	450.77601194381714	
51	159.0988199710846	movie	1		301.0	49.0	2.5	blank	1.0	450.78415298461914	2.5084969997406006
51	161.6073169708252	fix_post	2		12.0	49.0	2.5	blank	1.0	453.29264998435974	0.09988093376159668
52	161.7071979045868	fix_pre	0		33.0	50.0	2.5	/experiments/knapen_aot/videos/S_production_ID_4428752.mp4	0.0	453.39253091812134	0.2757599353790283
52	161.9739739894867	response	0	2		50.0	2.5	/experiments/knapen_aot/videos/S_production_ID_4428752.mp4	0.0	453.65930700302124	
52	161.98295783996582	movie	1		168.0	50.0	2.5	/experiments/knapen_aot/videos/S_production_ID_4428752.mp4	0.0	453.66829085350037	2.507573127746582
52	164.4905309677124	fix_post	2		12.0	50.0	2.5	/experiments/knapen_aot/videos/S_production_ID_4428752.mp4	0.0	456.17586398124695	0.10002708435058594
53	164.590558052063	fix_pre	0		41.0	51.0	2.5	/experiments/knapen_aot/videos/S_yt-CR86bVrRwfo_13.mp4	0.0	456.27589106559753	0.3416318893432617
53	164.92403388023376	response	0	2		51.0	2.5	/experiments/knapen_aot/videos/S_yt-CR86bVrRwfo_13.mp4	0.0	456.6093668937683	
53	164.93218994140625	movie	1		301.0	51.0	2.5	/experiments/knapen_aot/videos/S_yt-CR86bVrRwfo_13.mp4	0.0	456.6175229549408	2.508378028869629
53	167.44056797027588	fix_post	2		12.0	51.0	2.5	/experiments/knapen_aot/videos/S_yt-CR86bVrRwfo_13.mp4	0.0	459.1259009838104	0.10012292861938477
54	167.54069089889526	fix_pre	0		44.0	52.0	2.5	/experiments/knapen_aot/videos/S_production_ID_5020953.mp4	0.0	459.2260239124298	0.36650609970092773
54	167.89148807525635	response	0	2		52.0	2.5	/experiments/knapen_aot/videos/S_production_ID_5020953.mp4	0.0	459.5768210887909	
54	167.9071969985962	movie	1		197.0	52.0	2.5	/experiments/knapen_aot/videos/S_production_ID_5020953.mp4	0.0	459.59253001213074	2.5083110332489014
54	170.4155080318451	fix_post	2		12.0	52.0	2.5	/experiments/knapen_aot/videos/S_production_ID_5020953.mp4	0.0	462.10084104537964	0.10002899169921875
55	170.5155370235443	fix_pre	0		77.0	53.0	2.5	/experiments/knapen_aot/videos/R_S_comp_DB_D008_C010_PSNK_v21_SDR_PS_20180914_F0F16157_SDR_2K_AVC.mp4	0.0	462.20087003707886	0.6416950225830078
55	171.14145588874817	response	0	2		53.0	2.5	/experiments/knapen_aot/videos/R_S_comp_DB_D008_C010_PSNK_v21_SDR_PS_20180914_F0F16157_SDR_2K_AVC.mp4	0.0	462.8267889022827	
55	171.15723204612732	movie	1		172.0	53.0	2.5	/experiments/knapen_aot/videos/R_S_comp_DB_D008_C010_PSNK_v21_SDR_PS_20180914_F0F16157_SDR_2K_AVC.mp4	0.0	462.84256505966187	2.5082879066467285
55	173.66551995277405	fix_post	2		12.0	53.0	2.5	/experiments/knapen_aot/videos/R_S_comp_DB_D008_C010_PSNK_v21_SDR_PS_20180914_F0F16157_SDR_2K_AVC.mp4	0.0	465.3508529663086	0.1000521183013916
56	173.76557207107544	fix_pre	0		36.0	54.0	2.5	blank	1.0	465.45090508461	0.30064892768859863
56	174.05728101730347	response	0	2		54.0	2.5	blank	1.0	465.742614030838	
56	174.06622099876404	movie	1		301.0	54.0	2.5	blank	1.0	465.7515540122986	2.507636070251465
56	176.5738570690155	fix_post	2		12.0	54.0	2.5	blank	1.0	468.25919008255005	0.09999585151672363
57	176.67385292053223	fix_pre	0		39.0	55.0	2.5	/experiments/knapen_aot/videos/R_S_yt-PRqnM7xDsus_24.mp4	0.0	468.3591859340668	0.3249499797821045
57	176.99061799049377	response	0	2		55.0	2.5	/experiments/knapen_aot/videos/R_S_yt-PRqnM7xDsus_24.mp4	0.0	468.6759510040283	
57	176.99880290031433	movie	1		300.0	55.0	2.5	/experiments/knapen_aot/videos/R_S_yt-PRqnM7xDsus_24.mp4	0.0	468.6841359138489	2.5083811283111572
57	179.5071840286255	fix_post	2		12.0	55.0	2.5	/experiments/knapen_aot/videos/R_S_yt-PRqnM7xDsus_24.mp4	0.0	471.19251704216003	0.10003399848937988
58	179.60721802711487	fix_pre	0		44.0	56.0	2.5	/experiments/knapen_aot/videos/S_yt-uXDyvrm0Tw0_17.mp4	0.0	471.2925510406494	0.36658692359924316
58	179.9656229019165	response	0	2		56.0	2.5	/experiments/knapen_aot/videos/S_yt-uXDyvrm0Tw0_17.mp4	0.0	471.65095591545105	
58	179.9738049507141	movie	1		301.0	56.0	2.5	/experiments/knapen_aot/videos/S_yt-uXDyvrm0Tw0_17.mp4	0.0	471.65913796424866	2.508404016494751
58	182.48220896720886	fix_post	2		12.0	56.0	2.5	/experiments/knapen_aot/videos/S_yt-uXDyvrm0Tw0_17.mp4	0.0	474.1675419807434	0.09998893737792969
59	182.5821979045868	fix_pre	0		36.0	57.0	2.5	/experiments/knapen_aot/videos/R_S_yt-UBqUhu-GEVg_6.mp4	0.0	474.26753091812134	0.29996705055236816
59	182.87397503852844	response	0	2		57.0	2.5	/experiments/knapen_aot/videos/R_S_yt-UBqUhu-GEVg_6.mp4	0.0	474.559308052063	
59	182.88216495513916	movie	1		301.0	57.0	2.5	/experiments/knapen_aot/videos/R_S_yt-UBqUhu-GEVg_6.mp4	0.0	474.5674979686737	2.5083279609680176
59	185.39049291610718	fix_post	2		12.0	57.0	2.5	/experiments/knapen_aot/videos/R_S_yt-UBqUhu-GEVg_6.mp4	0.0	477.0758259296417	0.10002493858337402
60	185.49051785469055	fix_pre	0		25.0	58.0	2.5	/experiments/knapen_aot/videos/S_yt-QJHe-CoK4iI_170.mp4	0.0	477.1758508682251	0.2082991600036621
60	185.69067096710205	response	0	2		58.0	2.5	/experiments/knapen_aot/videos/S_yt-QJHe-CoK4iI_170.mp4	0.0	477.3760039806366	
60	185.6988170146942	movie	1		301.0	58.0	2.5	/experiments/knapen_aot/videos/S_yt-QJHe-CoK4iI_170.mp4	0.0	477.38415002822876	2.5083110332489014
60	188.20712804794312	fix_post	2		12.0	58.0	2.5	/experiments/knapen_aot/videos/S_yt-QJHe-CoK4iI_170.mp4	0.0	479.89246106147766	0.10006999969482422
61	188.30719804763794	fix_pre	0		193.0	59.0	2.5	/experiments/knapen_aot/videos/S_yt-4oacL3aXtlU_11.mp4	0.0	479.9925310611725	1.608285903930664
61	189.907310962677	response	0	2		59.0	2.5	/experiments/knapen_aot/videos/S_yt-4oacL3aXtlU_11.mp4	0.0	481.59264397621155	
61	189.9154839515686	movie	1		301.0	59.0	2.5	/experiments/knapen_aot/videos/S_yt-4oacL3aXtlU_11.mp4	0.0	481.60081696510315	2.5083069801330566
61	192.42379093170166	fix_post	2		12.0	59.0	2.5	/experiments/knapen_aot/videos/S_yt-4oacL3aXtlU_11.mp4	0.0	484.1091239452362	0.10005402565002441
62	192.52384495735168	fix_pre	0		60.0	60.0	2.5	/experiments/knapen_aot/videos/R_S_yt-PRqnM7xDsus_24.mp4	0.0	484.20917797088623	0.500499963760376
62	193.01563692092896	response	0	2		60.0	2.5	/experiments/knapen_aot/videos/R_S_yt-PRqnM7xDsus_24.mp4	0.0	484.7009699344635	
62	193.02434492111206	movie	1		298.0	60.0	2.5	/experiments/knapen_aot/videos/R_S_yt-PRqnM7xDsus_24.mp4	0.0	484.7096779346466	2.5077741146087646
62	195.53211903572083	fix_post	2		12.0	60.0	2.5	/experiments/knapen_aot/videos/R_S_yt-PRqnM7xDsus_24.mp4	0.0	487.21745204925537	0.09998297691345215
63	195.63210201263428	fix_pre	0		79.0	61.0	2.5	/experiments/knapen_aot/videos/R_S_yt-78k6vUHDWAI_206.mp4	0.0	487.3174350261688	0.6582930088043213
63	196.28230094909668	response	0	2		61.0	2.5	/experiments/knapen_aot/videos/R_S_yt-78k6vUHDWAI_206.mp4	0.0	487.9676339626312	
63	196.2903950214386	movie	1		301.0	61.0	2.5	/experiments/knapen_aot/videos/R_S_yt-78k6vUHDWAI_206.mp4	0.0	487.97572803497314	2.508368968963623
63	198.79876399040222	fix_post	2		12.0	61.0	2.5	/experiments/knapen_aot/videos/R_S_yt-78k6vUHDWAI_206.mp4	0.0	490.48409700393677	0.10001301765441895
64	198.89877700805664	fix_pre	0		27.0	62.0	2.5	blank	1.0	490.5841100215912	0.22492504119873047
64	199.11557793617249	response	0	2		62.0	2.5	blank	1.0	490.80091094970703	
64	199.12370204925537	movie	1		301.0	62.0	2.5	blank	1.0	490.8090350627899	2.508409023284912
64	201.63211107254028	fix_post	2		12.0	62.0	2.5	blank	1.0	493.31744408607483	0.10001087188720703
65	201.7321219444275	fix_pre	0		77.0	63.0	2.5	/experiments/knapen_aot/videos/S_yt-BJsMGxfjrZk_59.mp4	0.0	493.41745495796204	0.6416079998016357
65	202.3655128479004	response	0	2		63.0	2.5	/experiments/knapen_aot/videos/S_yt-BJsMGxfjrZk_59.mp4	0.0	494.05084586143494	
65	202.37372994422913	movie	1		300.0	63.0	2.5	/experiments/knapen_aot/videos/S_yt-BJsMGxfjrZk_59.mp4	0.0	494.0590629577637	2.508342981338501
65	204.88207292556763	fix_post	2		12.0	63.0	2.5	/experiments/knapen_aot/videos/S_yt-BJsMGxfjrZk_59.mp4	0.0	496.5674059391022	0.09999299049377441
66	204.9820659160614	fix_pre	0		16.0	64.0	2.5	/experiments/knapen_aot/videos/R_S_59eT4XDXNno_25.mp4	0.0	496.66739892959595	0.13329601287841797
66	205.10723495483398	response	0	2		64.0	2.5	/experiments/knapen_aot/videos/R_S_59eT4XDXNno_25.mp4	0.0	496.79256796836853	
66	205.11536192893982	movie	1		300.0	64.0	2.5	/experiments/knapen_aot/videos/R_S_59eT4XDXNno_25.mp4	0.0	496.80069494247437	2.508275032043457
66	207.62363696098328	fix_post	2		12.0	64.0	2.5	/experiments/knapen_aot/videos/R_S_59eT4XDXNno_25.mp4	0.0	499.3089699745178	0.10008597373962402
67	207.7237229347229	fix_pre	0		49.0	65.0	2.5	/experiments/knapen_aot/videos/S_comp_GMT306_139NC_139J_3066_CALI_TO_VEGAS_v08_SDR_PS_20180824_SDR_2K_AVC.mp4	0.0	499.40905594825745	0.4083080291748047
67	208.11633706092834	response	0	2		65.0	2.5	/experiments/knapen_aot/videos/S_comp_GMT306_139NC_139J_3066_CALI_TO_VEGAS_v08_SDR_PS_20180824_SDR_2K_AVC.mp4	0.0	499.8016700744629	
67	208.1320309638977	movie	1		166.0	65.0	2.5	/experiments/knapen_aot/videos/S_comp_GMT306_139NC_139J_3066_CALI_TO_VEGAS_v08_SDR_PS_20180824_SDR_2K_AVC.mp4	0.0	499.81736397743225	2.508352041244507
67	210.6403830051422	fix_post	2		12.0	65.0	2.5	/experiments/knapen_aot/videos/S_comp_GMT306_139NC_139J_3066_CALI_TO_VEGAS_v08_SDR_PS_20180824_SDR_2K_AVC.mp4	0.0	502.32571601867676	0.10000896453857422
68	210.7403919696808	fix_pre	0		34.0	66.0	2.5	/experiments/knapen_aot/videos/R_S_yt-4oT-2eGhmUo_102.mp4	0.0	502.42572498321533	0.28375697135925293
68	211.01549696922302	response	0	2		66.0	2.5	/experiments/knapen_aot/videos/R_S_yt-4oT-2eGhmUo_102.mp4	0.0	502.70082998275757	
68	211.02414894104004	movie	1		301.0	66.0	2.5	/experiments/knapen_aot/videos/R_S_yt-4oT-2eGhmUo_102.mp4	0.0	502.7094819545746	2.5078940391540527
68	213.5320429801941	fix_post	2		12.0	66.0	2.5	/experiments/knapen_aot/videos/R_S_yt-4oT-2eGhmUo_102.mp4	0.0	505.21737599372864	0.09991788864135742
68	213.62374997138977	response	2	2		66.0	2.5	/experiments/knapen_aot/videos/R_S_yt-4oT-2eGhmUo_102.mp4	0.0	505.3090829849243	
69	213.63196086883545	fix_pre	0		53.0	67.0	2.5	/experiments/knapen_aot/videos/S_Y003_C009_SDR_2K_AVC.mp4	0.0	505.31729388237	0.4417431354522705
69	214.0654079914093	response	0	2		67.0	2.5	/experiments/knapen_aot/videos/S_Y003_C009_SDR_2K_AVC.mp4	0.0	505.75074100494385	
69	214.07370400428772	movie	1		178.0	67.0	2.5	/experiments/knapen_aot/videos/S_Y003_C009_SDR_2K_AVC.mp4	0.0	505.75903701782227	2.508319854736328
69	216.58202385902405	fix_post	2		12.0	67.0	2.5	/experiments/knapen_aot/videos/S_Y003_C009_SDR_2K_AVC.mp4	0.0	508.2673568725586	0.09999608993530273
70	216.68201994895935	fix_pre	0		7.0	68.0	2.5	/experiments/knapen_aot/videos/S_yt-JmmyeMOFpII_29.mp4	0.0	508.3673529624939	0.059988975524902344
70	216.732666015625	response	0	2		68.0	2.5	/experiments/knapen_aot/videos/S_yt-JmmyeMOFpII_29.mp4	0.0	508.41799902915955	
70	216.74200892448425	movie	1		301.0	68.0	2.5	/experiments/knapen_aot/videos/S_yt-JmmyeMOFpII_29.mp4	0.0	508.4273419380188	2.5067050457000732
70	219.24871397018433	fix_post	2		12.0	68.0	2.5	/experiments/knapen_aot/videos/S_yt-JmmyeMOFpII_29.mp4	0.0	510.9340469837189	0.10003900527954102
71	219.34875297546387	fix_pre	0		1.0	69.0	2.5	blank	1.0	511.0340859889984	0.008800029754638672
71	219.35051107406616	response	0	2		69.0	2.5	blank	1.0	511.0358440876007	
71	219.3575530052185	movie	1		301.0	69.0	2.5	blank	1.0	511.04288601875305	2.5078299045562744
71	221.86538290977478	fix_post	2		12.0	69.0	2.5	blank	1.0	513.5507159233093	0.10010099411010742
72	221.9654839038849	fix_pre	0		25.0	70.0	2.5	/experiments/knapen_aot/videos/R_S_yt-WRBmpC-RxIc_678.mp4	0.0	513.6508169174194	0.20823216438293457
72	222.1654920578003	response	0	2		70.0	2.5	/experiments/knapen_aot/videos/R_S_yt-WRBmpC-RxIc_678.mp4	0.0	513.8508250713348	
72	222.17371606826782	movie	1		301.0	70.0	2.5	/experiments/knapen_aot/videos/R_S_yt-WRBmpC-RxIc_678.mp4	0.0	513.8590490818024	2.508305788040161
72	224.68202185630798	fix_post	2		12.0	70.0	2.5	/experiments/knapen_aot/videos/R_S_yt-WRBmpC-RxIc_678.mp4	0.0	516.3673548698425	0.10000109672546387
73	224.78202295303345	fix_pre	0		65.0	71.0	2.5	/experiments/knapen_aot/videos/S_yt-5fZZrdwkFx0_28.mp4	0.0	516.467355966568	0.5416479110717773
73	225.31545686721802	response	0	2		71.0	2.5	/experiments/knapen_aot/videos/S_yt-5fZZrdwkFx0_28.mp4	0.0	517.0007898807526	
73	225.32367086410522	movie	1		301.0	71.0	2.5	/experiments/knapen_aot/videos/S_yt-5fZZrdwkFx0_28.mp4	0.0	517.0090038776398	2.5083529949188232
73	227.83202385902405	fix_post	2		12.0	71.0	2.5	/experiments/knapen_aot/videos/S_yt-5fZZrdwkFx0_28.mp4	0.0	519.5173568725586	0.10001206398010254
74	227.93203592300415	fix_pre	0		39.0	72.0	2.5	/experiments/knapen_aot/videos/S_ILSVRC2015_train_00303008.mp4	0.0	519.6173689365387	0.3249819278717041
74	228.24876403808594	response	0	2		72.0	2.5	/experiments/knapen_aot/videos/S_ILSVRC2015_train_00303008.mp4	0.0	519.9340970516205	
74	228.25701785087585	movie	1		301.0	72.0	2.5	/experiments/knapen_aot/videos/S_ILSVRC2015_train_00303008.mp4	0.0	519.9423508644104	2.5083529949188232
74	230.76537084579468	fix_post	2		12.0	72.0	2.5	/experiments/knapen_aot/videos/S_ILSVRC2015_train_00303008.mp4	0.0	522.4507038593292	0.0999300479888916
75	230.86530089378357	fix_pre	0		65.0	73.0	2.5	/experiments/knapen_aot/videos/R_S_ILSVRC2015_train_00601000.mp4	0.0	522.5506339073181	0.5416650772094727
75	231.39880990982056	response	0	2		73.0	2.5	/experiments/knapen_aot/videos/R_S_ILSVRC2015_train_00601000.mp4	0.0	523.0841429233551	
75	231.40696597099304	movie	1		301.0	73.0	2.5	/experiments/knapen_aot/videos/R_S_ILSVRC2015_train_00601000.mp4	0.0	523.0922989845276	2.508363962173462
75	233.9153299331665	fix_post	2		12.0	73.0	2.5	/experiments/knapen_aot/videos/R_S_ILSVRC2015_train_00601000.mp4	0.0	525.600662946701	0.0998680591583252
76	234.01519799232483	fix_pre	0		31.0	74.0	2.5	/experiments/knapen_aot/videos/R_S_ILSVRC2015_train_00613000.mp4	0.0	525.7005310058594	0.25875401496887207
76	234.25798296928406	response	0	2		74.0	2.5	/experiments/knapen_aot/videos/R_S_ILSVRC2015_train_00613000.mp4	0.0	525.9433159828186	
76	234.2739520072937	movie	1		301.0	74.0	2.5	/experiments/knapen_aot/videos/R_S_ILSVRC2015_train_00613000.mp4	0.0	525.9592850208282	2.5080459117889404
76	236.78199791908264	fix_post	2		12.0	74.0	2.5	/experiments/knapen_aot/videos/R_S_ILSVRC2015_train_00613000.mp4	0.0	528.4673309326172	0.09997797012329102
77	236.88197588920593	fix_pre	0		154.0	75.0	2.5	blank	1.0	528.5673089027405	1.283355951309204
77	238.1571340560913	response	0	2		75.0	2.5	blank	1.0	529.8424670696259	
77	238.16533184051514	movie	1		301.0	75.0	2.5	blank	1.0	529.8506648540497	2.508280038833618
77	240.67361187934875	fix_post	2		12.0	75.0	2.5	blank	1.0	532.3589448928833	0.09996318817138672
78	240.77357506752014	fix_pre	0		33.0	76.0	2.5	/experiments/knapen_aot/videos/S_yt--xKSTYy9mcA_54.mp4	0.0	532.4589080810547	0.2749819755554199
78	241.04042887687683	response	0	2		76.0	2.5	/experiments/knapen_aot/videos/S_yt--xKSTYy9mcA_54.mp4	0.0	532.7257618904114	
78	241.04855704307556	movie	1		301.0	76.0	2.5	/experiments/knapen_aot/videos/S_yt--xKSTYy9mcA_54.mp4	0.0	532.7338900566101	2.508404016494751
78	243.5569610595703	fix_post	2		12.0	76.0	2.5	/experiments/knapen_aot/videos/S_yt--xKSTYy9mcA_54.mp4	0.0	535.2422940731049	0.09997391700744629
79	243.65693497657776	fix_pre	0		20.0	77.0	2.5	/experiments/knapen_aot/videos/R_S_yt-316ecr1BT84_44.mp4	0.0	535.3422679901123	0.16663694381713867
79	243.81534695625305	response	0	2		77.0	2.5	/experiments/knapen_aot/videos/R_S_yt-316ecr1BT84_44.mp4	0.0	535.5006799697876	
79	243.8235719203949	movie	1		298.0	77.0	2.5	/experiments/knapen_aot/videos/R_S_yt-316ecr1BT84_44.mp4	0.0	535.5089049339294	2.508307933807373
79	246.33187985420227	fix_post	2		12.0	77.0	2.5	/experiments/knapen_aot/videos/R_S_yt-316ecr1BT84_44.mp4	0.0	538.0172128677368	0.10005998611450195
80	246.43193984031677	fix_pre	0		26.0	78.0	2.5	/experiments/knapen_aot/videos/R_S_ILSVRC2015_train_00303008.mp4	0.0	538.1172728538513	0.2169020175933838
80	246.64034605026245	response	0	2		78.0	2.5	/experiments/knapen_aot/videos/R_S_ILSVRC2015_train_00303008.mp4	0.0	538.325679063797	
80	246.64884185791016	movie	1		301.0	78.0	2.5	/experiments/knapen_aot/videos/R_S_ILSVRC2015_train_00303008.mp4	0.0	538.3341748714447	2.508061170578003
80	249.15690302848816	fix_post	2		12.0	78.0	2.5	/experiments/knapen_aot/videos/R_S_ILSVRC2015_train_00303008.mp4	0.0	540.8422360420227	0.09996700286865234
81	249.2568700313568	fix_pre	0		35.0	79.0	2.5	/experiments/knapen_aot/videos/R_S_video-6.mp4	0.0	540.9422030448914	0.29166603088378906
81	249.5404088497162	response	0	2		79.0	2.5	/experiments/knapen_aot/videos/R_S_video-6.mp4	0.0	541.2257418632507	
81	249.5485360622406	movie	1		167.0	79.0	2.5	/experiments/knapen_aot/videos/R_S_video-6.mp4	0.0	541.2338690757751	2.508396863937378
81	252.05693292617798	fix_post	2		12.0	79.0	2.5	/experiments/knapen_aot/videos/R_S_video-6.mp4	0.0	543.7422659397125	0.100006103515625
82	252.1569390296936	fix_pre	0		34.0	80.0	2.5	/experiments/knapen_aot/videos/R_S_Xq0a2BWE3zA_53.mp4	0.0	543.8422720432281	0.28351283073425293
82	252.4319338798523	response	0	2		80.0	2.5	/experiments/knapen_aot/videos/R_S_Xq0a2BWE3zA_53.mp4	0.0	544.1172668933868	
82	252.44045186042786	movie	1		301.0	80.0	2.5	/experiments/knapen_aot/videos/R_S_Xq0a2BWE3zA_53.mp4	0.0	544.1257848739624	2.5081369876861572
82	254.948588848114	fix_post	2		12.0	80.0	2.5	/experiments/knapen_aot/videos/R_S_Xq0a2BWE3zA_53.mp4	0.0	546.6339218616486	0.09994316101074219
83	255.04853200912476	fix_pre	0		42.0	81.0	2.5	/experiments/knapen_aot/videos/R_S_ILSVRC2015_train_00469000.mp4	0.0	546.7338650226593	0.3501908779144287
83	255.39038395881653	response	0	2		81.0	2.5	/experiments/knapen_aot/videos/R_S_ILSVRC2015_train_00469000.mp4	0.0	547.0757169723511	
83	255.39872288703918	movie	1		298.0	81.0	2.5	/experiments/knapen_aot/videos/R_S_ILSVRC2015_train_00469000.mp4	0.0	547.0840559005737	2.508044958114624
83	257.9067678451538	fix_post	2		12.0	81.0	2.5	/experiments/knapen_aot/videos/R_S_ILSVRC2015_train_00469000.mp4	0.0	549.5921008586884	0.10010504722595215
84	258.00687289237976	fix_pre	0		111.0	82.0	2.5	blank	1.0	549.6922059059143	0.9249629974365234
84	258.92374897003174	response	0	2		82.0	2.5	blank	1.0	550.6090819835663	
84	258.9318358898163	movie	1		301.0	82.0	2.5	blank	1.0	550.6171689033508	2.5083541870117188
84	261.440190076828	fix_post	2		12.0	82.0	2.5	blank	1.0	553.1255230903625	0.09998393058776855
85	261.54017400741577	fix_pre	0		24.0	83.0	2.5	/experiments/knapen_aot/videos/S_wc-b4Oquu3WQPRz_45.mp4	0.0	553.2255070209503	0.19996404647827148
85	261.73195004463196	response	0	2		83.0	2.5	/experiments/knapen_aot/videos/S_wc-b4Oquu3WQPRz_45.mp4	0.0	553.4172830581665	
85	261.74013805389404	movie	1		166.0	83.0	2.5	/experiments/knapen_aot/videos/S_wc-b4Oquu3WQPRz_45.mp4	0.0	553.4254710674286	2.508274793624878
85	264.2484128475189	fix_post	2		12.0	83.0	2.5	/experiments/knapen_aot/videos/S_wc-b4Oquu3WQPRz_45.mp4	0.0	555.9337458610535	0.10005307197570801
87	264.34846591949463	stim	0		161.0					556.0337989330292	1.3418481349945068
87	264.68193888664246	response	0	2						556.367271900177	
87	265.68594694137573	response	0	space						557.3712799549103	
