trial_nr	onset	event_type	phase	response	nr_frames	movie_index	movie_duration	movie_file	blank	onset_abs	duration
0	0.13247895240783691	stim	0		72.0					76.33925604820251	0.5965728759765625
0	0.7209959030151367	response	0	space						76.92777299880981	
1	0.7290518283843994	stim	0		121.0					76.93582892417908	1.0079851150512695
1	1.737036943435669	stim	1		120.0					77.94381403923035	1.0000560283660889
2	2.737092971801758	fix_pre	0		146.0	0.0	2.5	/experiments/knapen_aot/videos/R_S_yt-_68FWLGgPYE_25.mp4	0.0	78.94387006759644	1.216609001159668
2	3.945546865463257	response	0	space		0.0	2.5	/experiments/knapen_aot/videos/R_S_yt-_68FWLGgPYE_25.mp4	0.0	80.15232396125793	
2	3.953701972961426	movie	1		300.0	0.0	2.5	/experiments/knapen_aot/videos/R_S_yt-_68FWLGgPYE_25.mp4	0.0	80.1604790687561	2.5083649158477783
2	6.462066888809204	fix_post	2		12.0	0.0	2.5	/experiments/knapen_aot/videos/R_S_yt-_68FWLGgPYE_25.mp4	0.0	82.66884398460388	0.09995794296264648
3	6.562024831771851	fix_pre	0		96.0	1.0	2.5	/experiments/knapen_aot/videos/R_S_ILSVRC2015_train_00373000.mp4	0.0	82.76880192756653	0.8055300712585449
3	7.358696937561035	response	0	2		1.0	2.5	/experiments/knapen_aot/videos/R_S_ILSVRC2015_train_00373000.mp4	0.0	83.56547403335571	
3	7.3675549030303955	movie	1		299.0	1.0	2.5	/experiments/knapen_aot/videos/R_S_ILSVRC2015_train_00373000.mp4	0.0	83.57433199882507	2.5029170513153076
3	9.870471954345703	fix_post	2		12.0	1.0	2.5	/experiments/knapen_aot/videos/R_S_ILSVRC2015_train_00373000.mp4	0.0	86.07724905014038	0.0998530387878418
4	9.970324993133545	fix_pre	0		105.0	2.0	2.5	/experiments/knapen_aot/videos/R_S_ILSVRC2015_train_00715000.mp4	0.0	86.17710208892822	0.8750288486480713
4	10.829610824584961	response	0	2		2.0	2.5	/experiments/knapen_aot/videos/R_S_ILSVRC2015_train_00715000.mp4	0.0	87.03638792037964	
4	10.845353841781616	movie	1		301.0	2.0	2.5	/experiments/knapen_aot/videos/R_S_ILSVRC2015_train_00715000.mp4	0.0	87.0521309375763	2.5083730220794678
4	13.353726863861084	fix_post	2		12.0	2.0	2.5	/experiments/knapen_aot/videos/R_S_ILSVRC2015_train_00715000.mp4	0.0	89.56050395965576	0.09999299049377441
5	13.453719854354858	fix_pre	0		61.0	3.0	2.5	/experiments/knapen_aot/videos/S_yt-osdlC1buTaM_4.mp4	0.0	89.66049695014954	0.5082669258117676
5	13.953848838806152	response	0	2		3.0	2.5	/experiments/knapen_aot/videos/S_yt-osdlC1buTaM_4.mp4	0.0	90.16062593460083	
5	13.961986780166626	movie	1		301.0	3.0	2.5	/experiments/knapen_aot/videos/S_yt-osdlC1buTaM_4.mp4	0.0	90.1687638759613	2.508310079574585
5	16.47029685974121	fix_post	2		12.0	3.0	2.5	/experiments/knapen_aot/videos/S_yt-osdlC1buTaM_4.mp4	0.0	92.67707395553589	0.10003399848937988
6	16.57033085823059	fix_pre	0		85.0	4.0	2.5	/experiments/knapen_aot/videos/S_yt-Bx2kLEUuN0E_456.mp4	0.0	92.77710795402527	0.7083101272583008
6	17.270469903945923	response	0	2		4.0	2.5	/experiments/knapen_aot/videos/S_yt-Bx2kLEUuN0E_456.mp4	0.0	93.4772469997406	
6	17.27864098548889	movie	1		301.0	4.0	2.5	/experiments/knapen_aot/videos/S_yt-Bx2kLEUuN0E_456.mp4	0.0	93.48541808128357	2.5083370208740234
6	19.786978006362915	fix_post	2		12.0	4.0	2.5	/experiments/knapen_aot/videos/S_yt-Bx2kLEUuN0E_456.mp4	0.0	95.99375510215759	0.10005688667297363
7	19.88703489303589	fix_pre	0		53.0	5.0	2.5	blank	1.0	96.09381198883057	0.44159793853759766
7	20.31297278404236	response	0	2		5.0	2.5	blank	1.0	96.51974987983704	
7	20.328632831573486	movie	1		301.0	5.0	2.5	blank	1.0	96.53540992736816	2.5083999633789062
7	22.837032794952393	fix_post	2		12.0	5.0	2.5	blank	1.0	99.04380989074707	0.09996509552001953
8	22.936997890472412	fix_pre	0		95.0	6.0	2.5	/experiments/knapen_aot/videos/S_yt-okYy5Md2U8I_7.mp4	0.0	99.14377498626709	0.7915968894958496
8	23.720479011535645	response	0	2		6.0	2.5	/experiments/knapen_aot/videos/S_yt-okYy5Md2U8I_7.mp4	0.0	99.92725610733032	
8	23.72859477996826	movie	1		301.0	6.0	2.5	/experiments/knapen_aot/videos/S_yt-okYy5Md2U8I_7.mp4	0.0	99.93537187576294	2.5083560943603516
8	26.236950874328613	fix_post	2		12.0	6.0	2.5	/experiments/knapen_aot/videos/S_yt-okYy5Md2U8I_7.mp4	0.0	102.44372797012329	0.10003113746643066
9	26.336982011795044	fix_pre	0		25.0	7.0	2.5	/experiments/knapen_aot/videos/R_S_yt--Ra34zJ69AU_68.mp4	0.0	102.54375910758972	0.20832395553588867
9	26.537078857421875	response	0	2		7.0	2.5	/experiments/knapen_aot/videos/R_S_yt--Ra34zJ69AU_68.mp4	0.0	102.74385595321655	
9	26.545305967330933	movie	1		301.0	7.0	2.5	/experiments/knapen_aot/videos/R_S_yt--Ra34zJ69AU_68.mp4	0.0	102.75208306312561	2.5082998275756836
9	29.053605794906616	fix_post	2		12.0	7.0	2.5	/experiments/knapen_aot/videos/R_S_yt--Ra34zJ69AU_68.mp4	0.0	105.2603828907013	0.10003399848937988
10	29.153639793395996	fix_pre	0		26.0	8.0	2.5	/experiments/knapen_aot/videos/S_production_ID_5144823.mp4	0.0	105.36041688919067	0.2165820598602295
10	29.36212396621704	response	0	2		8.0	2.5	/experiments/knapen_aot/videos/S_production_ID_5144823.mp4	0.0	105.56890106201172	
10	29.370221853256226	movie	1		163.0	8.0	2.5	/experiments/knapen_aot/videos/S_production_ID_5144823.mp4	0.0	105.5769989490509	2.508420944213867
10	31.878642797470093	fix_post	2		12.0	8.0	2.5	/experiments/knapen_aot/videos/S_production_ID_5144823.mp4	0.0	108.08541989326477	0.10001420974731445
11	31.978657007217407	fix_pre	0		34.0	9.0	2.5	/experiments/knapen_aot/videos/R_S_yt-lazG9z4VQAw_99.mp4	0.0	108.18543410301208	0.2845308780670166
11	32.25376892089844	response	0	2		9.0	2.5	/experiments/knapen_aot/videos/R_S_yt-lazG9z4VQAw_99.mp4	0.0	108.46054601669312	
11	32.263187885284424	movie	1		301.0	9.0	2.5	/experiments/knapen_aot/videos/R_S_yt-lazG9z4VQAw_99.mp4	0.0	108.4699649810791	2.5072851181030273
11	34.77047300338745	fix_post	2		12.0	9.0	2.5	/experiments/knapen_aot/videos/R_S_yt-lazG9z4VQAw_99.mp4	0.0	110.97725009918213	0.0998377799987793
12	34.87031078338623	fix_pre	0		51.0	10.0	2.5	/experiments/knapen_aot/videos/S_yt-ZE8Af60eNsI_15.mp4	0.0	111.07708787918091	0.4249751567840576
12	35.28711986541748	response	0	2		10.0	2.5	/experiments/knapen_aot/videos/S_yt-ZE8Af60eNsI_15.mp4	0.0	111.49389696121216	
12	35.29528594017029	movie	1		301.0	10.0	2.5	/experiments/knapen_aot/videos/S_yt-ZE8Af60eNsI_15.mp4	0.0	111.50206303596497	2.5083370208740234
12	35.48718881607056	response	1	2		10.0	2.5	/experiments/knapen_aot/videos/S_yt-ZE8Af60eNsI_15.mp4	0.0	111.69396591186523	
12	37.80362296104431	fix_post	2		12.0	10.0	2.5	/experiments/knapen_aot/videos/S_yt-ZE8Af60eNsI_15.mp4	0.0	114.01040005683899	0.10002684593200684
13	37.90364980697632	fix_pre	0		11.0	11.0	2.5	/experiments/knapen_aot/videos/S_yt-YTQXM5ZjRgg_116.mp4	0.0	114.110426902771	0.09164619445800781
13	37.98709297180176	response	0	2		11.0	2.5	/experiments/knapen_aot/videos/S_yt-YTQXM5ZjRgg_116.mp4	0.0	114.19387006759644	
13	37.995296001434326	movie	1		301.0	11.0	2.5	/experiments/knapen_aot/videos/S_yt-YTQXM5ZjRgg_116.mp4	0.0	114.202073097229	2.50832200050354
13	40.503618001937866	fix_post	2		12.0	11.0	2.5	/experiments/knapen_aot/videos/S_yt-YTQXM5ZjRgg_116.mp4	0.0	116.71039509773254	0.09996986389160156
14	40.60358786582947	fix_pre	0		8.0	12.0	2.5	/experiments/knapen_aot/videos/S_comp_A103_C002_0205DG_v12_SDR_FINAL_20180706_SDR_2K_AVC.mp4	0.0	116.81036496162415	0.06670808792114258
14	40.66210198402405	response	0	2		12.0	2.5	/experiments/knapen_aot/videos/S_comp_A103_C002_0205DG_v12_SDR_FINAL_20180706_SDR_2K_AVC.mp4	0.0	116.86887907981873	
14	40.67029595375061	movie	1		164.0	12.0	2.5	/experiments/knapen_aot/videos/S_comp_A103_C002_0205DG_v12_SDR_FINAL_20180706_SDR_2K_AVC.mp4	0.0	116.87707304954529	2.5083069801330566
14	43.17860293388367	fix_post	2		12.0	12.0	2.5	/experiments/knapen_aot/videos/S_comp_A103_C002_0205DG_v12_SDR_FINAL_20180706_SDR_2K_AVC.mp4	0.0	119.38538002967834	0.09995698928833008
15	43.278559923172	fix_pre	0		19.0	13.0	2.5	blank	1.0	119.48533701896667	0.15843701362609863
15	43.42873477935791	response	0	2		13.0	2.5	blank	1.0	119.63551187515259	
15	43.436996936798096	movie	1		301.0	13.0	2.5	blank	1.0	119.64377403259277	2.5082950592041016
15	45.9452919960022	fix_post	2		12.0	13.0	2.5	blank	1.0	122.15206909179688	0.09988880157470703
16	46.045180797576904	fix_pre	0		28.0	14.0	2.5	/experiments/knapen_aot/videos/R_S_yt-EBuE7GbFw7U_180.mp4	0.0	122.25195789337158	0.23336410522460938
16	46.27037000656128	response	0	2		14.0	2.5	/experiments/knapen_aot/videos/R_S_yt-EBuE7GbFw7U_180.mp4	0.0	122.47714710235596	
16	46.278544902801514	movie	1		299.0	14.0	2.5	/experiments/knapen_aot/videos/R_S_yt-EBuE7GbFw7U_180.mp4	0.0	122.48532199859619	2.5084218978881836
16	48.7869668006897	fix_post	2		12.0	14.0	2.5	/experiments/knapen_aot/videos/R_S_yt-EBuE7GbFw7U_180.mp4	0.0	124.99374389648438	0.09997010231018066
17	48.88693690299988	fix_pre	0		2.0	15.0	2.5	/experiments/knapen_aot/videos/R_S_yt-ybH6uAiFbjc_273.mp4	0.0	125.09371399879456	0.016664981842041016
17	48.88933086395264	response	0	2		15.0	2.5	/experiments/knapen_aot/videos/R_S_yt-ybH6uAiFbjc_273.mp4	0.0	125.09610795974731	
17	48.90360188484192	movie	1		300.0	15.0	2.5	/experiments/knapen_aot/videos/R_S_yt-ybH6uAiFbjc_273.mp4	0.0	125.1103789806366	2.5083138942718506
17	51.41191577911377	fix_post	2		12.0	15.0	2.5	/experiments/knapen_aot/videos/R_S_yt-ybH6uAiFbjc_273.mp4	0.0	127.61869287490845	0.10014104843139648
18	51.512056827545166	fix_pre	0		16.0	16.0	2.5	/experiments/knapen_aot/videos/S_yt-ieA3XwoSko4_98.mp4	0.0	127.71883392333984	0.13314008712768555
18	51.629462003707886	response	0	2		16.0	2.5	/experiments/knapen_aot/videos/S_yt-ieA3XwoSko4_98.mp4	0.0	127.83623909950256	
18	51.64519691467285	movie	1		301.0	16.0	2.5	/experiments/knapen_aot/videos/S_yt-ieA3XwoSko4_98.mp4	0.0	127.85197401046753	2.5083439350128174
18	54.15354084968567	fix_post	2		12.0	16.0	2.5	/experiments/knapen_aot/videos/S_yt-ieA3XwoSko4_98.mp4	0.0	130.36031794548035	0.09998703002929688
19	54.253527879714966	fix_pre	0		11.0	17.0	2.5	/experiments/knapen_aot/videos/R_S_yt-tfHCqgH1guY_235.mp4	0.0	130.46030497550964	0.09273600578308105
19	54.3369038105011	response	0	2		17.0	2.5	/experiments/knapen_aot/videos/R_S_yt-tfHCqgH1guY_235.mp4	0.0	130.54368090629578	
19	54.34626388549805	movie	1		300.0	17.0	2.5	/experiments/knapen_aot/videos/R_S_yt-tfHCqgH1guY_235.mp4	0.0	130.55304098129272	2.507291078567505
19	56.85355496406555	fix_post	2		12.0	17.0	2.5	/experiments/knapen_aot/videos/R_S_yt-tfHCqgH1guY_235.mp4	0.0	133.06033205986023	0.10006499290466309
20	56.953619956970215	fix_pre	0		37.0	18.0	2.5	/experiments/knapen_aot/videos/S_yt-738MRS0yI6g_177.mp4	0.0	133.1603970527649	0.30933594703674316
20	57.24614095687866	response	0	2		18.0	2.5	/experiments/knapen_aot/videos/S_yt-738MRS0yI6g_177.mp4	0.0	133.45291805267334	
20	57.26295590400696	movie	1		301.0	18.0	2.5	/experiments/knapen_aot/videos/S_yt-738MRS0yI6g_177.mp4	0.0	133.46973299980164	2.5073139667510986
20	59.77026987075806	fix_post	2		12.0	18.0	2.5	/experiments/knapen_aot/videos/S_yt-738MRS0yI6g_177.mp4	0.0	135.97704696655273	0.09983706474304199
21	59.8701069355011	fix_pre	0		54.0	19.0	2.5	/experiments/knapen_aot/videos/R_S_KP_A010_C002_SDR_20190717_SDR_2K_AVC.mp4	0.0	136.07688403129578	0.4500410556793213
21	60.31201195716858	response	0	2		19.0	2.5	/experiments/knapen_aot/videos/R_S_KP_A010_C002_SDR_20190717_SDR_2K_AVC.mp4	0.0	136.51878905296326	
21	60.32014799118042	movie	1		166.0	19.0	2.5	/experiments/knapen_aot/videos/R_S_KP_A010_C002_SDR_20190717_SDR_2K_AVC.mp4	0.0	136.5269250869751	2.5083398818969727
21	62.82848787307739	fix_post	2		12.0	19.0	2.5	/experiments/knapen_aot/videos/R_S_KP_A010_C002_SDR_20190717_SDR_2K_AVC.mp4	0.0	139.03526496887207	0.09996604919433594
22	62.92845392227173	fix_pre	0		45.0	20.0	2.5	/experiments/knapen_aot/videos/S_wc-NVeGRb_y_y_5_36.mp4	0.0	139.1352310180664	0.37607908248901367
22	63.29528999328613	response	0	2		20.0	2.5	/experiments/knapen_aot/videos/S_wc-NVeGRb_y_y_5_36.mp4	0.0	139.5020670890808	
22	63.30453300476074	movie	1		165.0	20.0	2.5	/experiments/knapen_aot/videos/S_wc-NVeGRb_y_y_5_36.mp4	0.0	139.51131010055542	2.5072779655456543
22	65.8118109703064	fix_post	2		12.0	20.0	2.5	/experiments/knapen_aot/videos/S_wc-NVeGRb_y_y_5_36.mp4	0.0	142.01858806610107	0.10001587867736816
23	65.91182684898376	fix_pre	0		32.0	21.0	2.5	blank	1.0	142.11860394477844	0.26663708686828613
23	66.1702618598938	response	0	2		21.0	2.5	blank	1.0	142.37703895568848	
23	66.17846393585205	movie	1		301.0	21.0	2.5	blank	1.0	142.38524103164673	2.5083229541778564
23	68.68678689002991	fix_post	2		12.0	21.0	2.5	blank	1.0	144.89356398582458	0.10001611709594727
24	68.78680300712585	fix_pre	0		72.0	22.0	2.5	/experiments/knapen_aot/videos/R_S_Pexels_Videos_278654_1.mp4	0.0	144.99358010292053	0.6009929180145264
24	69.37861490249634	response	0	2		22.0	2.5	/experiments/knapen_aot/videos/R_S_Pexels_Videos_278654_1.mp4	0.0	145.58539199829102	
24	69.38779592514038	movie	1		163.0	22.0	2.5	/experiments/knapen_aot/videos/R_S_Pexels_Videos_278654_1.mp4	0.0	145.59457302093506	2.5072879791259766
24	71.89508390426636	fix_post	2		12.0	22.0	2.5	/experiments/knapen_aot/videos/R_S_Pexels_Videos_278654_1.mp4	0.0	148.10186100006104	0.10000205039978027
25	71.99508595466614	fix_pre	0		29.0	23.0	2.5	/experiments/knapen_aot/videos/S_-IkGMlLHrOI_108.mp4	0.0	148.20186305046082	0.2468559741973877
25	72.22100687026978	response	0	2		23.0	2.5	/experiments/knapen_aot/videos/S_-IkGMlLHrOI_108.mp4	0.0	148.42778396606445	
25	72.24194192886353	movie	1		301.0	23.0	2.5	/experiments/knapen_aot/videos/S_-IkGMlLHrOI_108.mp4	0.0	148.4487190246582	2.5031728744506836
25	74.74511480331421	fix_post	2		12.0	23.0	2.5	/experiments/knapen_aot/videos/S_-IkGMlLHrOI_108.mp4	0.0	150.9518918991089	0.09993910789489746
26	74.8450539112091	fix_pre	0		47.0	24.0	2.5	/experiments/knapen_aot/videos/R_S_pexels-cottonbro-10640532.mp4	0.0	151.05183100700378	0.3917219638824463
26	75.22857594490051	response	0	2		24.0	2.5	/experiments/knapen_aot/videos/R_S_pexels-cottonbro-10640532.mp4	0.0	151.4353530406952	
26	75.23677587509155	movie	1		191.0	24.0	2.5	/experiments/knapen_aot/videos/R_S_pexels-cottonbro-10640532.mp4	0.0	151.44355297088623	2.5083460807800293
26	77.74512195587158	fix_post	2		12.0	24.0	2.5	/experiments/knapen_aot/videos/R_S_pexels-cottonbro-10640532.mp4	0.0	153.95189905166626	0.10012388229370117
27	77.84524583816528	fix_pre	0		14.0	25.0	2.5	/experiments/knapen_aot/videos/R_S_production_ID_4720614.mp4	0.0	154.05202293395996	0.11646699905395508
27	77.9535779953003	response	0	2		25.0	2.5	/experiments/knapen_aot/videos/R_S_production_ID_4720614.mp4	0.0	154.16035509109497	
27	77.96171283721924	movie	1		193.0	25.0	2.5	/experiments/knapen_aot/videos/R_S_production_ID_4720614.mp4	0.0	154.16848993301392	2.5084731578826904
27	80.47018599510193	fix_post	2		12.0	25.0	2.5	/experiments/knapen_aot/videos/R_S_production_ID_4720614.mp4	0.0	156.6769630908966	0.09993195533752441
28	80.57011795043945	fix_pre	0		26.0	26.0	2.5	blank	1.0	156.77689504623413	0.21656084060668945
28	80.77847385406494	response	0	2		26.0	2.5	blank	1.0	156.98525094985962	
28	80.78667879104614	movie	1		301.0	26.0	2.5	blank	1.0	156.99345588684082	2.5083370208740234
28	83.29501581192017	fix_post	2		12.0	26.0	2.5	blank	1.0	159.50179290771484	0.10005807876586914
29	83.39507389068604	fix_pre	0		125.0	27.0	2.5	/experiments/knapen_aot/videos/R_S_comp_H012_C009_PS_v01_SDR_PS_20180925_SDR_2K_AVC.mp4	0.0	159.6018509864807	1.0416510105133057
29	84.42858290672302	response	0	2		27.0	2.5	/experiments/knapen_aot/videos/R_S_comp_H012_C009_PS_v01_SDR_PS_20180925_SDR_2K_AVC.mp4	0.0	160.6353600025177	
29	84.43672490119934	movie	1		164.0	27.0	2.5	/experiments/knapen_aot/videos/R_S_comp_H012_C009_PS_v01_SDR_PS_20180925_SDR_2K_AVC.mp4	0.0	160.64350199699402	2.508307933807373
29	86.94503283500671	fix_post	2		12.0	27.0	2.5	/experiments/knapen_aot/videos/R_S_comp_H012_C009_PS_v01_SDR_PS_20180925_SDR_2K_AVC.mp4	0.0	163.1518099308014	0.10004210472106934
30	87.04507493972778	fix_pre	0		30.0	28.0	2.5	/experiments/knapen_aot/videos/S_yt-wEbfIR14zZ8_7.mp4	0.0	163.25185203552246	0.24997401237487793
30	87.28686594963074	response	0	2		28.0	2.5	/experiments/knapen_aot/videos/S_yt-wEbfIR14zZ8_7.mp4	0.0	163.49364304542542	
30	87.29504895210266	movie	1		301.0	28.0	2.5	/experiments/knapen_aot/videos/S_yt-wEbfIR14zZ8_7.mp4	0.0	163.50182604789734	2.5082788467407227
30	89.80332779884338	fix_post	2		12.0	28.0	2.5	/experiments/knapen_aot/videos/S_yt-wEbfIR14zZ8_7.mp4	0.0	166.01010489463806	0.10002899169921875
31	89.9033567905426	fix_pre	0		38.0	29.0	2.5	/experiments/knapen_aot/videos/R_S_yt-738MRS0yI6g_177.mp4	0.0	166.11013388633728	0.3175320625305176
31	90.21186780929565	response	0	2		29.0	2.5	/experiments/knapen_aot/videos/R_S_yt-738MRS0yI6g_177.mp4	0.0	166.41864490509033	
31	90.22088885307312	movie	1		301.0	29.0	2.5	/experiments/knapen_aot/videos/R_S_yt-738MRS0yI6g_177.mp4	0.0	166.4276659488678	2.5074660778045654
31	92.72835493087769	fix_post	2		12.0	29.0	2.5	/experiments/knapen_aot/videos/R_S_yt-738MRS0yI6g_177.mp4	0.0	168.93513202667236	0.10000801086425781
32	92.82836294174194	fix_pre	0		42.0	30.0	2.5	/experiments/knapen_aot/videos/S_yt-jbvXEFk2Gyw_12.mp4	0.0	169.03514003753662	0.35088300704956055
32	93.17012786865234	response	0	2		30.0	2.5	/experiments/knapen_aot/videos/S_yt-jbvXEFk2Gyw_12.mp4	0.0	169.37690496444702	
32	93.1792459487915	movie	1		300.0	30.0	2.5	/experiments/knapen_aot/videos/S_yt-jbvXEFk2Gyw_12.mp4	0.0	169.38602304458618	2.507431983947754
32	95.68667793273926	fix_post	2		12.0	30.0	2.5	/experiments/knapen_aot/videos/S_yt-jbvXEFk2Gyw_12.mp4	0.0	171.89345502853394	0.0999748706817627
33	95.78665280342102	fix_pre	0		24.0	31.0	2.5	/experiments/knapen_aot/videos/R_S_wc-ZZxbTv7oc5DQ_10.mp4	0.0	171.9934298992157	0.20006608963012695
33	95.97105598449707	response	0	2		31.0	2.5	/experiments/knapen_aot/videos/R_S_wc-ZZxbTv7oc5DQ_10.mp4	0.0	172.17783308029175	
33	95.98671889305115	movie	1		165.0	31.0	2.5	/experiments/knapen_aot/videos/R_S_wc-ZZxbTv7oc5DQ_10.mp4	0.0	172.19349598884583	2.508341073989868
33	98.49505996704102	fix_post	2		12.0	31.0	2.5	/experiments/knapen_aot/videos/R_S_wc-ZZxbTv7oc5DQ_10.mp4	0.0	174.7018370628357	0.09995293617248535
34	98.5950129032135	fix_pre	0		137.0	32.0	2.5	/experiments/knapen_aot/videos/S_yt-kiEFK7bDssE_14.mp4	0.0	174.80178999900818	1.1416749954223633
34	99.72843980789185	response	0	2		32.0	2.5	/experiments/knapen_aot/videos/S_yt-kiEFK7bDssE_14.mp4	0.0	175.93521690368652	
34	99.73668789863586	movie	1		299.0	32.0	2.5	/experiments/knapen_aot/videos/S_yt-kiEFK7bDssE_14.mp4	0.0	175.94346499443054	2.5083000659942627
34	102.24498796463013	fix_post	2		12.0	32.0	2.5	/experiments/knapen_aot/videos/S_yt-kiEFK7bDssE_14.mp4	0.0	178.4517650604248	0.1000218391418457
35	102.34500980377197	fix_pre	0		22.0	33.0	2.5	blank	1.0	178.55178689956665	0.18326902389526367
35	102.52009797096252	response	0	2		33.0	2.5	blank	1.0	178.7268750667572	
35	102.52827882766724	movie	1		301.0	33.0	2.5	blank	1.0	178.7350559234619	2.5083181858062744
35	105.03659701347351	fix_post	2		12.0	33.0	2.5	blank	1.0	181.2433741092682	0.10001683235168457
36	105.1366138458252	fix_pre	0		115.0	34.0	2.5	/experiments/knapen_aot/videos/R_S_yt-FbCVXEJicis_5.mp4	0.0	181.34339094161987	0.9591550827026367
36	106.0792338848114	response	0	2		34.0	2.5	/experiments/knapen_aot/videos/R_S_yt-FbCVXEJicis_5.mp4	0.0	182.28601098060608	
36	106.09576892852783	movie	1		301.0	34.0	2.5	/experiments/knapen_aot/videos/R_S_yt-FbCVXEJicis_5.mp4	0.0	182.3025460243225	2.50752592086792
36	108.60329484939575	fix_post	2		12.0	34.0	2.5	/experiments/knapen_aot/videos/R_S_yt-FbCVXEJicis_5.mp4	0.0	184.81007194519043	0.0999760627746582
37	108.70327091217041	fix_pre	0		181.0	35.0	2.5	/experiments/knapen_aot/videos/S_yt-2IN85w8ptmM_51.mp4	0.0	184.9100480079651	1.5082969665527344
37	110.20343494415283	response	0	2		35.0	2.5	/experiments/knapen_aot/videos/S_yt-2IN85w8ptmM_51.mp4	0.0	186.4102120399475	
37	110.21156787872314	movie	1		301.0	35.0	2.5	/experiments/knapen_aot/videos/S_yt-2IN85w8ptmM_51.mp4	0.0	186.41834497451782	2.5082809925079346
37	112.71984887123108	fix_post	2		12.0	35.0	2.5	/experiments/knapen_aot/videos/S_yt-2IN85w8ptmM_51.mp4	0.0	188.92662596702576	0.10013198852539062
38	112.81998085975647	fix_pre	0		31.0	36.0	2.5	/experiments/knapen_aot/videos/R_S_yt-9qXwehMoX7o_50.mp4	0.0	189.02675795555115	0.258281946182251
38	113.06996989250183	response	0	2		36.0	2.5	/experiments/knapen_aot/videos/R_S_yt-9qXwehMoX7o_50.mp4	0.0	189.2767469882965	
38	113.07826280593872	movie	1		301.0	36.0	2.5	/experiments/knapen_aot/videos/R_S_yt-9qXwehMoX7o_50.mp4	0.0	189.2850399017334	2.508373975753784
38	115.5866367816925	fix_post	2		12.0	36.0	2.5	/experiments/knapen_aot/videos/R_S_yt-9qXwehMoX7o_50.mp4	0.0	191.79341387748718	0.09993219375610352
39	115.68656897544861	fix_pre	0		41.0	37.0	2.5	/experiments/knapen_aot/videos/S_yt-0lfSyC79n14_7.mp4	0.0	191.8933460712433	0.341688871383667
39	116.0200788974762	response	0	2		37.0	2.5	/experiments/knapen_aot/videos/S_yt-0lfSyC79n14_7.mp4	0.0	192.22685599327087	
39	116.02825784683228	movie	1		299.0	37.0	2.5	/experiments/knapen_aot/videos/S_yt-0lfSyC79n14_7.mp4	0.0	192.23503494262695	2.5083799362182617
39	118.53663778305054	fix_post	2		12.0	37.0	2.5	/experiments/knapen_aot/videos/S_yt-0lfSyC79n14_7.mp4	0.0	194.74341487884521	0.09998917579650879
40	118.63662695884705	fix_pre	0		39.0	38.0	2.5	/experiments/knapen_aot/videos/R_S_yt-4Qz0m5IYh10_167.mp4	0.0	194.84340405464172	0.3249950408935547
40	118.95348000526428	response	0	2		38.0	2.5	/experiments/knapen_aot/videos/R_S_yt-4Qz0m5IYh10_167.mp4	0.0	195.16025710105896	
40	118.9616219997406	movie	1		301.0	38.0	2.5	/experiments/knapen_aot/videos/R_S_yt-4Qz0m5IYh10_167.mp4	0.0	195.16839909553528	2.5083048343658447
40	121.46992683410645	fix_post	2		12.0	38.0	2.5	/experiments/knapen_aot/videos/R_S_yt-4Qz0m5IYh10_167.mp4	0.0	197.67670392990112	0.0999760627746582
41	121.5699028968811	fix_pre	0		31.0	39.0	2.5	/experiments/knapen_aot/videos/R_S_yt-vQ-rd-1gwH4_238.mp4	0.0	197.77667999267578	0.2583029270172119
41	121.82006287574768	response	0	2		39.0	2.5	/experiments/knapen_aot/videos/R_S_yt-vQ-rd-1gwH4_238.mp4	0.0	198.02683997154236	
41	121.82820582389832	movie	1		300.0	39.0	2.5	/experiments/knapen_aot/videos/R_S_yt-vQ-rd-1gwH4_238.mp4	0.0	198.034982919693	2.508385181427002
41	124.33659100532532	fix_post	2		12.0	39.0	2.5	/experiments/knapen_aot/videos/R_S_yt-vQ-rd-1gwH4_238.mp4	0.0	200.54336810112	0.09996581077575684
42	124.43655681610107	fix_pre	0		106.0	40.0	2.5	/experiments/knapen_aot/videos/S_yt-V_2XgfjJfeQ_67.mp4	0.0	200.64333391189575	0.8833069801330566
42	125.31170988082886	response	0	2		40.0	2.5	/experiments/knapen_aot/videos/S_yt-V_2XgfjJfeQ_67.mp4	0.0	201.51848697662354	
42	125.31986379623413	movie	1		301.0	40.0	2.5	/experiments/knapen_aot/videos/S_yt-V_2XgfjJfeQ_67.mp4	0.0	201.5266408920288	2.508449077606201
42	126.98666381835938	response	1	2		40.0	2.5	/experiments/knapen_aot/videos/S_yt-V_2XgfjJfeQ_67.mp4	0.0	203.19344091415405	
42	127.82831287384033	fix_post	2		12.0	40.0	2.5	/experiments/knapen_aot/videos/S_yt-V_2XgfjJfeQ_67.mp4	0.0	204.035089969635	0.09987401962280273
43	127.92818689346313	fix_pre	0		19.0	41.0	2.5	blank	1.0	204.1349639892578	0.1583700180053711
43	128.07833290100098	response	0	2		41.0	2.5	blank	1.0	204.28510999679565	
43	128.0865569114685	movie	1		301.0	41.0	2.5	blank	1.0	204.29333400726318	2.508358955383301
43	129.653244972229	response	1	2		41.0	2.5	blank	1.0	205.86002206802368	
43	130.5949158668518	fix_post	2		12.0	41.0	2.5	blank	1.0	206.80169296264648	0.0999910831451416
44	130.69490694999695	fix_pre	0		35.0	42.0	2.5	/experiments/knapen_aot/videos/S_JApTAOdfunE_1251.mp4	0.0	206.90168404579163	0.29160404205322266
44	130.97826886177063	response	0	2		42.0	2.5	/experiments/knapen_aot/videos/S_JApTAOdfunE_1251.mp4	0.0	207.1850459575653	
44	130.98651099205017	movie	1		301.0	42.0	2.5	/experiments/knapen_aot/videos/S_JApTAOdfunE_1251.mp4	0.0	207.19328808784485	2.508384943008423
44	133.4948959350586	fix_post	2		12.0	42.0	2.5	/experiments/knapen_aot/videos/S_JApTAOdfunE_1251.mp4	0.0	209.70167303085327	0.10000085830688477
45	133.59489679336548	fix_pre	0		24.0	43.0	2.5	/experiments/knapen_aot/videos/S_-IkGMlLHrOI_108.mp4	0.0	209.80167388916016	0.19993901252746582
45	133.78668880462646	response	0	2		43.0	2.5	/experiments/knapen_aot/videos/S_-IkGMlLHrOI_108.mp4	0.0	209.99346590042114	
45	133.79483580589294	movie	1		300.0	43.0	2.5	/experiments/knapen_aot/videos/S_-IkGMlLHrOI_108.mp4	0.0	210.00161290168762	2.5083420276641846
45	136.30317783355713	fix_post	2		12.0	43.0	2.5	/experiments/knapen_aot/videos/S_-IkGMlLHrOI_108.mp4	0.0	212.5099549293518	0.0999000072479248
46	136.40307784080505	fix_pre	0		73.0	44.0	2.5	/experiments/knapen_aot/videos/S_yt--5ls65Ue1RA_52.mp4	0.0	212.60985493659973	0.6090819835662842
46	137.00330781936646	response	0	2		44.0	2.5	/experiments/knapen_aot/videos/S_yt--5ls65Ue1RA_52.mp4	0.0	213.21008491516113	
46	137.01215982437134	movie	1		301.0	44.0	2.5	/experiments/knapen_aot/videos/S_yt--5ls65Ue1RA_52.mp4	0.0	213.21893692016602	2.5077481269836426
46	139.51990795135498	fix_post	2		12.0	44.0	2.5	/experiments/knapen_aot/videos/S_yt--5ls65Ue1RA_52.mp4	0.0	215.72668504714966	0.09995484352111816
47	139.6198627948761	fix_pre	0		45.0	45.0	2.5	/experiments/knapen_aot/videos/R_S_Pexels_Videos_278654_1.mp4	0.0	215.82663989067078	0.37489914894104004
47	139.986674785614	response	0	2		45.0	2.5	/experiments/knapen_aot/videos/R_S_Pexels_Videos_278654_1.mp4	0.0	216.1934518814087	
47	139.99476194381714	movie	1		173.0	45.0	2.5	/experiments/knapen_aot/videos/R_S_Pexels_Videos_278654_1.mp4	0.0	216.20153903961182	2.508368968963623
47	142.50313091278076	fix_post	2		12.0	45.0	2.5	/experiments/knapen_aot/videos/R_S_Pexels_Videos_278654_1.mp4	0.0	218.70990800857544	0.10004401206970215
48	142.60317492485046	fix_pre	0		56.0	46.0	2.5	/experiments/knapen_aot/videos/S_wc-zkO_omg3nTvg_5.mp4	0.0	218.80995202064514	0.4666249752044678
48	143.06171083450317	response	0	2		46.0	2.5	/experiments/knapen_aot/videos/S_wc-zkO_omg3nTvg_5.mp4	0.0	219.26848793029785	
48	143.06979990005493	movie	1		166.0	46.0	2.5	/experiments/knapen_aot/videos/S_wc-zkO_omg3nTvg_5.mp4	0.0	219.2765769958496	2.5083420276641846
48	145.57814192771912	fix_post	2		12.0	46.0	2.5	/experiments/knapen_aot/videos/S_wc-zkO_omg3nTvg_5.mp4	0.0	221.7849190235138	0.10065507888793945
49	145.67879700660706	fix_pre	0		13.0	47.0	2.5	/experiments/knapen_aot/videos/S_yt-PreGL81PEP4_61.mp4	0.0	221.88557410240173	0.10766792297363281
49	145.7782688140869	response	0	2		47.0	2.5	/experiments/knapen_aot/videos/S_yt-PreGL81PEP4_61.mp4	0.0	221.9850459098816	
49	145.7864649295807	movie	1		301.0	47.0	2.5	/experiments/knapen_aot/videos/S_yt-PreGL81PEP4_61.mp4	0.0	221.99324202537537	2.5083329677581787
49	148.29479789733887	fix_post	2		12.0	47.0	2.5	/experiments/knapen_aot/videos/S_yt-PreGL81PEP4_61.mp4	0.0	224.50157499313354	0.10000991821289062
50	148.39480781555176	fix_pre	0		26.0	48.0	2.5	/experiments/knapen_aot/videos/R_S_comp_A103_C002_0205DG_v12_SDR_FINAL_20180706_SDR_2K_AVC.mp4	0.0	224.60158491134644	0.21658706665039062
50	148.60327696800232	response	0	2		48.0	2.5	/experiments/knapen_aot/videos/R_S_comp_A103_C002_0205DG_v12_SDR_FINAL_20180706_SDR_2K_AVC.mp4	0.0	224.810054063797	
50	148.61139488220215	movie	1		166.0	48.0	2.5	/experiments/knapen_aot/videos/R_S_comp_A103_C002_0205DG_v12_SDR_FINAL_20180706_SDR_2K_AVC.mp4	0.0	224.81817197799683	2.508409023284912
50	151.11980390548706	fix_post	2		12.0	48.0	2.5	/experiments/knapen_aot/videos/R_S_comp_A103_C002_0205DG_v12_SDR_FINAL_20180706_SDR_2K_AVC.mp4	0.0	227.32658100128174	0.09999608993530273
51	151.21979999542236	fix_pre	0		36.0	49.0	2.5	blank	1.0	227.42657709121704	0.2999839782714844
51	151.5115668773651	response	0	2		49.0	2.5	blank	1.0	227.7183439731598	
51	151.51978397369385	movie	1		301.0	49.0	2.5	blank	1.0	227.72656106948853	2.508323907852173
51	154.02810788154602	fix_post	2		12.0	49.0	2.5	blank	1.0	230.2348849773407	0.09993410110473633
52	154.12804198265076	fix_pre	0		69.0	50.0	2.5	/experiments/knapen_aot/videos/S_yt-kkbtZP78JxQ_96.mp4	0.0	230.33481907844543	0.5750579833984375
52	154.6948688030243	response	0	2		50.0	2.5	/experiments/knapen_aot/videos/S_yt-kkbtZP78JxQ_96.mp4	0.0	230.90164589881897	
52	154.7030999660492	movie	1		301.0	50.0	2.5	/experiments/knapen_aot/videos/S_yt-kkbtZP78JxQ_96.mp4	0.0	230.90987706184387	2.5083329677581787
52	157.21143293380737	fix_post	2		12.0	50.0	2.5	/experiments/knapen_aot/videos/S_yt-kkbtZP78JxQ_96.mp4	0.0	233.41821002960205	0.10001897811889648
53	157.31145191192627	fix_pre	0		41.0	51.0	2.5	/experiments/knapen_aot/videos/S_yt-8aJDzfAaArQ_75.mp4	0.0	233.51822900772095	0.3416450023651123
53	157.6449568271637	response	0	2		51.0	2.5	/experiments/knapen_aot/videos/S_yt-8aJDzfAaArQ_75.mp4	0.0	233.85173392295837	
53	157.65309691429138	movie	1		301.0	51.0	2.5	/experiments/knapen_aot/videos/S_yt-8aJDzfAaArQ_75.mp4	0.0	233.85987401008606	2.5083439350128174
53	160.1614408493042	fix_post	2		12.0	51.0	2.5	/experiments/knapen_aot/videos/S_yt-8aJDzfAaArQ_75.mp4	0.0	236.36821794509888	0.1000211238861084
54	160.2614619731903	fix_pre	0		94.0	52.0	2.5	/experiments/knapen_aot/videos/R_S_yt-4Qz0m5IYh10_167.mp4	0.0	236.46823906898499	0.78324294090271
54	161.03651881217957	response	0	2		52.0	2.5	/experiments/knapen_aot/videos/R_S_yt-4Qz0m5IYh10_167.mp4	0.0	237.24329590797424	
54	161.04470491409302	movie	1		301.0	52.0	2.5	/experiments/knapen_aot/videos/R_S_yt-4Qz0m5IYh10_167.mp4	0.0	237.2514820098877	2.5083749294281006
54	163.55307984352112	fix_post	2		12.0	52.0	2.5	/experiments/knapen_aot/videos/R_S_yt-4Qz0m5IYh10_167.mp4	0.0	239.7598569393158	0.10004210472106934
55	163.6531219482422	fix_pre	0		27.0	53.0	2.5	/experiments/knapen_aot/videos/S_ILSVRC2015_train_00725000.mp4	0.0	239.85989904403687	0.2249288558959961
55	163.87011694908142	response	0	2		53.0	2.5	/experiments/knapen_aot/videos/S_ILSVRC2015_train_00725000.mp4	0.0	240.0768940448761	
55	163.87805080413818	movie	1		301.0	53.0	2.5	/experiments/knapen_aot/videos/S_ILSVRC2015_train_00725000.mp4	0.0	240.08482789993286	2.508352041244507
55	166.3864028453827	fix_post	2		12.0	53.0	2.5	/experiments/knapen_aot/videos/S_ILSVRC2015_train_00725000.mp4	0.0	242.59317994117737	0.10004615783691406
56	166.4864490032196	fix_pre	0		33.0	54.0	2.5	/experiments/knapen_aot/videos/R_S_ILSVRC2015_train_00379000.mp4	0.0	242.69322609901428	0.2754819393157959
56	166.75322079658508	response	0	2		54.0	2.5	/experiments/knapen_aot/videos/R_S_ILSVRC2015_train_00379000.mp4	0.0	242.95999789237976	
56	166.7619309425354	movie	1		301.0	54.0	2.5	/experiments/knapen_aot/videos/R_S_ILSVRC2015_train_00379000.mp4	0.0	242.96870803833008	2.5077829360961914
56	169.2697138786316	fix_post	2		12.0	54.0	2.5	/experiments/knapen_aot/videos/R_S_ILSVRC2015_train_00379000.mp4	0.0	245.47649097442627	0.09997701644897461
57	169.36969089508057	fix_pre	0		28.0	55.0	2.5	/experiments/knapen_aot/videos/R_S_comp_A114_C001_0305OT_v10_SDR_FINAL_22062018_SDR_2K_AVC.mp4	0.0	245.57646799087524	0.23334193229675293
57	169.59484696388245	response	0	2		55.0	2.5	/experiments/knapen_aot/videos/R_S_comp_A114_C001_0305OT_v10_SDR_FINAL_22062018_SDR_2K_AVC.mp4	0.0	245.80162405967712	
57	169.60303282737732	movie	1		170.0	55.0	2.5	/experiments/knapen_aot/videos/R_S_comp_A114_C001_0305OT_v10_SDR_FINAL_22062018_SDR_2K_AVC.mp4	0.0	245.809809923172	2.5082881450653076
57	172.11132097244263	fix_post	2		12.0	55.0	2.5	/experiments/knapen_aot/videos/R_S_comp_A114_C001_0305OT_v10_SDR_FINAL_22062018_SDR_2K_AVC.mp4	0.0	248.3180980682373	0.0999908447265625
58	172.2113118171692	fix_pre	0		32.0	56.0	2.5	blank	1.0	248.41808891296387	0.26674699783325195
58	172.46978282928467	response	0	2		56.0	2.5	blank	1.0	248.67655992507935	
58	172.47805881500244	movie	1		301.0	56.0	2.5	blank	1.0	248.68483591079712	2.50826096534729
58	174.98631978034973	fix_post	2		12.0	56.0	2.5	blank	1.0	251.1930968761444	0.10000109672546387
59	175.0863208770752	fix_pre	0		61.0	57.0	2.5	/experiments/knapen_aot/videos/R_S_yt-hHdxZ26SImA_17.mp4	0.0	251.29309797286987	0.5088119506835938
59	175.58645582199097	response	0	2		57.0	2.5	/experiments/knapen_aot/videos/R_S_yt-hHdxZ26SImA_17.mp4	0.0	251.79323291778564	
59	175.5951328277588	movie	1		301.0	57.0	2.5	/experiments/knapen_aot/videos/R_S_yt-hHdxZ26SImA_17.mp4	0.0	251.80190992355347	2.507862091064453
59	178.10299491882324	fix_post	2		12.0	57.0	2.5	/experiments/knapen_aot/videos/R_S_yt-hHdxZ26SImA_17.mp4	0.0	254.30977201461792	0.1000359058380127
60	178.20303082466125	fix_pre	0		8.0	58.0	2.5	/experiments/knapen_aot/videos/R_S_ILSVRC2015_train_00715000.mp4	0.0	254.40980792045593	0.06666016578674316
60	178.26142287254333	response	0	2		58.0	2.5	/experiments/knapen_aot/videos/R_S_ILSVRC2015_train_00715000.mp4	0.0	254.468199968338	
60	178.269690990448	movie	1		301.0	58.0	2.5	/experiments/knapen_aot/videos/R_S_ILSVRC2015_train_00715000.mp4	0.0	254.47646808624268	2.508319854736328
60	180.77801084518433	fix_post	2		12.0	58.0	2.5	/experiments/knapen_aot/videos/R_S_ILSVRC2015_train_00715000.mp4	0.0	256.984787940979	0.09997916221618652
61	180.8779900074005	fix_pre	0		27.0	59.0	2.5	/experiments/knapen_aot/videos/S_yt-RKo978aBdzw_173.mp4	0.0	257.0847671031952	0.22501277923583984
61	181.09477496147156	response	0	2		59.0	2.5	/experiments/knapen_aot/videos/S_yt-RKo978aBdzw_173.mp4	0.0	257.30155205726624	
61	181.10300278663635	movie	1		296.0	59.0	2.5	/experiments/knapen_aot/videos/S_yt-RKo978aBdzw_173.mp4	0.0	257.30977988243103	2.5083541870117188
61	183.61135697364807	fix_post	2		12.0	59.0	2.5	/experiments/knapen_aot/videos/S_yt-RKo978aBdzw_173.mp4	0.0	259.81813406944275	0.09995102882385254
62	183.71130800247192	fix_pre	0		6.0	60.0	2.5	/experiments/knapen_aot/videos/R_S_yt-E8EDQCPbBeI_196.mp4	0.0	259.9180850982666	0.05044698715209961
62	183.753093957901	response	0	2		60.0	2.5	/experiments/knapen_aot/videos/R_S_yt-E8EDQCPbBeI_196.mp4	0.0	259.9598710536957	
62	183.76175498962402	movie	1		301.0	60.0	2.5	/experiments/knapen_aot/videos/R_S_yt-E8EDQCPbBeI_196.mp4	0.0	259.9685320854187	2.5080249309539795
62	186.269779920578	fix_post	2		12.0	60.0	2.5	/experiments/knapen_aot/videos/R_S_yt-E8EDQCPbBeI_196.mp4	0.0	262.4765570163727	0.09985804557800293
63	186.369637966156	fix_pre	0		27.0	61.0	2.5	/experiments/knapen_aot/videos/R_S_ILSVRC2015_train_00743006.mp4	0.0	262.5764150619507	0.22542285919189453
63	186.58643794059753	response	0	2		61.0	2.5	/experiments/knapen_aot/videos/R_S_ILSVRC2015_train_00743006.mp4	0.0	262.7932150363922	
63	186.5950608253479	movie	1		301.0	61.0	2.5	/experiments/knapen_aot/videos/R_S_ILSVRC2015_train_00743006.mp4	0.0	262.8018379211426	2.5079009532928467
63	189.10296177864075	fix_post	2		12.0	61.0	2.5	/experiments/knapen_aot/videos/R_S_ILSVRC2015_train_00743006.mp4	0.0	265.3097388744354	0.09993314743041992
64	189.20289492607117	fix_pre	0		39.0	62.0	2.5	/experiments/knapen_aot/videos/S_ILSVRC2015_train_00473000.mp4	0.0	265.40967202186584	0.3250699043273926
64	189.51978588104248	response	0	2		62.0	2.5	/experiments/knapen_aot/videos/S_ILSVRC2015_train_00473000.mp4	0.0	265.72656297683716	
64	189.52796483039856	movie	1		300.0	62.0	2.5	/experiments/knapen_aot/videos/S_ILSVRC2015_train_00473000.mp4	0.0	265.73474192619324	2.5083820819854736
64	192.03634691238403	fix_post	2		12.0	62.0	2.5	/experiments/knapen_aot/videos/S_ILSVRC2015_train_00473000.mp4	0.0	268.2431240081787	0.10001587867736816
65	192.1363627910614	fix_pre	0		24.0	63.0	2.5	blank	1.0	268.3431398868561	0.19993805885314941
65	192.3282699584961	response	0	2		63.0	2.5	blank	1.0	268.53504705429077	
65	192.33630084991455	movie	1		301.0	63.0	2.5	blank	1.0	268.54307794570923	2.508247137069702
65	194.84454798698425	fix_post	2		12.0	63.0	2.5	blank	1.0	271.05132508277893	0.10009288787841797
66	194.94464087486267	fix_pre	0		27.0	64.0	2.5	/experiments/knapen_aot/videos/S_yt-i4kSCZ8rNC0_11.mp4	0.0	271.15141797065735	0.22500300407409668
66	195.16133499145508	response	0	2		64.0	2.5	/experiments/knapen_aot/videos/S_yt-i4kSCZ8rNC0_11.mp4	0.0	271.36811208724976	
66	195.16964387893677	movie	1		301.0	64.0	2.5	/experiments/knapen_aot/videos/S_yt-i4kSCZ8rNC0_11.mp4	0.0	271.37642097473145	2.508307933807373
66	197.67795181274414	fix_post	2		12.0	64.0	2.5	/experiments/knapen_aot/videos/S_yt-i4kSCZ8rNC0_11.mp4	0.0	273.8847289085388	0.09995818138122559
67	197.77790999412537	fix_pre	0		24.0	65.0	2.5	/experiments/knapen_aot/videos/S_yt-tfHCqgH1guY_235.mp4	0.0	273.98468708992004	0.1999800205230713
67	197.9697139263153	response	0	2		65.0	2.5	/experiments/knapen_aot/videos/S_yt-tfHCqgH1guY_235.mp4	0.0	274.17649102211	
67	197.97789001464844	movie	1		301.0	65.0	2.5	/experiments/knapen_aot/videos/S_yt-tfHCqgH1guY_235.mp4	0.0	274.1846671104431	2.5082828998565674
67	200.486172914505	fix_post	2		12.0	65.0	2.5	/experiments/knapen_aot/videos/S_yt-tfHCqgH1guY_235.mp4	0.0	276.6929500102997	0.10005402565002441
68	200.58622694015503	fix_pre	0		62.0	66.0	2.5	/experiments/knapen_aot/videos/S_yt-OFbbvxTLrtM_132.mp4	0.0	276.7930040359497	0.5167009830474854
68	201.09464383125305	response	0	2		66.0	2.5	/experiments/knapen_aot/videos/S_yt-OFbbvxTLrtM_132.mp4	0.0	277.30142092704773	
68	201.10292792320251	movie	1		301.0	66.0	2.5	/experiments/knapen_aot/videos/S_yt-OFbbvxTLrtM_132.mp4	0.0	277.3097050189972	2.508328914642334
68	203.61125683784485	fix_post	2		12.0	66.0	2.5	/experiments/knapen_aot/videos/S_yt-OFbbvxTLrtM_132.mp4	0.0	279.8180339336395	0.09993410110473633
69	203.71119093894958	fix_pre	0		110.0	67.0	2.5	/experiments/knapen_aot/videos/R_S_yt-XtzmBXKYEWk_60.mp4	0.0	279.91796803474426	0.9166429042816162
69	204.6197588443756	response	0	2		67.0	2.5	/experiments/knapen_aot/videos/R_S_yt-XtzmBXKYEWk_60.mp4	0.0	280.8265359401703	
69	204.6278338432312	movie	1		298.0	67.0	2.5	/experiments/knapen_aot/videos/R_S_yt-XtzmBXKYEWk_60.mp4	0.0	280.8346109390259	2.5087690353393555
69	207.13660287857056	fix_post	2		12.0	67.0	2.5	/experiments/knapen_aot/videos/R_S_yt-XtzmBXKYEWk_60.mp4	0.0	283.34337997436523	0.09969401359558105
70	207.23629689216614	fix_pre	0		56.0	68.0	2.5	/experiments/knapen_aot/videos/R_S_yt-Dlk44AGz-xM_37.mp4	0.0	283.4430739879608	0.46663808822631836
70	207.69475197792053	response	0	2		68.0	2.5	/experiments/knapen_aot/videos/R_S_yt-Dlk44AGz-xM_37.mp4	0.0	283.9015290737152	
70	207.70293498039246	movie	1		301.0	68.0	2.5	/experiments/knapen_aot/videos/R_S_yt-Dlk44AGz-xM_37.mp4	0.0	283.90971207618713	2.50819993019104
70	210.2111349105835	fix_post	2		12.0	68.0	2.5	/experiments/knapen_aot/videos/R_S_yt-Dlk44AGz-xM_37.mp4	0.0	286.4179120063782	0.10007691383361816
71	210.31121182441711	fix_pre	0		143.0	69.0	2.5	blank	1.0	286.5179889202118	1.1916799545288086
71	211.4946529865265	response	0	2		69.0	2.5	blank	1.0	287.70143008232117	
71	211.50289177894592	movie	1		301.0	69.0	2.5	blank	1.0	287.7096688747406	2.5083351135253906
71	214.0112268924713	fix_post	2		12.0	69.0	2.5	blank	1.0	290.218003988266	0.09992194175720215
72	214.11114883422852	fix_pre	0		80.0	70.0	2.5	/experiments/knapen_aot/videos/R_S_yt-K_gHa2x2OQA_319.mp4	0.0	290.3179259300232	0.6667280197143555
72	214.76215195655823	response	0	2		70.0	2.5	/experiments/knapen_aot/videos/R_S_yt-K_gHa2x2OQA_319.mp4	0.0	290.9689290523529	
72	214.77787685394287	movie	1		301.0	70.0	2.5	/experiments/knapen_aot/videos/R_S_yt-K_gHa2x2OQA_319.mp4	0.0	290.98465394973755	2.5083439350128174
72	217.2862207889557	fix_post	2		12.0	70.0	2.5	/experiments/knapen_aot/videos/R_S_yt-K_gHa2x2OQA_319.mp4	0.0	293.49299788475037	0.10030817985534668
73	217.38652896881104	fix_pre	0		12.0	71.0	2.5	/experiments/knapen_aot/videos/R_S_yt-OFbbvxTLrtM_132.mp4	0.0	293.5933060646057	0.09964585304260254
73	217.47799682617188	response	0	2		71.0	2.5	/experiments/knapen_aot/videos/R_S_yt-OFbbvxTLrtM_132.mp4	0.0	293.68477392196655	
73	217.48617482185364	movie	1		301.0	71.0	2.5	/experiments/knapen_aot/videos/R_S_yt-OFbbvxTLrtM_132.mp4	0.0	293.6929519176483	2.5082850456237793
73	219.99445986747742	fix_post	2		12.0	71.0	2.5	/experiments/knapen_aot/videos/R_S_yt-OFbbvxTLrtM_132.mp4	0.0	296.2012369632721	0.10027909278869629
74	220.0947389602661	fix_pre	0		16.0	72.0	2.5	/experiments/knapen_aot/videos/R_S_yt-7Z6Kmp0n7L8_145.mp4	0.0	296.3015160560608	0.13306784629821777
74	220.21960186958313	response	0	2		72.0	2.5	/experiments/knapen_aot/videos/R_S_yt-7Z6Kmp0n7L8_145.mp4	0.0	296.4263789653778	
74	220.22780680656433	movie	1		301.0	72.0	2.5	/experiments/knapen_aot/videos/R_S_yt-7Z6Kmp0n7L8_145.mp4	0.0	296.434583902359	2.508369207382202
74	222.73617601394653	fix_post	2		12.0	72.0	2.5	/experiments/knapen_aot/videos/R_S_yt-7Z6Kmp0n7L8_145.mp4	0.0	298.9429531097412	0.09992194175720215
75	222.83609795570374	fix_pre	0		22.0	73.0	2.5	/experiments/knapen_aot/videos/S_yt-uXDyvrm0Tw0_17.mp4	0.0	299.0428750514984	0.18335890769958496
75	223.01135897636414	response	0	2		73.0	2.5	/experiments/knapen_aot/videos/S_yt-uXDyvrm0Tw0_17.mp4	0.0	299.2181360721588	
75	223.01945686340332	movie	1		301.0	73.0	2.5	/experiments/knapen_aot/videos/S_yt-uXDyvrm0Tw0_17.mp4	0.0	299.226233959198	2.5082740783691406
75	225.52773094177246	fix_post	2		12.0	73.0	2.5	/experiments/knapen_aot/videos/S_yt-uXDyvrm0Tw0_17.mp4	0.0	301.73450803756714	0.10003495216369629
76	225.62776589393616	fix_pre	0		5.0	74.0	2.5	/experiments/knapen_aot/videos/S_FK_U009_C004_SDR_20191220_SDR_2K_AVC.mp4	0.0	301.83454298973083	0.04174304008483887
76	225.66131496429443	response	0	2		74.0	2.5	/experiments/knapen_aot/videos/S_FK_U009_C004_SDR_20191220_SDR_2K_AVC.mp4	0.0	301.8680920600891	
76	225.669508934021	movie	1		164.0	74.0	2.5	/experiments/knapen_aot/videos/S_FK_U009_C004_SDR_20191220_SDR_2K_AVC.mp4	0.0	301.8762860298157	2.508542060852051
76	228.17805099487305	fix_post	2		12.0	74.0	2.5	/experiments/knapen_aot/videos/S_FK_U009_C004_SDR_20191220_SDR_2K_AVC.mp4	0.0	304.3848280906677	0.09976792335510254
77	228.27781891822815	fix_pre	0		15.0	75.0	2.5	blank	1.0	304.4845960140228	0.12504100799560547
77	228.3946189880371	response	0	2		75.0	2.5	blank	1.0	304.6013960838318	
77	228.40285992622375	movie	1		301.0	75.0	2.5	blank	1.0	304.60963702201843	2.5082859992980957
77	228.9612410068512	response	1	2		75.0	2.5	blank	1.0	305.1680181026459	
77	230.52790689468384	response	1	2		75.0	2.5	blank	1.0	306.7346839904785	
77	230.91114592552185	fix_post	2		12.0	75.0	2.5	blank	1.0	307.1179230213165	0.10014486312866211
78	231.0112907886505	fix_pre	0		19.0	76.0	2.5	/experiments/knapen_aot/videos/R_S_comp_A008_C007_011550_CC_v01_SDR_PS_FINAL_20180709_SDR_2K_AVC.mp4	0.0	307.2180678844452	0.1597452163696289
78	231.16129684448242	response	0	2		76.0	2.5	/experiments/knapen_aot/videos/R_S_comp_A008_C007_011550_CC_v01_SDR_PS_FINAL_20180709_SDR_2K_AVC.mp4	0.0	307.3680739402771	
78	231.17103600502014	movie	1		164.0	76.0	2.5	/experiments/knapen_aot/videos/R_S_comp_A008_C007_011550_CC_v01_SDR_PS_FINAL_20180709_SDR_2K_AVC.mp4	0.0	307.3778131008148	2.5070669651031494
78	233.6781029701233	fix_post	2		12.0	76.0	2.5	/experiments/knapen_aot/videos/R_S_comp_A008_C007_011550_CC_v01_SDR_PS_FINAL_20180709_SDR_2K_AVC.mp4	0.0	309.88488006591797	0.09967398643493652
79	233.77777695655823	fix_pre	0		37.0	77.0	2.5	/experiments/knapen_aot/videos/R_S_RS_A008_C010_SDR_20191218_SDR_2K_AVC.mp4	0.0	309.9845540523529	0.30829691886901855
79	234.07788395881653	response	0	2		77.0	2.5	/experiments/knapen_aot/videos/R_S_RS_A008_C010_SDR_20191218_SDR_2K_AVC.mp4	0.0	310.2846610546112	
79	234.08607387542725	movie	1		178.0	77.0	2.5	/experiments/knapen_aot/videos/R_S_RS_A008_C010_SDR_20191218_SDR_2K_AVC.mp4	0.0	310.2928509712219	2.5015969276428223
79	236.57793498039246	response	1	2		77.0	2.5	/experiments/knapen_aot/videos/R_S_RS_A008_C010_SDR_20191218_SDR_2K_AVC.mp4	0.0	312.78471207618713	
79	236.58767080307007	fix_post	2		13.0	77.0	2.5	/experiments/knapen_aot/videos/R_S_RS_A008_C010_SDR_20191218_SDR_2K_AVC.mp4	0.0	312.79444789886475	0.10672211647033691
80	236.6943929195404	fix_pre	0		59.0	78.0	2.5	/experiments/knapen_aot/videos/R_S_video_inspire_uk_edinburgh_arthursseat_010.1080-h264.mp4	0.0	312.9011700153351	0.49161195755004883
80	237.17789483070374	response	0	2		78.0	2.5	/experiments/knapen_aot/videos/R_S_video_inspire_uk_edinburgh_arthursseat_010.1080-h264.mp4	0.0	313.3846719264984	
80	237.18600487709045	movie	1		171.0	78.0	2.5	/experiments/knapen_aot/videos/R_S_video_inspire_uk_edinburgh_arthursseat_010.1080-h264.mp4	0.0	313.39278197288513	2.5084340572357178
80	239.69443893432617	fix_post	2		12.0	78.0	2.5	/experiments/knapen_aot/videos/R_S_video_inspire_uk_edinburgh_arthursseat_010.1080-h264.mp4	0.0	315.90121603012085	0.09998488426208496
81	239.79442381858826	fix_pre	0		9.0	79.0	2.5	/experiments/knapen_aot/videos/R_S_yt-SkIJvj6KNOo_33.mp4	0.0	316.00120091438293	0.07497310638427734
81	239.8612458705902	response	0	2		79.0	2.5	/experiments/knapen_aot/videos/R_S_yt-SkIJvj6KNOo_33.mp4	0.0	316.0680229663849	
81	239.86939692497253	movie	1		301.0	79.0	2.5	/experiments/knapen_aot/videos/R_S_yt-SkIJvj6KNOo_33.mp4	0.0	316.0761740207672	2.5083680152893066
81	242.37776494026184	fix_post	2		12.0	79.0	2.5	/experiments/knapen_aot/videos/R_S_yt-SkIJvj6KNOo_33.mp4	0.0	318.5845420360565	0.10001087188720703
82	242.47777581214905	fix_pre	0		10.0	80.0	2.5	/experiments/knapen_aot/videos/S_yt-9qXwehMoX7o_50.mp4	0.0	318.6845529079437	0.0832831859588623
82	242.55288100242615	response	0	2		80.0	2.5	/experiments/knapen_aot/videos/S_yt-9qXwehMoX7o_50.mp4	0.0	318.7596580982208	
82	242.5610589981079	movie	1		301.0	80.0	2.5	/experiments/knapen_aot/videos/S_yt-9qXwehMoX7o_50.mp4	0.0	318.7678360939026	2.508281946182251
82	245.06934094429016	fix_post	2		12.0	80.0	2.5	/experiments/knapen_aot/videos/S_yt-9qXwehMoX7o_50.mp4	0.0	321.27611804008484	0.10004401206970215
83	245.16938495635986	fix_pre	0		18.0	81.0	2.5	/experiments/knapen_aot/videos/S_yt-vQ-rd-1gwH4_238.mp4	0.0	321.37616205215454	0.149993896484375
83	245.3112359046936	response	0	2		81.0	2.5	/experiments/knapen_aot/videos/S_yt-vQ-rd-1gwH4_238.mp4	0.0	321.5180130004883	
83	245.31937885284424	movie	1		301.0	81.0	2.5	/experiments/knapen_aot/videos/S_yt-vQ-rd-1gwH4_238.mp4	0.0	321.5261559486389	2.508345127105713
83	247.82772397994995	fix_post	2		12.0	81.0	2.5	/experiments/knapen_aot/videos/S_yt-vQ-rd-1gwH4_238.mp4	0.0	324.03450107574463	0.10004901885986328
84	247.92777299880981	fix_pre	0		23.0	82.0	2.5	blank	1.0	324.1345500946045	0.1916348934173584
84	248.1111478805542	response	0	2		82.0	2.5	blank	1.0	324.3179249763489	
84	248.11940789222717	movie	1		301.0	82.0	2.5	blank	1.0	324.32618498802185	2.508297920227051
84	250.62770581245422	fix_post	2		11.0	82.0	2.5	blank	1.0	326.8344829082489	0.10006213188171387
85	250.72776794433594	fix_pre	0		26.0	83.0	2.5	/experiments/knapen_aot/videos/R_S_yt-RlHmMGUjT9E_130.mp4	0.0	326.9345450401306	0.21655988693237305
85	250.9285809993744	response	0	2		83.0	2.5	/experiments/knapen_aot/videos/R_S_yt-RlHmMGUjT9E_130.mp4	0.0	327.13535809516907	
85	250.9443278312683	movie	1		301.0	83.0	2.5	/experiments/knapen_aot/videos/R_S_yt-RlHmMGUjT9E_130.mp4	0.0	327.151104927063	2.5084221363067627
85	253.45274996757507	fix_post	2		12.0	83.0	2.5	/experiments/knapen_aot/videos/R_S_yt-RlHmMGUjT9E_130.mp4	0.0	329.65952706336975	0.10009384155273438
87	253.5528438091278	stim	0		66.0					329.7596209049225	0.5555140972137451
87	253.61119985580444	response	0	2						329.8179769515991	
87	254.09981083869934	response	0	space						330.306587934494	
