trial_nr	onset	event_type	phase	response	nr_frames	movie_index	movie_duration	movie_file	blank	onset_abs	duration
0	0.1535642147064209	stim	0		28.0					96.19366025924683	0.23526787757873535
0	0.37780117988586426	response	0	space						96.41789722442627	
1	0.38883209228515625	stim	0		121.0					96.42892813682556	1.0051510334014893
1	1.352372169494629	response	0	space						97.39246821403503	
1	1.3939831256866455	stim	1		120.0					97.43407917022705	0.9999599456787109
1	1.7357361316680908	response	1	space						97.7758321762085	
1	2.2114851474761963	response	1	space						98.2515811920166	
2	2.3939430713653564	fix_pre	0		30.0	0.0	2.5	/experiments/knapen_aot/oldvideos/S_yt-GjFQxAklviE_25.mp4	0.0	98.43403911590576	0.25154709815979004
2	2.6356730461120605	response	0	space		0.0	2.5	/experiments/knapen_aot/oldvideos/S_yt-GjFQxAklviE_25.mp4	0.0	98.67576909065247	
2	2.6454901695251465	movie	1		297.0	0.0	2.5	/experiments/knapen_aot/oldvideos/S_yt-GjFQxAklviE_25.mp4	0.0	98.68558621406555	2.50691294670105
2	5.152403116226196	fix_post	2		12.0	0.0	2.5	/experiments/knapen_aot/oldvideos/S_yt-GjFQxAklviE_25.mp4	0.0	101.1924991607666	0.09989094734191895
3	5.252294063568115	fix_pre	0		33.0	1.0	2.5	/experiments/knapen_aot/oldvideos/S_pexels-koolshooters-7327412.mp4	0.0	101.29239010810852	0.2749929428100586
3	5.52197003364563	response	0	4		1.0	2.5	/experiments/knapen_aot/oldvideos/S_pexels-koolshooters-7327412.mp4	0.0	101.56206607818604	
3	5.527287006378174	movie	1		161.0	1.0	2.5	/experiments/knapen_aot/oldvideos/S_pexels-koolshooters-7327412.mp4	0.0	101.56738305091858	2.5084891319274902
3	8.035776138305664	fix_post	2		12.0	1.0	2.5	/experiments/knapen_aot/oldvideos/S_pexels-koolshooters-7327412.mp4	0.0	104.07587218284607	0.09982800483703613
4	8.1356041431427	fix_pre	0		31.0	2.0	2.5	/experiments/knapen_aot/oldvideos/S_yt-RMjo2PPEPEA_112.mp4	0.0	104.1757001876831	0.2582540512084961
4	8.385614156723022	response	0	4		2.0	2.5	/experiments/knapen_aot/oldvideos/S_yt-RMjo2PPEPEA_112.mp4	0.0	104.42571020126343	
4	8.393858194351196	movie	1		301.0	2.0	2.5	/experiments/knapen_aot/oldvideos/S_yt-RMjo2PPEPEA_112.mp4	0.0	104.4339542388916	2.5084948539733887
4	10.902353048324585	fix_post	2		12.0	2.0	2.5	/experiments/knapen_aot/oldvideos/S_yt-RMjo2PPEPEA_112.mp4	0.0	106.94244909286499	0.09988999366760254
5	11.002243041992188	fix_pre	0		25.0	3.0	2.5	/experiments/knapen_aot/oldvideos/S_ILSVRC2015_train_00517000.mp4	0.0	107.04233908653259	0.2082831859588623
5	11.20231318473816	response	0	4		3.0	2.5	/experiments/knapen_aot/oldvideos/S_ILSVRC2015_train_00517000.mp4	0.0	107.24240922927856	
5	11.21052622795105	movie	1		301.0	3.0	2.5	/experiments/knapen_aot/oldvideos/S_ILSVRC2015_train_00517000.mp4	0.0	107.25062227249146	2.5083558559417725
5	13.718882083892822	fix_post	2		12.0	3.0	2.5	/experiments/knapen_aot/oldvideos/S_ILSVRC2015_train_00517000.mp4	0.0	109.75897812843323	0.10012197494506836
6	13.81900405883789	fix_pre	0		19.0	4.0	2.5	/experiments/knapen_aot/oldvideos/S_yt-mI9voWol7cE_104.mp4	0.0	109.8591001033783	0.1582040786743164
6	13.968920230865479	response	0	4		4.0	2.5	/experiments/knapen_aot/oldvideos/S_yt-mI9voWol7cE_104.mp4	0.0	110.00901627540588	
6	13.977208137512207	movie	1		301.0	4.0	2.5	/experiments/knapen_aot/oldvideos/S_yt-mI9voWol7cE_104.mp4	0.0	110.01730418205261	2.5084269046783447
6	16.48563504219055	fix_post	2		12.0	4.0	2.5	/experiments/knapen_aot/oldvideos/S_yt-mI9voWol7cE_104.mp4	0.0	112.52573108673096	0.09996414184570312
7	16.585599184036255	fix_pre	0		21.0	5.0	2.5	blank	1.0	112.62569522857666	0.1750469207763672
7	16.752268075942993	response	0	4		5.0	2.5	blank	1.0	112.7923641204834	
7	16.760646104812622	movie	1		301.0	5.0	2.5	blank	1.0	112.80074214935303	2.508223056793213
7	19.268869161605835	fix_post	2		12.0	5.0	2.5	blank	1.0	115.30896520614624	0.10002803802490234
8	19.368897199630737	fix_pre	0		22.0	6.0	2.5	/experiments/knapen_aot/oldvideos/R_S_yt-7lULOC_rSE0_747.mp4	0.0	115.40899324417114	0.18327784538269043
8	19.544004201889038	response	0	4		6.0	2.5	/experiments/knapen_aot/oldvideos/R_S_yt-7lULOC_rSE0_747.mp4	0.0	115.58410024642944	
8	19.552175045013428	movie	1		301.0	6.0	2.5	/experiments/knapen_aot/oldvideos/R_S_yt-7lULOC_rSE0_747.mp4	0.0	115.59227108955383	2.5083770751953125
8	22.06055212020874	fix_post	2		12.0	6.0	2.5	/experiments/knapen_aot/oldvideos/R_S_yt-7lULOC_rSE0_747.mp4	0.0	118.10064816474915	0.09990096092224121
9	22.16045308113098	fix_pre	0		18.0	7.0	2.5	/experiments/knapen_aot/oldvideos/R_S_ILSVRC2015_train_00517000.mp4	0.0	118.20054912567139	0.1514430046081543
9	22.30229902267456	response	0	4		7.0	2.5	/experiments/knapen_aot/oldvideos/R_S_ILSVRC2015_train_00517000.mp4	0.0	118.34239506721497	
9	22.311896085739136	movie	1		301.0	7.0	2.5	/experiments/knapen_aot/oldvideos/R_S_ILSVRC2015_train_00517000.mp4	0.0	118.35199213027954	2.5070199966430664
9	24.47862410545349	response	1	4		7.0	2.5	/experiments/knapen_aot/oldvideos/R_S_ILSVRC2015_train_00517000.mp4	0.0	120.5187201499939	
9	24.818916082382202	fix_post	2		12.0	7.0	2.5	/experiments/knapen_aot/oldvideos/R_S_ILSVRC2015_train_00517000.mp4	0.0	120.85901212692261	0.10008406639099121
10	24.919000148773193	fix_pre	0		31.0	8.0	2.5	/experiments/knapen_aot/oldvideos/R_S_BO_A014_C008_SDR_20190719_SDR_2K_AVC.mp4	0.0	120.9590961933136	0.2581520080566406
10	25.16892099380493	response	0	4		8.0	2.5	/experiments/knapen_aot/oldvideos/R_S_BO_A014_C008_SDR_20190719_SDR_2K_AVC.mp4	0.0	121.20901703834534	
10	25.177152156829834	movie	1		168.0	8.0	2.5	/experiments/knapen_aot/oldvideos/R_S_BO_A014_C008_SDR_20190719_SDR_2K_AVC.mp4	0.0	121.21724820137024	2.5084080696105957
10	27.68556022644043	fix_post	2		12.0	8.0	2.5	/experiments/knapen_aot/oldvideos/R_S_BO_A014_C008_SDR_20190719_SDR_2K_AVC.mp4	0.0	123.72565627098083	0.10005593299865723
11	27.785616159439087	fix_pre	0		17.0	9.0	2.5	/experiments/knapen_aot/oldvideos/R_S_pexels-diva-plavalaguna-6985395.mp4	0.0	123.82571220397949	0.1415388584136963
11	27.919158220291138	response	0	4		9.0	2.5	/experiments/knapen_aot/oldvideos/R_S_pexels-diva-plavalaguna-6985395.mp4	0.0	123.95925426483154	
11	27.927155017852783	movie	1		171.0	9.0	2.5	/experiments/knapen_aot/oldvideos/R_S_pexels-diva-plavalaguna-6985395.mp4	0.0	123.96725106239319	2.5083210468292236
11	30.435476064682007	fix_post	2		12.0	9.0	2.5	/experiments/knapen_aot/oldvideos/R_S_pexels-diva-plavalaguna-6985395.mp4	0.0	126.47557210922241	0.10003304481506348
12	30.53550910949707	fix_pre	0		28.0	10.0	2.5	/experiments/knapen_aot/oldvideos/S_pexels-diva-plavalaguna-6985395.mp4	0.0	126.57560515403748	0.23343205451965332
12	30.753257036209106	response	0	4		10.0	2.5	/experiments/knapen_aot/oldvideos/S_pexels-diva-plavalaguna-6985395.mp4	0.0	126.79335308074951	
12	30.768941164016724	movie	1		166.0	10.0	2.5	/experiments/knapen_aot/oldvideos/S_pexels-diva-plavalaguna-6985395.mp4	0.0	126.80903720855713	2.508237838745117
12	33.27717900276184	fix_post	2		12.0	10.0	2.5	/experiments/knapen_aot/oldvideos/S_pexels-diva-plavalaguna-6985395.mp4	0.0	129.31727504730225	0.09995603561401367
13	33.377135038375854	fix_pre	0		27.0	11.0	2.5	/experiments/knapen_aot/oldvideos/S_yt-2y6A9DJPsDU_65.mp4	0.0	129.41723108291626	0.22496914863586426
13	33.59392714500427	response	0	4		11.0	2.5	/experiments/knapen_aot/oldvideos/S_yt-2y6A9DJPsDU_65.mp4	0.0	129.63402318954468	
13	33.60210418701172	movie	1		301.0	11.0	2.5	/experiments/knapen_aot/oldvideos/S_yt-2y6A9DJPsDU_65.mp4	0.0	129.64220023155212	2.508538007736206
13	36.110642194747925	fix_post	2		12.0	11.0	2.5	/experiments/knapen_aot/oldvideos/S_yt-2y6A9DJPsDU_65.mp4	0.0	132.15073823928833	0.09983181953430176
14	36.21047401428223	fix_pre	0		26.0	12.0	2.5	blank	1.0	132.25057005882263	0.21657514572143555
14	36.41894316673279	response	0	4		12.0	2.5	blank	1.0	132.4590392112732	
14	36.42704916000366	movie	1		301.0	12.0	2.5	blank	1.0	132.46714520454407	2.5086019039154053
14	38.85218119621277	response	1	4		12.0	2.5	blank	1.0	134.89227724075317	
14	38.93565106391907	fix_post	2		12.0	12.0	2.5	blank	1.0	134.97574710845947	0.09980297088623047
15	39.0354540348053	fix_pre	0		194.0	13.0	2.5	/experiments/knapen_aot/oldvideos/S_yt-zSSnQYeO_DE_338.mp4	0.0	135.0755500793457	1.6166341304779053
15	40.64399003982544	response	0	4		13.0	2.5	/experiments/knapen_aot/oldvideos/S_yt-zSSnQYeO_DE_338.mp4	0.0	136.68408608436584	
15	40.6520881652832	movie	1		301.0	13.0	2.5	/experiments/knapen_aot/oldvideos/S_yt-zSSnQYeO_DE_338.mp4	0.0	136.6921842098236	2.508342981338501
15	43.160431146621704	fix_post	2		12.0	13.0	2.5	/experiments/knapen_aot/oldvideos/S_yt-zSSnQYeO_DE_338.mp4	0.0	139.2005271911621	0.10003995895385742
16	43.26047110557556	fix_pre	0		26.0	14.0	2.5	/experiments/knapen_aot/oldvideos/R_S_yt-3EZOeAbiMQE_10.mp4	0.0	139.30056715011597	0.21654200553894043
16	43.468905210494995	response	0	4		14.0	2.5	/experiments/knapen_aot/oldvideos/R_S_yt-3EZOeAbiMQE_10.mp4	0.0	139.5090012550354	
16	43.4770131111145	movie	1		301.0	14.0	2.5	/experiments/knapen_aot/oldvideos/R_S_yt-3EZOeAbiMQE_10.mp4	0.0	139.5171091556549	2.508603096008301
16	45.9856162071228	fix_post	2		12.0	14.0	2.5	/experiments/knapen_aot/oldvideos/R_S_yt-3EZOeAbiMQE_10.mp4	0.0	142.0257122516632	0.09980392456054688
17	46.08542013168335	fix_pre	0		27.0	15.0	2.5	/experiments/knapen_aot/oldvideos/S_yt-_Hnr82bYGEQ_103.mp4	0.0	142.12551617622375	0.22638297080993652
17	46.30224299430847	response	0	4		15.0	2.5	/experiments/knapen_aot/oldvideos/S_yt-_Hnr82bYGEQ_103.mp4	0.0	142.34233903884888	
17	46.311803102493286	movie	1		301.0	15.0	2.5	/experiments/knapen_aot/oldvideos/S_yt-_Hnr82bYGEQ_103.mp4	0.0	142.3518991470337	2.5069830417633057
17	48.81878614425659	fix_post	2		12.0	15.0	2.5	/experiments/knapen_aot/oldvideos/S_yt-_Hnr82bYGEQ_103.mp4	0.0	144.858882188797	0.10000491142272949
18	48.91879105567932	fix_pre	0		56.0	16.0	2.5	/experiments/knapen_aot/oldvideos/R_S_pexels-rodnae-productions-5993237.mp4	0.0	144.95888710021973	0.4666290283203125
18	49.377249002456665	response	0	4		16.0	2.5	/experiments/knapen_aot/oldvideos/R_S_pexels-rodnae-productions-5993237.mp4	0.0	145.41734504699707	
18	49.385420083999634	movie	1		166.0	16.0	2.5	/experiments/knapen_aot/oldvideos/R_S_pexels-rodnae-productions-5993237.mp4	0.0	145.42551612854004	2.508538007736206
18	51.89395809173584	fix_post	2		12.0	16.0	2.5	/experiments/knapen_aot/oldvideos/R_S_pexels-rodnae-productions-5993237.mp4	0.0	147.93405413627625	0.09980201721191406
19	51.993760108947754	fix_pre	0		21.0	17.0	2.5	/experiments/knapen_aot/oldvideos/S_yt-hHdxZ26SImA_17.mp4	0.0	148.03385615348816	0.17494988441467285
19	52.16046404838562	response	0	4		17.0	2.5	/experiments/knapen_aot/oldvideos/S_yt-hHdxZ26SImA_17.mp4	0.0	148.20056009292603	
19	52.16870999336243	movie	1		301.0	17.0	2.5	/experiments/knapen_aot/oldvideos/S_yt-hHdxZ26SImA_17.mp4	0.0	148.20880603790283	2.5083351135253906
19	54.67704510688782	fix_post	2		12.0	17.0	2.5	/experiments/knapen_aot/oldvideos/S_yt-hHdxZ26SImA_17.mp4	0.0	150.71714115142822	0.10006189346313477
20	54.77710700035095	fix_pre	0		23.0	18.0	2.5	/experiments/knapen_aot/oldvideos/R_S_yt-pB9w3AA-woE_37.mp4	0.0	150.81720304489136	0.19166922569274902
20	54.95291614532471	response	0	4		18.0	2.5	/experiments/knapen_aot/oldvideos/R_S_yt-pB9w3AA-woE_37.mp4	0.0	150.9930121898651	
20	54.9687762260437	movie	1		301.0	18.0	2.5	/experiments/knapen_aot/oldvideos/R_S_yt-pB9w3AA-woE_37.mp4	0.0	151.0088722705841	2.5082688331604004
20	57.4770450592041	fix_post	2		12.0	18.0	2.5	/experiments/knapen_aot/oldvideos/R_S_yt-pB9w3AA-woE_37.mp4	0.0	153.5171411037445	0.09998703002929688
21	57.5770320892334	fix_pre	0		16.0	19.0	2.5	/experiments/knapen_aot/oldvideos/S_video_inspire_california_vineyard_sierra-mar_sunrise_110.1080-h264.mp4	0.0	153.6171281337738	0.13326311111450195
21	57.70236015319824	response	0	4		19.0	2.5	/experiments/knapen_aot/oldvideos/S_video_inspire_california_vineyard_sierra-mar_sunrise_110.1080-h264.mp4	0.0	153.74245619773865	
21	57.7102952003479	movie	1		167.0	19.0	2.5	/experiments/knapen_aot/oldvideos/S_video_inspire_california_vineyard_sierra-mar_sunrise_110.1080-h264.mp4	0.0	153.7503912448883	2.508424997329712
21	60.21872019767761	fix_post	2		12.0	19.0	2.5	/experiments/knapen_aot/oldvideos/S_video_inspire_california_vineyard_sierra-mar_sunrise_110.1080-h264.mp4	0.0	156.25881624221802	0.10018086433410645
22	60.31890106201172	fix_pre	0		11.0	20.0	2.5	blank	1.0	156.35899710655212	0.09148216247558594
22	60.40219211578369	response	0	4		20.0	2.5	blank	1.0	156.4422881603241	
22	60.410383224487305	movie	1		301.0	20.0	2.5	blank	1.0	156.4504792690277	2.5083348751068115
22	62.918718099594116	fix_post	2		12.0	20.0	2.5	blank	1.0	158.95881414413452	0.1000220775604248
23	63.01874017715454	fix_pre	0		20.0	21.0	2.5	/experiments/knapen_aot/oldvideos/R_S_yt-TSSPDwAQLXs_158.mp4	0.0	159.05883622169495	0.16787385940551758
23	63.17713809013367	response	0	4		21.0	2.5	/experiments/knapen_aot/oldvideos/R_S_yt-TSSPDwAQLXs_158.mp4	0.0	159.21723413467407	
23	63.18661403656006	movie	1		301.0	21.0	2.5	/experiments/knapen_aot/oldvideos/R_S_yt-TSSPDwAQLXs_158.mp4	0.0	159.22671008110046	2.507153034210205
23	65.69376707077026	fix_post	2		12.0	21.0	2.5	/experiments/knapen_aot/oldvideos/R_S_yt-TSSPDwAQLXs_158.mp4	0.0	161.73386311531067	0.10006308555603027
24	65.7938301563263	fix_pre	0		70.0	22.0	2.5	/experiments/knapen_aot/oldvideos/R_S_yt-Ilr77XzakaY_95.mp4	0.0	161.8339262008667	0.583122968673706
24	66.36129021644592	response	0	4		22.0	2.5	/experiments/knapen_aot/oldvideos/R_S_yt-Ilr77XzakaY_95.mp4	0.0	162.40138626098633	
24	66.376953125	movie	1		301.0	22.0	2.5	/experiments/knapen_aot/oldvideos/R_S_yt-Ilr77XzakaY_95.mp4	0.0	162.4170491695404	2.508328914642334
24	68.88528203964233	fix_post	2		12.0	22.0	2.5	/experiments/knapen_aot/oldvideos/R_S_yt-Ilr77XzakaY_95.mp4	0.0	164.92537808418274	0.1000361442565918
25	68.98531818389893	fix_pre	0		89.0	23.0	2.5	/experiments/knapen_aot/oldvideos/R_S_yt-QFGyhhr1KSQ_9.mp4	0.0	165.02541422843933	0.7428338527679443
25	69.71876215934753	response	0	4		23.0	2.5	/experiments/knapen_aot/oldvideos/R_S_yt-QFGyhhr1KSQ_9.mp4	0.0	165.75885820388794	
25	69.72815203666687	movie	1		300.0	23.0	2.5	/experiments/knapen_aot/oldvideos/R_S_yt-QFGyhhr1KSQ_9.mp4	0.0	165.76824808120728	2.5072121620178223
25	72.23536419868469	fix_post	2		12.0	23.0	2.5	/experiments/knapen_aot/oldvideos/R_S_yt-QFGyhhr1KSQ_9.mp4	0.0	168.2754602432251	0.09999799728393555
26	72.33536219596863	fix_pre	0		32.0	24.0	2.5	/experiments/knapen_aot/oldvideos/R_S_ILSVRC2015_train_00441000.mp4	0.0	168.37545824050903	0.267772912979126
26	72.59375619888306	response	0	4		24.0	2.5	/experiments/knapen_aot/oldvideos/R_S_ILSVRC2015_train_00441000.mp4	0.0	168.63385224342346	
26	72.60313510894775	movie	1		301.0	24.0	2.5	/experiments/knapen_aot/oldvideos/R_S_ILSVRC2015_train_00441000.mp4	0.0	168.64323115348816	2.5071499347686768
26	75.11028504371643	fix_post	2		12.0	24.0	2.5	/experiments/knapen_aot/oldvideos/R_S_ILSVRC2015_train_00441000.mp4	0.0	171.15038108825684	0.09999799728393555
27	75.21028304100037	fix_pre	0		27.0	25.0	2.5	/experiments/knapen_aot/oldvideos/R_S_AK_A004_C012_SDR_20191217_SDR_2K_AVC.mp4	0.0	171.25037908554077	0.22611713409423828
27	75.42709016799927	response	0	4		25.0	2.5	/experiments/knapen_aot/oldvideos/R_S_AK_A004_C012_SDR_20191217_SDR_2K_AVC.mp4	0.0	171.46718621253967	
27	75.4364001750946	movie	1		164.0	25.0	2.5	/experiments/knapen_aot/oldvideos/R_S_AK_A004_C012_SDR_20191217_SDR_2K_AVC.mp4	0.0	171.476496219635	2.5071959495544434
27	77.94359612464905	fix_post	2		12.0	25.0	2.5	/experiments/knapen_aot/oldvideos/R_S_AK_A004_C012_SDR_20191217_SDR_2K_AVC.mp4	0.0	173.98369216918945	0.10004401206970215
28	78.04364013671875	fix_pre	0		24.0	26.0	2.5	/experiments/knapen_aot/oldvideos/S_ILSVRC2015_train_00725000.mp4	0.0	174.08373618125916	0.19994187355041504
28	78.22791719436646	response	0	4		26.0	2.5	/experiments/knapen_aot/oldvideos/S_ILSVRC2015_train_00725000.mp4	0.0	174.26801323890686	
28	78.24358201026917	movie	1		301.0	26.0	2.5	/experiments/knapen_aot/oldvideos/S_ILSVRC2015_train_00725000.mp4	0.0	174.28367805480957	2.508345127105713
28	80.75192713737488	fix_post	2		12.0	26.0	2.5	/experiments/knapen_aot/oldvideos/S_ILSVRC2015_train_00725000.mp4	0.0	176.79202318191528	0.10113906860351562
29	80.8530662059784	fix_pre	0		104.0	27.0	2.5	/experiments/knapen_aot/oldvideos/R_S_yt-jzDaQD-g168_103.mp4	0.0	176.8931622505188	0.8654818534851074
29	81.71041822433472	response	0	4		27.0	2.5	/experiments/knapen_aot/oldvideos/R_S_yt-jzDaQD-g168_103.mp4	0.0	177.75051426887512	
29	81.7185480594635	movie	1		301.0	27.0	2.5	/experiments/knapen_aot/oldvideos/R_S_yt-jzDaQD-g168_103.mp4	0.0	177.7586441040039	2.5083961486816406
29	84.22694420814514	fix_post	2		12.0	27.0	2.5	/experiments/knapen_aot/oldvideos/R_S_yt-jzDaQD-g168_103.mp4	0.0	180.26704025268555	0.10003900527954102
30	84.32698321342468	fix_pre	0		50.0	28.0	2.5	blank	1.0	180.3670792579651	0.4166858196258545
30	84.73540115356445	response	0	4		28.0	2.5	blank	1.0	180.77549719810486	
30	84.74366903305054	movie	1		301.0	28.0	2.5	blank	1.0	180.78376507759094	2.5082931518554688
30	87.251962184906	fix_post	2		12.0	28.0	2.5	blank	1.0	183.2920582294464	0.09994387626647949
31	87.35190606117249	fix_pre	0		26.0	29.0	2.5	/experiments/knapen_aot/oldvideos/S_yt-4Qz0m5IYh10_167.mp4	0.0	183.3920021057129	0.2166900634765625
31	87.56036520004272	response	0	4		29.0	2.5	/experiments/knapen_aot/oldvideos/S_yt-4Qz0m5IYh10_167.mp4	0.0	183.60046124458313	
31	87.56859612464905	movie	1		301.0	29.0	2.5	/experiments/knapen_aot/oldvideos/S_yt-4Qz0m5IYh10_167.mp4	0.0	183.60869216918945	2.5085508823394775
31	90.07714700698853	fix_post	2		12.0	29.0	2.5	/experiments/knapen_aot/oldvideos/S_yt-4Qz0m5IYh10_167.mp4	0.0	186.11724305152893	0.09974002838134766
32	90.17688703536987	fix_pre	0		40.0	30.0	2.5	/experiments/knapen_aot/oldvideos/S_yt-RVoC19C420Y_27.mp4	0.0	186.21698307991028	0.3333170413970947
32	90.50201416015625	response	0	4		30.0	2.5	/experiments/knapen_aot/oldvideos/S_yt-RVoC19C420Y_27.mp4	0.0	186.54211020469666	
32	90.51020407676697	movie	1		301.0	30.0	2.5	/experiments/knapen_aot/oldvideos/S_yt-RVoC19C420Y_27.mp4	0.0	186.55030012130737	2.508327007293701
32	93.01853108406067	fix_post	2		12.0	30.0	2.5	/experiments/knapen_aot/oldvideos/S_yt-RVoC19C420Y_27.mp4	0.0	189.05862712860107	0.0999460220336914
33	93.11847710609436	fix_pre	0		26.0	31.0	2.5	/experiments/knapen_aot/oldvideos/R_S_yt-2XRGfGc0q44_37.mp4	0.0	189.15857315063477	0.21672511100769043
33	93.32703804969788	response	0	4		31.0	2.5	/experiments/knapen_aot/oldvideos/R_S_yt-2XRGfGc0q44_37.mp4	0.0	189.36713409423828	
33	93.33520221710205	movie	1		301.0	31.0	2.5	/experiments/knapen_aot/oldvideos/R_S_yt-2XRGfGc0q44_37.mp4	0.0	189.37529826164246	2.508436918258667
33	95.84363913536072	fix_post	2		12.0	31.0	2.5	/experiments/knapen_aot/oldvideos/R_S_yt-2XRGfGc0q44_37.mp4	0.0	191.88373517990112	0.0998690128326416
34	95.94350814819336	fix_pre	0		17.0	32.0	2.5	/experiments/knapen_aot/oldvideos/S_yt-4i1b6NQ9NKs_5.mp4	0.0	191.98360419273376	0.14166903495788574
34	96.0769681930542	response	0	4		32.0	2.5	/experiments/knapen_aot/oldvideos/S_yt-4i1b6NQ9NKs_5.mp4	0.0	192.1170642375946	
34	96.08517718315125	movie	1		301.0	32.0	2.5	/experiments/knapen_aot/oldvideos/S_yt-4i1b6NQ9NKs_5.mp4	0.0	192.12527322769165	2.508358955383301
34	98.59353613853455	fix_post	2		12.0	32.0	2.5	/experiments/knapen_aot/oldvideos/S_yt-4i1b6NQ9NKs_5.mp4	0.0	194.63363218307495	0.09998202323913574
35	98.69351816177368	fix_pre	0		12.0	33.0	2.5	/experiments/knapen_aot/oldvideos/S_yt-ZwnliF0525U_95.mp4	0.0	194.7336142063141	0.09996485710144043
35	98.77781820297241	response	0	4		33.0	2.5	/experiments/knapen_aot/oldvideos/S_yt-ZwnliF0525U_95.mp4	0.0	194.81791424751282	
35	98.79348301887512	movie	1		301.0	33.0	2.5	/experiments/knapen_aot/oldvideos/S_yt-ZwnliF0525U_95.mp4	0.0	194.83357906341553	2.5083930492401123
35	101.30187606811523	fix_post	2		12.0	33.0	2.5	/experiments/knapen_aot/oldvideos/S_yt-ZwnliF0525U_95.mp4	0.0	197.34197211265564	0.10015010833740234
36	101.40202617645264	fix_pre	0		34.0	34.0	2.5	blank	1.0	197.44212222099304	0.28321099281311035
36	101.67698812484741	response	0	4		34.0	2.5	blank	1.0	197.71708416938782	
36	101.68523716926575	movie	1		301.0	34.0	2.5	blank	1.0	197.72533321380615	2.5082478523254395
36	104.19348502159119	fix_post	2		12.0	34.0	2.5	blank	1.0	200.2335810661316	0.10022711753845215
37	104.29371213912964	fix_pre	0		22.0	35.0	2.5	/experiments/knapen_aot/oldvideos/S_yt-AbJBxqEYoMg_27.mp4	0.0	200.33380818367004	0.1831209659576416
37	104.46104311943054	response	0	4		35.0	2.5	/experiments/knapen_aot/oldvideos/S_yt-AbJBxqEYoMg_27.mp4	0.0	200.50113916397095	
37	104.47683310508728	movie	1		301.0	35.0	2.5	/experiments/knapen_aot/oldvideos/S_yt-AbJBxqEYoMg_27.mp4	0.0	200.51692914962769	2.50832200050354
37	106.98515510559082	fix_post	2		12.0	35.0	2.5	/experiments/knapen_aot/oldvideos/S_yt-AbJBxqEYoMg_27.mp4	0.0	203.02525115013123	0.09995388984680176
38	107.08510899543762	fix_pre	0		22.0	36.0	2.5	/experiments/knapen_aot/oldvideos/S_yt-1CV2cYtUlxE_57.mp4	0.0	203.12520503997803	0.1843400001525879
38	107.26029801368713	response	0	4		36.0	2.5	/experiments/knapen_aot/oldvideos/S_yt-1CV2cYtUlxE_57.mp4	0.0	203.30039405822754	
38	107.26944899559021	movie	1		301.0	36.0	2.5	/experiments/knapen_aot/oldvideos/S_yt-1CV2cYtUlxE_57.mp4	0.0	203.30954504013062	2.507451057434082
38	109.77690005302429	fix_post	2		12.0	36.0	2.5	/experiments/knapen_aot/oldvideos/S_yt-1CV2cYtUlxE_57.mp4	0.0	205.8169960975647	0.09991002082824707
39	109.87681007385254	fix_pre	0		29.0	37.0	2.5	/experiments/knapen_aot/oldvideos/R_S_yt-44ip3uFe4YM_30.mp4	0.0	205.91690611839294	0.24164605140686035
39	110.11020302772522	response	0	4		37.0	2.5	/experiments/knapen_aot/oldvideos/R_S_yt-44ip3uFe4YM_30.mp4	0.0	206.15029907226562	
39	110.1184561252594	movie	1		301.0	37.0	2.5	/experiments/knapen_aot/oldvideos/R_S_yt-44ip3uFe4YM_30.mp4	0.0	206.1585521697998	2.5084140300750732
39	112.62687015533447	fix_post	2		12.0	37.0	2.5	/experiments/knapen_aot/oldvideos/R_S_yt-44ip3uFe4YM_30.mp4	0.0	208.66696619987488	0.09994697570800781
40	112.72681713104248	fix_pre	0		34.0	38.0	2.5	/experiments/knapen_aot/oldvideos/S_yt-0aHV3uU8xFY_75.mp4	0.0	208.76691317558289	0.2833120822906494
40	113.00189900398254	response	0	4		38.0	2.5	/experiments/knapen_aot/oldvideos/S_yt-0aHV3uU8xFY_75.mp4	0.0	209.04199504852295	
40	113.01012921333313	movie	1		301.0	38.0	2.5	/experiments/knapen_aot/oldvideos/S_yt-0aHV3uU8xFY_75.mp4	0.0	209.05022525787354	2.508344888687134
40	115.51847410202026	fix_post	2		12.0	38.0	2.5	/experiments/knapen_aot/oldvideos/S_yt-0aHV3uU8xFY_75.mp4	0.0	211.55857014656067	0.10005593299865723
41	115.61853003501892	fix_pre	0		32.0	39.0	2.5	/experiments/knapen_aot/oldvideos/R_S_ILSVRC2015_train_00745000.mp4	0.0	211.65862607955933	0.2665560245513916
41	115.87689208984375	response	0	4		39.0	2.5	/experiments/knapen_aot/oldvideos/R_S_ILSVRC2015_train_00745000.mp4	0.0	211.91698813438416	
41	115.88508605957031	movie	1		301.0	39.0	2.5	/experiments/knapen_aot/oldvideos/R_S_ILSVRC2015_train_00745000.mp4	0.0	211.92518210411072	2.508389949798584
41	118.3934760093689	fix_post	2		12.0	39.0	2.5	/experiments/knapen_aot/oldvideos/R_S_ILSVRC2015_train_00745000.mp4	0.0	214.4335720539093	0.09994316101074219
42	118.49341917037964	fix_pre	0		24.0	40.0	2.5	/experiments/knapen_aot/oldvideos/R_S_yt-sIXdPhfS67U_203.mp4	0.0	214.53351521492004	0.19998693466186523
42	118.68523001670837	response	0	4		40.0	2.5	/experiments/knapen_aot/oldvideos/R_S_yt-sIXdPhfS67U_203.mp4	0.0	214.72532606124878	
42	118.6934061050415	movie	1		301.0	40.0	2.5	/experiments/knapen_aot/oldvideos/R_S_yt-sIXdPhfS67U_203.mp4	0.0	214.7335021495819	2.5083940029144287
42	121.20180010795593	fix_post	2		12.0	40.0	2.5	/experiments/knapen_aot/oldvideos/R_S_yt-sIXdPhfS67U_203.mp4	0.0	217.24189615249634	0.09989690780639648
43	121.30169701576233	fix_pre	0		36.0	41.0	2.5	blank	1.0	217.34179306030273	0.30002307891845703
43	121.59351801872253	response	0	4		41.0	2.5	blank	1.0	217.63361406326294	
43	121.60172009468079	movie	1		301.0	41.0	2.5	blank	1.0	217.6418161392212	2.5083560943603516
43	124.11007618904114	fix_post	2		12.0	41.0	2.5	blank	1.0	220.15017223358154	0.10001802444458008
44	124.21009421348572	fix_pre	0		65.0	42.0	2.5	/experiments/knapen_aot/oldvideos/S_yt-WASlRH1zA8c_175.mp4	0.0	220.25019025802612	0.5415937900543213
44	124.74351716041565	response	0	4		42.0	2.5	/experiments/knapen_aot/oldvideos/S_yt-WASlRH1zA8c_175.mp4	0.0	220.78361320495605	
44	124.75168800354004	movie	1		301.0	42.0	2.5	/experiments/knapen_aot/oldvideos/S_yt-WASlRH1zA8c_175.mp4	0.0	220.79178404808044	2.5087921619415283
44	127.26048016548157	fix_post	2		12.0	42.0	2.5	/experiments/knapen_aot/oldvideos/S_yt-WASlRH1zA8c_175.mp4	0.0	223.30057621002197	0.09951400756835938
45	127.35999417304993	fix_pre	0		61.0	43.0	2.5	/experiments/knapen_aot/oldvideos/S_yt-TSSPDwAQLXs_158.mp4	0.0	223.40009021759033	0.5083808898925781
45	127.86019515991211	response	0	4		43.0	2.5	/experiments/knapen_aot/oldvideos/S_yt-TSSPDwAQLXs_158.mp4	0.0	223.90029120445251	
45	127.8683750629425	movie	1		301.0	43.0	2.5	/experiments/knapen_aot/oldvideos/S_yt-TSSPDwAQLXs_158.mp4	0.0	223.9084711074829	2.5083401203155518
45	130.37671518325806	fix_post	2		12.0	43.0	2.5	/experiments/knapen_aot/oldvideos/S_yt-TSSPDwAQLXs_158.mp4	0.0	226.41681122779846	0.09999394416809082
46	130.47670912742615	fix_pre	0		39.0	44.0	2.5	/experiments/knapen_aot/oldvideos/R_S_wc-8bTJmWfuVyJ4_8.mp4	0.0	226.51680517196655	0.3250279426574707
46	130.79354214668274	response	0	4		44.0	2.5	/experiments/knapen_aot/oldvideos/R_S_wc-8bTJmWfuVyJ4_8.mp4	0.0	226.83363819122314	
46	130.80173707008362	movie	1		164.0	44.0	2.5	/experiments/knapen_aot/oldvideos/R_S_wc-8bTJmWfuVyJ4_8.mp4	0.0	226.84183311462402	2.508307933807373
46	133.310045003891	fix_post	2		12.0	44.0	2.5	/experiments/knapen_aot/oldvideos/R_S_wc-8bTJmWfuVyJ4_8.mp4	0.0	229.3501410484314	0.0999751091003418
47	133.41002011299133	fix_pre	0		370.0	45.0	2.5	/experiments/knapen_aot/oldvideos/R_S_yt-2XRGfGc0q44_37.mp4	0.0	229.45011615753174	3.0832979679107666
47	136.47762203216553	response	0	4		45.0	2.5	/experiments/knapen_aot/oldvideos/R_S_yt-2XRGfGc0q44_37.mp4	0.0	232.51771807670593	
47	136.4933180809021	movie	1		301.0	45.0	2.5	/experiments/knapen_aot/oldvideos/R_S_yt-2XRGfGc0q44_37.mp4	0.0	232.5334141254425	2.508331060409546
47	139.00164914131165	fix_post	2		12.0	45.0	2.5	/experiments/knapen_aot/oldvideos/R_S_yt-2XRGfGc0q44_37.mp4	0.0	235.04174518585205	0.1008920669555664
48	139.1025412082672	fix_pre	0		78.0	46.0	2.5	/experiments/knapen_aot/oldvideos/R_S_comp_A105_C003_0212CT_FLARE_v10_SDR_PS_FINAL_20180711_SDR_2K_AVC.mp4	0.0	235.14263725280762	0.6490628719329834
48	139.74350214004517	response	0	4		46.0	2.5	/experiments/knapen_aot/oldvideos/R_S_comp_A105_C003_0212CT_FLARE_v10_SDR_PS_FINAL_20180711_SDR_2K_AVC.mp4	0.0	235.78359818458557	
48	139.7516040802002	movie	1		164.0	46.0	2.5	/experiments/knapen_aot/oldvideos/R_S_comp_A105_C003_0212CT_FLARE_v10_SDR_PS_FINAL_20180711_SDR_2K_AVC.mp4	0.0	235.7917001247406	2.508435010910034
48	142.26003909111023	fix_post	2		12.0	46.0	2.5	/experiments/knapen_aot/oldvideos/R_S_comp_A105_C003_0212CT_FLARE_v10_SDR_PS_FINAL_20180711_SDR_2K_AVC.mp4	0.0	238.30013513565063	0.10010695457458496
49	142.36014604568481	fix_pre	0		8.0	47.0	2.5	/experiments/knapen_aot/oldvideos/R_S_yt-RMjo2PPEPEA_112.mp4	0.0	238.40024209022522	0.0664060115814209
49	142.4184811115265	response	0	4		47.0	2.5	/experiments/knapen_aot/oldvideos/R_S_yt-RMjo2PPEPEA_112.mp4	0.0	238.4585771560669	
49	142.42655205726624	movie	1		301.0	47.0	2.5	/experiments/knapen_aot/oldvideos/R_S_yt-RMjo2PPEPEA_112.mp4	0.0	238.46664810180664	2.508466958999634
49	144.93501901626587	fix_post	2		12.0	47.0	2.5	/experiments/knapen_aot/oldvideos/R_S_yt-RMjo2PPEPEA_112.mp4	0.0	240.97511506080627	0.10010910034179688
50	145.03512811660767	fix_pre	0		286.0	48.0	2.5	blank	1.0	241.07522416114807	2.3831748962402344
50	147.41014313697815	response	0	4		48.0	2.5	blank	1.0	243.45023918151855	
50	147.4183030128479	movie	1		301.0	48.0	2.5	blank	1.0	243.4583990573883	2.5083770751953125
50	149.9266800880432	fix_post	2		12.0	48.0	2.5	blank	1.0	245.96677613258362	0.10009312629699707
51	150.0267732143402	fix_pre	0		29.0	49.0	2.5	/experiments/knapen_aot/oldvideos/R_S_yt-vjed5qyKqZw_1.mp4	0.0	246.06686925888062	0.24225091934204102
51	150.26004815101624	response	0	4		49.0	2.5	/experiments/knapen_aot/oldvideos/R_S_yt-vjed5qyKqZw_1.mp4	0.0	246.30014419555664	
51	150.26902413368225	movie	1		301.0	49.0	2.5	/experiments/knapen_aot/oldvideos/R_S_yt-vjed5qyKqZw_1.mp4	0.0	246.30912017822266	2.5076520442962646
51	152.77667617797852	fix_post	2		12.0	49.0	2.5	/experiments/knapen_aot/oldvideos/R_S_yt-vjed5qyKqZw_1.mp4	0.0	248.81677222251892	0.09993886947631836
52	152.87661504745483	fix_pre	0		10.0	50.0	2.5	/experiments/knapen_aot/oldvideos/S_yt-x7NWmdlvVIQ_183.mp4	0.0	248.91671109199524	0.08343005180358887
52	152.95173001289368	response	0	4		50.0	2.5	/experiments/knapen_aot/oldvideos/S_yt-x7NWmdlvVIQ_183.mp4	0.0	248.99182605743408	
52	152.96004509925842	movie	1		301.0	50.0	2.5	/experiments/knapen_aot/oldvideos/S_yt-x7NWmdlvVIQ_183.mp4	0.0	249.00014114379883	2.508213996887207
52	155.46825909614563	fix_post	2		12.0	50.0	2.5	/experiments/knapen_aot/oldvideos/S_yt-x7NWmdlvVIQ_183.mp4	0.0	251.50835514068604	0.09997797012329102
53	155.56823706626892	fix_pre	0		13.0	51.0	2.5	/experiments/knapen_aot/oldvideos/R_S_production_ID_4802710.mp4	0.0	251.60833311080933	0.10834813117980957
53	155.66841411590576	response	0	4		51.0	2.5	/experiments/knapen_aot/oldvideos/R_S_production_ID_4802710.mp4	0.0	251.70851016044617	
53	155.67658519744873	movie	1		165.0	51.0	2.5	/experiments/knapen_aot/oldvideos/R_S_production_ID_4802710.mp4	0.0	251.71668124198914	2.5084729194641113
53	158.18505811691284	fix_post	2		12.0	51.0	2.5	/experiments/knapen_aot/oldvideos/R_S_production_ID_4802710.mp4	0.0	254.22515416145325	0.09991002082824707
54	158.2849681377411	fix_pre	0		26.0	52.0	2.5	/experiments/knapen_aot/oldvideos/R_S_yt-kiEFK7bDssE_14.mp4	0.0	254.3250641822815	0.21654701232910156
54	158.49341416358948	response	0	4		52.0	2.5	/experiments/knapen_aot/oldvideos/R_S_yt-kiEFK7bDssE_14.mp4	0.0	254.53351020812988	
54	158.5015151500702	movie	1		301.0	52.0	2.5	/experiments/knapen_aot/oldvideos/R_S_yt-kiEFK7bDssE_14.mp4	0.0	254.5416111946106	2.5087080001831055
54	161.0102231502533	fix_post	2		12.0	52.0	2.5	/experiments/knapen_aot/oldvideos/R_S_yt-kiEFK7bDssE_14.mp4	0.0	257.0503191947937	0.09972095489501953
55	161.10994410514832	fix_pre	0		31.0	53.0	2.5	/experiments/knapen_aot/oldvideos/R_S_production_ID_5049072.mp4	0.0	257.1500401496887	0.2582969665527344
55	161.35996103286743	response	0	4		53.0	2.5	/experiments/knapen_aot/oldvideos/R_S_production_ID_5049072.mp4	0.0	257.40005707740784	
55	161.36824107170105	movie	1		166.0	53.0	2.5	/experiments/knapen_aot/oldvideos/R_S_production_ID_5049072.mp4	0.0	257.40833711624146	2.508357048034668
55	163.87659811973572	fix_post	2		12.0	53.0	2.5	/experiments/knapen_aot/oldvideos/R_S_production_ID_5049072.mp4	0.0	259.9166941642761	0.10012698173522949
56	163.97672510147095	fix_pre	0		22.0	54.0	2.5	/experiments/knapen_aot/oldvideos/R_S_yt-3R23XwTXpKs_238.mp4	0.0	260.01682114601135	0.18317294120788574
56	164.14414620399475	response	0	4		54.0	2.5	/experiments/knapen_aot/oldvideos/R_S_yt-3R23XwTXpKs_238.mp4	0.0	260.18424224853516	
56	164.15989804267883	movie	1		301.0	54.0	2.5	/experiments/knapen_aot/oldvideos/R_S_yt-3R23XwTXpKs_238.mp4	0.0	260.19999408721924	2.508397102355957
56	166.6682951450348	fix_post	2		12.0	54.0	2.5	/experiments/knapen_aot/oldvideos/R_S_yt-3R23XwTXpKs_238.mp4	0.0	262.7083911895752	0.1006920337677002
57	166.7689871788025	fix_pre	0		128.0	55.0	2.5	blank	1.0	262.8090832233429	1.0658760070800781
57	167.8266282081604	response	0	4		55.0	2.5	blank	1.0	263.8667242527008	
57	167.83486318588257	movie	1		301.0	55.0	2.5	blank	1.0	263.874959230423	2.508363962173462
57	170.34322714805603	fix_post	2		12.0	55.0	2.5	blank	1.0	266.38332319259644	0.10004305839538574
58	170.44327020645142	fix_pre	0		32.0	56.0	2.5	/experiments/knapen_aot/oldvideos/R_S_yt-tneuR3EtSZE_72.mp4	0.0	266.4833662509918	0.2665579319000244
58	170.70162320137024	response	0	4		56.0	2.5	/experiments/knapen_aot/oldvideos/R_S_yt-tneuR3EtSZE_72.mp4	0.0	266.74171924591064	
58	170.70982813835144	movie	1		301.0	56.0	2.5	/experiments/knapen_aot/oldvideos/R_S_yt-tneuR3EtSZE_72.mp4	0.0	266.74992418289185	2.508384943008423
58	173.21821308135986	fix_post	2		12.0	56.0	2.5	/experiments/knapen_aot/oldvideos/R_S_yt-tneuR3EtSZE_72.mp4	0.0	269.25830912590027	0.09993910789489746
59	173.31815218925476	fix_pre	0		20.0	57.0	2.5	/experiments/knapen_aot/oldvideos/R_S_yt-YyKEeu2gLrI_158.mp4	0.0	269.35824823379517	0.1666698455810547
59	173.4766490459442	response	0	4		57.0	2.5	/experiments/knapen_aot/oldvideos/R_S_yt-YyKEeu2gLrI_158.mp4	0.0	269.5167450904846	
59	173.48482203483582	movie	1		301.0	57.0	2.5	/experiments/knapen_aot/oldvideos/R_S_yt-YyKEeu2gLrI_158.mp4	0.0	269.5249180793762	2.5083160400390625
59	175.99313807487488	fix_post	2		12.0	57.0	2.5	/experiments/knapen_aot/oldvideos/R_S_yt-YyKEeu2gLrI_158.mp4	0.0	272.0332341194153	0.10014510154724121
60	176.09328317642212	fix_pre	0		25.0	58.0	2.5	/experiments/knapen_aot/oldvideos/R_S_goAwcQiFu1Q_99.mp4	0.0	272.1333792209625	0.20817089080810547
60	176.29326915740967	response	0	4		58.0	2.5	/experiments/knapen_aot/oldvideos/R_S_goAwcQiFu1Q_99.mp4	0.0	272.3333652019501	
60	176.30145406723022	movie	1		301.0	58.0	2.5	/experiments/knapen_aot/oldvideos/R_S_goAwcQiFu1Q_99.mp4	0.0	272.34155011177063	2.5084941387176514
60	178.80994820594788	fix_post	2		12.0	58.0	2.5	/experiments/knapen_aot/oldvideos/R_S_goAwcQiFu1Q_99.mp4	0.0	274.8500442504883	0.0999000072479248
61	178.9098482131958	fix_pre	0		6.0	59.0	2.5	/experiments/knapen_aot/oldvideos/S_yt-wUqpCtBOFBA_89.mp4	0.0	274.9499442577362	0.04993891716003418
61	178.95166301727295	response	0	4		59.0	2.5	/experiments/knapen_aot/oldvideos/S_yt-wUqpCtBOFBA_89.mp4	0.0	274.99175906181335	
61	178.95978713035583	movie	1		301.0	59.0	2.5	/experiments/knapen_aot/oldvideos/S_yt-wUqpCtBOFBA_89.mp4	0.0	274.99988317489624	2.508394956588745
61	181.46818208694458	fix_post	2		12.0	59.0	2.5	/experiments/knapen_aot/oldvideos/S_yt-wUqpCtBOFBA_89.mp4	0.0	277.508278131485	0.10000014305114746
62	181.56818222999573	fix_pre	0		31.0	60.0	2.5	/experiments/knapen_aot/oldvideos/S_Pexels_Videos_2376809.mp4	0.0	277.60827827453613	0.25829482078552246
62	181.81823420524597	response	0	4		60.0	2.5	/experiments/knapen_aot/oldvideos/S_Pexels_Videos_2376809.mp4	0.0	277.8583302497864	
62	181.82647705078125	movie	1		180.0	60.0	2.5	/experiments/knapen_aot/oldvideos/S_Pexels_Videos_2376809.mp4	0.0	277.86657309532166	2.5083680152893066
62	184.33484506607056	fix_post	2		12.0	60.0	2.5	/experiments/knapen_aot/oldvideos/S_Pexels_Videos_2376809.mp4	0.0	280.37494111061096	0.10005497932434082
63	184.4349000453949	fix_pre	0		32.0	61.0	2.5	/experiments/knapen_aot/oldvideos/R_S_yt-KLInd-KrK_w_19.mp4	0.0	280.4749960899353	0.26656317710876465
63	184.6932601928711	response	0	4		61.0	2.5	/experiments/knapen_aot/oldvideos/R_S_yt-KLInd-KrK_w_19.mp4	0.0	280.7333562374115	
63	184.70146322250366	movie	1		301.0	61.0	2.5	/experiments/knapen_aot/oldvideos/R_S_yt-KLInd-KrK_w_19.mp4	0.0	280.74155926704407	2.508375883102417
63	187.20983910560608	fix_post	2		12.0	61.0	2.5	/experiments/knapen_aot/oldvideos/R_S_yt-KLInd-KrK_w_19.mp4	0.0	283.2499351501465	0.09999990463256836
64	187.30983901023865	fix_pre	0		56.0	62.0	2.5	/experiments/knapen_aot/oldvideos/S_yt-Ev39pXXfr1Y_152.mp4	0.0	283.34993505477905	0.4666581153869629
64	187.7683801651001	response	0	4		62.0	2.5	/experiments/knapen_aot/oldvideos/S_yt-Ev39pXXfr1Y_152.mp4	0.0	283.8084762096405	
64	187.7764971256256	movie	1		301.0	62.0	2.5	/experiments/knapen_aot/oldvideos/S_yt-Ev39pXXfr1Y_152.mp4	0.0	283.816593170166	2.5083539485931396
64	190.28485107421875	fix_post	2		12.0	62.0	2.5	/experiments/knapen_aot/oldvideos/S_yt-Ev39pXXfr1Y_152.mp4	0.0	286.32494711875916	0.1000211238861084
65	190.38487219810486	fix_pre	0		34.0	63.0	2.5	blank	1.0	286.42496824264526	0.28324079513549805
65	190.65243315696716	response	0	4		63.0	2.5	blank	1.0	286.69252920150757	
65	190.66811299324036	movie	1		301.0	63.0	2.5	blank	1.0	286.70820903778076	2.508411169052124
65	193.17652416229248	fix_post	2		12.0	63.0	2.5	blank	1.0	289.2166202068329	0.10016989707946777
66	193.27669405937195	fix_pre	0		41.0	64.0	2.5	/experiments/knapen_aot/oldvideos/R_S_yt-nE8YJOhW4e4_171.mp4	0.0	289.31679010391235	0.34143614768981934
66	193.60992813110352	response	0	4		64.0	2.5	/experiments/knapen_aot/oldvideos/R_S_yt-nE8YJOhW4e4_171.mp4	0.0	289.6500241756439	
66	193.61813020706177	movie	1		301.0	64.0	2.5	/experiments/knapen_aot/oldvideos/R_S_yt-nE8YJOhW4e4_171.mp4	0.0	289.6582262516022	2.5083518028259277
66	196.1264820098877	fix_post	2		12.0	64.0	2.5	/experiments/knapen_aot/oldvideos/R_S_yt-nE8YJOhW4e4_171.mp4	0.0	292.1665780544281	0.1004340648651123
67	196.2269160747528	fix_pre	0		35.0	65.0	2.5	/experiments/knapen_aot/oldvideos/S_gHYomsO1dSU_5.mp4	0.0	292.2670121192932	0.29161596298217773
67	196.50999307632446	response	0	4		65.0	2.5	/experiments/knapen_aot/oldvideos/S_gHYomsO1dSU_5.mp4	0.0	292.55008912086487	
67	196.51853203773499	movie	1		301.0	65.0	2.5	/experiments/knapen_aot/oldvideos/S_gHYomsO1dSU_5.mp4	0.0	292.5586280822754	2.507935047149658
67	199.02646708488464	fix_post	2		12.0	65.0	2.5	/experiments/knapen_aot/oldvideos/S_gHYomsO1dSU_5.mp4	0.0	295.06656312942505	0.09997010231018066
68	199.12643718719482	fix_pre	0		46.0	66.0	2.5	/experiments/knapen_aot/oldvideos/S_yt-ZE8Af60eNsI_15.mp4	0.0	295.16653323173523	0.38324499130249023
68	199.5015799999237	response	0	4		66.0	2.5	/experiments/knapen_aot/oldvideos/S_yt-ZE8Af60eNsI_15.mp4	0.0	295.5416760444641	
68	199.50968217849731	movie	1		301.0	66.0	2.5	/experiments/knapen_aot/oldvideos/S_yt-ZE8Af60eNsI_15.mp4	0.0	295.5497782230377	2.508404016494751
68	202.01808619499207	fix_post	2		12.0	66.0	2.5	/experiments/knapen_aot/oldvideos/S_yt-ZE8Af60eNsI_15.mp4	0.0	298.05818223953247	0.09996485710144043
69	202.1180510520935	fix_pre	0		79.0	67.0	2.5	/experiments/knapen_aot/oldvideos/R_S_yt-7VVzNnp36DM_78.mp4	0.0	298.1581470966339	0.6583089828491211
69	202.76824116706848	response	0	4		67.0	2.5	/experiments/knapen_aot/oldvideos/R_S_yt-7VVzNnp36DM_78.mp4	0.0	298.8083372116089	
69	202.77636003494263	movie	1		301.0	67.0	2.5	/experiments/knapen_aot/oldvideos/R_S_yt-7VVzNnp36DM_78.mp4	0.0	298.81645607948303	2.5084421634674072
69	205.28480219841003	fix_post	2		12.0	67.0	2.5	/experiments/knapen_aot/oldvideos/R_S_yt-7VVzNnp36DM_78.mp4	0.0	301.32489824295044	0.09994983673095703
70	205.384752035141	fix_pre	0		113.0	68.0	2.5	/experiments/knapen_aot/oldvideos/S_yt-mdLT282PVbE_6.mp4	0.0	301.4248480796814	0.9415919780731201
70	206.31813216209412	response	0	4		68.0	2.5	/experiments/knapen_aot/oldvideos/S_yt-mdLT282PVbE_6.mp4	0.0	302.3582282066345	
70	206.3263440132141	movie	1		301.0	68.0	2.5	/experiments/knapen_aot/oldvideos/S_yt-mdLT282PVbE_6.mp4	0.0	302.3664400577545	2.5083720684051514
70	208.83471608161926	fix_post	2		12.0	68.0	2.5	/experiments/knapen_aot/oldvideos/S_yt-mdLT282PVbE_6.mp4	0.0	304.87481212615967	0.09993314743041992
71	208.93464922904968	fix_pre	0		49.0	69.0	2.5	blank	1.0	304.9747452735901	0.4083828926086426
71	209.33478307724	response	0	4		69.0	2.5	blank	1.0	305.3748791217804	
71	209.34303212165833	movie	1		301.0	69.0	2.5	blank	1.0	305.38312816619873	2.5083179473876953
71	211.85135006904602	fix_post	2		12.0	69.0	2.5	blank	1.0	307.8914461135864	0.10015296936035156
72	211.95150303840637	fix_pre	0		89.0	70.0	2.5	/experiments/knapen_aot/oldvideos/R_S_yt-2ZsK7zSCJ2w_67.mp4	0.0	307.9915990829468	0.7414700984954834
72	212.68481707572937	response	0	4		70.0	2.5	/experiments/knapen_aot/oldvideos/R_S_yt-2ZsK7zSCJ2w_67.mp4	0.0	308.7249131202698	
72	212.69297313690186	movie	1		301.0	70.0	2.5	/experiments/knapen_aot/oldvideos/R_S_yt-2ZsK7zSCJ2w_67.mp4	0.0	308.73306918144226	2.5088179111480713
72	215.20179104804993	fix_post	2		12.0	70.0	2.5	/experiments/knapen_aot/oldvideos/R_S_yt-2ZsK7zSCJ2w_67.mp4	0.0	311.24188709259033	0.09961414337158203
73	215.3014051914215	fix_pre	0		29.0	71.0	2.5	/experiments/knapen_aot/oldvideos/R_S_yt-Kwfwhd07dVo_2.mp4	0.0	311.3415012359619	0.2416548728942871
73	215.53480100631714	response	0	4		71.0	2.5	/experiments/knapen_aot/oldvideos/R_S_yt-Kwfwhd07dVo_2.mp4	0.0	311.57489705085754	
73	215.5430600643158	movie	1		301.0	71.0	2.5	/experiments/knapen_aot/oldvideos/R_S_yt-Kwfwhd07dVo_2.mp4	0.0	311.5831561088562	2.508319139480591
73	218.0513792037964	fix_post	2		12.0	71.0	2.5	/experiments/knapen_aot/oldvideos/R_S_yt-Kwfwhd07dVo_2.mp4	0.0	314.0914752483368	0.09996891021728516
74	218.15134811401367	fix_pre	0		37.0	72.0	2.5	/experiments/knapen_aot/oldvideos/S_Pexels_Videos_2376809.mp4	0.0	314.1914441585541	0.31154394149780273
74	218.4514081478119	response	0	4		72.0	2.5	/experiments/knapen_aot/oldvideos/S_Pexels_Videos_2376809.mp4	0.0	314.4915041923523	
74	218.46289205551147	movie	1		171.0	72.0	2.5	/experiments/knapen_aot/oldvideos/S_Pexels_Videos_2376809.mp4	0.0	314.5029881000519	2.5050930976867676
74	220.96798515319824	fix_post	2		12.0	72.0	2.5	/experiments/knapen_aot/oldvideos/S_Pexels_Videos_2376809.mp4	0.0	317.00808119773865	0.10001993179321289
75	221.06800508499146	fix_pre	0		19.0	73.0	2.5	/experiments/knapen_aot/oldvideos/R_S_yt-1UFhynm5g6Y_266.mp4	0.0	317.10810112953186	0.1586620807647705
75	221.21808099746704	response	0	4		73.0	2.5	/experiments/knapen_aot/oldvideos/R_S_yt-1UFhynm5g6Y_266.mp4	0.0	317.25817704200745	
75	221.22666716575623	movie	1		301.0	73.0	2.5	/experiments/knapen_aot/oldvideos/R_S_yt-1UFhynm5g6Y_266.mp4	0.0	317.26676321029663	2.508018970489502
75	223.73468613624573	fix_post	2		12.0	73.0	2.5	/experiments/knapen_aot/oldvideos/R_S_yt-1UFhynm5g6Y_266.mp4	0.0	319.77478218078613	0.09996199607849121
76	223.83464813232422	fix_pre	0		10.0	74.0	2.5	/experiments/knapen_aot/oldvideos/R_S_ILSVRC2015_train_00547001.mp4	0.0	319.8747441768646	0.08334493637084961
76	223.90979504585266	response	0	4		74.0	2.5	/experiments/knapen_aot/oldvideos/R_S_ILSVRC2015_train_00547001.mp4	0.0	319.94989109039307	
76	223.91799306869507	movie	1		301.0	74.0	2.5	/experiments/knapen_aot/oldvideos/R_S_ILSVRC2015_train_00547001.mp4	0.0	319.9580891132355	2.5083200931549072
76	226.42631316184998	fix_post	2		12.0	74.0	2.5	/experiments/knapen_aot/oldvideos/R_S_ILSVRC2015_train_00547001.mp4	0.0	322.4664092063904	0.10010600090026855
77	226.52641916275024	fix_pre	0		15.0	75.0	2.5	/experiments/knapen_aot/oldvideos/S_yt-waWM9vAfsIw_116.mp4	0.0	322.56651520729065	0.1248619556427002
77	226.6431062221527	response	0	4		75.0	2.5	/experiments/knapen_aot/oldvideos/S_yt-waWM9vAfsIw_116.mp4	0.0	322.6832022666931	
77	226.65128111839294	movie	1		301.0	75.0	2.5	/experiments/knapen_aot/oldvideos/S_yt-waWM9vAfsIw_116.mp4	0.0	322.69137716293335	2.5082929134368896
77	229.15957403182983	fix_post	2		12.0	75.0	2.5	/experiments/knapen_aot/oldvideos/S_yt-waWM9vAfsIw_116.mp4	0.0	325.19967007637024	0.10007619857788086
78	229.25965023040771	fix_pre	0		20.0	76.0	2.5	/experiments/knapen_aot/oldvideos/S_comp_LA_A009_C009_PSNK_v02_SDR_PS_FINAL_20180709_SDR_2K_AVC.mp4	0.0	325.2997462749481	0.16662096977233887
78	229.4180510044098	response	0	4		76.0	2.5	/experiments/knapen_aot/oldvideos/S_comp_LA_A009_C009_PSNK_v02_SDR_PS_FINAL_20180709_SDR_2K_AVC.mp4	0.0	325.4581470489502	
78	229.42627120018005	movie	1		165.0	76.0	2.5	/experiments/knapen_aot/oldvideos/S_comp_LA_A009_C009_PSNK_v02_SDR_PS_FINAL_20180709_SDR_2K_AVC.mp4	0.0	325.46636724472046	2.5083529949188232
78	231.93462419509888	fix_post	2		12.0	76.0	2.5	/experiments/knapen_aot/oldvideos/S_comp_LA_A009_C009_PSNK_v02_SDR_PS_FINAL_20180709_SDR_2K_AVC.mp4	0.0	327.9747202396393	0.10004687309265137
79	232.03467106819153	fix_pre	0		30.0	77.0	2.5	blank	1.0	328.07476711273193	0.24999308586120605
79	232.27638912200928	response	0	4		77.0	2.5	blank	1.0	328.3164851665497	
79	232.28466415405273	movie	1		301.0	77.0	2.5	blank	1.0	328.32476019859314	2.5083580017089844
79	234.79302215576172	fix_post	2		12.0	77.0	2.5	blank	1.0	330.8331182003021	0.10032391548156738
80	234.8933460712433	fix_pre	0		38.0	78.0	2.5	/experiments/knapen_aot/oldvideos/R_S_pexels-koolshooters-7327412.mp4	0.0	330.9334421157837	0.31623315811157227
80	235.19387316703796	response	0	4		78.0	2.5	/experiments/knapen_aot/oldvideos/R_S_pexels-koolshooters-7327412.mp4	0.0	331.23396921157837	
80	235.20957922935486	movie	1		164.0	78.0	2.5	/experiments/knapen_aot/oldvideos/R_S_pexels-koolshooters-7327412.mp4	0.0	331.24967527389526	2.50834584236145
80	237.7179250717163	fix_post	2		12.0	78.0	2.5	/experiments/knapen_aot/oldvideos/R_S_pexels-koolshooters-7327412.mp4	0.0	333.7580211162567	0.10011410713195801
81	237.81803917884827	fix_pre	0		219.0	79.0	2.5	/experiments/knapen_aot/oldvideos/S_yt-h8wy6x6oytA_25.mp4	0.0	333.8581352233887	1.8250808715820312
81	239.63465118408203	response	0	4		79.0	2.5	/experiments/knapen_aot/oldvideos/S_yt-h8wy6x6oytA_25.mp4	0.0	335.67474722862244	
81	239.6431200504303	movie	1		301.0	79.0	2.5	/experiments/knapen_aot/oldvideos/S_yt-h8wy6x6oytA_25.mp4	0.0	335.6832160949707	2.5081300735473633
81	242.15125012397766	fix_post	2		12.0	79.0	2.5	/experiments/knapen_aot/oldvideos/S_yt-h8wy6x6oytA_25.mp4	0.0	338.19134616851807	0.10002899169921875
82	242.25127911567688	fix_pre	0		30.0	80.0	2.5	/experiments/knapen_aot/oldvideos/R_S_comp_LA_A006_C008_PSNK_ALL_LOGOS_v10_SDR_PS_FINAL_20180801_SDR_2K_AVC.mp4	0.0	338.2913751602173	0.24986505508422852
82	242.49295616149902	response	0	4		80.0	2.5	/experiments/knapen_aot/oldvideos/R_S_comp_LA_A006_C008_PSNK_ALL_LOGOS_v10_SDR_PS_FINAL_20180801_SDR_2K_AVC.mp4	0.0	338.53305220603943	
82	242.5011441707611	movie	1		172.0	80.0	2.5	/experiments/knapen_aot/oldvideos/R_S_comp_LA_A006_C008_PSNK_ALL_LOGOS_v10_SDR_PS_FINAL_20180801_SDR_2K_AVC.mp4	0.0	338.5412402153015	2.508443832397461
82	245.00958800315857	fix_post	2		12.0	80.0	2.5	/experiments/knapen_aot/oldvideos/R_S_comp_LA_A006_C008_PSNK_ALL_LOGOS_v10_SDR_PS_FINAL_20180801_SDR_2K_AVC.mp4	0.0	341.049684047699	0.10004019737243652
83	245.109628200531	fix_pre	0		7.0	81.0	2.5	/experiments/knapen_aot/oldvideos/S_WO9z7lBUvOs_151.mp4	0.0	341.1497242450714	0.05825996398925781
83	245.15966701507568	response	0	4		81.0	2.5	/experiments/knapen_aot/oldvideos/S_WO9z7lBUvOs_151.mp4	0.0	341.1997630596161	
83	245.16788816452026	movie	1		301.0	81.0	2.5	/experiments/knapen_aot/oldvideos/S_WO9z7lBUvOs_151.mp4	0.0	341.20798420906067	2.5083558559417725
83	247.67624402046204	fix_post	2		12.0	81.0	2.5	/experiments/knapen_aot/oldvideos/S_WO9z7lBUvOs_151.mp4	0.0	343.71634006500244	0.10019803047180176
84	247.77644205093384	fix_pre	0		10.0	82.0	2.5	/experiments/knapen_aot/oldvideos/S_yt-JTVyt-eu4VI_1.mp4	0.0	343.81653809547424	0.08311915397644043
84	247.8513309955597	response	0	4		82.0	2.5	/experiments/knapen_aot/oldvideos/S_yt-JTVyt-eu4VI_1.mp4	0.0	343.8914270401001	
84	247.85956120491028	movie	1		301.0	82.0	2.5	/experiments/knapen_aot/oldvideos/S_yt-JTVyt-eu4VI_1.mp4	0.0	343.8996572494507	2.508316993713379
84	250.36787819862366	fix_post	2		12.0	82.0	2.5	/experiments/knapen_aot/oldvideos/S_yt-JTVyt-eu4VI_1.mp4	0.0	346.40797424316406	0.09999895095825195
85	250.4678771495819	fix_pre	0		161.0	83.0	2.5	blank	1.0	346.5079731941223	1.3419189453125
85	251.79381108283997	response	0	4		83.0	2.5	blank	1.0	347.83390712738037	
85	251.8097960948944	movie	1		301.0	83.0	2.5	blank	1.0	347.8498921394348	2.508178949356079
85	254.3179750442505	fix_post	2		12.0	83.0	2.5	blank	1.0	350.3580710887909	0.09991216659545898
87	254.41788721084595	stim	0		417.0					350.45798325538635	3.475101947784424
87	257.88931822776794	response	0	space						353.92941427230835	
