trial_nr	onset	event_type	phase	response	nr_frames	movie_index	movie_duration	movie_file	blank	onset_abs	duration
0	0.13343095779418945	stim	0		64.0					175.2974259853363	0.5332069396972656
0	0.6585710048675537	response	0	space						175.82256603240967	
1	0.6666378974914551	stim	0		121.0					175.83063292503357	1.00797700881958
1	1.6746149063110352	stim	1		120.0					176.83860993385315	0.9999790191650391
1	2.2247369289398193	response	1	space						177.38873195648193	
2	2.674593925476074	fix_pre	0		116.0	0.0	2.5	/experiments/knapen_aot/videos/S_ILSVRC2015_train_00369002.mp4	0.0	177.8385889530182	0.9665989875793457
2	3.633058786392212	response	0	space		0.0	2.5	/experiments/knapen_aot/videos/S_ILSVRC2015_train_00369002.mp4	0.0	178.79705381393433	
2	3.64119291305542	movie	1		301.0	0.0	2.5	/experiments/knapen_aot/videos/S_ILSVRC2015_train_00369002.mp4	0.0	178.80518794059753	2.5083160400390625
2	6.149508953094482	fix_post	2		12.0	0.0	2.5	/experiments/knapen_aot/videos/S_ILSVRC2015_train_00369002.mp4	0.0	181.3135039806366	0.10004401206970215
3	6.249552965164185	fix_pre	0		203.0	1.0	2.5	/experiments/knapen_aot/videos/R_S_yt-giRwl4yChlw_9.mp4	0.0	181.4135479927063	1.69399094581604
3	7.9358038902282715	response	0	2		1.0	2.5	/experiments/knapen_aot/videos/R_S_yt-giRwl4yChlw_9.mp4	0.0	183.09979891777039	
3	7.943543910980225	movie	1		297.0	1.0	2.5	/experiments/knapen_aot/videos/R_S_yt-giRwl4yChlw_9.mp4	0.0	183.10753893852234	2.506248950958252
3	10.449792861938477	fix_post	2		12.0	1.0	2.5	/experiments/knapen_aot/videos/R_S_yt-giRwl4yChlw_9.mp4	0.0	185.6137878894806	0.09984397888183594
4	10.549636840820312	fix_pre	0		39.0	2.0	2.5	/experiments/knapen_aot/videos/S_4_D1iUb87uE_15.mp4	0.0	185.71363186836243	0.3249781131744385
4	10.866387844085693	response	0	2		2.0	2.5	/experiments/knapen_aot/videos/S_4_D1iUb87uE_15.mp4	0.0	186.0303828716278	
4	10.874614953994751	movie	1		301.0	2.0	2.5	/experiments/knapen_aot/videos/S_4_D1iUb87uE_15.mp4	0.0	186.03860998153687	2.5083279609680176
4	13.382942914962769	fix_post	2		12.0	2.0	2.5	/experiments/knapen_aot/videos/S_4_D1iUb87uE_15.mp4	0.0	188.54693794250488	0.10002398490905762
5	13.482966899871826	fix_pre	0		21.0	3.0	2.5	/experiments/knapen_aot/videos/S_Y005_C003_SDR_2K_AVC.mp4	0.0	188.64696192741394	0.17585110664367676
5	13.649755001068115	response	0	2		3.0	2.5	/experiments/knapen_aot/videos/S_Y005_C003_SDR_2K_AVC.mp4	0.0	188.81375002861023	
5	13.658818006515503	movie	1		161.0	3.0	2.5	/experiments/knapen_aot/videos/S_Y005_C003_SDR_2K_AVC.mp4	0.0	188.82281303405762	2.5074729919433594
5	16.166290998458862	fix_post	2		12.0	3.0	2.5	/experiments/knapen_aot/videos/S_Y005_C003_SDR_2K_AVC.mp4	0.0	191.33028602600098	0.09993386268615723
6	16.26622486114502	fix_pre	0		87.0	4.0	2.5	/experiments/knapen_aot/videos/R_S_yt-RWN5qOIgqec_25.mp4	0.0	191.43021988868713	0.7259039878845215
6	16.975526809692383	response	0	2		4.0	2.5	/experiments/knapen_aot/videos/R_S_yt-RWN5qOIgqec_25.mp4	0.0	192.1395218372345	
6	16.99212884902954	movie	1		301.0	4.0	2.5	/experiments/knapen_aot/videos/R_S_yt-RWN5qOIgqec_25.mp4	0.0	192.15612387657166	2.5074400901794434
6	19.499568939208984	fix_post	2		12.0	4.0	2.5	/experiments/knapen_aot/videos/R_S_yt-RWN5qOIgqec_25.mp4	0.0	194.6635639667511	0.0999150276184082
7	19.599483966827393	fix_pre	0		24.0	5.0	2.5	/experiments/knapen_aot/videos/R_S_production_ID_3944248.mp4	0.0	194.7634789943695	0.20000886917114258
7	19.7913818359375	response	0	2		5.0	2.5	/experiments/knapen_aot/videos/R_S_production_ID_3944248.mp4	0.0	194.95537686347961	
7	19.799492835998535	movie	1		196.0	5.0	2.5	/experiments/knapen_aot/videos/R_S_production_ID_3944248.mp4	0.0	194.96348786354065	2.508418083190918
7	22.307910919189453	fix_post	2		12.0	5.0	2.5	/experiments/knapen_aot/videos/R_S_production_ID_3944248.mp4	0.0	197.47190594673157	0.09992504119873047
8	22.407835960388184	fix_pre	0		14.0	6.0	2.5	blank	1.0	197.5718309879303	0.1166999340057373
8	22.51637077331543	response	0	2		6.0	2.5	blank	1.0	197.68036580085754	
8	22.52453589439392	movie	1		301.0	6.0	2.5	blank	1.0	197.68853092193604	2.5083069801330566
8	25.032842874526978	fix_post	2		12.0	6.0	2.5	blank	1.0	200.1968379020691	0.10001707077026367
9	25.13285994529724	fix_pre	0		25.0	7.0	2.5	/experiments/knapen_aot/videos/S_4_D1iUb87uE_15.mp4	0.0	200.29685497283936	0.20829987525939941
9	25.3329918384552	response	0	2		7.0	2.5	/experiments/knapen_aot/videos/S_4_D1iUb87uE_15.mp4	0.0	200.49698686599731	
9	25.34115982055664	movie	1		301.0	7.0	2.5	/experiments/knapen_aot/videos/S_4_D1iUb87uE_15.mp4	0.0	200.50515484809875	2.508394956588745
9	27.849554777145386	fix_post	2		12.0	7.0	2.5	/experiments/knapen_aot/videos/S_4_D1iUb87uE_15.mp4	0.0	203.0135498046875	0.09993100166320801
10	27.949485778808594	fix_pre	0		22.0	8.0	2.5	/experiments/knapen_aot/videos/R_S_video_inspire_sanfrancisco_castro_005.1080-h264.mp4	0.0	203.1134808063507	0.1833651065826416
10	28.11715793609619	response	0	2		8.0	2.5	/experiments/knapen_aot/videos/R_S_video_inspire_sanfrancisco_castro_005.1080-h264.mp4	0.0	203.2811529636383	
10	28.132850885391235	movie	1		168.0	8.0	2.5	/experiments/knapen_aot/videos/R_S_video_inspire_sanfrancisco_castro_005.1080-h264.mp4	0.0	203.29684591293335	2.5083069801330566
10	30.641157865524292	fix_post	2		12.0	8.0	2.5	/experiments/knapen_aot/videos/R_S_video_inspire_sanfrancisco_castro_005.1080-h264.mp4	0.0	205.8051528930664	0.09997892379760742
11	30.7411367893219	fix_pre	0		12.0	9.0	2.5	/experiments/knapen_aot/videos/S_yt-sWJc_Do8EaI_32.mp4	0.0	205.905131816864	0.0999760627746582
11	30.83292579650879	response	0	2		9.0	2.5	/experiments/knapen_aot/videos/S_yt-sWJc_Do8EaI_32.mp4	0.0	205.9969208240509	
11	30.841112852096558	movie	1		300.0	9.0	2.5	/experiments/knapen_aot/videos/S_yt-sWJc_Do8EaI_32.mp4	0.0	206.00510787963867	2.5083749294281006
11	33.34948778152466	fix_post	2		12.0	9.0	2.5	/experiments/knapen_aot/videos/S_yt-sWJc_Do8EaI_32.mp4	0.0	208.51348280906677	0.10004305839538574
12	33.449530839920044	fix_pre	0		22.0	10.0	2.5	/experiments/knapen_aot/videos/S_yt-2l6VKd94eAI_151.mp4	0.0	208.61352586746216	0.18331313133239746
12	33.62467098236084	response	0	2		10.0	2.5	/experiments/knapen_aot/videos/S_yt-2l6VKd94eAI_151.mp4	0.0	208.78866600990295	
12	33.63284397125244	movie	1		301.0	10.0	2.5	/experiments/knapen_aot/videos/S_yt-2l6VKd94eAI_151.mp4	0.0	208.79683899879456	2.50833797454834
12	36.14118194580078	fix_post	2		12.0	10.0	2.5	/experiments/knapen_aot/videos/S_yt-2l6VKd94eAI_151.mp4	0.0	211.3051769733429	0.09995484352111816
13	36.2411367893219	fix_pre	0		131.0	11.0	2.5	/experiments/knapen_aot/videos/S_yt-B8Sy53C6Pxw_8.mp4	0.0	211.405131816864	1.0917010307312012
13	37.32463979721069	response	0	2		11.0	2.5	/experiments/knapen_aot/videos/S_yt-B8Sy53C6Pxw_8.mp4	0.0	212.4886348247528	
13	37.3328378200531	movie	1		301.0	11.0	2.5	/experiments/knapen_aot/videos/S_yt-B8Sy53C6Pxw_8.mp4	0.0	212.49683284759521	2.5083041191101074
13	39.84114193916321	fix_post	2		12.0	11.0	2.5	/experiments/knapen_aot/videos/S_yt-B8Sy53C6Pxw_8.mp4	0.0	215.00513696670532	0.09991192817687988
14	39.94105386734009	fix_pre	0		87.0	12.0	2.5	blank	1.0	215.1050488948822	0.7251060009002686
14	40.65792489051819	response	0	2		12.0	2.5	blank	1.0	215.8219199180603	
14	40.666159868240356	movie	1		301.0	12.0	2.5	blank	1.0	215.83015489578247	2.508265972137451
14	43.17442584037781	fix_post	2		12.0	12.0	2.5	blank	1.0	218.33842086791992	0.0999441146850586
15	43.274369955062866	fix_pre	0		23.0	13.0	2.5	/experiments/knapen_aot/videos/S_pexels-mikhail-nilov-8410088.mp4	0.0	218.43836498260498	0.191694974899292
15	43.457846879959106	response	0	2		13.0	2.5	/experiments/knapen_aot/videos/S_pexels-mikhail-nilov-8410088.mp4	0.0	218.62184190750122	
15	43.46606492996216	movie	1		161.0	13.0	2.5	/experiments/knapen_aot/videos/S_pexels-mikhail-nilov-8410088.mp4	0.0	218.63005995750427	2.508363962173462
15	45.97442889213562	fix_post	2		12.0	13.0	2.5	/experiments/knapen_aot/videos/S_pexels-mikhail-nilov-8410088.mp4	0.0	221.13842391967773	0.09999990463256836
16	46.07442879676819	fix_pre	0		20.0	14.0	2.5	/experiments/knapen_aot/videos/R_S_yt-mJzkLd3Mr_c_35.mp4	0.0	221.2384238243103	0.16740918159484863
16	46.23283100128174	response	0	2		14.0	2.5	/experiments/knapen_aot/videos/R_S_yt-mJzkLd3Mr_c_35.mp4	0.0	221.39682602882385	
16	46.24183797836304	movie	1		301.0	14.0	2.5	/experiments/knapen_aot/videos/R_S_yt-mJzkLd3Mr_c_35.mp4	0.0	221.40583300590515	2.50770902633667
16	48.74954700469971	fix_post	2		12.0	14.0	2.5	/experiments/knapen_aot/videos/R_S_yt-mJzkLd3Mr_c_35.mp4	0.0	223.91354203224182	0.09982991218566895
17	48.849376916885376	fix_pre	0		38.0	15.0	2.5	/experiments/knapen_aot/videos/R_S_yt-e9AZJKNv9ow_359.mp4	0.0	224.0133719444275	0.31667590141296387
17	49.1578209400177	response	0	2		15.0	2.5	/experiments/knapen_aot/videos/R_S_yt-e9AZJKNv9ow_359.mp4	0.0	224.32181596755981	
17	49.16605281829834	movie	1		301.0	15.0	2.5	/experiments/knapen_aot/videos/R_S_yt-e9AZJKNv9ow_359.mp4	0.0	224.33004784584045	2.5083930492401123
17	51.67444586753845	fix_post	2		12.0	15.0	2.5	/experiments/knapen_aot/videos/R_S_yt-e9AZJKNv9ow_359.mp4	0.0	226.83844089508057	0.1000509262084961
18	51.77449679374695	fix_pre	0		15.0	16.0	2.5	/experiments/knapen_aot/videos/S_yt-316ecr1BT84_44.mp4	0.0	226.93849182128906	0.12492799758911133
18	51.891276836395264	response	0	4		16.0	2.5	/experiments/knapen_aot/videos/S_yt-316ecr1BT84_44.mp4	0.0	227.05527186393738	
18	51.89942479133606	movie	1		301.0	16.0	2.5	/experiments/knapen_aot/videos/S_yt-316ecr1BT84_44.mp4	0.0	227.06341981887817	2.508364200592041
18	54.4077889919281	fix_post	2		12.0	16.0	2.5	/experiments/knapen_aot/videos/S_yt-316ecr1BT84_44.mp4	0.0	229.57178401947021	0.09992289543151855
19	54.50771188735962	fix_pre	0		14.0	17.0	2.5	/experiments/knapen_aot/videos/R_S_pexels-mart-production-7698693.mp4	0.0	229.67170691490173	0.11667299270629883
19	54.616108894348145	response	0	4		17.0	2.5	/experiments/knapen_aot/videos/R_S_pexels-mart-production-7698693.mp4	0.0	229.78010392189026	
19	54.62438488006592	movie	1		202.0	17.0	2.5	/experiments/knapen_aot/videos/R_S_pexels-mart-production-7698693.mp4	0.0	229.78837990760803	2.5083930492401123
19	57.13277792930603	fix_post	2		12.0	17.0	2.5	/experiments/knapen_aot/videos/R_S_pexels-mart-production-7698693.mp4	0.0	232.29677295684814	0.09997200965881348
20	57.232749938964844	fix_pre	0		135.0	18.0	2.5	/experiments/knapen_aot/videos/R_S_wc-ZGCMbPfXQ71L_31.mp4	0.0	232.39674496650696	1.1249878406524658
20	58.34954786300659	response	0	4		18.0	2.5	/experiments/knapen_aot/videos/R_S_wc-ZGCMbPfXQ71L_31.mp4	0.0	233.5135428905487	
20	58.35773777961731	movie	1		185.0	18.0	2.5	/experiments/knapen_aot/videos/R_S_wc-ZGCMbPfXQ71L_31.mp4	0.0	233.52173280715942	2.508331060409546
20	60.866068840026855	fix_post	2		12.0	18.0	2.5	/experiments/knapen_aot/videos/R_S_wc-ZGCMbPfXQ71L_31.mp4	0.0	236.03006386756897	0.1000070571899414
21	60.9660758972168	fix_pre	0		50.0	19.0	2.5	/experiments/knapen_aot/videos/S_yt-7XDVHp75fu4_93.mp4	0.0	236.1300709247589	0.41664791107177734
21	61.37452697753906	response	0	4		19.0	2.5	/experiments/knapen_aot/videos/S_yt-7XDVHp75fu4_93.mp4	0.0	236.53852200508118	
21	61.382723808288574	movie	1		300.0	19.0	2.5	/experiments/knapen_aot/videos/S_yt-7XDVHp75fu4_93.mp4	0.0	236.5467188358307	2.5083329677581787
21	63.89105677604675	fix_post	2		12.0	19.0	2.5	/experiments/knapen_aot/videos/S_yt-7XDVHp75fu4_93.mp4	0.0	239.05505180358887	0.10002923011779785
22	63.99108600616455	fix_pre	0		165.0	20.0	2.5	blank	1.0	239.15508103370667	1.3755137920379639
22	65.35779786109924	response	0	4		20.0	2.5	blank	1.0	240.52179288864136	
22	65.36659979820251	movie	1		301.0	20.0	2.5	blank	1.0	240.53059482574463	2.507672071456909
22	67.87427186965942	fix_post	2		12.0	20.0	2.5	blank	1.0	243.03826689720154	0.10008597373962402
23	67.97435784339905	fix_pre	0		47.0	21.0	2.5	/experiments/knapen_aot/videos/S_pexels-cottonbro-10639398.mp4	0.0	243.13835287094116	0.3922250270843506
23	68.357736825943	response	0	4		21.0	2.5	/experiments/knapen_aot/videos/S_pexels-cottonbro-10639398.mp4	0.0	243.5217318534851	
23	68.3665828704834	movie	1		191.0	21.0	2.5	/experiments/knapen_aot/videos/S_pexels-cottonbro-10639398.mp4	0.0	243.5305778980255	2.507720947265625
23	70.87430381774902	fix_post	2		12.0	21.0	2.5	/experiments/knapen_aot/videos/S_pexels-cottonbro-10639398.mp4	0.0	246.03829884529114	0.09995198249816895
24	70.97425580024719	fix_pre	0		15.0	22.0	2.5	/experiments/knapen_aot/videos/S_yt-I9uf7kAccFA_229.mp4	0.0	246.1382508277893	0.12496304512023926
24	71.09113192558289	response	0	2		22.0	2.5	/experiments/knapen_aot/videos/S_yt-I9uf7kAccFA_229.mp4	0.0	246.255126953125	
24	71.09921884536743	movie	1		301.0	22.0	2.5	/experiments/knapen_aot/videos/S_yt-I9uf7kAccFA_229.mp4	0.0	246.26321387290955	2.5084011554718018
24	73.60762000083923	fix_post	2		12.0	22.0	2.5	/experiments/knapen_aot/videos/S_yt-I9uf7kAccFA_229.mp4	0.0	248.77161502838135	0.10001182556152344
25	73.70763182640076	fix_pre	0		139.0	23.0	2.5	/experiments/knapen_aot/videos/S_yt-25xuzTBhwPk_109.mp4	0.0	248.87162685394287	1.1589021682739258
25	74.85766696929932	response	0	2		23.0	2.5	/experiments/knapen_aot/videos/S_yt-25xuzTBhwPk_109.mp4	0.0	250.02166199684143	
25	74.86653399467468	movie	1		301.0	23.0	2.5	/experiments/knapen_aot/videos/S_yt-25xuzTBhwPk_109.mp4	0.0	250.0305290222168	2.5077388286590576
25	77.37427282333374	fix_post	2		12.0	23.0	2.5	/experiments/knapen_aot/videos/S_yt-25xuzTBhwPk_109.mp4	0.0	252.53826785087585	0.10001015663146973
26	77.47428297996521	fix_pre	0		19.0	24.0	2.5	/experiments/knapen_aot/videos/S_yt-4BAsE47kJNk_88.mp4	0.0	252.63827800750732	0.15833091735839844
26	77.62436485290527	response	0	2		24.0	2.5	/experiments/knapen_aot/videos/S_yt-4BAsE47kJNk_88.mp4	0.0	252.7883598804474	
26	77.63261389732361	movie	1		301.0	24.0	2.5	/experiments/knapen_aot/videos/S_yt-4BAsE47kJNk_88.mp4	0.0	252.79660892486572	2.508375883102417
26	80.14098978042603	fix_post	2		12.0	24.0	2.5	/experiments/knapen_aot/videos/S_yt-4BAsE47kJNk_88.mp4	0.0	255.30498480796814	0.09997415542602539
27	80.24096393585205	fix_pre	0		18.0	25.0	2.5	/experiments/knapen_aot/videos/R_S_yt-VfASxEzDrvc_145.mp4	0.0	255.40495896339417	0.15003490447998047
27	80.38281989097595	response	0	2		25.0	2.5	/experiments/knapen_aot/videos/R_S_yt-VfASxEzDrvc_145.mp4	0.0	255.54681491851807	
27	80.39099884033203	movie	1		301.0	25.0	2.5	/experiments/knapen_aot/videos/R_S_yt-VfASxEzDrvc_145.mp4	0.0	255.55499386787415	2.508265972137451
27	82.89926481246948	fix_post	2		12.0	25.0	2.5	/experiments/knapen_aot/videos/R_S_yt-VfASxEzDrvc_145.mp4	0.0	258.0632598400116	0.1000511646270752
28	82.99931597709656	fix_pre	0		24.0	26.0	2.5	blank	1.0	258.1633110046387	0.2005138397216797
28	83.19100284576416	response	0	2		26.0	2.5	blank	1.0	258.3549978733063	
28	83.19982981681824	movie	1		301.0	26.0	2.5	blank	1.0	258.36382484436035	2.507721185684204
28	85.70755100250244	fix_post	2		12.0	26.0	2.5	blank	1.0	260.87154603004456	0.10001087188720703
29	85.80756187438965	fix_pre	0		62.0	27.0	2.5	/experiments/knapen_aot/videos/S__9v_wUywaAA_35.mp4	0.0	260.97155690193176	0.5171658992767334
29	86.3160879611969	response	0	2		27.0	2.5	/experiments/knapen_aot/videos/S__9v_wUywaAA_35.mp4	0.0	261.480082988739	
29	86.32472777366638	movie	1		301.0	27.0	2.5	/experiments/knapen_aot/videos/S__9v_wUywaAA_35.mp4	0.0	261.4887228012085	2.5079851150512695
29	88.83271288871765	fix_post	2		12.0	27.0	2.5	/experiments/knapen_aot/videos/S__9v_wUywaAA_35.mp4	0.0	263.99670791625977	0.09989690780639648
30	88.93260979652405	fix_pre	0		53.0	28.0	2.5	/experiments/knapen_aot/videos/S_yt-XtzmBXKYEWk_60.mp4	0.0	264.09660482406616	0.4416360855102539
30	89.36600089073181	response	0	2		28.0	2.5	/experiments/knapen_aot/videos/S_yt-XtzmBXKYEWk_60.mp4	0.0	264.5299959182739	
30	89.3742458820343	movie	1		301.0	28.0	2.5	/experiments/knapen_aot/videos/S_yt-XtzmBXKYEWk_60.mp4	0.0	264.5382409095764	2.508331060409546
30	91.88257694244385	fix_post	2		12.0	28.0	2.5	/experiments/knapen_aot/videos/S_yt-XtzmBXKYEWk_60.mp4	0.0	267.04657196998596	0.09999990463256836
31	91.98257684707642	fix_pre	0		52.0	29.0	2.5	/experiments/knapen_aot/videos/S_Xq0a2BWE3zA_53.mp4	0.0	267.14657187461853	0.4332759380340576
31	92.40769100189209	response	0	2		29.0	2.5	/experiments/knapen_aot/videos/S_Xq0a2BWE3zA_53.mp4	0.0	267.5716860294342	
31	92.41585278511047	movie	1		301.0	29.0	2.5	/experiments/knapen_aot/videos/S_Xq0a2BWE3zA_53.mp4	0.0	267.5798478126526	2.508352041244507
31	94.92420482635498	fix_post	2		12.0	29.0	2.5	/experiments/knapen_aot/videos/S_Xq0a2BWE3zA_53.mp4	0.0	270.0881998538971	0.09995508193969727
32	95.02415990829468	fix_pre	0		151.0	30.0	2.5	/experiments/knapen_aot/videos/R_S_yt-2l6VKd94eAI_151.mp4	0.0	270.1881549358368	1.2588450908660889
32	96.27435898780823	response	0	2		30.0	2.5	/experiments/knapen_aot/videos/R_S_yt-2l6VKd94eAI_151.mp4	0.0	271.43835401535034	
32	96.28300499916077	movie	1		300.0	30.0	2.5	/experiments/knapen_aot/videos/R_S_yt-2l6VKd94eAI_151.mp4	0.0	271.4470000267029	2.5078508853912354
32	98.790855884552	fix_post	2		12.0	30.0	2.5	/experiments/knapen_aot/videos/R_S_yt-2l6VKd94eAI_151.mp4	0.0	273.9548509120941	0.09995508193969727
33	98.8908109664917	fix_pre	0		59.0	31.0	2.5	/experiments/knapen_aot/videos/S_yt-MhW2fU45JK8_544.mp4	0.0	274.0548059940338	0.4916999340057373
33	99.37428092956543	response	0	2		31.0	2.5	/experiments/knapen_aot/videos/S_yt-MhW2fU45JK8_544.mp4	0.0	274.53827595710754	
33	99.38251090049744	movie	1		301.0	31.0	2.5	/experiments/knapen_aot/videos/S_yt-MhW2fU45JK8_544.mp4	0.0	274.54650592803955	2.508298873901367
33	101.8908097743988	fix_post	2		12.0	31.0	2.5	/experiments/knapen_aot/videos/S_yt-MhW2fU45JK8_544.mp4	0.0	277.0548048019409	0.10001516342163086
34	101.99082493782043	fix_pre	0		153.0	32.0	2.5	/experiments/knapen_aot/videos/R_S_ILSVRC2015_train_00369002.mp4	0.0	277.15481996536255	1.274935007095337
34	103.25767588615417	response	0	2		32.0	2.5	/experiments/knapen_aot/videos/R_S_ILSVRC2015_train_00369002.mp4	0.0	278.4216709136963	
34	103.26575994491577	movie	1		301.0	32.0	2.5	/experiments/knapen_aot/videos/R_S_ILSVRC2015_train_00369002.mp4	0.0	278.4297549724579	2.5084328651428223
34	105.7741928100586	fix_post	2		12.0	32.0	2.5	/experiments/knapen_aot/videos/R_S_ILSVRC2015_train_00369002.mp4	0.0	280.9381878376007	0.09998917579650879
35	105.8741819858551	fix_pre	0		8.0	33.0	2.5	/experiments/knapen_aot/videos/R_S_yt-KQq7vTlXUiQ_173.mp4	0.0	281.0381770133972	0.06659078598022461
35	105.93273997306824	response	0	2		33.0	2.5	/experiments/knapen_aot/videos/R_S_yt-KQq7vTlXUiQ_173.mp4	0.0	281.09673500061035	
35	105.94077277183533	movie	1		301.0	33.0	2.5	/experiments/knapen_aot/videos/R_S_yt-KQq7vTlXUiQ_173.mp4	0.0	281.10476779937744	2.508423089981079
35	108.4491958618164	fix_post	2		12.0	33.0	2.5	/experiments/knapen_aot/videos/R_S_yt-KQq7vTlXUiQ_173.mp4	0.0	283.6131908893585	0.09996509552001953
36	108.54916095733643	fix_pre	0		104.0	34.0	2.5	/experiments/knapen_aot/videos/R_S_yt-kQpE9L-fsNE_55.mp4	0.0	283.71315598487854	0.8666608333587646
36	109.40763282775879	response	0	2		34.0	2.5	/experiments/knapen_aot/videos/R_S_yt-kQpE9L-fsNE_55.mp4	0.0	284.5716278553009	
36	109.41582179069519	movie	1		301.0	34.0	2.5	/experiments/knapen_aot/videos/R_S_yt-kQpE9L-fsNE_55.mp4	0.0	284.5798168182373	2.508331060409546
36	111.92415285110474	fix_post	2		12.0	34.0	2.5	/experiments/knapen_aot/videos/R_S_yt-kQpE9L-fsNE_55.mp4	0.0	287.08814787864685	0.10002303123474121
37	112.02417588233948	fix_pre	0		48.0	35.0	2.5	blank	1.0	287.1881709098816	0.3999350070953369
37	112.40841698646545	response	0	2		35.0	2.5	blank	1.0	287.57241201400757	
37	112.42411088943481	movie	1		301.0	35.0	2.5	blank	1.0	287.58810591697693	2.508284091949463
37	114.93239498138428	fix_post	2		12.0	35.0	2.5	blank	1.0	290.0963900089264	0.10049700736999512
38	115.03289198875427	fix_pre	0		93.0	36.0	2.5	/experiments/knapen_aot/videos/R_S_yt-PvWkOmfZuSY_4.mp4	0.0	290.1968870162964	0.7745428085327148
38	115.7992799282074	response	0	2		36.0	2.5	/experiments/knapen_aot/videos/R_S_yt-PvWkOmfZuSY_4.mp4	0.0	290.9632749557495	
38	115.80743479728699	movie	1		301.0	36.0	2.5	/experiments/knapen_aot/videos/R_S_yt-PvWkOmfZuSY_4.mp4	0.0	290.9714298248291	2.5083820819854736
38	118.31581687927246	fix_post	2		12.0	36.0	2.5	/experiments/knapen_aot/videos/R_S_yt-PvWkOmfZuSY_4.mp4	0.0	293.4798119068146	0.09992504119873047
39	118.41574192047119	fix_pre	0		51.0	37.0	2.5	/experiments/knapen_aot/videos/R_S_wc-WgOBK5IL7vex_4.mp4	0.0	293.5797369480133	0.4249880313873291
39	118.83255887031555	response	0	2		37.0	2.5	/experiments/knapen_aot/videos/R_S_wc-WgOBK5IL7vex_4.mp4	0.0	293.99655389785767	
39	118.84072995185852	movie	1		162.0	37.0	2.5	/experiments/knapen_aot/videos/R_S_wc-WgOBK5IL7vex_4.mp4	0.0	294.00472497940063	2.508307933807373
39	121.3490378856659	fix_post	2		12.0	37.0	2.5	/experiments/knapen_aot/videos/R_S_wc-WgOBK5IL7vex_4.mp4	0.0	296.513032913208	0.10044598579406738
40	121.44948387145996	fix_pre	0		37.0	38.0	2.5	/experiments/knapen_aot/videos/S_yt-XpM1Jtwlvvk_42.mp4	0.0	296.6134788990021	0.30793094635009766
40	121.7492299079895	response	0	2		38.0	2.5	/experiments/knapen_aot/videos/S_yt-XpM1Jtwlvvk_42.mp4	0.0	296.9132249355316	
40	121.75741481781006	movie	1		301.0	38.0	2.5	/experiments/knapen_aot/videos/S_yt-XpM1Jtwlvvk_42.mp4	0.0	296.9214098453522	2.5083720684051514
40	124.26578688621521	fix_post	2		12.0	38.0	2.5	/experiments/knapen_aot/videos/S_yt-XpM1Jtwlvvk_42.mp4	0.0	299.4297819137573	0.10010600090026855
41	124.36589288711548	fix_pre	0		75.0	39.0	2.5	/experiments/knapen_aot/videos/S_yt-5fnd__rpWeE_396.mp4	0.0	299.5298879146576	0.6251819133758545
41	124.9825828075409	response	0	2		39.0	2.5	/experiments/knapen_aot/videos/S_yt-5fnd__rpWeE_396.mp4	0.0	300.146577835083	
41	124.99107480049133	movie	1		301.0	39.0	2.5	/experiments/knapen_aot/videos/S_yt-5fnd__rpWeE_396.mp4	0.0	300.15506982803345	2.508002996444702
41	127.49907779693604	fix_post	2		12.0	39.0	2.5	/experiments/knapen_aot/videos/S_yt-5fnd__rpWeE_396.mp4	0.0	302.66307282447815	0.09989809989929199
42	127.59897589683533	fix_pre	0		142.0	40.0	2.5	/experiments/knapen_aot/videos/S_yt-sIXdPhfS67U_203.mp4	0.0	302.76297092437744	1.1838600635528564
42	128.77425479888916	response	0	2		40.0	2.5	/experiments/knapen_aot/videos/S_yt-sIXdPhfS67U_203.mp4	0.0	303.9382498264313	
42	128.78283596038818	movie	1		301.0	40.0	2.5	/experiments/knapen_aot/videos/S_yt-sIXdPhfS67U_203.mp4	0.0	303.9468309879303	2.5079538822174072
42	131.2907898426056	fix_post	2		12.0	40.0	2.5	/experiments/knapen_aot/videos/S_yt-sIXdPhfS67U_203.mp4	0.0	306.4547848701477	0.09992694854736328
43	131.39071679115295	fix_pre	0		18.0	41.0	2.5	/experiments/knapen_aot/videos/R_S_ILSVRC2015_train_00303005.mp4	0.0	306.55471181869507	0.14998412132263184
43	131.53255581855774	response	0	2		41.0	2.5	/experiments/knapen_aot/videos/R_S_ILSVRC2015_train_00303005.mp4	0.0	306.69655084609985	
43	131.5407009124756	movie	1		301.0	41.0	2.5	/experiments/knapen_aot/videos/R_S_ILSVRC2015_train_00303005.mp4	0.0	306.7046959400177	2.508265972137451
43	134.04896688461304	fix_post	2		12.0	41.0	2.5	/experiments/knapen_aot/videos/R_S_ILSVRC2015_train_00303005.mp4	0.0	309.21296191215515	0.1000359058380127
44	134.14900279045105	fix_pre	0		127.0	42.0	2.5	blank	1.0	309.31299781799316	1.0583341121673584
44	135.19919300079346	response	0	2		42.0	2.5	blank	1.0	310.36318802833557	
44	135.2073369026184	movie	1		301.0	42.0	2.5	blank	1.0	310.3713319301605	2.5083658695220947
44	137.7157027721405	fix_post	2		12.0	42.0	2.5	blank	1.0	312.8796977996826	0.09997010231018066
45	137.81567287445068	fix_pre	0		72.0	43.0	2.5	/experiments/knapen_aot/videos/S_yt-JPsTqfqfPIY_319.mp4	0.0	312.9796679019928	0.6000070571899414
45	138.40752482414246	response	0	2		43.0	2.5	/experiments/knapen_aot/videos/S_yt-JPsTqfqfPIY_319.mp4	0.0	313.57151985168457	
45	138.41567993164062	movie	1		301.0	43.0	2.5	/experiments/knapen_aot/videos/S_yt-JPsTqfqfPIY_319.mp4	0.0	313.57967495918274	2.5083088874816895
45	140.92398881912231	fix_post	2		12.0	43.0	2.5	/experiments/knapen_aot/videos/S_yt-JPsTqfqfPIY_319.mp4	0.0	316.08798384666443	0.09998297691345215
46	141.02397179603577	fix_pre	0		112.0	44.0	2.5	/experiments/knapen_aot/videos/S_yt-f9iXELY0EJ0_344.mp4	0.0	316.1879668235779	0.9333910942077637
46	141.94920778274536	response	0	2		44.0	2.5	/experiments/knapen_aot/videos/S_yt-f9iXELY0EJ0_344.mp4	0.0	317.1132028102875	
46	141.95736289024353	movie	1		301.0	44.0	2.5	/experiments/knapen_aot/videos/S_yt-f9iXELY0EJ0_344.mp4	0.0	317.12135791778564	2.508342981338501
46	144.46570587158203	fix_post	2		12.0	44.0	2.5	/experiments/knapen_aot/videos/S_yt-f9iXELY0EJ0_344.mp4	0.0	319.62970089912415	0.09995603561401367
47	144.56566190719604	fix_pre	0		23.0	45.0	2.5	/experiments/knapen_aot/videos/S_yt-w5lh_rKyKtE_21.mp4	0.0	319.72965693473816	0.19168806076049805
47	144.74915385246277	response	0	2		45.0	2.5	/experiments/knapen_aot/videos/S_yt-w5lh_rKyKtE_21.mp4	0.0	319.9131488800049	
47	144.75734996795654	movie	1		301.0	45.0	2.5	/experiments/knapen_aot/videos/S_yt-w5lh_rKyKtE_21.mp4	0.0	319.92134499549866	2.508312940597534
47	147.26566290855408	fix_post	2		12.0	45.0	2.5	/experiments/knapen_aot/videos/S_yt-w5lh_rKyKtE_21.mp4	0.0	322.4296579360962	0.10016298294067383
48	147.36582589149475	fix_pre	0		21.0	46.0	2.5	/experiments/knapen_aot/videos/R_S_yt-QI6k6mhpxLo_453.mp4	0.0	322.52982091903687	0.17480993270874023
48	147.5324079990387	response	0	2		46.0	2.5	/experiments/knapen_aot/videos/R_S_yt-QI6k6mhpxLo_453.mp4	0.0	322.6964030265808	
48	147.5406358242035	movie	1		301.0	46.0	2.5	/experiments/knapen_aot/videos/R_S_yt-QI6k6mhpxLo_453.mp4	0.0	322.7046308517456	2.5083329677581787
48	150.04896879196167	fix_post	2		12.0	46.0	2.5	/experiments/knapen_aot/videos/R_S_yt-QI6k6mhpxLo_453.mp4	0.0	325.2129638195038	0.1000361442565918
49	150.14900493621826	fix_pre	0		53.0	47.0	2.5	/experiments/knapen_aot/videos/R_S_yt-xnqqB-leeaQ_128.mp4	0.0	325.3129999637604	0.4415428638458252
49	150.5749888420105	response	0	2		47.0	2.5	/experiments/knapen_aot/videos/R_S_yt-xnqqB-leeaQ_128.mp4	0.0	325.7389838695526	
49	150.5905478000641	movie	1		301.0	47.0	2.5	/experiments/knapen_aot/videos/R_S_yt-xnqqB-leeaQ_128.mp4	0.0	325.7545428276062	2.508418083190918
49	153.098965883255	fix_post	2		12.0	47.0	2.5	/experiments/knapen_aot/videos/R_S_yt-xnqqB-leeaQ_128.mp4	0.0	328.2629609107971	0.10015296936035156
50	153.19911885261536	fix_pre	0		2.0	48.0	2.5	blank	1.0	328.36311388015747	0.016546010971069336
50	153.20735788345337	response	0	2		48.0	2.5	blank	1.0	328.3713529109955	
50	153.21566486358643	movie	1		301.0	48.0	2.5	blank	1.0	328.37965989112854	2.508291006088257
50	155.72395586967468	fix_post	2		12.0	48.0	2.5	blank	1.0	330.8879508972168	0.1001889705657959
51	155.82414484024048	fix_pre	0		22.0	49.0	2.5	/experiments/knapen_aot/videos/S_yt-4ouMuGUuPHI_193.mp4	0.0	330.9881398677826	0.18310809135437012
51	155.9991099834442	response	0	2		49.0	2.5	/experiments/knapen_aot/videos/S_yt-4ouMuGUuPHI_193.mp4	0.0	331.1631050109863	
51	156.00725293159485	movie	1		301.0	49.0	2.5	/experiments/knapen_aot/videos/S_yt-4ouMuGUuPHI_193.mp4	0.0	331.17124795913696	2.5083720684051514
51	158.515625	fix_post	2		12.0	49.0	2.5	/experiments/knapen_aot/videos/S_yt-4ouMuGUuPHI_193.mp4	0.0	333.6796200275421	0.1000828742980957
52	158.6157078742981	fix_pre	0		10.0	50.0	2.5	/experiments/knapen_aot/videos/S_yt-FR_Y1Mm8BwQ_53.mp4	0.0	333.7797029018402	0.0833730697631836
52	158.69070482254028	response	0	2		50.0	2.5	/experiments/knapen_aot/videos/S_yt-FR_Y1Mm8BwQ_53.mp4	0.0	333.8546998500824	
52	158.69908094406128	movie	1		301.0	50.0	2.5	/experiments/knapen_aot/videos/S_yt-FR_Y1Mm8BwQ_53.mp4	0.0	333.8630759716034	2.5082058906555176
52	161.2072868347168	fix_post	2		12.0	50.0	2.5	/experiments/knapen_aot/videos/S_yt-FR_Y1Mm8BwQ_53.mp4	0.0	336.3712818622589	0.09990715980529785
53	161.3071939945221	fix_pre	0		17.0	51.0	2.5	/experiments/knapen_aot/videos/S_ILSVRC2015_train_00292006.mp4	0.0	336.4711890220642	0.14182782173156738
53	161.44074988365173	response	0	2		51.0	2.5	/experiments/knapen_aot/videos/S_ILSVRC2015_train_00292006.mp4	0.0	336.60474491119385	
53	161.44902181625366	movie	1		301.0	51.0	2.5	/experiments/knapen_aot/videos/S_ILSVRC2015_train_00292006.mp4	0.0	336.6130168437958	2.5082340240478516
53	163.9572558403015	fix_post	2		12.0	51.0	2.5	/experiments/knapen_aot/videos/S_ILSVRC2015_train_00292006.mp4	0.0	339.1212508678436	0.09992814064025879
54	164.05718398094177	fix_pre	0		8.0	52.0	2.5	/experiments/knapen_aot/videos/S_yt-ibDaDIEazxg_3.mp4	0.0	339.2211790084839	0.0667879581451416
54	164.11578583717346	response	0	2		52.0	2.5	/experiments/knapen_aot/videos/S_yt-ibDaDIEazxg_3.mp4	0.0	339.2797808647156	
54	164.1239719390869	movie	1		301.0	52.0	2.5	/experiments/knapen_aot/videos/S_yt-ibDaDIEazxg_3.mp4	0.0	339.287966966629	2.5082828998565674
54	166.63225483894348	fix_post	2		12.0	52.0	2.5	/experiments/knapen_aot/videos/S_yt-ibDaDIEazxg_3.mp4	0.0	341.7962498664856	0.09990406036376953
55	166.73215889930725	fix_pre	0		10.0	53.0	2.5	/experiments/knapen_aot/videos/R_S_yt-JPsTqfqfPIY_319.mp4	0.0	341.89615392684937	0.08341693878173828
55	166.80739188194275	response	0	2		53.0	2.5	/experiments/knapen_aot/videos/R_S_yt-JPsTqfqfPIY_319.mp4	0.0	341.97138690948486	
55	166.815575838089	movie	1		301.0	53.0	2.5	/experiments/knapen_aot/videos/R_S_yt-JPsTqfqfPIY_319.mp4	0.0	341.9795708656311	2.508388042449951
55	169.32396388053894	fix_post	2		12.0	53.0	2.5	/experiments/knapen_aot/videos/R_S_yt-JPsTqfqfPIY_319.mp4	0.0	344.48795890808105	0.09994912147521973
56	169.42391300201416	fix_pre	0		14.0	54.0	2.5	/experiments/knapen_aot/videos/R_S_yt-aiDGx4AN8J0_9.mp4	0.0	344.5879080295563	0.11660981178283691
56	169.53237390518188	response	0	2		54.0	2.5	/experiments/knapen_aot/videos/R_S_yt-aiDGx4AN8J0_9.mp4	0.0	344.696368932724	
56	169.540522813797	movie	1		299.0	54.0	2.5	/experiments/knapen_aot/videos/R_S_yt-aiDGx4AN8J0_9.mp4	0.0	344.7045178413391	2.5083119869232178
56	172.04883480072021	fix_post	2		12.0	54.0	2.5	/experiments/knapen_aot/videos/R_S_yt-aiDGx4AN8J0_9.mp4	0.0	347.21282982826233	0.10007405281066895
57	172.14890885353088	fix_pre	0		18.0	55.0	2.5	blank	1.0	347.312903881073	0.15000605583190918
57	172.29064083099365	response	0	2		55.0	2.5	blank	1.0	347.45463585853577	
57	172.2989149093628	movie	1		301.0	55.0	2.5	blank	1.0	347.4629099369049	2.5083229541778564
57	174.80723786354065	fix_post	2		12.0	55.0	2.5	blank	1.0	349.97123289108276	0.09997797012329102
58	174.90721583366394	fix_pre	0		241.0	56.0	2.5	/experiments/knapen_aot/videos/S_yt-qsyDLtXcyHc_8.mp4	0.0	350.07121086120605	2.0083320140838623
58	176.90735983848572	response	0	2		56.0	2.5	/experiments/knapen_aot/videos/S_yt-qsyDLtXcyHc_8.mp4	0.0	352.07135486602783	
58	176.9155478477478	movie	1		298.0	56.0	2.5	/experiments/knapen_aot/videos/S_yt-qsyDLtXcyHc_8.mp4	0.0	352.0795428752899	2.5083489418029785
58	179.42389678955078	fix_post	2		12.0	56.0	2.5	/experiments/knapen_aot/videos/S_yt-qsyDLtXcyHc_8.mp4	0.0	354.5878918170929	0.09993910789489746
59	179.52383589744568	fix_pre	0		24.0	57.0	2.5	/experiments/knapen_aot/videos/R_S_yt-KVB49z48sZU_55.mp4	0.0	354.6878309249878	0.20000410079956055
59	179.71567583084106	response	0	2		57.0	2.5	/experiments/knapen_aot/videos/R_S_yt-KVB49z48sZU_55.mp4	0.0	354.8796708583832	
59	179.72383999824524	movie	1		301.0	57.0	2.5	/experiments/knapen_aot/videos/R_S_yt-KVB49z48sZU_55.mp4	0.0	354.88783502578735	2.508368968963623
59	182.23220896720886	fix_post	2		12.0	57.0	2.5	/experiments/knapen_aot/videos/R_S_yt-KVB49z48sZU_55.mp4	0.0	357.396203994751	0.10001492500305176
60	182.3322238922119	fix_pre	0		134.0	58.0	2.5	/experiments/knapen_aot/videos/S_ILSVRC2015_train_00574004.mp4	0.0	357.496218919754	1.1165640354156494
60	183.44064688682556	response	0	2		58.0	2.5	/experiments/knapen_aot/videos/S_ILSVRC2015_train_00574004.mp4	0.0	358.6046419143677	
60	183.44878792762756	movie	1		301.0	58.0	2.5	/experiments/knapen_aot/videos/S_ILSVRC2015_train_00574004.mp4	0.0	358.6127829551697	2.508359909057617
60	185.95714783668518	fix_post	2		12.0	58.0	2.5	/experiments/knapen_aot/videos/S_ILSVRC2015_train_00574004.mp4	0.0	361.1211428642273	0.10001611709594727
61	186.05716395378113	fix_pre	0		15.0	59.0	2.5	/experiments/knapen_aot/videos/S_pexels-mikael-blomkvist-8689852.mp4	0.0	361.22115898132324	0.12497091293334961
61	186.17402291297913	response	0	2		59.0	2.5	/experiments/knapen_aot/videos/S_pexels-mikael-blomkvist-8689852.mp4	0.0	361.33801794052124	
61	186.18213486671448	movie	1		168.0	59.0	2.5	/experiments/knapen_aot/videos/S_pexels-mikael-blomkvist-8689852.mp4	0.0	361.3461298942566	2.508305072784424
61	188.6904399394989	fix_post	2		12.0	59.0	2.5	/experiments/knapen_aot/videos/S_pexels-mikael-blomkvist-8689852.mp4	0.0	363.854434967041	0.10009193420410156
62	188.790531873703	fix_pre	0		6.0	60.0	2.5	/experiments/knapen_aot/videos/R_S_yt-sPhtPyQM00c_106.mp4	0.0	363.9545269012451	0.050074100494384766
62	188.83243584632874	response	0	2		60.0	2.5	/experiments/knapen_aot/videos/R_S_yt-sPhtPyQM00c_106.mp4	0.0	363.99643087387085	
62	188.8406059741974	movie	1		301.0	60.0	2.5	/experiments/knapen_aot/videos/R_S_yt-sPhtPyQM00c_106.mp4	0.0	364.0046010017395	2.508241891860962
62	191.34884786605835	fix_post	2		12.0	60.0	2.5	/experiments/knapen_aot/videos/R_S_yt-sPhtPyQM00c_106.mp4	0.0	366.51284289360046	0.0999910831451416
63	191.4488389492035	fix_pre	0		6.0	61.0	2.5	blank	1.0	366.6128339767456	0.05000185966491699
63	191.4906768798828	response	0	2		61.0	2.5	blank	1.0	366.6546719074249	
63	191.4988408088684	movie	1		301.0	61.0	2.5	blank	1.0	366.6628358364105	2.5083510875701904
63	194.0071918964386	fix_post	2		12.0	61.0	2.5	blank	1.0	369.1711869239807	0.09996390342712402
64	194.10715579986572	fix_pre	0		19.0	62.0	2.5	/experiments/knapen_aot/videos/R_S_yt-SjPYdaUBi7A_37.mp4	0.0	369.27115082740784	0.15833306312561035
64	194.25722289085388	response	0	2		62.0	2.5	/experiments/knapen_aot/videos/R_S_yt-SjPYdaUBi7A_37.mp4	0.0	369.421217918396	
64	194.26548886299133	movie	1		301.0	62.0	2.5	/experiments/knapen_aot/videos/R_S_yt-SjPYdaUBi7A_37.mp4	0.0	369.42948389053345	2.5083749294281006
64	196.77386379241943	fix_post	2		12.0	62.0	2.5	/experiments/knapen_aot/videos/R_S_yt-SjPYdaUBi7A_37.mp4	0.0	371.93785881996155	0.09997916221618652
65	196.87384295463562	fix_pre	0		13.0	63.0	2.5	/experiments/knapen_aot/videos/S_yt-8LO59eN9om4_16.mp4	0.0	372.03783798217773	0.1083528995513916
65	196.97397899627686	response	0	2		63.0	2.5	/experiments/knapen_aot/videos/S_yt-8LO59eN9om4_16.mp4	0.0	372.13797402381897	
65	196.982195854187	movie	1		301.0	63.0	2.5	/experiments/knapen_aot/videos/S_yt-8LO59eN9om4_16.mp4	0.0	372.1461908817291	2.508289098739624
65	199.49048495292664	fix_post	2		12.0	63.0	2.5	/experiments/knapen_aot/videos/S_yt-8LO59eN9om4_16.mp4	0.0	374.65447998046875	0.09998798370361328
66	199.59047293663025	fix_pre	0		17.0	64.0	2.5	/experiments/knapen_aot/videos/R_S_yt-1_xoCNmTn3Y_1.mp4	0.0	374.75446796417236	0.1416149139404297
66	199.72391295433044	response	0	2		64.0	2.5	/experiments/knapen_aot/videos/R_S_yt-1_xoCNmTn3Y_1.mp4	0.0	374.88790798187256	
66	199.73208785057068	movie	1		301.0	64.0	2.5	/experiments/knapen_aot/videos/R_S_yt-1_xoCNmTn3Y_1.mp4	0.0	374.8960828781128	2.508342981338501
66	201.7822299003601	response	1	2		64.0	2.5	/experiments/knapen_aot/videos/R_S_yt-1_xoCNmTn3Y_1.mp4	0.0	376.9462249279022	
66	202.24043083190918	fix_post	2		12.0	64.0	2.5	/experiments/knapen_aot/videos/R_S_yt-1_xoCNmTn3Y_1.mp4	0.0	377.4044258594513	0.10007810592651367
67	202.3405089378357	fix_pre	0		2.0	65.0	2.5	/experiments/knapen_aot/videos/R_S_b3TCugtX0h0_108.mp4	0.0	377.5045039653778	0.016594886779785156
67	202.3489499092102	response	0	2		65.0	2.5	/experiments/knapen_aot/videos/R_S_b3TCugtX0h0_108.mp4	0.0	377.5129449367523	
67	202.35710382461548	movie	1		301.0	65.0	2.5	/experiments/knapen_aot/videos/R_S_b3TCugtX0h0_108.mp4	0.0	377.5210988521576	2.508336067199707
67	204.86543989181519	fix_post	2		12.0	65.0	2.5	/experiments/knapen_aot/videos/R_S_b3TCugtX0h0_108.mp4	0.0	380.0294349193573	0.10000300407409668
68	204.96544289588928	fix_pre	0		20.0	66.0	2.5	/experiments/knapen_aot/videos/R_S_yt-wUqpCtBOFBA_89.mp4	0.0	380.1294379234314	0.16662287712097168
68	205.1238658428192	response	0	2		66.0	2.5	/experiments/knapen_aot/videos/R_S_yt-wUqpCtBOFBA_89.mp4	0.0	380.2878608703613	
68	205.13206577301025	movie	1		300.0	66.0	2.5	/experiments/knapen_aot/videos/R_S_yt-wUqpCtBOFBA_89.mp4	0.0	380.29606080055237	2.5083460807800293
68	207.64041185379028	fix_post	2		12.0	66.0	2.5	/experiments/knapen_aot/videos/R_S_yt-wUqpCtBOFBA_89.mp4	0.0	382.8044068813324	0.10000896453857422
69	207.74042081832886	fix_pre	0		20.0	67.0	2.5	/experiments/knapen_aot/videos/R_S_ILSVRC2015_train_00303005.mp4	0.0	382.904415845871	0.1666569709777832
69	207.8914439678192	response	0	2		67.0	2.5	/experiments/knapen_aot/videos/R_S_ILSVRC2015_train_00303005.mp4	0.0	383.0554389953613	
69	207.90707778930664	movie	1		301.0	67.0	2.5	/experiments/knapen_aot/videos/R_S_ILSVRC2015_train_00303005.mp4	0.0	383.07107281684875	2.508291006088257
69	210.4153687953949	fix_post	2		12.0	67.0	2.5	/experiments/knapen_aot/videos/R_S_ILSVRC2015_train_00303005.mp4	0.0	385.579363822937	0.09999704360961914
70	210.51536583900452	fix_pre	0		210.0	68.0	2.5	/experiments/knapen_aot/videos/R_S_yt-h8wy6x6oytA_25.mp4	0.0	385.67936086654663	1.7500231266021729
70	212.25713896751404	response	0	2		68.0	2.5	/experiments/knapen_aot/videos/R_S_yt-h8wy6x6oytA_25.mp4	0.0	387.42113399505615	
70	212.2653889656067	movie	1		301.0	68.0	2.5	/experiments/knapen_aot/videos/R_S_yt-h8wy6x6oytA_25.mp4	0.0	387.4293839931488	2.5083138942718506
70	214.77370285987854	fix_post	2		12.0	68.0	2.5	/experiments/knapen_aot/videos/R_S_yt-h8wy6x6oytA_25.mp4	0.0	389.93769788742065	0.10007214546203613
71	214.87377500534058	fix_pre	0		9.0	69.0	2.5	blank	1.0	390.0377700328827	0.07490777969360352
71	214.94053077697754	response	0	2		69.0	2.5	blank	1.0	390.10452580451965	
71	214.94868278503418	movie	1		301.0	69.0	2.5	blank	1.0	390.1126778125763	2.508327007293701
71	217.45700979232788	fix_post	2		12.0	69.0	2.5	blank	1.0	392.62100481987	0.10002613067626953
72	217.55703592300415	fix_pre	0		15.0	70.0	2.5	/experiments/knapen_aot/videos/R_S_ILSVRC2015_train_00371006.mp4	0.0	392.72103095054626	0.12491488456726074
72	217.67381978034973	response	0	2		70.0	2.5	/experiments/knapen_aot/videos/R_S_ILSVRC2015_train_00371006.mp4	0.0	392.83781480789185	
72	217.6819508075714	movie	1		301.0	70.0	2.5	/experiments/knapen_aot/videos/R_S_ILSVRC2015_train_00371006.mp4	0.0	392.8459458351135	2.50829815864563
72	220.19024896621704	fix_post	2		12.0	70.0	2.5	/experiments/knapen_aot/videos/R_S_ILSVRC2015_train_00371006.mp4	0.0	395.35424399375916	0.10009884834289551
73	220.29034781455994	fix_pre	0		10.0	71.0	2.5	/experiments/knapen_aot/videos/R_S_yt-WFiEvQuOqqg_18.mp4	0.0	395.45434284210205	0.08328700065612793
73	220.36550378799438	response	0	2		71.0	2.5	/experiments/knapen_aot/videos/R_S_yt-WFiEvQuOqqg_18.mp4	0.0	395.5294988155365	
73	220.37363481521606	movie	1		301.0	71.0	2.5	/experiments/knapen_aot/videos/R_S_yt-WFiEvQuOqqg_18.mp4	0.0	395.5376298427582	2.5083131790161133
73	222.88194799423218	fix_post	2		12.0	71.0	2.5	/experiments/knapen_aot/videos/R_S_yt-WFiEvQuOqqg_18.mp4	0.0	398.0459430217743	0.10004997253417969
73	222.9654619693756	response	2	2		71.0	2.5	/experiments/knapen_aot/videos/R_S_yt-WFiEvQuOqqg_18.mp4	0.0	398.1294569969177	
74	222.98199796676636	fix_pre	0		60.0	72.0	2.5	/experiments/knapen_aot/videos/S_yt-9Q7SZR0mgMA_155.mp4	0.0	398.1459929943085	0.5012040138244629
74	223.47381687164307	response	0	2		72.0	2.5	/experiments/knapen_aot/videos/S_yt-9Q7SZR0mgMA_155.mp4	0.0	398.6378118991852	
74	223.48320198059082	movie	1		301.0	72.0	2.5	/experiments/knapen_aot/videos/S_yt-9Q7SZR0mgMA_155.mp4	0.0	398.64719700813293	2.507159948348999
74	225.51548790931702	response	1	2		72.0	2.5	/experiments/knapen_aot/videos/S_yt-9Q7SZR0mgMA_155.mp4	0.0	400.67948293685913	
74	225.99036192893982	fix_post	2		12.0	72.0	2.5	/experiments/knapen_aot/videos/S_yt-9Q7SZR0mgMA_155.mp4	0.0	401.15435695648193	0.09991192817687988
75	226.0902738571167	fix_pre	0		5.0	73.0	2.5	/experiments/knapen_aot/videos/S_yt-e9AZJKNv9ow_359.mp4	0.0	401.2542688846588	0.041749000549316406
75	226.12377190589905	response	0	2		73.0	2.5	/experiments/knapen_aot/videos/S_yt-e9AZJKNv9ow_359.mp4	0.0	401.28776693344116	
75	226.13202285766602	movie	1		301.0	73.0	2.5	/experiments/knapen_aot/videos/S_yt-e9AZJKNv9ow_359.mp4	0.0	401.29601788520813	2.50827693939209
75	228.6402997970581	fix_post	2		12.0	73.0	2.5	/experiments/knapen_aot/videos/S_yt-e9AZJKNv9ow_359.mp4	0.0	403.8042948246002	0.10001015663146973
76	228.74030995368958	fix_pre	0		22.0	74.0	2.5	/experiments/knapen_aot/videos/R_S_yt-Xkx53mjgj2E_30.mp4	0.0	403.9043049812317	0.18332505226135254
76	228.91545796394348	response	0	2		74.0	2.5	/experiments/knapen_aot/videos/R_S_yt-Xkx53mjgj2E_30.mp4	0.0	404.0794529914856	
76	228.92363500595093	movie	1		301.0	74.0	2.5	/experiments/knapen_aot/videos/R_S_yt-Xkx53mjgj2E_30.mp4	0.0	404.08763003349304	2.508293867111206
76	231.43192887306213	fix_post	2		11.0	74.0	2.5	/experiments/knapen_aot/videos/R_S_yt-Xkx53mjgj2E_30.mp4	0.0	406.59592390060425	0.10008502006530762
77	231.53201389312744	fix_pre	0		53.0	75.0	2.5	blank	1.0	406.69600892066956	0.44168591499328613
77	231.96552991867065	response	0	2		75.0	2.5	blank	1.0	407.12952494621277	
77	231.97369980812073	movie	1		301.0	75.0	2.5	blank	1.0	407.13769483566284	2.508183002471924
77	234.48188281059265	fix_post	2		12.0	75.0	2.5	blank	1.0	409.64587783813477	0.10006403923034668
78	234.581946849823	fix_pre	0		123.0	76.0	2.5	/experiments/knapen_aot/videos/R_S_yt-RWN5qOIgqec_25.mp4	0.0	409.7459418773651	1.0261249542236328
78	235.59872579574585	response	0	2		76.0	2.5	/experiments/knapen_aot/videos/R_S_yt-RWN5qOIgqec_25.mp4	0.0	410.76272082328796	
78	235.60807180404663	movie	1		300.0	76.0	2.5	/experiments/knapen_aot/videos/R_S_yt-RWN5qOIgqec_25.mp4	0.0	410.77206683158875	2.5072410106658936
78	238.11531281471252	fix_post	2		12.0	76.0	2.5	/experiments/knapen_aot/videos/R_S_yt-RWN5qOIgqec_25.mp4	0.0	413.27930784225464	0.09996819496154785
79	238.21528100967407	fix_pre	0		14.0	77.0	2.5	/experiments/knapen_aot/videos/R_S_ILSVRC2015_train_00479003.mp4	0.0	413.3792760372162	0.11661291122436523
79	238.32370781898499	response	0	2		77.0	2.5	/experiments/knapen_aot/videos/R_S_ILSVRC2015_train_00479003.mp4	0.0	413.4877028465271	
79	238.33189392089844	movie	1		301.0	77.0	2.5	/experiments/knapen_aot/videos/R_S_ILSVRC2015_train_00479003.mp4	0.0	413.49588894844055	2.5083940029144287
79	240.84028792381287	fix_post	2		12.0	77.0	2.5	/experiments/knapen_aot/videos/R_S_ILSVRC2015_train_00479003.mp4	0.0	416.004282951355	0.1000208854675293
80	240.9403088092804	fix_pre	0		8.0	78.0	2.5	/experiments/knapen_aot/videos/R_S_yt-p0buJEEKeuI_61.mp4	0.0	416.1043038368225	0.06671905517578125
80	240.99210381507874	response	0	2		78.0	2.5	/experiments/knapen_aot/videos/R_S_yt-p0buJEEKeuI_61.mp4	0.0	416.15609884262085	
80	241.00702786445618	movie	1		301.0	78.0	2.5	/experiments/knapen_aot/videos/R_S_yt-p0buJEEKeuI_61.mp4	0.0	416.1710228919983	2.5081660747528076
80	243.51519393920898	fix_post	2		12.0	78.0	2.5	/experiments/knapen_aot/videos/R_S_yt-p0buJEEKeuI_61.mp4	0.0	418.6791889667511	0.10004687309265137
81	243.61524081230164	fix_pre	0		18.0	79.0	2.5	/experiments/knapen_aot/videos/S_yt-2CWrK9nbhTk_211.mp4	0.0	418.77923583984375	0.1499950885772705
81	243.7570879459381	response	0	2		79.0	2.5	/experiments/knapen_aot/videos/S_yt-2CWrK9nbhTk_211.mp4	0.0	418.9210829734802	
81	243.7652359008789	movie	1		301.0	79.0	2.5	/experiments/knapen_aot/videos/S_yt-2CWrK9nbhTk_211.mp4	0.0	418.929230928421	2.5084118843078613
81	246.27364778518677	fix_post	2		12.0	79.0	2.5	/experiments/knapen_aot/videos/S_yt-2CWrK9nbhTk_211.mp4	0.0	421.4376428127289	0.09992408752441406
82	246.37357187271118	fix_pre	0		102.0	80.0	2.5	/experiments/knapen_aot/videos/S_I004_C014_SDR_2K_AVC.mp4	0.0	421.5375669002533	0.8501040935516357
82	247.21535682678223	response	0	2		80.0	2.5	/experiments/knapen_aot/videos/S_I004_C014_SDR_2K_AVC.mp4	0.0	422.37935185432434	
82	247.22367596626282	movie	1		174.0	80.0	2.5	/experiments/knapen_aot/videos/S_I004_C014_SDR_2K_AVC.mp4	0.0	422.38767099380493	2.5082550048828125
82	249.73193097114563	fix_post	2		12.0	80.0	2.5	/experiments/knapen_aot/videos/S_I004_C014_SDR_2K_AVC.mp4	0.0	424.89592599868774	0.09998297691345215
83	249.83191394805908	fix_pre	0		16.0	81.0	2.5	/experiments/knapen_aot/videos/S_yt-KQq7vTlXUiQ_173.mp4	0.0	424.9959089756012	0.13334083557128906
83	249.95704078674316	response	0	2		81.0	2.5	/experiments/knapen_aot/videos/S_yt-KQq7vTlXUiQ_173.mp4	0.0	425.1210358142853	
83	249.96525478363037	movie	1		297.0	81.0	2.5	/experiments/knapen_aot/videos/S_yt-KQq7vTlXUiQ_173.mp4	0.0	425.1292498111725	2.50829815864563
83	252.473552942276	fix_post	2		11.0	81.0	2.5	/experiments/knapen_aot/videos/S_yt-KQq7vTlXUiQ_173.mp4	0.0	427.6375479698181	0.0927269458770752
83	252.55707383155823	response	2	2		81.0	2.5	/experiments/knapen_aot/videos/S_yt-KQq7vTlXUiQ_173.mp4	0.0	427.72106885910034	
84	252.56627988815308	fix_pre	0		64.0	82.0	2.5	/experiments/knapen_aot/videos/R_S_Y005_C003_SDR_2K_AVC.mp4	0.0	427.7302749156952	0.5323169231414795
84	253.09035992622375	response	0	2		82.0	2.5	/experiments/knapen_aot/videos/R_S_Y005_C003_SDR_2K_AVC.mp4	0.0	428.25435495376587	
84	253.09859681129456	movie	1		164.0	82.0	2.5	/experiments/knapen_aot/videos/R_S_Y005_C003_SDR_2K_AVC.mp4	0.0	428.26259183883667	2.508275032043457
84	255.606871843338	fix_post	2		12.0	82.0	2.5	/experiments/knapen_aot/videos/R_S_Y005_C003_SDR_2K_AVC.mp4	0.0	430.7708668708801	0.10001301765441895
85	255.70688486099243	fix_pre	0		11.0	83.0	2.5	blank	1.0	430.87087988853455	0.0916600227355957
85	255.79031085968018	response	0	2		83.0	2.5	blank	1.0	430.9543058872223	
85	255.79854488372803	movie	1		301.0	83.0	2.5	blank	1.0	430.96253991127014	2.50827693939209
85	258.3068218231201	fix_post	2		12.0	83.0	2.5	blank	1.0	433.47081685066223	0.10004901885986328
87	258.40687084198	stim	0		190.0					433.5708658695221	1.5832350254058838
87	259.98383593559265	response	0	space						435.14783096313477	
