trial_nr	onset	event_type	phase	response	nr_frames	movie_index	movie_duration	movie_file	blank	onset_abs	duration
0	0.1512460708618164	stim	0		46.0					59.172099113464355	0.3818979263305664
0	0.5255990028381348	response	0	space						59.546452045440674	
1	0.5331439971923828	stim	0		121.0					59.55399703979492	1.0079941749572754
1	1.3333702087402344	response	0	space						60.35422325134277	
1	1.5411381721496582	stim	1		120.0					60.5619912147522	1.000255823135376
1	2.0746991634368896	response	1	space						61.09555220603943	
2	2.541393995285034	fix_pre	0		55.0	0.0	2.5	/experiments/knapen_aot/videos/S_yt-j3Sk8ZnAiEA_32.mp4	0.0	61.56224703788757	0.458118200302124
2	2.9913601875305176	response	0	space		0.0	2.5	/experiments/knapen_aot/videos/S_yt-j3Sk8ZnAiEA_32.mp4	0.0	62.01221323013306	
2	2.999512195587158	movie	1		301.0	0.0	2.5	/experiments/knapen_aot/videos/S_yt-j3Sk8ZnAiEA_32.mp4	0.0	62.0203652381897	2.508375883102417
2	5.507888078689575	fix_post	2		12.0	0.0	2.5	/experiments/knapen_aot/videos/S_yt-j3Sk8ZnAiEA_32.mp4	0.0	64.52874112129211	0.09991812705993652
3	5.607806205749512	fix_pre	0		51.0	1.0	2.5	/experiments/knapen_aot/videos/R_S_video_inspire_oregon_lone-ranch-beach_00021.1080-h264.mp4	0.0	64.62865924835205	0.42505884170532227
3	6.027788162231445	response	0	2		1.0	2.5	/experiments/knapen_aot/videos/R_S_video_inspire_oregon_lone-ranch-beach_00021.1080-h264.mp4	0.0	65.04864120483398	
3	6.032865047454834	movie	1		166.0	1.0	2.5	/experiments/knapen_aot/videos/R_S_video_inspire_oregon_lone-ranch-beach_00021.1080-h264.mp4	0.0	65.05371809005737	2.5082640647888184
3	8.541129112243652	fix_post	2		12.0	1.0	2.5	/experiments/knapen_aot/videos/R_S_video_inspire_oregon_lone-ranch-beach_00021.1080-h264.mp4	0.0	67.56198215484619	0.10007190704345703
4	8.64120101928711	fix_pre	0		40.0	2.0	2.5	/experiments/knapen_aot/videos/R_S_ILSVRC2015_train_00578000.mp4	0.0	67.66205406188965	0.33328819274902344
4	8.96631121635437	response	0	2		2.0	2.5	/experiments/knapen_aot/videos/R_S_ILSVRC2015_train_00578000.mp4	0.0	67.98716425895691	
4	8.974489212036133	movie	1		301.0	2.0	2.5	/experiments/knapen_aot/videos/R_S_ILSVRC2015_train_00578000.mp4	0.0	67.99534225463867	2.5084948539733887
4	11.482984066009521	fix_post	2		12.0	2.0	2.5	/experiments/knapen_aot/videos/R_S_ILSVRC2015_train_00578000.mp4	0.0	70.50383710861206	0.09990215301513672
5	11.582886219024658	fix_pre	0		33.0	3.0	2.5	/experiments/knapen_aot/videos/S_yt-AbJBxqEYoMg_27.mp4	0.0	70.6037392616272	0.27535200119018555
5	11.849614143371582	response	0	2		3.0	2.5	/experiments/knapen_aot/videos/S_yt-AbJBxqEYoMg_27.mp4	0.0	70.87046718597412	
5	11.858238220214844	movie	1		301.0	3.0	2.5	/experiments/knapen_aot/videos/S_yt-AbJBxqEYoMg_27.mp4	0.0	70.87909126281738	2.507856845855713
5	14.366095066070557	fix_post	2		12.0	3.0	2.5	/experiments/knapen_aot/videos/S_yt-AbJBxqEYoMg_27.mp4	0.0	73.3869481086731	0.10006499290466309
6	14.46616005897522	fix_pre	0		37.0	4.0	2.5	/experiments/knapen_aot/videos/R_S_yt-pPIHiIYSjW8_653.mp4	0.0	73.48701310157776	0.30867815017700195
6	14.766319036483765	response	0	2		4.0	2.5	/experiments/knapen_aot/videos/R_S_yt-pPIHiIYSjW8_653.mp4	0.0	73.7871720790863	
6	14.774838209152222	movie	1		301.0	4.0	2.5	/experiments/knapen_aot/videos/R_S_yt-pPIHiIYSjW8_653.mp4	0.0	73.79569125175476	2.5080368518829346
6	17.282875061035156	fix_post	2		12.0	4.0	2.5	/experiments/knapen_aot/videos/R_S_yt-pPIHiIYSjW8_653.mp4	0.0	76.3037281036377	0.09998893737792969
7	17.382863998413086	fix_pre	0		50.0	5.0	2.5	/experiments/knapen_aot/videos/S_wc-DcFDe419cL3d_17.mp4	0.0	76.40371704101562	0.4166381359100342
7	17.79132103919983	response	0	2		5.0	2.5	/experiments/knapen_aot/videos/S_wc-DcFDe419cL3d_17.mp4	0.0	76.81217408180237	
7	17.79950213432312	movie	1		161.0	5.0	2.5	/experiments/knapen_aot/videos/S_wc-DcFDe419cL3d_17.mp4	0.0	76.82035517692566	2.508298873901367
7	20.307801008224487	fix_post	2		12.0	5.0	2.5	/experiments/knapen_aot/videos/S_wc-DcFDe419cL3d_17.mp4	0.0	79.32865405082703	0.10005807876586914
8	20.407859086990356	fix_pre	0		57.0	6.0	2.5	blank	1.0	79.4287121295929	0.4748871326446533
8	20.87458109855652	response	0	2		6.0	2.5	blank	1.0	79.89543414115906	
8	20.88274621963501	movie	1		301.0	6.0	2.5	blank	1.0	79.90359926223755	2.508347988128662
8	23.391094207763672	fix_post	2		12.0	6.0	2.5	blank	1.0	82.41194725036621	0.10005879402160645
9	23.49115300178528	fix_pre	0		33.0	7.0	2.5	/experiments/knapen_aot/videos/S_production_ID_4787635.mp4	0.0	82.51200604438782	0.27498412132263184
9	23.75785207748413	response	0	2		7.0	2.5	/experiments/knapen_aot/videos/S_production_ID_4787635.mp4	0.0	82.77870512008667	
9	23.76613712310791	movie	1		163.0	7.0	2.5	/experiments/knapen_aot/videos/S_production_ID_4787635.mp4	0.0	82.78699016571045	2.5083000659942627
9	26.274437189102173	fix_post	2		12.0	7.0	2.5	/experiments/knapen_aot/videos/S_production_ID_4787635.mp4	0.0	85.29529023170471	0.09993386268615723
10	26.37437105178833	fix_pre	0		38.0	8.0	2.5	/experiments/knapen_aot/videos/S_yt-xlHdGsXVZFU_83.mp4	0.0	85.39522409439087	0.31705594062805176
10	26.682948112487793	response	0	2		8.0	2.5	/experiments/knapen_aot/videos/S_yt-xlHdGsXVZFU_83.mp4	0.0	85.70380115509033	
10	26.691426992416382	movie	1		298.0	8.0	2.5	/experiments/knapen_aot/videos/S_yt-xlHdGsXVZFU_83.mp4	0.0	85.71228003501892	2.508002996444702
10	29.199429988861084	fix_post	2		12.0	8.0	2.5	/experiments/knapen_aot/videos/S_yt-xlHdGsXVZFU_83.mp4	0.0	88.22028303146362	0.10006022453308105
11	29.299490213394165	fix_pre	0		28.0	9.0	2.5	/experiments/knapen_aot/videos/R_S_ILSVRC2015_train_00001009.mp4	0.0	88.3203432559967	0.23325896263122559
11	29.52451515197754	response	0	2		9.0	2.5	/experiments/knapen_aot/videos/R_S_ILSVRC2015_train_00001009.mp4	0.0	88.54536819458008	
11	29.53274917602539	movie	1		301.0	9.0	2.5	/experiments/knapen_aot/videos/R_S_ILSVRC2015_train_00001009.mp4	0.0	88.55360221862793	2.508340835571289
11	32.04109001159668	fix_post	2		12.0	9.0	2.5	/experiments/knapen_aot/videos/R_S_ILSVRC2015_train_00001009.mp4	0.0	91.06194305419922	0.09998917579650879
12	32.14107918739319	fix_pre	0		26.0	10.0	2.5	/experiments/knapen_aot/videos/S_ILSVRC2015_train_00165008.mp4	0.0	91.16193222999573	0.21698498725891113
12	32.34959816932678	response	0	2		10.0	2.5	/experiments/knapen_aot/videos/S_ILSVRC2015_train_00165008.mp4	0.0	91.37045121192932	
12	32.3580641746521	movie	1		300.0	10.0	2.5	/experiments/knapen_aot/videos/S_ILSVRC2015_train_00165008.mp4	0.0	91.37891721725464	2.508070945739746
12	34.866135120391846	fix_post	2		12.0	10.0	2.5	/experiments/knapen_aot/videos/S_ILSVRC2015_train_00165008.mp4	0.0	93.88698816299438	0.09998607635498047
13	34.966121196746826	fix_pre	0		29.0	11.0	2.5	/experiments/knapen_aot/videos/R_S_flickr-lamujuri-10653517683_4.mp4	0.0	93.98697423934937	0.24161291122436523
13	35.19955611228943	response	0	2		11.0	2.5	/experiments/knapen_aot/videos/R_S_flickr-lamujuri-10653517683_4.mp4	0.0	94.22040915489197	
13	35.20773410797119	movie	1		168.0	11.0	2.5	/experiments/knapen_aot/videos/R_S_flickr-lamujuri-10653517683_4.mp4	0.0	94.22858715057373	2.508362054824829
13	37.71609616279602	fix_post	2		12.0	11.0	2.5	/experiments/knapen_aot/videos/R_S_flickr-lamujuri-10653517683_4.mp4	0.0	96.73694920539856	0.10029888153076172
14	37.81639504432678	fix_pre	0		35.0	12.0	2.5	/experiments/knapen_aot/videos/R_S_ILnEDG_aP1A_35.mp4	0.0	96.83724808692932	0.29161500930786133
14	38.099595069885254	response	0	2		12.0	2.5	/experiments/knapen_aot/videos/R_S_ILnEDG_aP1A_35.mp4	0.0	97.1204481124878	
14	38.108010053634644	movie	1		300.0	12.0	2.5	/experiments/knapen_aot/videos/R_S_ILnEDG_aP1A_35.mp4	0.0	97.12886309623718	2.508044958114624
14	40.61605501174927	fix_post	2		12.0	12.0	2.5	/experiments/knapen_aot/videos/R_S_ILnEDG_aP1A_35.mp4	0.0	99.6369080543518	0.09999418258666992
15	40.71604919433594	fix_pre	0		45.0	13.0	2.5	/experiments/knapen_aot/videos/S_g201_TH_804_A001_8_SDR_20191031_SDR_2K_AVC.mp4	0.0	99.73690223693848	0.3749258518218994
15	41.08287501335144	response	0	2		13.0	2.5	/experiments/knapen_aot/videos/S_g201_TH_804_A001_8_SDR_20191031_SDR_2K_AVC.mp4	0.0	100.10372805595398	
15	41.09097504615784	movie	1		164.0	13.0	2.5	/experiments/knapen_aot/videos/S_g201_TH_804_A001_8_SDR_20191031_SDR_2K_AVC.mp4	0.0	100.11182808876038	2.508392095565796
15	43.59936714172363	fix_post	2		12.0	13.0	2.5	/experiments/knapen_aot/videos/S_g201_TH_804_A001_8_SDR_20191031_SDR_2K_AVC.mp4	0.0	102.62022018432617	0.09998893737792969
16	43.69935607910156	fix_pre	0		82.0	14.0	2.5	blank	1.0	102.7202091217041	0.6834471225738525
16	44.374529123306274	response	0	2		14.0	2.5	blank	1.0	103.39538216590881	
16	44.382803201675415	movie	1		301.0	14.0	2.5	blank	1.0	103.40365624427795	2.5081799030303955
16	46.89098310470581	fix_post	2		12.0	14.0	2.5	blank	1.0	105.91183614730835	0.09999299049377441
17	46.990976095199585	fix_pre	0		257.0	15.0	2.5	/experiments/knapen_aot/videos/S_comp_CH_C002_C005_PSNK_v05_SDR_PS_FINAL_20180709_SDR_2K_AVC.mp4	0.0	106.01182913780212	2.141606092453003
17	49.116870164871216	response	0	2		15.0	2.5	/experiments/knapen_aot/videos/S_comp_CH_C002_C005_PSNK_v05_SDR_PS_FINAL_20180709_SDR_2K_AVC.mp4	0.0	108.13772320747375	
17	49.13258218765259	movie	1		173.0	15.0	2.5	/experiments/knapen_aot/videos/S_comp_CH_C002_C005_PSNK_v05_SDR_PS_FINAL_20180709_SDR_2K_AVC.mp4	0.0	108.15343523025513	2.5084409713745117
17	51.6410231590271	fix_post	2		12.0	15.0	2.5	/experiments/knapen_aot/videos/S_comp_CH_C002_C005_PSNK_v05_SDR_PS_FINAL_20180709_SDR_2K_AVC.mp4	0.0	110.66187620162964	0.0999898910522461
18	51.741013050079346	fix_pre	0		74.0	16.0	2.5	/experiments/knapen_aot/videos/S_yt-AHbFln6blfE_36.mp4	0.0	110.76186609268188	0.6168630123138428
18	52.34948420524597	response	0	2		16.0	2.5	/experiments/knapen_aot/videos/S_yt-AHbFln6blfE_36.mp4	0.0	111.37033724784851	
18	52.35787606239319	movie	1		301.0	16.0	2.5	/experiments/knapen_aot/videos/S_yt-AHbFln6blfE_36.mp4	0.0	111.37872910499573	2.5080909729003906
18	54.86596703529358	fix_post	2		12.0	16.0	2.5	/experiments/knapen_aot/videos/S_yt-AHbFln6blfE_36.mp4	0.0	113.88682007789612	0.1000211238861084
19	54.96598815917969	fix_pre	0		82.0	17.0	2.5	/experiments/knapen_aot/videos/R_S_yt-vjed5qyKqZw_1.mp4	0.0	113.98684120178223	0.6834640502929688
19	55.64119219779968	response	0	2		17.0	2.5	/experiments/knapen_aot/videos/R_S_yt-vjed5qyKqZw_1.mp4	0.0	114.66204524040222	
19	55.649452209472656	movie	1		301.0	17.0	2.5	/experiments/knapen_aot/videos/R_S_yt-vjed5qyKqZw_1.mp4	0.0	114.6703052520752	2.508192777633667
19	58.15764498710632	fix_post	2		12.0	17.0	2.5	/experiments/knapen_aot/videos/R_S_yt-vjed5qyKqZw_1.mp4	0.0	117.17849802970886	0.10000920295715332
20	58.25765419006348	fix_pre	0		33.0	18.0	2.5	/experiments/knapen_aot/videos/S_yt--Ra34zJ69AU_68.mp4	0.0	117.27850723266602	0.2748908996582031
20	58.52446699142456	response	0	2		18.0	2.5	/experiments/knapen_aot/videos/S_yt--Ra34zJ69AU_68.mp4	0.0	117.5453200340271	
20	58.53254508972168	movie	1		301.0	18.0	2.5	/experiments/knapen_aot/videos/S_yt--Ra34zJ69AU_68.mp4	0.0	117.55339813232422	2.508394956588745
20	61.040940046310425	fix_post	2		12.0	18.0	2.5	/experiments/knapen_aot/videos/S_yt--Ra34zJ69AU_68.mp4	0.0	120.06179308891296	0.10001397132873535
21	61.14095401763916	fix_pre	0		38.0	19.0	2.5	blank	1.0	120.1618070602417	0.3166651725769043
21	61.4494571685791	response	0	2		19.0	2.5	blank	1.0	120.47031021118164	
21	61.457619190216064	movie	1		301.0	19.0	2.5	blank	1.0	120.4784722328186	2.5082898139953613
21	63.965909004211426	fix_post	2		12.0	19.0	2.5	blank	1.0	122.98676204681396	0.1001431941986084
22	64.06605219841003	fix_pre	0		192.0	20.0	2.5	/experiments/knapen_aot/videos/R_S_yt-wLylWnZs3z0_27.mp4	0.0	123.08690524101257	1.5998599529266357
22	65.65776205062866	response	0	2		20.0	2.5	/experiments/knapen_aot/videos/R_S_yt-wLylWnZs3z0_27.mp4	0.0	124.6786150932312	
22	65.66591215133667	movie	1		301.0	20.0	2.5	/experiments/knapen_aot/videos/R_S_yt-wLylWnZs3z0_27.mp4	0.0	124.68676519393921	2.5083329677581787
22	68.17424511909485	fix_post	2		12.0	20.0	2.5	/experiments/knapen_aot/videos/R_S_yt-wLylWnZs3z0_27.mp4	0.0	127.19509816169739	0.10015487670898438
23	68.27439999580383	fix_pre	0		43.0	21.0	2.5	/experiments/knapen_aot/videos/S_yt-r7PeFd-hIp0_378.mp4	0.0	127.29525303840637	0.3581531047821045
23	68.62431001663208	response	0	2		21.0	2.5	/experiments/knapen_aot/videos/S_yt-r7PeFd-hIp0_378.mp4	0.0	127.64516305923462	
23	68.63255310058594	movie	1		301.0	21.0	2.5	/experiments/knapen_aot/videos/S_yt-r7PeFd-hIp0_378.mp4	0.0	127.65340614318848	2.5083420276641846
23	71.14089512825012	fix_post	2		12.0	21.0	2.5	/experiments/knapen_aot/videos/S_yt-r7PeFd-hIp0_378.mp4	0.0	130.16174817085266	0.0999910831451416
24	71.24088621139526	fix_pre	0		24.0	22.0	2.5	/experiments/knapen_aot/videos/S_yt-14tjqjjjAEI_15.mp4	0.0	130.2617392539978	0.20011186599731445
24	71.43264317512512	response	0	2		22.0	2.5	/experiments/knapen_aot/videos/S_yt-14tjqjjjAEI_15.mp4	0.0	130.45349621772766	
24	71.44099807739258	movie	1		301.0	22.0	2.5	/experiments/knapen_aot/videos/S_yt-14tjqjjjAEI_15.mp4	0.0	130.46185111999512	2.5082879066467285
24	73.9492859840393	fix_post	2		12.0	22.0	2.5	/experiments/knapen_aot/videos/S_yt-14tjqjjjAEI_15.mp4	0.0	132.97013902664185	0.09995317459106445
25	74.04923915863037	fix_pre	0		32.0	23.0	2.5	/experiments/knapen_aot/videos/R_S_flickr-southeasternstar-3464778323_10.mp4	0.0	133.0700922012329	0.26679205894470215
25	74.30770301818848	response	0	2		23.0	2.5	/experiments/knapen_aot/videos/R_S_flickr-southeasternstar-3464778323_10.mp4	0.0	133.32855606079102	
25	74.31603121757507	movie	1		301.0	23.0	2.5	/experiments/knapen_aot/videos/R_S_flickr-southeasternstar-3464778323_10.mp4	0.0	133.3368842601776	2.5082638263702393
25	76.82429504394531	fix_post	2		12.0	23.0	2.5	/experiments/knapen_aot/videos/R_S_flickr-southeasternstar-3464778323_10.mp4	0.0	135.84514808654785	0.09999203681945801
26	76.92428708076477	fix_pre	0		31.0	24.0	2.5	/experiments/knapen_aot/videos/R_S_yt-8LO59eN9om4_16.mp4	0.0	135.9451401233673	0.2582569122314453
26	77.16677618026733	response	0	2		24.0	2.5	/experiments/knapen_aot/videos/R_S_yt-8LO59eN9om4_16.mp4	0.0	136.18762922286987	
26	77.18254399299622	movie	1		297.0	24.0	2.5	/experiments/knapen_aot/videos/R_S_yt-8LO59eN9om4_16.mp4	0.0	136.20339703559875	2.5084822177886963
26	79.69102621078491	fix_post	2		12.0	24.0	2.5	/experiments/knapen_aot/videos/R_S_yt-8LO59eN9om4_16.mp4	0.0	138.71187925338745	0.0998849868774414
27	79.79091119766235	fix_pre	0		27.0	25.0	2.5	/experiments/knapen_aot/videos/R_S_video_inspire_oregon_lone-ranch-beach_00021.1080-h264.mp4	0.0	138.8117642402649	0.22507286071777344
27	80.00772404670715	response	0	2		25.0	2.5	/experiments/knapen_aot/videos/R_S_video_inspire_oregon_lone-ranch-beach_00021.1080-h264.mp4	0.0	139.0285770893097	
27	80.01598405838013	movie	1		167.0	25.0	2.5	/experiments/knapen_aot/videos/R_S_video_inspire_oregon_lone-ranch-beach_00021.1080-h264.mp4	0.0	139.03683710098267	2.5083179473876953
27	82.52430200576782	fix_post	2		12.0	25.0	2.5	/experiments/knapen_aot/videos/R_S_video_inspire_oregon_lone-ranch-beach_00021.1080-h264.mp4	0.0	141.54515504837036	0.09990215301513672
28	82.62420415878296	fix_pre	0		31.0	26.0	2.5	/experiments/knapen_aot/videos/S_yt-Tt_LkR4iAt4_11.mp4	0.0	141.6450572013855	0.2583189010620117
28	82.87439012527466	response	0	2		26.0	2.5	/experiments/knapen_aot/videos/S_yt-Tt_LkR4iAt4_11.mp4	0.0	141.8952431678772	
28	82.88252305984497	movie	1		301.0	26.0	2.5	/experiments/knapen_aot/videos/S_yt-Tt_LkR4iAt4_11.mp4	0.0	141.9033761024475	2.5083889961242676
28	85.39091205596924	fix_post	2		12.0	26.0	2.5	/experiments/knapen_aot/videos/S_yt-Tt_LkR4iAt4_11.mp4	0.0	144.41176509857178	0.09991097450256348
29	85.4908230304718	fix_pre	0		28.0	27.0	2.5	/experiments/knapen_aot/videos/R_S_yt-jy96-k8drRE_1.mp4	0.0	144.51167607307434	0.2333509922027588
29	85.71604013442993	response	0	2		27.0	2.5	/experiments/knapen_aot/videos/R_S_yt-jy96-k8drRE_1.mp4	0.0	144.73689317703247	
29	85.72417402267456	movie	1		301.0	27.0	2.5	/experiments/knapen_aot/videos/R_S_yt-jy96-k8drRE_1.mp4	0.0	144.7450270652771	2.5083491802215576
29	88.23252320289612	fix_post	2		12.0	27.0	2.5	/experiments/knapen_aot/videos/R_S_yt-jy96-k8drRE_1.mp4	0.0	147.25337624549866	0.10002398490905762
30	88.33254718780518	fix_pre	0		21.0	28.0	2.5	blank	1.0	147.35340023040771	0.17485594749450684
30	88.49932408332825	response	0	2		28.0	2.5	blank	1.0	147.5201771259308	
30	88.50740313529968	movie	1		301.0	28.0	2.5	blank	1.0	147.52825617790222	2.5083489418029785
30	91.01575207710266	fix_post	2		12.0	28.0	2.5	blank	1.0	150.0366051197052	0.10003900527954102
31	91.1157910823822	fix_pre	0		36.0	29.0	2.5	/experiments/knapen_aot/videos/R_S_video_inspire_california_big-sur_bixby_005.1080-h264.mp4	0.0	150.13664412498474	0.3000071048736572
31	91.4076611995697	response	0	2		29.0	2.5	/experiments/knapen_aot/videos/R_S_video_inspire_california_big-sur_bixby_005.1080-h264.mp4	0.0	150.42851424217224	
31	91.41579818725586	movie	1		167.0	29.0	2.5	/experiments/knapen_aot/videos/R_S_video_inspire_california_big-sur_bixby_005.1080-h264.mp4	0.0	150.4366512298584	2.5083680152893066
31	93.92416620254517	fix_post	2		12.0	29.0	2.5	/experiments/knapen_aot/videos/R_S_video_inspire_california_big-sur_bixby_005.1080-h264.mp4	0.0	152.9450192451477	0.09995889663696289
32	94.02412509918213	fix_pre	0		33.0	30.0	2.5	/experiments/knapen_aot/videos/R_S_yt-g_CLzrCYHoc_7.mp4	0.0	153.04497814178467	0.2749819755554199
32	94.29091906547546	response	0	2		30.0	2.5	/experiments/knapen_aot/videos/R_S_yt-g_CLzrCYHoc_7.mp4	0.0	153.311772108078	
32	94.29910707473755	movie	1		301.0	30.0	2.5	/experiments/knapen_aot/videos/R_S_yt-g_CLzrCYHoc_7.mp4	0.0	153.3199601173401	2.508435010910034
32	96.80754208564758	fix_post	2		12.0	30.0	2.5	/experiments/knapen_aot/videos/R_S_yt-g_CLzrCYHoc_7.mp4	0.0	155.82839512825012	0.09992694854736328
33	96.90746903419495	fix_pre	0		40.0	31.0	2.5	/experiments/knapen_aot/videos/S_yt-MXLxcvKZDHw_22.mp4	0.0	155.92832207679749	0.33329105377197266
33	97.22504305839539	response	0	2		31.0	2.5	/experiments/knapen_aot/videos/S_yt-MXLxcvKZDHw_22.mp4	0.0	156.24589610099792	
33	97.24076008796692	movie	1		301.0	31.0	2.5	/experiments/knapen_aot/videos/S_yt-MXLxcvKZDHw_22.mp4	0.0	156.26161313056946	2.508388042449951
33	99.74914813041687	fix_post	2		12.0	31.0	2.5	/experiments/knapen_aot/videos/S_yt-MXLxcvKZDHw_22.mp4	0.0	158.7700011730194	0.09998607635498047
34	99.84913420677185	fix_pre	0		41.0	32.0	2.5	/experiments/knapen_aot/videos/S_flickr-seattlemcneals-996953_3.mp4	0.0	158.8699872493744	0.34163689613342285
34	100.18260622024536	response	0	2		32.0	2.5	/experiments/knapen_aot/videos/S_flickr-seattlemcneals-996953_3.mp4	0.0	159.2034592628479	
34	100.19077110290527	movie	1		301.0	32.0	2.5	/experiments/knapen_aot/videos/S_flickr-seattlemcneals-996953_3.mp4	0.0	159.2116241455078	2.508347988128662
34	102.69911909103394	fix_post	2		12.0	32.0	2.5	/experiments/knapen_aot/videos/S_flickr-seattlemcneals-996953_3.mp4	0.0	161.71997213363647	0.09994697570800781
35	102.79906606674194	fix_pre	0		33.0	33.0	2.5	/experiments/knapen_aot/videos/R_S_ILSVRC2015_train_00417000.mp4	0.0	161.81991910934448	0.2749650478363037
35	103.06592416763306	response	0	2		33.0	2.5	/experiments/knapen_aot/videos/R_S_ILSVRC2015_train_00417000.mp4	0.0	162.0867772102356	
35	103.07403111457825	movie	1		301.0	33.0	2.5	/experiments/knapen_aot/videos/R_S_ILSVRC2015_train_00417000.mp4	0.0	162.0948841571808	2.5083160400390625
35	105.58234715461731	fix_post	2		12.0	33.0	2.5	/experiments/knapen_aot/videos/R_S_ILSVRC2015_train_00417000.mp4	0.0	164.60320019721985	0.1000828742980957
36	105.6824300289154	fix_pre	0		45.0	34.0	2.5	blank	1.0	164.70328307151794	0.3749840259552002
36	106.04929399490356	response	0	2		34.0	2.5	blank	1.0	165.0701470375061	
36	106.0574140548706	movie	1		301.0	34.0	2.5	blank	1.0	165.07826709747314	2.5083069801330566
36	108.56572103500366	fix_post	2		12.0	34.0	2.5	blank	1.0	167.5865740776062	0.10001301765441895
37	108.66573405265808	fix_pre	0		41.0	35.0	2.5	/experiments/knapen_aot/videos/S_I003_C004_SDR_2K_AVC.mp4	0.0	167.68658709526062	0.3416919708251953
37	108.99925518035889	response	0	2		35.0	2.5	/experiments/knapen_aot/videos/S_I003_C004_SDR_2K_AVC.mp4	0.0	168.02010822296143	
37	109.00742602348328	movie	1		166.0	35.0	2.5	/experiments/knapen_aot/videos/S_I003_C004_SDR_2K_AVC.mp4	0.0	168.02827906608582	2.508280038833618
37	111.5157060623169	fix_post	2		12.0	35.0	2.5	/experiments/knapen_aot/videos/S_I003_C004_SDR_2K_AVC.mp4	0.0	170.53655910491943	0.09999513626098633
38	111.61570119857788	fix_pre	0		43.0	36.0	2.5	/experiments/knapen_aot/videos/S_ILSVRC2015_train_00594000.mp4	0.0	170.63655424118042	0.3583199977874756
38	111.95828914642334	response	0	2		36.0	2.5	/experiments/knapen_aot/videos/S_ILSVRC2015_train_00594000.mp4	0.0	170.97914218902588	
38	111.97402119636536	movie	1		299.0	36.0	2.5	/experiments/knapen_aot/videos/S_ILSVRC2015_train_00594000.mp4	0.0	170.9948742389679	2.5083229541778564
38	114.48234415054321	fix_post	2		12.0	36.0	2.5	/experiments/knapen_aot/videos/S_ILSVRC2015_train_00594000.mp4	0.0	173.50319719314575	0.10005688667297363
39	114.58240103721619	fix_pre	0		67.0	37.0	2.5	/experiments/knapen_aot/videos/S_yt-0buqUbXVTn8_48.mp4	0.0	173.60325407981873	0.5582549571990967
39	115.13254308700562	response	0	2		37.0	2.5	/experiments/knapen_aot/videos/S_yt-0buqUbXVTn8_48.mp4	0.0	174.15339612960815	
39	115.14065599441528	movie	1		301.0	37.0	2.5	/experiments/knapen_aot/videos/S_yt-0buqUbXVTn8_48.mp4	0.0	174.16150903701782	2.5084071159362793
39	117.64906311035156	fix_post	2		12.0	37.0	2.5	/experiments/knapen_aot/videos/S_yt-0buqUbXVTn8_48.mp4	0.0	176.6699161529541	0.10003304481506348
40	117.74909615516663	fix_pre	0		43.0	38.0	2.5	/experiments/knapen_aot/videos/S_yt-V4Oosy-ZtGY_193.mp4	0.0	176.76994919776917	0.3582758903503418
40	118.0991849899292	response	0	2		38.0	2.5	/experiments/knapen_aot/videos/S_yt-V4Oosy-ZtGY_193.mp4	0.0	177.12003803253174	
40	118.10737204551697	movie	1		301.0	38.0	2.5	/experiments/knapen_aot/videos/S_yt-V4Oosy-ZtGY_193.mp4	0.0	177.1282250881195	2.5083329677581787
40	120.61570501327515	fix_post	2		12.0	38.0	2.5	/experiments/knapen_aot/videos/S_yt-V4Oosy-ZtGY_193.mp4	0.0	179.63655805587769	0.10004806518554688
41	120.7157530784607	fix_pre	0		33.0	39.0	2.5	/experiments/knapen_aot/videos/R_S_ILSVRC2015_train_00339001.mp4	0.0	179.73660612106323	0.27501606941223145
41	120.98249411582947	response	0	2		39.0	2.5	/experiments/knapen_aot/videos/R_S_ILSVRC2015_train_00339001.mp4	0.0	180.003347158432	
41	120.99076914787292	movie	1		301.0	39.0	2.5	/experiments/knapen_aot/videos/R_S_ILSVRC2015_train_00339001.mp4	0.0	180.01162219047546	2.508327007293701
41	123.49909615516663	fix_post	2		12.0	39.0	2.5	/experiments/knapen_aot/videos/R_S_ILSVRC2015_train_00339001.mp4	0.0	182.51994919776917	0.10001301765441895
42	123.59910917282104	fix_pre	0		62.0	40.0	2.5	blank	1.0	182.61996221542358	0.5165998935699463
42	124.10755109786987	response	0	2		40.0	2.5	blank	1.0	183.1284041404724	
42	124.11570906639099	movie	1		301.0	40.0	2.5	blank	1.0	183.13656210899353	2.5082850456237793
42	126.62399411201477	fix_post	2		12.0	40.0	2.5	blank	1.0	185.6448471546173	0.10001802444458008
43	126.72401213645935	fix_pre	0		73.0	41.0	2.5	/experiments/knapen_aot/videos/S_yt-yXJr3FR2xrM_27.mp4	0.0	185.7448651790619	0.6083130836486816
43	127.3165831565857	response	0	2		41.0	2.5	/experiments/knapen_aot/videos/S_yt-yXJr3FR2xrM_27.mp4	0.0	186.33743619918823	
43	127.33232522010803	movie	1		301.0	41.0	2.5	/experiments/knapen_aot/videos/S_yt-yXJr3FR2xrM_27.mp4	0.0	186.35317826271057	2.5082929134368896
43	129.84061813354492	fix_post	2		12.0	41.0	2.5	/experiments/knapen_aot/videos/S_yt-yXJr3FR2xrM_27.mp4	0.0	188.86147117614746	0.10004305839538574
44	129.9406611919403	fix_pre	0		25.0	42.0	2.5	/experiments/knapen_aot/videos/S_yt-J_FnFAl1uL0_143.mp4	0.0	188.96151423454285	0.2083139419555664
44	130.14082312583923	response	0	2		42.0	2.5	/experiments/knapen_aot/videos/S_yt-J_FnFAl1uL0_143.mp4	0.0	189.16167616844177	
44	130.14897513389587	movie	1		299.0	42.0	2.5	/experiments/knapen_aot/videos/S_yt-J_FnFAl1uL0_143.mp4	0.0	189.1698281764984	2.508394956588745
44	132.65737009048462	fix_post	2		12.0	42.0	2.5	/experiments/knapen_aot/videos/S_yt-J_FnFAl1uL0_143.mp4	0.0	191.67822313308716	0.09999489784240723
45	132.75736498832703	fix_pre	0		39.0	43.0	2.5	/experiments/knapen_aot/videos/S_yt-Ja7d2a6e5xE_279.mp4	0.0	191.77821803092957	0.3249800205230713
45	133.06659412384033	response	0	2		43.0	2.5	/experiments/knapen_aot/videos/S_yt-Ja7d2a6e5xE_279.mp4	0.0	192.08744716644287	
45	133.0823450088501	movie	1		301.0	43.0	2.5	/experiments/knapen_aot/videos/S_yt-Ja7d2a6e5xE_279.mp4	0.0	192.10319805145264	2.50833797454834
45	135.59068298339844	fix_post	2		12.0	43.0	2.5	/experiments/knapen_aot/videos/S_yt-Ja7d2a6e5xE_279.mp4	0.0	194.61153602600098	0.10002017021179199
46	135.69070315361023	fix_pre	0		56.0	44.0	2.5	/experiments/knapen_aot/videos/S_yt-pPIHiIYSjW8_653.mp4	0.0	194.71155619621277	0.4667689800262451
46	136.14916801452637	response	0	2		44.0	2.5	/experiments/knapen_aot/videos/S_yt-pPIHiIYSjW8_653.mp4	0.0	195.1700210571289	
46	136.15747213363647	movie	1		301.0	44.0	2.5	/experiments/knapen_aot/videos/S_yt-pPIHiIYSjW8_653.mp4	0.0	195.178325176239	2.5082268714904785
46	138.66569900512695	fix_post	2		12.0	44.0	2.5	/experiments/knapen_aot/videos/S_yt-pPIHiIYSjW8_653.mp4	0.0	197.6865520477295	0.09994316101074219
47	138.7656421661377	fix_pre	0		37.0	45.0	2.5	/experiments/knapen_aot/videos/R_S_yt-vjed5qyKqZw_1.mp4	0.0	197.78649520874023	0.3083369731903076
47	139.05832719802856	response	0	2		45.0	2.5	/experiments/knapen_aot/videos/R_S_yt-vjed5qyKqZw_1.mp4	0.0	198.0791802406311	
47	139.073979139328	movie	1		301.0	45.0	2.5	/experiments/knapen_aot/videos/R_S_yt-vjed5qyKqZw_1.mp4	0.0	198.09483218193054	2.5083389282226562
47	141.58231806755066	fix_post	2		12.0	45.0	2.5	/experiments/knapen_aot/videos/R_S_yt-vjed5qyKqZw_1.mp4	0.0	200.6031711101532	0.09997200965881348
48	141.68229007720947	fix_pre	0		53.0	46.0	2.5	/experiments/knapen_aot/videos/R_S_yt-T_qmGKyeKNU_32.mp4	0.0	200.703143119812	0.4416639804840088
48	142.11576414108276	response	0	2		46.0	2.5	/experiments/knapen_aot/videos/R_S_yt-T_qmGKyeKNU_32.mp4	0.0	201.1366171836853	
48	142.12395405769348	movie	1		300.0	46.0	2.5	/experiments/knapen_aot/videos/R_S_yt-T_qmGKyeKNU_32.mp4	0.0	201.14480710029602	2.5083730220794678
48	144.63232707977295	fix_post	2		12.0	46.0	2.5	/experiments/knapen_aot/videos/R_S_yt-T_qmGKyeKNU_32.mp4	0.0	203.6531801223755	0.09999990463256836
49	144.73232698440552	fix_pre	0		24.0	47.0	2.5	/experiments/knapen_aot/videos/R_S_yt-AuQ_WxaNy4Y_255.mp4	0.0	203.75318002700806	0.20107722282409668
49	144.92411518096924	response	0	2		47.0	2.5	/experiments/knapen_aot/videos/R_S_yt-AuQ_WxaNy4Y_255.mp4	0.0	203.94496822357178	
49	144.93340420722961	movie	1		301.0	47.0	2.5	/experiments/knapen_aot/videos/R_S_yt-AuQ_WxaNy4Y_255.mp4	0.0	203.95425724983215	2.5071988105773926
49	147.440603017807	fix_post	2		12.0	47.0	2.5	/experiments/knapen_aot/videos/R_S_yt-AuQ_WxaNy4Y_255.mp4	0.0	206.46145606040955	0.09993314743041992
50	147.54053616523743	fix_pre	0		35.0	48.0	2.5	/experiments/knapen_aot/videos/R_S_yt-RqWnxg1wT-0_41.mp4	0.0	206.56138920783997	0.2916748523712158
50	147.82409119606018	response	0	2		48.0	2.5	/experiments/knapen_aot/videos/R_S_yt-RqWnxg1wT-0_41.mp4	0.0	206.84494423866272	
50	147.83221101760864	movie	1		301.0	48.0	2.5	/experiments/knapen_aot/videos/R_S_yt-RqWnxg1wT-0_41.mp4	0.0	206.85306406021118	2.508268117904663
50	150.3404791355133	fix_post	2		12.0	48.0	2.5	/experiments/knapen_aot/videos/R_S_yt-RqWnxg1wT-0_41.mp4	0.0	209.36133217811584	0.10011506080627441
51	150.44059419631958	fix_pre	0		26.0	49.0	2.5	blank	1.0	209.46144723892212	0.21661901473999023
51	150.649001121521	response	0	2		49.0	2.5	blank	1.0	209.66985416412354	
51	150.65721321105957	movie	1		301.0	49.0	2.5	blank	1.0	209.6780662536621	2.508309841156006
51	153.16552305221558	fix_post	2		12.0	49.0	2.5	blank	1.0	212.18637609481812	0.10000205039978027
52	153.26552510261536	fix_pre	0		32.0	50.0	2.5	/experiments/knapen_aot/videos/R_S_ILSVRC2015_train_00446000.mp4	0.0	212.2863781452179	0.26666688919067383
52	153.5240490436554	response	0	2		50.0	2.5	/experiments/knapen_aot/videos/R_S_ILSVRC2015_train_00446000.mp4	0.0	212.54490208625793	
52	153.53219199180603	movie	1		301.0	50.0	2.5	/experiments/knapen_aot/videos/R_S_ILSVRC2015_train_00446000.mp4	0.0	212.55304503440857	2.508350133895874
52	156.0405421257019	fix_post	2		12.0	50.0	2.5	/experiments/knapen_aot/videos/R_S_ILSVRC2015_train_00446000.mp4	0.0	215.06139516830444	0.10000205039978027
53	156.14054417610168	fix_pre	0		49.0	51.0	2.5	/experiments/knapen_aot/videos/S_wc-NVeGRb_y_y_5_36.mp4	0.0	215.16139721870422	0.40831589698791504
53	156.54073905944824	response	0	2		51.0	2.5	/experiments/knapen_aot/videos/S_wc-NVeGRb_y_y_5_36.mp4	0.0	215.56159210205078	
53	156.5488600730896	movie	1		164.0	51.0	2.5	/experiments/knapen_aot/videos/S_wc-NVeGRb_y_y_5_36.mp4	0.0	215.56971311569214	2.5085110664367676
53	159.05737113952637	fix_post	2		12.0	51.0	2.5	/experiments/knapen_aot/videos/S_wc-NVeGRb_y_y_5_36.mp4	0.0	218.0782241821289	0.09986400604248047
54	159.15723514556885	fix_pre	0		34.0	52.0	2.5	/experiments/knapen_aot/videos/S_production_ID_4802716.mp4	0.0	218.1780881881714	0.28327488899230957
54	159.4323251247406	response	0	2		52.0	2.5	/experiments/knapen_aot/videos/S_production_ID_4802716.mp4	0.0	218.45317816734314	
54	159.44051003456116	movie	1		168.0	52.0	2.5	/experiments/knapen_aot/videos/S_production_ID_4802716.mp4	0.0	218.4613630771637	2.508418083190918
54	161.94892811775208	fix_post	2		12.0	52.0	2.5	/experiments/knapen_aot/videos/S_production_ID_4802716.mp4	0.0	220.96978116035461	0.10016703605651855
55	162.0490951538086	fix_pre	0		42.0	53.0	2.5	/experiments/knapen_aot/videos/R_S_yt-J1dw4AznwmQ_7.mp4	0.0	221.06994819641113	0.3497810363769531
55	162.39073300361633	response	0	2		53.0	2.5	/experiments/knapen_aot/videos/R_S_yt-J1dw4AznwmQ_7.mp4	0.0	221.41158604621887	
55	162.39887619018555	movie	1		301.0	53.0	2.5	/experiments/knapen_aot/videos/R_S_yt-J1dw4AznwmQ_7.mp4	0.0	221.4197292327881	2.508424997329712
55	164.90730118751526	fix_post	2		12.0	53.0	2.5	/experiments/knapen_aot/videos/R_S_yt-J1dw4AznwmQ_7.mp4	0.0	223.9281542301178	0.09993982315063477
56	165.0072410106659	fix_pre	0		38.0	54.0	2.5	/experiments/knapen_aot/videos/R_S_ILSVRC2015_train_00682007.mp4	0.0	224.02809405326843	0.3166921138763428
56	165.3156452178955	response	0	2		54.0	2.5	/experiments/knapen_aot/videos/R_S_ILSVRC2015_train_00682007.mp4	0.0	224.33649826049805	
56	165.32393312454224	movie	1		300.0	54.0	2.5	/experiments/knapen_aot/videos/R_S_ILSVRC2015_train_00682007.mp4	0.0	224.34478616714478	2.5082900524139404
56	167.83222317695618	fix_post	2		12.0	54.0	2.5	/experiments/knapen_aot/videos/R_S_ILSVRC2015_train_00682007.mp4	0.0	226.85307621955872	0.09994792938232422
57	167.9321711063385	fix_pre	0		58.0	55.0	2.5	blank	1.0	226.95302414894104	0.48337602615356445
57	168.4072961807251	response	0	2		55.0	2.5	blank	1.0	227.42814922332764	
57	168.41554713249207	movie	1		301.0	55.0	2.5	blank	1.0	227.4364001750946	2.508336067199707
57	170.92388319969177	fix_post	2		12.0	55.0	2.5	blank	1.0	229.9447362422943	0.10000395774841309
58	171.02388715744019	fix_pre	0		31.0	56.0	2.5	/experiments/knapen_aot/videos/S_wc-DcFDe419cL3d_17.mp4	0.0	230.04474020004272	0.2583010196685791
58	171.27399802207947	response	0	2		56.0	2.5	/experiments/knapen_aot/videos/S_wc-DcFDe419cL3d_17.mp4	0.0	230.294851064682	
58	171.28218817710876	movie	1		163.0	56.0	2.5	/experiments/knapen_aot/videos/S_wc-DcFDe419cL3d_17.mp4	0.0	230.3030412197113	2.5083320140838623
58	173.79052019119263	fix_post	2		12.0	56.0	2.5	/experiments/knapen_aot/videos/S_wc-DcFDe419cL3d_17.mp4	0.0	232.81137323379517	0.09999990463256836
59	173.8905200958252	fix_pre	0		33.0	57.0	2.5	/experiments/knapen_aot/videos/S_yt-9t5-3Qe_t9A_591.mp4	0.0	232.91137313842773	0.27494192123413086
59	174.15737509727478	response	0	2		57.0	2.5	/experiments/knapen_aot/videos/S_yt-9t5-3Qe_t9A_591.mp4	0.0	233.17822813987732	
59	174.16546201705933	movie	1		301.0	57.0	2.5	/experiments/knapen_aot/videos/S_yt-9t5-3Qe_t9A_591.mp4	0.0	233.18631505966187	2.508329153060913
59	176.67379117012024	fix_post	2		12.0	57.0	2.5	/experiments/knapen_aot/videos/S_yt-9t5-3Qe_t9A_591.mp4	0.0	235.69464421272278	0.10005784034729004
60	176.77384901046753	fix_pre	0		41.0	58.0	2.5	/experiments/knapen_aot/videos/S_yt-Gc1p5CnDbDY_22.mp4	0.0	235.79470205307007	0.3416011333465576
60	177.10738921165466	response	0	2		58.0	2.5	/experiments/knapen_aot/videos/S_yt-Gc1p5CnDbDY_22.mp4	0.0	236.1282422542572	
60	177.1154501438141	movie	1		301.0	58.0	2.5	/experiments/knapen_aot/videos/S_yt-Gc1p5CnDbDY_22.mp4	0.0	236.13630318641663	2.508373975753784
60	179.62382411956787	fix_post	2		12.0	58.0	2.5	/experiments/knapen_aot/videos/S_yt-Gc1p5CnDbDY_22.mp4	0.0	238.6446771621704	0.10004091262817383
61	179.72386503219604	fix_pre	0		45.0	59.0	2.5	/experiments/knapen_aot/videos/R_S_yt-HFiRYTnMZxE_338.mp4	0.0	238.74471807479858	0.3758389949798584
61	180.0906901359558	response	0	2		59.0	2.5	/experiments/knapen_aot/videos/R_S_yt-HFiRYTnMZxE_338.mp4	0.0	239.11154317855835	
61	180.0997040271759	movie	1		301.0	59.0	2.5	/experiments/knapen_aot/videos/R_S_yt-HFiRYTnMZxE_338.mp4	0.0	239.12055706977844	2.5074360370635986
61	182.6071400642395	fix_post	2		12.0	59.0	2.5	/experiments/knapen_aot/videos/R_S_yt-HFiRYTnMZxE_338.mp4	0.0	241.62799310684204	0.1000361442565918
62	182.7071762084961	fix_pre	0		83.0	60.0	2.5	/experiments/knapen_aot/videos/S_yt-V4Oosy-ZtGY_193.mp4	0.0	241.72802925109863	0.6916048526763916
62	183.39066910743713	response	0	2		60.0	2.5	/experiments/knapen_aot/videos/S_yt-V4Oosy-ZtGY_193.mp4	0.0	242.41152215003967	
62	183.39878106117249	movie	1		301.0	60.0	2.5	/experiments/knapen_aot/videos/S_yt-V4Oosy-ZtGY_193.mp4	0.0	242.41963410377502	2.508392095565796
62	185.90717315673828	fix_post	2		12.0	60.0	2.5	/experiments/knapen_aot/videos/S_yt-V4Oosy-ZtGY_193.mp4	0.0	244.92802619934082	0.10005593299865723
63	186.00722908973694	fix_pre	0		42.0	61.0	2.5	blank	1.0	245.02808213233948	0.34990906715393066
63	186.34897899627686	response	0	2		61.0	2.5	blank	1.0	245.3698320388794	
63	186.35713815689087	movie	1		301.0	61.0	2.5	blank	1.0	245.3779911994934	2.5083088874816895
63	188.86544704437256	fix_post	2		12.0	61.0	2.5	blank	1.0	247.8863000869751	0.09996294975280762
64	188.96540999412537	fix_pre	0		47.0	62.0	2.5	/experiments/knapen_aot/videos/R_S_yt-Tt_LkR4iAt4_11.mp4	0.0	247.9862630367279	0.3916780948638916
64	189.34879302978516	response	0	2		62.0	2.5	/experiments/knapen_aot/videos/R_S_yt-Tt_LkR4iAt4_11.mp4	0.0	248.3696460723877	
64	189.35708808898926	movie	1		301.0	62.0	2.5	/experiments/knapen_aot/videos/R_S_yt-Tt_LkR4iAt4_11.mp4	0.0	248.3779411315918	2.508389949798584
64	191.86547803878784	fix_post	2		12.0	62.0	2.5	/experiments/knapen_aot/videos/R_S_yt-Tt_LkR4iAt4_11.mp4	0.0	250.88633108139038	0.09995698928833008
65	191.96543502807617	fix_pre	0		48.0	63.0	2.5	/experiments/knapen_aot/videos/S_ILSVRC2015_train_00363000.mp4	0.0	250.9862880706787	0.4000539779663086
65	192.35717821121216	response	0	2		63.0	2.5	/experiments/knapen_aot/videos/S_ILSVRC2015_train_00363000.mp4	0.0	251.3780312538147	
65	192.36548900604248	movie	1		299.0	63.0	2.5	/experiments/knapen_aot/videos/S_ILSVRC2015_train_00363000.mp4	0.0	251.38634204864502	2.5082831382751465
65	194.87377214431763	fix_post	2		12.0	63.0	2.5	/experiments/knapen_aot/videos/S_ILSVRC2015_train_00363000.mp4	0.0	253.89462518692017	0.09995484352111816
66	194.97372698783875	fix_pre	0		39.0	64.0	2.5	/experiments/knapen_aot/videos/S_yt-Ek1jcvett9E_33.mp4	0.0	253.99458003044128	0.3249490261077881
66	195.29056406021118	response	0	2		64.0	2.5	/experiments/knapen_aot/videos/S_yt-Ek1jcvett9E_33.mp4	0.0	254.31141710281372	
66	195.29867601394653	movie	1		301.0	64.0	2.5	/experiments/knapen_aot/videos/S_yt-Ek1jcvett9E_33.mp4	0.0	254.31952905654907	2.5084571838378906
66	197.80713319778442	fix_post	2		12.0	64.0	2.5	/experiments/knapen_aot/videos/S_yt-Ek1jcvett9E_33.mp4	0.0	256.82798624038696	0.09995293617248535
67	197.9070861339569	fix_pre	0		39.0	65.0	2.5	/experiments/knapen_aot/videos/R_S_pexels-mart-production-7698911.mp4	0.0	256.92793917655945	0.3248748779296875
67	198.22386813163757	response	0	2		65.0	2.5	/experiments/knapen_aot/videos/R_S_pexels-mart-production-7698911.mp4	0.0	257.2447211742401	
67	198.2319610118866	movie	1		193.0	65.0	2.5	/experiments/knapen_aot/videos/R_S_pexels-mart-production-7698911.mp4	0.0	257.25281405448914	2.5084052085876465
67	200.74036622047424	fix_post	2		12.0	65.0	2.5	/experiments/knapen_aot/videos/R_S_pexels-mart-production-7698911.mp4	0.0	259.7612192630768	0.09995889663696289
68	200.8403251171112	fix_pre	0		64.0	66.0	2.5	/experiments/knapen_aot/videos/R_S_pexels-ekaterina-bolovtsova-7669220.mp4	0.0	259.86117815971375	0.5333740711212158
68	201.3655002117157	response	0	2		66.0	2.5	/experiments/knapen_aot/videos/R_S_pexels-ekaterina-bolovtsova-7669220.mp4	0.0	260.38635325431824	
68	201.37369918823242	movie	1		164.0	66.0	2.5	/experiments/knapen_aot/videos/R_S_pexels-ekaterina-bolovtsova-7669220.mp4	0.0	260.39455223083496	2.50834584236145
68	203.88204503059387	fix_post	2		12.0	66.0	2.5	/experiments/knapen_aot/videos/R_S_pexels-ekaterina-bolovtsova-7669220.mp4	0.0	262.9028980731964	0.10000896453857422
69	203.98205399513245	fix_pre	0		34.0	67.0	2.5	/experiments/knapen_aot/videos/S_ILnEDG_aP1A_35.mp4	0.0	263.002907037735	0.28409504890441895
69	204.25713920593262	response	0	2		67.0	2.5	/experiments/knapen_aot/videos/S_ILnEDG_aP1A_35.mp4	0.0	263.27799224853516	
69	204.26614904403687	movie	1		301.0	67.0	2.5	/experiments/knapen_aot/videos/S_ILnEDG_aP1A_35.mp4	0.0	263.2870020866394	2.507472038269043
69	206.7736210823059	fix_post	2		12.0	67.0	2.5	/experiments/knapen_aot/videos/S_ILnEDG_aP1A_35.mp4	0.0	265.79447412490845	0.10004806518554688
70	206.87366914749146	fix_pre	0		52.0	68.0	2.5	/experiments/knapen_aot/videos/S_video_inspire_california_big-sur_bixby_005.1080-h264.mp4	0.0	265.894522190094	0.43410205841064453
70	207.29896020889282	response	0	2		68.0	2.5	/experiments/knapen_aot/videos/S_video_inspire_california_big-sur_bixby_005.1080-h264.mp4	0.0	266.31981325149536	
70	207.3077712059021	movie	1		167.0	68.0	2.5	/experiments/knapen_aot/videos/S_video_inspire_california_big-sur_bixby_005.1080-h264.mp4	0.0	266.32862424850464	2.507617950439453
70	209.81538915634155	fix_post	2		12.0	68.0	2.5	/experiments/knapen_aot/videos/S_video_inspire_california_big-sur_bixby_005.1080-h264.mp4	0.0	268.8362421989441	0.0999908447265625
71	209.91538000106812	fix_pre	0		35.0	69.0	2.5	/experiments/knapen_aot/videos/S_ILSVRC2015_train_00001009.mp4	0.0	268.93623304367065	0.29165005683898926
71	210.19885420799255	response	0	2		69.0	2.5	/experiments/knapen_aot/videos/S_ILSVRC2015_train_00001009.mp4	0.0	269.2197072505951	
71	210.2070300579071	movie	1		301.0	69.0	2.5	/experiments/knapen_aot/videos/S_ILSVRC2015_train_00001009.mp4	0.0	269.22788310050964	2.5083611011505127
71	212.71539115905762	fix_post	2		12.0	69.0	2.5	/experiments/knapen_aot/videos/S_ILSVRC2015_train_00001009.mp4	0.0	271.73624420166016	0.09997892379760742
72	212.81537008285522	fix_pre	0		38.0	70.0	2.5	blank	1.0	271.83622312545776	0.3166351318359375
72	213.12384510040283	response	0	2		70.0	2.5	blank	1.0	272.14469814300537	
72	213.13200521469116	movie	1		301.0	70.0	2.5	blank	1.0	272.1528582572937	2.508307933807373
72	215.64031314849854	fix_post	2		12.0	70.0	2.5	blank	1.0	274.6611661911011	0.1000669002532959
73	215.74038004875183	fix_pre	0		55.0	71.0	2.5	/experiments/knapen_aot/videos/R_S_yt-6KJ_yZR-Jco_14.mp4	0.0	274.76123309135437	0.4582960605621338
73	216.1904091835022	response	0	2		71.0	2.5	/experiments/knapen_aot/videos/R_S_yt-6KJ_yZR-Jco_14.mp4	0.0	275.21126222610474	
73	216.19867610931396	movie	1		297.0	71.0	2.5	/experiments/knapen_aot/videos/R_S_yt-6KJ_yZR-Jco_14.mp4	0.0	275.2195291519165	2.508315086364746
73	218.7069911956787	fix_post	2		12.0	71.0	2.5	/experiments/knapen_aot/videos/R_S_yt-6KJ_yZR-Jco_14.mp4	0.0	277.72784423828125	0.0999898910522461
74	218.80698108673096	fix_pre	0		37.0	72.0	2.5	/experiments/knapen_aot/videos/S_ILSVRC2015_train_00556000.mp4	0.0	277.8278341293335	0.3083200454711914
74	219.0996220111847	response	0	2		72.0	2.5	/experiments/knapen_aot/videos/S_ILSVRC2015_train_00556000.mp4	0.0	278.12047505378723	
74	219.11530113220215	movie	1		301.0	72.0	2.5	/experiments/knapen_aot/videos/S_ILSVRC2015_train_00556000.mp4	0.0	278.1361541748047	2.5083558559417725
74	221.62365698814392	fix_post	2		12.0	72.0	2.5	/experiments/knapen_aot/videos/S_ILSVRC2015_train_00556000.mp4	0.0	280.64451003074646	0.09992313385009766
75	221.72358012199402	fix_pre	0		39.0	73.0	2.5	/experiments/knapen_aot/videos/S_ILSVRC2015_train_00322000.mp4	0.0	280.74443316459656	0.32718992233276367
75	222.04042220115662	response	0	2		73.0	2.5	/experiments/knapen_aot/videos/S_ILSVRC2015_train_00322000.mp4	0.0	281.06127524375916	
75	222.05077004432678	movie	1		301.0	73.0	2.5	/experiments/knapen_aot/videos/S_ILSVRC2015_train_00322000.mp4	0.0	281.0716230869293	2.5062191486358643
75	224.55698919296265	fix_post	2		12.0	73.0	2.5	/experiments/knapen_aot/videos/S_ILSVRC2015_train_00322000.mp4	0.0	283.5778422355652	0.10001587867736816
76	224.65700507164001	fix_pre	0		45.0	74.0	2.5	/experiments/knapen_aot/videos/S_wc-_W9iefBXz8bi_23.mp4	0.0	283.67785811424255	0.3749539852142334
76	225.02381110191345	response	0	2		74.0	2.5	/experiments/knapen_aot/videos/S_wc-_W9iefBXz8bi_23.mp4	0.0	284.044664144516	
76	225.03195905685425	movie	1		165.0	74.0	2.5	/experiments/knapen_aot/videos/S_wc-_W9iefBXz8bi_23.mp4	0.0	284.0528120994568	2.5083510875701904
76	227.54031014442444	fix_post	2		12.0	74.0	2.5	/experiments/knapen_aot/videos/S_wc-_W9iefBXz8bi_23.mp4	0.0	286.561163187027	0.10069799423217773
77	227.64100813865662	fix_pre	0		28.0	75.0	2.5	blank	1.0	286.66186118125916	0.2327568531036377
77	227.85785818099976	response	0	2		75.0	2.5	blank	1.0	286.8787112236023	
77	227.87376499176025	movie	1		301.0	75.0	2.5	blank	1.0	286.8946180343628	2.508200168609619
77	230.38196516036987	fix_post	2		12.0	75.0	2.5	blank	1.0	289.4028182029724	0.09996795654296875
78	230.48193311691284	fix_pre	0		55.0	76.0	2.5	/experiments/knapen_aot/videos/S_zAKvYNtmhuc_772.mp4	0.0	289.5027861595154	0.45836901664733887
78	230.93219017982483	response	0	2		76.0	2.5	/experiments/knapen_aot/videos/S_zAKvYNtmhuc_772.mp4	0.0	289.95304322242737	
78	230.94030213356018	movie	1		301.0	76.0	2.5	/experiments/knapen_aot/videos/S_zAKvYNtmhuc_772.mp4	0.0	289.9611551761627	2.508281946182251
78	233.44858407974243	fix_post	2		12.0	76.0	2.5	/experiments/knapen_aot/videos/S_zAKvYNtmhuc_772.mp4	0.0	292.46943712234497	0.10003995895385742
79	233.5486240386963	fix_pre	0		34.0	77.0	2.5	/experiments/knapen_aot/videos/S_comp_CH_C002_C005_PSNK_v05_SDR_PS_FINAL_20180709_SDR_2K_AVC.mp4	0.0	292.5694770812988	0.2832660675048828
79	233.8237600326538	response	0	2		77.0	2.5	/experiments/knapen_aot/videos/S_comp_CH_C002_C005_PSNK_v05_SDR_PS_FINAL_20180709_SDR_2K_AVC.mp4	0.0	292.84461307525635	
79	233.83189010620117	movie	1		174.0	77.0	2.5	/experiments/knapen_aot/videos/S_comp_CH_C002_C005_PSNK_v05_SDR_PS_FINAL_20180709_SDR_2K_AVC.mp4	0.0	292.8527431488037	2.50846004486084
79	236.340350151062	fix_post	2		12.0	77.0	2.5	/experiments/knapen_aot/videos/S_comp_CH_C002_C005_PSNK_v05_SDR_PS_FINAL_20180709_SDR_2K_AVC.mp4	0.0	295.36120319366455	0.09992504119873047
80	236.44027519226074	fix_pre	0		36.0	78.0	2.5	/experiments/knapen_aot/videos/S_yt-zKnjBBYWe90_369.mp4	0.0	295.4611282348633	0.30000901222229004
80	236.73212218284607	response	0	2		78.0	2.5	/experiments/knapen_aot/videos/S_yt-zKnjBBYWe90_369.mp4	0.0	295.7529752254486	
80	236.74028420448303	movie	1		300.0	78.0	2.5	/experiments/knapen_aot/videos/S_yt-zKnjBBYWe90_369.mp4	0.0	295.76113724708557	2.508330821990967
80	239.248615026474	fix_post	2		12.0	78.0	2.5	/experiments/knapen_aot/videos/S_yt-zKnjBBYWe90_369.mp4	0.0	298.26946806907654	0.0999901294708252
81	239.34860515594482	fix_pre	0		39.0	79.0	2.5	/experiments/knapen_aot/videos/R_S_video_inspire_alabama_montgomery_countryside_00007.1080-h264.mp4	0.0	298.36945819854736	0.3249819278717041
81	239.6653881072998	response	0	2		79.0	2.5	/experiments/knapen_aot/videos/R_S_video_inspire_alabama_montgomery_countryside_00007.1080-h264.mp4	0.0	298.68624114990234	
81	239.67358708381653	movie	1		167.0	79.0	2.5	/experiments/knapen_aot/videos/R_S_video_inspire_alabama_montgomery_countryside_00007.1080-h264.mp4	0.0	298.69444012641907	2.5083229541778564
81	242.18191003799438	fix_post	2		12.0	79.0	2.5	/experiments/knapen_aot/videos/R_S_video_inspire_alabama_montgomery_countryside_00007.1080-h264.mp4	0.0	301.2027630805969	0.09999513626098633
82	242.28190517425537	fix_pre	0		45.0	80.0	2.5	/experiments/knapen_aot/videos/S_pexels-kelly-lacy-6756531.mp4	0.0	301.3027582168579	0.3749580383300781
82	242.64866399765015	response	0	2		80.0	2.5	/experiments/knapen_aot/videos/S_pexels-kelly-lacy-6756531.mp4	0.0	301.6695170402527	
82	242.65686321258545	movie	1		169.0	80.0	2.5	/experiments/knapen_aot/videos/S_pexels-kelly-lacy-6756531.mp4	0.0	301.677716255188	2.5083329677581787
82	245.16519618034363	fix_post	2		12.0	80.0	2.5	/experiments/knapen_aot/videos/S_pexels-kelly-lacy-6756531.mp4	0.0	304.18604922294617	0.09994292259216309
83	245.2651391029358	fix_pre	0		42.0	81.0	2.5	/experiments/knapen_aot/videos/R_S_yt-WrwPgZYBXlA_34.mp4	0.0	304.28599214553833	0.35004210472106934
83	245.60698318481445	response	0	2		81.0	2.5	/experiments/knapen_aot/videos/R_S_yt-WrwPgZYBXlA_34.mp4	0.0	304.627836227417	
83	245.61518120765686	movie	1		301.0	81.0	2.5	/experiments/knapen_aot/videos/R_S_yt-WrwPgZYBXlA_34.mp4	0.0	304.6360342502594	2.508309841156006
83	248.12349104881287	fix_post	2		12.0	81.0	2.5	/experiments/knapen_aot/videos/R_S_yt-WrwPgZYBXlA_34.mp4	0.0	307.1443440914154	0.10001397132873535
84	248.2235050201416	fix_pre	0		68.0	82.0	2.5	blank	1.0	307.24435806274414	0.5666801929473877
84	248.78192615509033	response	0	2		82.0	2.5	blank	1.0	307.80277919769287	
84	248.790185213089	movie	1		301.0	82.0	2.5	blank	1.0	307.8110382556915	2.5083107948303223
84	251.2984960079193	fix_post	2		12.0	82.0	2.5	blank	1.0	310.31934905052185	0.10003304481506348
85	251.39852905273438	fix_pre	0		48.0	83.0	2.5	/experiments/knapen_aot/videos/R_S_yt-3NMDWrZr1Z4_255.mp4	0.0	310.4193820953369	0.3999929428100586
85	251.79032802581787	response	0	2		83.0	2.5	/experiments/knapen_aot/videos/R_S_yt-3NMDWrZr1Z4_255.mp4	0.0	310.8111810684204	
85	251.79852199554443	movie	1		301.0	83.0	2.5	/experiments/knapen_aot/videos/R_S_yt-3NMDWrZr1Z4_255.mp4	0.0	310.819375038147	2.508364200592041
85	254.30688619613647	fix_post	2		12.0	83.0	2.5	/experiments/knapen_aot/videos/R_S_yt-3NMDWrZr1Z4_255.mp4	0.0	313.327739238739	0.10001683235168457
87	254.40690302848816	stim	0		308.0					313.4277560710907	2.567131996154785
87	256.9690601825714	response	0	space						315.98991322517395	
