trial_nr	onset	event_type	phase	response	nr_frames	movie_index	movie_duration	movie_file	blank	onset_abs	duration
0	0.15477585792541504	stim	0		36.0					89.20003080368042	0.3052361011505127
0	0.4500699043273926	response	0	space						89.4953248500824	
1	0.46001195907592773	stim	0		121.0					89.50526690483093	1.006148099899292
1	1.424659013748169	response	0	space						90.46991395950317	
1	1.4661600589752197	stim	1		120.0					90.51141500473022	1.0005719661712646
1	1.916290044784546	response	1	space						90.96154499053955	
1	2.4079840183258057	response	1	space						91.45323896408081	
2	2.4667320251464844	fix_pre	0		1.0	0.0	2.5	/experiments/knapen_aot/videos/S_yt-tQ-hgwTcMqU_43.mp4	0.0	91.51198697090149	0.01685786247253418
2	2.473662853240967	response	0	4		0.0	2.5	/experiments/knapen_aot/videos/S_yt-tQ-hgwTcMqU_43.mp4	0.0	91.51891779899597	
2	2.4835898876190186	movie	1		300.0	0.0	2.5	/experiments/knapen_aot/videos/S_yt-tQ-hgwTcMqU_43.mp4	0.0	91.52884483337402	2.5075440406799316
2	4.99113392829895	fix_post	2		12.0	0.0	2.5	/experiments/knapen_aot/videos/S_yt-tQ-hgwTcMqU_43.mp4	0.0	94.03638887405396	0.10007309913635254
3	5.091207027435303	fix_pre	0		28.0	1.0	2.5	/experiments/knapen_aot/videos/R_S_I003_C004_SDR_2K_AVC.mp4	0.0	94.13646197319031	0.23334884643554688
3	5.316341876983643	response	0	4		1.0	2.5	/experiments/knapen_aot/videos/R_S_I003_C004_SDR_2K_AVC.mp4	0.0	94.36159682273865	
3	5.32455587387085	movie	1		168.0	1.0	2.5	/experiments/knapen_aot/videos/R_S_I003_C004_SDR_2K_AVC.mp4	0.0	94.36981081962585	2.5082290172576904
3	7.83278489112854	fix_post	2		12.0	1.0	2.5	/experiments/knapen_aot/videos/R_S_I003_C004_SDR_2K_AVC.mp4	0.0	96.87803983688354	0.10004711151123047
4	7.9328320026397705	fix_pre	0		13.0	2.0	2.5	/experiments/knapen_aot/videos/R_S_yt-bQRBtP9zkms_111.mp4	0.0	96.97808694839478	0.108306884765625
4	8.032871961593628	response	0	4		2.0	2.5	/experiments/knapen_aot/videos/R_S_yt-bQRBtP9zkms_111.mp4	0.0	97.07812690734863	
4	8.041138887405396	movie	1		301.0	2.0	2.5	/experiments/knapen_aot/videos/R_S_yt-bQRBtP9zkms_111.mp4	0.0	97.0863938331604	2.5083510875701904
4	10.549489974975586	fix_post	2		12.0	2.0	2.5	/experiments/knapen_aot/videos/R_S_yt-bQRBtP9zkms_111.mp4	0.0	99.59474492073059	0.10002708435058594
5	10.649517059326172	fix_pre	0		58.0	3.0	2.5	/experiments/knapen_aot/videos/R_S_yt-8fQ9LaF8U10_382.mp4	0.0	99.69477200508118	0.4837338924407959
5	11.124671936035156	response	0	4		3.0	2.5	/experiments/knapen_aot/videos/R_S_yt-8fQ9LaF8U10_382.mp4	0.0	100.16992688179016	
5	11.133250951766968	movie	1		301.0	3.0	2.5	/experiments/knapen_aot/videos/R_S_yt-8fQ9LaF8U10_382.mp4	0.0	100.17850589752197	2.507884979248047
5	13.641135931015015	fix_post	2		12.0	3.0	2.5	/experiments/knapen_aot/videos/R_S_yt-8fQ9LaF8U10_382.mp4	0.0	102.68639087677002	0.09996509552001953
6	13.741101026535034	fix_pre	0		31.0	4.0	2.5	/experiments/knapen_aot/videos/R_S_yt-BrepyEWKrPQ_20.mp4	0.0	102.78635597229004	0.25836682319641113
6	13.991294860839844	response	0	4		4.0	2.5	/experiments/knapen_aot/videos/R_S_yt-BrepyEWKrPQ_20.mp4	0.0	103.03654980659485	
6	13.999467849731445	movie	1		301.0	4.0	2.5	/experiments/knapen_aot/videos/R_S_yt-BrepyEWKrPQ_20.mp4	0.0	103.04472279548645	2.508392095565796
6	16.50785994529724	fix_post	2		12.0	4.0	2.5	/experiments/knapen_aot/videos/R_S_yt-BrepyEWKrPQ_20.mp4	0.0	105.55311489105225	0.09992003440856934
7	16.60777997970581	fix_pre	0		124.0	5.0	2.5	/experiments/knapen_aot/videos/R_S_yt-26obL-Z5obg_131.mp4	0.0	105.65303492546082	1.0333528518676758
7	17.632959842681885	response	0	4		5.0	2.5	/experiments/knapen_aot/videos/R_S_yt-26obL-Z5obg_131.mp4	0.0	106.67821478843689	
7	17.641132831573486	movie	1		301.0	5.0	2.5	/experiments/knapen_aot/videos/R_S_yt-26obL-Z5obg_131.mp4	0.0	106.68638777732849	2.508334159851074
7	20.14946699142456	fix_post	2		12.0	5.0	2.5	/experiments/knapen_aot/videos/R_S_yt-26obL-Z5obg_131.mp4	0.0	109.19472193717957	0.09996700286865234
8	20.249433994293213	fix_pre	0		29.0	6.0	2.5	blank	1.0	109.29468894004822	0.24173402786254883
8	20.48296594619751	response	0	4		6.0	2.5	blank	1.0	109.52822089195251	
8	20.49116802215576	movie	1		301.0	6.0	2.5	blank	1.0	109.53642296791077	2.5083179473876953
8	22.641247987747192	response	1	4		6.0	2.5	blank	1.0	111.6865029335022	
8	22.999485969543457	fix_post	2		12.0	6.0	2.5	blank	1.0	112.04474091529846	0.1000518798828125
9	23.09953784942627	fix_pre	0		59.0	7.0	2.5	/experiments/knapen_aot/videos/R_S_yt-MyL1VlXiZa4_25.mp4	0.0	112.14479279518127	0.49195408821105957
9	23.58285903930664	response	0	4		7.0	2.5	/experiments/knapen_aot/videos/R_S_yt-MyL1VlXiZa4_25.mp4	0.0	112.62811398506165	
9	23.59149193763733	movie	1		301.0	7.0	2.5	/experiments/knapen_aot/videos/R_S_yt-MyL1VlXiZa4_25.mp4	0.0	112.63674688339233	2.5079710483551025
9	26.09946298599243	fix_post	2		12.0	7.0	2.5	/experiments/knapen_aot/videos/R_S_yt-MyL1VlXiZa4_25.mp4	0.0	115.14471793174744	0.0998680591583252
10	26.199331045150757	fix_pre	0		13.0	8.0	2.5	/experiments/knapen_aot/videos/S_SPNvf6JCjGw_123.mp4	0.0	115.24458599090576	0.10834479331970215
10	26.29952883720398	response	0	4		8.0	2.5	/experiments/knapen_aot/videos/S_SPNvf6JCjGw_123.mp4	0.0	115.34478378295898	
10	26.30767583847046	movie	1		301.0	8.0	2.5	/experiments/knapen_aot/videos/S_SPNvf6JCjGw_123.mp4	0.0	115.35293078422546	2.5084691047668457
10	28.816144943237305	fix_post	2		12.0	8.0	2.5	/experiments/knapen_aot/videos/S_SPNvf6JCjGw_123.mp4	0.0	117.86139988899231	0.09993505477905273
11	28.916079998016357	fix_pre	0		120.0	9.0	2.5	/experiments/knapen_aot/videos/S_yt-JVhfcpV7OaY_71.mp4	0.0	117.96133494377136	0.9999468326568604
11	29.9079110622406	response	0	4		9.0	2.5	/experiments/knapen_aot/videos/S_yt-JVhfcpV7OaY_71.mp4	0.0	118.9531660079956	
11	29.916026830673218	movie	1		300.0	9.0	2.5	/experiments/knapen_aot/videos/S_yt-JVhfcpV7OaY_71.mp4	0.0	118.96128177642822	2.5083811283111572
11	32.424407958984375	fix_post	2		12.0	9.0	2.5	/experiments/knapen_aot/videos/S_yt-JVhfcpV7OaY_71.mp4	0.0	121.46966290473938	0.09998202323913574
12	32.52438998222351	fix_pre	0		253.0	10.0	2.5	/experiments/knapen_aot/videos/S_yt-jy96-k8drRE_1.mp4	0.0	121.56964492797852	2.1086299419403076
12	34.62446999549866	response	0	4		10.0	2.5	/experiments/knapen_aot/videos/S_yt-jy96-k8drRE_1.mp4	0.0	123.66972494125366	
12	34.63301992416382	movie	1		301.0	10.0	2.5	/experiments/knapen_aot/videos/S_yt-jy96-k8drRE_1.mp4	0.0	123.67827486991882	2.5079760551452637
12	37.14099597930908	fix_post	2		12.0	10.0	2.5	/experiments/knapen_aot/videos/S_yt-jy96-k8drRE_1.mp4	0.0	126.18625092506409	0.10011696815490723
13	37.24111294746399	fix_pre	0		16.0	11.0	2.5	/experiments/knapen_aot/videos/R_S_yt-z16pdVTZK1o_3.mp4	0.0	126.286367893219	0.1332249641418457
13	37.36626982688904	response	0	4		11.0	2.5	/experiments/knapen_aot/videos/R_S_yt-z16pdVTZK1o_3.mp4	0.0	126.41152477264404	
13	37.374337911605835	movie	1		298.0	11.0	2.5	/experiments/knapen_aot/videos/R_S_yt-z16pdVTZK1o_3.mp4	0.0	126.41959285736084	2.5083680152893066
13	39.88270592689514	fix_post	2		12.0	11.0	2.5	/experiments/knapen_aot/videos/R_S_yt-z16pdVTZK1o_3.mp4	0.0	128.92796087265015	0.10002493858337402
14	39.982730865478516	fix_pre	0		37.0	12.0	2.5	blank	1.0	129.02798581123352	0.30826807022094727
14	40.2828688621521	response	0	4		12.0	2.5	blank	1.0	129.3281238079071	
14	40.29099893569946	movie	1		301.0	12.0	2.5	blank	1.0	129.33625388145447	2.5083720684051514
14	42.799371004104614	fix_post	2		12.0	12.0	2.5	blank	1.0	131.84462594985962	0.09991192817687988
15	42.899282932281494	fix_pre	0		36.0	13.0	2.5	/experiments/knapen_aot/videos/S_pexels-rodnae-productions-5993237.mp4	0.0	131.9445378780365	0.3000509738922119
15	43.18356990814209	response	0	4		13.0	2.5	/experiments/knapen_aot/videos/S_pexels-rodnae-productions-5993237.mp4	0.0	132.2288248538971	
15	43.199333906173706	movie	1		166.0	13.0	2.5	/experiments/knapen_aot/videos/S_pexels-rodnae-productions-5993237.mp4	0.0	132.2445888519287	2.5083611011505127
15	45.70769500732422	fix_post	2		12.0	13.0	2.5	/experiments/knapen_aot/videos/S_pexels-rodnae-productions-5993237.mp4	0.0	134.75294995307922	0.09998297691345215
16	45.80767798423767	fix_pre	0		24.0	14.0	2.5	/experiments/knapen_aot/videos/S_yt-bwSRV1Vr21s_435.mp4	0.0	134.85293292999268	0.20022296905517578
16	45.99951887130737	response	0	4		14.0	2.5	/experiments/knapen_aot/videos/S_yt-bwSRV1Vr21s_435.mp4	0.0	135.04477381706238	
16	46.00790095329285	movie	1		301.0	14.0	2.5	/experiments/knapen_aot/videos/S_yt-bwSRV1Vr21s_435.mp4	0.0	135.05315589904785	2.5080490112304688
16	48.515949964523315	fix_post	2		12.0	14.0	2.5	/experiments/knapen_aot/videos/S_yt-bwSRV1Vr21s_435.mp4	0.0	137.56120491027832	0.10000801086425781
17	48.61595797538757	fix_pre	0		29.0	15.0	2.5	/experiments/knapen_aot/videos/R_S_yt-r7PeFd-hIp0_378.mp4	0.0	137.66121292114258	0.24163389205932617
17	48.84943699836731	response	0	4		15.0	2.5	/experiments/knapen_aot/videos/R_S_yt-r7PeFd-hIp0_378.mp4	0.0	137.89469194412231	
17	48.8575918674469	movie	1		298.0	15.0	2.5	/experiments/knapen_aot/videos/R_S_yt-r7PeFd-hIp0_378.mp4	0.0	137.9028468132019	2.5083470344543457
17	51.365938901901245	fix_post	2		12.0	15.0	2.5	/experiments/knapen_aot/videos/R_S_yt-r7PeFd-hIp0_378.mp4	0.0	140.41119384765625	0.10032296180725098
18	51.466261863708496	fix_pre	0		72.0	16.0	2.5	/experiments/knapen_aot/videos/R_S_yt-f9iXELY0EJ0_344.mp4	0.0	140.5115168094635	0.5997200012207031
18	52.0503089427948	response	0	4		16.0	2.5	/experiments/knapen_aot/videos/R_S_yt-f9iXELY0EJ0_344.mp4	0.0	141.0955638885498	
18	52.0659818649292	movie	1		301.0	16.0	2.5	/experiments/knapen_aot/videos/R_S_yt-f9iXELY0EJ0_344.mp4	0.0	141.1112368106842	2.5082671642303467
18	54.574249029159546	fix_post	2		12.0	16.0	2.5	/experiments/knapen_aot/videos/R_S_yt-f9iXELY0EJ0_344.mp4	0.0	143.61950397491455	0.10025882720947266
19	54.67450785636902	fix_pre	0		27.0	17.0	2.5	/experiments/knapen_aot/videos/R_S_ILSVRC2015_train_00274003.mp4	0.0	143.71976280212402	0.2247610092163086
19	54.88366198539734	response	0	4		17.0	2.5	/experiments/knapen_aot/videos/R_S_ILSVRC2015_train_00274003.mp4	0.0	143.92891693115234	
19	54.89926886558533	movie	1		301.0	17.0	2.5	/experiments/knapen_aot/videos/R_S_ILSVRC2015_train_00274003.mp4	0.0	143.94452381134033	2.5083060264587402
19	57.40757489204407	fix_post	2		12.0	17.0	2.5	/experiments/knapen_aot/videos/R_S_ILSVRC2015_train_00274003.mp4	0.0	146.45282983779907	0.10030698776245117
20	57.50788187980652	fix_pre	0		36.0	18.0	2.5	/experiments/knapen_aot/videos/S_yt-q9kT_c9QjbQ_34.mp4	0.0	146.55313682556152	0.2996971607208252
20	57.7993688583374	response	0	4		18.0	2.5	/experiments/knapen_aot/videos/S_yt-q9kT_c9QjbQ_34.mp4	0.0	146.8446238040924	
20	57.807579040527344	movie	1		301.0	18.0	2.5	/experiments/knapen_aot/videos/S_yt-q9kT_c9QjbQ_34.mp4	0.0	146.85283398628235	2.5083730220794678
20	60.31595206260681	fix_post	2		12.0	18.0	2.5	/experiments/knapen_aot/videos/S_yt-q9kT_c9QjbQ_34.mp4	0.0	149.36120700836182	0.09993195533752441
21	60.415884017944336	fix_pre	0		28.0	19.0	2.5	/experiments/knapen_aot/videos/R_S_yt-RVoC19C420Y_27.mp4	0.0	149.46113896369934	0.233353853225708
21	60.64109396934509	response	0	4		19.0	2.5	/experiments/knapen_aot/videos/R_S_yt-RVoC19C420Y_27.mp4	0.0	149.6863489151001	
21	60.649237871170044	movie	1		301.0	19.0	2.5	/experiments/knapen_aot/videos/R_S_yt-RVoC19C420Y_27.mp4	0.0	149.69449281692505	2.5083770751953125
21	63.157614946365356	fix_post	2		12.0	19.0	2.5	/experiments/knapen_aot/videos/R_S_yt-RVoC19C420Y_27.mp4	0.0	152.20286989212036	0.10010910034179688
22	63.25772404670715	fix_pre	0		23.0	20.0	2.5	/experiments/knapen_aot/videos/R_S_yt-AOP7QYQntPI_28.mp4	0.0	152.30297899246216	0.19150280952453613
22	63.44099998474121	response	0	4		20.0	2.5	/experiments/knapen_aot/videos/R_S_yt-AOP7QYQntPI_28.mp4	0.0	152.48625493049622	
22	63.44922685623169	movie	1		301.0	20.0	2.5	/experiments/knapen_aot/videos/R_S_yt-AOP7QYQntPI_28.mp4	0.0	152.4944818019867	2.508402109146118
22	65.95762896537781	fix_post	2		12.0	20.0	2.5	/experiments/knapen_aot/videos/R_S_yt-AOP7QYQntPI_28.mp4	0.0	155.0028839111328	0.10000109672546387
23	66.05763006210327	fix_pre	0		15.0	21.0	2.5	blank	1.0	155.10288500785828	0.12496089935302734
23	66.17443585395813	response	0	4		21.0	2.5	blank	1.0	155.21969079971313	
23	66.1825909614563	movie	1		301.0	21.0	2.5	blank	1.0	155.2278459072113	2.508333921432495
23	68.6909248828888	fix_post	2		12.0	21.0	2.5	blank	1.0	157.7361798286438	0.09994196891784668
24	68.79086685180664	fix_pre	0		48.0	22.0	2.5	/experiments/knapen_aot/videos/S_yt-rIQoRErqnlI_17.mp4	0.0	157.83612179756165	0.3999509811401367
24	69.18274402618408	response	0	4		22.0	2.5	/experiments/knapen_aot/videos/S_yt-rIQoRErqnlI_17.mp4	0.0	158.2279989719391	
24	69.19081783294678	movie	1		301.0	22.0	2.5	/experiments/knapen_aot/videos/S_yt-rIQoRErqnlI_17.mp4	0.0	158.23607277870178	2.5083670616149902
24	71.69918489456177	fix_post	2		12.0	22.0	2.5	/experiments/knapen_aot/videos/S_yt-rIQoRErqnlI_17.mp4	0.0	160.74443984031677	0.10017204284667969
25	71.79935693740845	fix_pre	0		59.0	23.0	2.5	/experiments/knapen_aot/videos/R_S_yt-r7PeFd-hIp0_378.mp4	0.0	160.84461188316345	0.491473913192749
25	72.28269696235657	response	0	4		23.0	2.5	/experiments/knapen_aot/videos/R_S_yt-r7PeFd-hIp0_378.mp4	0.0	161.32795190811157	
25	72.2908308506012	movie	1		298.0	23.0	2.5	/experiments/knapen_aot/videos/R_S_yt-r7PeFd-hIp0_378.mp4	0.0	161.3360857963562	2.508463144302368
25	74.79929399490356	fix_post	2		12.0	23.0	2.5	/experiments/knapen_aot/videos/R_S_yt-r7PeFd-hIp0_378.mp4	0.0	163.84454894065857	0.09991884231567383
26	74.89921283721924	fix_pre	0		73.0	24.0	2.5	/experiments/knapen_aot/videos/S_pexels-anthony-shkraba-7569650.mp4	0.0	163.94446778297424	0.6084330081939697
26	75.49934983253479	response	0	4		24.0	2.5	/experiments/knapen_aot/videos/S_pexels-anthony-shkraba-7569650.mp4	0.0	164.5446047782898	
26	75.50764584541321	movie	1		177.0	24.0	2.5	/experiments/knapen_aot/videos/S_pexels-anthony-shkraba-7569650.mp4	0.0	164.5529007911682	2.508280038833618
26	78.01592588424683	fix_post	2		12.0	24.0	2.5	/experiments/knapen_aot/videos/S_pexels-anthony-shkraba-7569650.mp4	0.0	167.06118083000183	0.09994697570800781
27	78.11587285995483	fix_pre	0		28.0	25.0	2.5	/experiments/knapen_aot/videos/S_yt-BQixB0mumIk_169.mp4	0.0	167.16112780570984	0.23328709602355957
27	78.34095692634583	response	0	4		25.0	2.5	/experiments/knapen_aot/videos/S_yt-BQixB0mumIk_169.mp4	0.0	167.38621187210083	
27	78.3491599559784	movie	1		301.0	25.0	2.5	/experiments/knapen_aot/videos/S_yt-BQixB0mumIk_169.mp4	0.0	167.3944149017334	2.50838303565979
27	80.85754299163818	fix_post	2		12.0	25.0	2.5	/experiments/knapen_aot/videos/S_yt-BQixB0mumIk_169.mp4	0.0	169.9027979373932	0.1000058650970459
28	80.95754885673523	fix_pre	0		126.0	26.0	2.5	/experiments/knapen_aot/videos/S_yt-zgimmOcW5Mc_127.mp4	0.0	170.00280380249023	1.0500061511993408
28	81.99933695793152	response	0	4		26.0	2.5	/experiments/knapen_aot/videos/S_yt-zgimmOcW5Mc_127.mp4	0.0	171.04459190368652	
28	82.00755500793457	movie	1		301.0	26.0	2.5	/experiments/knapen_aot/videos/S_yt-zgimmOcW5Mc_127.mp4	0.0	171.05280995368958	2.508254051208496
28	84.51580905914307	fix_post	2		12.0	26.0	2.5	/experiments/knapen_aot/videos/S_yt-zgimmOcW5Mc_127.mp4	0.0	173.56106400489807	0.10006093978881836
29	84.61586999893188	fix_pre	0		20.0	27.0	2.5	blank	1.0	173.6611249446869	0.16666889190673828
29	84.77428197860718	response	0	4		27.0	2.5	blank	1.0	173.81953692436218	
29	84.78253889083862	movie	1		301.0	27.0	2.5	blank	1.0	173.82779383659363	2.508301019668579
29	87.2908399105072	fix_post	2		12.0	27.0	2.5	blank	1.0	176.3360948562622	0.09992313385009766
30	87.3907630443573	fix_pre	0		47.0	28.0	2.5	/experiments/knapen_aot/videos/S_production_ID_4360158.mp4	0.0	176.4360179901123	0.3917229175567627
30	87.77429485321045	response	0	4		28.0	2.5	/experiments/knapen_aot/videos/S_production_ID_4360158.mp4	0.0	176.81954979896545	
30	87.78248596191406	movie	1		161.0	28.0	2.5	/experiments/knapen_aot/videos/S_production_ID_4360158.mp4	0.0	176.82774090766907	2.5084140300750732
30	90.29089999198914	fix_post	2		12.0	28.0	2.5	/experiments/knapen_aot/videos/S_production_ID_4360158.mp4	0.0	179.33615493774414	0.10012197494506836
31	90.3910219669342	fix_pre	0		15.0	29.0	2.5	/experiments/knapen_aot/videos/R_S_ILSVRC2015_train_00425000.mp4	0.0	179.4362769126892	0.12477898597717285
31	90.50756502151489	response	0	4		29.0	2.5	/experiments/knapen_aot/videos/R_S_ILSVRC2015_train_00425000.mp4	0.0	179.5528199672699	
31	90.51580095291138	movie	1		301.0	29.0	2.5	/experiments/knapen_aot/videos/R_S_ILSVRC2015_train_00425000.mp4	0.0	179.56105589866638	2.50838303565979
31	93.02418398857117	fix_post	2		12.0	29.0	2.5	/experiments/knapen_aot/videos/R_S_ILSVRC2015_train_00425000.mp4	0.0	182.06943893432617	0.09992504119873047
32	93.1241090297699	fix_pre	0		66.0	30.0	2.5	/experiments/knapen_aot/videos/R_S_yt-CZ2qiY-kS7Y_105.mp4	0.0	182.1693639755249	0.5500049591064453
32	93.66596388816833	response	0	4		30.0	2.5	/experiments/knapen_aot/videos/R_S_yt-CZ2qiY-kS7Y_105.mp4	0.0	182.71121883392334	
32	93.67411398887634	movie	1		301.0	30.0	2.5	/experiments/knapen_aot/videos/R_S_yt-CZ2qiY-kS7Y_105.mp4	0.0	182.71936893463135	2.508417844772339
32	96.18253183364868	fix_post	2		12.0	30.0	2.5	/experiments/knapen_aot/videos/R_S_yt-CZ2qiY-kS7Y_105.mp4	0.0	185.2277867794037	0.09993219375610352
33	96.28246402740479	fix_pre	0		46.0	31.0	2.5	/experiments/knapen_aot/videos/R_S_yt-hekMMCluhnU_18.mp4	0.0	185.3277189731598	0.38329100608825684
33	96.65761184692383	response	0	4		31.0	2.5	/experiments/knapen_aot/videos/R_S_yt-hekMMCluhnU_18.mp4	0.0	185.70286679267883	
33	96.66575503349304	movie	1		301.0	31.0	2.5	/experiments/knapen_aot/videos/R_S_yt-hekMMCluhnU_18.mp4	0.0	185.71100997924805	2.508347988128662
33	99.1741030216217	fix_post	2		12.0	31.0	2.5	/experiments/knapen_aot/videos/R_S_yt-hekMMCluhnU_18.mp4	0.0	188.2193579673767	0.09995102882385254
34	99.27405405044556	fix_pre	0		18.0	32.0	2.5	/experiments/knapen_aot/videos/R_S_yt-xWCPbUQc-vg_7.mp4	0.0	188.31930899620056	0.15004587173461914
34	99.41592693328857	response	0	4		32.0	2.5	/experiments/knapen_aot/videos/R_S_yt-xWCPbUQc-vg_7.mp4	0.0	188.46118187904358	
34	99.42409992218018	movie	1		301.0	32.0	2.5	/experiments/knapen_aot/videos/R_S_yt-xWCPbUQc-vg_7.mp4	0.0	188.46935486793518	2.508376121520996
34	101.93247604370117	fix_post	2		12.0	32.0	2.5	/experiments/knapen_aot/videos/R_S_yt-xWCPbUQc-vg_7.mp4	0.0	190.97773098945618	0.09999394416809082
35	102.03246998786926	fix_pre	0		144.0	33.0	2.5	blank	1.0	191.07772493362427	1.2000038623809814
35	103.22420692443848	response	0	4		33.0	2.5	blank	1.0	192.26946187019348	
35	103.23247385025024	movie	1		301.0	33.0	2.5	blank	1.0	192.27772879600525	2.5083231925964355
35	105.74079704284668	fix_post	2		12.0	33.0	2.5	blank	1.0	194.78605198860168	0.0999598503112793
36	105.84075689315796	fix_pre	0		71.0	34.0	2.5	/experiments/knapen_aot/videos/R_S_yt-uX7qYKQm_pg_277.mp4	0.0	194.88601183891296	0.5916681289672852
36	106.42419385910034	response	0	4		34.0	2.5	/experiments/knapen_aot/videos/R_S_yt-uX7qYKQm_pg_277.mp4	0.0	195.46944880485535	
36	106.43242502212524	movie	1		301.0	34.0	2.5	/experiments/knapen_aot/videos/R_S_yt-uX7qYKQm_pg_277.mp4	0.0	195.47767996788025	2.508330821990967
36	108.94075584411621	fix_post	2		12.0	34.0	2.5	/experiments/knapen_aot/videos/R_S_yt-uX7qYKQm_pg_277.mp4	0.0	197.98601078987122	0.10001420974731445
37	109.04077005386353	fix_pre	0		25.0	35.0	2.5	/experiments/knapen_aot/videos/S_OdxWh1oU8e8_1.mp4	0.0	198.08602499961853	0.20831084251403809
37	109.24091506004333	response	0	4		35.0	2.5	/experiments/knapen_aot/videos/S_OdxWh1oU8e8_1.mp4	0.0	198.28617000579834	
37	109.24908089637756	movie	1		300.0	35.0	2.5	/experiments/knapen_aot/videos/S_OdxWh1oU8e8_1.mp4	0.0	198.29433584213257	2.508258104324341
37	111.7573390007019	fix_post	2		12.0	35.0	2.5	/experiments/knapen_aot/videos/S_OdxWh1oU8e8_1.mp4	0.0	200.8025939464569	0.10006499290466309
38	111.85740399360657	fix_pre	0		56.0	36.0	2.5	/experiments/knapen_aot/videos/S_8amznWxLS04_212.mp4	0.0	200.90265893936157	0.4666609764099121
38	112.31580996513367	response	0	4		36.0	2.5	/experiments/knapen_aot/videos/S_8amznWxLS04_212.mp4	0.0	201.36106491088867	
38	112.32406497001648	movie	1		301.0	36.0	2.5	/experiments/knapen_aot/videos/S_8amznWxLS04_212.mp4	0.0	201.36931991577148	2.5083298683166504
38	114.83239483833313	fix_post	2		12.0	36.0	2.5	/experiments/knapen_aot/videos/S_8amznWxLS04_212.mp4	0.0	203.87764978408813	0.09998822212219238
39	114.93238306045532	fix_pre	0		10.0	37.0	2.5	/experiments/knapen_aot/videos/R_S_bing-www_break_com_video_like-a-cat-catching-a-fly-3131008_12.mp4	0.0	203.97763800621033	0.08333683013916016
39	115.00749588012695	response	0	4		37.0	2.5	/experiments/knapen_aot/videos/R_S_bing-www_break_com_video_like-a-cat-catching-a-fly-3131008_12.mp4	0.0	204.05275082588196	
39	115.01571989059448	movie	1		301.0	37.0	2.5	/experiments/knapen_aot/videos/R_S_bing-www_break_com_video_like-a-cat-catching-a-fly-3131008_12.mp4	0.0	204.0609748363495	2.508331060409546
39	117.36584901809692	response	1	4		37.0	2.5	/experiments/knapen_aot/videos/R_S_bing-www_break_com_video_like-a-cat-catching-a-fly-3131008_12.mp4	0.0	206.41110396385193	
39	117.52405095100403	fix_post	2		12.0	37.0	2.5	/experiments/knapen_aot/videos/R_S_bing-www_break_com_video_like-a-cat-catching-a-fly-3131008_12.mp4	0.0	206.56930589675903	0.09998202323913574
40	117.62403297424316	fix_pre	0		64.0	38.0	2.5	/experiments/knapen_aot/videos/R_S_yt-p0buJEEKeuI_61.mp4	0.0	206.66928791999817	0.5332880020141602
40	118.14909601211548	response	0	4		38.0	2.5	/experiments/knapen_aot/videos/R_S_yt-p0buJEEKeuI_61.mp4	0.0	207.19435095787048	
40	118.15732097625732	movie	1		301.0	38.0	2.5	/experiments/knapen_aot/videos/R_S_yt-p0buJEEKeuI_61.mp4	0.0	207.20257592201233	2.5083799362182617
40	120.66570091247559	fix_post	2		12.0	38.0	2.5	/experiments/knapen_aot/videos/R_S_yt-p0buJEEKeuI_61.mp4	0.0	209.7109558582306	0.1000981330871582
41	120.76579904556274	fix_pre	0		78.0	39.0	2.5	/experiments/knapen_aot/videos/R_S_nvbAwZOKBS8_23.mp4	0.0	209.81105399131775	0.6511328220367432
41	121.40749883651733	response	0	4		39.0	2.5	/experiments/knapen_aot/videos/R_S_nvbAwZOKBS8_23.mp4	0.0	210.45275378227234	
41	121.41693186759949	movie	1		301.0	39.0	2.5	/experiments/knapen_aot/videos/R_S_nvbAwZOKBS8_23.mp4	0.0	210.4621868133545	2.5070531368255615
41	123.92398500442505	fix_post	2		12.0	39.0	2.5	/experiments/knapen_aot/videos/R_S_nvbAwZOKBS8_23.mp4	0.0	212.96923995018005	0.10004091262817383
42	124.02402591705322	fix_pre	0		23.0	40.0	2.5	/experiments/knapen_aot/videos/R_S_yt-fk-z6WCvjjA_3.mp4	0.0	213.06928086280823	0.19160699844360352
42	124.20746397972107	response	0	4		40.0	2.5	/experiments/knapen_aot/videos/R_S_yt-fk-z6WCvjjA_3.mp4	0.0	213.25271892547607	
42	124.21563291549683	movie	1		301.0	40.0	2.5	/experiments/knapen_aot/videos/R_S_yt-fk-z6WCvjjA_3.mp4	0.0	213.26088786125183	2.508331060409546
42	126.72396397590637	fix_post	2		12.0	40.0	2.5	/experiments/knapen_aot/videos/R_S_yt-fk-z6WCvjjA_3.mp4	0.0	215.76921892166138	0.10000085830688477
43	126.82396483421326	fix_pre	0		41.0	41.0	2.5	blank	1.0	215.86921977996826	0.3416750431060791
43	127.1575059890747	response	0	4		41.0	2.5	blank	1.0	216.2027609348297	
43	127.16563987731934	movie	1		301.0	41.0	2.5	blank	1.0	216.21089482307434	2.5083320140838623
43	129.6739718914032	fix_post	2		12.0	41.0	2.5	blank	1.0	218.7192268371582	0.10006999969482422
44	129.77404189109802	fix_pre	0		44.0	42.0	2.5	/experiments/knapen_aot/videos/R_S_yt-fymgyhmYnMI_557.mp4	0.0	218.81929683685303	0.36655712127685547
44	130.13242197036743	response	0	4		42.0	2.5	/experiments/knapen_aot/videos/R_S_yt-fymgyhmYnMI_557.mp4	0.0	219.17767691612244	
44	130.14059901237488	movie	1		299.0	42.0	2.5	/experiments/knapen_aot/videos/R_S_yt-fymgyhmYnMI_557.mp4	0.0	219.18585395812988	2.508370876312256
44	132.64896988868713	fix_post	2		12.0	42.0	2.5	/experiments/knapen_aot/videos/R_S_yt-fymgyhmYnMI_557.mp4	0.0	221.69422483444214	0.10000395774841309
45	132.74897384643555	fix_pre	0		15.0	43.0	2.5	/experiments/knapen_aot/videos/R_S_Pexels_Videos_2795731.mp4	0.0	221.79422879219055	0.1250300407409668
45	132.8582420349121	response	0	4		43.0	2.5	/experiments/knapen_aot/videos/R_S_Pexels_Videos_2795731.mp4	0.0	221.90349698066711	
45	132.8740038871765	movie	1		167.0	43.0	2.5	/experiments/knapen_aot/videos/R_S_Pexels_Videos_2795731.mp4	0.0	221.91925883293152	2.5082640647888184
45	135.38226795196533	fix_post	2		12.0	43.0	2.5	/experiments/knapen_aot/videos/R_S_Pexels_Videos_2795731.mp4	0.0	224.42752289772034	0.09997892379760742
46	135.48224687576294	fix_pre	0		32.0	44.0	2.5	/experiments/knapen_aot/videos/S_yt-JG2OY_7B-gI_537.mp4	0.0	224.52750182151794	0.26787710189819336
46	135.740797996521	response	0	4		44.0	2.5	/experiments/knapen_aot/videos/S_yt-JG2OY_7B-gI_537.mp4	0.0	224.786052942276	
46	135.75012397766113	movie	1		301.0	44.0	2.5	/experiments/knapen_aot/videos/S_yt-JG2OY_7B-gI_537.mp4	0.0	224.79537892341614	2.5071640014648438
46	138.25728797912598	fix_post	2		12.0	44.0	2.5	/experiments/knapen_aot/videos/S_yt-JG2OY_7B-gI_537.mp4	0.0	227.30254292488098	0.10003995895385742
47	138.35732793807983	fix_pre	0		32.0	45.0	2.5	/experiments/knapen_aot/videos/S_b8-2.mp4	0.0	227.40258288383484	0.2678039073944092
47	138.6159369945526	response	0	4		45.0	2.5	/experiments/knapen_aot/videos/S_b8-2.mp4	0.0	227.66119194030762	
47	138.62513184547424	movie	1		163.0	45.0	2.5	/experiments/knapen_aot/videos/S_b8-2.mp4	0.0	227.67038679122925	2.5071051120758057
47	141.13223695755005	fix_post	2		12.0	45.0	2.5	/experiments/knapen_aot/videos/S_b8-2.mp4	0.0	230.17749190330505	0.10012698173522949
48	141.23236393928528	fix_pre	0		30.0	46.0	2.5	/experiments/knapen_aot/videos/S_yt-roThCERxVCs_133.mp4	0.0	230.27761888504028	0.24982690811157227
48	141.47405195236206	response	0	4		46.0	2.5	/experiments/knapen_aot/videos/S_yt-roThCERxVCs_133.mp4	0.0	230.51930689811707	
48	141.48219084739685	movie	1		300.0	46.0	2.5	/experiments/knapen_aot/videos/S_yt-roThCERxVCs_133.mp4	0.0	230.52744579315186	2.508430004119873
48	143.99062085151672	fix_post	2		12.0	46.0	2.5	/experiments/knapen_aot/videos/S_yt-roThCERxVCs_133.mp4	0.0	233.03587579727173	0.09997916221618652
49	144.0906000137329	fix_pre	0		45.0	47.0	2.5	/experiments/knapen_aot/videos/S_yt-JVhfcpV7OaY_71.mp4	0.0	233.13585495948792	0.3749539852142334
49	144.45738291740417	response	0	4		47.0	2.5	/experiments/knapen_aot/videos/S_yt-JVhfcpV7OaY_71.mp4	0.0	233.50263786315918	
49	144.46555399894714	movie	1		301.0	47.0	2.5	/experiments/knapen_aot/videos/S_yt-JVhfcpV7OaY_71.mp4	0.0	233.51080894470215	2.508378028869629
49	146.97393202781677	fix_post	2		12.0	47.0	2.5	/experiments/knapen_aot/videos/S_yt-JVhfcpV7OaY_71.mp4	0.0	236.01918697357178	0.09999990463256836
50	147.07393193244934	fix_pre	0		124.0	48.0	2.5	blank	1.0	236.11918687820435	1.0333240032196045
50	148.09906482696533	response	0	4		48.0	2.5	blank	1.0	237.14431977272034	
50	148.10725593566895	movie	1		301.0	48.0	2.5	blank	1.0	237.15251088142395	2.5083301067352295
50	150.61558604240417	fix_post	2		12.0	48.0	2.5	blank	1.0	239.66084098815918	0.09996199607849121
51	150.71554803848267	fix_pre	0		41.0	49.0	2.5	/experiments/knapen_aot/videos/R_S_yt-qycUhA3Isjg_76.mp4	0.0	239.76080298423767	0.34172487258911133
51	151.04898595809937	response	0	4		49.0	2.5	/experiments/knapen_aot/videos/R_S_yt-qycUhA3Isjg_76.mp4	0.0	240.09424090385437	
51	151.05727291107178	movie	1		301.0	49.0	2.5	/experiments/knapen_aot/videos/R_S_yt-qycUhA3Isjg_76.mp4	0.0	240.10252785682678	2.5083649158477783
51	153.56563782691956	fix_post	2		12.0	49.0	2.5	/experiments/knapen_aot/videos/R_S_yt-qycUhA3Isjg_76.mp4	0.0	242.61089277267456	0.09991812705993652
52	153.6655559539795	fix_pre	0		22.0	50.0	2.5	/experiments/knapen_aot/videos/S_yt-w_e3sxIzepA_27.mp4	0.0	242.7108108997345	0.18330597877502441
52	153.8407289981842	response	0	4		50.0	2.5	/experiments/knapen_aot/videos/S_yt-w_e3sxIzepA_27.mp4	0.0	242.8859839439392	
52	153.84886193275452	movie	1		299.0	50.0	2.5	/experiments/knapen_aot/videos/S_yt-w_e3sxIzepA_27.mp4	0.0	242.89411687850952	2.5083401203155518
52	156.35720205307007	fix_post	2		12.0	50.0	2.5	/experiments/knapen_aot/videos/S_yt-w_e3sxIzepA_27.mp4	0.0	245.40245699882507	0.10004687309265137
53	156.45724892616272	fix_pre	0		14.0	51.0	2.5	/experiments/knapen_aot/videos/R_S_wc-AyT9mzwZsu0T_14.mp4	0.0	245.50250387191772	0.11661410331726074
53	156.5656259059906	response	0	4		51.0	2.5	/experiments/knapen_aot/videos/R_S_wc-AyT9mzwZsu0T_14.mp4	0.0	245.6108808517456	
53	156.57386302947998	movie	1		165.0	51.0	2.5	/experiments/knapen_aot/videos/R_S_wc-AyT9mzwZsu0T_14.mp4	0.0	245.61911797523499	2.5082809925079346
53	159.08214402198792	fix_post	2		12.0	51.0	2.5	/experiments/knapen_aot/videos/R_S_wc-AyT9mzwZsu0T_14.mp4	0.0	248.12739896774292	0.10002684593200684
54	159.18217086791992	fix_pre	0		14.0	52.0	2.5	/experiments/knapen_aot/videos/R_S_yt--v_iMUMMX6g_39.mp4	0.0	248.22742581367493	0.11663699150085449
54	159.290668964386	response	0	4		52.0	2.5	/experiments/knapen_aot/videos/R_S_yt--v_iMUMMX6g_39.mp4	0.0	248.335923910141	
54	159.29880785942078	movie	1		301.0	52.0	2.5	/experiments/knapen_aot/videos/R_S_yt--v_iMUMMX6g_39.mp4	0.0	248.34406280517578	2.508404016494751
54	161.80721187591553	fix_post	2		12.0	52.0	2.5	/experiments/knapen_aot/videos/R_S_yt--v_iMUMMX6g_39.mp4	0.0	250.85246682167053	0.09987998008728027
55	161.9070918560028	fix_pre	0		14.0	53.0	2.5	/experiments/knapen_aot/videos/S_yt-dESxu60Cl10_24.mp4	0.0	250.9523468017578	0.1167440414428711
55	162.01557993888855	response	0	4		53.0	2.5	/experiments/knapen_aot/videos/S_yt-dESxu60Cl10_24.mp4	0.0	251.06083488464355	
55	162.02383589744568	movie	1		301.0	53.0	2.5	/experiments/knapen_aot/videos/S_yt-dESxu60Cl10_24.mp4	0.0	251.06909084320068	2.5083811283111572
55	164.53221702575684	fix_post	2		12.0	53.0	2.5	/experiments/knapen_aot/videos/S_yt-dESxu60Cl10_24.mp4	0.0	253.57747197151184	0.09991002082824707
56	164.63212704658508	fix_pre	0		11.0	54.0	2.5	/experiments/knapen_aot/videos/S_9smWynsk6sI_158.mp4	0.0	253.6773819923401	0.09176492691040039
56	164.7156000137329	response	0	4		54.0	2.5	/experiments/knapen_aot/videos/S_9smWynsk6sI_158.mp4	0.0	253.76085495948792	
56	164.72389197349548	movie	1		301.0	54.0	2.5	/experiments/knapen_aot/videos/S_9smWynsk6sI_158.mp4	0.0	253.7691469192505	2.5083770751953125
56	167.2322690486908	fix_post	2		12.0	54.0	2.5	/experiments/knapen_aot/videos/S_9smWynsk6sI_158.mp4	0.0	256.2775239944458	0.09994196891784668
57	167.33221101760864	fix_pre	0		30.0	55.0	2.5	blank	1.0	256.37746596336365	0.2510499954223633
57	167.57407689094543	response	0	4		55.0	2.5	blank	1.0	256.61933183670044	
57	167.583261013031	movie	1		301.0	55.0	2.5	blank	1.0	256.628515958786	2.507297992706299
57	170.0905590057373	fix_post	2		12.0	55.0	2.5	blank	1.0	259.1358139514923	0.09999704360961914
58	170.19055604934692	fix_pre	0		37.0	56.0	2.5	/experiments/knapen_aot/videos/R_S_pexels-roman-odintsov-8233166.mp4	0.0	259.23581099510193	0.30923891067504883
58	170.490651845932	response	0	4		56.0	2.5	/experiments/knapen_aot/videos/R_S_pexels-roman-odintsov-8233166.mp4	0.0	259.535906791687	
58	170.49979496002197	movie	1		194.0	56.0	2.5	/experiments/knapen_aot/videos/R_S_pexels-roman-odintsov-8233166.mp4	0.0	259.545049905777	2.5073509216308594
58	173.00714588165283	fix_post	2		12.0	56.0	2.5	/experiments/knapen_aot/videos/R_S_pexels-roman-odintsov-8233166.mp4	0.0	262.05240082740784	0.10001707077026367
59	173.1071629524231	fix_pre	0		17.0	57.0	2.5	/experiments/knapen_aot/videos/R_S_ILSVRC2015_train_00415007.mp4	0.0	262.1524178981781	0.1425919532775879
59	173.2405948638916	response	0	4		57.0	2.5	/experiments/knapen_aot/videos/R_S_ILSVRC2015_train_00415007.mp4	0.0	262.2858498096466	
59	173.24975490570068	movie	1		301.0	57.0	2.5	/experiments/knapen_aot/videos/R_S_ILSVRC2015_train_00415007.mp4	0.0	262.2950098514557	2.507352113723755
59	175.75710701942444	fix_post	2		12.0	57.0	2.5	/experiments/knapen_aot/videos/R_S_ILSVRC2015_train_00415007.mp4	0.0	264.80236196517944	0.10000801086425781
60	175.8571150302887	fix_pre	0		27.0	58.0	2.5	/experiments/knapen_aot/videos/S_yt-gOoDjhfSPj0_162.mp4	0.0	264.9023699760437	0.22594785690307617
60	176.07391595840454	response	0	4		58.0	2.5	/experiments/knapen_aot/videos/S_yt-gOoDjhfSPj0_162.mp4	0.0	265.11917090415955	
60	176.08306288719177	movie	1		301.0	58.0	2.5	/experiments/knapen_aot/videos/S_yt-gOoDjhfSPj0_162.mp4	0.0	265.1283178329468	2.507338047027588
60	178.59040093421936	fix_post	2		12.0	58.0	2.5	/experiments/knapen_aot/videos/S_yt-gOoDjhfSPj0_162.mp4	0.0	267.63565587997437	0.10003495216369629
61	178.69043588638306	fix_pre	0		9.0	59.0	2.5	/experiments/knapen_aot/videos/R_S_yt-z16pdVTZK1o_3.mp4	0.0	267.73569083213806	0.07491898536682129
61	178.75723385810852	response	0	4		59.0	2.5	/experiments/knapen_aot/videos/R_S_yt-z16pdVTZK1o_3.mp4	0.0	267.8024888038635	
61	178.76535487174988	movie	1		301.0	59.0	2.5	/experiments/knapen_aot/videos/R_S_yt-z16pdVTZK1o_3.mp4	0.0	267.8106098175049	2.50838303565979
61	179.87491488456726	response	1	4		59.0	2.5	/experiments/knapen_aot/videos/R_S_yt-z16pdVTZK1o_3.mp4	0.0	268.92016983032227	
61	181.27373790740967	fix_post	2		12.0	59.0	2.5	/experiments/knapen_aot/videos/R_S_yt-z16pdVTZK1o_3.mp4	0.0	270.3189928531647	0.10099601745605469
62	181.37473392486572	fix_pre	0		16.0	60.0	2.5	/experiments/knapen_aot/videos/S_ILSVRC2015_train_00524006.mp4	0.0	270.4199888706207	0.13242602348327637
62	181.49890303611755	response	0	4		60.0	2.5	/experiments/knapen_aot/videos/S_ILSVRC2015_train_00524006.mp4	0.0	270.54415798187256	
62	181.507159948349	movie	1		300.0	60.0	2.5	/experiments/knapen_aot/videos/S_ILSVRC2015_train_00524006.mp4	0.0	270.552414894104	2.508220911026001
62	184.015380859375	fix_post	2		12.0	60.0	2.5	/experiments/knapen_aot/videos/S_ILSVRC2015_train_00524006.mp4	0.0	273.06063580513	0.09999704360961914
63	184.11537790298462	fix_pre	0		35.0	61.0	2.5	/experiments/knapen_aot/videos/S_ILSVRC2015_train_00601000.mp4	0.0	273.1606328487396	0.2916450500488281
63	184.39888405799866	response	0	4		61.0	2.5	/experiments/knapen_aot/videos/S_ILSVRC2015_train_00601000.mp4	0.0	273.44413900375366	
63	184.40702295303345	movie	1		301.0	61.0	2.5	/experiments/knapen_aot/videos/S_ILSVRC2015_train_00601000.mp4	0.0	273.45227789878845	2.5083789825439453
63	186.9154019355774	fix_post	2		12.0	61.0	2.5	/experiments/knapen_aot/videos/S_ILSVRC2015_train_00601000.mp4	0.0	275.9606568813324	0.09999990463256836
64	187.01540184020996	fix_pre	0		181.0	62.0	2.5	/experiments/knapen_aot/videos/S_yt-ycQy_fHCK-U_8.mp4	0.0	276.06065678596497	1.5083391666412354
64	188.51549696922302	response	0	4		62.0	2.5	/experiments/knapen_aot/videos/S_yt-ycQy_fHCK-U_8.mp4	0.0	277.560751914978	
64	188.5237410068512	movie	1		301.0	62.0	2.5	/experiments/knapen_aot/videos/S_yt-ycQy_fHCK-U_8.mp4	0.0	277.5689959526062	2.5083038806915283
64	191.03204488754272	fix_post	2		12.0	62.0	2.5	/experiments/knapen_aot/videos/S_yt-ycQy_fHCK-U_8.mp4	0.0	280.07729983329773	0.09992814064025879
65	191.13197302818298	fix_pre	0		17.0	63.0	2.5	blank	1.0	280.177227973938	0.14170098304748535
65	191.25814485549927	response	0	4		63.0	2.5	blank	1.0	280.3033998012543	
65	191.27367401123047	movie	1		301.0	63.0	2.5	blank	1.0	280.3189289569855	2.5084028244018555
65	193.78207683563232	fix_post	2		12.0	63.0	2.5	blank	1.0	282.82733178138733	0.09993815422058105
66	193.8820149898529	fix_pre	0		26.0	64.0	2.5	/experiments/knapen_aot/videos/R_S_yt-JVhfcpV7OaY_71.mp4	0.0	282.9272699356079	0.216688871383667
66	194.09050798416138	response	0	4		64.0	2.5	/experiments/knapen_aot/videos/R_S_yt-JVhfcpV7OaY_71.mp4	0.0	283.1357629299164	
66	194.09870386123657	movie	1		301.0	64.0	2.5	/experiments/knapen_aot/videos/R_S_yt-JVhfcpV7OaY_71.mp4	0.0	283.1439588069916	2.50835919380188
66	196.60706305503845	fix_post	2		12.0	64.0	2.5	/experiments/knapen_aot/videos/R_S_yt-JVhfcpV7OaY_71.mp4	0.0	285.65231800079346	0.10000777244567871
67	196.70707082748413	fix_pre	0		125.0	65.0	2.5	/experiments/knapen_aot/videos/R_S_pexels-cottonbro-9499408.mp4	0.0	285.75232577323914	1.0424752235412598
67	197.73296999931335	response	0	4		65.0	2.5	/experiments/knapen_aot/videos/R_S_pexels-cottonbro-9499408.mp4	0.0	286.77822494506836	
67	197.7495460510254	movie	1		188.0	65.0	2.5	/experiments/knapen_aot/videos/R_S_pexels-cottonbro-9499408.mp4	0.0	286.7948009967804	2.507382869720459
67	200.25692892074585	fix_post	2		12.0	65.0	2.5	/experiments/knapen_aot/videos/R_S_pexels-cottonbro-9499408.mp4	0.0	289.30218386650085	0.1001279354095459
68	200.3570568561554	fix_pre	0		91.0	66.0	2.5	/experiments/knapen_aot/videos/R_S_yt-gOoDjhfSPj0_162.mp4	0.0	289.4023118019104	0.7582740783691406
68	201.10721492767334	response	0	4		66.0	2.5	/experiments/knapen_aot/videos/R_S_yt-gOoDjhfSPj0_162.mp4	0.0	290.15246987342834	
68	201.11533093452454	movie	1		300.0	66.0	2.5	/experiments/knapen_aot/videos/R_S_yt-gOoDjhfSPj0_162.mp4	0.0	290.16058588027954	2.5083138942718506
68	203.6236448287964	fix_post	2		12.0	66.0	2.5	/experiments/knapen_aot/videos/R_S_yt-gOoDjhfSPj0_162.mp4	0.0	292.6688997745514	0.0999910831451416
69	203.72363591194153	fix_pre	0		11.0	67.0	2.5	/experiments/knapen_aot/videos/R_S_yt-IC62JSYpq9w_71.mp4	0.0	292.76889085769653	0.09166693687438965
69	203.79961800575256	response	0	4		67.0	2.5	/experiments/knapen_aot/videos/R_S_yt-IC62JSYpq9w_71.mp4	0.0	292.84487295150757	
69	203.81530284881592	movie	1		301.0	67.0	2.5	/experiments/knapen_aot/videos/R_S_yt-IC62JSYpq9w_71.mp4	0.0	292.8605577945709	2.5083391666412354
69	206.32364201545715	fix_post	2		12.0	67.0	2.5	/experiments/knapen_aot/videos/R_S_yt-IC62JSYpq9w_71.mp4	0.0	295.36889696121216	0.09998083114624023
70	206.4236228466034	fix_pre	0		81.0	68.0	2.5	blank	1.0	295.4688777923584	0.6750221252441406
70	207.0903868675232	response	0	4		68.0	2.5	blank	1.0	296.1356418132782	
70	207.09864497184753	movie	1		301.0	68.0	2.5	blank	1.0	296.14389991760254	2.508297920227051
70	209.60694289207458	fix_post	2		12.0	68.0	2.5	blank	1.0	298.6521978378296	0.09995698928833008
71	209.70689988136292	fix_pre	0		181.0	69.0	2.5	/experiments/knapen_aot/videos/S_yt-0buqUbXVTn8_48.mp4	0.0	298.7521548271179	1.508385181427002
71	211.20709705352783	response	0	4		69.0	2.5	/experiments/knapen_aot/videos/S_yt-0buqUbXVTn8_48.mp4	0.0	300.25235199928284	
71	211.21528506278992	movie	1		301.0	69.0	2.5	/experiments/knapen_aot/videos/S_yt-0buqUbXVTn8_48.mp4	0.0	300.2605400085449	2.508356809616089
71	213.723641872406	fix_post	2		12.0	69.0	2.5	/experiments/knapen_aot/videos/S_yt-0buqUbXVTn8_48.mp4	0.0	302.768896818161	0.10004901885986328
72	213.82369089126587	fix_pre	0		20.0	70.0	2.5	/experiments/knapen_aot/videos/R_S_ILSVRC2015_train_00165009.mp4	0.0	302.8689458370209	0.1665940284729004
72	213.97449684143066	response	0	4		70.0	2.5	/experiments/knapen_aot/videos/R_S_ILSVRC2015_train_00165009.mp4	0.0	303.01975178718567	
72	213.99028491973877	movie	1		301.0	70.0	2.5	/experiments/knapen_aot/videos/R_S_ILSVRC2015_train_00165009.mp4	0.0	303.0355398654938	2.508392095565796
72	216.49867701530457	fix_post	2		12.0	70.0	2.5	/experiments/knapen_aot/videos/R_S_ILSVRC2015_train_00165009.mp4	0.0	305.54393196105957	0.09992790222167969
73	216.59860491752625	fix_pre	0		85.0	71.0	2.5	/experiments/knapen_aot/videos/R_S_yt-yPl8LcgSMjo_32.mp4	0.0	305.64385986328125	0.7084259986877441
73	217.29877090454102	response	0	4		71.0	2.5	/experiments/knapen_aot/videos/R_S_yt-yPl8LcgSMjo_32.mp4	0.0	306.344025850296	
73	217.307030916214	movie	1		301.0	71.0	2.5	/experiments/knapen_aot/videos/R_S_yt-yPl8LcgSMjo_32.mp4	0.0	306.352285861969	2.5082719326019287
73	219.81530284881592	fix_post	2		12.0	71.0	2.5	/experiments/knapen_aot/videos/R_S_yt-yPl8LcgSMjo_32.mp4	0.0	308.8605577945709	0.09999704360961914
74	219.91529989242554	fix_pre	0		12.0	72.0	2.5	/experiments/knapen_aot/videos/R_S_yt-XPRNMelf5Fs_235.mp4	0.0	308.96055483818054	0.09999513626098633
74	220.00709199905396	response	0	4		72.0	2.5	/experiments/knapen_aot/videos/R_S_yt-XPRNMelf5Fs_235.mp4	0.0	309.05234694480896	
74	220.01529502868652	movie	1		301.0	72.0	2.5	/experiments/knapen_aot/videos/R_S_yt-XPRNMelf5Fs_235.mp4	0.0	309.0605499744415	2.5082898139953613
74	222.52358484268188	fix_post	2		12.0	72.0	2.5	/experiments/knapen_aot/videos/R_S_yt-XPRNMelf5Fs_235.mp4	0.0	311.5688397884369	0.0999751091003418
75	222.62355995178223	fix_pre	0		106.0	73.0	2.5	/experiments/knapen_aot/videos/S_yt-qYuLW5vSotM_160.mp4	0.0	311.66881489753723	0.8833630084991455
75	223.49872303009033	response	0	4		73.0	2.5	/experiments/knapen_aot/videos/S_yt-qYuLW5vSotM_160.mp4	0.0	312.54397797584534	
75	223.50692296028137	movie	1		301.0	73.0	2.5	/experiments/knapen_aot/videos/S_yt-qYuLW5vSotM_160.mp4	0.0	312.5521779060364	2.508280038833618
75	226.015202999115	fix_post	2		12.0	73.0	2.5	/experiments/knapen_aot/videos/S_yt-qYuLW5vSotM_160.mp4	0.0	315.06045794487	0.10003304481506348
76	226.11523604393005	fix_pre	0		6.0	74.0	2.5	/experiments/knapen_aot/videos/R_S_yt-xNKgc8sFYvU_35.mp4	0.0	315.16049098968506	0.050720930099487305
76	226.15713000297546	response	0	4		74.0	2.5	/experiments/knapen_aot/videos/R_S_yt-xNKgc8sFYvU_35.mp4	0.0	315.20238494873047	
76	226.16595697402954	movie	1		301.0	74.0	2.5	/experiments/knapen_aot/videos/R_S_yt-xNKgc8sFYvU_35.mp4	0.0	315.21121191978455	2.5075950622558594
76	228.6735520362854	fix_post	2		12.0	74.0	2.5	/experiments/knapen_aot/videos/R_S_yt-xNKgc8sFYvU_35.mp4	0.0	317.7188069820404	0.09997701644897461
76	228.76535892486572	response	2	4		74.0	2.5	/experiments/knapen_aot/videos/R_S_yt-xNKgc8sFYvU_35.mp4	0.0	317.8106138706207	
77	228.77352905273438	fix_pre	0		207.0	75.0	2.5	/experiments/knapen_aot/videos/R_S_yt-wIZprsJwxBM_298.mp4	0.0	317.8187839984894	1.7256958484649658
77	230.49036288261414	response	0	4		75.0	2.5	/experiments/knapen_aot/videos/R_S_yt-wIZprsJwxBM_298.mp4	0.0	319.53561782836914	
77	230.49922490119934	movie	1		301.0	75.0	2.5	/experiments/knapen_aot/videos/R_S_yt-wIZprsJwxBM_298.mp4	0.0	319.54447984695435	2.507622003555298
77	233.00684690475464	fix_post	2		12.0	75.0	2.5	/experiments/knapen_aot/videos/R_S_yt-wIZprsJwxBM_298.mp4	0.0	322.05210185050964	0.09997892379760742
78	233.10682582855225	fix_pre	0		39.0	76.0	2.5	/experiments/knapen_aot/videos/R_S_yt-qYuLW5vSotM_160.mp4	0.0	322.15208077430725	0.3250300884246826
78	233.42364883422852	response	0	4		76.0	2.5	/experiments/knapen_aot/videos/R_S_yt-qYuLW5vSotM_160.mp4	0.0	322.4689037799835	
78	233.43185591697693	movie	1		298.0	76.0	2.5	/experiments/knapen_aot/videos/R_S_yt-qYuLW5vSotM_160.mp4	0.0	322.47711086273193	2.5084071159362793
78	235.9402630329132	fix_post	2		12.0	76.0	2.5	/experiments/knapen_aot/videos/R_S_yt-qYuLW5vSotM_160.mp4	0.0	324.9855179786682	0.09994101524353027
79	236.04020404815674	fix_pre	0		25.0	77.0	2.5	blank	1.0	325.08545899391174	0.20905399322509766
79	236.24036192893982	response	0	4		77.0	2.5	blank	1.0	325.2856168746948	
79	236.24925804138184	movie	1		301.0	77.0	2.5	blank	1.0	325.29451298713684	2.5075888633728027
79	238.75684690475464	fix_post	2		12.0	77.0	2.5	blank	1.0	327.80210185050964	0.09995007514953613
80	238.85679697990417	fix_pre	0		29.0	78.0	2.5	/experiments/knapen_aot/videos/R_S_ILSVRC2015_train_00441000.mp4	0.0	327.9020519256592	0.24168992042541504
80	239.09025502204895	response	0	4		78.0	2.5	/experiments/knapen_aot/videos/R_S_ILSVRC2015_train_00441000.mp4	0.0	328.13550996780396	
80	239.0984869003296	movie	1		301.0	78.0	2.5	/experiments/knapen_aot/videos/R_S_ILSVRC2015_train_00441000.mp4	0.0	328.1437418460846	2.5083580017089844
80	241.60684490203857	fix_post	2		12.0	78.0	2.5	/experiments/knapen_aot/videos/R_S_ILSVRC2015_train_00441000.mp4	0.0	330.6520998477936	0.10000395774841309
81	241.706848859787	fix_pre	0		90.0	79.0	2.5	/experiments/knapen_aot/videos/S_yt-fymgyhmYnMI_557.mp4	0.0	330.752103805542	0.7506120204925537
81	242.4487760066986	response	0	4		79.0	2.5	/experiments/knapen_aot/videos/S_yt-fymgyhmYnMI_557.mp4	0.0	331.4940309524536	
81	242.45746088027954	movie	1		300.0	79.0	2.5	/experiments/knapen_aot/videos/S_yt-fymgyhmYnMI_557.mp4	0.0	331.50271582603455	2.507657051086426
81	244.96511793136597	fix_post	2		12.0	79.0	2.5	/experiments/knapen_aot/videos/S_yt-fymgyhmYnMI_557.mp4	0.0	334.010372877121	0.10003805160522461
82	245.0651559829712	fix_pre	0		7.0	80.0	2.5	/experiments/knapen_aot/videos/S_wc-sd8_iKx0t7s7_9.mp4	0.0	334.1104109287262	0.05894207954406738
82	245.11529803276062	response	0	4		80.0	2.5	/experiments/knapen_aot/videos/S_wc-sd8_iKx0t7s7_9.mp4	0.0	334.1605529785156	
82	245.12409806251526	movie	1		168.0	80.0	2.5	/experiments/knapen_aot/videos/S_wc-sd8_iKx0t7s7_9.mp4	0.0	334.16935300827026	2.507690906524658
82	247.63178896903992	fix_post	2		12.0	80.0	2.5	/experiments/knapen_aot/videos/S_wc-sd8_iKx0t7s7_9.mp4	0.0	336.6770439147949	0.10006189346313477
83	247.73185086250305	fix_pre	0		48.0	81.0	2.5	/experiments/knapen_aot/videos/R_S_PA_A010_C007_SDR_20190717_SDR_2K_AVC.mp4	0.0	336.77710580825806	0.39996910095214844
83	248.12366795539856	response	0	4		81.0	2.5	/experiments/knapen_aot/videos/R_S_PA_A010_C007_SDR_20190717_SDR_2K_AVC.mp4	0.0	337.16892290115356	
83	248.1318199634552	movie	1		204.0	81.0	2.5	/experiments/knapen_aot/videos/R_S_PA_A010_C007_SDR_20190717_SDR_2K_AVC.mp4	0.0	337.1770749092102	2.508327007293701
83	250.63196992874146	response	1	4		81.0	2.5	/experiments/knapen_aot/videos/R_S_PA_A010_C007_SDR_20190717_SDR_2K_AVC.mp4	0.0	339.67722487449646	
83	250.6401469707489	fix_post	2		12.0	81.0	2.5	/experiments/knapen_aot/videos/R_S_PA_A010_C007_SDR_20190717_SDR_2K_AVC.mp4	0.0	339.6854019165039	0.10003089904785156
84	250.74017786979675	fix_pre	0		260.0	82.0	2.5	/experiments/knapen_aot/videos/S_yt-AuQ_WxaNy4Y_255.mp4	0.0	339.78543281555176	2.166656970977783
84	252.89862489700317	response	0	4		82.0	2.5	/experiments/knapen_aot/videos/S_yt-AuQ_WxaNy4Y_255.mp4	0.0	341.9438798427582	
84	252.90683484077454	movie	1		301.0	82.0	2.5	/experiments/knapen_aot/videos/S_yt-AuQ_WxaNy4Y_255.mp4	0.0	341.95208978652954	2.508336067199707
84	255.41517090797424	fix_post	2		12.0	82.0	2.5	/experiments/knapen_aot/videos/S_yt-AuQ_WxaNy4Y_255.mp4	0.0	344.46042585372925	0.09997701644897461
85	255.51514792442322	fix_pre	0		49.0	83.0	2.5	blank	1.0	344.5604028701782	0.40833210945129395
85	255.91517901420593	response	0	4		83.0	2.5	blank	1.0	344.96043395996094	
85	255.9234800338745	movie	1		301.0	83.0	2.5	blank	1.0	344.9687349796295	2.5083529949188232
85	258.43183302879333	fix_post	2		12.0	83.0	2.5	blank	1.0	347.47708797454834	0.09995889663696289
87	258.5317919254303	stim	0		207.0					347.5770468711853	1.7250590324401855
87	260.25233602523804	response	0	space						349.29759097099304	
