trial_nr	onset	event_type	phase	response	nr_frames	movie_index	movie_duration	movie_file	blank	onset_abs	duration
0	0.13118290901184082	stim	0		72.0					57.764474868774414	0.603283166885376
0	0.7251520156860352	response	0	space						58.35844397544861	
1	0.7344660758972168	stim	0		121.0					58.36775803565979	1.006748914718628
1	1.3008549213409424	response	0	space						58.934146881103516	
1	1.4260289669036865	response	0	4						59.05932092666626	
1	1.570228099822998	response	0	space						59.20352005958557	
1	1.7412149906158447	stim	1		120.0					59.37450695037842	0.9999959468841553
1	1.8260869979858398	response	1	space						59.45937895774841	
1	2.016295909881592	response	1	space						59.649587869644165	
1	2.216301918029785	response	1	space						59.84959387779236	
1	2.3995869159698486	response	1	space						60.03287887573242	
1	2.5630359649658203	response	1	4						60.196327924728394	
1	2.593003988265991	response	1	space						60.226295948028564	
2	2.7412109375	fix_pre	0		8.0	0.0	2.5	/experiments/knapen_aot/videos/S_yt-Gc1p5CnDbDY_22.mp4	0.0	60.37450289726257	0.07625317573547363
2	2.808182954788208	response	0	space		0.0	2.5	/experiments/knapen_aot/videos/S_yt-Gc1p5CnDbDY_22.mp4	0.0	60.44147491455078	
2	2.8174641132354736	movie	1		301.0	0.0	2.5	/experiments/knapen_aot/videos/S_yt-Gc1p5CnDbDY_22.mp4	0.0	60.45075607299805	2.5071098804473877
2	5.324573993682861	fix_post	2		12.0	0.0	2.5	/experiments/knapen_aot/videos/S_yt-Gc1p5CnDbDY_22.mp4	0.0	62.957865953445435	0.0999140739440918
2	5.3840720653533936	response	2	4		0.0	2.5	/experiments/knapen_aot/videos/S_yt-Gc1p5CnDbDY_22.mp4	0.0	63.01736402511597	
3	5.424488067626953	fix_pre	0		67.0	1.0	2.5	/experiments/knapen_aot/videos/R_S_comp_LW_L001_C003__PSNK_DENOISE_v04_SDR_PS_FINAL_20180803_SDR_2K_AVC.mp4	0.0	63.057780027389526	0.558419942855835
3	5.967139005661011	response	0	4		1.0	2.5	/experiments/knapen_aot/videos/R_S_comp_LW_L001_C003__PSNK_DENOISE_v04_SDR_PS_FINAL_20180803_SDR_2K_AVC.mp4	0.0	63.600430965423584	
3	5.982908010482788	movie	1		164.0	1.0	2.5	/experiments/knapen_aot/videos/R_S_comp_LW_L001_C003__PSNK_DENOISE_v04_SDR_PS_FINAL_20180803_SDR_2K_AVC.mp4	0.0	63.61619997024536	2.508275032043457
3	8.491183042526245	fix_post	2		12.0	1.0	2.5	/experiments/knapen_aot/videos/R_S_comp_LW_L001_C003__PSNK_DENOISE_v04_SDR_PS_FINAL_20180803_SDR_2K_AVC.mp4	0.0	66.12447500228882	0.10003089904785156
4	8.591213941574097	fix_pre	0		34.0	2.0	2.5	/experiments/knapen_aot/videos/R_S_ILSVRC2015_train_00473001.mp4	0.0	66.22450590133667	0.2832670211791992
4	8.866353988647461	response	0	4		2.0	2.5	/experiments/knapen_aot/videos/R_S_ILSVRC2015_train_00473001.mp4	0.0	66.49964594841003	
4	8.874480962753296	movie	1		301.0	2.0	2.5	/experiments/knapen_aot/videos/R_S_ILSVRC2015_train_00473001.mp4	0.0	66.50777292251587	2.5083701610565186
4	11.382851123809814	fix_post	2		12.0	2.0	2.5	/experiments/knapen_aot/videos/R_S_ILSVRC2015_train_00473001.mp4	0.0	69.01614308357239	0.10004782676696777
5	11.482898950576782	fix_pre	0		54.0	3.0	2.5	/experiments/knapen_aot/videos/R_S_yt-6KJ_yZR-Jco_14.mp4	0.0	69.11619091033936	0.449998140335083
5	11.92471194267273	response	0	4		3.0	2.5	/experiments/knapen_aot/videos/R_S_yt-6KJ_yZR-Jco_14.mp4	0.0	69.5580039024353	
5	11.932897090911865	movie	1		301.0	3.0	2.5	/experiments/knapen_aot/videos/R_S_yt-6KJ_yZR-Jco_14.mp4	0.0	69.56618905067444	2.5083370208740234
5	14.441234111785889	fix_post	2		12.0	3.0	2.5	/experiments/knapen_aot/videos/R_S_yt-6KJ_yZR-Jco_14.mp4	0.0	72.07452607154846	0.09997081756591797
6	14.541204929351807	fix_pre	0		24.0	4.0	2.5	/experiments/knapen_aot/videos/R_S_yt-6mRpmfIvdew_1435.mp4	0.0	72.17449688911438	0.19995713233947754
6	14.732969045639038	response	0	4		4.0	2.5	/experiments/knapen_aot/videos/R_S_yt-6mRpmfIvdew_1435.mp4	0.0	72.36626100540161	
6	14.741162061691284	movie	1		301.0	4.0	2.5	/experiments/knapen_aot/videos/R_S_yt-6mRpmfIvdew_1435.mp4	0.0	72.37445402145386	2.50834584236145
6	17.249507904052734	fix_post	2		12.0	4.0	2.5	/experiments/knapen_aot/videos/R_S_yt-6mRpmfIvdew_1435.mp4	0.0	74.88279986381531	0.09990501403808594
7	17.34941291809082	fix_pre	0		24.0	5.0	2.5	/experiments/knapen_aot/videos/R_S_yt-cjndulbUtRc_51.mp4	0.0	74.9827048778534	0.20006608963012695
7	17.54132390022278	response	0	4		5.0	2.5	/experiments/knapen_aot/videos/R_S_yt-cjndulbUtRc_51.mp4	0.0	75.17461585998535	
7	17.549479007720947	movie	1		301.0	5.0	2.5	/experiments/knapen_aot/videos/R_S_yt-cjndulbUtRc_51.mp4	0.0	75.18277096748352	2.508284091949463
7	19.949547052383423	response	1	4		5.0	2.5	/experiments/knapen_aot/videos/R_S_yt-cjndulbUtRc_51.mp4	0.0	77.582839012146	
7	20.05776309967041	fix_post	2		12.0	5.0	2.5	/experiments/knapen_aot/videos/R_S_yt-cjndulbUtRc_51.mp4	0.0	77.69105505943298	0.10002899169921875
8	20.15779209136963	fix_pre	0		91.0	6.0	2.5	/experiments/knapen_aot/videos/R_S_Y003_C009_SDR_2K_AVC.mp4	0.0	77.7910840511322	0.7583589553833008
8	20.907949924468994	response	0	4		6.0	2.5	/experiments/knapen_aot/videos/R_S_Y003_C009_SDR_2K_AVC.mp4	0.0	78.54124188423157	
8	20.91615104675293	movie	1		177.0	6.0	2.5	/experiments/knapen_aot/videos/R_S_Y003_C009_SDR_2K_AVC.mp4	0.0	78.5494430065155	2.50833797454834
8	23.42448902130127	fix_post	2		12.0	6.0	2.5	/experiments/knapen_aot/videos/R_S_Y003_C009_SDR_2K_AVC.mp4	0.0	81.05778098106384	0.09999990463256836
9	23.524488925933838	fix_pre	0		57.0	7.0	2.5	blank	1.0	81.15778088569641	0.4749171733856201
9	23.991286993026733	response	0	4		7.0	2.5	blank	1.0	81.6245789527893	
9	23.999406099319458	movie	1		301.0	7.0	2.5	blank	1.0	81.63269805908203	2.5084118843078613
9	26.50781798362732	fix_post	2		12.0	7.0	2.5	blank	1.0	84.14110994338989	0.10004401206970215
10	26.60786199569702	fix_pre	0		51.0	8.0	2.5	/experiments/knapen_aot/videos/R_S_yt-Gc1p5CnDbDY_22.mp4	0.0	84.2411539554596	0.4249420166015625
10	27.024492979049683	response	0	4		8.0	2.5	/experiments/knapen_aot/videos/R_S_yt-Gc1p5CnDbDY_22.mp4	0.0	84.65778493881226	
10	27.032804012298584	movie	1		301.0	8.0	2.5	/experiments/knapen_aot/videos/R_S_yt-Gc1p5CnDbDY_22.mp4	0.0	84.66609597206116	2.508349895477295
10	29.34127902984619	response	1	4		8.0	2.5	/experiments/knapen_aot/videos/R_S_yt-Gc1p5CnDbDY_22.mp4	0.0	86.97457098960876	
10	29.54115390777588	fix_post	2		12.0	8.0	2.5	/experiments/knapen_aot/videos/R_S_yt-Gc1p5CnDbDY_22.mp4	0.0	87.17444586753845	0.10006308555603027
11	29.64121699333191	fix_pre	0		217.0	9.0	2.5	/experiments/knapen_aot/videos/S_yt-BAQ3Xhm_PPE_23.mp4	0.0	87.27450895309448	1.8082070350646973
11	31.44122004508972	response	0	4		9.0	2.5	/experiments/knapen_aot/videos/S_yt-BAQ3Xhm_PPE_23.mp4	0.0	89.0745120048523	
11	31.449424028396606	movie	1		301.0	9.0	2.5	/experiments/knapen_aot/videos/S_yt-BAQ3Xhm_PPE_23.mp4	0.0	89.08271598815918	2.5083320140838623
11	33.95775604248047	fix_post	2		12.0	9.0	2.5	/experiments/knapen_aot/videos/S_yt-BAQ3Xhm_PPE_23.mp4	0.0	91.59104800224304	0.1000070571899414
12	34.05776309967041	fix_pre	0		86.0	10.0	2.5	/experiments/knapen_aot/videos/S_yt-NLfzvAJgyJ4_120.mp4	0.0	91.69105505943298	0.7178950309753418
12	34.76618003845215	response	0	4		10.0	2.5	/experiments/knapen_aot/videos/S_yt-NLfzvAJgyJ4_120.mp4	0.0	92.39947199821472	
12	34.77565813064575	movie	1		301.0	10.0	2.5	/experiments/knapen_aot/videos/S_yt-NLfzvAJgyJ4_120.mp4	0.0	92.40895009040833	2.5071229934692383
12	37.28278112411499	fix_post	2		12.0	10.0	2.5	/experiments/knapen_aot/videos/S_yt-NLfzvAJgyJ4_120.mp4	0.0	94.91607308387756	0.09998893737792969
13	37.38277006149292	fix_pre	0		24.0	11.0	2.5	/experiments/knapen_aot/videos/R_S_yt-xKteiAi5h7Q_36.mp4	0.0	95.0160620212555	0.19997406005859375
13	37.57457399368286	response	0	4		11.0	2.5	/experiments/knapen_aot/videos/R_S_yt-xKteiAi5h7Q_36.mp4	0.0	95.20786595344543	
13	37.582744121551514	movie	1		301.0	11.0	2.5	/experiments/knapen_aot/videos/R_S_yt-xKteiAi5h7Q_36.mp4	0.0	95.21603608131409	2.5082318782806396
13	40.09097599983215	fix_post	2		12.0	11.0	2.5	/experiments/knapen_aot/videos/R_S_yt-xKteiAi5h7Q_36.mp4	0.0	97.72426795959473	0.10002994537353516
14	40.19100594520569	fix_pre	0		32.0	12.0	2.5	/experiments/knapen_aot/videos/S_yt-O6FS0xnF0CU_106.mp4	0.0	97.82429790496826	0.26670098304748535
14	40.44953107833862	response	0	4		12.0	2.5	/experiments/knapen_aot/videos/S_yt-O6FS0xnF0CU_106.mp4	0.0	98.0828230381012	
14	40.457706928253174	movie	1		301.0	12.0	2.5	/experiments/knapen_aot/videos/S_yt-O6FS0xnF0CU_106.mp4	0.0	98.09099888801575	2.50829815864563
14	42.966005086898804	fix_post	2		12.0	12.0	2.5	/experiments/knapen_aot/videos/S_yt-O6FS0xnF0CU_106.mp4	0.0	100.59929704666138	0.1000678539276123
15	43.066072940826416	fix_pre	0		37.0	13.0	2.5	/experiments/knapen_aot/videos/R_S_video_inspire_uk_edinburgh_arthursseat_010.1080-h264.mp4	0.0	100.69936490058899	0.3083310127258301
15	43.36622595787048	response	0	4		13.0	2.5	/experiments/knapen_aot/videos/R_S_video_inspire_uk_edinburgh_arthursseat_010.1080-h264.mp4	0.0	100.99951791763306	
15	43.374403953552246	movie	1		171.0	13.0	2.5	/experiments/knapen_aot/videos/R_S_video_inspire_uk_edinburgh_arthursseat_010.1080-h264.mp4	0.0	101.00769591331482	2.5082180500030518
15	45.8826220035553	fix_post	2		12.0	13.0	2.5	/experiments/knapen_aot/videos/R_S_video_inspire_uk_edinburgh_arthursseat_010.1080-h264.mp4	0.0	103.51591396331787	0.10009312629699707
16	45.982715129852295	fix_pre	0		313.0	14.0	2.5	blank	1.0	103.61600708961487	2.60831880569458
16	48.57532095909119	response	0	4		14.0	2.5	blank	1.0	106.20861291885376	
16	48.591033935546875	movie	1		301.0	14.0	2.5	blank	1.0	106.22432589530945	2.508385181427002
16	51.09941911697388	fix_post	2		11.0	14.0	2.5	blank	1.0	108.73271107673645	0.09273099899291992
16	51.16770601272583	response	2	4		14.0	2.5	blank	1.0	108.8009979724884	
17	51.1921501159668	fix_pre	0		61.0	15.0	2.5	/experiments/knapen_aot/videos/S_yt-8vm83GUgYxI_1.mp4	0.0	108.82544207572937	0.5071969032287598
17	51.691121101379395	response	0	4		15.0	2.5	/experiments/knapen_aot/videos/S_yt-8vm83GUgYxI_1.mp4	0.0	109.32441306114197	
17	51.69934701919556	movie	1		300.0	15.0	2.5	/experiments/knapen_aot/videos/S_yt-8vm83GUgYxI_1.mp4	0.0	109.33263897895813	2.5036909580230713
17	54.20303797721863	fix_post	2		12.0	15.0	2.5	/experiments/knapen_aot/videos/S_yt-8vm83GUgYxI_1.mp4	0.0	111.8363299369812	0.10041594505310059
18	54.30345392227173	fix_pre	0		62.0	16.0	2.5	/experiments/knapen_aot/videos/S_yt-tX3slAQb9yY_13.mp4	0.0	111.9367458820343	0.5190839767456055
18	54.81331706047058	response	0	4		16.0	2.5	/experiments/knapen_aot/videos/S_yt-tX3slAQb9yY_13.mp4	0.0	112.44660902023315	
18	54.822537899017334	movie	1		296.0	16.0	2.5	/experiments/knapen_aot/videos/S_yt-tX3slAQb9yY_13.mp4	0.0	112.45582985877991	2.5062320232391357
18	57.32876992225647	fix_post	2		12.0	16.0	2.5	/experiments/knapen_aot/videos/S_yt-tX3slAQb9yY_13.mp4	0.0	114.96206188201904	0.10027408599853516
19	57.429044008255005	fix_pre	0		791.0	17.0	2.5	/experiments/knapen_aot/videos/R_S_TYs22gin-EU_57.mp4	0.0	115.06233596801758	6.611014127731323
19	64.03162002563477	response	0	4		17.0	2.5	/experiments/knapen_aot/videos/R_S_TYs22gin-EU_57.mp4	0.0	121.66491198539734	
19	64.04005813598633	movie	1		296.0	17.0	2.5	/experiments/knapen_aot/videos/R_S_TYs22gin-EU_57.mp4	0.0	121.6733500957489	2.507039785385132
19	66.54709792137146	fix_post	2		12.0	17.0	2.5	/experiments/knapen_aot/videos/R_S_TYs22gin-EU_57.mp4	0.0	124.18038988113403	0.10035514831542969
20	66.64745306968689	fix_pre	0		973.0	18.0	2.5	/experiments/knapen_aot/videos/R_S_yt-c5KPuyzO-50_4.mp4	0.0	124.28074502944946	8.131829977035522
20	74.77113008499146	response	0	4		18.0	2.5	/experiments/knapen_aot/videos/R_S_yt-c5KPuyzO-50_4.mp4	0.0	132.40442204475403	
20	74.77928304672241	movie	1		296.0	18.0	2.5	/experiments/knapen_aot/videos/R_S_yt-c5KPuyzO-50_4.mp4	0.0	132.41257500648499	2.507277011871338
20	77.28656005859375	fix_post	2		12.0	18.0	2.5	/experiments/knapen_aot/videos/R_S_yt-c5KPuyzO-50_4.mp4	0.0	134.91985201835632	0.10032796859741211
21	77.38688802719116	fix_pre	0		33.0	19.0	2.5	/experiments/knapen_aot/videos/R_S_yt-eoASPwIAiHY_244.mp4	0.0	135.02017998695374	0.2757899761199951
21	77.654452085495	response	0	4		19.0	2.5	/experiments/knapen_aot/videos/R_S_yt-eoASPwIAiHY_244.mp4	0.0	135.28774404525757	
21	77.66267800331116	movie	1		292.0	19.0	2.5	/experiments/knapen_aot/videos/R_S_yt-eoASPwIAiHY_244.mp4	0.0	135.29596996307373	2.507291078567505
21	80.16996908187866	fix_post	2		12.0	19.0	2.5	/experiments/knapen_aot/videos/R_S_yt-eoASPwIAiHY_244.mp4	0.0	137.80326104164124	0.1002190113067627
22	80.27018809318542	fix_pre	0		33.0	20.0	2.5	blank	1.0	137.903480052948	0.27582597732543945
22	80.53784990310669	response	0	4		20.0	2.5	blank	1.0	138.17114186286926	
22	80.54601407051086	movie	1		300.0	20.0	2.5	blank	1.0	138.17930603027344	2.5073108673095703
22	83.05332493782043	fix_post	2		12.0	20.0	2.5	blank	1.0	140.686616897583	0.10019516944885254
23	83.15352010726929	fix_pre	0		69.0	21.0	2.5	/experiments/knapen_aot/videos/R_S_TYs22gin-EU_57.mp4	0.0	140.78681206703186	0.5766918659210205
23	83.72197198867798	response	0	4		21.0	2.5	/experiments/knapen_aot/videos/R_S_TYs22gin-EU_57.mp4	0.0	141.35526394844055	
23	83.73021197319031	movie	1		299.0	21.0	2.5	/experiments/knapen_aot/videos/R_S_TYs22gin-EU_57.mp4	0.0	141.36350393295288	2.5072710514068604
23	86.23748302459717	fix_post	2		12.0	21.0	2.5	/experiments/knapen_aot/videos/R_S_TYs22gin-EU_57.mp4	0.0	143.87077498435974	0.1003260612487793
24	86.33780908584595	fix_pre	0		651.0	22.0	2.5	/experiments/knapen_aot/videos/S_video-10.mp4	0.0	143.97110104560852	5.440711975097656
24	91.77023792266846	response	0	4		22.0	2.5	/experiments/knapen_aot/videos/S_video-10.mp4	0.0	149.40352988243103	
24	91.7785210609436	movie	1		165.0	22.0	2.5	/experiments/knapen_aot/videos/S_video-10.mp4	0.0	149.41181302070618	2.5072989463806152
24	94.28582000732422	fix_post	2		12.0	22.0	2.5	/experiments/knapen_aot/videos/S_video-10.mp4	0.0	151.9191119670868	0.10023903846740723
25	94.38605904579163	fix_pre	0		57.0	23.0	2.5	/experiments/knapen_aot/videos/R_S_yt-8vm83GUgYxI_1.mp4	0.0	152.0193510055542	0.47641801834106445
25	94.85437512397766	response	0	4		23.0	2.5	/experiments/knapen_aot/videos/R_S_yt-8vm83GUgYxI_1.mp4	0.0	152.48766708374023	
25	94.86247706413269	movie	1		296.0	23.0	2.5	/experiments/knapen_aot/videos/R_S_yt-8vm83GUgYxI_1.mp4	0.0	152.49576902389526	2.5072379112243652
25	97.36971497535706	fix_post	2		12.0	23.0	2.5	/experiments/knapen_aot/videos/R_S_yt-8vm83GUgYxI_1.mp4	0.0	155.00300693511963	0.10040402412414551
26	97.4701189994812	fix_pre	0		79.0	24.0	2.5	/experiments/knapen_aot/videos/R_S_video-10.mp4	0.0	155.10341095924377	0.6600830554962158
26	98.12214493751526	response	0	4		24.0	2.5	/experiments/knapen_aot/videos/R_S_video-10.mp4	0.0	155.75543689727783	
26	98.13020205497742	movie	1		167.0	24.0	2.5	/experiments/knapen_aot/videos/R_S_video-10.mp4	0.0	155.76349401474	2.507395029067993
26	100.63759708404541	fix_post	2		12.0	24.0	2.5	/experiments/knapen_aot/videos/R_S_video-10.mp4	0.0	158.27088904380798	0.10031485557556152
27	100.73791193962097	fix_pre	0		385.0	25.0	2.5	/experiments/knapen_aot/videos/S_yt-mHLTJkMrkZI_143.mp4	0.0	158.37120389938354	3.2175960540771484
27	103.93963408470154	response	0	4		25.0	2.5	/experiments/knapen_aot/videos/S_yt-mHLTJkMrkZI_143.mp4	0.0	161.5729260444641	
27	103.95550799369812	movie	1		291.0	25.0	2.5	/experiments/knapen_aot/videos/S_yt-mHLTJkMrkZI_143.mp4	0.0	161.5887999534607	2.5042481422424316
27	106.45975613594055	fix_post	2		12.0	25.0	2.5	/experiments/knapen_aot/videos/S_yt-mHLTJkMrkZI_143.mp4	0.0	164.09304809570312	0.10581779479980469
28	106.56557393074036	fix_pre	0		325.0	26.0	2.5	blank	1.0	164.19886589050293	2.866469144821167
28	109.42329406738281	response	0	4		26.0	2.5	blank	1.0	167.05658602714539	
28	109.43204307556152	movie	1		284.0	26.0	2.5	blank	1.0	167.0653350353241	2.504910945892334
28	111.93695402145386	fix_post	2		11.0	26.0	2.5	blank	1.0	169.57024598121643	0.09697890281677246
29	112.03393292427063	fix_pre	0		90.0	27.0	2.5	/experiments/knapen_aot/videos/R_S_4_D1iUb87uE_15.mp4	0.0	169.6672248840332	0.7938230037689209
29	112.81910610198975	response	0	4		27.0	2.5	/experiments/knapen_aot/videos/R_S_4_D1iUb87uE_15.mp4	0.0	170.45239806175232	
29	112.82775592803955	movie	1		284.0	27.0	2.5	/experiments/knapen_aot/videos/R_S_4_D1iUb87uE_15.mp4	0.0	170.46104788780212	2.504852056503296
29	115.33260798454285	fix_post	2		12.0	27.0	2.5	/experiments/knapen_aot/videos/R_S_4_D1iUb87uE_15.mp4	0.0	172.96589994430542	0.10585403442382812
30	115.43846201896667	fix_pre	0		81.0	28.0	2.5	/experiments/knapen_aot/videos/S_yt-HFiRYTnMZxE_338.mp4	0.0	173.07175397872925	0.7143919467926025
30	116.14428901672363	response	0	4		28.0	2.5	/experiments/knapen_aot/videos/S_yt-HFiRYTnMZxE_338.mp4	0.0	173.7775809764862	
30	116.15285396575928	movie	1		284.0	28.0	2.5	/experiments/knapen_aot/videos/S_yt-HFiRYTnMZxE_338.mp4	0.0	173.78614592552185	2.504831075668335
30	118.65768504142761	fix_post	2		12.0	28.0	2.5	/experiments/knapen_aot/videos/S_yt-HFiRYTnMZxE_338.mp4	0.0	176.29097700119019	0.1058800220489502
31	118.76356506347656	fix_pre	0		43.0	29.0	2.5	/experiments/knapen_aot/videos/S_yt-4Qz0m5IYh10_167.mp4	0.0	176.39685702323914	0.37992095947265625
31	119.13407802581787	response	0	4		29.0	2.5	/experiments/knapen_aot/videos/S_yt-4Qz0m5IYh10_167.mp4	0.0	176.76736998558044	
31	119.14348602294922	movie	1		279.0	29.0	2.5	/experiments/knapen_aot/videos/S_yt-4Qz0m5IYh10_167.mp4	0.0	176.7767779827118	2.504348039627075
31	121.6478340625763	fix_post	2		11.0	29.0	2.5	/experiments/knapen_aot/videos/S_yt-4Qz0m5IYh10_167.mp4	0.0	179.28112602233887	0.0968179702758789
32	121.74465203285217	fix_pre	0		11.0	30.0	2.5	/experiments/knapen_aot/videos/S_yt-ZYrQIw9VUok_111.mp4	0.0	179.37794399261475	0.09703302383422852
32	121.8250470161438	response	0	4		30.0	2.5	/experiments/knapen_aot/videos/S_yt-ZYrQIw9VUok_111.mp4	0.0	179.45833897590637	
32	121.8416850566864	movie	1		282.0	30.0	2.5	/experiments/knapen_aot/videos/S_yt-ZYrQIw9VUok_111.mp4	0.0	179.47497701644897	2.5048129558563232
32	124.34649801254272	fix_post	2		11.0	30.0	2.5	/experiments/knapen_aot/videos/S_yt-ZYrQIw9VUok_111.mp4	0.0	181.9797899723053	0.09704399108886719
33	124.44354200363159	fix_pre	0		294.0	31.0	2.5	/experiments/knapen_aot/videos/S_yt-_Hnr82bYGEQ_103.mp4	0.0	182.07683396339417	2.5937070846557617
33	127.02014303207397	response	0	4		31.0	2.5	/experiments/knapen_aot/videos/S_yt-_Hnr82bYGEQ_103.mp4	0.0	184.65343499183655	
33	127.03724908828735	movie	1		284.0	31.0	2.5	/experiments/knapen_aot/videos/S_yt-_Hnr82bYGEQ_103.mp4	0.0	184.67054104804993	2.5041799545288086
33	129.54142904281616	fix_post	2		11.0	31.0	2.5	/experiments/knapen_aot/videos/S_yt-_Hnr82bYGEQ_103.mp4	0.0	187.17472100257874	0.09702491760253906
34	129.6384539604187	fix_pre	0		137.0	32.0	2.5	/experiments/knapen_aot/videos/S_yt-oT4Bq8zYN4E_42.mp4	0.0	187.27174592018127	1.2083430290222168
34	130.83818292617798	response	0	4		32.0	2.5	/experiments/knapen_aot/videos/S_yt-oT4Bq8zYN4E_42.mp4	0.0	188.47147488594055	
34	130.84679698944092	movie	1		299.0	32.0	2.5	/experiments/knapen_aot/videos/S_yt-oT4Bq8zYN4E_42.mp4	0.0	188.4800889492035	2.5090601444244385
34	133.35585713386536	fix_post	2		12.0	32.0	2.5	/experiments/knapen_aot/videos/S_yt-oT4Bq8zYN4E_42.mp4	0.0	190.98914909362793	0.10001993179321289
35	133.45587706565857	fix_pre	0		155.0	33.0	2.5	blank	1.0	191.08916902542114	1.2915840148925781
35	134.7393250465393	response	0	4		33.0	2.5	blank	1.0	192.37261700630188	
35	134.74746108055115	movie	1		301.0	33.0	2.5	blank	1.0	192.38075304031372	2.508378028869629
35	137.25583910942078	fix_post	2		12.0	33.0	2.5	blank	1.0	194.88913106918335	0.09999895095825195
36	137.35583806037903	fix_pre	0		20.0	34.0	2.5	/experiments/knapen_aot/videos/S_yt-t8NfuFA7OlM_26.mp4	0.0	194.9891300201416	0.16660690307617188
36	137.51431393623352	response	0	4		34.0	2.5	/experiments/knapen_aot/videos/S_yt-t8NfuFA7OlM_26.mp4	0.0	195.1476058959961	
36	137.5224449634552	movie	1		301.0	34.0	2.5	/experiments/knapen_aot/videos/S_yt-t8NfuFA7OlM_26.mp4	0.0	195.15573692321777	2.508432149887085
36	140.03087711334229	fix_post	2		12.0	34.0	2.5	/experiments/knapen_aot/videos/S_yt-t8NfuFA7OlM_26.mp4	0.0	197.66416907310486	0.09995579719543457
37	140.13083291053772	fix_pre	0		46.0	35.0	2.5	/experiments/knapen_aot/videos/S_yt-WrwPgZYBXlA_34.mp4	0.0	197.7641248703003	0.3838660717010498
37	140.50598001480103	response	0	4		35.0	2.5	/experiments/knapen_aot/videos/S_yt-WrwPgZYBXlA_34.mp4	0.0	198.1392719745636	
37	140.51469898223877	movie	1		301.0	35.0	2.5	/experiments/knapen_aot/videos/S_yt-WrwPgZYBXlA_34.mp4	0.0	198.14799094200134	2.507779121398926
37	143.0224781036377	fix_post	2		12.0	35.0	2.5	/experiments/knapen_aot/videos/S_yt-WrwPgZYBXlA_34.mp4	0.0	200.65577006340027	0.10003280639648438
38	143.12251091003418	fix_pre	0		29.0	36.0	2.5	/experiments/knapen_aot/videos/R_S_pexels-pavel-danilyuk-8057714.mp4	0.0	200.75580286979675	0.24164819717407227
38	143.35600900650024	response	0	4		36.0	2.5	/experiments/knapen_aot/videos/R_S_pexels-pavel-danilyuk-8057714.mp4	0.0	200.98930096626282	
38	143.36415910720825	movie	1		166.0	36.0	2.5	/experiments/knapen_aot/videos/R_S_pexels-pavel-danilyuk-8057714.mp4	0.0	200.99745106697083	2.508302927017212
38	145.87246203422546	fix_post	2		12.0	36.0	2.5	/experiments/knapen_aot/videos/R_S_pexels-pavel-danilyuk-8057714.mp4	0.0	203.50575399398804	0.09996509552001953
39	145.97242712974548	fix_pre	0		25.0	37.0	2.5	/experiments/knapen_aot/videos/S_yt-O6FS0xnF0CU_106.mp4	0.0	203.60571908950806	0.2088639736175537
39	146.17252707481384	response	0	4		37.0	2.5	/experiments/knapen_aot/videos/S_yt-O6FS0xnF0CU_106.mp4	0.0	203.80581903457642	
39	146.18129110336304	movie	1		299.0	37.0	2.5	/experiments/knapen_aot/videos/S_yt-O6FS0xnF0CU_106.mp4	0.0	203.8145830631256	2.5078279972076416
39	148.68911910057068	fix_post	2		12.0	37.0	2.5	/experiments/knapen_aot/videos/S_yt-O6FS0xnF0CU_106.mp4	0.0	206.32241106033325	0.10000085830688477
40	148.78911995887756	fix_pre	0		22.0	38.0	2.5	/experiments/knapen_aot/videos/S_ILSVRC2015_train_00569006.mp4	0.0	206.42241191864014	0.18382906913757324
40	148.96415996551514	response	0	4		38.0	2.5	/experiments/knapen_aot/videos/S_ILSVRC2015_train_00569006.mp4	0.0	206.5974519252777	
40	148.97294902801514	movie	1		301.0	38.0	2.5	/experiments/knapen_aot/videos/S_ILSVRC2015_train_00569006.mp4	0.0	206.6062409877777	2.5079689025878906
40	151.48091793060303	fix_post	2		12.0	38.0	2.5	/experiments/knapen_aot/videos/S_ILSVRC2015_train_00569006.mp4	0.0	209.1142098903656	0.09987020492553711
41	151.58078813552856	fix_pre	0		37.0	39.0	2.5	/experiments/knapen_aot/videos/R_S_yt-fQGoTMausn8_88.mp4	0.0	209.21408009529114	0.3087959289550781
41	151.88085103034973	response	0	4		39.0	2.5	/experiments/knapen_aot/videos/R_S_yt-fQGoTMausn8_88.mp4	0.0	209.5141429901123	
41	151.88958406448364	movie	1		301.0	39.0	2.5	/experiments/knapen_aot/videos/R_S_yt-fQGoTMausn8_88.mp4	0.0	209.52287602424622	2.507838010787964
41	154.3974220752716	fix_post	2		12.0	39.0	2.5	/experiments/knapen_aot/videos/R_S_yt-fQGoTMausn8_88.mp4	0.0	212.03071403503418	0.09999704360961914
42	154.49741911888123	fix_pre	0		28.0	40.0	2.5	blank	1.0	212.1307110786438	0.23334598541259766
42	154.7225890159607	response	0	4		40.0	2.5	blank	1.0	212.35588097572327	
42	154.73076510429382	movie	1		301.0	40.0	2.5	blank	1.0	212.3640570640564	2.5082318782806396
42	157.23899698257446	fix_post	2		12.0	40.0	2.5	blank	1.0	214.87228894233704	0.10006308555603027
43	157.3390600681305	fix_pre	0		22.0	41.0	2.5	/experiments/knapen_aot/videos/R_S_-vPHq-7BJ70_15.mp4	0.0	214.97235202789307	0.18332695960998535
43	157.51410913467407	response	0	4		41.0	2.5	/experiments/knapen_aot/videos/R_S_-vPHq-7BJ70_15.mp4	0.0	215.14740109443665	
43	157.52238702774048	movie	1		301.0	41.0	2.5	/experiments/knapen_aot/videos/R_S_-vPHq-7BJ70_15.mp4	0.0	215.15567898750305	2.508359909057617
43	160.0307469367981	fix_post	2		12.0	41.0	2.5	/experiments/knapen_aot/videos/R_S_-vPHq-7BJ70_15.mp4	0.0	217.66403889656067	0.09991216659545898
44	160.13065910339355	fix_pre	0		29.0	42.0	2.5	/experiments/knapen_aot/videos/S_yt-vQGD-rJyMw4_166.mp4	0.0	217.76395106315613	0.2417140007019043
44	160.36418509483337	response	0	4		42.0	2.5	/experiments/knapen_aot/videos/S_yt-vQGD-rJyMw4_166.mp4	0.0	217.99747705459595	
44	160.37237310409546	movie	1		301.0	42.0	2.5	/experiments/knapen_aot/videos/S_yt-vQGD-rJyMw4_166.mp4	0.0	218.00566506385803	2.508283853530884
44	162.88065695762634	fix_post	2		12.0	42.0	2.5	/experiments/knapen_aot/videos/S_yt-vQGD-rJyMw4_166.mp4	0.0	220.51394891738892	0.10010194778442383
45	162.98075890541077	fix_pre	0		269.0	43.0	2.5	/experiments/knapen_aot/videos/R_S_ILSVRC2015_train_00251004.mp4	0.0	220.61405086517334	2.2420542240142822
45	165.21416401863098	response	0	4		43.0	2.5	/experiments/knapen_aot/videos/R_S_ILSVRC2015_train_00251004.mp4	0.0	222.84745597839355	
45	165.22281312942505	movie	1		301.0	43.0	2.5	/experiments/knapen_aot/videos/R_S_ILSVRC2015_train_00251004.mp4	0.0	222.85610508918762	2.507906913757324
45	167.73072004318237	fix_post	2		12.0	43.0	2.5	/experiments/knapen_aot/videos/R_S_ILSVRC2015_train_00251004.mp4	0.0	225.36401200294495	0.09999394416809082
46	167.83071398735046	fix_pre	0		44.0	44.0	2.5	/experiments/knapen_aot/videos/R_S_comp_GL_G010_C006_PSNK_NOSUN_v12_SDR_PS_FINAL_20180709_SDR_2K_AVC.mp4	0.0	225.46400594711304	0.36661601066589355
46	168.18913006782532	response	0	4		44.0	2.5	/experiments/knapen_aot/videos/R_S_comp_GL_G010_C006_PSNK_NOSUN_v12_SDR_PS_FINAL_20180709_SDR_2K_AVC.mp4	0.0	225.8224220275879	
46	168.19732999801636	movie	1		161.0	44.0	2.5	/experiments/knapen_aot/videos/R_S_comp_GL_G010_C006_PSNK_NOSUN_v12_SDR_PS_FINAL_20180709_SDR_2K_AVC.mp4	0.0	225.83062195777893	2.504863977432251
46	170.7021939754486	fix_post	2		12.0	44.0	2.5	/experiments/knapen_aot/videos/R_S_comp_GL_G010_C006_PSNK_NOSUN_v12_SDR_PS_FINAL_20180709_SDR_2K_AVC.mp4	0.0	228.33548593521118	0.10034012794494629
47	170.80253410339355	fix_pre	0		44.0	45.0	2.5	/experiments/knapen_aot/videos/R_S_yt-V5iQ3MbihnI_103.mp4	0.0	228.43582606315613	0.3680570125579834
47	171.15492296218872	response	0	4		45.0	2.5	/experiments/knapen_aot/videos/R_S_yt-V5iQ3MbihnI_103.mp4	0.0	228.7882149219513	
47	171.17059111595154	movie	1		298.0	45.0	2.5	/experiments/knapen_aot/videos/R_S_yt-V5iQ3MbihnI_103.mp4	0.0	228.8038830757141	2.5097479820251465
47	173.21207094192505	response	1	4		45.0	2.5	/experiments/knapen_aot/videos/R_S_yt-V5iQ3MbihnI_103.mp4	0.0	230.84536290168762	
47	173.68033909797668	fix_post	2		11.0	45.0	2.5	/experiments/knapen_aot/videos/R_S_yt-V5iQ3MbihnI_103.mp4	0.0	231.31363105773926	0.09202003479003906
48	173.77235913276672	fix_pre	0		30.0	46.0	2.5	/experiments/knapen_aot/videos/S_yt-cG2qDR5ka5w_119.mp4	0.0	231.4056510925293	0.25092387199401855
48	174.01507806777954	response	0	4		46.0	2.5	/experiments/knapen_aot/videos/S_yt-cG2qDR5ka5w_119.mp4	0.0	231.64837002754211	
48	174.02328300476074	movie	1		300.0	46.0	2.5	/experiments/knapen_aot/videos/S_yt-cG2qDR5ka5w_119.mp4	0.0	231.65657496452332	2.5097250938415527
48	176.5330080986023	fix_post	2		11.0	46.0	2.5	/experiments/knapen_aot/videos/S_yt-cG2qDR5ka5w_119.mp4	0.0	234.16630005836487	0.09202694892883301
49	176.62503504753113	fix_pre	0		117.0	47.0	2.5	/experiments/knapen_aot/videos/S_ILSVRC2015_train_00599000.mp4	0.0	234.2583270072937	0.978801965713501
49	177.59565091133118	response	0	4		47.0	2.5	/experiments/knapen_aot/videos/S_ILSVRC2015_train_00599000.mp4	0.0	235.22894287109375	
49	177.60383701324463	movie	1		299.0	47.0	2.5	/experiments/knapen_aot/videos/S_ILSVRC2015_train_00599000.mp4	0.0	235.2371289730072	2.5097439289093018
49	179.09351992607117	response	1	4		47.0	2.5	/experiments/knapen_aot/videos/S_ILSVRC2015_train_00599000.mp4	0.0	236.72681188583374	
49	180.11358094215393	fix_post	2		11.0	47.0	2.5	/experiments/knapen_aot/videos/S_ILSVRC2015_train_00599000.mp4	0.0	237.7468729019165	0.09196209907531738
50	180.20554304122925	fix_pre	0		10.0	48.0	2.5	/experiments/knapen_aot/videos/R_S_yt-kNZUFy3cbjQ_9.mp4	0.0	237.83883500099182	0.08371186256408691
50	180.28099703788757	response	0	4		48.0	2.5	/experiments/knapen_aot/videos/R_S_yt-kNZUFy3cbjQ_9.mp4	0.0	237.91428899765015	
50	180.28925490379333	movie	1		294.0	48.0	2.5	/experiments/knapen_aot/videos/R_S_yt-kNZUFy3cbjQ_9.mp4	0.0	237.9225468635559	2.5096731185913086
50	182.79892802238464	fix_post	2		11.0	48.0	2.5	/experiments/knapen_aot/videos/R_S_yt-kNZUFy3cbjQ_9.mp4	0.0	240.43221998214722	0.0920250415802002
51	182.89095306396484	fix_pre	0		37.0	49.0	2.5	blank	1.0	240.52424502372742	0.30957484245300293
51	183.19232892990112	response	0	4		49.0	2.5	blank	1.0	240.8256208896637	
51	183.20052790641785	movie	1		300.0	49.0	2.5	blank	1.0	240.83381986618042	2.5096640586853027
51	185.71019196510315	fix_post	2		12.0	49.0	2.5	blank	1.0	243.34348392486572	0.10034394264221191
52	185.81053590774536	fix_pre	0		20.0	50.0	2.5	/experiments/knapen_aot/videos/R_S_yt-QD74nNliDvI_10.mp4	0.0	243.44382786750793	0.16735100746154785
52	185.96213793754578	response	0	4		50.0	2.5	/experiments/knapen_aot/videos/R_S_yt-QD74nNliDvI_10.mp4	0.0	243.59542989730835	
52	185.9778869152069	movie	1		297.0	50.0	2.5	/experiments/knapen_aot/videos/R_S_yt-QD74nNliDvI_10.mp4	0.0	243.61117887496948	2.5097270011901855
52	188.4876139163971	fix_post	2		11.0	50.0	2.5	/experiments/knapen_aot/videos/R_S_yt-QD74nNliDvI_10.mp4	0.0	246.12090587615967	0.09214305877685547
53	188.57975697517395	fix_pre	0		16.0	51.0	2.5	/experiments/knapen_aot/videos/S_yt-ZE8Af60eNsI_15.mp4	0.0	246.21304893493652	0.13410711288452148
53	188.70528197288513	response	0	4		51.0	2.5	/experiments/knapen_aot/videos/S_yt-ZE8Af60eNsI_15.mp4	0.0	246.3385739326477	
53	188.71386408805847	movie	1		299.0	51.0	2.5	/experiments/knapen_aot/videos/S_yt-ZE8Af60eNsI_15.mp4	0.0	246.34715604782104	2.5096800327301025
53	191.22354412078857	fix_post	2		11.0	51.0	2.5	/experiments/knapen_aot/videos/S_yt-ZE8Af60eNsI_15.mp4	0.0	248.85683608055115	0.09164285659790039
54	191.31518697738647	fix_pre	0		24.0	52.0	2.5	/experiments/knapen_aot/videos/S_yt-EZCX42e_bkc_78.mp4	0.0	248.94847893714905	0.20111894607543945
54	191.50771403312683	response	0	4		52.0	2.5	/experiments/knapen_aot/videos/S_yt-EZCX42e_bkc_78.mp4	0.0	249.1410059928894	
54	191.5163059234619	movie	1		299.0	52.0	2.5	/experiments/knapen_aot/videos/S_yt-EZCX42e_bkc_78.mp4	0.0	249.1495978832245	2.5094211101531982
54	194.0257270336151	fix_post	2		11.0	52.0	2.5	/experiments/knapen_aot/videos/S_yt-EZCX42e_bkc_78.mp4	0.0	251.65901899337769	0.09196686744689941
55	194.117693901062	fix_pre	0		73.0	53.0	2.5	/experiments/knapen_aot/videos/R_S_production_ID_4269182.mp4	0.0	251.75098586082458	0.610680103302002
55	194.72020506858826	response	0	4		53.0	2.5	/experiments/knapen_aot/videos/R_S_production_ID_4269182.mp4	0.0	252.35349702835083	
55	194.728374004364	movie	1		180.0	53.0	2.5	/experiments/knapen_aot/videos/R_S_production_ID_4269182.mp4	0.0	252.3616659641266	2.509752035140991
55	197.238126039505	fix_post	2		11.0	53.0	2.5	/experiments/knapen_aot/videos/R_S_production_ID_4269182.mp4	0.0	254.87141799926758	0.09204792976379395
56	197.3301739692688	fix_pre	0		541.0	54.0	2.5	/experiments/knapen_aot/videos/R_S_yt-OLDm2slgfA4_3.mp4	0.0	254.96346592903137	4.525781154632568
56	201.84778594970703	response	0	4		54.0	2.5	/experiments/knapen_aot/videos/R_S_yt-OLDm2slgfA4_3.mp4	0.0	259.4810779094696	
56	201.85595512390137	movie	1		299.0	54.0	2.5	/experiments/knapen_aot/videos/R_S_yt-OLDm2slgfA4_3.mp4	0.0	259.48924708366394	2.5097808837890625
56	204.36573600769043	fix_post	2		11.0	54.0	2.5	/experiments/knapen_aot/videos/R_S_yt-OLDm2slgfA4_3.mp4	0.0	261.999027967453	0.09203195571899414
57	204.45776796340942	fix_pre	0		68.0	55.0	2.5	blank	1.0	262.091059923172	0.5691230297088623
57	205.01839900016785	response	0	4		55.0	2.5	blank	1.0	262.6516909599304	
57	205.0268909931183	movie	1		300.0	55.0	2.5	blank	1.0	262.66018295288086	2.509611129760742
57	207.53650212287903	fix_post	2		11.0	55.0	2.5	blank	1.0	265.1697940826416	0.09172391891479492
58	207.62822604179382	fix_pre	0		44.0	56.0	2.5	/experiments/knapen_aot/videos/S_yt-lazG9z4VQAw_99.mp4	0.0	265.2615180015564	0.36832594871520996
58	207.98816299438477	response	0	4		56.0	2.5	/experiments/knapen_aot/videos/S_yt-lazG9z4VQAw_99.mp4	0.0	265.62145495414734	
58	207.99655199050903	movie	1		299.0	56.0	2.5	/experiments/knapen_aot/videos/S_yt-lazG9z4VQAw_99.mp4	0.0	265.6298439502716	2.5095090866088867
58	210.50606107711792	fix_post	2		11.0	56.0	2.5	/experiments/knapen_aot/videos/S_yt-lazG9z4VQAw_99.mp4	0.0	268.1393530368805	0.09206390380859375
59	210.5981249809265	fix_pre	0		51.0	57.0	2.5	/experiments/knapen_aot/videos/S_ILSVRC2015_train_00251004.mp4	0.0	268.2314169406891	0.426624059677124
59	211.01656198501587	response	0	4		57.0	2.5	/experiments/knapen_aot/videos/S_ILSVRC2015_train_00251004.mp4	0.0	268.64985394477844	
59	211.02474904060364	movie	1		297.0	57.0	2.5	/experiments/knapen_aot/videos/S_ILSVRC2015_train_00251004.mp4	0.0	268.6580410003662	2.509690046310425
59	213.53443908691406	fix_post	2		11.0	57.0	2.5	/experiments/knapen_aot/videos/S_ILSVRC2015_train_00251004.mp4	0.0	271.16773104667664	0.09211397171020508
60	213.62655305862427	fix_pre	0		73.0	58.0	2.5	/experiments/knapen_aot/videos/R_S_yt-JTVyt-eu4VI_1.mp4	0.0	271.25984501838684	0.6106209754943848
60	214.22899293899536	response	0	4		58.0	2.5	/experiments/knapen_aot/videos/R_S_yt-JTVyt-eu4VI_1.mp4	0.0	271.86228489875793	
60	214.23717403411865	movie	1		299.0	58.0	2.5	/experiments/knapen_aot/videos/R_S_yt-JTVyt-eu4VI_1.mp4	0.0	271.8704659938812	2.5098280906677246
60	216.74700212478638	fix_post	2		11.0	58.0	2.5	/experiments/knapen_aot/videos/R_S_yt-JTVyt-eu4VI_1.mp4	0.0	274.38029408454895	0.0919339656829834
61	216.83893609046936	fix_pre	0		27.0	59.0	2.5	/experiments/knapen_aot/videos/R_S_yt-ThT8utBaywI_68.mp4	0.0	274.47222805023193	0.22588086128234863
61	217.05660796165466	response	0	4		59.0	2.5	/experiments/knapen_aot/videos/R_S_yt-ThT8utBaywI_68.mp4	0.0	274.68989992141724	
61	217.0648169517517	movie	1		300.0	59.0	2.5	/experiments/knapen_aot/videos/R_S_yt-ThT8utBaywI_68.mp4	0.0	274.6981089115143	2.509706974029541
61	219.57452392578125	fix_post	2		11.0	59.0	2.5	/experiments/knapen_aot/videos/R_S_yt-ThT8utBaywI_68.mp4	0.0	277.2078158855438	0.09219908714294434
62	219.6667230129242	fix_pre	0		75.0	60.0	2.5	/experiments/knapen_aot/videos/R_S_yt-mMnlzv6cfH4_134.mp4	0.0	277.30001497268677	0.627371072769165
62	220.27812695503235	response	0	4		60.0	2.5	/experiments/knapen_aot/videos/R_S_yt-mMnlzv6cfH4_134.mp4	0.0	277.9114189147949	
62	220.29409408569336	movie	1		300.0	60.0	2.5	/experiments/knapen_aot/videos/R_S_yt-mMnlzv6cfH4_134.mp4	0.0	277.92738604545593	2.5097179412841797
62	222.80381202697754	fix_post	2		11.0	60.0	2.5	/experiments/knapen_aot/videos/R_S_yt-mMnlzv6cfH4_134.mp4	0.0	280.4371039867401	0.09189295768737793
63	222.89570498466492	fix_pre	0		234.0	61.0	2.5	/experiments/knapen_aot/videos/R_S_OdxWh1oU8e8_1.mp4	0.0	280.5289969444275	1.9577109813690186
63	224.84504294395447	response	0	4		61.0	2.5	/experiments/knapen_aot/videos/R_S_OdxWh1oU8e8_1.mp4	0.0	282.47833490371704	
63	224.85341596603394	movie	1		300.0	61.0	2.5	/experiments/knapen_aot/videos/R_S_OdxWh1oU8e8_1.mp4	0.0	282.4867079257965	2.5097620487213135
63	227.36317801475525	fix_post	2		11.0	61.0	2.5	/experiments/knapen_aot/videos/R_S_OdxWh1oU8e8_1.mp4	0.0	284.9964699745178	0.09181690216064453
64	227.4549949169159	fix_pre	0		364.0	62.0	2.5	/experiments/knapen_aot/videos/S_yt-jcuaf9iSEkI_169.mp4	0.0	285.08828687667847	3.0452630519866943
64	230.49181604385376	response	0	4		62.0	2.5	/experiments/knapen_aot/videos/S_yt-jcuaf9iSEkI_169.mp4	0.0	288.12510800361633	
64	230.5002579689026	movie	1		298.0	62.0	2.5	/experiments/knapen_aot/videos/S_yt-jcuaf9iSEkI_169.mp4	0.0	288.13354992866516	2.5096559524536133
64	233.0099139213562	fix_post	2		11.0	62.0	2.5	/experiments/knapen_aot/videos/S_yt-jcuaf9iSEkI_169.mp4	0.0	290.6432058811188	0.09191012382507324
65	233.10182404518127	fix_pre	0		51.0	63.0	2.5	blank	1.0	290.73511600494385	0.4266500473022461
65	233.52023196220398	response	0	4		63.0	2.5	blank	1.0	291.15352392196655	
65	233.52847409248352	movie	1		300.0	63.0	2.5	blank	1.0	291.1617660522461	2.5065829753875732
65	236.0350570678711	fix_post	2		12.0	63.0	2.5	blank	1.0	293.66834902763367	0.10023283958435059
66	236.13528990745544	fix_pre	0		33.0	64.0	2.5	/experiments/knapen_aot/videos/S_ILSVRC2015_train_00219004.mp4	0.0	293.768581867218	0.2757411003112793
66	236.40294098854065	response	0	4		64.0	2.5	/experiments/knapen_aot/videos/S_ILSVRC2015_train_00219004.mp4	0.0	294.0362329483032	
66	236.41103100776672	movie	1		298.0	64.0	2.5	/experiments/knapen_aot/videos/S_ILSVRC2015_train_00219004.mp4	0.0	294.0443229675293	2.5067501068115234
66	238.91778111457825	fix_post	2		12.0	64.0	2.5	/experiments/knapen_aot/videos/S_ILSVRC2015_train_00219004.mp4	0.0	296.5510730743408	0.10012292861938477
67	239.01790404319763	fix_pre	0		50.0	65.0	2.5	/experiments/knapen_aot/videos/R_S_pexels-mart-production-7698911_1.mp4	0.0	296.6511960029602	0.4177429676055908
67	239.42743301391602	response	0	4		65.0	2.5	/experiments/knapen_aot/videos/R_S_pexels-mart-production-7698911_1.mp4	0.0	297.0607249736786	
67	239.43564701080322	movie	1		195.0	65.0	2.5	/experiments/knapen_aot/videos/R_S_pexels-mart-production-7698911_1.mp4	0.0	297.0689389705658	2.5066070556640625
67	241.94225406646729	fix_post	2		12.0	65.0	2.5	/experiments/knapen_aot/videos/R_S_pexels-mart-production-7698911_1.mp4	0.0	299.57554602622986	0.10025501251220703
68	242.0425090789795	fix_pre	0		33.0	66.0	2.5	/experiments/knapen_aot/videos/S_yt-QD74nNliDvI_10.mp4	0.0	299.67580103874207	0.2757568359375
68	242.31000590324402	response	0	4		66.0	2.5	/experiments/knapen_aot/videos/S_yt-QD74nNliDvI_10.mp4	0.0	299.9432978630066	
68	242.318265914917	movie	1		296.0	66.0	2.5	/experiments/knapen_aot/videos/S_yt-QD74nNliDvI_10.mp4	0.0	299.95155787467957	2.5065550804138184
68	244.8248209953308	fix_post	2		12.0	66.0	2.5	/experiments/knapen_aot/videos/S_yt-QD74nNliDvI_10.mp4	0.0	302.4581129550934	0.10028505325317383
69	244.92510604858398	fix_pre	0		31.0	67.0	2.5	/experiments/knapen_aot/videos/R_S_yt-7K5X1G7Cpls_965.mp4	0.0	302.55839800834656	0.2590658664703369
69	245.1759181022644	response	0	4		67.0	2.5	/experiments/knapen_aot/videos/R_S_yt-7K5X1G7Cpls_965.mp4	0.0	302.809210062027	
69	245.18417191505432	movie	1		300.0	67.0	2.5	/experiments/knapen_aot/videos/R_S_yt-7K5X1G7Cpls_965.mp4	0.0	302.8174638748169	2.5064520835876465
69	247.69062399864197	fix_post	2		12.0	67.0	2.5	/experiments/knapen_aot/videos/R_S_yt-7K5X1G7Cpls_965.mp4	0.0	305.32391595840454	0.10030794143676758
70	247.79093194007874	fix_pre	0		286.0	68.0	2.5	blank	1.0	305.4242238998413	2.3895881175994873
70	250.17224192619324	response	0	4		68.0	2.5	blank	1.0	307.8055338859558	
70	250.18052005767822	movie	1		300.0	68.0	2.5	blank	1.0	307.8138120174408	2.506608009338379
70	252.6871280670166	fix_post	2		12.0	68.0	2.5	blank	1.0	310.3204200267792	0.10024905204772949
71	252.78737711906433	fix_pre	0		50.0	69.0	2.5	/experiments/knapen_aot/videos/S_ILSVRC2015_train_00371013.mp4	0.0	310.4206690788269	0.41773390769958496
71	253.19704413414001	response	0	4		69.0	2.5	/experiments/knapen_aot/videos/S_ILSVRC2015_train_00371013.mp4	0.0	310.8303360939026	
71	253.20511102676392	movie	1		299.0	69.0	2.5	/experiments/knapen_aot/videos/S_ILSVRC2015_train_00371013.mp4	0.0	310.8384029865265	2.506598949432373
71	255.7117099761963	fix_post	2		12.0	69.0	2.5	/experiments/knapen_aot/videos/S_ILSVRC2015_train_00371013.mp4	0.0	313.34500193595886	0.10026693344116211
72	255.81197690963745	fix_pre	0		38.0	70.0	2.5	/experiments/knapen_aot/videos/R_S_yt-2pRKCSgdXXU_30.mp4	0.0	313.4452688694	0.3174581527709961
72	256.12127208709717	response	0	4		70.0	2.5	/experiments/knapen_aot/videos/R_S_yt-2pRKCSgdXXU_30.mp4	0.0	313.75456404685974	
72	256.12943506240845	movie	1		300.0	70.0	2.5	/experiments/knapen_aot/videos/R_S_yt-2pRKCSgdXXU_30.mp4	0.0	313.762727022171	2.5065810680389404
72	258.6360161304474	fix_post	2		12.0	70.0	2.5	/experiments/knapen_aot/videos/R_S_yt-2pRKCSgdXXU_30.mp4	0.0	316.26930809020996	0.10035896301269531
73	258.7363750934601	fix_pre	0		12.0	71.0	2.5	/experiments/knapen_aot/videos/S_video_inspire_uk_edinburgh_arthursseat_010.1080-h264.mp4	0.0	316.36966705322266	0.1002199649810791
73	258.82833790779114	response	0	4		71.0	2.5	/experiments/knapen_aot/videos/S_video_inspire_uk_edinburgh_arthursseat_010.1080-h264.mp4	0.0	316.4616298675537	
73	258.83659505844116	movie	1		168.0	71.0	2.5	/experiments/knapen_aot/videos/S_video_inspire_uk_edinburgh_arthursseat_010.1080-h264.mp4	0.0	316.46988701820374	2.506598949432373
73	261.20126605033875	response	1	4		71.0	2.5	/experiments/knapen_aot/videos/S_video_inspire_uk_edinburgh_arthursseat_010.1080-h264.mp4	0.0	318.8345580101013	
73	261.34319400787354	fix_post	2		12.0	71.0	2.5	/experiments/knapen_aot/videos/S_video_inspire_uk_edinburgh_arthursseat_010.1080-h264.mp4	0.0	318.9764859676361	0.1002509593963623
74	261.4434449672699	fix_pre	0		30.0	72.0	2.5	/experiments/knapen_aot/videos/R_S_yt-ZzC953ahaxs_195.mp4	0.0	319.07673692703247	0.25065112113952637
74	261.68579602241516	response	0	4		72.0	2.5	/experiments/knapen_aot/videos/R_S_yt-ZzC953ahaxs_195.mp4	0.0	319.31908798217773	
74	261.6940960884094	movie	1		298.0	72.0	2.5	/experiments/knapen_aot/videos/R_S_yt-ZzC953ahaxs_195.mp4	0.0	319.327388048172	2.5066938400268555
74	264.2007899284363	fix_post	2		12.0	72.0	2.5	/experiments/knapen_aot/videos/R_S_yt-ZzC953ahaxs_195.mp4	0.0	321.83408188819885	0.10015511512756348
75	264.30094504356384	fix_pre	0		61.0	73.0	2.5	/experiments/knapen_aot/videos/S_pexels-tima-miroshnichenko-8724308.mp4	0.0	321.9342370033264	0.5095930099487305
75	264.80241894721985	response	0	4		73.0	2.5	/experiments/knapen_aot/videos/S_pexels-tima-miroshnichenko-8724308.mp4	0.0	322.4357109069824	
75	264.8105380535126	movie	1		208.0	73.0	2.5	/experiments/knapen_aot/videos/S_pexels-tima-miroshnichenko-8724308.mp4	0.0	322.44383001327515	2.5066909790039062
75	267.29213190078735	response	1	4		73.0	2.5	/experiments/knapen_aot/videos/S_pexels-tima-miroshnichenko-8724308.mp4	0.0	324.9254238605499	
75	267.3172290325165	fix_post	2		12.0	73.0	2.5	/experiments/knapen_aot/videos/S_pexels-tima-miroshnichenko-8724308.mp4	0.0	324.95052099227905	0.10027503967285156
76	267.41750407218933	fix_pre	0		45.0	74.0	2.5	/experiments/knapen_aot/videos/S_bing-www_dailymotion_com_video_x64hzm7_8.mp4	0.0	325.0507960319519	0.375964879989624
76	267.78511095046997	response	0	4		74.0	2.5	/experiments/knapen_aot/videos/S_bing-www_dailymotion_com_video_x64hzm7_8.mp4	0.0	325.41840291023254	
76	267.79346895217896	movie	1		164.0	74.0	2.5	/experiments/knapen_aot/videos/S_bing-www_dailymotion_com_video_x64hzm7_8.mp4	0.0	325.4267609119415	2.5065650939941406
76	270.3000340461731	fix_post	2		12.0	74.0	2.5	/experiments/knapen_aot/videos/S_bing-www_dailymotion_com_video_x64hzm7_8.mp4	0.0	327.93332600593567	0.1002960205078125
77	270.4003300666809	fix_pre	0		173.0	75.0	2.5	blank	1.0	328.0336220264435	1.4453420639038086
77	271.8375549316406	response	0	4		75.0	2.5	blank	1.0	329.4708468914032	
77	271.8456721305847	movie	1		300.0	75.0	2.5	blank	1.0	329.4789640903473	2.5067009925842285
77	274.35237312316895	fix_post	2		12.0	75.0	2.5	blank	1.0	331.9856650829315	0.10024690628051758
78	274.45262002944946	fix_pre	0		29.0	76.0	2.5	/experiments/knapen_aot/videos/S_ILSVRC2015_train_00473001.mp4	0.0	332.08591198921204	0.24355792999267578
78	274.6866319179535	response	0	4		76.0	2.5	/experiments/knapen_aot/videos/S_ILSVRC2015_train_00473001.mp4	0.0	332.31992387771606	
78	274.69617795944214	movie	1		299.0	76.0	2.5	/experiments/knapen_aot/videos/S_ILSVRC2015_train_00473001.mp4	0.0	332.3294699192047	2.5053369998931885
78	277.2015149593353	fix_post	2		12.0	76.0	2.5	/experiments/knapen_aot/videos/S_ILSVRC2015_train_00473001.mp4	0.0	334.8348069190979	0.10020208358764648
79	277.301717042923	fix_pre	0		42.0	77.0	2.5	/experiments/knapen_aot/videos/R_S_video-12.mp4	0.0	334.93500900268555	0.3509678840637207
79	277.64448595046997	response	0	4		77.0	2.5	/experiments/knapen_aot/videos/R_S_video-12.mp4	0.0	335.27777791023254	
79	277.6526849269867	movie	1		162.0	77.0	2.5	/experiments/knapen_aot/videos/R_S_video-12.mp4	0.0	335.28597688674927	2.5065929889678955
79	278.36302495002747	response	1	4		77.0	2.5	/experiments/knapen_aot/videos/R_S_video-12.mp4	0.0	335.99631690979004	
79	280.1592779159546	fix_post	2		12.0	77.0	2.5	/experiments/knapen_aot/videos/R_S_video-12.mp4	0.0	337.79256987571716	0.10023713111877441
80	280.25951504707336	fix_pre	0		44.0	78.0	2.5	/experiments/knapen_aot/videos/R_S_yt-VxTTEZNJWjs_110.mp4	0.0	337.89280700683594	0.3676149845123291
80	280.61137199401855	response	0	4		78.0	2.5	/experiments/knapen_aot/videos/R_S_yt-VxTTEZNJWjs_110.mp4	0.0	338.2446639537811	
80	280.6271300315857	movie	1		300.0	78.0	2.5	/experiments/knapen_aot/videos/R_S_yt-VxTTEZNJWjs_110.mp4	0.0	338.26042199134827	2.506622076034546
80	283.13375210762024	fix_post	2		12.0	78.0	2.5	/experiments/knapen_aot/videos/R_S_yt-VxTTEZNJWjs_110.mp4	0.0	340.7670440673828	0.10021686553955078
81	283.2339689731598	fix_pre	0		42.0	79.0	2.5	/experiments/knapen_aot/videos/S_yt-0MB_IYX1fgo_44.mp4	0.0	340.86726093292236	0.3509500026702881
81	283.57671308517456	response	0	4		79.0	2.5	/experiments/knapen_aot/videos/S_yt-0MB_IYX1fgo_44.mp4	0.0	341.21000504493713	
81	283.5849189758301	movie	1		299.0	79.0	2.5	/experiments/knapen_aot/videos/S_yt-0MB_IYX1fgo_44.mp4	0.0	341.21821093559265	2.5065791606903076
81	286.0914981365204	fix_post	2		12.0	79.0	2.5	/experiments/knapen_aot/videos/S_yt-0MB_IYX1fgo_44.mp4	0.0	343.72479009628296	0.1002509593963623
82	286.19174909591675	fix_pre	0		49.0	80.0	2.5	/experiments/knapen_aot/videos/S_yt-2dRSJcaJIXw_32.mp4	0.0	343.8250410556793	0.4106888771057129
82	286.59287190437317	response	0	4		80.0	2.5	/experiments/knapen_aot/videos/S_yt-2dRSJcaJIXw_32.mp4	0.0	344.22616386413574	
82	286.60243797302246	movie	1		299.0	80.0	2.5	/experiments/knapen_aot/videos/S_yt-2dRSJcaJIXw_32.mp4	0.0	344.23572993278503	2.505388021469116
82	289.1078259944916	fix_post	2		12.0	80.0	2.5	/experiments/knapen_aot/videos/S_yt-2dRSJcaJIXw_32.mp4	0.0	346.74111795425415	0.10024809837341309
83	289.208074092865	fix_pre	0		32.0	81.0	2.5	/experiments/knapen_aot/videos/R_S_yt-QxNuo4ojvz4_420.mp4	0.0	346.84136605262756	0.2673778533935547
83	289.4672179222107	response	0	4		81.0	2.5	/experiments/knapen_aot/videos/R_S_yt-QxNuo4ojvz4_420.mp4	0.0	347.10050988197327	
83	289.47545194625854	movie	1		300.0	81.0	2.5	/experiments/knapen_aot/videos/R_S_yt-QxNuo4ojvz4_420.mp4	0.0	347.1087439060211	2.506580114364624
83	289.9686589241028	response	1	4		81.0	2.5	/experiments/knapen_aot/videos/R_S_yt-QxNuo4ojvz4_420.mp4	0.0	347.60195088386536	
83	291.98203206062317	fix_post	2		12.0	81.0	2.5	/experiments/knapen_aot/videos/R_S_yt-QxNuo4ojvz4_420.mp4	0.0	349.61532402038574	0.10027503967285156
84	292.082307100296	fix_pre	0		36.0	82.0	2.5	/experiments/knapen_aot/videos/S_yt-n6aLw10f2Yw_317.mp4	0.0	349.7155990600586	0.30074286460876465
84	292.3748679161072	response	0	4		82.0	2.5	/experiments/knapen_aot/videos/S_yt-n6aLw10f2Yw_317.mp4	0.0	350.00815987586975	
84	292.3830499649048	movie	1		296.0	82.0	2.5	/experiments/knapen_aot/videos/S_yt-n6aLw10f2Yw_317.mp4	0.0	350.01634192466736	2.506598949432373
84	294.88964891433716	fix_post	2		12.0	82.0	2.5	/experiments/knapen_aot/videos/S_yt-n6aLw10f2Yw_317.mp4	0.0	352.52294087409973	0.10023808479309082
85	294.98988699913025	fix_pre	0		26.0	83.0	2.5	blank	1.0	352.6231789588928	0.21728205680847168
85	295.198970079422	response	0	4		83.0	2.5	blank	1.0	352.83226203918457	
85	295.2071690559387	movie	1		300.0	83.0	2.5	blank	1.0	352.8404610157013	2.5065228939056396
85	297.71369194984436	fix_post	2		10.0	83.0	2.5	blank	1.0	355.34698390960693	0.1002500057220459
87	297.8139419555664	stim	0		372.0					355.447233915329	3.108170986175537
87	297.91433095932007	response	0	4						355.54762291908264	
87	300.9140419960022	response	0	space						358.54733395576477	
