trial_nr	onset	event_type	phase	response	nr_frames	movie_index	movie_duration	movie_file	blank	onset_abs	duration
0	0.15253686904907227	stim	0		31.0					99.31215786933899	0.2571430206298828
0	0.3998839855194092	response	0	space						99.55950498580933	
1	0.4096798896789551	stim	0		121.0					99.56930088996887	1.0063631534576416
1	0.8997468948364258	response	0	space						100.05936789512634	
1	1.2748420238494873	response	0	space						100.4344630241394	
1	1.4160430431365967	stim	1		120.0					100.57566404342651	1.0003578662872314
1	1.7411549091339111	response	1	space						100.90077590942383	
1	2.0828609466552734	response	1	space						101.24248194694519	
2	2.416400909423828	fix_pre	0		2.0	0.0	2.5	/experiments/knapen_aot/oldvideos/S_yt-AbJBxqEYoMg_105.mp4	0.0	101.57602190971375	0.01635909080505371
2	2.424499988555908	response	0	space		0.0	2.5	/experiments/knapen_aot/oldvideos/S_yt-AbJBxqEYoMg_105.mp4	0.0	101.58412098884583	
2	2.432760000228882	movie	1		300.0	0.0	2.5	/experiments/knapen_aot/oldvideos/S_yt-AbJBxqEYoMg_105.mp4	0.0	101.5923810005188	2.5082919597625732
2	4.941051959991455	fix_post	2		12.0	0.0	2.5	/experiments/knapen_aot/oldvideos/S_yt-AbJBxqEYoMg_105.mp4	0.0	104.10067296028137	0.10025310516357422
3	5.041305065155029	fix_pre	0		52.0	1.0	2.5	/experiments/knapen_aot/oldvideos/S_yt-MNo__ov96eI_22.mp4	0.0	104.20092606544495	0.4374048709869385
3	5.470047950744629	response	0	2		1.0	2.5	/experiments/knapen_aot/oldvideos/S_yt-MNo__ov96eI_22.mp4	0.0	104.62966895103455	
3	5.478709936141968	movie	1		299.0	1.0	2.5	/experiments/knapen_aot/oldvideos/S_yt-MNo__ov96eI_22.mp4	0.0	104.63833093643188	2.5040040016174316
3	7.982713937759399	fix_post	2		12.0	1.0	2.5	/experiments/knapen_aot/oldvideos/S_yt-MNo__ov96eI_22.mp4	0.0	107.14233493804932	0.10022211074829102
4	8.08293604850769	fix_pre	0		36.0	2.0	2.5	/experiments/knapen_aot/oldvideos/R_S_yt-31WwM4UgsVI_322.mp4	0.0	107.24255704879761	0.29973292350769043
4	8.36690902709961	response	0	2		2.0	2.5	/experiments/knapen_aot/oldvideos/R_S_yt-31WwM4UgsVI_322.mp4	0.0	107.52653002738953	
4	8.38266897201538	movie	1		301.0	2.0	2.5	/experiments/knapen_aot/oldvideos/R_S_yt-31WwM4UgsVI_322.mp4	0.0	107.5422899723053	2.508354902267456
4	10.891023874282837	fix_post	2		12.0	2.0	2.5	/experiments/knapen_aot/oldvideos/R_S_yt-31WwM4UgsVI_322.mp4	0.0	110.05064487457275	0.09995412826538086
5	10.990978002548218	fix_pre	0		69.0	3.0	2.5	/experiments/knapen_aot/oldvideos/R_S_yt-giRwl4yChlw_9.mp4	0.0	110.15059900283813	0.5750069618225098
5	11.550333976745605	response	0	2		3.0	2.5	/experiments/knapen_aot/oldvideos/R_S_yt-giRwl4yChlw_9.mp4	0.0	110.70995497703552	
5	11.565984964370728	movie	1		301.0	3.0	2.5	/experiments/knapen_aot/oldvideos/R_S_yt-giRwl4yChlw_9.mp4	0.0	110.72560596466064	2.508388042449951
5	14.074373006820679	fix_post	2		12.0	3.0	2.5	/experiments/knapen_aot/oldvideos/R_S_yt-giRwl4yChlw_9.mp4	0.0	113.2339940071106	0.09997105598449707
6	14.174344062805176	fix_pre	0		94.0	4.0	2.5	/experiments/knapen_aot/oldvideos/S_production_ID_4707837.mp4	0.0	113.33396506309509	0.7835729122161865
6	14.949548959732056	response	0	2		4.0	2.5	/experiments/knapen_aot/oldvideos/S_production_ID_4707837.mp4	0.0	114.10916996002197	
6	14.957916975021362	movie	1		209.0	4.0	2.5	/experiments/knapen_aot/oldvideos/S_production_ID_4707837.mp4	0.0	114.11753797531128	2.508105993270874
6	17.466022968292236	fix_post	2		12.0	4.0	2.5	/experiments/knapen_aot/oldvideos/S_production_ID_4707837.mp4	0.0	116.62564396858215	0.09996604919433594
7	17.565989017486572	fix_pre	0		11.0	5.0	2.5	/experiments/knapen_aot/oldvideos/R_S_wc-PX_MIe5L43_3_16.mp4	0.0	116.72561001777649	0.0916299819946289
7	17.649493932724	response	0	2		5.0	2.5	/experiments/knapen_aot/oldvideos/R_S_wc-PX_MIe5L43_3_16.mp4	0.0	116.80911493301392	
7	17.6576189994812	movie	1		301.0	5.0	2.5	/experiments/knapen_aot/oldvideos/R_S_wc-PX_MIe5L43_3_16.mp4	0.0	116.81723999977112	2.5088958740234375
7	20.16651487350464	fix_post	2		12.0	5.0	2.5	/experiments/knapen_aot/oldvideos/R_S_wc-PX_MIe5L43_3_16.mp4	0.0	119.32613587379456	0.09951615333557129
8	20.26603102684021	fix_pre	0		41.0	6.0	2.5	blank	1.0	119.42565202713013	0.34157705307006836
8	20.599408864974976	response	0	2		6.0	2.5	blank	1.0	119.75902986526489	
8	20.60760807991028	movie	1		301.0	6.0	2.5	blank	1.0	119.7672290802002	2.5083987712860107
8	23.11600685119629	fix_post	2		12.0	6.0	2.5	blank	1.0	122.2756278514862	0.10012507438659668
9	23.216131925582886	fix_pre	0		529.0	7.0	2.5	/experiments/knapen_aot/oldvideos/R_S_yt-SyePE8wOlxs_321.mp4	0.0	122.3757529258728	4.408199071884155
9	27.61616086959839	response	0	2		7.0	2.5	/experiments/knapen_aot/oldvideos/R_S_yt-SyePE8wOlxs_321.mp4	0.0	126.7757818698883	
9	27.62433099746704	movie	1		301.0	7.0	2.5	/experiments/knapen_aot/oldvideos/R_S_yt-SyePE8wOlxs_321.mp4	0.0	126.78395199775696	2.5082318782806396
9	30.13256287574768	fix_post	2		12.0	7.0	2.5	/experiments/knapen_aot/oldvideos/R_S_yt-SyePE8wOlxs_321.mp4	0.0	129.2921838760376	0.10007619857788086
10	30.23263907432556	fix_pre	0		52.0	8.0	2.5	/experiments/knapen_aot/oldvideos/S_b5-3.mp4	0.0	129.39226007461548	0.43334388732910156
10	30.65775203704834	response	0	2		8.0	2.5	/experiments/knapen_aot/oldvideos/S_b5-3.mp4	0.0	129.81737303733826	
10	30.665982961654663	movie	1		165.0	8.0	2.5	/experiments/knapen_aot/oldvideos/S_b5-3.mp4	0.0	129.82560396194458	2.508310079574585
10	33.17429304122925	fix_post	2		12.0	8.0	2.5	/experiments/knapen_aot/oldvideos/S_b5-3.mp4	0.0	132.33391404151917	0.09999799728393555
11	33.274291038513184	fix_pre	0		62.0	9.0	2.5	/experiments/knapen_aot/oldvideos/R_S_ILSVRC2015_train_00495000.mp4	0.0	132.4339120388031	0.5166459083557129
11	33.78275203704834	response	0	4		9.0	2.5	/experiments/knapen_aot/oldvideos/R_S_ILSVRC2015_train_00495000.mp4	0.0	132.94237303733826	
11	33.7909369468689	movie	1		301.0	9.0	2.5	/experiments/knapen_aot/oldvideos/R_S_ILSVRC2015_train_00495000.mp4	0.0	132.9505579471588	2.5082740783691406
11	36.29921102523804	fix_post	2		12.0	9.0	2.5	/experiments/knapen_aot/oldvideos/R_S_ILSVRC2015_train_00495000.mp4	0.0	135.45883202552795	0.10005998611450195
12	36.39927101135254	fix_pre	0		13.0	10.0	2.5	/experiments/knapen_aot/oldvideos/S_yt-d5jBQ-LOW2I_17.mp4	0.0	135.55889201164246	0.1083078384399414
12	36.49935603141785	response	0	4		10.0	2.5	/experiments/knapen_aot/oldvideos/S_yt-d5jBQ-LOW2I_17.mp4	0.0	135.65897703170776	
12	36.50757884979248	movie	1		301.0	10.0	2.5	/experiments/knapen_aot/oldvideos/S_yt-d5jBQ-LOW2I_17.mp4	0.0	135.6671998500824	2.508334159851074
12	39.015913009643555	fix_post	2		12.0	10.0	2.5	/experiments/knapen_aot/oldvideos/S_yt-d5jBQ-LOW2I_17.mp4	0.0	138.17553400993347	0.10003089904785156
13	39.115943908691406	fix_pre	0		22.0	11.0	2.5	/experiments/knapen_aot/oldvideos/S_Nh81j72Utbs_5.mp4	0.0	138.27556490898132	0.183258056640625
13	39.29103994369507	response	0	4		11.0	2.5	/experiments/knapen_aot/oldvideos/S_Nh81j72Utbs_5.mp4	0.0	138.45066094398499	
13	39.29920196533203	movie	1		301.0	11.0	2.5	/experiments/knapen_aot/oldvideos/S_Nh81j72Utbs_5.mp4	0.0	138.45882296562195	2.5085129737854004
13	41.80771493911743	fix_post	2		12.0	11.0	2.5	/experiments/knapen_aot/oldvideos/S_Nh81j72Utbs_5.mp4	0.0	140.96733593940735	0.099884033203125
14	41.90759897232056	fix_pre	0		32.0	12.0	2.5	/experiments/knapen_aot/oldvideos/R_S_I004_C014_SDR_2K_AVC.mp4	0.0	141.06721997261047	0.26653289794921875
14	42.16604995727539	response	0	4		12.0	2.5	/experiments/knapen_aot/oldvideos/R_S_I004_C014_SDR_2K_AVC.mp4	0.0	141.3256709575653	
14	42.174131870269775	movie	1		171.0	12.0	2.5	/experiments/knapen_aot/oldvideos/R_S_I004_C014_SDR_2K_AVC.mp4	0.0	141.3337528705597	2.5084500312805176
14	44.68258190155029	fix_post	2		12.0	12.0	2.5	/experiments/knapen_aot/oldvideos/R_S_I004_C014_SDR_2K_AVC.mp4	0.0	143.8422029018402	0.09997010231018066
15	44.782552003860474	fix_pre	0		12.0	13.0	2.5	blank	1.0	143.9421730041504	0.09994292259216309
15	44.87430191040039	response	0	4		13.0	2.5	blank	1.0	144.0339229106903	
15	44.88249492645264	movie	1		301.0	13.0	2.5	blank	1.0	144.04211592674255	2.5084240436553955
15	47.39091897010803	fix_post	2		12.0	13.0	2.5	blank	1.0	146.55053997039795	0.09992098808288574
16	47.49083995819092	fix_pre	0		34.0	14.0	2.5	/experiments/knapen_aot/oldvideos/S_DL_B002_C011_SDR_20191122_SDR_2K_AVC.mp4	0.0	146.65046095848083	0.283344030380249
16	47.766002893447876	response	0	4		14.0	2.5	/experiments/knapen_aot/oldvideos/S_DL_B002_C011_SDR_20191122_SDR_2K_AVC.mp4	0.0	146.9256238937378	
16	47.77418398857117	movie	1		165.0	14.0	2.5	/experiments/knapen_aot/oldvideos/S_DL_B002_C011_SDR_20191122_SDR_2K_AVC.mp4	0.0	146.93380498886108	2.5083858966827393
16	50.282569885253906	fix_post	2		12.0	14.0	2.5	/experiments/knapen_aot/oldvideos/S_DL_B002_C011_SDR_20191122_SDR_2K_AVC.mp4	0.0	149.44219088554382	0.09999918937683105
17	50.38256907463074	fix_pre	0		8.0	15.0	2.5	/experiments/knapen_aot/oldvideos/S_yt-MsSEF0krKE4_149.mp4	0.0	149.54219007492065	0.06667399406433105
17	50.44086694717407	response	0	4		15.0	2.5	/experiments/knapen_aot/oldvideos/S_yt-MsSEF0krKE4_149.mp4	0.0	149.600487947464	
17	50.44924306869507	movie	1		301.0	15.0	2.5	/experiments/knapen_aot/oldvideos/S_yt-MsSEF0krKE4_149.mp4	0.0	149.60886406898499	2.508327007293701
17	52.95757007598877	fix_post	2		12.0	15.0	2.5	/experiments/knapen_aot/oldvideos/S_yt-MsSEF0krKE4_149.mp4	0.0	152.1171910762787	0.0999448299407959
18	53.057514905929565	fix_pre	0		25.0	16.0	2.5	/experiments/knapen_aot/oldvideos/S_ILSVRC2015_train_00568002.mp4	0.0	152.21713590621948	0.2083141803741455
18	53.25768494606018	response	0	4		16.0	2.5	/experiments/knapen_aot/oldvideos/S_ILSVRC2015_train_00568002.mp4	0.0	152.4173059463501	
18	53.26582908630371	movie	1		301.0	16.0	2.5	/experiments/knapen_aot/oldvideos/S_ILSVRC2015_train_00568002.mp4	0.0	152.42545008659363	2.508328914642334
18	55.774158000946045	fix_post	2		12.0	16.0	2.5	/experiments/knapen_aot/oldvideos/S_ILSVRC2015_train_00568002.mp4	0.0	154.93377900123596	0.10004305839538574
19	55.87420105934143	fix_pre	0		12.0	17.0	2.5	/experiments/knapen_aot/oldvideos/S_yt-nE8YJOhW4e4_171.mp4	0.0	155.03382205963135	0.0999000072479248
19	55.96588206291199	response	0	4		17.0	2.5	/experiments/knapen_aot/oldvideos/S_yt-nE8YJOhW4e4_171.mp4	0.0	155.1255030632019	
19	55.974101066589355	movie	1		301.0	17.0	2.5	/experiments/knapen_aot/oldvideos/S_yt-nE8YJOhW4e4_171.mp4	0.0	155.13372206687927	2.5084099769592285
19	58.482511043548584	fix_post	2		12.0	17.0	2.5	/experiments/knapen_aot/oldvideos/S_yt-nE8YJOhW4e4_171.mp4	0.0	157.6421320438385	0.10011482238769531
20	58.58262586593628	fix_pre	0		8.0	18.0	2.5	/experiments/knapen_aot/oldvideos/S_yt-YykKZWKmLnQ_386.mp4	0.0	157.7422468662262	0.06646299362182617
20	58.64093589782715	response	0	4		18.0	2.5	/experiments/knapen_aot/oldvideos/S_yt-YykKZWKmLnQ_386.mp4	0.0	157.80055689811707	
20	58.649088859558105	movie	1		300.0	18.0	2.5	/experiments/knapen_aot/oldvideos/S_yt-YykKZWKmLnQ_386.mp4	0.0	157.80870985984802	2.508369207382202
20	61.15745806694031	fix_post	2		12.0	18.0	2.5	/experiments/knapen_aot/oldvideos/S_yt-YykKZWKmLnQ_386.mp4	0.0	160.31707906723022	0.10003495216369629
21	61.257493019104004	fix_pre	0		28.0	19.0	2.5	/experiments/knapen_aot/oldvideos/S_ILSVRC2015_train_00404004.mp4	0.0	160.41711401939392	0.23324084281921387
21	61.48258399963379	response	0	4		19.0	2.5	/experiments/knapen_aot/oldvideos/S_ILSVRC2015_train_00404004.mp4	0.0	160.6422049999237	
21	61.49073386192322	movie	1		301.0	19.0	2.5	/experiments/knapen_aot/oldvideos/S_ILSVRC2015_train_00404004.mp4	0.0	160.65035486221313	2.5085771083831787
21	63.9993109703064	fix_post	2		12.0	19.0	2.5	/experiments/knapen_aot/oldvideos/S_ILSVRC2015_train_00404004.mp4	0.0	163.1589319705963	0.09988689422607422
22	64.09919786453247	fix_pre	0		14.0	20.0	2.5	/experiments/knapen_aot/oldvideos/R_S_yt-fCjjH_4i8Fg_115.mp4	0.0	163.2588188648224	0.12492799758911133
22	64.207524061203	response	0	4		20.0	2.5	/experiments/knapen_aot/oldvideos/R_S_yt-fCjjH_4i8Fg_115.mp4	0.0	163.36714506149292	
22	64.22412586212158	movie	1		300.0	20.0	2.5	/experiments/knapen_aot/oldvideos/R_S_yt-fCjjH_4i8Fg_115.mp4	0.0	163.3837468624115	2.5001070499420166
22	66.7242329120636	fix_post	2		12.0	20.0	2.5	/experiments/knapen_aot/oldvideos/R_S_yt-fCjjH_4i8Fg_115.mp4	0.0	165.88385391235352	0.09984397888183594
23	66.82407689094543	fix_pre	0		18.0	21.0	2.5	blank	1.0	165.98369789123535	0.1500260829925537
23	66.96595001220703	response	0	4		21.0	2.5	blank	1.0	166.12557101249695	
23	66.97410297393799	movie	1		301.0	21.0	2.5	blank	1.0	166.1337239742279	2.5083439350128174
23	69.4824469089508	fix_post	2		12.0	21.0	2.5	blank	1.0	168.64206790924072	0.10009312629699707
24	69.5825400352478	fix_pre	0		100.0	22.0	2.5	/experiments/knapen_aot/oldvideos/R_S_yt-P8vJa4YVcGU_488.mp4	0.0	168.74216103553772	0.8331928253173828
24	70.40756106376648	response	0	4		22.0	2.5	/experiments/knapen_aot/oldvideos/R_S_yt-P8vJa4YVcGU_488.mp4	0.0	169.5671820640564	
24	70.41573286056519	movie	1		301.0	22.0	2.5	/experiments/knapen_aot/oldvideos/R_S_yt-P8vJa4YVcGU_488.mp4	0.0	169.5753538608551	2.508402109146118
24	72.9241349697113	fix_post	2		12.0	22.0	2.5	/experiments/knapen_aot/oldvideos/R_S_yt-P8vJa4YVcGU_488.mp4	0.0	172.08375597000122	0.09999895095825195
25	73.02413392066956	fix_pre	0		27.0	23.0	2.5	/experiments/knapen_aot/oldvideos/R_S_wc-7ugQ0V4lxYkJ_131.mp4	0.0	172.18375492095947	0.22495102882385254
25	73.2408618927002	response	0	4		23.0	2.5	/experiments/knapen_aot/oldvideos/R_S_wc-7ugQ0V4lxYkJ_131.mp4	0.0	172.4004828929901	
25	73.24908494949341	movie	1		301.0	23.0	2.5	/experiments/knapen_aot/oldvideos/R_S_wc-7ugQ0V4lxYkJ_131.mp4	0.0	172.40870594978333	2.508363962173462
25	75.75744891166687	fix_post	2		12.0	23.0	2.5	/experiments/knapen_aot/oldvideos/R_S_wc-7ugQ0V4lxYkJ_131.mp4	0.0	174.9170699119568	0.099945068359375
26	75.85739398002625	fix_pre	0		41.0	24.0	2.5	/experiments/knapen_aot/oldvideos/R_S_yt-wPXrAuiiRZg_1062.mp4	0.0	175.01701498031616	0.3428618907928467
26	76.19082593917847	response	0	4		24.0	2.5	/experiments/knapen_aot/oldvideos/R_S_yt-wPXrAuiiRZg_1062.mp4	0.0	175.35044693946838	
26	76.20025587081909	movie	1		301.0	24.0	2.5	/experiments/knapen_aot/oldvideos/R_S_yt-wPXrAuiiRZg_1062.mp4	0.0	175.359876871109	2.507172107696533
26	78.70742797851562	fix_post	2		12.0	24.0	2.5	/experiments/knapen_aot/oldvideos/R_S_yt-wPXrAuiiRZg_1062.mp4	0.0	177.86704897880554	0.10004091262817383
27	78.8074688911438	fix_pre	0		24.0	25.0	2.5	/experiments/knapen_aot/oldvideos/S_yt-roThCERxVCs_133.mp4	0.0	177.96708989143372	0.19994616508483887
27	78.99920701980591	response	0	4		25.0	2.5	/experiments/knapen_aot/oldvideos/S_yt-roThCERxVCs_133.mp4	0.0	178.15882802009583	
27	79.00741505622864	movie	1		301.0	25.0	2.5	/experiments/knapen_aot/oldvideos/S_yt-roThCERxVCs_133.mp4	0.0	178.16703605651855	2.5083389282226562
27	81.5157539844513	fix_post	2		12.0	25.0	2.5	/experiments/knapen_aot/oldvideos/S_yt-roThCERxVCs_133.mp4	0.0	180.6753749847412	0.10001087188720703
28	81.6157648563385	fix_pre	0		15.0	26.0	2.5	/experiments/knapen_aot/oldvideos/R_S_yt-zam74qlzGtQ_122.mp4	0.0	180.77538585662842	0.12615609169006348
28	81.7326910495758	response	0	4		26.0	2.5	/experiments/knapen_aot/oldvideos/R_S_yt-zam74qlzGtQ_122.mp4	0.0	180.89231204986572	
28	81.74192094802856	movie	1		301.0	26.0	2.5	/experiments/knapen_aot/oldvideos/R_S_yt-zam74qlzGtQ_122.mp4	0.0	180.90154194831848	2.507133960723877
28	84.24905490875244	fix_post	2		12.0	26.0	2.5	/experiments/knapen_aot/oldvideos/R_S_yt-zam74qlzGtQ_122.mp4	0.0	183.40867590904236	0.10001611709594727
29	84.34907102584839	fix_pre	0		43.0	27.0	2.5	blank	1.0	183.5086920261383	0.35826897621154785
29	84.6990909576416	response	0	4		27.0	2.5	blank	1.0	183.85871195793152	
29	84.70734000205994	movie	1		301.0	27.0	2.5	blank	1.0	183.86696100234985	2.5083189010620117
29	87.21565890312195	fix_post	2		12.0	27.0	2.5	blank	1.0	186.37527990341187	0.10015106201171875
30	87.31580996513367	fix_pre	0		202.0	28.0	2.5	/experiments/knapen_aot/oldvideos/S_yt-aqrdb6BiFx4_12.mp4	0.0	186.47543096542358	1.6832098960876465
30	88.99084687232971	response	0	4		28.0	2.5	/experiments/knapen_aot/oldvideos/S_yt-aqrdb6BiFx4_12.mp4	0.0	188.15046787261963	
30	88.99901986122131	movie	1		301.0	28.0	2.5	/experiments/knapen_aot/oldvideos/S_yt-aqrdb6BiFx4_12.mp4	0.0	188.15864086151123	2.5083401203155518
30	91.50735998153687	fix_post	2		12.0	28.0	2.5	/experiments/knapen_aot/oldvideos/S_yt-aqrdb6BiFx4_12.mp4	0.0	190.66698098182678	0.09993600845336914
31	91.60729598999023	fix_pre	0		62.0	29.0	2.5	/experiments/knapen_aot/oldvideos/S_yt-y3tyx6cZjmA_412.mp4	0.0	190.76691699028015	0.5166740417480469
31	92.11582207679749	response	0	4		29.0	2.5	/experiments/knapen_aot/oldvideos/S_yt-y3tyx6cZjmA_412.mp4	0.0	191.2754430770874	
31	92.12397003173828	movie	1		301.0	29.0	2.5	/experiments/knapen_aot/oldvideos/S_yt-y3tyx6cZjmA_412.mp4	0.0	191.2835910320282	2.5084218978881836
31	94.63239192962646	fix_post	2		12.0	29.0	2.5	/experiments/knapen_aot/oldvideos/S_yt-y3tyx6cZjmA_412.mp4	0.0	193.79201292991638	0.09999299049377441
32	94.73238492012024	fix_pre	0		239.0	30.0	2.5	/experiments/knapen_aot/oldvideos/R_S_ILSVRC2015_train_00292006.mp4	0.0	193.89200592041016	1.9915480613708496
32	96.71585988998413	response	0	4		30.0	2.5	/experiments/knapen_aot/oldvideos/R_S_ILSVRC2015_train_00292006.mp4	0.0	195.87548089027405	
32	96.72393298149109	movie	1		301.0	30.0	2.5	/experiments/knapen_aot/oldvideos/R_S_ILSVRC2015_train_00292006.mp4	0.0	195.883553981781	2.5083680152893066
32	99.2323009967804	fix_post	2		12.0	30.0	2.5	/experiments/knapen_aot/oldvideos/R_S_ILSVRC2015_train_00292006.mp4	0.0	198.3919219970703	0.10002803802490234
33	99.3323290348053	fix_pre	0		216.0	31.0	2.5	/experiments/knapen_aot/oldvideos/R_S_yt-a5TGHnldsKg_102.mp4	0.0	198.49195003509521	1.800074815750122
33	101.12406992912292	response	0	4		31.0	2.5	/experiments/knapen_aot/oldvideos/R_S_yt-a5TGHnldsKg_102.mp4	0.0	200.28369092941284	
33	101.13240385055542	movie	1		301.0	31.0	2.5	/experiments/knapen_aot/oldvideos/R_S_yt-a5TGHnldsKg_102.mp4	0.0	200.29202485084534	2.5082480907440186
33	103.64065194129944	fix_post	2		12.0	31.0	2.5	/experiments/knapen_aot/oldvideos/R_S_yt-a5TGHnldsKg_102.mp4	0.0	202.80027294158936	0.09994697570800781
34	103.74059891700745	fix_pre	0		48.0	32.0	2.5	/experiments/knapen_aot/oldvideos/R_S_yt-8y7Xhp2_2e0_168.mp4	0.0	202.90021991729736	0.4000091552734375
34	104.13243389129639	response	0	4		32.0	2.5	/experiments/knapen_aot/oldvideos/R_S_yt-8y7Xhp2_2e0_168.mp4	0.0	203.2920548915863	
34	104.14060807228088	movie	1		301.0	32.0	2.5	/experiments/knapen_aot/oldvideos/R_S_yt-8y7Xhp2_2e0_168.mp4	0.0	203.3002290725708	2.5083978176116943
34	106.64900588989258	fix_post	2		12.0	32.0	2.5	/experiments/knapen_aot/oldvideos/R_S_yt-8y7Xhp2_2e0_168.mp4	0.0	205.8086268901825	0.09997200965881348
35	106.74897789955139	fix_pre	0		15.0	33.0	2.5	/experiments/knapen_aot/oldvideos/R_S_yt-tneuR3EtSZE_72.mp4	0.0	205.9085988998413	0.12502598762512207
35	106.86566591262817	response	0	4		33.0	2.5	/experiments/knapen_aot/oldvideos/R_S_yt-tneuR3EtSZE_72.mp4	0.0	206.0252869129181	
35	106.87400388717651	movie	1		301.0	33.0	2.5	/experiments/knapen_aot/oldvideos/R_S_yt-tneuR3EtSZE_72.mp4	0.0	206.03362488746643	2.508416175842285
35	109.3824200630188	fix_post	2		12.0	33.0	2.5	/experiments/knapen_aot/oldvideos/R_S_yt-tneuR3EtSZE_72.mp4	0.0	208.54204106330872	0.09994792938232422
36	109.48236799240112	fix_pre	0		201.0	34.0	2.5	/experiments/knapen_aot/oldvideos/R_S_yt-a5TGHnldsKg_102.mp4	0.0	208.64198899269104	1.6758980751037598
36	111.14907097816467	response	0	4		34.0	2.5	/experiments/knapen_aot/oldvideos/R_S_yt-a5TGHnldsKg_102.mp4	0.0	210.3086919784546	
36	111.15826606750488	movie	1		301.0	34.0	2.5	/experiments/knapen_aot/oldvideos/R_S_yt-a5TGHnldsKg_102.mp4	0.0	210.3178870677948	2.5073390007019043
36	113.66560506820679	fix_post	2		12.0	34.0	2.5	/experiments/knapen_aot/oldvideos/R_S_yt-a5TGHnldsKg_102.mp4	0.0	212.8252260684967	0.10008478164672852
37	113.76568984985352	fix_pre	0		63.0	35.0	2.5	blank	1.0	212.92531085014343	0.524914026260376
37	114.28238201141357	response	0	4		35.0	2.5	blank	1.0	213.4420030117035	
37	114.29060387611389	movie	1		301.0	35.0	2.5	blank	1.0	213.4502248764038	2.508350133895874
37	116.79895401000977	fix_post	2		12.0	35.0	2.5	blank	1.0	215.95857501029968	0.09997701644897461
38	116.89893102645874	fix_pre	0		163.0	36.0	2.5	/experiments/knapen_aot/oldvideos/R_S_yt-4W224-RSCnM_15.mp4	0.0	216.05855202674866	1.358285903930664
38	118.241534948349	response	0	4		36.0	2.5	/experiments/knapen_aot/oldvideos/R_S_yt-4W224-RSCnM_15.mp4	0.0	217.40115594863892	
38	118.2572169303894	movie	1		301.0	36.0	2.5	/experiments/knapen_aot/oldvideos/R_S_yt-4W224-RSCnM_15.mp4	0.0	217.41683793067932	2.508419990539551
38	120.76563692092896	fix_post	2		12.0	36.0	2.5	/experiments/knapen_aot/oldvideos/R_S_yt-4W224-RSCnM_15.mp4	0.0	219.92525792121887	0.09997200965881348
39	120.86560893058777	fix_pre	0		63.0	37.0	2.5	/experiments/knapen_aot/oldvideos/S_ILSVRC2015_train_00638001.mp4	0.0	220.02522993087769	0.524928092956543
39	121.38240885734558	response	0	4		37.0	2.5	/experiments/knapen_aot/oldvideos/S_ILSVRC2015_train_00638001.mp4	0.0	220.5420298576355	
39	121.39053702354431	movie	1		301.0	37.0	2.5	/experiments/knapen_aot/oldvideos/S_ILSVRC2015_train_00638001.mp4	0.0	220.55015802383423	2.5084218978881836
39	123.8989589214325	fix_post	2		12.0	37.0	2.5	/experiments/knapen_aot/oldvideos/S_ILSVRC2015_train_00638001.mp4	0.0	223.0585799217224	0.09995698928833008
40	123.99891591072083	fix_pre	0		15.0	38.0	2.5	/experiments/knapen_aot/oldvideos/R_S_yt-YMI27rk5qUQ_117.mp4	0.0	223.15853691101074	0.12493205070495605
40	124.11557698249817	response	0	4		38.0	2.5	/experiments/knapen_aot/oldvideos/R_S_yt-YMI27rk5qUQ_117.mp4	0.0	223.2751979827881	
40	124.12384796142578	movie	1		301.0	38.0	2.5	/experiments/knapen_aot/oldvideos/R_S_yt-YMI27rk5qUQ_117.mp4	0.0	223.2834689617157	2.508423089981079
40	126.63227105140686	fix_post	2		12.0	38.0	2.5	/experiments/knapen_aot/oldvideos/R_S_yt-YMI27rk5qUQ_117.mp4	0.0	225.79189205169678	0.09985899925231934
41	126.73213005065918	fix_pre	0		56.0	39.0	2.5	/experiments/knapen_aot/oldvideos/S_production_ID_4325513.mp4	0.0	225.8917510509491	0.4677119255065918
41	127.19064593315125	response	0	4		39.0	2.5	/experiments/knapen_aot/oldvideos/S_production_ID_4325513.mp4	0.0	226.35026693344116	
41	127.19984197616577	movie	1		206.0	39.0	2.5	/experiments/knapen_aot/oldvideos/S_production_ID_4325513.mp4	0.0	226.3594629764557	2.507344961166382
41	129.70718693733215	fix_post	2		12.0	39.0	2.5	/experiments/knapen_aot/oldvideos/S_production_ID_4325513.mp4	0.0	228.86680793762207	0.10003805160522461
42	129.80722498893738	fix_pre	0		51.0	40.0	2.5	blank	1.0	228.9668459892273	0.4248490333557129
42	130.2240149974823	response	0	4		40.0	2.5	blank	1.0	229.38363599777222	
42	130.2320740222931	movie	1		301.0	40.0	2.5	blank	1.0	229.391695022583	2.508441925048828
42	132.74051594734192	fix_post	2		12.0	40.0	2.5	blank	1.0	231.90013694763184	0.10019993782043457
43	132.84071588516235	fix_pre	0		60.0	41.0	2.5	/experiments/knapen_aot/oldvideos/R_S_wc-PX_MIe5L43_3_16.mp4	0.0	232.00033688545227	0.4998941421508789
43	133.3247480392456	response	0	4		41.0	2.5	/experiments/knapen_aot/oldvideos/R_S_wc-PX_MIe5L43_3_16.mp4	0.0	232.48436903953552	
43	133.34061002731323	movie	1		301.0	41.0	2.5	/experiments/knapen_aot/oldvideos/R_S_wc-PX_MIe5L43_3_16.mp4	0.0	232.50023102760315	2.5082340240478516
43	135.84884405136108	fix_post	2		12.0	41.0	2.5	/experiments/knapen_aot/oldvideos/R_S_wc-PX_MIe5L43_3_16.mp4	0.0	235.008465051651	0.09997081756591797
44	135.948814868927	fix_pre	0		18.0	42.0	2.5	/experiments/knapen_aot/oldvideos/R_S_yt-6xXEMHBQ08A_28.mp4	0.0	235.10843586921692	0.1500380039215088
44	136.09068989753723	response	0	4		42.0	2.5	/experiments/knapen_aot/oldvideos/R_S_yt-6xXEMHBQ08A_28.mp4	0.0	235.25031089782715	
44	136.0988528728485	movie	1		301.0	42.0	2.5	/experiments/knapen_aot/oldvideos/R_S_yt-6xXEMHBQ08A_28.mp4	0.0	235.25847387313843	2.5082411766052246
44	138.60709404945374	fix_post	2		12.0	42.0	2.5	/experiments/knapen_aot/oldvideos/R_S_yt-6xXEMHBQ08A_28.mp4	0.0	237.76671504974365	0.10006594657897949
45	138.70715999603271	fix_pre	0		18.0	43.0	2.5	/experiments/knapen_aot/oldvideos/S_yt-SHTeTAnZgho_43.mp4	0.0	237.86678099632263	0.14999985694885254
45	138.84898900985718	response	0	4		43.0	2.5	/experiments/knapen_aot/oldvideos/S_yt-SHTeTAnZgho_43.mp4	0.0	238.0086100101471	
45	138.85715985298157	movie	1		301.0	43.0	2.5	/experiments/knapen_aot/oldvideos/S_yt-SHTeTAnZgho_43.mp4	0.0	238.01678085327148	2.508334159851074
45	141.36549401283264	fix_post	2		12.0	43.0	2.5	/experiments/knapen_aot/oldvideos/S_yt-SHTeTAnZgho_43.mp4	0.0	240.52511501312256	0.09994006156921387
46	141.46543407440186	fix_pre	0		262.0	44.0	2.5	/experiments/knapen_aot/oldvideos/R_S_I003_C008_SDR_2K_AVC.mp4	0.0	240.62505507469177	2.183302879333496
46	143.64055800437927	response	0	4		44.0	2.5	/experiments/knapen_aot/oldvideos/R_S_I003_C008_SDR_2K_AVC.mp4	0.0	242.8001790046692	
46	143.64873695373535	movie	1		176.0	44.0	2.5	/experiments/knapen_aot/oldvideos/R_S_I003_C008_SDR_2K_AVC.mp4	0.0	242.80835795402527	2.5084340572357178
46	146.15717101097107	fix_post	2		12.0	44.0	2.5	/experiments/knapen_aot/oldvideos/R_S_I003_C008_SDR_2K_AVC.mp4	0.0	245.316792011261	0.09994006156921387
46	146.20720195770264	response	2	4		44.0	2.5	/experiments/knapen_aot/oldvideos/R_S_I003_C008_SDR_2K_AVC.mp4	0.0	245.36682295799255	
47	146.25711107254028	fix_pre	0		174.0	45.0	2.5	/experiments/knapen_aot/oldvideos/R_S_yt-bwSRV1Vr21s_435.mp4	0.0	245.4167320728302	1.4499528408050537
47	147.6988549232483	response	0	4		45.0	2.5	/experiments/knapen_aot/oldvideos/R_S_yt-bwSRV1Vr21s_435.mp4	0.0	246.8584759235382	
47	147.70706391334534	movie	1		301.0	45.0	2.5	/experiments/knapen_aot/oldvideos/R_S_yt-bwSRV1Vr21s_435.mp4	0.0	246.86668491363525	2.5083980560302734
47	150.2154619693756	fix_post	2		12.0	45.0	2.5	/experiments/knapen_aot/oldvideos/R_S_yt-bwSRV1Vr21s_435.mp4	0.0	249.37508296966553	0.10008406639099121
48	150.3155460357666	fix_pre	0		90.0	46.0	2.5	/experiments/knapen_aot/oldvideos/S_production_ID_4325591.mp4	0.0	249.47516703605652	0.749830961227417
48	151.05722093582153	response	0	4		46.0	2.5	/experiments/knapen_aot/oldvideos/S_production_ID_4325591.mp4	0.0	250.21684193611145	
48	151.06537699699402	movie	1		215.0	46.0	2.5	/experiments/knapen_aot/oldvideos/S_production_ID_4325591.mp4	0.0	250.22499799728394	2.5083749294281006
48	153.57375192642212	fix_post	2		12.0	46.0	2.5	/experiments/knapen_aot/oldvideos/S_production_ID_4325591.mp4	0.0	252.73337292671204	0.09998703002929688
49	153.67373895645142	fix_pre	0		18.0	47.0	2.5	/experiments/knapen_aot/oldvideos/S_yt-tX3slAQb9yY_13.mp4	0.0	252.83335995674133	0.15088701248168945
49	153.8154730796814	response	0	4		47.0	2.5	/experiments/knapen_aot/oldvideos/S_yt-tX3slAQb9yY_13.mp4	0.0	252.9750940799713	
49	153.8246259689331	movie	1		301.0	47.0	2.5	/experiments/knapen_aot/oldvideos/S_yt-tX3slAQb9yY_13.mp4	0.0	252.98424696922302	2.5074520111083984
49	156.3320779800415	fix_post	2		12.0	47.0	2.5	/experiments/knapen_aot/oldvideos/S_yt-tX3slAQb9yY_13.mp4	0.0	255.49169898033142	0.10010099411010742
50	156.4321789741516	fix_pre	0		27.0	48.0	2.5	/experiments/knapen_aot/oldvideos/R_S_yt-JDHApyT5ngs_128.mp4	0.0	255.59179997444153	0.2256910800933838
50	156.64891505241394	response	0	4		48.0	2.5	/experiments/knapen_aot/oldvideos/R_S_yt-JDHApyT5ngs_128.mp4	0.0	255.80853605270386	
50	156.657870054245	movie	1		301.0	48.0	2.5	/experiments/knapen_aot/oldvideos/R_S_yt-JDHApyT5ngs_128.mp4	0.0	255.8174910545349	2.507584810256958
50	159.16545486450195	fix_post	2		12.0	48.0	2.5	/experiments/knapen_aot/oldvideos/R_S_yt-JDHApyT5ngs_128.mp4	0.0	258.32507586479187	0.10003209114074707
51	159.2654869556427	fix_pre	0		175.0	49.0	2.5	blank	1.0	258.4251079559326	1.4582390785217285
51	160.71545505523682	response	0	4		49.0	2.5	blank	1.0	259.87507605552673	
51	160.72372603416443	movie	1		301.0	49.0	2.5	blank	1.0	259.88334703445435	2.5082929134368896
51	162.9154839515686	response	1	4		49.0	2.5	blank	1.0	262.0751049518585	
51	163.23201894760132	fix_post	2		12.0	49.0	2.5	blank	1.0	262.39163994789124	0.09999203681945801
52	163.33201098442078	fix_pre	0		89.0	50.0	2.5	/experiments/knapen_aot/oldvideos/S_ILSVRC2015_train_00042003.mp4	0.0	262.4916319847107	0.7423958778381348
52	164.06564903259277	response	0	4		50.0	2.5	/experiments/knapen_aot/oldvideos/S_ILSVRC2015_train_00042003.mp4	0.0	263.2252700328827	
52	164.0744068622589	movie	1		301.0	50.0	2.5	/experiments/knapen_aot/oldvideos/S_ILSVRC2015_train_00042003.mp4	0.0	263.2340278625488	2.507613182067871
52	166.58202004432678	fix_post	2		12.0	50.0	2.5	/experiments/knapen_aot/oldvideos/S_ILSVRC2015_train_00042003.mp4	0.0	265.7416410446167	0.09998488426208496
53	166.68200492858887	fix_pre	0		26.0	51.0	2.5	/experiments/knapen_aot/oldvideos/R_S_I005_C008_CROP_SDR_2K_AVC.mp4	0.0	265.8416259288788	0.21668410301208496
53	166.89045095443726	response	0	4		51.0	2.5	/experiments/knapen_aot/oldvideos/R_S_I005_C008_CROP_SDR_2K_AVC.mp4	0.0	266.0500719547272	
53	166.89868903160095	movie	1		172.0	51.0	2.5	/experiments/knapen_aot/oldvideos/R_S_I005_C008_CROP_SDR_2K_AVC.mp4	0.0	266.05831003189087	2.5083370208740234
53	169.40702605247498	fix_post	2		12.0	51.0	2.5	/experiments/knapen_aot/oldvideos/R_S_I005_C008_CROP_SDR_2K_AVC.mp4	0.0	268.5666470527649	0.09996795654296875
54	169.50699400901794	fix_pre	0		419.0	52.0	2.5	/experiments/knapen_aot/oldvideos/S_ILSVRC2015_train_00371012.mp4	0.0	268.66661500930786	3.491610050201416
54	172.9904339313507	response	0	4		52.0	2.5	/experiments/knapen_aot/oldvideos/S_ILSVRC2015_train_00371012.mp4	0.0	272.1500549316406	
54	172.99860405921936	movie	1		301.0	52.0	2.5	/experiments/knapen_aot/oldvideos/S_ILSVRC2015_train_00371012.mp4	0.0	272.1582250595093	2.508409023284912
54	175.50701308250427	fix_post	2		12.0	52.0	2.5	/experiments/knapen_aot/oldvideos/S_ILSVRC2015_train_00371012.mp4	0.0	274.6666340827942	0.09993577003479004
55	175.60694885253906	fix_pre	0		41.0	53.0	2.5	/experiments/knapen_aot/oldvideos/S_yt-C0iWlRWU21o_5.mp4	0.0	274.766569852829	0.3424801826477051
55	175.94050288200378	response	0	4		53.0	2.5	/experiments/knapen_aot/oldvideos/S_yt-C0iWlRWU21o_5.mp4	0.0	275.1001238822937	
55	175.94942903518677	movie	1		301.0	53.0	2.5	/experiments/knapen_aot/oldvideos/S_yt-C0iWlRWU21o_5.mp4	0.0	275.1090500354767	2.5076069831848145
55	178.45703601837158	fix_post	2		12.0	53.0	2.5	/experiments/knapen_aot/oldvideos/S_yt-C0iWlRWU21o_5.mp4	0.0	277.6166570186615	0.09988594055175781
56	178.55692195892334	fix_pre	0		47.0	54.0	2.5	/experiments/knapen_aot/oldvideos/R_S_yt-FbCVXEJicis_5.mp4	0.0	277.71654295921326	0.3924589157104492
56	178.94046187400818	response	0	4		54.0	2.5	/experiments/knapen_aot/oldvideos/R_S_yt-FbCVXEJicis_5.mp4	0.0	278.1000828742981	
56	178.9493808746338	movie	1		301.0	54.0	2.5	/experiments/knapen_aot/oldvideos/R_S_yt-FbCVXEJicis_5.mp4	0.0	278.1090018749237	2.5076591968536377
56	181.45704007148743	fix_post	2		12.0	54.0	2.5	/experiments/knapen_aot/oldvideos/R_S_yt-FbCVXEJicis_5.mp4	0.0	280.61666107177734	0.0999608039855957
57	181.55700087547302	fix_pre	0		91.0	55.0	2.5	/experiments/knapen_aot/oldvideos/R_S_ILSVRC2015_train_00559000.mp4	0.0	280.71662187576294	0.7582972049713135
57	182.30705404281616	response	0	4		55.0	2.5	/experiments/knapen_aot/oldvideos/R_S_ILSVRC2015_train_00559000.mp4	0.0	281.4666750431061	
57	182.31529808044434	movie	1		301.0	55.0	2.5	/experiments/knapen_aot/oldvideos/R_S_ILSVRC2015_train_00559000.mp4	0.0	281.47491908073425	2.5082998275756836
57	184.82359790802002	fix_post	2		12.0	55.0	2.5	/experiments/knapen_aot/oldvideos/R_S_ILSVRC2015_train_00559000.mp4	0.0	283.98321890830994	0.10002994537353516
58	184.92362785339355	fix_pre	0		12.0	56.0	2.5	blank	1.0	284.0832488536835	0.09996914863586426
58	185.0153398513794	response	0	4		56.0	2.5	blank	1.0	284.1749608516693	
58	185.02359700202942	movie	1		301.0	56.0	2.5	blank	1.0	284.18321800231934	2.508401870727539
58	187.53199887275696	fix_post	2		12.0	56.0	2.5	blank	1.0	286.6916198730469	0.10001111030578613
59	187.63200998306274	fix_pre	0		72.0	57.0	2.5	/experiments/knapen_aot/oldvideos/S_ILSVRC2015_train_00565000.mp4	0.0	286.79163098335266	0.5998339653015137
59	188.21617603302002	response	0	4		57.0	2.5	/experiments/knapen_aot/oldvideos/S_ILSVRC2015_train_00565000.mp4	0.0	287.37579703330994	
59	188.23184394836426	movie	1		301.0	57.0	2.5	/experiments/knapen_aot/oldvideos/S_ILSVRC2015_train_00565000.mp4	0.0	287.3914649486542	2.5083699226379395
59	190.7402138710022	fix_post	2		12.0	57.0	2.5	/experiments/knapen_aot/oldvideos/S_ILSVRC2015_train_00565000.mp4	0.0	289.8998348712921	0.10001921653747559
60	190.84023308753967	fix_pre	0		36.0	58.0	2.5	/experiments/knapen_aot/oldvideos/R_S_comp_H007_C003_PS_v01_SDR_PS_20180925_SDR_2K_AVC.mp4	0.0	289.9998540878296	0.29999399185180664
60	191.13206005096436	response	0	4		58.0	2.5	/experiments/knapen_aot/oldvideos/R_S_comp_H007_C003_PS_v01_SDR_PS_20180925_SDR_2K_AVC.mp4	0.0	290.2916810512543	
60	191.14022707939148	movie	1		172.0	58.0	2.5	/experiments/knapen_aot/oldvideos/R_S_comp_H007_C003_PS_v01_SDR_PS_20180925_SDR_2K_AVC.mp4	0.0	290.2998480796814	2.5084028244018555
60	193.64862990379333	fix_post	2		12.0	58.0	2.5	/experiments/knapen_aot/oldvideos/R_S_comp_H007_C003_PS_v01_SDR_PS_20180925_SDR_2K_AVC.mp4	0.0	292.80825090408325	0.09998512268066406
60	193.6737608909607	response	2	4		58.0	2.5	/experiments/knapen_aot/oldvideos/R_S_comp_H007_C003_PS_v01_SDR_PS_20180925_SDR_2K_AVC.mp4	0.0	292.8333818912506	
61	193.748615026474	fix_pre	0		234.0	59.0	2.5	/experiments/knapen_aot/oldvideos/R_S_yt-6xXEMHBQ08A_28.mp4	0.0	292.9082360267639	1.9505128860473633
61	195.69025897979736	response	0	4		59.0	2.5	/experiments/knapen_aot/oldvideos/R_S_yt-6xXEMHBQ08A_28.mp4	0.0	294.8498799800873	
61	195.69912791252136	movie	1		301.0	59.0	2.5	/experiments/knapen_aot/oldvideos/R_S_yt-6xXEMHBQ08A_28.mp4	0.0	294.8587489128113	2.507812023162842
61	198.2069399356842	fix_post	2		12.0	59.0	2.5	/experiments/knapen_aot/oldvideos/R_S_yt-6xXEMHBQ08A_28.mp4	0.0	297.3665609359741	0.10004210472106934
62	198.30698204040527	fix_pre	0		41.0	60.0	2.5	/experiments/knapen_aot/oldvideos/R_S_yt-y3tyx6cZjmA_412.mp4	0.0	297.4666030406952	0.34154295921325684
62	198.64034795761108	response	0	4		60.0	2.5	/experiments/knapen_aot/oldvideos/R_S_yt-y3tyx6cZjmA_412.mp4	0.0	297.799968957901	
62	198.64852499961853	movie	1		301.0	60.0	2.5	/experiments/knapen_aot/oldvideos/R_S_yt-y3tyx6cZjmA_412.mp4	0.0	297.80814599990845	2.5083999633789062
62	201.15692496299744	fix_post	2		12.0	60.0	2.5	/experiments/knapen_aot/oldvideos/R_S_yt-y3tyx6cZjmA_412.mp4	0.0	300.31654596328735	0.10007596015930176
63	201.25700092315674	fix_pre	0		41.0	61.0	2.5	blank	1.0	300.41662192344666	0.34155893325805664
63	201.59030389785767	response	0	4		61.0	2.5	blank	1.0	300.7499248981476	
63	201.5985598564148	movie	1		301.0	61.0	2.5	blank	1.0	300.7581808567047	2.5082991123199463
63	204.10685896873474	fix_post	2		12.0	61.0	2.5	blank	1.0	303.26647996902466	0.10004591941833496
64	204.20690488815308	fix_pre	0		72.0	62.0	2.5	/experiments/knapen_aot/oldvideos/S_yt-J8E_BpSJMpk_5.mp4	0.0	303.366525888443	0.5999259948730469
64	204.7986569404602	response	0	4		62.0	2.5	/experiments/knapen_aot/oldvideos/S_yt-J8E_BpSJMpk_5.mp4	0.0	303.9582779407501	
64	204.80683088302612	movie	1		301.0	62.0	2.5	/experiments/knapen_aot/oldvideos/S_yt-J8E_BpSJMpk_5.mp4	0.0	303.96645188331604	2.508380174636841
64	207.31521105766296	fix_post	2		12.0	62.0	2.5	/experiments/knapen_aot/oldvideos/S_yt-J8E_BpSJMpk_5.mp4	0.0	306.4748320579529	0.10002779960632324
65	207.4152388572693	fix_pre	0		58.0	63.0	2.5	/experiments/knapen_aot/oldvideos/S_yt-SyePE8wOlxs_321.mp4	0.0	306.5748598575592	0.48325514793395996
65	207.88281106948853	response	0	4		63.0	2.5	/experiments/knapen_aot/oldvideos/S_yt-SyePE8wOlxs_321.mp4	0.0	307.04243206977844	
65	207.89849400520325	movie	1		301.0	63.0	2.5	/experiments/knapen_aot/oldvideos/S_yt-SyePE8wOlxs_321.mp4	0.0	307.05811500549316	2.508301019668579
65	210.40679502487183	fix_post	2		12.0	63.0	2.5	/experiments/knapen_aot/oldvideos/S_yt-SyePE8wOlxs_321.mp4	0.0	309.56641602516174	0.10007596015930176
66	210.50687098503113	fix_pre	0		123.0	64.0	2.5	/experiments/knapen_aot/oldvideos/S_yt-Dwgpjoikt84_71.mp4	0.0	309.66649198532104	1.0254268646240234
66	211.5235240459442	response	0	4		64.0	2.5	/experiments/knapen_aot/oldvideos/S_yt-Dwgpjoikt84_71.mp4	0.0	310.68314504623413	
66	211.53229784965515	movie	1		301.0	64.0	2.5	/experiments/knapen_aot/oldvideos/S_yt-Dwgpjoikt84_71.mp4	0.0	310.69191884994507	2.5079002380371094
66	214.04019808769226	fix_post	2		12.0	64.0	2.5	/experiments/knapen_aot/oldvideos/S_yt-Dwgpjoikt84_71.mp4	0.0	313.1998190879822	0.09996199607849121
67	214.14016008377075	fix_pre	0		253.0	65.0	2.5	/experiments/knapen_aot/oldvideos/R_S_comp_LA_A006_C008_PSNK_ALL_LOGOS_v10_SDR_PS_FINAL_20180801_SDR_2K_AVC.mp4	0.0	313.29978108406067	2.108276844024658
67	216.240247964859	response	0	4		65.0	2.5	/experiments/knapen_aot/oldvideos/R_S_comp_LA_A006_C008_PSNK_ALL_LOGOS_v10_SDR_PS_FINAL_20180801_SDR_2K_AVC.mp4	0.0	315.3998689651489	
67	216.2484369277954	movie	1		173.0	65.0	2.5	/experiments/knapen_aot/oldvideos/R_S_comp_LA_A006_C008_PSNK_ALL_LOGOS_v10_SDR_PS_FINAL_20180801_SDR_2K_AVC.mp4	0.0	315.4080579280853	2.508378028869629
67	218.75681495666504	fix_post	2		12.0	65.0	2.5	/experiments/knapen_aot/oldvideos/R_S_comp_LA_A006_C008_PSNK_ALL_LOGOS_v10_SDR_PS_FINAL_20180801_SDR_2K_AVC.mp4	0.0	317.91643595695496	0.09998202323913574
68	218.85679697990417	fix_pre	0		25.0	66.0	2.5	/experiments/knapen_aot/oldvideos/R_S_yt-D6fhzH21T_E_26.mp4	0.0	318.0164179801941	0.20830893516540527
68	219.05683994293213	response	0	4		66.0	2.5	/experiments/knapen_aot/oldvideos/R_S_yt-D6fhzH21T_E_26.mp4	0.0	318.21646094322205	
68	219.06510591506958	movie	1		301.0	66.0	2.5	/experiments/knapen_aot/oldvideos/R_S_yt-D6fhzH21T_E_26.mp4	0.0	318.2247269153595	2.5083911418914795
68	221.57349705696106	fix_post	2		12.0	66.0	2.5	/experiments/knapen_aot/oldvideos/R_S_yt-D6fhzH21T_E_26.mp4	0.0	320.733118057251	0.09996581077575684
69	221.67346286773682	fix_pre	0		26.0	67.0	2.5	/experiments/knapen_aot/oldvideos/R_S_Person_Going_Through_A_Bible.mp4	0.0	320.83308386802673	0.21662116050720215
69	221.88197493553162	response	0	4		67.0	2.5	/experiments/knapen_aot/oldvideos/R_S_Person_Going_Through_A_Bible.mp4	0.0	321.04159593582153	
69	221.89008402824402	movie	1		166.0	67.0	2.5	/experiments/knapen_aot/oldvideos/R_S_Person_Going_Through_A_Bible.mp4	0.0	321.04970502853394	2.5083558559417725
69	224.3984398841858	fix_post	2		12.0	67.0	2.5	/experiments/knapen_aot/oldvideos/R_S_Person_Going_Through_A_Bible.mp4	0.0	323.5580608844757	0.10001111030578613
70	224.49845099449158	fix_pre	0		73.0	68.0	2.5	blank	1.0	323.6580719947815	0.6083419322967529
70	225.0985848903656	response	0	4		68.0	2.5	blank	1.0	324.2582058906555	
70	225.10679292678833	movie	1		301.0	68.0	2.5	blank	1.0	324.26641392707825	2.508255958557129
70	227.61504888534546	fix_post	2		12.0	68.0	2.5	blank	1.0	326.7746698856354	0.10014605522155762
71	227.71519494056702	fix_pre	0		41.0	69.0	2.5	/experiments/knapen_aot/oldvideos/R_S_yt-MNo__ov96eI_22.mp4	0.0	326.87481594085693	0.3415031433105469
71	228.04850697517395	response	0	4		69.0	2.5	/experiments/knapen_aot/oldvideos/R_S_yt-MNo__ov96eI_22.mp4	0.0	327.20812797546387	
71	228.05669808387756	movie	1		301.0	69.0	2.5	/experiments/knapen_aot/oldvideos/R_S_yt-MNo__ov96eI_22.mp4	0.0	327.2163190841675	2.508419990539551
71	230.56511807441711	fix_post	2		12.0	69.0	2.5	/experiments/knapen_aot/oldvideos/R_S_yt-MNo__ov96eI_22.mp4	0.0	329.72473907470703	0.0999917984008789
72	230.665109872818	fix_pre	0		31.0	70.0	2.5	/experiments/knapen_aot/oldvideos/S_yt-8y7Xhp2_2e0_168.mp4	0.0	329.8247308731079	0.25830817222595215
72	230.91521000862122	response	0	4		70.0	2.5	/experiments/knapen_aot/oldvideos/S_yt-8y7Xhp2_2e0_168.mp4	0.0	330.07483100891113	
72	230.92341804504395	movie	1		301.0	70.0	2.5	/experiments/knapen_aot/oldvideos/S_yt-8y7Xhp2_2e0_168.mp4	0.0	330.08303904533386	2.5083420276641846
72	233.43176007270813	fix_post	2		12.0	70.0	2.5	/experiments/knapen_aot/oldvideos/S_yt-8y7Xhp2_2e0_168.mp4	0.0	332.59138107299805	0.10006499290466309
73	233.5318250656128	fix_pre	0		51.0	71.0	2.5	/experiments/knapen_aot/oldvideos/R_S_yt-Rqwi-Fk9IJQ_114.mp4	0.0	332.6914460659027	0.42484092712402344
73	233.94855308532715	response	0	4		71.0	2.5	/experiments/knapen_aot/oldvideos/R_S_yt-Rqwi-Fk9IJQ_114.mp4	0.0	333.10817408561707	
73	233.95666599273682	movie	1		301.0	71.0	2.5	/experiments/knapen_aot/oldvideos/R_S_yt-Rqwi-Fk9IJQ_114.mp4	0.0	333.11628699302673	2.508359909057617
73	236.46502590179443	fix_post	2		12.0	71.0	2.5	/experiments/knapen_aot/oldvideos/R_S_yt-Rqwi-Fk9IJQ_114.mp4	0.0	335.62464690208435	0.1000370979309082
74	236.56506299972534	fix_pre	0		189.0	72.0	2.5	/experiments/knapen_aot/oldvideos/R_S_bing-www_nbcnews_com_storyline_isis-terror_fall-isis-stronghold-raqqa-will-change-war-extremists-not-end-n808621_86.mp4	0.0	335.72468400001526	1.5749549865722656
74	238.13174891471863	response	0	4		72.0	2.5	/experiments/knapen_aot/oldvideos/R_S_bing-www_nbcnews_com_storyline_isis-terror_fall-isis-stronghold-raqqa-will-change-war-extremists-not-end-n808621_86.mp4	0.0	337.29136991500854	
74	238.1400179862976	movie	1		168.0	72.0	2.5	/experiments/knapen_aot/oldvideos/R_S_bing-www_nbcnews_com_storyline_isis-terror_fall-isis-stronghold-raqqa-will-change-war-extremists-not-end-n808621_86.mp4	0.0	337.2996389865875	2.5083539485931396
74	240.64837193489075	fix_post	2		12.0	72.0	2.5	/experiments/knapen_aot/oldvideos/R_S_bing-www_nbcnews_com_storyline_isis-terror_fall-isis-stronghold-raqqa-will-change-war-extremists-not-end-n808621_86.mp4	0.0	339.80799293518066	0.10001707077026367
75	240.748389005661	fix_pre	0		10.0	73.0	2.5	/experiments/knapen_aot/oldvideos/S_production_ID_5049072.mp4	0.0	339.9080100059509	0.08329892158508301
75	240.82347893714905	response	0	4		73.0	2.5	/experiments/knapen_aot/oldvideos/S_production_ID_5049072.mp4	0.0	339.98309993743896	
75	240.8316879272461	movie	1		169.0	73.0	2.5	/experiments/knapen_aot/oldvideos/S_production_ID_5049072.mp4	0.0	339.991308927536	2.5083460807800293
75	243.34003400802612	fix_post	2		12.0	73.0	2.5	/experiments/knapen_aot/oldvideos/S_production_ID_5049072.mp4	0.0	342.49965500831604	0.1000058650970459
76	243.44003987312317	fix_pre	0		8.0	74.0	2.5	/experiments/knapen_aot/oldvideos/R_S_yt-82O1uT8dmv8_12.mp4	0.0	342.5996608734131	0.06662797927856445
76	243.49844694137573	response	0	4		74.0	2.5	/experiments/knapen_aot/oldvideos/R_S_yt-82O1uT8dmv8_12.mp4	0.0	342.65806794166565	
76	243.50666785240173	movie	1		301.0	74.0	2.5	/experiments/knapen_aot/oldvideos/R_S_yt-82O1uT8dmv8_12.mp4	0.0	342.66628885269165	2.508618116378784
76	246.01528596878052	fix_post	2		12.0	74.0	2.5	/experiments/knapen_aot/oldvideos/R_S_yt-82O1uT8dmv8_12.mp4	0.0	345.17490696907043	0.10019207000732422
77	246.11547803878784	fix_pre	0		153.0	75.0	2.5	/experiments/knapen_aot/oldvideos/R_S_pexels-c-technical-6344801.mp4	0.0	345.27509903907776	1.2747578620910645
77	247.3817958831787	response	0	4		75.0	2.5	/experiments/knapen_aot/oldvideos/R_S_pexels-c-technical-6344801.mp4	0.0	346.5414168834686	
77	247.3902359008789	movie	1		202.0	75.0	2.5	/experiments/knapen_aot/oldvideos/R_S_pexels-c-technical-6344801.mp4	0.0	346.5498569011688	2.5081300735473633
77	249.89836597442627	fix_post	2		12.0	75.0	2.5	/experiments/knapen_aot/oldvideos/R_S_pexels-c-technical-6344801.mp4	0.0	349.0579869747162	0.09988594055175781
78	249.99825191497803	fix_pre	0		51.0	76.0	2.5	/experiments/knapen_aot/oldvideos/R_S_production_ID_4707837.mp4	0.0	349.15787291526794	0.4250800609588623
78	250.415118932724	response	0	4		76.0	2.5	/experiments/knapen_aot/oldvideos/R_S_production_ID_4707837.mp4	0.0	349.5747399330139	
78	250.4233319759369	movie	1		166.0	76.0	2.5	/experiments/knapen_aot/oldvideos/R_S_production_ID_4707837.mp4	0.0	349.5829529762268	2.50848388671875
78	252.71453189849854	response	1	4		76.0	2.5	/experiments/knapen_aot/oldvideos/R_S_production_ID_4707837.mp4	0.0	351.87415289878845	
78	252.93181586265564	fix_post	2		12.0	76.0	2.5	/experiments/knapen_aot/oldvideos/R_S_production_ID_4707837.mp4	0.0	352.09143686294556	0.09987807273864746
79	253.0316939353943	fix_pre	0		47.0	77.0	2.5	blank	1.0	352.1913149356842	0.3915879726409912
79	253.41508197784424	response	0	4		77.0	2.5	blank	1.0	352.57470297813416	
79	253.42328190803528	movie	1		301.0	77.0	2.5	blank	1.0	352.5829029083252	2.5083401203155518
79	255.93162202835083	fix_post	2		12.0	77.0	2.5	blank	1.0	355.09124302864075	0.1003570556640625
80	256.0319790840149	fix_pre	0		77.0	78.0	2.5	/experiments/knapen_aot/oldvideos/R_S_b5-3.mp4	0.0	355.1916000843048	0.6412069797515869
80	256.66504096984863	response	0	4		78.0	2.5	/experiments/knapen_aot/oldvideos/R_S_b5-3.mp4	0.0	355.82466197013855	
80	256.6731860637665	movie	1		169.0	78.0	2.5	/experiments/knapen_aot/oldvideos/R_S_b5-3.mp4	0.0	355.8328070640564	2.5084497928619385
80	259.1816358566284	fix_post	2		12.0	78.0	2.5	/experiments/knapen_aot/oldvideos/R_S_b5-3.mp4	0.0	358.34125685691833	0.10022807121276855
81	259.2818639278412	fix_pre	0		194.0	79.0	2.5	/experiments/knapen_aot/oldvideos/R_S_comp_N008_C009_PS_v01_SDR_PS_20180925_SDR_2K_AVC.mp4	0.0	358.4414849281311	1.6163699626922607
81	260.89003896713257	response	0	4		79.0	2.5	/experiments/knapen_aot/oldvideos/R_S_comp_N008_C009_PS_v01_SDR_PS_20180925_SDR_2K_AVC.mp4	0.0	360.0496599674225	
81	260.89823389053345	movie	1		174.0	79.0	2.5	/experiments/knapen_aot/oldvideos/R_S_comp_N008_C009_PS_v01_SDR_PS_20180925_SDR_2K_AVC.mp4	0.0	360.05785489082336	2.5083701610565186
81	263.40660405158997	fix_post	2		12.0	79.0	2.5	/experiments/knapen_aot/oldvideos/R_S_comp_N008_C009_PS_v01_SDR_PS_20180925_SDR_2K_AVC.mp4	0.0	362.5662250518799	0.09993100166320801
82	263.5065350532532	fix_pre	0		41.0	80.0	2.5	/experiments/knapen_aot/oldvideos/S_pexels-diva-plavalaguna-6985395.mp4	0.0	362.6661560535431	0.341641902923584
82	263.8400950431824	response	0	4		80.0	2.5	/experiments/knapen_aot/oldvideos/S_pexels-diva-plavalaguna-6985395.mp4	0.0	362.9997160434723	
82	263.84817695617676	movie	1		171.0	80.0	2.5	/experiments/knapen_aot/oldvideos/S_pexels-diva-plavalaguna-6985395.mp4	0.0	363.0077979564667	2.508589029312134
82	266.3567659854889	fix_post	2		12.0	80.0	2.5	/experiments/knapen_aot/oldvideos/S_pexels-diva-plavalaguna-6985395.mp4	0.0	365.5163869857788	0.09979891777038574
83	266.4565649032593	fix_pre	0		35.0	81.0	2.5	/experiments/knapen_aot/oldvideos/S_yt-Iu2ZPHLqXuY_32.mp4	0.0	365.6161859035492	0.2916281223297119
83	266.74011397361755	response	0	4		81.0	2.5	/experiments/knapen_aot/oldvideos/S_yt-Iu2ZPHLqXuY_32.mp4	0.0	365.89973497390747	
83	266.748193025589	movie	1		301.0	81.0	2.5	/experiments/knapen_aot/oldvideos/S_yt-Iu2ZPHLqXuY_32.mp4	0.0	365.9078140258789	2.5084328651428223
83	269.2566258907318	fix_post	2		12.0	81.0	2.5	/experiments/knapen_aot/oldvideos/S_yt-Iu2ZPHLqXuY_32.mp4	0.0	368.41624689102173	0.09994316101074219
84	269.35656905174255	fix_pre	0		31.0	82.0	2.5	/experiments/knapen_aot/oldvideos/R_S_production_ID_4101307.mp4	0.0	368.51619005203247	0.2585740089416504
84	269.6066908836365	response	0	4		82.0	2.5	/experiments/knapen_aot/oldvideos/R_S_production_ID_4101307.mp4	0.0	368.7663118839264	
84	269.6151430606842	movie	1		213.0	82.0	2.5	/experiments/knapen_aot/oldvideos/R_S_production_ID_4101307.mp4	0.0	368.7747640609741	2.5080909729003906
84	272.1232340335846	fix_post	2		12.0	82.0	2.5	/experiments/knapen_aot/oldvideos/R_S_production_ID_4101307.mp4	0.0	371.2828550338745	0.0999138355255127
85	272.2231478691101	fix_pre	0		43.0	83.0	2.5	blank	1.0	371.3827688694	0.35839414596557617
85	272.573303937912	response	0	4		83.0	2.5	blank	1.0	371.7329249382019	
85	272.5815420150757	movie	1		301.0	83.0	2.5	blank	1.0	371.7411630153656	2.5084099769592285
85	275.0899519920349	fix_post	2		12.0	83.0	2.5	blank	1.0	374.24957299232483	0.1001129150390625
87	275.190064907074	stim	0		121.0					374.3496859073639	1.0082621574401855
87	276.19474601745605	response	0	space						375.354367017746	
