trial_nr	onset	event_type	phase	response	nr_frames	movie_index	movie_duration	movie_file	blank	onset_abs	duration
0	0.13063383102416992	stim	0		20.0					88.41504001617432	0.16799616813659668
0	0.28171396255493164	response	0	space						88.56612014770508	
1	0.2986299991607666	stim	0		121.0					88.58303618431091	1.0066249370574951
1	0.88130784034729	response	0	space						89.16571402549744	
1	1.3052549362182617	stim	1		120.0					89.58966112136841	0.9999799728393555
1	1.4803988933563232	response	1	space						89.76480507850647	
1	1.7636709213256836	response	1	space						90.04807710647583	
1	2.0895140171051025	response	1	space						90.37392020225525	
2	2.305234909057617	fix_pre	0		22.0	0.0	2.5	/experiments/knapen_aot/videos/R_S_wc-8bTJmWfuVyJ4_8.mp4	0.0	90.58964109420776	0.18330001831054688
2	2.4803240299224854	response	0	space		0.0	2.5	/experiments/knapen_aot/videos/R_S_wc-8bTJmWfuVyJ4_8.mp4	0.0	90.76473021507263	
2	2.488534927368164	movie	1		168.0	0.0	2.5	/experiments/knapen_aot/videos/R_S_wc-8bTJmWfuVyJ4_8.mp4	0.0	90.77294111251831	2.508251905441284
2	4.996786832809448	fix_post	2		12.0	0.0	2.5	/experiments/knapen_aot/videos/R_S_wc-8bTJmWfuVyJ4_8.mp4	0.0	93.2811930179596	0.10010600090026855
3	5.096892833709717	fix_pre	0		156.0	1.0	2.5	/experiments/knapen_aot/videos/S_ILSVRC2015_train_00556000.mp4	0.0	93.38129901885986	1.3054351806640625
3	6.393630027770996	response	0	2		1.0	2.5	/experiments/knapen_aot/videos/S_ILSVRC2015_train_00556000.mp4	0.0	94.67803621292114	
3	6.402328014373779	movie	1		299.0	1.0	2.5	/experiments/knapen_aot/videos/S_ILSVRC2015_train_00556000.mp4	0.0	94.68673419952393	2.5028460025787354
3	8.905174016952515	fix_post	2		12.0	1.0	2.5	/experiments/knapen_aot/videos/S_ILSVRC2015_train_00556000.mp4	0.0	97.18958020210266	0.10004901885986328
4	9.005223035812378	fix_pre	0		54.0	2.0	2.5	/experiments/knapen_aot/videos/R_S_flickr-seattlemcneals-996953_3.mp4	0.0	97.28962922096252	0.45000481605529785
4	9.44703483581543	response	0	2		2.0	2.5	/experiments/knapen_aot/videos/R_S_flickr-seattlemcneals-996953_3.mp4	0.0	97.73144102096558	
4	9.455227851867676	movie	1		301.0	2.0	2.5	/experiments/knapen_aot/videos/R_S_flickr-seattlemcneals-996953_3.mp4	0.0	97.73963403701782	2.50829815864563
4	11.963526010513306	fix_post	2		12.0	2.0	2.5	/experiments/knapen_aot/videos/R_S_flickr-seattlemcneals-996953_3.mp4	0.0	100.24793219566345	0.09996485710144043
5	12.063490867614746	fix_pre	0		31.0	3.0	2.5	/experiments/knapen_aot/videos/R_S_yt-9yxWUrtQJnw_11.mp4	0.0	100.34789705276489	0.2583799362182617
5	12.306074857711792	response	0	2		3.0	2.5	/experiments/knapen_aot/videos/R_S_yt-9yxWUrtQJnw_11.mp4	0.0	100.59048104286194	
5	12.321870803833008	movie	1		301.0	3.0	2.5	/experiments/knapen_aot/videos/R_S_yt-9yxWUrtQJnw_11.mp4	0.0	100.60627698898315	2.508329153060913
5	14.830199956893921	fix_post	2		12.0	3.0	2.5	/experiments/knapen_aot/videos/R_S_yt-9yxWUrtQJnw_11.mp4	0.0	103.11460614204407	0.09998393058776855
6	14.93018388748169	fix_pre	0		61.0	4.0	2.5	/experiments/knapen_aot/videos/S_yt-6vkiJedss6g_5.mp4	0.0	103.21459007263184	0.5082440376281738
6	15.430299997329712	response	0	2		4.0	2.5	/experiments/knapen_aot/videos/S_yt-6vkiJedss6g_5.mp4	0.0	103.71470618247986	
6	15.438427925109863	movie	1		301.0	4.0	2.5	/experiments/knapen_aot/videos/S_yt-6vkiJedss6g_5.mp4	0.0	103.72283411026001	2.508296012878418
6	17.94672393798828	fix_post	2		12.0	4.0	2.5	/experiments/knapen_aot/videos/S_yt-6vkiJedss6g_5.mp4	0.0	106.23113012313843	0.10010695457458496
7	18.046830892562866	fix_pre	0		64.0	5.0	2.5	/experiments/knapen_aot/videos/R_S_yt-VJ65ukWmdxQ_193.mp4	0.0	106.33123707771301	0.53330397605896
7	18.57209300994873	response	0	2		5.0	2.5	/experiments/knapen_aot/videos/R_S_yt-VJ65ukWmdxQ_193.mp4	0.0	106.85649919509888	
7	18.580134868621826	movie	1		301.0	5.0	2.5	/experiments/knapen_aot/videos/R_S_yt-VJ65ukWmdxQ_193.mp4	0.0	106.86454105377197	2.5084030628204346
7	21.08853793144226	fix_post	2		12.0	5.0	2.5	/experiments/knapen_aot/videos/R_S_yt-VJ65ukWmdxQ_193.mp4	0.0	109.37294411659241	0.1000359058380127
8	21.188573837280273	fix_pre	0		30.0	6.0	2.5	/experiments/knapen_aot/videos/S_yt-9NV8zv2Sdq4_30.mp4	0.0	109.47298002243042	0.24992704391479492
8	21.43028688430786	response	0	2		6.0	2.5	/experiments/knapen_aot/videos/S_yt-9NV8zv2Sdq4_30.mp4	0.0	109.71469306945801	
8	21.43850088119507	movie	1		301.0	6.0	2.5	/experiments/knapen_aot/videos/S_yt-9NV8zv2Sdq4_30.mp4	0.0	109.72290706634521	2.508373975753784
8	23.946874856948853	fix_post	2		12.0	6.0	2.5	/experiments/knapen_aot/videos/S_yt-9NV8zv2Sdq4_30.mp4	0.0	112.231281042099	0.09991312026977539
9	24.046787977218628	fix_pre	0		30.0	7.0	2.5	blank	1.0	112.33119416236877	0.2500460147857666
9	24.28113603591919	response	0	2		7.0	2.5	blank	1.0	112.56554222106934	
9	24.296833992004395	movie	1		301.0	7.0	2.5	blank	1.0	112.58124017715454	2.508391857147217
9	26.80522584915161	fix_post	2		12.0	7.0	2.5	blank	1.0	115.08963203430176	0.09994006156921387
10	26.905165910720825	fix_pre	0		27.0	8.0	2.5	/experiments/knapen_aot/videos/R_S_yt-qjg6kRxNXK8_217.mp4	0.0	115.18957209587097	0.22615599632263184
10	27.12187385559082	response	0	2		8.0	2.5	/experiments/knapen_aot/videos/R_S_yt-qjg6kRxNXK8_217.mp4	0.0	115.40628004074097	
10	27.131321907043457	movie	1		299.0	8.0	2.5	/experiments/knapen_aot/videos/R_S_yt-qjg6kRxNXK8_217.mp4	0.0	115.4157280921936	2.5071821212768555
10	29.638504028320312	fix_post	2		12.0	8.0	2.5	/experiments/knapen_aot/videos/R_S_yt-qjg6kRxNXK8_217.mp4	0.0	117.92291021347046	0.0999898910522461
11	29.73849391937256	fix_pre	0		64.0	9.0	2.5	/experiments/knapen_aot/videos/S_yt-8N5UuN5WQcY_72.mp4	0.0	118.0229001045227	0.5332920551300049
11	30.263664960861206	response	0	2		9.0	2.5	/experiments/knapen_aot/videos/S_yt-8N5UuN5WQcY_72.mp4	0.0	118.54807114601135	
11	30.271785974502563	movie	1		301.0	9.0	2.5	/experiments/knapen_aot/videos/S_yt-8N5UuN5WQcY_72.mp4	0.0	118.55619215965271	2.508280038833618
11	32.78006601333618	fix_post	2		12.0	9.0	2.5	/experiments/knapen_aot/videos/S_yt-8N5UuN5WQcY_72.mp4	0.0	121.06447219848633	0.10005497932434082
12	32.88012099266052	fix_pre	0		31.0	10.0	2.5	/experiments/knapen_aot/videos/S_yt-KLInd-KrK_w_19.mp4	0.0	121.16452717781067	0.2583138942718506
12	33.13019299507141	response	0	2		10.0	2.5	/experiments/knapen_aot/videos/S_yt-KLInd-KrK_w_19.mp4	0.0	121.41459918022156	
12	33.13843488693237	movie	1		301.0	10.0	2.5	/experiments/knapen_aot/videos/S_yt-KLInd-KrK_w_19.mp4	0.0	121.42284107208252	2.5083019733428955
12	35.64673686027527	fix_post	2		12.0	10.0	2.5	/experiments/knapen_aot/videos/S_yt-KLInd-KrK_w_19.mp4	0.0	123.93114304542542	0.10003805160522461
13	35.74677491188049	fix_pre	0		41.0	11.0	2.5	/experiments/knapen_aot/videos/S_yt-Bx2kLEUuN0E_456.mp4	0.0	124.03118109703064	0.3427729606628418
13	36.08017683029175	response	0	2		11.0	2.5	/experiments/knapen_aot/videos/S_yt-Bx2kLEUuN0E_456.mp4	0.0	124.3645830154419	
13	36.089547872543335	movie	1		301.0	11.0	2.5	/experiments/knapen_aot/videos/S_yt-Bx2kLEUuN0E_456.mp4	0.0	124.37395405769348	2.507185935974121
13	38.596733808517456	fix_post	2		12.0	11.0	2.5	/experiments/knapen_aot/videos/S_yt-Bx2kLEUuN0E_456.mp4	0.0	126.8811399936676	0.09994316101074219
14	38.6966769695282	fix_pre	0		16.0	12.0	2.5	/experiments/knapen_aot/videos/R_S_yt--WPE_4bqQXc_26.mp4	0.0	126.98108315467834	0.13338088989257812
14	38.82188701629639	response	0	2		12.0	2.5	/experiments/knapen_aot/videos/R_S_yt--WPE_4bqQXc_26.mp4	0.0	127.10629320144653	
14	38.830057859420776	movie	1		301.0	12.0	2.5	/experiments/knapen_aot/videos/R_S_yt--WPE_4bqQXc_26.mp4	0.0	127.11446404457092	2.5082671642303467
14	41.33832502365112	fix_post	2		12.0	12.0	2.5	/experiments/knapen_aot/videos/R_S_yt--WPE_4bqQXc_26.mp4	0.0	129.62273120880127	0.10010194778442383
15	41.43842697143555	fix_pre	0		27.0	13.0	2.5	blank	1.0	129.7228331565857	0.2249770164489746
15	41.655210971832275	response	0	2		13.0	2.5	blank	1.0	129.93961715698242	
15	41.66340398788452	movie	1		301.0	13.0	2.5	blank	1.0	129.94781017303467	2.5082898139953613
15	44.17169380187988	fix_post	2		12.0	13.0	2.5	blank	1.0	132.45609998703003	0.09998011589050293
16	44.271673917770386	fix_pre	0		53.0	14.0	2.5	/experiments/knapen_aot/videos/S_yt--UhwpukdyBg_51.mp4	0.0	132.55608010292053	0.44277095794677734
16	44.70514488220215	response	0	2		14.0	2.5	/experiments/knapen_aot/videos/S_yt--UhwpukdyBg_51.mp4	0.0	132.9895510673523	
16	44.71444487571716	movie	1		301.0	14.0	2.5	/experiments/knapen_aot/videos/S_yt--UhwpukdyBg_51.mp4	0.0	132.9988510608673	2.5072460174560547
16	47.22169089317322	fix_post	2		12.0	14.0	2.5	/experiments/knapen_aot/videos/S_yt--UhwpukdyBg_51.mp4	0.0	135.50609707832336	0.09999608993530273
17	47.32168698310852	fix_pre	0		25.0	15.0	2.5	/experiments/knapen_aot/videos/S_82eJpVKGnC0_188.mp4	0.0	135.60609316825867	0.20833086967468262
17	47.5218448638916	response	0	2		15.0	2.5	/experiments/knapen_aot/videos/S_82eJpVKGnC0_188.mp4	0.0	135.80625104904175	
17	47.5300178527832	movie	1		301.0	15.0	2.5	/experiments/knapen_aot/videos/S_82eJpVKGnC0_188.mp4	0.0	135.81442403793335	2.508362054824829
17	50.03837990760803	fix_post	2		12.0	15.0	2.5	/experiments/knapen_aot/videos/S_82eJpVKGnC0_188.mp4	0.0	138.32278609275818	0.09996604919433594
18	50.13834595680237	fix_pre	0		15.0	16.0	2.5	/experiments/knapen_aot/videos/R_S_pexels-roman-odintsov-8233166.mp4	0.0	138.42275214195251	0.12499284744262695
18	50.25521993637085	response	0	2		16.0	2.5	/experiments/knapen_aot/videos/R_S_pexels-roman-odintsov-8233166.mp4	0.0	138.539626121521	
18	50.263338804244995	movie	1		204.0	16.0	2.5	/experiments/knapen_aot/videos/R_S_pexels-roman-odintsov-8233166.mp4	0.0	138.54774498939514	2.5083892345428467
18	52.77172803878784	fix_post	2		12.0	16.0	2.5	/experiments/knapen_aot/videos/R_S_pexels-roman-odintsov-8233166.mp4	0.0	141.056134223938	0.09994888305664062
19	52.87167692184448	fix_pre	0		14.0	17.0	2.5	/experiments/knapen_aot/videos/S_82eJpVKGnC0_188.mp4	0.0	141.15608310699463	0.11672806739807129
19	52.980225801467896	response	0	2		17.0	2.5	/experiments/knapen_aot/videos/S_82eJpVKGnC0_188.mp4	0.0	141.26463198661804	
19	52.988404989242554	movie	1		300.0	17.0	2.5	/experiments/knapen_aot/videos/S_82eJpVKGnC0_188.mp4	0.0	141.2728111743927	2.508323907852173
19	55.49672889709473	fix_post	2		12.0	17.0	2.5	/experiments/knapen_aot/videos/S_82eJpVKGnC0_188.mp4	0.0	143.78113508224487	0.10000300407409668
20	55.59673190116882	fix_pre	0		27.0	18.0	2.5	/experiments/knapen_aot/videos/R_S_ILSVRC2015_train_00682000.mp4	0.0	143.88113808631897	0.22494912147521973
20	55.81349587440491	response	0	2		18.0	2.5	/experiments/knapen_aot/videos/R_S_ILSVRC2015_train_00682000.mp4	0.0	144.09790205955505	
20	55.82168102264404	movie	1		301.0	18.0	2.5	/experiments/knapen_aot/videos/R_S_ILSVRC2015_train_00682000.mp4	0.0	144.1060872077942	2.508305788040161
20	58.329986810684204	fix_post	2		12.0	18.0	2.5	/experiments/knapen_aot/videos/R_S_ILSVRC2015_train_00682000.mp4	0.0	146.61439299583435	0.10006308555603027
21	58.430049896240234	fix_pre	0		23.0	19.0	2.5	blank	1.0	146.71445608139038	0.19159197807312012
21	58.613510847091675	response	0	2		19.0	2.5	blank	1.0	146.89791703224182	
21	58.621641874313354	movie	1		301.0	19.0	2.5	blank	1.0	146.9060480594635	2.5084900856018066
21	61.13013195991516	fix_post	2		12.0	19.0	2.5	blank	1.0	149.4145381450653	0.09990906715393066
22	61.23004102706909	fix_pre	0		29.0	20.0	2.5	/experiments/knapen_aot/videos/S_comp_LA_A009_C009_PSNK_v02_SDR_PS_FINAL_20180709_SDR_2K_AVC.mp4	0.0	149.51444721221924	0.2416548728942871
22	61.46341681480408	response	0	2		20.0	2.5	/experiments/knapen_aot/videos/S_comp_LA_A009_C009_PSNK_v02_SDR_PS_FINAL_20180709_SDR_2K_AVC.mp4	0.0	149.74782299995422	
22	61.47169589996338	movie	1		163.0	20.0	2.5	/experiments/knapen_aot/videos/S_comp_LA_A009_C009_PSNK_v02_SDR_PS_FINAL_20180709_SDR_2K_AVC.mp4	0.0	149.75610208511353	2.5083179473876953
22	63.980013847351074	fix_post	2		12.0	20.0	2.5	/experiments/knapen_aot/videos/S_comp_LA_A009_C009_PSNK_v02_SDR_PS_FINAL_20180709_SDR_2K_AVC.mp4	0.0	152.26442003250122	0.1000211238861084
23	64.08003497123718	fix_pre	0		44.0	21.0	2.5	/experiments/knapen_aot/videos/S_yt-utYnOeoj2Rw_3.mp4	0.0	152.36444115638733	0.36662793159484863
23	64.43851590156555	response	0	2		21.0	2.5	/experiments/knapen_aot/videos/S_yt-utYnOeoj2Rw_3.mp4	0.0	152.7229220867157	
23	64.44666290283203	movie	1		301.0	21.0	2.5	/experiments/knapen_aot/videos/S_yt-utYnOeoj2Rw_3.mp4	0.0	152.73106908798218	2.508362054824829
23	66.95502495765686	fix_post	2		12.0	21.0	2.5	/experiments/knapen_aot/videos/S_yt-utYnOeoj2Rw_3.mp4	0.0	155.239431142807	0.0999760627746582
24	67.05500102043152	fix_pre	0		17.0	22.0	2.5	/experiments/knapen_aot/videos/R_S_yt-Dwgpjoikt84_122.mp4	0.0	155.33940720558167	0.14162182807922363
24	67.18851089477539	response	0	2		22.0	2.5	/experiments/knapen_aot/videos/R_S_yt-Dwgpjoikt84_122.mp4	0.0	155.47291707992554	
24	67.19662284851074	movie	1		300.0	22.0	2.5	/experiments/knapen_aot/videos/R_S_yt-Dwgpjoikt84_122.mp4	0.0	155.4810290336609	2.508357048034668
24	69.70497989654541	fix_post	2		12.0	22.0	2.5	/experiments/knapen_aot/videos/R_S_yt-Dwgpjoikt84_122.mp4	0.0	157.98938608169556	0.100067138671875
25	69.80504703521729	fix_pre	0		23.0	23.0	2.5	/experiments/knapen_aot/videos/S_ILSVRC2015_train_00628000.mp4	0.0	158.08945322036743	0.1915898323059082
25	69.98844194412231	response	0	2		23.0	2.5	/experiments/knapen_aot/videos/S_ILSVRC2015_train_00628000.mp4	0.0	158.27284812927246	
25	69.9966368675232	movie	1		301.0	23.0	2.5	/experiments/knapen_aot/videos/S_ILSVRC2015_train_00628000.mp4	0.0	158.28104305267334	2.5083889961242676
25	72.50502586364746	fix_post	2		12.0	23.0	2.5	/experiments/knapen_aot/videos/S_ILSVRC2015_train_00628000.mp4	0.0	160.7894320487976	0.09997916221618652
26	72.60500502586365	fix_pre	0		78.0	24.0	2.5	/experiments/knapen_aot/videos/S_yt-a5TGHnldsKg_102.mp4	0.0	160.8894112110138	0.6509947776794434
26	73.23936080932617	response	0	2		24.0	2.5	/experiments/knapen_aot/videos/S_yt-a5TGHnldsKg_102.mp4	0.0	161.52376699447632	
26	73.25599980354309	movie	1		301.0	24.0	2.5	/experiments/knapen_aot/videos/S_yt-a5TGHnldsKg_102.mp4	0.0	161.54040598869324	2.5073540210723877
26	75.76335382461548	fix_post	2		12.0	24.0	2.5	/experiments/knapen_aot/videos/S_yt-a5TGHnldsKg_102.mp4	0.0	164.04776000976562	0.09998202323913574
27	75.86333584785461	fix_pre	0		41.0	25.0	2.5	/experiments/knapen_aot/videos/R_S_yt-hQ5pge893b4_6.mp4	0.0	164.14774203300476	0.3416001796722412
27	76.19673800468445	response	0	2		25.0	2.5	/experiments/knapen_aot/videos/R_S_yt-hQ5pge893b4_6.mp4	0.0	164.4811441898346	
27	76.20493602752686	movie	1		301.0	25.0	2.5	/experiments/knapen_aot/videos/R_S_yt-hQ5pge893b4_6.mp4	0.0	164.489342212677	2.5083539485931396
27	78.71328997612	fix_post	2		12.0	25.0	2.5	/experiments/knapen_aot/videos/R_S_yt-hQ5pge893b4_6.mp4	0.0	166.99769616127014	0.09998583793640137
28	78.8132758140564	fix_pre	0		32.0	26.0	2.5	blank	1.0	167.09768199920654	0.26668810844421387
28	79.07171988487244	response	0	2		26.0	2.5	blank	1.0	167.35612607002258	
28	79.07996392250061	movie	1		301.0	26.0	2.5	blank	1.0	167.36437010765076	2.508409023284912
28	81.58837294578552	fix_post	2		12.0	26.0	2.5	blank	1.0	169.87277913093567	0.09985589981079102
29	81.68822884559631	fix_pre	0		26.0	27.0	2.5	/experiments/knapen_aot/videos/S_yt-22c5eZ1UNME_76.mp4	0.0	169.97263503074646	0.21657013893127441
29	81.8966920375824	response	0	2		27.0	2.5	/experiments/knapen_aot/videos/S_yt-22c5eZ1UNME_76.mp4	0.0	170.18109822273254	
29	81.90479898452759	movie	1		300.0	27.0	2.5	/experiments/knapen_aot/videos/S_yt-22c5eZ1UNME_76.mp4	0.0	170.18920516967773	2.5084338188171387
29	84.41323280334473	fix_post	2		12.0	27.0	2.5	/experiments/knapen_aot/videos/S_yt-22c5eZ1UNME_76.mp4	0.0	172.69763898849487	0.0999910831451416
30	84.51322388648987	fix_pre	0		39.0	28.0	2.5	/experiments/knapen_aot/videos/S_ILSVRC2015_train_00414000.mp4	0.0	172.79763007164001	0.3258519172668457
30	84.82248187065125	response	0	2		28.0	2.5	/experiments/knapen_aot/videos/S_ILSVRC2015_train_00414000.mp4	0.0	173.1068880558014	
30	84.83907580375671	movie	1		301.0	28.0	2.5	/experiments/knapen_aot/videos/S_ILSVRC2015_train_00414000.mp4	0.0	173.12348198890686	2.5074870586395264
30	87.34656286239624	fix_post	2		12.0	28.0	2.5	/experiments/knapen_aot/videos/S_ILSVRC2015_train_00414000.mp4	0.0	175.6309690475464	0.09996914863586426
31	87.4465320110321	fix_pre	0		26.0	29.0	2.5	/experiments/knapen_aot/videos/R_S_yt-i4kSCZ8rNC0_11.mp4	0.0	175.73093819618225	0.21688199043273926
31	87.64747595787048	response	0	2		29.0	2.5	/experiments/knapen_aot/videos/R_S_yt-i4kSCZ8rNC0_11.mp4	0.0	175.93188214302063	
31	87.66341400146484	movie	1		301.0	29.0	2.5	/experiments/knapen_aot/videos/R_S_yt-i4kSCZ8rNC0_11.mp4	0.0	175.947820186615	2.508111000061035
31	90.17152500152588	fix_post	2		12.0	29.0	2.5	/experiments/knapen_aot/videos/R_S_yt-i4kSCZ8rNC0_11.mp4	0.0	178.45593118667603	0.09992599487304688
32	90.27145099639893	fix_pre	0		48.0	30.0	2.5	/experiments/knapen_aot/videos/R_S_yt-jbvXEFk2Gyw_12.mp4	0.0	178.55585718154907	0.40085697174072266
32	90.66327381134033	response	0	2		30.0	2.5	/experiments/knapen_aot/videos/R_S_yt-jbvXEFk2Gyw_12.mp4	0.0	178.94767999649048	
32	90.67230796813965	movie	1		301.0	30.0	2.5	/experiments/knapen_aot/videos/R_S_yt-jbvXEFk2Gyw_12.mp4	0.0	178.9567141532898	2.507521867752075
32	93.17982983589172	fix_post	2		12.0	30.0	2.5	/experiments/knapen_aot/videos/R_S_yt-jbvXEFk2Gyw_12.mp4	0.0	181.46423602104187	0.09998011589050293
33	93.27980995178223	fix_pre	0		45.0	31.0	2.5	/experiments/knapen_aot/videos/R_S_yt-Ndwek2tpIOA_169.mp4	0.0	181.56421613693237	0.37506103515625
33	93.64668393135071	response	0	2		31.0	2.5	/experiments/knapen_aot/videos/R_S_yt-Ndwek2tpIOA_169.mp4	0.0	181.93109011650085	
33	93.65487098693848	movie	1		301.0	31.0	2.5	/experiments/knapen_aot/videos/R_S_yt-Ndwek2tpIOA_169.mp4	0.0	181.93927717208862	2.508330821990967
33	96.16320180892944	fix_post	2		12.0	31.0	2.5	/experiments/knapen_aot/videos/R_S_yt-Ndwek2tpIOA_169.mp4	0.0	184.4476079940796	0.09999704360961914
34	96.26319885253906	fix_pre	0		30.0	32.0	2.5	/experiments/knapen_aot/videos/R_S_I003_C015_SDR_2K_AVC.mp4	0.0	184.5476050376892	0.2499849796295166
34	96.50499200820923	response	0	2		32.0	2.5	/experiments/knapen_aot/videos/R_S_I003_C015_SDR_2K_AVC.mp4	0.0	184.78939819335938	
34	96.51318383216858	movie	1		177.0	32.0	2.5	/experiments/knapen_aot/videos/R_S_I003_C015_SDR_2K_AVC.mp4	0.0	184.79759001731873	2.5083200931549072
34	99.02150392532349	fix_post	2		12.0	32.0	2.5	/experiments/knapen_aot/videos/R_S_I003_C015_SDR_2K_AVC.mp4	0.0	187.30591011047363	0.10000205039978027
35	99.12150597572327	fix_pre	0		26.0	33.0	2.5	/experiments/knapen_aot/videos/S_yt-Y7-umyL036c_507.mp4	0.0	187.4059121608734	0.21746301651000977
35	99.32991886138916	response	0	2		33.0	2.5	/experiments/knapen_aot/videos/S_yt-Y7-umyL036c_507.mp4	0.0	187.6143250465393	
35	99.33896899223328	movie	1		301.0	33.0	2.5	/experiments/knapen_aot/videos/S_yt-Y7-umyL036c_507.mp4	0.0	187.62337517738342	2.507532835006714
35	101.84650182723999	fix_post	2		12.0	33.0	2.5	/experiments/knapen_aot/videos/S_yt-Y7-umyL036c_507.mp4	0.0	190.13090801239014	0.09989714622497559
36	101.94639897346497	fix_pre	0		33.0	34.0	2.5	blank	1.0	190.2308051586151	0.27503395080566406
36	102.21326780319214	response	0	2		34.0	2.5	blank	1.0	190.49767398834229	
36	102.22143292427063	movie	1		301.0	34.0	2.5	blank	1.0	190.50583910942078	2.5082600116729736
36	104.7296929359436	fix_post	2		12.0	34.0	2.5	blank	1.0	193.01409912109375	0.10005307197570801
37	104.82974600791931	fix_pre	0		23.0	35.0	2.5	/experiments/knapen_aot/videos/S_yt-i4kSCZ8rNC0_11.mp4	0.0	193.11415219306946	0.19165992736816406
37	105.0132429599762	response	0	2		35.0	2.5	/experiments/knapen_aot/videos/S_yt-i4kSCZ8rNC0_11.mp4	0.0	193.29764914512634	
37	105.02140593528748	movie	1		301.0	35.0	2.5	/experiments/knapen_aot/videos/S_yt-i4kSCZ8rNC0_11.mp4	0.0	193.30581212043762	2.5082690715789795
37	107.52967500686646	fix_post	2		12.0	35.0	2.5	/experiments/knapen_aot/videos/S_yt-i4kSCZ8rNC0_11.mp4	0.0	195.8140811920166	0.10007691383361816
38	107.62975192070007	fix_pre	0		9.0	36.0	2.5	/experiments/knapen_aot/videos/S_ILSVRC2015_train_00479002.mp4	0.0	195.91415810585022	0.07504010200500488
38	107.6964979171753	response	0	2		36.0	2.5	/experiments/knapen_aot/videos/S_ILSVRC2015_train_00479002.mp4	0.0	195.98090410232544	
38	107.70479202270508	movie	1		301.0	36.0	2.5	/experiments/knapen_aot/videos/S_ILSVRC2015_train_00479002.mp4	0.0	195.98919820785522	2.5083417892456055
38	110.21313381195068	fix_post	2		12.0	36.0	2.5	/experiments/knapen_aot/videos/S_ILSVRC2015_train_00479002.mp4	0.0	198.49753999710083	0.09992313385009766
39	110.31305694580078	fix_pre	0		20.0	37.0	2.5	/experiments/knapen_aot/videos/R_S_yt-v9WGfC67DPk_50.mp4	0.0	198.59746313095093	0.16662287712097168
39	110.46398401260376	response	0	2		37.0	2.5	/experiments/knapen_aot/videos/R_S_yt-v9WGfC67DPk_50.mp4	0.0	198.7483901977539	
39	110.47967982292175	movie	1		301.0	37.0	2.5	/experiments/knapen_aot/videos/R_S_yt-v9WGfC67DPk_50.mp4	0.0	198.7640860080719	2.5083580017089844
39	112.98803782463074	fix_post	2		12.0	37.0	2.5	/experiments/knapen_aot/videos/R_S_yt-v9WGfC67DPk_50.mp4	0.0	201.27244400978088	0.1001131534576416
40	113.08815097808838	fix_pre	0		23.0	38.0	2.5	/experiments/knapen_aot/videos/R_S_ILnEDG_aP1A_35.mp4	0.0	201.37255716323853	0.1915428638458252
40	113.27156686782837	response	0	2		38.0	2.5	/experiments/knapen_aot/videos/R_S_ILnEDG_aP1A_35.mp4	0.0	201.55597305297852	
40	113.2796938419342	movie	1		301.0	38.0	2.5	/experiments/knapen_aot/videos/R_S_ILnEDG_aP1A_35.mp4	0.0	201.56410002708435	2.508376121520996
40	115.7880699634552	fix_post	2		12.0	38.0	2.5	/experiments/knapen_aot/videos/R_S_ILnEDG_aP1A_35.mp4	0.0	204.07247614860535	0.10002493858337402
41	115.88809490203857	fix_pre	0		67.0	39.0	2.5	/experiments/knapen_aot/videos/S_pexels-cottonbro-10639398.mp4	0.0	204.17250108718872	0.5583300590515137
41	116.43062281608582	response	0	2		39.0	2.5	/experiments/knapen_aot/videos/S_pexels-cottonbro-10639398.mp4	0.0	204.71502900123596	
41	116.44642496109009	movie	1		205.0	39.0	2.5	/experiments/knapen_aot/videos/S_pexels-cottonbro-10639398.mp4	0.0	204.73083114624023	2.508347988128662
41	118.95477294921875	fix_post	2		12.0	39.0	2.5	/experiments/knapen_aot/videos/S_pexels-cottonbro-10639398.mp4	0.0	207.2391791343689	0.09990906715393066
42	119.05468201637268	fix_pre	0		53.0	40.0	2.5	/experiments/knapen_aot/videos/R_S_yt-XtzmBXKYEWk_60.mp4	0.0	207.33908820152283	0.44166088104248047
42	119.48822784423828	response	0	2		40.0	2.5	/experiments/knapen_aot/videos/R_S_yt-XtzmBXKYEWk_60.mp4	0.0	207.77263402938843	
42	119.49634289741516	movie	1		301.0	40.0	2.5	/experiments/knapen_aot/videos/R_S_yt-XtzmBXKYEWk_60.mp4	0.0	207.7807490825653	2.5083069801330566
42	122.00464987754822	fix_post	2		12.0	40.0	2.5	/experiments/knapen_aot/videos/R_S_yt-XtzmBXKYEWk_60.mp4	0.0	210.28905606269836	0.10003209114074707
43	122.10468196868896	fix_pre	0		35.0	41.0	2.5	/experiments/knapen_aot/videos/S_yt-NuZy8Rjk4d0_156.mp4	0.0	210.3890881538391	0.29166293144226074
43	122.38808298110962	response	0	2		41.0	2.5	/experiments/knapen_aot/videos/S_yt-NuZy8Rjk4d0_156.mp4	0.0	210.67248916625977	
43	122.39634490013123	movie	1		300.0	41.0	2.5	/experiments/knapen_aot/videos/S_yt-NuZy8Rjk4d0_156.mp4	0.0	210.68075108528137	2.50838303565979
43	124.90472793579102	fix_post	2		12.0	41.0	2.5	/experiments/knapen_aot/videos/S_yt-NuZy8Rjk4d0_156.mp4	0.0	213.18913412094116	0.09998607635498047
44	125.004714012146	fix_pre	0		39.0	42.0	2.5	blank	1.0	213.28912019729614	0.32495999336242676
44	125.32150888442993	response	0	2		42.0	2.5	blank	1.0	213.60591506958008	
44	125.32967400550842	movie	1		301.0	42.0	2.5	blank	1.0	213.61408019065857	2.5083467960357666
44	127.83802080154419	fix_post	2		12.0	42.0	2.5	blank	1.0	216.12242698669434	0.09999704360961914
45	127.93801784515381	fix_pre	0		33.0	43.0	2.5	/experiments/knapen_aot/videos/S_yt-ujdFTAUE8rc_34.mp4	0.0	216.22242403030396	0.27558207511901855
45	128.2048499584198	response	0	2		43.0	2.5	/experiments/knapen_aot/videos/S_yt-ujdFTAUE8rc_34.mp4	0.0	216.48925614356995	
45	128.21359992027283	movie	1		301.0	43.0	2.5	/experiments/knapen_aot/videos/S_yt-ujdFTAUE8rc_34.mp4	0.0	216.49800610542297	2.5077290534973145
45	130.72132897377014	fix_post	2		12.0	43.0	2.5	/experiments/knapen_aot/videos/S_yt-ujdFTAUE8rc_34.mp4	0.0	219.0057351589203	0.10001802444458008
46	130.82134699821472	fix_pre	0		39.0	44.0	2.5	/experiments/knapen_aot/videos/R_S_yt-a5TGHnldsKg_102.mp4	0.0	219.10575318336487	0.3249509334564209
46	131.13814401626587	response	0	2		44.0	2.5	/experiments/knapen_aot/videos/R_S_yt-a5TGHnldsKg_102.mp4	0.0	219.42255020141602	
46	131.14629793167114	movie	1		301.0	44.0	2.5	/experiments/knapen_aot/videos/R_S_yt-a5TGHnldsKg_102.mp4	0.0	219.4307041168213	2.508397102355957
46	133.6546950340271	fix_post	2		12.0	44.0	2.5	/experiments/knapen_aot/videos/R_S_yt-a5TGHnldsKg_102.mp4	0.0	221.93910121917725	0.0999758243560791
47	133.75467085838318	fix_pre	0		36.0	45.0	2.5	/experiments/knapen_aot/videos/S_yt-TvU-aYjNa2c_21.mp4	0.0	222.03907704353333	0.29999303817749023
47	134.0464220046997	response	0	2		45.0	2.5	/experiments/knapen_aot/videos/S_yt-TvU-aYjNa2c_21.mp4	0.0	222.33082818984985	
47	134.05466389656067	movie	1		301.0	45.0	2.5	/experiments/knapen_aot/videos/S_yt-TvU-aYjNa2c_21.mp4	0.0	222.33907008171082	2.508345127105713
47	136.56300902366638	fix_post	2		12.0	45.0	2.5	/experiments/knapen_aot/videos/S_yt-TvU-aYjNa2c_21.mp4	0.0	224.84741520881653	0.09991884231567383
48	136.66292786598206	fix_pre	0		33.0	46.0	2.5	/experiments/knapen_aot/videos/S_pexels-mikhail-nilov-8410088.mp4	0.0	224.9473340511322	0.27500104904174805
48	136.92979788780212	response	0	2		46.0	2.5	/experiments/knapen_aot/videos/S_pexels-mikhail-nilov-8410088.mp4	0.0	225.21420407295227	
48	136.9379289150238	movie	1		163.0	46.0	2.5	/experiments/knapen_aot/videos/S_pexels-mikhail-nilov-8410088.mp4	0.0	225.22233510017395	2.5084290504455566
48	139.44635796546936	fix_post	2		12.0	46.0	2.5	/experiments/knapen_aot/videos/S_pexels-mikhail-nilov-8410088.mp4	0.0	227.7307641506195	0.10002398490905762
49	139.54638195037842	fix_pre	0		38.0	47.0	2.5	/experiments/knapen_aot/videos/S_pexels-anthony-shkraba-7569650.mp4	0.0	227.83078813552856	0.3165919780731201
49	139.85474801063538	response	0	2		47.0	2.5	/experiments/knapen_aot/videos/S_pexels-anthony-shkraba-7569650.mp4	0.0	228.13915419578552	
49	139.86297392845154	movie	1		200.0	47.0	2.5	/experiments/knapen_aot/videos/S_pexels-anthony-shkraba-7569650.mp4	0.0	228.14738011360168	2.5083110332489014
49	142.37128496170044	fix_post	2		12.0	47.0	2.5	/experiments/knapen_aot/videos/S_pexels-anthony-shkraba-7569650.mp4	0.0	230.6556911468506	0.10002803802490234
50	142.47131299972534	fix_pre	0		50.0	48.0	2.5	/experiments/knapen_aot/videos/S_pexels-cottonbro-9063801_1.mp4	0.0	230.7557191848755	0.41663384437561035
50	142.87967586517334	response	0	2		48.0	2.5	/experiments/knapen_aot/videos/S_pexels-cottonbro-9063801_1.mp4	0.0	231.1640820503235	
50	142.88794684410095	movie	1		199.0	48.0	2.5	/experiments/knapen_aot/videos/S_pexels-cottonbro-9063801_1.mp4	0.0	231.1723530292511	2.508380174636841
50	145.3963270187378	fix_post	2		12.0	48.0	2.5	/experiments/knapen_aot/videos/S_pexels-cottonbro-9063801_1.mp4	0.0	233.68073320388794	0.09995579719543457
51	145.49628281593323	fix_pre	0		28.0	49.0	2.5	blank	1.0	233.78068900108337	0.2333362102508545
51	145.72135496139526	response	0	2		49.0	2.5	blank	1.0	234.0057611465454	
51	145.72961902618408	movie	1		301.0	49.0	2.5	blank	1.0	234.01402521133423	2.508314847946167
51	148.23793387413025	fix_post	2		12.0	49.0	2.5	blank	1.0	236.5223400592804	0.1005549430847168
52	148.33848881721497	fix_pre	0		34.0	50.0	2.5	/experiments/knapen_aot/videos/R_S_Pexels_Videos_2795736.mp4	0.0	236.6228950023651	0.28275299072265625
52	148.6130759716034	response	0	2		50.0	2.5	/experiments/knapen_aot/videos/R_S_Pexels_Videos_2795736.mp4	0.0	236.89748215675354	
52	148.62124180793762	movie	1		166.0	50.0	2.5	/experiments/knapen_aot/videos/R_S_Pexels_Videos_2795736.mp4	0.0	236.90564799308777	2.5083820819854736
52	151.1296238899231	fix_post	2		12.0	50.0	2.5	/experiments/knapen_aot/videos/R_S_Pexels_Videos_2795736.mp4	0.0	239.41403007507324	0.09999299049377441
53	151.22961688041687	fix_pre	0		31.0	51.0	2.5	/experiments/knapen_aot/videos/R_S_yt-HFiRYTnMZxE_338.mp4	0.0	239.51402306556702	0.25826311111450195
53	151.47968697547913	response	0	2		51.0	2.5	/experiments/knapen_aot/videos/R_S_yt-HFiRYTnMZxE_338.mp4	0.0	239.76409316062927	
53	151.48787999153137	movie	1		301.0	51.0	2.5	/experiments/knapen_aot/videos/R_S_yt-HFiRYTnMZxE_338.mp4	0.0	239.77228617668152	2.508396863937378
53	153.99627685546875	fix_post	2		12.0	51.0	2.5	/experiments/knapen_aot/videos/R_S_yt-HFiRYTnMZxE_338.mp4	0.0	242.2806830406189	0.0999441146850586
54	154.0962209701538	fix_pre	0		19.0	52.0	2.5	/experiments/knapen_aot/videos/S_yt-2ZsK7zSCJ2w_67.mp4	0.0	242.38062715530396	0.1589210033416748
54	154.2388858795166	response	0	2		52.0	2.5	/experiments/knapen_aot/videos/S_yt-2ZsK7zSCJ2w_67.mp4	0.0	242.52329206466675	
54	154.25514197349548	movie	1		301.0	52.0	2.5	/experiments/knapen_aot/videos/S_yt-2ZsK7zSCJ2w_67.mp4	0.0	242.53954815864563	2.5077898502349854
54	156.76293182373047	fix_post	2		12.0	52.0	2.5	/experiments/knapen_aot/videos/S_yt-2ZsK7zSCJ2w_67.mp4	0.0	245.04733800888062	0.0999610424041748
55	156.86289286613464	fix_pre	0		35.0	53.0	2.5	/experiments/knapen_aot/videos/S_yt-F2x6e7e7cAE_70.mp4	0.0	245.1472990512848	0.29163193702697754
55	157.14635586738586	response	0	2		53.0	2.5	/experiments/knapen_aot/videos/S_yt-F2x6e7e7cAE_70.mp4	0.0	245.430762052536	
55	157.15452480316162	movie	1		301.0	53.0	2.5	/experiments/knapen_aot/videos/S_yt-F2x6e7e7cAE_70.mp4	0.0	245.43893098831177	2.508404016494751
55	159.66292881965637	fix_post	2		12.0	53.0	2.5	/experiments/knapen_aot/videos/S_yt-F2x6e7e7cAE_70.mp4	0.0	247.94733500480652	0.09998202323913574
56	159.7629108428955	fix_pre	0		31.0	54.0	2.5	/experiments/knapen_aot/videos/R_S_yt-2cwARrUMj40_67.mp4	0.0	248.04731702804565	0.2583470344543457
56	160.01297998428345	response	0	2		54.0	2.5	/experiments/knapen_aot/videos/R_S_yt-2cwARrUMj40_67.mp4	0.0	248.2973861694336	
56	160.02125787734985	movie	1		301.0	54.0	2.5	/experiments/knapen_aot/videos/R_S_yt-2cwARrUMj40_67.mp4	0.0	248.3056640625	2.508327007293701
56	162.52958488464355	fix_post	2		12.0	54.0	2.5	/experiments/knapen_aot/videos/R_S_yt-2cwARrUMj40_67.mp4	0.0	250.8139910697937	0.09999704360961914
57	162.62958192825317	fix_pre	0		16.0	55.0	2.5	blank	1.0	250.91398811340332	0.13331294059753418
57	162.75467801094055	response	0	2		55.0	2.5	blank	1.0	251.0390841960907	
57	162.7628948688507	movie	1		301.0	55.0	2.5	blank	1.0	251.04730105400085	2.5083370208740234
57	165.27123188972473	fix_post	2		12.0	55.0	2.5	blank	1.0	253.55563807487488	0.0999910831451416
58	165.37122297286987	fix_pre	0		38.0	56.0	2.5	/experiments/knapen_aot/videos/R_S_bing-www_msn_com_en-us_video_news_tommy-lasorda-salutes-national-league-champs_vp-AAtLThQ_4.mp4	0.0	253.65562915802002	0.3166999816894531
58	165.67970085144043	response	0	2		56.0	2.5	/experiments/knapen_aot/videos/R_S_bing-www_msn_com_en-us_video_news_tommy-lasorda-salutes-national-league-champs_vp-AAtLThQ_4.mp4	0.0	253.96410703659058	
58	165.68792295455933	movie	1		169.0	56.0	2.5	/experiments/knapen_aot/videos/R_S_bing-www_msn_com_en-us_video_news_tommy-lasorda-salutes-national-league-champs_vp-AAtLThQ_4.mp4	0.0	253.97232913970947	2.5082309246063232
58	168.19615387916565	fix_post	2		12.0	56.0	2.5	/experiments/knapen_aot/videos/R_S_bing-www_msn_com_en-us_video_news_tommy-lasorda-salutes-national-league-champs_vp-AAtLThQ_4.mp4	0.0	256.4805600643158	0.10011911392211914
59	168.29627299308777	fix_pre	0		48.0	57.0	2.5	/experiments/knapen_aot/videos/S_yt-hHdxZ26SImA_17.mp4	0.0	256.5806791782379	0.3998138904571533
59	168.68814086914062	response	0	2		57.0	2.5	/experiments/knapen_aot/videos/S_yt-hHdxZ26SImA_17.mp4	0.0	256.97254705429077	
59	168.69608688354492	movie	1		301.0	57.0	2.5	/experiments/knapen_aot/videos/S_yt-hHdxZ26SImA_17.mp4	0.0	256.98049306869507	2.508392095565796
59	171.20447897911072	fix_post	2		12.0	57.0	2.5	/experiments/knapen_aot/videos/S_yt-hHdxZ26SImA_17.mp4	0.0	259.48888516426086	0.09999990463256836
60	171.3044788837433	fix_pre	0		29.0	58.0	2.5	/experiments/knapen_aot/videos/S_yt-WrwPgZYBXlA_34.mp4	0.0	259.58888506889343	0.2421109676361084
60	171.5378999710083	response	0	2		58.0	2.5	/experiments/knapen_aot/videos/S_yt-WrwPgZYBXlA_34.mp4	0.0	259.82230615615845	
60	171.5465898513794	movie	1		301.0	58.0	2.5	/experiments/knapen_aot/videos/S_yt-WrwPgZYBXlA_34.mp4	0.0	259.83099603652954	2.507858991622925
60	174.05444884300232	fix_post	2		12.0	58.0	2.5	/experiments/knapen_aot/videos/S_yt-WrwPgZYBXlA_34.mp4	0.0	262.33885502815247	0.10006403923034668
61	174.15451288223267	fix_pre	0		12.0	59.0	2.5	/experiments/knapen_aot/videos/S_yt-VJ65ukWmdxQ_193.mp4	0.0	262.4389190673828	0.10036396980285645
61	174.24622988700867	response	0	2		59.0	2.5	/experiments/knapen_aot/videos/S_yt-VJ65ukWmdxQ_193.mp4	0.0	262.5306360721588	
61	174.25487685203552	movie	1		300.0	59.0	2.5	/experiments/knapen_aot/videos/S_yt-VJ65ukWmdxQ_193.mp4	0.0	262.53928303718567	2.508010149002075
61	176.7628870010376	fix_post	2		12.0	59.0	2.5	/experiments/knapen_aot/videos/S_yt-VJ65ukWmdxQ_193.mp4	0.0	265.04729318618774	0.09993100166320801
62	176.8628180027008	fix_pre	0		27.0	60.0	2.5	/experiments/knapen_aot/videos/S_yt-YyKEeu2gLrI_158.mp4	0.0	265.14722418785095	0.22534584999084473
62	177.07977485656738	response	0	2		60.0	2.5	/experiments/knapen_aot/videos/S_yt-YyKEeu2gLrI_158.mp4	0.0	265.36418104171753	
62	177.08816385269165	movie	1		301.0	60.0	2.5	/experiments/knapen_aot/videos/S_yt-YyKEeu2gLrI_158.mp4	0.0	265.3725700378418	2.5080411434173584
62	179.596204996109	fix_post	2		12.0	60.0	2.5	/experiments/knapen_aot/videos/S_yt-YyKEeu2gLrI_158.mp4	0.0	267.88061118125916	0.1000068187713623
63	179.69621181488037	fix_pre	0		24.0	61.0	2.5	/experiments/knapen_aot/videos/S_ILSVRC2015_train_00574000.mp4	0.0	267.9806180000305	0.19992399215698242
63	179.88795495033264	response	0	2		61.0	2.5	/experiments/knapen_aot/videos/S_ILSVRC2015_train_00574000.mp4	0.0	268.1723611354828	
63	179.89613580703735	movie	1		300.0	61.0	2.5	/experiments/knapen_aot/videos/S_ILSVRC2015_train_00574000.mp4	0.0	268.1805419921875	2.508341073989868
63	182.40447688102722	fix_post	2		12.0	61.0	2.5	/experiments/knapen_aot/videos/S_ILSVRC2015_train_00574000.mp4	0.0	270.68888306617737	0.1004030704498291
64	182.50487995147705	fix_pre	0		19.0	62.0	2.5	blank	1.0	270.7892861366272	0.15788006782531738
64	182.6546528339386	response	0	2		62.0	2.5	blank	1.0	270.93905901908875	
64	182.66276001930237	movie	1		301.0	62.0	2.5	blank	1.0	270.9471662044525	2.508387804031372
64	185.17114782333374	fix_post	2		12.0	62.0	2.5	blank	1.0	273.4555540084839	0.10018420219421387
65	185.27133202552795	fix_pre	0		32.0	63.0	2.5	/experiments/knapen_aot/videos/R_S_yt-Ndwek2tpIOA_169.mp4	0.0	273.5557382106781	0.26646995544433594
65	185.52956581115723	response	0	2		63.0	2.5	/experiments/knapen_aot/videos/R_S_yt-Ndwek2tpIOA_169.mp4	0.0	273.8139719963074	
65	185.5378019809723	movie	1		300.0	63.0	2.5	/experiments/knapen_aot/videos/R_S_yt-Ndwek2tpIOA_169.mp4	0.0	273.82220816612244	2.5083279609680176
65	188.0461299419403	fix_post	2		12.0	63.0	2.5	/experiments/knapen_aot/videos/R_S_yt-Ndwek2tpIOA_169.mp4	0.0	276.33053612709045	0.10010790824890137
66	188.1462378501892	fix_pre	0		26.0	64.0	2.5	/experiments/knapen_aot/videos/S_yt-NuZy8Rjk4d0_156.mp4	0.0	276.43064403533936	0.2165510654449463
66	188.35455083847046	response	0	2		64.0	2.5	/experiments/knapen_aot/videos/S_yt-NuZy8Rjk4d0_156.mp4	0.0	276.6389570236206	
66	188.36278891563416	movie	1		301.0	64.0	2.5	/experiments/knapen_aot/videos/S_yt-NuZy8Rjk4d0_156.mp4	0.0	276.6471951007843	2.508327007293701
66	190.87111592292786	fix_post	2		12.0	64.0	2.5	/experiments/knapen_aot/videos/S_yt-NuZy8Rjk4d0_156.mp4	0.0	279.155522108078	0.09999799728393555
67	190.9711139202118	fix_pre	0		16.0	65.0	2.5	/experiments/knapen_aot/videos/S_yt-W00vtWnXgIk_73.mp4	0.0	279.25552010536194	0.1331789493560791
67	191.0887839794159	response	0	2		65.0	2.5	/experiments/knapen_aot/videos/S_yt-W00vtWnXgIk_73.mp4	0.0	279.37319016456604	
67	191.10429286956787	movie	1		298.0	65.0	2.5	/experiments/knapen_aot/videos/S_yt-W00vtWnXgIk_73.mp4	0.0	279.388699054718	2.508424997329712
67	193.61271786689758	fix_post	2		12.0	65.0	2.5	/experiments/knapen_aot/videos/S_yt-W00vtWnXgIk_73.mp4	0.0	281.89712405204773	0.10036897659301758
68	193.7130868434906	fix_pre	0		23.0	66.0	2.5	/experiments/knapen_aot/videos/R_S_yt-cgYmOmMzn98_103.mp4	0.0	281.99749302864075	0.19133305549621582
68	193.89626502990723	response	0	2		66.0	2.5	/experiments/knapen_aot/videos/R_S_yt-cgYmOmMzn98_103.mp4	0.0	282.1806712150574	
68	193.90441989898682	movie	1		301.0	66.0	2.5	/experiments/knapen_aot/videos/R_S_yt-cgYmOmMzn98_103.mp4	0.0	282.18882608413696	2.508319139480591
68	196.4127390384674	fix_post	2		12.0	66.0	2.5	/experiments/knapen_aot/videos/R_S_yt-cgYmOmMzn98_103.mp4	0.0	284.69714522361755	0.0999608039855957
69	196.512699842453	fix_pre	0		28.0	67.0	2.5	/experiments/knapen_aot/videos/S_ILSVRC2015_train_00559000.mp4	0.0	284.79710602760315	0.23330402374267578
69	196.7304708957672	response	0	2		67.0	2.5	/experiments/knapen_aot/videos/S_ILSVRC2015_train_00559000.mp4	0.0	285.01487708091736	
69	196.74600386619568	movie	1		301.0	67.0	2.5	/experiments/knapen_aot/videos/S_ILSVRC2015_train_00559000.mp4	0.0	285.0304100513458	2.508384943008423
69	199.2543888092041	fix_post	2		12.0	67.0	2.5	/experiments/knapen_aot/videos/S_ILSVRC2015_train_00559000.mp4	0.0	287.53879499435425	0.09999418258666992
70	199.35438299179077	fix_pre	0		37.0	68.0	2.5	/experiments/knapen_aot/videos/S_pexels-mikhail-nilov-8410063_1.mp4	0.0	287.6387891769409	0.30832982063293457
70	199.65457892417908	response	0	2		68.0	2.5	/experiments/knapen_aot/videos/S_pexels-mikhail-nilov-8410063_1.mp4	0.0	287.9389851093292	
70	199.6627128124237	movie	1		163.0	68.0	2.5	/experiments/knapen_aot/videos/S_pexels-mikhail-nilov-8410063_1.mp4	0.0	287.94711899757385	2.508366107940674
70	202.17107892036438	fix_post	2		12.0	68.0	2.5	/experiments/knapen_aot/videos/S_pexels-mikhail-nilov-8410063_1.mp4	0.0	290.4554851055145	0.09999799728393555
71	202.27107691764832	fix_pre	0		9.0	69.0	2.5	/experiments/knapen_aot/videos/S_8J_zE6r82MY_71.mp4	0.0	290.55548310279846	0.07505488395690918
71	202.3382749557495	response	0	2		69.0	2.5	/experiments/knapen_aot/videos/S_8J_zE6r82MY_71.mp4	0.0	290.62268114089966	
71	202.34613180160522	movie	1		301.0	69.0	2.5	/experiments/knapen_aot/videos/S_8J_zE6r82MY_71.mp4	0.0	290.63053798675537	2.508233070373535
71	204.85436487197876	fix_post	2		12.0	69.0	2.5	/experiments/knapen_aot/videos/S_8J_zE6r82MY_71.mp4	0.0	293.1387710571289	0.09999704360961914
72	204.95436191558838	fix_pre	0		9.0	70.0	2.5	blank	1.0	293.2387681007385	0.07495999336242676
72	205.02120685577393	response	0	2		70.0	2.5	blank	1.0	293.3056130409241	
72	205.0293219089508	movie	1		301.0	70.0	2.5	blank	1.0	293.31372809410095	2.508384943008423
72	207.53770685195923	fix_post	2		12.0	70.0	2.5	blank	1.0	295.8221130371094	0.10002517700195312
73	207.63773202896118	fix_pre	0		26.0	71.0	2.5	/experiments/knapen_aot/videos/S_flickr-seattlemcneals-996953_3.mp4	0.0	295.9221382141113	0.21665096282958984
73	207.8461399078369	response	0	2		71.0	2.5	/experiments/knapen_aot/videos/S_flickr-seattlemcneals-996953_3.mp4	0.0	296.13054609298706	
73	207.85438299179077	movie	1		301.0	71.0	2.5	/experiments/knapen_aot/videos/S_flickr-seattlemcneals-996953_3.mp4	0.0	296.1387891769409	2.5083119869232178
73	210.362694978714	fix_post	2		12.0	71.0	2.5	/experiments/knapen_aot/videos/S_flickr-seattlemcneals-996953_3.mp4	0.0	298.64710116386414	0.10018587112426758
74	210.46288084983826	fix_pre	0		20.0	72.0	2.5	/experiments/knapen_aot/videos/R_S_S005_C015_SDR_2K_AVC.mp4	0.0	298.7472870349884	0.1666719913482666
74	210.6211919784546	response	0	2		72.0	2.5	/experiments/knapen_aot/videos/R_S_S005_C015_SDR_2K_AVC.mp4	0.0	298.90559816360474	
74	210.62955284118652	movie	1		175.0	72.0	2.5	/experiments/knapen_aot/videos/R_S_S005_C015_SDR_2K_AVC.mp4	0.0	298.91395902633667	2.508092164993286
74	213.1376450061798	fix_post	2		12.0	72.0	2.5	/experiments/knapen_aot/videos/R_S_S005_C015_SDR_2K_AVC.mp4	0.0	301.42205119132996	0.0999298095703125
75	213.23757481575012	fix_pre	0		7.0	73.0	2.5	/experiments/knapen_aot/videos/S_ILSVRC2015_train_00479003.mp4	0.0	301.52198100090027	0.058553218841552734
75	213.2878029346466	response	0	2		73.0	2.5	/experiments/knapen_aot/videos/S_ILSVRC2015_train_00479003.mp4	0.0	301.57220911979675	
75	213.29612803459167	movie	1		301.0	73.0	2.5	/experiments/knapen_aot/videos/S_ILSVRC2015_train_00479003.mp4	0.0	301.5805342197418	2.5081329345703125
75	215.804260969162	fix_post	2		12.0	73.0	2.5	/experiments/knapen_aot/videos/S_ILSVRC2015_train_00479003.mp4	0.0	304.08866715431213	0.10001397132873535
76	215.90427494049072	fix_pre	0		9.0	74.0	2.5	/experiments/knapen_aot/videos/R_S_yt-4wYTkhggZNM_90.mp4	0.0	304.18868112564087	0.07502293586730957
76	215.9711458683014	response	0	2		74.0	2.5	/experiments/knapen_aot/videos/R_S_yt-4wYTkhggZNM_90.mp4	0.0	304.25555205345154	
76	215.97929787635803	movie	1		301.0	74.0	2.5	/experiments/knapen_aot/videos/R_S_yt-4wYTkhggZNM_90.mp4	0.0	304.2637040615082	2.508389949798584
76	218.229416847229	response	1	2		74.0	2.5	/experiments/knapen_aot/videos/R_S_yt-4wYTkhggZNM_90.mp4	0.0	306.51382303237915	
76	218.48768782615662	fix_post	2		12.0	74.0	2.5	/experiments/knapen_aot/videos/R_S_yt-4wYTkhggZNM_90.mp4	0.0	306.77209401130676	0.10007500648498535
77	218.5877628326416	fix_pre	0		39.0	75.0	2.5	/experiments/knapen_aot/videos/R_S_yt-IT741UWKVzg_34.mp4	0.0	306.87216901779175	0.3248729705810547
77	218.9044599533081	response	0	2		75.0	2.5	/experiments/knapen_aot/videos/R_S_yt-IT741UWKVzg_34.mp4	0.0	307.18886613845825	
77	218.91263580322266	movie	1		301.0	75.0	2.5	/experiments/knapen_aot/videos/R_S_yt-IT741UWKVzg_34.mp4	0.0	307.1970419883728	2.5084891319274902
77	221.42112493515015	fix_post	2		12.0	75.0	2.5	/experiments/knapen_aot/videos/R_S_yt-IT741UWKVzg_34.mp4	0.0	309.7055311203003	0.09981989860534668
78	221.5209448337555	fix_pre	0		10.0	76.0	2.5	/experiments/knapen_aot/videos/R_S_ILSVRC2015_train_00682009.mp4	0.0	309.80535101890564	0.08331012725830078
78	221.59611201286316	response	0	2		76.0	2.5	/experiments/knapen_aot/videos/R_S_ILSVRC2015_train_00682009.mp4	0.0	309.8805181980133	
78	221.6042549610138	movie	1		301.0	76.0	2.5	/experiments/knapen_aot/videos/R_S_ILSVRC2015_train_00682009.mp4	0.0	309.88866114616394	2.5083789825439453
78	224.11263394355774	fix_post	2		12.0	76.0	2.5	/experiments/knapen_aot/videos/R_S_ILSVRC2015_train_00682009.mp4	0.0	312.3970401287079	0.10013794898986816
79	224.2127718925476	fix_pre	0		29.0	77.0	2.5	blank	1.0	312.49717807769775	0.2414989471435547
79	224.44608902931213	response	0	2		77.0	2.5	blank	1.0	312.7304952144623	
79	224.45427083969116	movie	1		301.0	77.0	2.5	blank	1.0	312.7386770248413	2.508455991744995
79	226.96272683143616	fix_post	2		12.0	77.0	2.5	blank	1.0	315.2471330165863	0.0998830795288086
80	227.06260991096497	fix_pre	0		29.0	78.0	2.5	/experiments/knapen_aot/videos/R_S_ILSVRC2015_train_00165008.mp4	0.0	315.3470160961151	0.24162793159484863
80	227.29603695869446	response	0	2		78.0	2.5	/experiments/knapen_aot/videos/R_S_ILSVRC2015_train_00165008.mp4	0.0	315.5804431438446	
80	227.30423784255981	movie	1		300.0	78.0	2.5	/experiments/knapen_aot/videos/R_S_ILSVRC2015_train_00165008.mp4	0.0	315.58864402770996	2.508378028869629
80	229.81261587142944	fix_post	2		12.0	78.0	2.5	/experiments/knapen_aot/videos/R_S_ILSVRC2015_train_00165008.mp4	0.0	318.0970220565796	0.09998106956481934
81	229.91259694099426	fix_pre	0		14.0	79.0	2.5	/experiments/knapen_aot/videos/S_I003_C015_SDR_2K_AVC.mp4	0.0	318.1970031261444	0.11664295196533203
81	230.02106285095215	response	0	2		79.0	2.5	/experiments/knapen_aot/videos/S_I003_C015_SDR_2K_AVC.mp4	0.0	318.3054690361023	
81	230.0292398929596	movie	1		172.0	79.0	2.5	/experiments/knapen_aot/videos/S_I003_C015_SDR_2K_AVC.mp4	0.0	318.31364607810974	2.508373975753784
81	232.53761386871338	fix_post	2		12.0	79.0	2.5	/experiments/knapen_aot/videos/S_I003_C015_SDR_2K_AVC.mp4	0.0	320.8220200538635	0.09993815422058105
82	232.63755202293396	fix_pre	0		35.0	80.0	2.5	/experiments/knapen_aot/videos/S_flickr-seattlemcneals-996953_3.mp4	0.0	320.9219582080841	0.2916538715362549
82	232.92104601860046	response	0	2		80.0	2.5	/experiments/knapen_aot/videos/S_flickr-seattlemcneals-996953_3.mp4	0.0	321.2054522037506	
82	232.92920589447021	movie	1		298.0	80.0	2.5	/experiments/knapen_aot/videos/S_flickr-seattlemcneals-996953_3.mp4	0.0	321.21361207962036	2.5084221363067627
82	235.43762803077698	fix_post	2		12.0	80.0	2.5	/experiments/knapen_aot/videos/S_flickr-seattlemcneals-996953_3.mp4	0.0	323.7220342159271	0.09994792938232422
83	235.5375759601593	fix_pre	0		30.0	81.0	2.5	/experiments/knapen_aot/videos/S_yt-v9WGfC67DPk_50.mp4	0.0	323.82198214530945	0.24999094009399414
83	235.77184987068176	response	0	2		81.0	2.5	/experiments/knapen_aot/videos/S_yt-v9WGfC67DPk_50.mp4	0.0	324.0562560558319	
83	235.7875669002533	movie	1		301.0	81.0	2.5	/experiments/knapen_aot/videos/S_yt-v9WGfC67DPk_50.mp4	0.0	324.07197308540344	2.508496046066284
83	238.29606294631958	fix_post	2		12.0	81.0	2.5	/experiments/knapen_aot/videos/S_yt-v9WGfC67DPk_50.mp4	0.0	326.5804691314697	0.09982490539550781
84	238.3958878517151	fix_pre	0		19.0	82.0	2.5	blank	1.0	326.68029403686523	0.1582791805267334
84	238.54603695869446	response	0	2		82.0	2.5	blank	1.0	326.8304431438446	
84	238.55416703224182	movie	1		301.0	82.0	2.5	blank	1.0	326.83857321739197	2.5083987712860107
84	241.06256580352783	fix_post	2		12.0	82.0	2.5	blank	1.0	329.346971988678	0.10001206398010254
85	241.16257786750793	fix_pre	0		30.0	83.0	2.5	/experiments/knapen_aot/videos/R_S_ILSVRC2015_train_00067003.mp4	0.0	329.4469840526581	0.249891996383667
85	241.40433597564697	response	0	2		83.0	2.5	/experiments/knapen_aot/videos/R_S_ILSVRC2015_train_00067003.mp4	0.0	329.6887421607971	
85	241.4124698638916	movie	1		301.0	83.0	2.5	/experiments/knapen_aot/videos/R_S_ILSVRC2015_train_00067003.mp4	0.0	329.69687604904175	2.5084619522094727
85	243.92093181610107	fix_post	2		12.0	83.0	2.5	/experiments/knapen_aot/videos/R_S_ILSVRC2015_train_00067003.mp4	0.0	332.2053380012512	0.09996509552001953
87	244.0208969116211	stim	0		100.0					332.30530309677124	0.8332269191741943
87	244.16268181800842	response	0	2						332.44708800315857	
87	244.84925985336304	response	0	space						333.1336660385132	
