trial_nr	onset	event_type	phase	response	nr_frames	movie_index	movie_duration	movie_file	blank	onset_abs	duration
0	0.1323559284210205	stim	0		62.0					80.806725025177	0.5162160396575928
0	0.6403059959411621	response	0	space						81.31467509269714	
1	0.6485719680786133	stim	0		121.0					81.3229410648346	1.0079669952392578
1	1.656538963317871	stim	1		120.0					82.33090806007385	0.9999308586120605
1	2.0899839401245117	response	1	return						82.7643530368805	
2	2.6564698219299316	fix_pre	0		25.0	0.0	2.5	/experiments/knapen_aot/videos/S_ILSVRC2015_train_00369002.mp4	0.0	83.33083891868591	0.20838403701782227
2	2.8566439151763916	response	0	space		0.0	2.5	/experiments/knapen_aot/videos/S_ILSVRC2015_train_00369002.mp4	0.0	83.53101301193237	
2	2.864853858947754	movie	1		300.0	0.0	2.5	/experiments/knapen_aot/videos/S_ILSVRC2015_train_00369002.mp4	0.0	83.53922295570374	2.508345127105713
2	5.373198986053467	fix_post	2		12.0	0.0	2.5	/experiments/knapen_aot/videos/S_ILSVRC2015_train_00369002.mp4	0.0	86.04756808280945	0.09995388984680176
3	5.4731528759002686	fix_pre	0		56.0	1.0	2.5	/experiments/knapen_aot/videos/R_S_comp_A013_C012_0122D6_CC_v01_SDR_PS_FINAL_20180709_SDR_2K_AVC.mp4	0.0	86.14752197265625	0.470919132232666
3	5.9364588260650635	response	0	2		1.0	2.5	/experiments/knapen_aot/videos/R_S_comp_A013_C012_0122D6_CC_v01_SDR_PS_FINAL_20180709_SDR_2K_AVC.mp4	0.0	86.61082792282104	
3	5.944072008132935	movie	1		170.0	1.0	2.5	/experiments/knapen_aot/videos/R_S_comp_A013_C012_0122D6_CC_v01_SDR_PS_FINAL_20180709_SDR_2K_AVC.mp4	0.0	86.61844110488892	2.504042863845825
3	8.44811487197876	fix_post	2		12.0	1.0	2.5	/experiments/knapen_aot/videos/R_S_comp_A013_C012_0122D6_CC_v01_SDR_PS_FINAL_20180709_SDR_2K_AVC.mp4	0.0	89.12248396873474	0.10014104843139648
4	8.548255920410156	fix_pre	0		11.0	2.0	2.5	/experiments/knapen_aot/videos/S_ILSVRC2015_train_00682000.mp4	0.0	89.22262501716614	0.09161090850830078
4	8.631817817687988	response	0	4		2.0	2.5	/experiments/knapen_aot/videos/S_ILSVRC2015_train_00682000.mp4	0.0	89.30618691444397	
4	8.639866828918457	movie	1		301.0	2.0	2.5	/experiments/knapen_aot/videos/S_ILSVRC2015_train_00682000.mp4	0.0	89.31423592567444	2.508368968963623
4	11.14823579788208	fix_post	2		12.0	2.0	2.5	/experiments/knapen_aot/videos/S_ILSVRC2015_train_00682000.mp4	0.0	91.82260489463806	0.09996700286865234
5	11.248202800750732	fix_pre	0		23.0	3.0	2.5	/experiments/knapen_aot/videos/R_S_yt-fryIS5Itzig_124.mp4	0.0	91.92257189750671	0.19162416458129883
5	11.431585788726807	response	0	2		3.0	2.5	/experiments/knapen_aot/videos/R_S_yt-fryIS5Itzig_124.mp4	0.0	92.10595488548279	
5	11.439826965332031	movie	1		301.0	3.0	2.5	/experiments/knapen_aot/videos/R_S_yt-fryIS5Itzig_124.mp4	0.0	92.11419606208801	2.5082688331604004
5	13.948095798492432	fix_post	2		12.0	3.0	2.5	/experiments/knapen_aot/videos/R_S_yt-fryIS5Itzig_124.mp4	0.0	94.62246489524841	0.10008001327514648
6	14.048175811767578	fix_pre	0		27.0	4.0	2.5	/experiments/knapen_aot/videos/R_S_S006_C007_SDR_2K_AVC.mp4	0.0	94.72254490852356	0.2250521183013916
6	14.264972925186157	response	0	4		4.0	2.5	/experiments/knapen_aot/videos/R_S_S006_C007_SDR_2K_AVC.mp4	0.0	94.93934202194214	
6	14.27322793006897	movie	1		170.0	4.0	2.5	/experiments/knapen_aot/videos/R_S_S006_C007_SDR_2K_AVC.mp4	0.0	94.94759702682495	2.5082850456237793
6	16.78151297569275	fix_post	2		12.0	4.0	2.5	/experiments/knapen_aot/videos/R_S_S006_C007_SDR_2K_AVC.mp4	0.0	97.45588207244873	0.09997296333312988
7	16.88148593902588	fix_pre	0		35.0	5.0	2.5	/experiments/knapen_aot/videos/S_yt-8N5UuN5WQcY_72.mp4	0.0	97.55585503578186	0.2916998863220215
7	17.164981842041016	response	0	2		5.0	2.5	/experiments/knapen_aot/videos/S_yt-8N5UuN5WQcY_72.mp4	0.0	97.839350938797	
7	17.1731858253479	movie	1		301.0	5.0	2.5	/experiments/knapen_aot/videos/S_yt-8N5UuN5WQcY_72.mp4	0.0	97.84755492210388	2.5083260536193848
7	19.681511878967285	fix_post	2		12.0	5.0	2.5	/experiments/knapen_aot/videos/S_yt-8N5UuN5WQcY_72.mp4	0.0	100.35588097572327	0.09999895095825195
8	19.781510829925537	fix_pre	0		24.0	6.0	2.5	blank	1.0	100.45587992668152	0.2000131607055664
8	19.973362922668457	response	0	4		6.0	2.5	blank	1.0	100.64773201942444	
8	19.981523990631104	movie	1		301.0	6.0	2.5	blank	1.0	100.65589308738708	2.508302927017212
8	22.489826917648315	fix_post	2		12.0	6.0	2.5	blank	1.0	103.1641960144043	0.10001993179321289
9	22.58984684944153	fix_pre	0		22.0	7.0	2.5	/experiments/knapen_aot/videos/R_S_comp_A013_C012_0122D6_CC_v01_SDR_PS_FINAL_20180709_SDR_2K_AVC.mp4	0.0	103.26421594619751	0.18329715728759766
9	22.764971017837524	response	0	2		7.0	2.5	/experiments/knapen_aot/videos/R_S_comp_A013_C012_0122D6_CC_v01_SDR_PS_FINAL_20180709_SDR_2K_AVC.mp4	0.0	103.4393401145935	
9	22.773144006729126	movie	1		170.0	7.0	2.5	/experiments/knapen_aot/videos/R_S_comp_A013_C012_0122D6_CC_v01_SDR_PS_FINAL_20180709_SDR_2K_AVC.mp4	0.0	103.44751310348511	2.5083107948303223
9	25.28145480155945	fix_post	2		12.0	7.0	2.5	/experiments/knapen_aot/videos/R_S_comp_A013_C012_0122D6_CC_v01_SDR_PS_FINAL_20180709_SDR_2K_AVC.mp4	0.0	105.95582389831543	0.10007119178771973
10	25.381525993347168	fix_pre	0		29.0	8.0	2.5	/experiments/knapen_aot/videos/S_yt-YCjbGOPBQHw_131.mp4	0.0	106.05589509010315	0.24149179458618164
10	25.614897966384888	response	0	2		8.0	2.5	/experiments/knapen_aot/videos/S_yt-YCjbGOPBQHw_131.mp4	0.0	106.28926706314087	
10	25.62301778793335	movie	1		301.0	8.0	2.5	/experiments/knapen_aot/videos/S_yt-YCjbGOPBQHw_131.mp4	0.0	106.29738688468933	2.5083770751953125
10	28.131394863128662	fix_post	2		12.0	8.0	2.5	/experiments/knapen_aot/videos/S_yt-YCjbGOPBQHw_131.mp4	0.0	108.80576395988464	0.10002994537353516
11	28.231424808502197	fix_pre	0		27.0	9.0	2.5	/experiments/knapen_aot/videos/S_yt-RHPOCG1mII0_138.mp4	0.0	108.90579390525818	0.22500300407409668
11	28.448242902755737	response	0	4		9.0	2.5	/experiments/knapen_aot/videos/S_yt-RHPOCG1mII0_138.mp4	0.0	109.12261199951172	
11	28.456427812576294	movie	1		301.0	9.0	2.5	/experiments/knapen_aot/videos/S_yt-RHPOCG1mII0_138.mp4	0.0	109.13079690933228	2.5083611011505127
11	30.964788913726807	fix_post	2		12.0	9.0	2.5	/experiments/knapen_aot/videos/S_yt-RHPOCG1mII0_138.mp4	0.0	111.63915801048279	0.09986996650695801
12	31.064658880233765	fix_pre	0		29.0	10.0	2.5	/experiments/knapen_aot/videos/S_yt-lfDIg8kaXhA_169.mp4	0.0	111.73902797698975	0.24172091484069824
12	31.298226833343506	response	0	2		10.0	2.5	/experiments/knapen_aot/videos/S_yt-lfDIg8kaXhA_169.mp4	0.0	111.97259593009949	
12	31.306379795074463	movie	1		301.0	10.0	2.5	/experiments/knapen_aot/videos/S_yt-lfDIg8kaXhA_169.mp4	0.0	111.98074889183044	2.508348226547241
12	33.814728021621704	fix_post	2		12.0	10.0	2.5	/experiments/knapen_aot/videos/S_yt-lfDIg8kaXhA_169.mp4	0.0	114.48909711837769	0.10019397735595703
13	33.91492199897766	fix_pre	0		46.0	11.0	2.5	/experiments/knapen_aot/videos/S_comp_L004_C011_PS_v01_SDR_PS_20180925_SDR_2K_AVC.mp4	0.0	114.58929109573364	0.383145809173584
13	34.28986978530884	response	0	2		11.0	2.5	/experiments/knapen_aot/videos/S_comp_L004_C011_PS_v01_SDR_PS_20180925_SDR_2K_AVC.mp4	0.0	114.96423888206482	
13	34.298067808151245	movie	1		171.0	11.0	2.5	/experiments/knapen_aot/videos/S_comp_L004_C011_PS_v01_SDR_PS_20180925_SDR_2K_AVC.mp4	0.0	114.97243690490723	2.5083041191101074
13	36.80637192726135	fix_post	2		12.0	11.0	2.5	/experiments/knapen_aot/videos/S_comp_L004_C011_PS_v01_SDR_PS_20180925_SDR_2K_AVC.mp4	0.0	117.48074102401733	0.10001802444458008
14	36.90638995170593	fix_pre	0		23.0	12.0	2.5	blank	1.0	117.58075904846191	0.19171690940856934
14	37.0897798538208	response	0	4		12.0	2.5	blank	1.0	117.76414895057678	
14	37.0981068611145	movie	1		301.0	12.0	2.5	blank	1.0	117.77247595787048	2.508258104324341
14	39.60636496543884	fix_post	2		12.0	12.0	2.5	blank	1.0	120.28073406219482	0.1000218391418457
15	39.70638680458069	fix_pre	0		42.0	13.0	2.5	/experiments/knapen_aot/videos/R_S_bing-www_dailymotion_com_video_x64hzm7_8.mp4	0.0	120.38075590133667	0.35004210472106934
15	40.04068994522095	response	0	2		13.0	2.5	/experiments/knapen_aot/videos/R_S_bing-www_dailymotion_com_video_x64hzm7_8.mp4	0.0	120.71505904197693	
15	40.05642890930176	movie	1		168.0	13.0	2.5	/experiments/knapen_aot/videos/R_S_bing-www_dailymotion_com_video_x64hzm7_8.mp4	0.0	120.73079800605774	2.5082640647888184
15	42.564692974090576	fix_post	2		12.0	13.0	2.5	/experiments/knapen_aot/videos/R_S_bing-www_dailymotion_com_video_x64hzm7_8.mp4	0.0	123.23906207084656	0.09996390342712402
16	42.6646568775177	fix_pre	0		41.0	14.0	2.5	/experiments/knapen_aot/videos/S_yt-pPIHiIYSjW8_653.mp4	0.0	123.33902597427368	0.34170007705688477
16	42.99814987182617	response	0	2		14.0	2.5	/experiments/knapen_aot/videos/S_yt-pPIHiIYSjW8_653.mp4	0.0	123.67251896858215	
16	43.006356954574585	movie	1		301.0	14.0	2.5	/experiments/knapen_aot/videos/S_yt-pPIHiIYSjW8_653.mp4	0.0	123.68072605133057	2.508327007293701
16	45.514683961868286	fix_post	2		12.0	14.0	2.5	/experiments/knapen_aot/videos/S_yt-pPIHiIYSjW8_653.mp4	0.0	126.18905305862427	0.09998393058776855
17	45.614667892456055	fix_pre	0		23.0	15.0	2.5	/experiments/knapen_aot/videos/R_S_ILSVRC2015_train_00697001.mp4	0.0	126.28903698921204	0.19166994094848633
17	45.79813885688782	response	0	4		15.0	2.5	/experiments/knapen_aot/videos/R_S_ILSVRC2015_train_00697001.mp4	0.0	126.4725079536438	
17	45.80633783340454	movie	1		301.0	15.0	2.5	/experiments/knapen_aot/videos/R_S_ILSVRC2015_train_00697001.mp4	0.0	126.48070693016052	2.508336067199707
17	48.31467390060425	fix_post	2		12.0	15.0	2.5	/experiments/knapen_aot/videos/R_S_ILSVRC2015_train_00697001.mp4	0.0	128.98904299736023	0.10004806518554688
18	48.414721965789795	fix_pre	0		10.0	16.0	2.5	/experiments/knapen_aot/videos/R_S_ILSVRC2015_train_00599000.mp4	0.0	129.08909106254578	0.08453702926635742
18	48.489898920059204	response	0	2		16.0	2.5	/experiments/knapen_aot/videos/R_S_ILSVRC2015_train_00599000.mp4	0.0	129.16426801681519	
18	48.49925899505615	movie	1		301.0	16.0	2.5	/experiments/knapen_aot/videos/R_S_ILSVRC2015_train_00599000.mp4	0.0	129.17362809181213	2.507046937942505
18	51.00630593299866	fix_post	2		12.0	16.0	2.5	/experiments/knapen_aot/videos/R_S_ILSVRC2015_train_00599000.mp4	0.0	131.68067502975464	0.09999799728393555
19	51.10630393028259	fix_pre	0		30.0	17.0	2.5	/experiments/knapen_aot/videos/S_yt-TbdZrcl_Jso_5.mp4	0.0	131.78067302703857	0.24999094009399414
19	51.34811186790466	response	0	4		17.0	2.5	/experiments/knapen_aot/videos/S_yt-TbdZrcl_Jso_5.mp4	0.0	132.02248096466064	
19	51.35629487037659	movie	1		301.0	17.0	2.5	/experiments/knapen_aot/videos/S_yt-TbdZrcl_Jso_5.mp4	0.0	132.03066396713257	2.50827693939209
19	53.86457180976868	fix_post	2		12.0	17.0	2.5	/experiments/knapen_aot/videos/S_yt-TbdZrcl_Jso_5.mp4	0.0	134.53894090652466	0.10010313987731934
20	53.964674949645996	fix_pre	0		17.0	18.0	2.5	/experiments/knapen_aot/videos/S_yt-3EZOeAbiMQE_10.mp4	0.0	134.63904404640198	0.14164090156555176
20	54.098203897476196	response	0	2		18.0	2.5	/experiments/knapen_aot/videos/S_yt-3EZOeAbiMQE_10.mp4	0.0	134.77257299423218	
20	54.10631585121155	movie	1		301.0	18.0	2.5	/experiments/knapen_aot/videos/S_yt-3EZOeAbiMQE_10.mp4	0.0	134.78068494796753	2.5083160400390625
20	56.61463189125061	fix_post	2		12.0	18.0	2.5	/experiments/knapen_aot/videos/S_yt-3EZOeAbiMQE_10.mp4	0.0	137.2890009880066	0.10001301765441895
21	56.71464490890503	fix_pre	0		30.0	19.0	2.5	blank	1.0	137.389014005661	0.25
21	56.956453800201416	response	0	4		19.0	2.5	blank	1.0	137.6308228969574	
21	56.96464490890503	movie	1		301.0	19.0	2.5	blank	1.0	137.639014005661	2.508275032043457
21	59.472919940948486	fix_post	2		12.0	19.0	2.5	blank	1.0	140.14728903770447	0.10002994537353516
22	59.57294988632202	fix_pre	0		44.0	20.0	2.5	/experiments/knapen_aot/videos/S_video-2.mp4	0.0	140.247318983078	0.366624116897583
22	59.9238498210907	response	0	2		20.0	2.5	/experiments/knapen_aot/videos/S_video-2.mp4	0.0	140.59821891784668	
22	59.939574003219604	movie	1		166.0	20.0	2.5	/experiments/knapen_aot/videos/S_video-2.mp4	0.0	140.6139430999756	2.5083608627319336
22	62.44793486595154	fix_post	2		12.0	20.0	2.5	/experiments/knapen_aot/videos/S_video-2.mp4	0.0	143.12230396270752	0.10006904602050781
23	62.548003911972046	fix_pre	0		18.0	21.0	2.5	/experiments/knapen_aot/videos/S_yt-7lULOC_rSE0_747.mp4	0.0	143.22237300872803	0.14992809295654297
23	62.68976092338562	response	0	4		21.0	2.5	/experiments/knapen_aot/videos/S_yt-7lULOC_rSE0_747.mp4	0.0	143.3641300201416	
23	62.69793200492859	movie	1		301.0	21.0	2.5	/experiments/knapen_aot/videos/S_yt-7lULOC_rSE0_747.mp4	0.0	143.37230110168457	2.5084388256073
23	65.20637083053589	fix_post	2		12.0	21.0	2.5	/experiments/knapen_aot/videos/S_yt-7lULOC_rSE0_747.mp4	0.0	145.88073992729187	0.09981513023376465
24	65.30618596076965	fix_pre	0		56.0	22.0	2.5	/experiments/knapen_aot/videos/S_yt-738MRS0yI6g_177.mp4	0.0	145.98055505752563	0.4667339324951172
24	65.76472783088684	response	0	2		22.0	2.5	/experiments/knapen_aot/videos/S_yt-738MRS0yI6g_177.mp4	0.0	146.43909692764282	
24	65.77291989326477	movie	1		301.0	22.0	2.5	/experiments/knapen_aot/videos/S_yt-738MRS0yI6g_177.mp4	0.0	146.44728899002075	2.5083041191101074
24	68.28122401237488	fix_post	2		12.0	22.0	2.5	/experiments/knapen_aot/videos/S_yt-738MRS0yI6g_177.mp4	0.0	148.95559310913086	0.10001182556152344
25	68.3812358379364	fix_pre	0		23.0	23.0	2.5	/experiments/knapen_aot/videos/R_S_yt-hWXr5bv2_uA_48.mp4	0.0	149.05560493469238	0.19167494773864746
25	68.56469297409058	response	0	4		23.0	2.5	/experiments/knapen_aot/videos/R_S_yt-hWXr5bv2_uA_48.mp4	0.0	149.23906207084656	
25	68.57291078567505	movie	1		301.0	23.0	2.5	/experiments/knapen_aot/videos/R_S_yt-hWXr5bv2_uA_48.mp4	0.0	149.24727988243103	2.5083231925964355
25	71.08123397827148	fix_post	2		12.0	23.0	2.5	/experiments/knapen_aot/videos/R_S_yt-hWXr5bv2_uA_48.mp4	0.0	151.75560307502747	0.09997296333312988
26	71.18120694160461	fix_pre	0		11.0	24.0	2.5	/experiments/knapen_aot/videos/R_S_yt-c5_SFS4aaJI_1102.mp4	0.0	151.8555760383606	0.10000896453857422
26	71.26470279693604	response	0	2		24.0	2.5	/experiments/knapen_aot/videos/R_S_yt-c5_SFS4aaJI_1102.mp4	0.0	151.93907189369202	
26	71.28121590614319	movie	1		300.0	24.0	2.5	/experiments/knapen_aot/videos/R_S_yt-c5_SFS4aaJI_1102.mp4	0.0	151.95558500289917	2.499948024749756
26	73.78116393089294	fix_post	2		12.0	24.0	2.5	/experiments/knapen_aot/videos/R_S_yt-c5_SFS4aaJI_1102.mp4	0.0	154.45553302764893	0.10002708435058594
27	73.88119101524353	fix_pre	0		14.0	25.0	2.5	/experiments/knapen_aot/videos/R_S_ILSVRC2015_train_00165009.mp4	0.0	154.5555601119995	0.1178739070892334
27	73.9896469116211	response	0	4		25.0	2.5	/experiments/knapen_aot/videos/R_S_ILSVRC2015_train_00165009.mp4	0.0	154.66401600837708	
27	73.99906492233276	movie	1		301.0	25.0	2.5	/experiments/knapen_aot/videos/R_S_ILSVRC2015_train_00165009.mp4	0.0	154.67343401908875	2.5072128772735596
27	76.50627779960632	fix_post	2		12.0	25.0	2.5	/experiments/knapen_aot/videos/R_S_ILSVRC2015_train_00165009.mp4	0.0	157.1806468963623	0.09992098808288574
28	76.60619878768921	fix_pre	0		31.0	26.0	2.5	/experiments/knapen_aot/videos/R_S_ILSVRC2015_train_00569002.mp4	0.0	157.2805678844452	0.25835514068603516
28	76.85627293586731	response	0	2		26.0	2.5	/experiments/knapen_aot/videos/R_S_ILSVRC2015_train_00569002.mp4	0.0	157.5306420326233	
28	76.86455392837524	movie	1		301.0	26.0	2.5	/experiments/knapen_aot/videos/R_S_ILSVRC2015_train_00569002.mp4	0.0	157.53892302513123	2.5083088874816895
28	79.37286281585693	fix_post	2		12.0	26.0	2.5	/experiments/knapen_aot/videos/R_S_ILSVRC2015_train_00569002.mp4	0.0	160.04723191261292	0.09999299049377441
29	79.47285580635071	fix_pre	0		21.0	27.0	2.5	/experiments/knapen_aot/videos/S_comp_LA_A008_C004_ALTB_ED_FROM_FLAME_RETIME_v46_SDR_PS_20180917_SDR_2K_AVC.mp4	0.0	160.1472249031067	0.17496204376220703
29	79.63983082771301	response	0	4		27.0	2.5	/experiments/knapen_aot/videos/S_comp_LA_A008_C004_ALTB_ED_FROM_FLAME_RETIME_v46_SDR_PS_20180917_SDR_2K_AVC.mp4	0.0	160.314199924469	
29	79.64781785011292	movie	1		170.0	27.0	2.5	/experiments/knapen_aot/videos/S_comp_LA_A008_C004_ALTB_ED_FROM_FLAME_RETIME_v46_SDR_PS_20180917_SDR_2K_AVC.mp4	0.0	160.3221869468689	2.5083630084991455
29	82.15618085861206	fix_post	2		12.0	27.0	2.5	/experiments/knapen_aot/videos/S_comp_LA_A008_C004_ALTB_ED_FROM_FLAME_RETIME_v46_SDR_PS_20180917_SDR_2K_AVC.mp4	0.0	162.83054995536804	0.09996509552001953
30	82.25614595413208	fix_pre	0		1.0	28.0	2.5	blank	1.0	162.93051505088806	0.008401870727539062
30	82.2580018043518	response	0	2		28.0	2.5	blank	1.0	162.9323709011078	
30	82.26454782485962	movie	1		301.0	28.0	2.5	blank	1.0	162.9389169216156	2.5083091259002686
30	84.5312328338623	response	1	4		28.0	2.5	blank	1.0	165.2056019306183	
30	84.77285695075989	fix_post	2		12.0	28.0	2.5	blank	1.0	165.44722604751587	0.09996795654296875
31	84.87282490730286	fix_pre	0		29.0	29.0	2.5	/experiments/knapen_aot/videos/S_yt-WCT9dyz0-gQ_36.mp4	0.0	165.54719400405884	0.24165105819702148
31	85.10623788833618	response	0	4		29.0	2.5	/experiments/knapen_aot/videos/S_yt-WCT9dyz0-gQ_36.mp4	0.0	165.78060698509216	
31	85.11447596549988	movie	1		301.0	29.0	2.5	/experiments/knapen_aot/videos/S_yt-WCT9dyz0-gQ_36.mp4	0.0	165.78884506225586	2.508312940597534
31	87.62278890609741	fix_post	2		12.0	29.0	2.5	/experiments/knapen_aot/videos/S_yt-WCT9dyz0-gQ_36.mp4	0.0	168.2971580028534	0.09999608993530273
32	87.72278499603271	fix_pre	0		3.0	30.0	2.5	/experiments/knapen_aot/videos/R_S_yt-qE70lj3-A78_228.mp4	0.0	168.3971540927887	0.026163816452026367
32	87.73961091041565	response	0	2		30.0	2.5	/experiments/knapen_aot/videos/R_S_yt-qE70lj3-A78_228.mp4	0.0	168.41398000717163	
32	87.74894881248474	movie	1		301.0	30.0	2.5	/experiments/knapen_aot/videos/R_S_yt-qE70lj3-A78_228.mp4	0.0	168.42331790924072	2.5072431564331055
32	90.25619196891785	fix_post	2		12.0	30.0	2.5	/experiments/knapen_aot/videos/R_S_yt-qE70lj3-A78_228.mp4	0.0	170.93056106567383	0.09996700286865234
33	90.3561589717865	fix_pre	0		35.0	31.0	2.5	/experiments/knapen_aot/videos/R_S_video-2.mp4	0.0	171.03052806854248	0.29163384437561035
33	90.63954901695251	response	0	4		31.0	2.5	/experiments/knapen_aot/videos/R_S_video-2.mp4	0.0	171.3139181137085	
33	90.64779281616211	movie	1		165.0	31.0	2.5	/experiments/knapen_aot/videos/R_S_video-2.mp4	0.0	171.3221619129181	2.5083441734313965
33	93.1561369895935	fix_post	2		12.0	31.0	2.5	/experiments/knapen_aot/videos/R_S_video-2.mp4	0.0	173.8305060863495	0.09997200965881348
34	93.25610899925232	fix_pre	0		12.0	32.0	2.5	/experiments/knapen_aot/videos/R_S_yt-q9kT_c9QjbQ_34.mp4	0.0	173.9304780960083	0.10000300407409668
34	93.34810590744019	response	0	2		32.0	2.5	/experiments/knapen_aot/videos/R_S_yt-q9kT_c9QjbQ_34.mp4	0.0	174.02247500419617	
34	93.35611200332642	movie	1		301.0	32.0	2.5	/experiments/knapen_aot/videos/R_S_yt-q9kT_c9QjbQ_34.mp4	0.0	174.0304811000824	2.5082809925079346
34	95.86439299583435	fix_post	2		12.0	32.0	2.5	/experiments/knapen_aot/videos/R_S_yt-q9kT_c9QjbQ_34.mp4	0.0	176.53876209259033	0.10004091262817383
35	95.96443390846252	fix_pre	0		25.0	33.0	2.5	/experiments/knapen_aot/videos/S_ILSVRC2015_train_00318000.mp4	0.0	176.6388030052185	0.20840787887573242
35	96.15695881843567	response	0	2		33.0	2.5	/experiments/knapen_aot/videos/S_ILSVRC2015_train_00318000.mp4	0.0	176.83132791519165	
35	96.17284178733826	movie	1		301.0	33.0	2.5	/experiments/knapen_aot/videos/S_ILSVRC2015_train_00318000.mp4	0.0	176.84721088409424	2.5083611011505127
35	98.68120288848877	fix_post	2		12.0	33.0	2.5	/experiments/knapen_aot/videos/S_ILSVRC2015_train_00318000.mp4	0.0	179.35557198524475	0.09987306594848633
36	98.78107595443726	fix_pre	0		21.0	34.0	2.5	blank	1.0	179.45544505119324	0.17600297927856445
36	98.94792699813843	response	0	4		34.0	2.5	blank	1.0	179.6222960948944	
36	98.95707893371582	movie	1		301.0	34.0	2.5	blank	1.0	179.6314480304718	2.5073158740997314
36	101.46439480781555	fix_post	2		12.0	34.0	2.5	blank	1.0	182.13876390457153	0.10005021095275879
37	101.56444501876831	fix_pre	0		72.0	35.0	2.5	/experiments/knapen_aot/videos/R_S_ILSVRC2015_train_00165009.mp4	0.0	182.2388141155243	0.6009469032287598
37	102.15622401237488	response	0	2		35.0	2.5	/experiments/knapen_aot/videos/R_S_ILSVRC2015_train_00165009.mp4	0.0	182.83059310913086	
37	102.16539192199707	movie	1		301.0	35.0	2.5	/experiments/knapen_aot/videos/R_S_ILSVRC2015_train_00165009.mp4	0.0	182.83976101875305	2.5073769092559814
37	104.67276883125305	fix_post	2		12.0	35.0	2.5	/experiments/knapen_aot/videos/R_S_ILSVRC2015_train_00165009.mp4	0.0	185.34713792800903	0.09998607635498047
38	104.77275490760803	fix_pre	0		49.0	36.0	2.5	/experiments/knapen_aot/videos/S_yt-s-J3C6e5A3Q_18.mp4	0.0	185.447124004364	0.40840792655944824
38	105.17278695106506	response	0	4		36.0	2.5	/experiments/knapen_aot/videos/S_yt-s-J3C6e5A3Q_18.mp4	0.0	185.84715604782104	
38	105.18116283416748	movie	1		301.0	36.0	2.5	/experiments/knapen_aot/videos/S_yt-s-J3C6e5A3Q_18.mp4	0.0	185.85553193092346	2.508181095123291
38	107.68934392929077	fix_post	2		12.0	36.0	2.5	/experiments/knapen_aot/videos/S_yt-s-J3C6e5A3Q_18.mp4	0.0	188.36371302604675	0.10005688667297363
39	107.78940081596375	fix_pre	0		19.0	37.0	2.5	/experiments/knapen_aot/videos/S_yt-YlA-FPDylDE_100.mp4	0.0	188.46376991271973	0.1582942008972168
39	107.93948578834534	response	0	2		37.0	2.5	/experiments/knapen_aot/videos/S_yt-YlA-FPDylDE_100.mp4	0.0	188.61385488510132	
39	107.94769501686096	movie	1		301.0	37.0	2.5	/experiments/knapen_aot/videos/S_yt-YlA-FPDylDE_100.mp4	0.0	188.62206411361694	2.50836181640625
39	110.45605683326721	fix_post	2		12.0	37.0	2.5	/experiments/knapen_aot/videos/S_yt-YlA-FPDylDE_100.mp4	0.0	191.1304259300232	0.09998917579650879
40	110.55604600906372	fix_pre	0		45.0	38.0	2.5	/experiments/knapen_aot/videos/R_S_yt-mmvWYAttrIw_2.mp4	0.0	191.2304151058197	0.37502193450927734
40	110.92290091514587	response	0	2		38.0	2.5	/experiments/knapen_aot/videos/R_S_yt-mmvWYAttrIw_2.mp4	0.0	191.59727001190186	
40	110.931067943573	movie	1		301.0	38.0	2.5	/experiments/knapen_aot/videos/R_S_yt-mmvWYAttrIw_2.mp4	0.0	191.60543704032898	2.508319854736328
40	113.43938779830933	fix_post	2		12.0	38.0	2.5	/experiments/knapen_aot/videos/R_S_yt-mmvWYAttrIw_2.mp4	0.0	194.1137568950653	0.09998822212219238
41	113.53937602043152	fix_pre	0		39.0	39.0	2.5	/experiments/knapen_aot/videos/S_goAwcQiFu1Q_99.mp4	0.0	194.2137451171875	0.32493090629577637
41	113.85618782043457	response	0	2		39.0	2.5	/experiments/knapen_aot/videos/S_goAwcQiFu1Q_99.mp4	0.0	194.53055691719055	
41	113.8643069267273	movie	1		301.0	39.0	2.5	/experiments/knapen_aot/videos/S_goAwcQiFu1Q_99.mp4	0.0	194.53867602348328	2.508410930633545
41	116.37271785736084	fix_post	2		12.0	39.0	2.5	/experiments/knapen_aot/videos/S_goAwcQiFu1Q_99.mp4	0.0	197.04708695411682	0.0999150276184082
42	116.47263288497925	fix_pre	0		29.0	40.0	2.5	/experiments/knapen_aot/videos/R_S_yt-HFiRYTnMZxE_338.mp4	0.0	197.14700198173523	0.24167895317077637
42	116.70616388320923	response	0	2		40.0	2.5	/experiments/knapen_aot/videos/R_S_yt-HFiRYTnMZxE_338.mp4	0.0	197.3805329799652	
42	116.71431183815002	movie	1		301.0	40.0	2.5	/experiments/knapen_aot/videos/R_S_yt-HFiRYTnMZxE_338.mp4	0.0	197.388680934906	2.5083601474761963
42	119.22267198562622	fix_post	2		12.0	40.0	2.5	/experiments/knapen_aot/videos/R_S_yt-HFiRYTnMZxE_338.mp4	0.0	199.8970410823822	0.09998703002929688
43	119.32265901565552	fix_pre	0		16.0	41.0	2.5	/experiments/knapen_aot/videos/R_S_comp_LA_A008_C004_ALTB_ED_FROM_FLAME_RETIME_v46_SDR_PS_20180917_SDR_2K_AVC.mp4	0.0	199.9970281124115	0.13422489166259766
43	119.44788599014282	response	0	2		41.0	2.5	/experiments/knapen_aot/videos/R_S_comp_LA_A008_C004_ALTB_ED_FROM_FLAME_RETIME_v46_SDR_PS_20180917_SDR_2K_AVC.mp4	0.0	200.1222550868988	
43	119.45688390731812	movie	1		168.0	41.0	2.5	/experiments/knapen_aot/videos/R_S_comp_LA_A008_C004_ALTB_ED_FROM_FLAME_RETIME_v46_SDR_PS_20180917_SDR_2K_AVC.mp4	0.0	200.1312530040741	2.5073819160461426
43	121.96426582336426	fix_post	2		12.0	41.0	2.5	/experiments/knapen_aot/videos/R_S_comp_LA_A008_C004_ALTB_ED_FROM_FLAME_RETIME_v46_SDR_PS_20180917_SDR_2K_AVC.mp4	0.0	202.63863492012024	0.10005617141723633
44	122.0643219947815	fix_pre	0		18.0	42.0	2.5	blank	1.0	202.73869109153748	0.1499948501586914
44	122.20613479614258	response	0	2		42.0	2.5	blank	1.0	202.88050389289856	
44	122.21431684494019	movie	1		301.0	42.0	2.5	blank	1.0	202.88868594169617	2.508357048034668
44	124.72267389297485	fix_post	2		12.0	42.0	2.5	blank	1.0	205.39704298973083	0.09995198249816895
45	124.82262587547302	fix_pre	0		43.0	43.0	2.5	/experiments/knapen_aot/videos/S_3WAnGcPubBY_143.mp4	0.0	205.496994972229	0.3583500385284424
45	125.17269897460938	response	0	2		43.0	2.5	/experiments/knapen_aot/videos/S_3WAnGcPubBY_143.mp4	0.0	205.84706807136536	
45	125.18097591400146	movie	1		301.0	43.0	2.5	/experiments/knapen_aot/videos/S_3WAnGcPubBY_143.mp4	0.0	205.85534501075745	2.508358955383301
45	127.68933486938477	fix_post	2		12.0	43.0	2.5	/experiments/knapen_aot/videos/S_3WAnGcPubBY_143.mp4	0.0	208.36370396614075	0.1000051498413086
46	127.78934001922607	fix_pre	0		25.0	44.0	2.5	/experiments/knapen_aot/videos/S_comp_A103_C002_0205DG_v12_SDR_FINAL_20180706_SDR_2K_AVC.mp4	0.0	208.46370911598206	0.20910191535949707
46	127.989492893219	response	0	4		44.0	2.5	/experiments/knapen_aot/videos/S_comp_A103_C002_0205DG_v12_SDR_FINAL_20180706_SDR_2K_AVC.mp4	0.0	208.66386198997498	
46	127.99844193458557	movie	1		167.0	44.0	2.5	/experiments/knapen_aot/videos/S_comp_A103_C002_0205DG_v12_SDR_FINAL_20180706_SDR_2K_AVC.mp4	0.0	208.67281103134155	2.5074610710144043
46	130.50590300559998	fix_post	2		12.0	44.0	2.5	/experiments/knapen_aot/videos/S_comp_A103_C002_0205DG_v12_SDR_FINAL_20180706_SDR_2K_AVC.mp4	0.0	211.18027210235596	0.1000678539276123
47	130.6059708595276	fix_pre	0		41.0	45.0	2.5	/experiments/knapen_aot/videos/S_yt-4RKOPaRF42o_124.mp4	0.0	211.28033995628357	0.3416440486907959
47	130.93939399719238	response	0	2		45.0	2.5	/experiments/knapen_aot/videos/S_yt-4RKOPaRF42o_124.mp4	0.0	211.61376309394836	
47	130.94761490821838	movie	1		301.0	45.0	2.5	/experiments/knapen_aot/videos/S_yt-4RKOPaRF42o_124.mp4	0.0	211.62198400497437	2.508296012878418
47	133.4559109210968	fix_post	2		12.0	45.0	2.5	/experiments/knapen_aot/videos/S_yt-4RKOPaRF42o_124.mp4	0.0	214.13028001785278	0.1000370979309082
48	133.5559480190277	fix_pre	0		27.0	46.0	2.5	/experiments/knapen_aot/videos/R_S_pexels-artem-podrez-5457692.mp4	0.0	214.2303171157837	0.2249588966369629
48	133.77271389961243	response	0	2		46.0	2.5	/experiments/knapen_aot/videos/R_S_pexels-artem-podrez-5457692.mp4	0.0	214.4470829963684	
48	133.78090691566467	movie	1		168.0	46.0	2.5	/experiments/knapen_aot/videos/R_S_pexels-artem-podrez-5457692.mp4	0.0	214.45527601242065	2.508423089981079
48	136.28933000564575	fix_post	2		12.0	46.0	2.5	/experiments/knapen_aot/videos/R_S_pexels-artem-podrez-5457692.mp4	0.0	216.96369910240173	0.0999758243560791
49	136.38930583000183	fix_pre	0		28.0	47.0	2.5	blank	1.0	217.0636749267578	0.23415017127990723
49	136.61448001861572	response	0	2		47.0	2.5	blank	1.0	217.2888491153717	
49	136.62345600128174	movie	1		301.0	47.0	2.5	blank	1.0	217.29782509803772	2.5074288845062256
49	139.13088488578796	fix_post	2		12.0	47.0	2.5	blank	1.0	219.80525398254395	0.10004305839538574
50	139.23092794418335	fix_pre	0		33.0	48.0	2.5	/experiments/knapen_aot/videos/S_yt-TbdZrcl_Jso_5.mp4	0.0	219.90529704093933	0.27495789527893066
50	139.49012184143066	response	0	4		48.0	2.5	/experiments/knapen_aot/videos/S_yt-TbdZrcl_Jso_5.mp4	0.0	220.16449093818665	
50	139.50588583946228	movie	1		301.0	48.0	2.5	/experiments/knapen_aot/videos/S_yt-TbdZrcl_Jso_5.mp4	0.0	220.18025493621826	2.5083820819854736
50	142.01426792144775	fix_post	2		12.0	48.0	2.5	/experiments/knapen_aot/videos/S_yt-TbdZrcl_Jso_5.mp4	0.0	222.68863701820374	0.09998106956481934
51	142.11424899101257	fix_pre	0		21.0	49.0	2.5	/experiments/knapen_aot/videos/S_bing-www_dailymotion_com_video_x64c56w_164.mp4	0.0	222.78861808776855	0.17576098442077637
51	142.28109979629517	response	0	2		49.0	2.5	/experiments/knapen_aot/videos/S_bing-www_dailymotion_com_video_x64c56w_164.mp4	0.0	222.95546889305115	
51	142.29000997543335	movie	1		165.0	49.0	2.5	/experiments/knapen_aot/videos/S_bing-www_dailymotion_com_video_x64c56w_164.mp4	0.0	222.96437907218933	2.507534980773926
51	144.79754495620728	fix_post	2		12.0	49.0	2.5	/experiments/knapen_aot/videos/S_bing-www_dailymotion_com_video_x64c56w_164.mp4	0.0	225.47191405296326	0.1000218391418457
52	144.89756679534912	fix_pre	0		39.0	50.0	2.5	/experiments/knapen_aot/videos/S_yt-kYMffy4hTMo_107.mp4	0.0	225.5719358921051	0.3249471187591553
52	145.2143909931183	response	0	2		50.0	2.5	/experiments/knapen_aot/videos/S_yt-kYMffy4hTMo_107.mp4	0.0	225.88876008987427	
52	145.22251391410828	movie	1		301.0	50.0	2.5	/experiments/knapen_aot/videos/S_yt-kYMffy4hTMo_107.mp4	0.0	225.89688301086426	2.508419990539551
52	147.73093390464783	fix_post	2		12.0	50.0	2.5	/experiments/knapen_aot/videos/S_yt-kYMffy4hTMo_107.mp4	0.0	228.4053030014038	0.09996604919433594
53	147.83089995384216	fix_pre	0		40.0	51.0	2.5	/experiments/knapen_aot/videos/R_S_g201_TH_804_A001_8_SDR_20191031_SDR_2K_AVC.mp4	0.0	228.50526905059814	0.33402395248413086
53	148.15594291687012	response	0	2		51.0	2.5	/experiments/knapen_aot/videos/R_S_g201_TH_804_A001_8_SDR_20191031_SDR_2K_AVC.mp4	0.0	228.8303120136261	
53	148.1649239063263	movie	1		168.0	51.0	2.5	/experiments/knapen_aot/videos/R_S_g201_TH_804_A001_8_SDR_20191031_SDR_2K_AVC.mp4	0.0	228.83929300308228	2.507596969604492
53	150.6725208759308	fix_post	2		12.0	51.0	2.5	/experiments/knapen_aot/videos/R_S_g201_TH_804_A001_8_SDR_20191031_SDR_2K_AVC.mp4	0.0	231.34688997268677	0.10008811950683594
54	150.77260899543762	fix_pre	0		37.0	52.0	2.5	/experiments/knapen_aot/videos/R_S_S005_C015_SDR_2K_AVC.mp4	0.0	231.4469780921936	0.3089749813079834
54	151.0725498199463	response	0	2		52.0	2.5	/experiments/knapen_aot/videos/R_S_S005_C015_SDR_2K_AVC.mp4	0.0	231.74691891670227	
54	151.0815839767456	movie	1		170.0	52.0	2.5	/experiments/knapen_aot/videos/R_S_S005_C015_SDR_2K_AVC.mp4	0.0	231.7559530735016	2.507584810256958
54	153.58916878700256	fix_post	2		12.0	52.0	2.5	/experiments/knapen_aot/videos/R_S_S005_C015_SDR_2K_AVC.mp4	0.0	234.26353788375854	0.10006308555603027
55	153.6892318725586	fix_pre	0		17.0	53.0	2.5	/experiments/knapen_aot/videos/R_S_yt--wYgjXsc1XQ_106.mp4	0.0	234.36360096931458	0.14234304428100586
55	153.82263088226318	response	0	4		53.0	2.5	/experiments/knapen_aot/videos/R_S_yt--wYgjXsc1XQ_106.mp4	0.0	234.49699997901917	
55	153.8315749168396	movie	1		301.0	53.0	2.5	/experiments/knapen_aot/videos/R_S_yt--wYgjXsc1XQ_106.mp4	0.0	234.50594401359558	2.507667064666748
55	156.33924198150635	fix_post	2		12.0	53.0	2.5	/experiments/knapen_aot/videos/R_S_yt--wYgjXsc1XQ_106.mp4	0.0	237.01361107826233	0.0999748706817627
56	156.4392168521881	fix_pre	0		18.0	54.0	2.5	/experiments/knapen_aot/videos/S_yt-qBPDvSQD0XY_5.mp4	0.0	237.1135859489441	0.14995312690734863
56	156.58100390434265	response	0	2		54.0	2.5	/experiments/knapen_aot/videos/S_yt-qBPDvSQD0XY_5.mp4	0.0	237.25537300109863	
56	156.58916997909546	movie	1		301.0	54.0	2.5	/experiments/knapen_aot/videos/S_yt-qBPDvSQD0XY_5.mp4	0.0	237.26353907585144	2.508366823196411
56	159.09753680229187	fix_post	2		12.0	54.0	2.5	/experiments/knapen_aot/videos/S_yt-qBPDvSQD0XY_5.mp4	0.0	239.77190589904785	0.1000070571899414
57	159.1975438594818	fix_pre	0		33.0	55.0	2.5	/experiments/knapen_aot/videos/R_S_yt-rlVzHENWufE_61.mp4	0.0	239.8719129562378	0.2749800682067871
57	159.4642698764801	response	0	2		55.0	2.5	/experiments/knapen_aot/videos/R_S_yt-rlVzHENWufE_61.mp4	0.0	240.13863897323608	
57	159.4725239276886	movie	1		301.0	55.0	2.5	/experiments/knapen_aot/videos/R_S_yt-rlVzHENWufE_61.mp4	0.0	240.14689302444458	2.508347988128662
57	161.98087191581726	fix_post	2		12.0	55.0	2.5	/experiments/knapen_aot/videos/R_S_yt-rlVzHENWufE_61.mp4	0.0	242.65524101257324	0.09988903999328613
58	162.08076095581055	fix_pre	0		14.0	56.0	2.5	blank	1.0	242.75513005256653	0.1167149543762207
58	162.18924283981323	response	0	4		56.0	2.5	blank	1.0	242.8636119365692	
58	162.19747591018677	movie	1		301.0	56.0	2.5	blank	1.0	242.87184500694275	2.5082569122314453
58	164.7057328224182	fix_post	2		12.0	56.0	2.5	blank	1.0	245.3801019191742	0.10004496574401855
59	164.80577778816223	fix_pre	0		24.0	57.0	2.5	/experiments/knapen_aot/videos/S_yt-pO5SVq-9EhU_114.mp4	0.0	245.4801468849182	0.20000815391540527
59	164.9976029396057	response	0	2		57.0	2.5	/experiments/knapen_aot/videos/S_yt-pO5SVq-9EhU_114.mp4	0.0	245.6719720363617	
59	165.00578594207764	movie	1		301.0	57.0	2.5	/experiments/knapen_aot/videos/S_yt-pO5SVq-9EhU_114.mp4	0.0	245.68015503883362	2.5083260536193848
59	167.51411199569702	fix_post	2		12.0	57.0	2.5	/experiments/knapen_aot/videos/S_yt-pO5SVq-9EhU_114.mp4	0.0	248.188481092453	0.10002589225769043
60	167.6141378879547	fix_pre	0		31.0	58.0	2.5	/experiments/knapen_aot/videos/R_S_yt-jbvXEFk2Gyw_12.mp4	0.0	248.2885069847107	0.2589530944824219
60	167.86423587799072	response	0	4		58.0	2.5	/experiments/knapen_aot/videos/R_S_yt-jbvXEFk2Gyw_12.mp4	0.0	248.5386049747467	
60	167.87309098243713	movie	1		301.0	58.0	2.5	/experiments/knapen_aot/videos/R_S_yt-jbvXEFk2Gyw_12.mp4	0.0	248.54746007919312	2.507617950439453
60	170.3807089328766	fix_post	2		12.0	58.0	2.5	/experiments/knapen_aot/videos/R_S_yt-jbvXEFk2Gyw_12.mp4	0.0	251.05507802963257	0.10009098052978516
61	170.48079991340637	fix_pre	0		33.0	59.0	2.5	/experiments/knapen_aot/videos/R_S_g201_TH_804_A001_8_SDR_20191031_SDR_2K_AVC.mp4	0.0	251.15516901016235	0.27496910095214844
61	170.7475688457489	response	0	2		59.0	2.5	/experiments/knapen_aot/videos/R_S_g201_TH_804_A001_8_SDR_20191031_SDR_2K_AVC.mp4	0.0	251.42193794250488	
61	170.75576901435852	movie	1		170.0	59.0	2.5	/experiments/knapen_aot/videos/R_S_g201_TH_804_A001_8_SDR_20191031_SDR_2K_AVC.mp4	0.0	251.4301381111145	2.5083048343658447
61	173.26407384872437	fix_post	2		12.0	59.0	2.5	/experiments/knapen_aot/videos/R_S_g201_TH_804_A001_8_SDR_20191031_SDR_2K_AVC.mp4	0.0	253.93844294548035	0.10004115104675293
62	173.36411499977112	fix_pre	0		18.0	60.0	2.5	/experiments/knapen_aot/videos/R_S_pexels-rodnae-productions-5544703.mp4	0.0	254.0384840965271	0.15003395080566406
62	173.50582194328308	response	0	4		60.0	2.5	/experiments/knapen_aot/videos/R_S_pexels-rodnae-productions-5544703.mp4	0.0	254.18019104003906	
62	173.51414895057678	movie	1		168.0	60.0	2.5	/experiments/knapen_aot/videos/R_S_pexels-rodnae-productions-5544703.mp4	0.0	254.18851804733276	2.5082528591156006
62	176.02240180969238	fix_post	2		12.0	60.0	2.5	/experiments/knapen_aot/videos/R_S_pexels-rodnae-productions-5544703.mp4	0.0	256.69677090644836	0.09995913505554199
63	176.12236094474792	fix_pre	0		33.0	61.0	2.5	/experiments/knapen_aot/videos/S_ILSVRC2015_train_00165009.mp4	0.0	256.7967300415039	0.2750740051269531
63	176.38916683197021	response	0	2		61.0	2.5	/experiments/knapen_aot/videos/S_ILSVRC2015_train_00165009.mp4	0.0	257.0635359287262	
63	176.39743494987488	movie	1		300.0	61.0	2.5	/experiments/knapen_aot/videos/S_ILSVRC2015_train_00165009.mp4	0.0	257.07180404663086	2.5082600116729736
63	178.90569496154785	fix_post	2		12.0	61.0	2.5	/experiments/knapen_aot/videos/S_ILSVRC2015_train_00165009.mp4	0.0	259.58006405830383	0.09994888305664062
64	179.0056438446045	fix_pre	0		13.0	62.0	2.5	blank	1.0	259.6800129413605	0.1083381175994873
64	179.09837579727173	response	0	2		62.0	2.5	blank	1.0	259.7727448940277	
64	179.11398196220398	movie	1		301.0	62.0	2.5	blank	1.0	259.78835105895996	2.508359909057617
64	181.6223418712616	fix_post	2		12.0	62.0	2.5	blank	1.0	262.2967109680176	0.10006999969482422
65	181.72241187095642	fix_pre	0		43.0	63.0	2.5	/experiments/knapen_aot/videos/R_S_yt-Xs-YKSogfak_24.mp4	0.0	262.3967809677124	0.35881495475769043
65	182.0725769996643	response	0	4		63.0	2.5	/experiments/knapen_aot/videos/R_S_yt-Xs-YKSogfak_24.mp4	0.0	262.7469460964203	
65	182.0812268257141	movie	1		301.0	63.0	2.5	/experiments/knapen_aot/videos/R_S_yt-Xs-YKSogfak_24.mp4	0.0	262.7555959224701	2.5077321529388428
65	184.58895897865295	fix_post	2		12.0	63.0	2.5	/experiments/knapen_aot/videos/R_S_yt-Xs-YKSogfak_24.mp4	0.0	265.26332807540894	0.10006403923034668
66	184.6890230178833	fix_pre	0		20.0	64.0	2.5	/experiments/knapen_aot/videos/R_S_yt-ZBhTpmrAlUY_70.mp4	0.0	265.3633921146393	0.1666409969329834
66	184.8475329875946	response	0	2		64.0	2.5	/experiments/knapen_aot/videos/R_S_yt-ZBhTpmrAlUY_70.mp4	0.0	265.5219020843506	
66	184.85566401481628	movie	1		301.0	64.0	2.5	/experiments/knapen_aot/videos/R_S_yt-ZBhTpmrAlUY_70.mp4	0.0	265.53003311157227	2.5083799362182617
66	187.36404395103455	fix_post	2		12.0	64.0	2.5	/experiments/knapen_aot/videos/R_S_yt-ZBhTpmrAlUY_70.mp4	0.0	268.0384130477905	0.09988188743591309
67	187.46392583847046	fix_pre	0		38.0	65.0	2.5	/experiments/knapen_aot/videos/S_ILSVRC2015_train_00569002.mp4	0.0	268.13829493522644	0.3167531490325928
67	187.7649109363556	response	0	4		65.0	2.5	/experiments/knapen_aot/videos/S_ILSVRC2015_train_00569002.mp4	0.0	268.4392800331116	
67	187.78067898750305	movie	1		301.0	65.0	2.5	/experiments/knapen_aot/videos/S_ILSVRC2015_train_00569002.mp4	0.0	268.45504808425903	2.5083470344543457
67	190.2890260219574	fix_post	2		12.0	65.0	2.5	/experiments/knapen_aot/videos/S_ILSVRC2015_train_00569002.mp4	0.0	270.9633951187134	0.10007095336914062
68	190.38909697532654	fix_pre	0		31.0	66.0	2.5	/experiments/knapen_aot/videos/R_S_yt-Q5Mfl5NdT7g_3.mp4	0.0	271.0634660720825	0.2581980228424072
68	190.63912892341614	response	0	2		66.0	2.5	/experiments/knapen_aot/videos/R_S_yt-Q5Mfl5NdT7g_3.mp4	0.0	271.3134980201721	
68	190.64729499816895	movie	1		301.0	66.0	2.5	/experiments/knapen_aot/videos/R_S_yt-Q5Mfl5NdT7g_3.mp4	0.0	271.3216640949249	2.5084187984466553
68	193.1557137966156	fix_post	2		12.0	66.0	2.5	/experiments/knapen_aot/videos/R_S_yt-Q5Mfl5NdT7g_3.mp4	0.0	273.8300828933716	0.09996914863586426
69	193.25568294525146	fix_pre	0		11.0	67.0	2.5	/experiments/knapen_aot/videos/S_I003_C011_SDR_2K_AVC.mp4	0.0	273.93005204200745	0.09164190292358398
69	193.3391718864441	response	0	4		67.0	2.5	/experiments/knapen_aot/videos/S_I003_C011_SDR_2K_AVC.mp4	0.0	274.0135409832001	
69	193.34732484817505	movie	1		169.0	67.0	2.5	/experiments/knapen_aot/videos/S_I003_C011_SDR_2K_AVC.mp4	0.0	274.02169394493103	2.5083279609680176
69	195.85565280914307	fix_post	2		12.0	67.0	2.5	/experiments/knapen_aot/videos/S_I003_C011_SDR_2K_AVC.mp4	0.0	276.53002190589905	0.09998917579650879
70	195.95564198493958	fix_pre	0		11.0	68.0	2.5	/experiments/knapen_aot/videos/R_S_I003_C011_SDR_2K_AVC.mp4	0.0	276.63001108169556	0.09168887138366699
70	196.03978991508484	response	0	2		68.0	2.5	/experiments/knapen_aot/videos/R_S_I003_C011_SDR_2K_AVC.mp4	0.0	276.7141590118408	
70	196.04733085632324	movie	1		175.0	68.0	2.5	/experiments/knapen_aot/videos/R_S_I003_C011_SDR_2K_AVC.mp4	0.0	276.7216999530792	2.508247137069702
70	198.55557799339294	fix_post	2		12.0	68.0	2.5	/experiments/knapen_aot/videos/R_S_I003_C011_SDR_2K_AVC.mp4	0.0	279.2299470901489	0.1000509262084961
71	198.65562891960144	fix_pre	0		2.0	69.0	2.5	/experiments/knapen_aot/videos/S_yt-VbKGc8N_29.mp4	0.0	279.3299980163574	0.016736984252929688
71	198.65818095207214	response	0	4		69.0	2.5	/experiments/knapen_aot/videos/S_yt-VbKGc8N_29.mp4	0.0	279.3325500488281	
71	198.67236590385437	movie	1		301.0	69.0	2.5	/experiments/knapen_aot/videos/S_yt-VbKGc8N_29.mp4	0.0	279.34673500061035	2.508246898651123
71	201.1806128025055	fix_post	2		12.0	69.0	2.5	/experiments/knapen_aot/videos/S_yt-VbKGc8N_29.mp4	0.0	281.8549818992615	0.10001015663146973
72	201.28062295913696	fix_pre	0		6.0	70.0	2.5	blank	1.0	281.95499205589294	0.05045485496520996
72	201.32241582870483	response	0	2		70.0	2.5	blank	1.0	281.9967849254608	
72	201.33107781410217	movie	1		301.0	70.0	2.5	blank	1.0	282.00544691085815	2.5078752040863037
72	203.83895301818848	fix_post	2		12.0	70.0	2.5	blank	1.0	284.51332211494446	0.1000058650970459
73	203.93895888328552	fix_pre	0		46.0	71.0	2.5	/experiments/knapen_aot/videos/S_comp_L004_C011_PS_v01_SDR_PS_20180925_SDR_2K_AVC.mp4	0.0	284.6133279800415	0.38331007957458496
73	204.31406497955322	response	0	4		71.0	2.5	/experiments/knapen_aot/videos/S_comp_L004_C011_PS_v01_SDR_PS_20180925_SDR_2K_AVC.mp4	0.0	284.9884340763092	
73	204.3222689628601	movie	1		170.0	71.0	2.5	/experiments/knapen_aot/videos/S_comp_L004_C011_PS_v01_SDR_PS_20180925_SDR_2K_AVC.mp4	0.0	284.9966380596161	2.5083320140838623
73	206.83060097694397	fix_post	2		12.0	71.0	2.5	/experiments/knapen_aot/videos/S_comp_L004_C011_PS_v01_SDR_PS_20180925_SDR_2K_AVC.mp4	0.0	287.50497007369995	0.09995603561401367
74	206.93055701255798	fix_pre	0		3.0	72.0	2.5	/experiments/knapen_aot/videos/R_S_b2-2.mp4	0.0	287.60492610931396	0.025694847106933594
74	206.9474639892578	response	0	2		72.0	2.5	/experiments/knapen_aot/videos/R_S_b2-2.mp4	0.0	287.6218330860138	
74	206.95625185966492	movie	1		170.0	72.0	2.5	/experiments/knapen_aot/videos/R_S_b2-2.mp4	0.0	287.6306209564209	2.507652997970581
74	209.4639048576355	fix_post	2		12.0	72.0	2.5	/experiments/knapen_aot/videos/R_S_b2-2.mp4	0.0	290.1382739543915	0.10002899169921875
74	209.52405285835266	response	2	4		72.0	2.5	/experiments/knapen_aot/videos/R_S_b2-2.mp4	0.0	290.19842195510864	
75	209.56393384933472	fix_pre	0		84.0	73.0	2.5	/experiments/knapen_aot/videos/R_S_yt-r2jZ0zZrqzQ_45.mp4	0.0	290.2383029460907	0.6999380588531494
75	210.25573086738586	response	0	2		73.0	2.5	/experiments/knapen_aot/videos/R_S_yt-r2jZ0zZrqzQ_45.mp4	0.0	290.93009996414185	
75	210.26387190818787	movie	1		301.0	73.0	2.5	/experiments/knapen_aot/videos/R_S_yt-r2jZ0zZrqzQ_45.mp4	0.0	290.93824100494385	2.508405923843384
75	212.77227783203125	fix_post	2		12.0	73.0	2.5	/experiments/knapen_aot/videos/R_S_yt-r2jZ0zZrqzQ_45.mp4	0.0	293.44664692878723	0.09993815422058105
76	212.87221598625183	fix_pre	0		9.0	74.0	2.5	/experiments/knapen_aot/videos/S_yt-jy96-k8drRE_1.mp4	0.0	293.5465850830078	0.07502388954162598
76	212.9391348361969	response	0	4		74.0	2.5	/experiments/knapen_aot/videos/S_yt-jy96-k8drRE_1.mp4	0.0	293.6135039329529	
76	212.94723987579346	movie	1		300.0	74.0	2.5	/experiments/knapen_aot/videos/S_yt-jy96-k8drRE_1.mp4	0.0	293.62160897254944	2.508234977722168
76	215.45547485351562	fix_post	2		12.0	74.0	2.5	/experiments/knapen_aot/videos/S_yt-jy96-k8drRE_1.mp4	0.0	296.1298439502716	0.10007405281066895
77	215.5555489063263	fix_pre	0		15.0	75.0	2.5	/experiments/knapen_aot/videos/S_yt-BLmwmX-mni8_56.mp4	0.0	296.2299180030823	0.12500810623168945
77	215.67238783836365	response	0	2		75.0	2.5	/experiments/knapen_aot/videos/S_yt-BLmwmX-mni8_56.mp4	0.0	296.34675693511963	
77	215.68055701255798	movie	1		301.0	75.0	2.5	/experiments/knapen_aot/videos/S_yt-BLmwmX-mni8_56.mp4	0.0	296.35492610931396	2.5083558559417725
77	218.18891286849976	fix_post	2		12.0	75.0	2.5	/experiments/knapen_aot/videos/S_yt-BLmwmX-mni8_56.mp4	0.0	298.86328196525574	0.10036206245422363
78	218.28927493095398	fix_pre	0		7.0	76.0	2.5	/experiments/knapen_aot/videos/S_yt-YMI27rk5qUQ_117.mp4	0.0	298.96364402770996	0.058081865310668945
78	218.33924984931946	response	0	4		76.0	2.5	/experiments/knapen_aot/videos/S_yt-YMI27rk5qUQ_117.mp4	0.0	299.01361894607544	
78	218.34735679626465	movie	1		301.0	76.0	2.5	/experiments/knapen_aot/videos/S_yt-YMI27rk5qUQ_117.mp4	0.0	299.02172589302063	2.5081911087036133
78	220.85554790496826	fix_post	2		12.0	76.0	2.5	/experiments/knapen_aot/videos/S_yt-YMI27rk5qUQ_117.mp4	0.0	301.52991700172424	0.10035490989685059
79	220.9559028148651	fix_pre	0		21.0	77.0	2.5	blank	1.0	301.6302719116211	0.17467117309570312
79	221.1223349571228	response	0	2		77.0	2.5	blank	1.0	301.7967040538788	
79	221.13057398796082	movie	1		301.0	77.0	2.5	blank	1.0	301.8049430847168	2.5084140300750732
79	223.6389880180359	fix_post	2		12.0	77.0	2.5	blank	1.0	304.31335711479187	0.09991884231567383
80	223.73890686035156	fix_pre	0		60.0	78.0	2.5	/experiments/knapen_aot/videos/S_yt-N7ztk2fa3Ls_137.mp4	0.0	304.41327595710754	0.4999821186065674
80	224.23072385787964	response	0	4		78.0	2.5	/experiments/knapen_aot/videos/S_yt-N7ztk2fa3Ls_137.mp4	0.0	304.9050929546356	
80	224.23888897895813	movie	1		301.0	78.0	2.5	/experiments/knapen_aot/videos/S_yt-N7ztk2fa3Ls_137.mp4	0.0	304.9132580757141	2.508301019668579
80	226.7471899986267	fix_post	2		12.0	78.0	2.5	/experiments/knapen_aot/videos/S_yt-N7ztk2fa3Ls_137.mp4	0.0	307.4215590953827	0.10001182556152344
81	226.84720182418823	fix_pre	0		20.0	79.0	2.5	/experiments/knapen_aot/videos/S_yt-WCT9dyz0-gQ_36.mp4	0.0	307.5215709209442	0.1666259765625
81	227.00557494163513	response	0	2		79.0	2.5	/experiments/knapen_aot/videos/S_yt-WCT9dyz0-gQ_36.mp4	0.0	307.6799440383911	
81	227.01382780075073	movie	1		301.0	79.0	2.5	/experiments/knapen_aot/videos/S_yt-WCT9dyz0-gQ_36.mp4	0.0	307.6881968975067	2.5083630084991455
81	229.52219080924988	fix_post	2		12.0	79.0	2.5	/experiments/knapen_aot/videos/S_yt-WCT9dyz0-gQ_36.mp4	0.0	310.19655990600586	0.10033011436462402
82	229.6225209236145	fix_pre	0		19.0	80.0	2.5	/experiments/knapen_aot/videos/R_S_ILSVRC2015_train_00441000.mp4	0.0	310.2968900203705	0.1579740047454834
82	229.7723410129547	response	0	4		80.0	2.5	/experiments/knapen_aot/videos/R_S_ILSVRC2015_train_00441000.mp4	0.0	310.4467101097107	
82	229.78049492835999	movie	1		301.0	80.0	2.5	/experiments/knapen_aot/videos/R_S_ILSVRC2015_train_00441000.mp4	0.0	310.45486402511597	2.508315086364746
82	232.28881001472473	fix_post	2		12.0	80.0	2.5	/experiments/knapen_aot/videos/R_S_ILSVRC2015_train_00441000.mp4	0.0	312.9631791114807	0.09995889663696289
83	232.3887689113617	fix_pre	0		24.0	81.0	2.5	/experiments/knapen_aot/videos/R_S_yt-rlEPywo5BEQ_36.mp4	0.0	313.0631380081177	0.20002508163452148
83	232.58060598373413	response	0	2		81.0	2.5	/experiments/knapen_aot/videos/R_S_yt-rlEPywo5BEQ_36.mp4	0.0	313.2549750804901	
83	232.58879399299622	movie	1		299.0	81.0	2.5	/experiments/knapen_aot/videos/R_S_yt-rlEPywo5BEQ_36.mp4	0.0	313.2631630897522	2.508323907852173
83	235.0971179008484	fix_post	2		12.0	81.0	2.5	/experiments/knapen_aot/videos/R_S_yt-rlEPywo5BEQ_36.mp4	0.0	315.77148699760437	0.09997200965881348
84	235.1970899105072	fix_pre	0		31.0	82.0	2.5	/experiments/knapen_aot/videos/R_S_video_inspire_california_catalina_00005.1080-h264.mp4	0.0	315.8714590072632	0.2587308883666992
84	235.44743490219116	response	0	4		82.0	2.5	/experiments/knapen_aot/videos/R_S_video_inspire_california_catalina_00005.1080-h264.mp4	0.0	316.12180399894714	
84	235.4558207988739	movie	1		170.0	82.0	2.5	/experiments/knapen_aot/videos/R_S_video_inspire_california_catalina_00005.1080-h264.mp4	0.0	316.1301898956299	2.5079071521759033
84	237.9637279510498	fix_post	2		12.0	82.0	2.5	/experiments/knapen_aot/videos/R_S_video_inspire_california_catalina_00005.1080-h264.mp4	0.0	318.6380970478058	0.1000528335571289
85	238.06378078460693	fix_pre	0		31.0	83.0	2.5	blank	1.0	318.7381498813629	0.25835108757019043
85	238.31387782096863	response	0	2		83.0	2.5	blank	1.0	318.9882469177246	
85	238.32213187217712	movie	1		301.0	83.0	2.5	blank	1.0	318.9965009689331	2.5083250999450684
85	240.8304569721222	fix_post	2		12.0	83.0	2.5	blank	1.0	321.5048260688782	0.10004186630249023
87	240.93049883842468	stim	0		293.0					321.60486793518066	2.4418411254882812
87	241.1555459499359	response	0	4						321.8299150466919	
87	243.3666319847107	response	0	space						324.0410010814667	
