trial_nr	onset	event_type	phase	response	nr_frames	movie_index	movie_duration	movie_file	blank	onset_abs	duration
0	0.1250748634338379	stim	0		42.0					167.2941608428955	0.34992218017578125
0	0.46684885025024414	response	0	space						167.6359348297119	
1	0.47499704360961914	stim	0		121.0					167.6440830230713	1.0080249309539795
1	1.2667908668518066	response	0	space						168.43587684631348	
1	1.4830219745635986	stim	1		120.0					168.65210795402527	1.0000078678131104
1	1.6006789207458496	response	1	space						168.76976490020752	
1	1.7580769062042236	response	1	space						168.9271628856659	
1	1.958042860031128	response	1	space						169.1271288394928	
1	2.266418933868408	response	1	space						169.43550491333008	
2	2.483029842376709	fix_pre	0		10.0	0.0	2.5	/experiments/knapen_aot/videos/S_ILSVRC2015_train_00563000.mp4	0.0	169.65211582183838	0.08335614204406738
2	2.555405855178833	response	0	2		0.0	2.5	/experiments/knapen_aot/videos/S_ILSVRC2015_train_00563000.mp4	0.0	169.7244918346405	
2	2.5663859844207764	movie	1		299.0	0.0	2.5	/experiments/knapen_aot/videos/S_ILSVRC2015_train_00563000.mp4	0.0	169.73547196388245	2.508296012878418
2	2.605116844177246	response	1	space		0.0	2.5	/experiments/knapen_aot/videos/S_ILSVRC2015_train_00563000.mp4	0.0	169.77420282363892	
2	5.074681997299194	fix_post	2		12.0	0.0	2.5	/experiments/knapen_aot/videos/S_ILSVRC2015_train_00563000.mp4	0.0	172.24376797676086	0.09993886947631836
3	5.174620866775513	fix_pre	0		38.0	1.0	2.5	/experiments/knapen_aot/videos/S_yt-8RmEimCI80g_35.mp4	0.0	172.34370684623718	0.31670212745666504
3	5.475594997406006	response	0	2		1.0	2.5	/experiments/knapen_aot/videos/S_yt-8RmEimCI80g_35.mp4	0.0	172.64468097686768	
3	5.491322994232178	movie	1		301.0	1.0	2.5	/experiments/knapen_aot/videos/S_yt-8RmEimCI80g_35.mp4	0.0	172.66040897369385	2.5083398818969727
3	7.99966287612915	fix_post	2		12.0	1.0	2.5	/experiments/knapen_aot/videos/S_yt-8RmEimCI80g_35.mp4	0.0	175.16874885559082	0.09998917579650879
4	8.09965205192566	fix_pre	0		28.0	2.0	2.5	/experiments/knapen_aot/videos/R_S_m-aeoYPMqfg_185.mp4	0.0	175.26873803138733	0.2333669662475586
4	8.317260980606079	response	0	2		2.0	2.5	/experiments/knapen_aot/videos/R_S_m-aeoYPMqfg_185.mp4	0.0	175.48634696006775	
4	8.333019018173218	movie	1		299.0	2.0	2.5	/experiments/knapen_aot/videos/R_S_m-aeoYPMqfg_185.mp4	0.0	175.5021049976349	2.5083508491516113
4	10.841369867324829	fix_post	2		12.0	2.0	2.5	/experiments/knapen_aot/videos/R_S_m-aeoYPMqfg_185.mp4	0.0	178.0104558467865	0.09999513626098633
5	10.941365003585815	fix_pre	0		26.0	3.0	2.5	/experiments/knapen_aot/videos/S_yt-qxtmtMnUfD0_124.mp4	0.0	178.11045098304749	0.21663284301757812
5	11.149816989898682	response	0	2		3.0	2.5	/experiments/knapen_aot/videos/S_yt-qxtmtMnUfD0_124.mp4	0.0	178.31890296936035	
5	11.157997846603394	movie	1		301.0	3.0	2.5	/experiments/knapen_aot/videos/S_yt-qxtmtMnUfD0_124.mp4	0.0	178.32708382606506	2.5083320140838623
5	13.666329860687256	fix_post	2		12.0	3.0	2.5	/experiments/knapen_aot/videos/S_yt-qxtmtMnUfD0_124.mp4	0.0	180.83541584014893	0.09995317459106445
6	13.76628303527832	fix_pre	0		28.0	4.0	2.5	/experiments/knapen_aot/videos/S_yt-F2x6e7e7cAE_70.mp4	0.0	180.93536901474	0.23342585563659668
6	13.983927965164185	response	0	2		4.0	2.5	/experiments/knapen_aot/videos/S_yt-F2x6e7e7cAE_70.mp4	0.0	181.15301394462585	
6	13.999708890914917	movie	1		301.0	4.0	2.5	/experiments/knapen_aot/videos/S_yt-F2x6e7e7cAE_70.mp4	0.0	181.1687948703766	2.5082690715789795
6	16.507977962493896	fix_post	2		12.0	4.0	2.5	/experiments/knapen_aot/videos/S_yt-F2x6e7e7cAE_70.mp4	0.0	183.67706394195557	0.09997105598449707
7	16.607949018478394	fix_pre	0		45.0	5.0	2.5	/experiments/knapen_aot/videos/S_yt-c6kLumgTX54_7.mp4	0.0	183.77703499794006	0.37503886222839355
7	16.974776029586792	response	0	2		5.0	2.5	/experiments/knapen_aot/videos/S_yt-c6kLumgTX54_7.mp4	0.0	184.14386200904846	
7	16.982987880706787	movie	1		301.0	5.0	2.5	/experiments/knapen_aot/videos/S_yt-c6kLumgTX54_7.mp4	0.0	184.15207386016846	2.5083210468292236
7	19.49130892753601	fix_post	2		12.0	5.0	2.5	/experiments/knapen_aot/videos/S_yt-c6kLumgTX54_7.mp4	0.0	186.66039490699768	0.09997105598449707
8	19.591279983520508	fix_pre	0		51.0	6.0	2.5	blank	1.0	186.76036596298218	0.4250199794769287
8	20.00812005996704	response	0	2		6.0	2.5	blank	1.0	187.1772060394287	
8	20.016299962997437	movie	1		301.0	6.0	2.5	blank	1.0	187.1853859424591	2.5083398818969727
8	22.52463984489441	fix_post	2		12.0	6.0	2.5	blank	1.0	189.69372582435608	0.09999608993530273
9	22.624635934829712	fix_pre	0		38.0	7.0	2.5	/experiments/knapen_aot/videos/R_S_video_inspire_oregon_lone-ranch-beach_00001.1080-h264.mp4	0.0	189.79372191429138	0.3166329860687256
9	22.92555594444275	response	0	2		7.0	2.5	/experiments/knapen_aot/videos/R_S_video_inspire_oregon_lone-ranch-beach_00001.1080-h264.mp4	0.0	190.09464192390442	
9	22.941268920898438	movie	1		166.0	7.0	2.5	/experiments/knapen_aot/videos/R_S_video_inspire_oregon_lone-ranch-beach_00001.1080-h264.mp4	0.0	190.1103549003601	2.5083770751953125
9	25.44964599609375	fix_post	2		12.0	7.0	2.5	/experiments/knapen_aot/videos/R_S_video_inspire_oregon_lone-ranch-beach_00001.1080-h264.mp4	0.0	192.61873197555542	0.09998703002929688
10	25.549633026123047	fix_pre	0		250.0	8.0	2.5	/experiments/knapen_aot/videos/S_yt-BLmwmX-mni8_56.mp4	0.0	192.71871900558472	2.0831868648529053
10	27.617223024368286	response	0	2		8.0	2.5	/experiments/knapen_aot/videos/S_yt-BLmwmX-mni8_56.mp4	0.0	194.78630900382996	
10	27.632819890975952	movie	1		301.0	8.0	2.5	/experiments/knapen_aot/videos/S_yt-BLmwmX-mni8_56.mp4	0.0	194.80190587043762	2.508308172225952
10	30.141128063201904	fix_post	2		12.0	8.0	2.5	/experiments/knapen_aot/videos/S_yt-BLmwmX-mni8_56.mp4	0.0	197.31021404266357	0.10014891624450684
11	30.24127697944641	fix_pre	0		249.0	9.0	2.5	/experiments/knapen_aot/videos/R_S_Y009_C015_SDR_2K_AVC.mp4	0.0	197.41036295890808	2.0749449729919434
11	32.30067205429077	response	0	2		9.0	2.5	/experiments/knapen_aot/videos/R_S_Y009_C015_SDR_2K_AVC.mp4	0.0	199.46975803375244	
11	32.316221952438354	movie	1		170.0	9.0	2.5	/experiments/knapen_aot/videos/R_S_Y009_C015_SDR_2K_AVC.mp4	0.0	199.48530793190002	2.508347988128662
11	34.82456994056702	fix_post	2		12.0	9.0	2.5	/experiments/knapen_aot/videos/R_S_Y009_C015_SDR_2K_AVC.mp4	0.0	201.9936559200287	0.1000070571899414
12	34.92457699775696	fix_pre	0		444.0	10.0	2.5	/experiments/knapen_aot/videos/S_yt-4oacL3aXtlU_11.mp4	0.0	202.09366297721863	3.701066017150879
12	38.61628293991089	response	0	2		10.0	2.5	/experiments/knapen_aot/videos/S_yt-4oacL3aXtlU_11.mp4	0.0	205.78536891937256	
12	38.62564301490784	movie	1		301.0	10.0	2.5	/experiments/knapen_aot/videos/S_yt-4oacL3aXtlU_11.mp4	0.0	205.7947289943695	2.5072059631347656
12	41.1328489780426	fix_post	2		12.0	10.0	2.5	/experiments/knapen_aot/videos/S_yt-4oacL3aXtlU_11.mp4	0.0	208.30193495750427	0.10000491142272949
13	41.23285388946533	fix_pre	0		258.0	11.0	2.5	/experiments/knapen_aot/videos/R_S_yt-PREz5XiiXg0_107.mp4	0.0	208.401939868927	2.149940013885498
13	43.37465190887451	response	0	2		11.0	2.5	/experiments/knapen_aot/videos/R_S_yt-PREz5XiiXg0_107.mp4	0.0	210.54373788833618	
13	43.38279390335083	movie	1		301.0	11.0	2.5	/experiments/knapen_aot/videos/R_S_yt-PREz5XiiXg0_107.mp4	0.0	210.5518798828125	2.508315086364746
13	45.66737198829651	response	1	2		11.0	2.5	/experiments/knapen_aot/videos/R_S_yt-PREz5XiiXg0_107.mp4	0.0	212.83645796775818	
13	45.891108989715576	fix_post	2		12.0	11.0	2.5	/experiments/knapen_aot/videos/R_S_yt-PREz5XiiXg0_107.mp4	0.0	213.06019496917725	0.09998703002929688
14	45.99109601974487	fix_pre	0		65.0	12.0	2.5	/experiments/knapen_aot/videos/S_wc-ZZxbTv7oc5DQ_10.mp4	0.0	213.16018199920654	0.5416948795318604
14	46.52451801300049	response	0	2		12.0	2.5	/experiments/knapen_aot/videos/S_wc-ZZxbTv7oc5DQ_10.mp4	0.0	213.69360399246216	
14	46.53279089927673	movie	1		162.0	12.0	2.5	/experiments/knapen_aot/videos/S_wc-ZZxbTv7oc5DQ_10.mp4	0.0	213.7018768787384	2.5083470344543457
14	49.04113793373108	fix_post	2		12.0	12.0	2.5	/experiments/knapen_aot/videos/S_wc-ZZxbTv7oc5DQ_10.mp4	0.0	216.21022391319275	0.09995412826538086
15	49.14109206199646	fix_pre	0		11.0	13.0	2.5	/experiments/knapen_aot/videos/R_S_ILSVRC2015_train_00563000.mp4	0.0	216.31017804145813	0.09187793731689453
15	49.22465705871582	response	0	2		13.0	2.5	/experiments/knapen_aot/videos/R_S_ILSVRC2015_train_00563000.mp4	0.0	216.3937430381775	
15	49.232969999313354	movie	1		301.0	13.0	2.5	/experiments/knapen_aot/videos/R_S_ILSVRC2015_train_00563000.mp4	0.0	216.40205597877502	2.508111000061035
15	51.74108099937439	fix_post	2		12.0	13.0	2.5	/experiments/knapen_aot/videos/R_S_ILSVRC2015_train_00563000.mp4	0.0	218.91016697883606	0.09998297691345215
16	51.84106397628784	fix_pre	0		31.0	14.0	2.5	blank	1.0	219.0101499557495	0.2583279609680176
16	52.09128785133362	response	0	2		14.0	2.5	blank	1.0	219.2603738307953	
16	52.09939193725586	movie	1		301.0	14.0	2.5	blank	1.0	219.26847791671753	2.5084049701690674
16	54.60779690742493	fix_post	2		12.0	14.0	2.5	blank	1.0	221.7768828868866	0.09998607635498047
17	54.70778298377991	fix_pre	0		50.0	15.0	2.5	/experiments/knapen_aot/videos/R_S_yt-T9Vwt7wFvPk_100.mp4	0.0	221.87686896324158	0.4176959991455078
17	55.10864996910095	response	0	2		15.0	2.5	/experiments/knapen_aot/videos/R_S_yt-T9Vwt7wFvPk_100.mp4	0.0	222.27773594856262	
17	55.125478982925415	movie	1		301.0	15.0	2.5	/experiments/knapen_aot/videos/R_S_yt-T9Vwt7wFvPk_100.mp4	0.0	222.29456496238708	2.507335901260376
17	57.63281488418579	fix_post	2		12.0	15.0	2.5	/experiments/knapen_aot/videos/R_S_yt-T9Vwt7wFvPk_100.mp4	0.0	224.80190086364746	0.09998202323913574
18	57.73279690742493	fix_pre	0		51.0	16.0	2.5	/experiments/knapen_aot/videos/S_yt-6vkiJedss6g_5.mp4	0.0	224.9018828868866	0.42497706413269043
18	58.149569034576416	response	0	2		16.0	2.5	/experiments/knapen_aot/videos/S_yt-6vkiJedss6g_5.mp4	0.0	225.3186550140381	
18	58.15777397155762	movie	1		300.0	16.0	2.5	/experiments/knapen_aot/videos/S_yt-6vkiJedss6g_5.mp4	0.0	225.3268599510193	2.5083510875701904
18	60.66612505912781	fix_post	2		12.0	16.0	2.5	/experiments/knapen_aot/videos/S_yt-6vkiJedss6g_5.mp4	0.0	227.83521103858948	0.09993386268615723
19	60.766058921813965	fix_pre	0		298.0	17.0	2.5	/experiments/knapen_aot/videos/S_yt-t23g0U_hAgg_32.mp4	0.0	227.93514490127563	2.484349012374878
19	63.24126100540161	response	0	2		17.0	2.5	/experiments/knapen_aot/videos/S_yt-t23g0U_hAgg_32.mp4	0.0	230.41034698486328	
19	63.25040793418884	movie	1		301.0	17.0	2.5	/experiments/knapen_aot/videos/S_yt-t23g0U_hAgg_32.mp4	0.0	230.4194939136505	2.507344961166382
19	65.75775289535522	fix_post	2		12.0	17.0	2.5	/experiments/knapen_aot/videos/S_yt-t23g0U_hAgg_32.mp4	0.0	232.9268388748169	0.0999760627746582
20	65.85772895812988	fix_pre	0		34.0	18.0	2.5	/experiments/knapen_aot/videos/R_S_ILSVRC2015_train_00538000.mp4	0.0	233.02681493759155	0.2834320068359375
20	66.13292598724365	response	0	2		18.0	2.5	/experiments/knapen_aot/videos/R_S_ILSVRC2015_train_00538000.mp4	0.0	233.30201196670532	
20	66.14116096496582	movie	1		301.0	18.0	2.5	/experiments/knapen_aot/videos/R_S_ILSVRC2015_train_00538000.mp4	0.0	233.3102469444275	2.5082340240478516
20	67.78527784347534	response	1	2		18.0	2.5	/experiments/knapen_aot/videos/R_S_ILSVRC2015_train_00538000.mp4	0.0	234.954363822937	
20	68.64939498901367	fix_post	2		12.0	18.0	2.5	/experiments/knapen_aot/videos/R_S_ILSVRC2015_train_00538000.mp4	0.0	235.81848096847534	0.0999748706817627
21	68.74936985969543	fix_pre	0		14.0	19.0	2.5	/experiments/knapen_aot/videos/S_pexels-c-technical-6809719.mp4	0.0	235.9184558391571	0.1166841983795166
21	68.85783696174622	response	0	2		19.0	2.5	/experiments/knapen_aot/videos/S_pexels-c-technical-6809719.mp4	0.0	236.02692294120789	
21	68.86605405807495	movie	1		179.0	19.0	2.5	/experiments/knapen_aot/videos/S_pexels-c-technical-6809719.mp4	0.0	236.03514003753662	2.50833797454834
21	70.19004607200623	response	1	2		19.0	2.5	/experiments/knapen_aot/videos/S_pexels-c-technical-6809719.mp4	0.0	237.3591320514679	
21	71.37439203262329	fix_post	2		12.0	19.0	2.5	/experiments/knapen_aot/videos/S_pexels-c-technical-6809719.mp4	0.0	238.54347801208496	0.10001993179321289
22	71.4744119644165	fix_pre	0		36.0	20.0	2.5	/experiments/knapen_aot/videos/S_yt-4ouMuGUuPHI_193.mp4	0.0	238.64349794387817	0.3083150386810303
22	71.76622104644775	response	0	2		20.0	2.5	/experiments/knapen_aot/videos/S_yt-4ouMuGUuPHI_193.mp4	0.0	238.93530702590942	
22	71.78272700309753	movie	1		300.0	20.0	2.5	/experiments/knapen_aot/videos/S_yt-4ouMuGUuPHI_193.mp4	0.0	238.9518129825592	2.499980926513672
22	74.2827079296112	fix_post	2		12.0	20.0	2.5	/experiments/knapen_aot/videos/S_yt-4ouMuGUuPHI_193.mp4	0.0	241.45179390907288	0.09999299049377441
23	74.38270092010498	fix_pre	0		52.0	21.0	2.5	blank	1.0	241.55178689956665	0.4333040714263916
23	74.80785894393921	response	0	2		21.0	2.5	blank	1.0	241.97694492340088	
23	74.81600499153137	movie	1		301.0	21.0	2.5	blank	1.0	241.98509097099304	2.508319854736328
23	76.5661199092865	response	1	2		21.0	2.5	blank	1.0	243.73520588874817	
23	77.3243248462677	fix_post	2		12.0	21.0	2.5	blank	1.0	244.49341082572937	0.10010814666748047
24	77.42443299293518	fix_pre	0		54.0	22.0	2.5	/experiments/knapen_aot/videos/R_S_yt-hQ5pge893b4_6.mp4	0.0	244.59351897239685	0.45084404945373535
24	77.86610198020935	response	0	2		22.0	2.5	/experiments/knapen_aot/videos/R_S_yt-hQ5pge893b4_6.mp4	0.0	245.03518795967102	
24	77.87527704238892	movie	1		301.0	22.0	2.5	/experiments/knapen_aot/videos/R_S_yt-hQ5pge893b4_6.mp4	0.0	245.0443630218506	2.5073599815368652
24	80.38263702392578	fix_post	2		12.0	22.0	2.5	/experiments/knapen_aot/videos/R_S_yt-hQ5pge893b4_6.mp4	0.0	247.55172300338745	0.10003304481506348
25	80.48267006874084	fix_pre	0		97.0	23.0	2.5	/experiments/knapen_aot/videos/R_S_video_inspire_florida_miami_brickell_sunset_00036.1080-h264.mp4	0.0	247.65175604820251	0.8092148303985596
25	81.28283095359802	response	0	2		23.0	2.5	/experiments/knapen_aot/videos/R_S_video_inspire_florida_miami_brickell_sunset_00036.1080-h264.mp4	0.0	248.4519169330597	
25	81.2918848991394	movie	1		171.0	23.0	2.5	/experiments/knapen_aot/videos/R_S_video_inspire_florida_miami_brickell_sunset_00036.1080-h264.mp4	0.0	248.46097087860107	2.507554054260254
25	83.44481086730957	response	1	2		23.0	2.5	/experiments/knapen_aot/videos/R_S_video_inspire_florida_miami_brickell_sunset_00036.1080-h264.mp4	0.0	250.61389684677124	
25	83.79943895339966	fix_post	2		12.0	23.0	2.5	/experiments/knapen_aot/videos/R_S_video_inspire_florida_miami_brickell_sunset_00036.1080-h264.mp4	0.0	250.96852493286133	0.09987711906433105
26	83.89931607246399	fix_pre	0		71.0	24.0	2.5	/experiments/knapen_aot/videos/R_S_ILSVRC2015_test_00004002.mp4	0.0	251.06840205192566	0.5916409492492676
26	84.48277688026428	response	0	2		24.0	2.5	/experiments/knapen_aot/videos/R_S_ILSVRC2015_test_00004002.mp4	0.0	251.65186285972595	
26	84.49095702171326	movie	1		301.0	24.0	2.5	/experiments/knapen_aot/videos/R_S_ILSVRC2015_test_00004002.mp4	0.0	251.66004300117493	2.508366823196411
26	86.99932384490967	fix_post	2		12.0	24.0	2.5	/experiments/knapen_aot/videos/R_S_ILSVRC2015_test_00004002.mp4	0.0	254.16840982437134	0.09999608993530273
26	87.0744400024414	response	2	2		24.0	2.5	/experiments/knapen_aot/videos/R_S_ILSVRC2015_test_00004002.mp4	0.0	254.24352598190308	
27	87.09931993484497	fix_pre	0		63.0	25.0	2.5	/experiments/knapen_aot/videos/R_S_PA_A001_C007_SDR_20190717_SDR_2K_AVC.mp4	0.0	254.26840591430664	0.5259079933166504
27	87.61602902412415	response	0	2		25.0	2.5	/experiments/knapen_aot/videos/R_S_PA_A001_C007_SDR_20190717_SDR_2K_AVC.mp4	0.0	254.78511500358582	
27	87.62522792816162	movie	1		168.0	25.0	2.5	/experiments/knapen_aot/videos/R_S_PA_A001_C007_SDR_20190717_SDR_2K_AVC.mp4	0.0	254.7943139076233	2.507373094558716
27	90.13260102272034	fix_post	2		12.0	25.0	2.5	/experiments/knapen_aot/videos/R_S_PA_A001_C007_SDR_20190717_SDR_2K_AVC.mp4	0.0	257.301687002182	0.1000528335571289
28	90.23265385627747	fix_pre	0		11.0	26.0	2.5	/experiments/knapen_aot/videos/R_S_yt-7e6Z9QQieAk_183.mp4	0.0	257.40173983573914	0.09159612655639648
28	90.31605195999146	response	0	2		26.0	2.5	/experiments/knapen_aot/videos/R_S_yt-7e6Z9QQieAk_183.mp4	0.0	257.4851379394531	
28	90.32424998283386	movie	1		301.0	26.0	2.5	/experiments/knapen_aot/videos/R_S_yt-7e6Z9QQieAk_183.mp4	0.0	257.49333596229553	2.508362054824829
28	92.83261203765869	fix_post	2		12.0	26.0	2.5	/experiments/knapen_aot/videos/R_S_yt-7e6Z9QQieAk_183.mp4	0.0	260.00169801712036	0.09991598129272461
29	92.93252801895142	fix_pre	0		35.0	27.0	2.5	/experiments/knapen_aot/videos/S_yt-z16pdVTZK1o_3.mp4	0.0	260.1016139984131	0.2918109893798828
29	93.2161340713501	response	0	2		27.0	2.5	/experiments/knapen_aot/videos/S_yt-z16pdVTZK1o_3.mp4	0.0	260.38522005081177	
29	93.2243390083313	movie	1		301.0	27.0	2.5	/experiments/knapen_aot/videos/S_yt-z16pdVTZK1o_3.mp4	0.0	260.39342498779297	2.5083858966827393
29	95.73272490501404	fix_post	2		12.0	27.0	2.5	/experiments/knapen_aot/videos/S_yt-z16pdVTZK1o_3.mp4	0.0	262.9018108844757	0.09993910789489746
30	95.83266401290894	fix_pre	0		49.0	28.0	2.5	blank	1.0	263.0017499923706	0.40830397605895996
30	96.23271799087524	response	0	2		28.0	2.5	blank	1.0	263.4018039703369	
30	96.2409679889679	movie	1		301.0	28.0	2.5	blank	1.0	263.41005396842957	2.5083210468292236
30	98.74928903579712	fix_post	2		12.0	28.0	2.5	blank	1.0	265.9183750152588	0.09997391700744629
31	98.84926295280457	fix_pre	0		37.0	29.0	2.5	/experiments/knapen_aot/videos/R_S_Ds4EKTLx_RI_51.mp4	0.0	266.01834893226624	0.3083040714263916
31	99.1493890285492	response	0	2		29.0	2.5	/experiments/knapen_aot/videos/R_S_Ds4EKTLx_RI_51.mp4	0.0	266.31847500801086	
31	99.15756702423096	movie	1		301.0	29.0	2.5	/experiments/knapen_aot/videos/R_S_Ds4EKTLx_RI_51.mp4	0.0	266.3266530036926	2.50838303565979
31	101.66595005989075	fix_post	2		12.0	29.0	2.5	/experiments/knapen_aot/videos/R_S_Ds4EKTLx_RI_51.mp4	0.0	268.8350360393524	0.09994697570800781
32	101.76589703559875	fix_pre	0		31.0	30.0	2.5	/experiments/knapen_aot/videos/R_S_yt-BJsMGxfjrZk_59.mp4	0.0	268.9349830150604	0.2583329677581787
32	102.01598191261292	response	0	2		30.0	2.5	/experiments/knapen_aot/videos/R_S_yt-BJsMGxfjrZk_59.mp4	0.0	269.1850678920746	
32	102.02423000335693	movie	1		301.0	30.0	2.5	/experiments/knapen_aot/videos/R_S_yt-BJsMGxfjrZk_59.mp4	0.0	269.1933159828186	2.508370876312256
32	104.53260087966919	fix_post	2		12.0	30.0	2.5	/experiments/knapen_aot/videos/R_S_yt-BJsMGxfjrZk_59.mp4	0.0	271.70168685913086	0.09997296333312988
33	104.63257384300232	fix_pre	0		77.0	31.0	2.5	/experiments/knapen_aot/videos/R_S_yt-F2x6e7e7cAE_70.mp4	0.0	271.801659822464	0.6416561603546143
33	105.26605105400085	response	0	2		31.0	2.5	/experiments/knapen_aot/videos/R_S_yt-F2x6e7e7cAE_70.mp4	0.0	272.4351370334625	
33	105.27423000335693	movie	1		301.0	31.0	2.5	/experiments/knapen_aot/videos/R_S_yt-F2x6e7e7cAE_70.mp4	0.0	272.4433159828186	2.508389949798584
33	107.78261995315552	fix_post	2		12.0	31.0	2.5	/experiments/knapen_aot/videos/R_S_yt-F2x6e7e7cAE_70.mp4	0.0	274.9517059326172	0.10004711151123047
34	107.88266706466675	fix_pre	0		13.0	32.0	2.5	/experiments/knapen_aot/videos/R_S_yt-Gam0NeyyG8w_22.mp4	0.0	275.0517530441284	0.10821080207824707
34	107.98272800445557	response	0	2		32.0	2.5	/experiments/knapen_aot/videos/R_S_yt-Gam0NeyyG8w_22.mp4	0.0	275.15181398391724	
34	107.990877866745	movie	1		301.0	32.0	2.5	/experiments/knapen_aot/videos/R_S_yt-Gam0NeyyG8w_22.mp4	0.0	275.15996384620667	2.508258104324341
34	110.49913597106934	fix_post	2		12.0	32.0	2.5	/experiments/knapen_aot/videos/R_S_yt-Gam0NeyyG8w_22.mp4	0.0	277.668221950531	0.10010409355163574
35	110.59924006462097	fix_pre	0		21.0	33.0	2.5	blank	1.0	277.76832604408264	0.17493581771850586
35	110.76612997055054	response	0	2		33.0	2.5	blank	1.0	277.9352159500122	
35	110.77417588233948	movie	1		301.0	33.0	2.5	blank	1.0	277.94326186180115	2.5082950592041016
35	113.28247094154358	fix_post	2		12.0	33.0	2.5	blank	1.0	280.45155692100525	0.10005903244018555
36	113.38252997398376	fix_pre	0		35.0	34.0	2.5	/experiments/knapen_aot/videos/R_S_yt-y6zr69M0yHI_76.mp4	0.0	280.55161595344543	0.29163694381713867
36	113.66602897644043	response	0	2		34.0	2.5	/experiments/knapen_aot/videos/R_S_yt-y6zr69M0yHI_76.mp4	0.0	280.8351149559021	
36	113.6741669178009	movie	1		301.0	34.0	2.5	/experiments/knapen_aot/videos/R_S_yt-y6zr69M0yHI_76.mp4	0.0	280.8432528972626	2.5083601474761963
36	116.1825270652771	fix_post	2		12.0	34.0	2.5	/experiments/knapen_aot/videos/R_S_yt-y6zr69M0yHI_76.mp4	0.0	283.35161304473877	0.10000395774841309
37	116.28253102302551	fix_pre	0		441.0	35.0	2.5	/experiments/knapen_aot/videos/S_yt-kYMffy4hTMo_107.mp4	0.0	283.4516170024872	3.6756768226623535
37	119.94919800758362	response	0	2		35.0	2.5	/experiments/knapen_aot/videos/S_yt-kYMffy4hTMo_107.mp4	0.0	287.1182839870453	
37	119.95820784568787	movie	1		301.0	35.0	2.5	/experiments/knapen_aot/videos/S_yt-kYMffy4hTMo_107.mp4	0.0	287.12729382514954	2.507629156112671
37	122.46583700180054	fix_post	2		12.0	35.0	2.5	/experiments/knapen_aot/videos/S_yt-kYMffy4hTMo_107.mp4	0.0	289.6349229812622	0.0999908447265625
38	122.5658278465271	fix_pre	0		342.0	36.0	2.5	/experiments/knapen_aot/videos/S_yt-7e6Z9QQieAk_183.mp4	0.0	289.73491382598877	2.8506669998168945
38	125.40759205818176	response	0	2		36.0	2.5	/experiments/knapen_aot/videos/S_yt-7e6Z9QQieAk_183.mp4	0.0	292.57667803764343	
38	125.416494846344	movie	1		301.0	36.0	2.5	/experiments/knapen_aot/videos/S_yt-7e6Z9QQieAk_183.mp4	0.0	292.58558082580566	2.5077221393585205
38	127.92421698570251	fix_post	2		12.0	36.0	2.5	/experiments/knapen_aot/videos/S_yt-7e6Z9QQieAk_183.mp4	0.0	295.0933029651642	0.09998202323913574
39	128.02419900894165	fix_pre	0		112.0	37.0	2.5	/experiments/knapen_aot/videos/R_S_yt-LZS1RrEtTeQ_136.mp4	0.0	295.1932849884033	0.9339690208435059
39	128.94934606552124	response	0	2		37.0	2.5	/experiments/knapen_aot/videos/R_S_yt-LZS1RrEtTeQ_136.mp4	0.0	296.1184320449829	
39	128.95816802978516	movie	1		301.0	37.0	2.5	/experiments/knapen_aot/videos/R_S_yt-LZS1RrEtTeQ_136.mp4	0.0	296.1272540092468	2.5076708793640137
39	131.46583890914917	fix_post	2		12.0	37.0	2.5	/experiments/knapen_aot/videos/R_S_yt-LZS1RrEtTeQ_136.mp4	0.0	298.63492488861084	0.09996795654296875
40	131.56580686569214	fix_pre	0		33.0	38.0	2.5	/experiments/knapen_aot/videos/S_production_ID_5139371.mp4	0.0	298.7348928451538	0.2749941349029541
40	131.83264183998108	response	0	2		38.0	2.5	/experiments/knapen_aot/videos/S_production_ID_5139371.mp4	0.0	299.00172781944275	
40	131.8408010005951	movie	1		165.0	38.0	2.5	/experiments/knapen_aot/videos/S_production_ID_5139371.mp4	0.0	299.00988698005676	2.5083909034729004
40	134.349191904068	fix_post	2		12.0	38.0	2.5	/experiments/knapen_aot/videos/S_production_ID_5139371.mp4	0.0	301.51827788352966	0.09999799728393555
41	134.44918990135193	fix_pre	0		46.0	39.0	2.5	/experiments/knapen_aot/videos/S_yt-zgkJCgcT1s4_300.mp4	0.0	301.6182758808136	0.38391613960266113
41	134.81675601005554	response	0	2		39.0	2.5	/experiments/knapen_aot/videos/S_yt-zgkJCgcT1s4_300.mp4	0.0	301.9858419895172	
41	134.8331060409546	movie	1		301.0	39.0	2.5	/experiments/knapen_aot/videos/S_yt-zgkJCgcT1s4_300.mp4	0.0	302.00219202041626	2.507678985595703
41	137.3407850265503	fix_post	2		12.0	39.0	2.5	/experiments/knapen_aot/videos/S_yt-zgkJCgcT1s4_300.mp4	0.0	304.50987100601196	0.10003089904785156
42	137.44081592559814	fix_pre	0		47.0	40.0	2.5	/experiments/knapen_aot/videos/R_S_yt-W4Shvmb1JYs_258.mp4	0.0	304.6099019050598	0.3922770023345947
42	137.8243169784546	response	0	2		40.0	2.5	/experiments/knapen_aot/videos/R_S_yt-W4Shvmb1JYs_258.mp4	0.0	304.99340295791626	
42	137.83309292793274	movie	1		301.0	40.0	2.5	/experiments/knapen_aot/videos/R_S_yt-W4Shvmb1JYs_258.mp4	0.0	305.0021789073944	2.5076870918273926
42	140.34078001976013	fix_post	2		12.0	40.0	2.5	/experiments/knapen_aot/videos/R_S_yt-W4Shvmb1JYs_258.mp4	0.0	307.5098659992218	0.10003185272216797
43	140.4408118724823	fix_pre	0		29.0	41.0	2.5	blank	1.0	307.60989785194397	0.24168896675109863
43	140.67425990104675	response	0	2		41.0	2.5	blank	1.0	307.8433458805084	
43	140.6825008392334	movie	1		301.0	41.0	2.5	blank	1.0	307.85158681869507	2.5083260536193848
43	143.19082689285278	fix_post	2		12.0	41.0	2.5	blank	1.0	310.35991287231445	0.09999513626098633
44	143.29082202911377	fix_pre	0		27.0	42.0	2.5	/experiments/knapen_aot/videos/S_yt-BLmwmX-mni8_56.mp4	0.0	310.45990800857544	0.22496581077575684
44	143.50753784179688	response	0	2		42.0	2.5	/experiments/knapen_aot/videos/S_yt-BLmwmX-mni8_56.mp4	0.0	310.67662382125854	
44	143.51578783988953	movie	1		301.0	42.0	2.5	/experiments/knapen_aot/videos/S_yt-BLmwmX-mni8_56.mp4	0.0	310.6848738193512	2.5083041191101074
44	146.02409195899963	fix_post	2		12.0	42.0	2.5	/experiments/knapen_aot/videos/S_yt-BLmwmX-mni8_56.mp4	0.0	313.1931779384613	0.10058903694152832
45	146.12468099594116	fix_pre	0		63.0	43.0	2.5	/experiments/knapen_aot/videos/S_yt-M5qZo3CUXYE_27.mp4	0.0	313.29376697540283	0.5243499279022217
45	146.64082598686218	response	0	2		43.0	2.5	/experiments/knapen_aot/videos/S_yt-M5qZo3CUXYE_27.mp4	0.0	313.80991196632385	
45	146.64903092384338	movie	1		301.0	43.0	2.5	/experiments/knapen_aot/videos/S_yt-M5qZo3CUXYE_27.mp4	0.0	313.81811690330505	2.508402109146118
45	149.1574330329895	fix_post	2		12.0	43.0	2.5	/experiments/knapen_aot/videos/S_yt-M5qZo3CUXYE_27.mp4	0.0	316.3265190124512	0.10000991821289062
46	149.2574429512024	fix_pre	0		42.0	44.0	2.5	/experiments/knapen_aot/videos/S_pexels-c-technical-6809719.mp4	0.0	316.42652893066406	0.34995198249816895
46	149.5992238521576	response	0	2		44.0	2.5	/experiments/knapen_aot/videos/S_pexels-c-technical-6809719.mp4	0.0	316.76830983161926	
46	149.60739493370056	movie	1		183.0	44.0	2.5	/experiments/knapen_aot/videos/S_pexels-c-technical-6809719.mp4	0.0	316.77648091316223	2.5083940029144287
46	151.9908950328827	response	1	2		44.0	2.5	/experiments/knapen_aot/videos/S_pexels-c-technical-6809719.mp4	0.0	319.15998101234436	
46	152.115788936615	fix_post	2		12.0	44.0	2.5	/experiments/knapen_aot/videos/S_pexels-c-technical-6809719.mp4	0.0	319.28487491607666	0.09999704360961914
47	152.2157859802246	fix_pre	0		48.0	45.0	2.5	/experiments/knapen_aot/videos/S_ILSVRC2015_train_00610000.mp4	0.0	319.3848719596863	0.39994001388549805
47	152.6075599193573	response	0	2		45.0	2.5	/experiments/knapen_aot/videos/S_ILSVRC2015_train_00610000.mp4	0.0	319.77664589881897	
47	152.6157259941101	movie	1		298.0	45.0	2.5	/experiments/knapen_aot/videos/S_ILSVRC2015_train_00610000.mp4	0.0	319.7848119735718	2.5083069801330566
47	155.12403297424316	fix_post	2		12.0	45.0	2.5	/experiments/knapen_aot/videos/S_ILSVRC2015_train_00610000.mp4	0.0	322.29311895370483	0.10003805160522461
48	155.2240710258484	fix_pre	0		49.0	46.0	2.5	/experiments/knapen_aot/videos/S_yt-bWXohhodbjg_98.mp4	0.0	322.39315700531006	0.40831995010375977
48	155.6241810321808	response	0	2		46.0	2.5	/experiments/knapen_aot/videos/S_yt-bWXohhodbjg_98.mp4	0.0	322.79326701164246	
48	155.63239097595215	movie	1		301.0	46.0	2.5	/experiments/knapen_aot/videos/S_yt-bWXohhodbjg_98.mp4	0.0	322.8014769554138	2.508336067199707
48	158.14072704315186	fix_post	2		12.0	46.0	2.5	/experiments/knapen_aot/videos/S_yt-bWXohhodbjg_98.mp4	0.0	325.3098130226135	0.09999990463256836
49	158.24072694778442	fix_pre	0		38.0	47.0	2.5	/experiments/knapen_aot/videos/R_S_yt-GyMWMiWvuiA_237.mp4	0.0	325.4098129272461	0.316662073135376
49	158.54916405677795	response	0	2		47.0	2.5	/experiments/knapen_aot/videos/R_S_yt-GyMWMiWvuiA_237.mp4	0.0	325.7182500362396	
49	158.5573890209198	movie	1		301.0	47.0	2.5	/experiments/knapen_aot/videos/R_S_yt-GyMWMiWvuiA_237.mp4	0.0	325.72647500038147	2.5083398818969727
49	161.06572890281677	fix_post	2		12.0	47.0	2.5	/experiments/knapen_aot/videos/R_S_yt-GyMWMiWvuiA_237.mp4	0.0	328.23481488227844	0.09994697570800781
49	161.0673758983612	response	2	2		47.0	2.5	/experiments/knapen_aot/videos/R_S_yt-GyMWMiWvuiA_237.mp4	0.0	328.2364618778229	
50	161.16567587852478	fix_pre	0		102.0	48.0	2.5	blank	1.0	328.33476185798645	0.8499560356140137
50	162.0074589252472	response	0	2		48.0	2.5	blank	1.0	329.17654490470886	
50	162.0156319141388	movie	1		301.0	48.0	2.5	blank	1.0	329.18471789360046	2.508305072784424
50	164.52393698692322	fix_post	2		12.0	48.0	2.5	blank	1.0	331.6930229663849	0.10003495216369629
51	164.6239719390869	fix_pre	0		42.0	49.0	2.5	/experiments/knapen_aot/videos/R_S_yt-fnE8kgUHUMI_64.mp4	0.0	331.7930579185486	0.3499789237976074
51	164.96576189994812	response	0	2		49.0	2.5	/experiments/knapen_aot/videos/R_S_yt-fnE8kgUHUMI_64.mp4	0.0	332.1348478794098	
51	164.97395086288452	movie	1		299.0	49.0	2.5	/experiments/knapen_aot/videos/R_S_yt-fnE8kgUHUMI_64.mp4	0.0	332.1430368423462	2.508406162261963
51	167.48235702514648	fix_post	2		12.0	49.0	2.5	/experiments/knapen_aot/videos/R_S_yt-fnE8kgUHUMI_64.mp4	0.0	334.65144300460815	0.0999610424041748
52	167.58231806755066	fix_pre	0		42.0	50.0	2.5	/experiments/knapen_aot/videos/R_S_ILSVRC2015_train_00638000.mp4	0.0	334.75140404701233	0.35000085830688477
52	167.9165940284729	response	0	2		50.0	2.5	/experiments/knapen_aot/videos/R_S_ILSVRC2015_train_00638000.mp4	0.0	335.08568000793457	
52	167.93231892585754	movie	1		301.0	50.0	2.5	/experiments/knapen_aot/videos/R_S_ILSVRC2015_train_00638000.mp4	0.0	335.1014049053192	2.5083260536193848
52	170.249675989151	response	1	2		50.0	2.5	/experiments/knapen_aot/videos/R_S_ILSVRC2015_train_00638000.mp4	0.0	337.41876196861267	
52	170.44064497947693	fix_post	2		12.0	50.0	2.5	/experiments/knapen_aot/videos/R_S_ILSVRC2015_train_00638000.mp4	0.0	337.6097309589386	0.10001897811889648
53	170.54066395759583	fix_pre	0		121.0	51.0	2.5	/experiments/knapen_aot/videos/S_yt-CH4HfNRC1hY_40.mp4	0.0	337.7097499370575	1.0082769393920898
53	171.54075503349304	response	0	2		51.0	2.5	/experiments/knapen_aot/videos/S_yt-CH4HfNRC1hY_40.mp4	0.0	338.7098410129547	
53	171.54894089698792	movie	1		301.0	51.0	2.5	/experiments/knapen_aot/videos/S_yt-CH4HfNRC1hY_40.mp4	0.0	338.7180268764496	2.508376121520996
53	173.79916906356812	response	1	2		51.0	2.5	/experiments/knapen_aot/videos/S_yt-CH4HfNRC1hY_40.mp4	0.0	340.9682550430298	
53	174.0573170185089	fix_post	2		12.0	51.0	2.5	/experiments/knapen_aot/videos/S_yt-CH4HfNRC1hY_40.mp4	0.0	341.2264029979706	0.09995794296264648
54	174.15727496147156	fix_pre	0		39.0	52.0	2.5	/experiments/knapen_aot/videos/S_yt-YMI27rk5qUQ_117.mp4	0.0	341.3263609409332	0.32491588592529297
54	174.4740629196167	response	0	2		52.0	2.5	/experiments/knapen_aot/videos/S_yt-YMI27rk5qUQ_117.mp4	0.0	341.64314889907837	
54	174.48219084739685	movie	1		301.0	52.0	2.5	/experiments/knapen_aot/videos/S_yt-YMI27rk5qUQ_117.mp4	0.0	341.6512768268585	2.5084080696105957
54	176.99059891700745	fix_post	2		12.0	52.0	2.5	/experiments/knapen_aot/videos/S_yt-YMI27rk5qUQ_117.mp4	0.0	344.1596848964691	0.10000205039978027
55	177.09060096740723	fix_pre	0		168.0	53.0	2.5	/experiments/knapen_aot/videos/S_yt-X6ivH9SqGu8_306.mp4	0.0	344.2596869468689	1.3999130725860596
55	178.48243498802185	response	0	2		53.0	2.5	/experiments/knapen_aot/videos/S_yt-X6ivH9SqGu8_306.mp4	0.0	345.6515209674835	
55	178.4905140399933	movie	1		301.0	53.0	2.5	/experiments/knapen_aot/videos/S_yt-X6ivH9SqGu8_306.mp4	0.0	345.65960001945496	2.5083959102630615
55	180.99890995025635	fix_post	2		12.0	53.0	2.5	/experiments/knapen_aot/videos/S_yt-X6ivH9SqGu8_306.mp4	0.0	348.167995929718	0.10001111030578613
56	181.09892106056213	fix_pre	0		37.0	54.0	2.5	blank	1.0	348.2680070400238	0.30835485458374023
56	181.39908599853516	response	0	2		54.0	2.5	blank	1.0	348.5681719779968	
56	181.40727591514587	movie	1		301.0	54.0	2.5	blank	1.0	348.57636189460754	2.5082781314849854
56	183.91555404663086	fix_post	2		12.0	54.0	2.5	blank	1.0	351.08464002609253	0.10001993179321289
56	183.99901390075684	response	2	2		54.0	2.5	blank	1.0	351.1680998802185	
57	184.01557397842407	fix_pre	0		60.0	55.0	2.5	/experiments/knapen_aot/videos/R_S_yt-zlbtESb7Fcw_28.mp4	0.0	351.18465995788574	0.5000040531158447
57	184.5073208808899	response	0	2		55.0	2.5	/experiments/knapen_aot/videos/R_S_yt-zlbtESb7Fcw_28.mp4	0.0	351.67640686035156	
57	184.51557803153992	movie	1		301.0	55.0	2.5	/experiments/knapen_aot/videos/R_S_yt-zlbtESb7Fcw_28.mp4	0.0	351.6846640110016	2.508286952972412
57	187.02386498451233	fix_post	2		12.0	55.0	2.5	/experiments/knapen_aot/videos/R_S_yt-zlbtESb7Fcw_28.mp4	0.0	354.192950963974	0.10005807876586914
58	187.1239230632782	fix_pre	0		84.0	56.0	2.5	/experiments/knapen_aot/videos/R_S_ILSVRC2015_train_00423000.mp4	0.0	354.29300904273987	0.6999659538269043
58	187.81563997268677	response	0	2		56.0	2.5	/experiments/knapen_aot/videos/R_S_ILSVRC2015_train_00423000.mp4	0.0	354.98472595214844	
58	187.8238890171051	movie	1		301.0	56.0	2.5	/experiments/knapen_aot/videos/R_S_ILSVRC2015_train_00423000.mp4	0.0	354.9929749965668	2.50834584236145
58	190.33223485946655	fix_post	2		12.0	56.0	2.5	/experiments/knapen_aot/videos/R_S_ILSVRC2015_train_00423000.mp4	0.0	357.5013208389282	0.10005402565002441
59	190.43228888511658	fix_pre	0		48.0	57.0	2.5	/experiments/knapen_aot/videos/S_yt-Xs-YKSogfak_24.mp4	0.0	357.60137486457825	0.40048718452453613
59	190.82404899597168	response	0	2		57.0	2.5	/experiments/knapen_aot/videos/S_yt-Xs-YKSogfak_24.mp4	0.0	357.99313497543335	
59	190.8327760696411	movie	1		301.0	57.0	2.5	/experiments/knapen_aot/videos/S_yt-Xs-YKSogfak_24.mp4	0.0	358.0018620491028	2.507797956466675
59	193.3405740261078	fix_post	2		12.0	57.0	2.5	/experiments/knapen_aot/videos/S_yt-Xs-YKSogfak_24.mp4	0.0	360.50966000556946	0.09989500045776367
60	193.44046902656555	fix_pre	0		70.0	58.0	2.5	/experiments/knapen_aot/videos/S_yt-kAUL5o7i5mo_116.mp4	0.0	360.6095550060272	0.5833718776702881
60	194.0156750679016	response	0	2		58.0	2.5	/experiments/knapen_aot/videos/S_yt-kAUL5o7i5mo_116.mp4	0.0	361.1847610473633	
60	194.02384090423584	movie	1		301.0	58.0	2.5	/experiments/knapen_aot/videos/S_yt-kAUL5o7i5mo_116.mp4	0.0	361.1929268836975	2.508316993713379
60	196.53215789794922	fix_post	2		12.0	58.0	2.5	/experiments/knapen_aot/videos/S_yt-kAUL5o7i5mo_116.mp4	0.0	363.7012438774109	0.0999901294708252
61	196.63214802742004	fix_pre	0		53.0	59.0	2.5	/experiments/knapen_aot/videos/S_yt-9t5-3Qe_t9A_591.mp4	0.0	363.8012340068817	0.44165992736816406
61	197.06562685966492	response	0	2		59.0	2.5	/experiments/knapen_aot/videos/S_yt-9t5-3Qe_t9A_591.mp4	0.0	364.2347128391266	
61	197.0738079547882	movie	1		301.0	59.0	2.5	/experiments/knapen_aot/videos/S_yt-9t5-3Qe_t9A_591.mp4	0.0	364.2428939342499	2.508371114730835
61	199.58217906951904	fix_post	2		12.0	59.0	2.5	/experiments/knapen_aot/videos/S_yt-9t5-3Qe_t9A_591.mp4	0.0	366.7512650489807	0.0999898910522461
62	199.6821689605713	fix_pre	0		48.0	60.0	2.5	/experiments/knapen_aot/videos/R_S_yt-JDHApyT5ngs_128.mp4	0.0	366.85125494003296	0.40034008026123047
62	200.07390904426575	response	0	2		60.0	2.5	/experiments/knapen_aot/videos/R_S_yt-JDHApyT5ngs_128.mp4	0.0	367.2429950237274	
62	200.08250904083252	movie	1		301.0	60.0	2.5	/experiments/knapen_aot/videos/R_S_yt-JDHApyT5ngs_128.mp4	0.0	367.2515950202942	2.508021831512451
62	202.1322569847107	response	1	2		60.0	2.5	/experiments/knapen_aot/videos/R_S_yt-JDHApyT5ngs_128.mp4	0.0	369.30134296417236	
62	202.59053087234497	fix_post	2		12.0	60.0	2.5	/experiments/knapen_aot/videos/R_S_yt-JDHApyT5ngs_128.mp4	0.0	369.75961685180664	0.09986996650695801
63	202.69040083885193	fix_pre	0		53.0	61.0	2.5	/experiments/knapen_aot/videos/R_S_yt-lEPoNlKWibA_1.mp4	0.0	369.8594868183136	0.441723108291626
63	203.12394189834595	response	0	2		61.0	2.5	/experiments/knapen_aot/videos/R_S_yt-lEPoNlKWibA_1.mp4	0.0	370.2930278778076	
63	203.13212394714355	movie	1		301.0	61.0	2.5	/experiments/knapen_aot/videos/R_S_yt-lEPoNlKWibA_1.mp4	0.0	370.3012099266052	2.5083279609680176
63	205.39063906669617	response	1	2		61.0	2.5	/experiments/knapen_aot/videos/R_S_yt-lEPoNlKWibA_1.mp4	0.0	372.55972504615784	
63	205.64045190811157	fix_post	2		12.0	61.0	2.5	/experiments/knapen_aot/videos/R_S_yt-lEPoNlKWibA_1.mp4	0.0	372.80953788757324	0.10005807876586914
64	205.74050998687744	fix_pre	0		328.0	62.0	2.5	blank	1.0	372.9095959663391	2.73327898979187
64	208.4580099582672	response	0	2		62.0	2.5	blank	1.0	375.6270959377289	
64	208.4737889766693	movie	1		301.0	62.0	2.5	blank	1.0	375.642874956131	2.5083658695220947
64	209.8322160243988	response	1	2		62.0	2.5	blank	1.0	377.0013020038605	
64	210.79885601997375	response	1	2		62.0	2.5	blank	1.0	377.9679419994354	
64	210.9821548461914	fix_post	2		12.0	62.0	2.5	blank	1.0	378.1512408256531	0.10019207000732422
65	211.08234691619873	fix_pre	0		32.0	63.0	2.5	/experiments/knapen_aot/videos/R_S_82eJpVKGnC0_188.mp4	0.0	378.2514328956604	0.26641201972961426
65	211.34056305885315	response	0	2		63.0	2.5	/experiments/knapen_aot/videos/R_S_82eJpVKGnC0_188.mp4	0.0	378.5096490383148	
65	211.34875893592834	movie	1		301.0	63.0	2.5	/experiments/knapen_aot/videos/R_S_82eJpVKGnC0_188.mp4	0.0	378.51784491539	2.508327007293701
65	213.85708594322205	fix_post	2		12.0	63.0	2.5	/experiments/knapen_aot/videos/R_S_82eJpVKGnC0_188.mp4	0.0	381.0261719226837	0.10024404525756836
66	213.95732998847961	fix_pre	0		29.0	64.0	2.5	/experiments/knapen_aot/videos/S_yt-zhQ32_OayBQ_39.mp4	0.0	381.1264159679413	0.24142003059387207
66	214.19062399864197	response	0	2		64.0	2.5	/experiments/knapen_aot/videos/S_yt-zhQ32_OayBQ_39.mp4	0.0	381.35970997810364	
66	214.1987500190735	movie	1		301.0	64.0	2.5	/experiments/knapen_aot/videos/S_yt-zhQ32_OayBQ_39.mp4	0.0	381.36783599853516	2.508561849594116
66	216.7073118686676	fix_post	2		12.0	64.0	2.5	/experiments/knapen_aot/videos/S_yt-zhQ32_OayBQ_39.mp4	0.0	383.8763978481293	0.09987020492553711
67	216.80718207359314	fix_pre	0		37.0	65.0	2.5	/experiments/knapen_aot/videos/S_production_ID_4802712.mp4	0.0	383.9762680530548	0.30822086334228516
67	217.09971594810486	response	0	2		65.0	2.5	/experiments/knapen_aot/videos/S_production_ID_4802712.mp4	0.0	384.2688019275665	
67	217.11540293693542	movie	1		164.0	65.0	2.5	/experiments/knapen_aot/videos/S_production_ID_4802712.mp4	0.0	384.2844889163971	2.508415937423706
67	219.62381887435913	fix_post	2		12.0	65.0	2.5	/experiments/knapen_aot/videos/S_production_ID_4802712.mp4	0.0	386.7929048538208	0.09999513626098633
68	219.72381401062012	fix_pre	0		42.0	66.0	2.5	/experiments/knapen_aot/videos/R_S_bing-www_yahoo_com_entertainment_anastasia-karanikolaou-chantel-jeffries-discuss-182400502_html_9.mp4	0.0	386.8928999900818	0.3500030040740967
68	220.06559801101685	response	0	2		66.0	2.5	/experiments/knapen_aot/videos/R_S_bing-www_yahoo_com_entertainment_anastasia-karanikolaou-chantel-jeffries-discuss-182400502_html_9.mp4	0.0	387.2346839904785	
68	220.0738170146942	movie	1		165.0	66.0	2.5	/experiments/knapen_aot/videos/R_S_bing-www_yahoo_com_entertainment_anastasia-karanikolaou-chantel-jeffries-discuss-182400502_html_9.mp4	0.0	387.2429029941559	2.508453845977783
68	222.582270860672	fix_post	2		12.0	66.0	2.5	/experiments/knapen_aot/videos/R_S_bing-www_yahoo_com_entertainment_anastasia-karanikolaou-chantel-jeffries-discuss-182400502_html_9.mp4	0.0	389.75135684013367	0.09983515739440918
69	222.6821060180664	fix_pre	0		18.0	67.0	2.5	/experiments/knapen_aot/videos/S_yt-JDHApyT5ngs_128.mp4	0.0	389.8511919975281	0.15008997917175293
69	222.82391095161438	response	0	2		67.0	2.5	/experiments/knapen_aot/videos/S_yt-JDHApyT5ngs_128.mp4	0.0	389.99299693107605	
69	222.83219599723816	movie	1		301.0	67.0	2.5	/experiments/knapen_aot/videos/S_yt-JDHApyT5ngs_128.mp4	0.0	390.00128197669983	2.508220911026001
69	225.34041690826416	fix_post	2		12.0	67.0	2.5	/experiments/knapen_aot/videos/S_yt-JDHApyT5ngs_128.mp4	0.0	392.50950288772583	0.1000051498413086
69	225.34212183952332	response	2	2		67.0	2.5	/experiments/knapen_aot/videos/S_yt-JDHApyT5ngs_128.mp4	0.0	392.511207818985	
70	225.44042205810547	fix_pre	0		186.0	68.0	2.5	/experiments/knapen_aot/videos/S_yt-zgkJCgcT1s4_300.mp4	0.0	392.60950803756714	1.5499229431152344
70	226.98220586776733	response	0	2		68.0	2.5	/experiments/knapen_aot/videos/S_yt-zgkJCgcT1s4_300.mp4	0.0	394.151291847229	
70	226.9903450012207	movie	1		301.0	68.0	2.5	/experiments/knapen_aot/videos/S_yt-zgkJCgcT1s4_300.mp4	0.0	394.1594309806824	2.5083868503570557
70	229.49873185157776	fix_post	2		12.0	68.0	2.5	/experiments/knapen_aot/videos/S_yt-zgkJCgcT1s4_300.mp4	0.0	396.66781783103943	0.09998703002929688
71	229.59871888160706	fix_pre	0		27.0	69.0	2.5	blank	1.0	396.7678048610687	0.22505903244018555
71	229.81554102897644	response	0	2		69.0	2.5	blank	1.0	396.9846270084381	
71	229.82377791404724	movie	1		301.0	69.0	2.5	blank	1.0	396.9928638935089	2.5084171295166016
71	231.86541604995728	response	1	2		69.0	2.5	blank	1.0	399.03450202941895	
71	232.33219504356384	fix_post	2		12.0	69.0	2.5	blank	1.0	399.5012810230255	0.09976601600646973
72	232.4319610595703	fix_pre	0		41.0	70.0	2.5	/experiments/knapen_aot/videos/R_S_yt-cBCeq1NQgj0_1129.mp4	0.0	399.601047039032	0.3500969409942627
72	232.7654960155487	response	0	2		70.0	2.5	/experiments/knapen_aot/videos/R_S_yt-cBCeq1NQgj0_1129.mp4	0.0	399.9345819950104	
72	232.78205800056458	movie	1		300.0	70.0	2.5	/experiments/knapen_aot/videos/R_S_yt-cBCeq1NQgj0_1129.mp4	0.0	399.95114398002625	2.499937057495117
72	235.2819950580597	fix_post	2		12.0	70.0	2.5	/experiments/knapen_aot/videos/R_S_yt-cBCeq1NQgj0_1129.mp4	0.0	402.45108103752136	0.09994101524353027
73	235.38193607330322	fix_pre	0		36.0	71.0	2.5	/experiments/knapen_aot/videos/R_S_PA_A004_C003_SDR_20190719_SDR_2K_AVC.mp4	0.0	402.5510220527649	0.30004286766052246
73	235.67378902435303	response	0	2		71.0	2.5	/experiments/knapen_aot/videos/R_S_PA_A004_C003_SDR_20190719_SDR_2K_AVC.mp4	0.0	402.8428750038147	
73	235.68197894096375	movie	1		180.0	71.0	2.5	/experiments/knapen_aot/videos/R_S_PA_A004_C003_SDR_20190719_SDR_2K_AVC.mp4	0.0	402.8510649204254	2.508419990539551
73	237.80610489845276	response	1	2		71.0	2.5	/experiments/knapen_aot/videos/R_S_PA_A004_C003_SDR_20190719_SDR_2K_AVC.mp4	0.0	404.97519087791443	
73	238.1903989315033	fix_post	2		12.0	71.0	2.5	/experiments/knapen_aot/videos/R_S_PA_A004_C003_SDR_20190719_SDR_2K_AVC.mp4	0.0	405.35948491096497	0.10017204284667969
74	238.29057097434998	fix_pre	0		37.0	72.0	2.5	/experiments/knapen_aot/videos/R_S_yt-zlbtESb7Fcw_28.mp4	0.0	405.45965695381165	0.30808186531066895
74	238.59044694900513	response	0	2		72.0	2.5	/experiments/knapen_aot/videos/R_S_yt-zlbtESb7Fcw_28.mp4	0.0	405.7595329284668	
74	238.59865283966064	movie	1		301.0	72.0	2.5	/experiments/knapen_aot/videos/R_S_yt-zlbtESb7Fcw_28.mp4	0.0	405.7677388191223	2.508296012878418
74	239.3521649837494	response	1	2		72.0	2.5	/experiments/knapen_aot/videos/R_S_yt-zlbtESb7Fcw_28.mp4	0.0	406.52125096321106	
74	241.10694885253906	fix_post	2		12.0	72.0	2.5	/experiments/knapen_aot/videos/R_S_yt-zlbtESb7Fcw_28.mp4	0.0	408.27603483200073	0.10016417503356934
75	241.20711302757263	fix_pre	0		30.0	73.0	2.5	/experiments/knapen_aot/videos/R_S_ILSVRC2015_train_00473001.mp4	0.0	408.3761990070343	0.24996185302734375
75	241.44874787330627	response	0	2		73.0	2.5	/experiments/knapen_aot/videos/R_S_ILSVRC2015_train_00473001.mp4	0.0	408.61783385276794	
75	241.45707488059998	movie	1		299.0	73.0	2.5	/experiments/knapen_aot/videos/R_S_ILSVRC2015_train_00473001.mp4	0.0	408.62616086006165	2.5083069801330566
75	243.96538186073303	fix_post	2		12.0	73.0	2.5	/experiments/knapen_aot/videos/R_S_ILSVRC2015_train_00473001.mp4	0.0	411.1344678401947	0.09993600845336914
76	244.0653178691864	fix_pre	0		49.0	74.0	2.5	/experiments/knapen_aot/videos/S_yt-cBCeq1NQgj0_1129.mp4	0.0	411.23440384864807	0.40832018852233887
76	244.4654619693756	response	0	2		74.0	2.5	/experiments/knapen_aot/videos/S_yt-cBCeq1NQgj0_1129.mp4	0.0	411.6345479488373	
76	244.47363805770874	movie	1		301.0	74.0	2.5	/experiments/knapen_aot/videos/S_yt-cBCeq1NQgj0_1129.mp4	0.0	411.6427240371704	2.5082600116729736
76	246.9818980693817	fix_post	2		12.0	74.0	2.5	/experiments/knapen_aot/videos/S_yt-cBCeq1NQgj0_1129.mp4	0.0	414.1509840488434	0.10015082359313965
77	247.08204889297485	fix_pre	0		52.0	75.0	2.5	/experiments/knapen_aot/videos/S_production_ID_4325516.mp4	0.0	414.2511348724365	0.4332880973815918
77	247.50713801383972	response	0	2		75.0	2.5	/experiments/knapen_aot/videos/S_production_ID_4325516.mp4	0.0	414.6762239933014	
77	247.51533699035645	movie	1		214.0	75.0	2.5	/experiments/knapen_aot/videos/S_production_ID_4325516.mp4	0.0	414.6844229698181	2.5082828998565674
77	250.023619890213	fix_post	2		12.0	75.0	2.5	/experiments/knapen_aot/videos/S_production_ID_4325516.mp4	0.0	417.1927058696747	0.10010313987731934
78	250.12372303009033	fix_pre	0		69.0	76.0	2.5	blank	1.0	417.292809009552	0.5748128890991211
78	250.69039797782898	response	0	2		76.0	2.5	blank	1.0	417.85948395729065	
78	250.69853591918945	movie	1		301.0	76.0	2.5	blank	1.0	417.8676218986511	2.5084309577941895
78	253.20696687698364	fix_post	2		12.0	76.0	2.5	blank	1.0	420.3760528564453	0.09994816780090332
79	253.30691504478455	fix_pre	0		57.0	77.0	2.5	/experiments/knapen_aot/videos/S_yt-3EZOeAbiMQE_10.mp4	0.0	420.4760010242462	0.47499990463256836
79	253.77374386787415	response	0	2		77.0	2.5	/experiments/knapen_aot/videos/S_yt-3EZOeAbiMQE_10.mp4	0.0	420.9428298473358	
79	253.78191494941711	movie	1		300.0	77.0	2.5	/experiments/knapen_aot/videos/S_yt-3EZOeAbiMQE_10.mp4	0.0	420.9510009288788	2.5084290504455566
79	256.29034399986267	fix_post	2		12.0	77.0	2.5	/experiments/knapen_aot/videos/S_yt-3EZOeAbiMQE_10.mp4	0.0	423.45942997932434	0.09993505477905273
80	256.3902790546417	fix_pre	0		44.0	78.0	2.5	/experiments/knapen_aot/videos/R_S_production_ID_4325516.mp4	0.0	423.5593650341034	0.3666269779205322
80	256.74124097824097	response	0	2		78.0	2.5	/experiments/knapen_aot/videos/R_S_production_ID_4325516.mp4	0.0	423.91032695770264	
80	256.75690603256226	movie	1		194.0	78.0	2.5	/experiments/knapen_aot/videos/R_S_production_ID_4325516.mp4	0.0	423.9259920120239	2.508378028869629
80	259.2652840614319	fix_post	2		12.0	78.0	2.5	/experiments/knapen_aot/videos/R_S_production_ID_4325516.mp4	0.0	426.43437004089355	0.10000991821289062
81	259.3652939796448	fix_pre	0		313.0	79.0	2.5	/experiments/knapen_aot/videos/R_S_wc-TAGpcap1KdAS_212.mp4	0.0	426.53437995910645	2.608262062072754
81	261.9654109477997	response	0	2		79.0	2.5	/experiments/knapen_aot/videos/R_S_wc-TAGpcap1KdAS_212.mp4	0.0	429.13449692726135	
81	261.97355604171753	movie	1		301.0	79.0	2.5	/experiments/knapen_aot/videos/R_S_wc-TAGpcap1KdAS_212.mp4	0.0	429.1426420211792	2.5083110332489014
81	264.48186707496643	fix_post	2		12.0	79.0	2.5	/experiments/knapen_aot/videos/R_S_wc-TAGpcap1KdAS_212.mp4	0.0	431.6509530544281	0.1000359058380127
82	264.58190298080444	fix_pre	0		292.0	80.0	2.5	/experiments/knapen_aot/videos/S_b8-2.mp4	0.0	431.7509889602661	2.4333369731903076
82	267.0070769786835	response	0	2		80.0	2.5	/experiments/knapen_aot/videos/S_b8-2.mp4	0.0	434.17616295814514	
82	267.01523995399475	movie	1		166.0	80.0	2.5	/experiments/knapen_aot/videos/S_b8-2.mp4	0.0	434.1843259334564	2.508225917816162
82	268.86543107032776	response	1	2		80.0	2.5	/experiments/knapen_aot/videos/S_b8-2.mp4	0.0	436.03451704978943	
82	269.5234658718109	fix_post	2		12.0	80.0	2.5	/experiments/knapen_aot/videos/S_b8-2.mp4	0.0	436.6925518512726	0.10007405281066895
83	269.6235399246216	fix_pre	0		80.0	81.0	2.5	/experiments/knapen_aot/videos/S_yt-MhW2fU45JK8_544.mp4	0.0	436.79262590408325	0.6749920845031738
83	270.2903699874878	response	0	2		81.0	2.5	/experiments/knapen_aot/videos/S_yt-MhW2fU45JK8_544.mp4	0.0	437.45945596694946	
83	270.29853200912476	movie	1		301.0	81.0	2.5	/experiments/knapen_aot/videos/S_yt-MhW2fU45JK8_544.mp4	0.0	437.4676179885864	2.5083909034729004
83	272.80692291259766	fix_post	2		12.0	81.0	2.5	/experiments/knapen_aot/videos/S_yt-MhW2fU45JK8_544.mp4	0.0	439.9760088920593	0.10001206398010254
84	272.90693497657776	fix_pre	0		31.0	82.0	2.5	/experiments/knapen_aot/videos/S_yt--Ou506YF3mY_106.mp4	0.0	440.07602095603943	0.25835299491882324
84	273.15706396102905	response	0	2		82.0	2.5	/experiments/knapen_aot/videos/S_yt--Ou506YF3mY_106.mp4	0.0	440.3261499404907	
84	273.1652879714966	movie	1		301.0	82.0	2.5	/experiments/knapen_aot/videos/S_yt--Ou506YF3mY_106.mp4	0.0	440.33437395095825	2.508294105529785
84	275.67358207702637	fix_post	2		12.0	82.0	2.5	/experiments/knapen_aot/videos/S_yt--Ou506YF3mY_106.mp4	0.0	442.84266805648804	0.09994387626647949
85	275.77352595329285	fix_pre	0		67.0	83.0	2.5	blank	1.0	442.9426119327545	0.5583419799804688
85	276.32368302345276	response	0	2		83.0	2.5	blank	1.0	443.49276900291443	
85	276.3318679332733	movie	1		301.0	83.0	2.5	blank	1.0	443.500953912735	2.508305072784424
85	277.04861402511597	response	1	2		83.0	2.5	blank	1.0	444.21770000457764	
85	277.71527886390686	response	1	2		83.0	2.5	blank	1.0	444.88436484336853	
85	278.84017300605774	fix_post	2		12.0	83.0	2.5	blank	1.0	446.0092589855194	0.09992098808288574
87	278.9400939941406	stim	0		100.0					446.1091799736023	0.836082935333252
87	279.2402980327606	response	0	2						446.4093840122223	
87	279.76898884773254	response	0	space						446.9380748271942	
