trial_nr	onset	event_type	phase	response	nr_frames	movie_index	movie_duration	movie_file	blank	onset_abs	duration
0	0.1593787670135498	stim	0		15.0					50.56941080093384	0.1247100830078125
0	0.27499985694885254	response	0	space						50.68503189086914	
1	0.2840888500213623	stim	0		121.0					50.69412088394165	1.0071349143981934
1	0.8165719509124756	response	0	space						51.226603984832764	
1	1.199981927871704	response	0	space						51.61001396179199	
1	1.2912237644195557	stim	1		120.0					51.701255798339844	1.0000030994415283
1	1.6746199131011963	response	1	space						52.084651947021484	
1	2.007924795150757	response	1	space						52.417956829071045	
2	2.291226863861084	fix_pre	0		6.0	0.0	2.5	/experiments/knapen_aot/oldvideos/R_S_SE_A016_C009_SDR_20190717_SDR_2K_AVC.mp4	0.0	52.70125889778137	0.04999399185180664
2	2.3329358100891113	response	0	space		0.0	2.5	/experiments/knapen_aot/oldvideos/R_S_SE_A016_C009_SDR_20190717_SDR_2K_AVC.mp4	0.0	52.7429678440094	
2	2.3412208557128906	movie	1		163.0	0.0	2.5	/experiments/knapen_aot/oldvideos/R_S_SE_A016_C009_SDR_20190717_SDR_2K_AVC.mp4	0.0	52.75125288963318	2.508347988128662
2	4.849568843841553	fix_post	2		12.0	0.0	2.5	/experiments/knapen_aot/oldvideos/R_S_SE_A016_C009_SDR_20190717_SDR_2K_AVC.mp4	0.0	55.25960087776184	0.0999441146850586
3	4.949512958526611	fix_pre	0		6.0	1.0	2.5	/experiments/knapen_aot/oldvideos/R_S_yt-BiBS8EO5GPc_4.mp4	0.0	55.3595449924469	0.04999899864196777
3	4.992492914199829	response	0	2		1.0	2.5	/experiments/knapen_aot/oldvideos/R_S_yt-BiBS8EO5GPc_4.mp4	0.0	55.40252494812012	
3	4.999511957168579	movie	1		301.0	1.0	2.5	/experiments/knapen_aot/oldvideos/R_S_yt-BiBS8EO5GPc_4.mp4	0.0	55.40954399108887	2.508391857147217
3	7.507903814315796	fix_post	2		12.0	1.0	2.5	/experiments/knapen_aot/oldvideos/R_S_yt-BiBS8EO5GPc_4.mp4	0.0	57.917935848236084	0.09989809989929199
3	7.591205835342407	response	2	2		1.0	2.5	/experiments/knapen_aot/oldvideos/R_S_yt-BiBS8EO5GPc_4.mp4	0.0	58.001237869262695	
4	7.607801914215088	fix_pre	0		36.0	2.0	2.5	/experiments/knapen_aot/oldvideos/S_ILSVRC2015_train_00521000.mp4	0.0	58.017833948135376	0.3011949062347412
4	7.899634838104248	response	0	2		2.0	2.5	/experiments/knapen_aot/oldvideos/S_ILSVRC2015_train_00521000.mp4	0.0	58.309666872024536	
4	7.908996820449829	movie	1		301.0	2.0	2.5	/experiments/knapen_aot/oldvideos/S_ILSVRC2015_train_00521000.mp4	0.0	58.31902885437012	2.5071840286254883
4	10.416180849075317	fix_post	2		12.0	2.0	2.5	/experiments/knapen_aot/oldvideos/S_ILSVRC2015_train_00521000.mp4	0.0	60.826212882995605	0.1000051498413086
5	10.516185998916626	fix_pre	0		9.0	3.0	2.5	/experiments/knapen_aot/oldvideos/S_yt-M_ApPnq00iE_67.mp4	0.0	60.926218032836914	0.07495784759521484
5	10.582925796508789	response	0	2		3.0	2.5	/experiments/knapen_aot/oldvideos/S_yt-M_ApPnq00iE_67.mp4	0.0	60.99295783042908	
5	10.59114384651184	movie	1		301.0	3.0	2.5	/experiments/knapen_aot/oldvideos/S_yt-M_ApPnq00iE_67.mp4	0.0	61.00117588043213	2.5083601474761963
5	13.099503993988037	fix_post	2		12.0	3.0	2.5	/experiments/knapen_aot/oldvideos/S_yt-M_ApPnq00iE_67.mp4	0.0	63.509536027908325	0.09999394416809082
6	13.199497938156128	fix_pre	0		12.0	4.0	2.5	/experiments/knapen_aot/oldvideos/R_S_comp_GL_G004_C010_PSNK_v04_SDR_PS_FINAL_20180709_SDR_2K_AVC.mp4	0.0	63.609529972076416	0.1000669002532959
6	13.291321992874146	response	0	2		4.0	2.5	/experiments/knapen_aot/oldvideos/R_S_comp_GL_G004_C010_PSNK_v04_SDR_PS_FINAL_20180709_SDR_2K_AVC.mp4	0.0	63.701354026794434	
6	13.299564838409424	movie	1		166.0	4.0	2.5	/experiments/knapen_aot/oldvideos/R_S_comp_GL_G004_C010_PSNK_v04_SDR_PS_FINAL_20180709_SDR_2K_AVC.mp4	0.0	63.70959687232971	2.5083730220794678
6	15.807937860488892	fix_post	2		12.0	4.0	2.5	/experiments/knapen_aot/oldvideos/R_S_comp_GL_G004_C010_PSNK_v04_SDR_PS_FINAL_20180709_SDR_2K_AVC.mp4	0.0	66.21796989440918	0.09987711906433105
7	15.907814979553223	fix_pre	0		1.0	5.0	2.5	/experiments/knapen_aot/oldvideos/S_yt-GBt59U0KUR0_6.mp4	0.0	66.31784701347351	0.008275985717773438
7	15.909495830535889	response	0	2		5.0	2.5	/experiments/knapen_aot/oldvideos/S_yt-GBt59U0KUR0_6.mp4	0.0	66.31952786445618	
7	15.916090965270996	movie	1		301.0	5.0	2.5	/experiments/knapen_aot/oldvideos/S_yt-GBt59U0KUR0_6.mp4	0.0	66.32612299919128	2.508370876312256
7	18.424461841583252	fix_post	2		12.0	5.0	2.5	/experiments/knapen_aot/oldvideos/S_yt-GBt59U0KUR0_6.mp4	0.0	68.83449387550354	0.1000361442565918
8	18.524497985839844	fix_pre	0		13.0	6.0	2.5	/experiments/knapen_aot/oldvideos/S_yt-XYULt48onn4_6.mp4	0.0	68.93453001976013	0.10828900337219238
8	18.624578952789307	response	0	2		6.0	2.5	/experiments/knapen_aot/oldvideos/S_yt-XYULt48onn4_6.mp4	0.0	69.0346109867096	
8	18.632786989212036	movie	1		301.0	6.0	2.5	/experiments/knapen_aot/oldvideos/S_yt-XYULt48onn4_6.mp4	0.0	69.04281902313232	2.508366823196411
8	21.141153812408447	fix_post	2		12.0	6.0	2.5	/experiments/knapen_aot/oldvideos/S_yt-XYULt48onn4_6.mp4	0.0	71.55118584632874	0.10010218620300293
9	21.24125599861145	fix_pre	0		11.0	7.0	2.5	blank	1.0	71.65128803253174	0.0915827751159668
9	21.317161798477173	response	0	2		7.0	2.5	blank	1.0	71.72719383239746	
9	21.332838773727417	movie	1		301.0	7.0	2.5	blank	1.0	71.7428708076477	2.5083320140838623
9	23.84117078781128	fix_post	2		12.0	7.0	2.5	blank	1.0	74.25120282173157	0.09993720054626465
10	23.941107988357544	fix_pre	0		22.0	8.0	2.5	/experiments/knapen_aot/oldvideos/S_yt-ujTY1igjc3E_2.mp4	0.0	74.35114002227783	0.1833178997039795
10	24.116180896759033	response	0	2		8.0	2.5	/experiments/knapen_aot/oldvideos/S_yt-ujTY1igjc3E_2.mp4	0.0	74.52621293067932	
10	24.124425888061523	movie	1		301.0	8.0	2.5	/experiments/knapen_aot/oldvideos/S_yt-ujTY1igjc3E_2.mp4	0.0	74.53445792198181	2.5082850456237793
10	26.632710933685303	fix_post	2		12.0	8.0	2.5	/experiments/knapen_aot/oldvideos/S_yt-ujTY1igjc3E_2.mp4	0.0	77.04274296760559	0.10006403923034668
11	26.73277497291565	fix_pre	0		4.0	9.0	2.5	/experiments/knapen_aot/oldvideos/R_S_yt-kA0ybjmoiMc_284.mp4	0.0	77.14280700683594	0.033296823501586914
11	26.757842779159546	response	0	2		9.0	2.5	/experiments/knapen_aot/oldvideos/R_S_yt-kA0ybjmoiMc_284.mp4	0.0	77.16787481307983	
11	26.766071796417236	movie	1		301.0	9.0	2.5	/experiments/knapen_aot/oldvideos/R_S_yt-kA0ybjmoiMc_284.mp4	0.0	77.17610383033752	2.508445978164673
11	29.27451777458191	fix_post	2		12.0	9.0	2.5	/experiments/knapen_aot/oldvideos/R_S_yt-kA0ybjmoiMc_284.mp4	0.0	79.6845498085022	0.09993910789489746
12	29.374456882476807	fix_pre	0		21.0	10.0	2.5	/experiments/knapen_aot/oldvideos/S_yt-82O1uT8dmv8_12.mp4	0.0	79.7844889163971	0.17491698265075684
12	29.54121494293213	response	0	2		10.0	2.5	/experiments/knapen_aot/oldvideos/S_yt-82O1uT8dmv8_12.mp4	0.0	79.95124697685242	
12	29.549373865127563	movie	1		301.0	10.0	2.5	/experiments/knapen_aot/oldvideos/S_yt-82O1uT8dmv8_12.mp4	0.0	79.95940589904785	2.508402109146118
12	32.05777597427368	fix_post	2		12.0	10.0	2.5	/experiments/knapen_aot/oldvideos/S_yt-82O1uT8dmv8_12.mp4	0.0	82.46780800819397	0.10021686553955078
13	32.15799283981323	fix_pre	0		4.0	11.0	2.5	/experiments/knapen_aot/oldvideos/R_S_yt-g_CLzrCYHoc_7.mp4	0.0	82.56802487373352	0.0330660343170166
13	32.18286180496216	response	0	2		11.0	2.5	/experiments/knapen_aot/oldvideos/R_S_yt-g_CLzrCYHoc_7.mp4	0.0	82.59289383888245	
13	32.19105887413025	movie	1		301.0	11.0	2.5	/experiments/knapen_aot/oldvideos/R_S_yt-g_CLzrCYHoc_7.mp4	0.0	82.60109090805054	2.508441925048828
13	34.69950079917908	fix_post	2		12.0	11.0	2.5	/experiments/knapen_aot/oldvideos/R_S_yt-g_CLzrCYHoc_7.mp4	0.0	85.10953283309937	0.09991312026977539
14	34.79941391944885	fix_pre	0		12.0	12.0	2.5	/experiments/knapen_aot/oldvideos/S_yt-d5jBQ-LOW2I_17.mp4	0.0	85.20944595336914	0.0999610424041748
14	34.89117479324341	response	0	2		12.0	2.5	/experiments/knapen_aot/oldvideos/S_yt-d5jBQ-LOW2I_17.mp4	0.0	85.3012068271637	
14	34.89937496185303	movie	1		301.0	12.0	2.5	/experiments/knapen_aot/oldvideos/S_yt-d5jBQ-LOW2I_17.mp4	0.0	85.30940699577332	2.508349895477295
14	37.40772485733032	fix_post	2		12.0	12.0	2.5	/experiments/knapen_aot/oldvideos/S_yt-d5jBQ-LOW2I_17.mp4	0.0	87.81775689125061	0.09999704360961914
15	37.50772190093994	fix_pre	0		31.0	13.0	2.5	blank	1.0	87.91775393486023	0.2582728862762451
15	37.75783681869507	response	0	2		13.0	2.5	blank	1.0	88.16786885261536	
15	37.76599478721619	movie	1		301.0	13.0	2.5	blank	1.0	88.17602682113647	2.508392095565796
15	40.27438688278198	fix_post	2		12.0	13.0	2.5	blank	1.0	90.68441891670227	0.09997701644897461
16	40.37436389923096	fix_pre	0		22.0	14.0	2.5	/experiments/knapen_aot/oldvideos/R_S_yt--C2DDZ7LOQA_95.mp4	0.0	90.78439593315125	0.18332409858703613
16	40.549468994140625	response	0	2		14.0	2.5	/experiments/knapen_aot/oldvideos/R_S_yt--C2DDZ7LOQA_95.mp4	0.0	90.95950102806091	
16	40.55768799781799	movie	1		301.0	14.0	2.5	/experiments/knapen_aot/oldvideos/R_S_yt--C2DDZ7LOQA_95.mp4	0.0	90.96772003173828	2.5083627700805664
16	43.06605076789856	fix_post	2		12.0	14.0	2.5	/experiments/knapen_aot/oldvideos/R_S_yt--C2DDZ7LOQA_95.mp4	0.0	93.47608280181885	0.09998607635498047
17	43.16603684425354	fix_pre	0		33.0	15.0	2.5	/experiments/knapen_aot/oldvideos/R_S_yt-2IN85w8ptmM_51.mp4	0.0	93.57606887817383	0.27498412132263184
17	43.43276882171631	response	0	2		15.0	2.5	/experiments/knapen_aot/oldvideos/R_S_yt-2IN85w8ptmM_51.mp4	0.0	93.8428008556366	
17	43.44102096557617	movie	1		301.0	15.0	2.5	/experiments/knapen_aot/oldvideos/R_S_yt-2IN85w8ptmM_51.mp4	0.0	93.85105299949646	2.5083518028259277
17	45.9493727684021	fix_post	2		12.0	15.0	2.5	/experiments/knapen_aot/oldvideos/R_S_yt-2IN85w8ptmM_51.mp4	0.0	96.35940480232239	0.09998202323913574
18	46.049354791641235	fix_pre	0		14.0	16.0	2.5	/experiments/knapen_aot/oldvideos/S_yt-ET5YTz1laWo_108.mp4	0.0	96.45938682556152	0.11664009094238281
18	46.15782189369202	response	0	2		16.0	2.5	/experiments/knapen_aot/oldvideos/S_yt-ET5YTz1laWo_108.mp4	0.0	96.5678539276123	
18	46.16599488258362	movie	1		301.0	16.0	2.5	/experiments/knapen_aot/oldvideos/S_yt-ET5YTz1laWo_108.mp4	0.0	96.5760269165039	2.508368968963623
18	48.67436385154724	fix_post	2		12.0	16.0	2.5	/experiments/knapen_aot/oldvideos/S_yt-ET5YTz1laWo_108.mp4	0.0	99.08439588546753	0.10000896453857422
19	48.774372816085815	fix_pre	0		23.0	17.0	2.5	/experiments/knapen_aot/oldvideos/R_S_wc-eJe3wXMgTLRV_20.mp4	0.0	99.1844048500061	0.19156312942504883
19	48.95782279968262	response	0	2		17.0	2.5	/experiments/knapen_aot/oldvideos/R_S_wc-eJe3wXMgTLRV_20.mp4	0.0	99.3678548336029	
19	48.965935945510864	movie	1		163.0	17.0	2.5	/experiments/knapen_aot/oldvideos/R_S_wc-eJe3wXMgTLRV_20.mp4	0.0	99.37596797943115	2.508370876312256
19	51.47430682182312	fix_post	2		12.0	17.0	2.5	/experiments/knapen_aot/oldvideos/R_S_wc-eJe3wXMgTLRV_20.mp4	0.0	101.88433885574341	0.10004305839538574
20	51.574349880218506	fix_pre	0		8.0	18.0	2.5	/experiments/knapen_aot/oldvideos/R_S_yt-M_ApPnq00iE_67.mp4	0.0	101.9843819141388	0.06666707992553711
20	51.63280892372131	response	0	2		18.0	2.5	/experiments/knapen_aot/oldvideos/R_S_yt-M_ApPnq00iE_67.mp4	0.0	102.0428409576416	
20	51.64101696014404	movie	1		301.0	18.0	2.5	/experiments/knapen_aot/oldvideos/R_S_yt-M_ApPnq00iE_67.mp4	0.0	102.05104899406433	2.5083508491516113
20	54.149367809295654	fix_post	2		12.0	18.0	2.5	/experiments/knapen_aot/oldvideos/R_S_yt-M_ApPnq00iE_67.mp4	0.0	104.55939984321594	0.09995317459106445
21	54.24932098388672	fix_pre	0		26.0	19.0	2.5	/experiments/knapen_aot/oldvideos/R_S_comp_GMT329_113NC_396B_1105_CHINA_v04_SDR_FINAL_20180706_F900F2700_SDR_2K_AVC.mp4	0.0	104.659353017807	0.2166609764099121
21	54.457777976989746	response	0	2		19.0	2.5	/experiments/knapen_aot/oldvideos/R_S_comp_GMT329_113NC_396B_1105_CHINA_v04_SDR_FINAL_20180706_F900F2700_SDR_2K_AVC.mp4	0.0	104.86781001091003	
21	54.46598196029663	movie	1		173.0	19.0	2.5	/experiments/knapen_aot/oldvideos/R_S_comp_GMT329_113NC_396B_1105_CHINA_v04_SDR_FINAL_20180706_F900F2700_SDR_2K_AVC.mp4	0.0	104.87601399421692	2.5083370208740234
21	56.974318981170654	fix_post	2		12.0	19.0	2.5	/experiments/knapen_aot/oldvideos/R_S_comp_GMT329_113NC_396B_1105_CHINA_v04_SDR_FINAL_20180706_F900F2700_SDR_2K_AVC.mp4	0.0	107.38435101509094	0.10011887550354004
22	57.074437856674194	fix_pre	0		10.0	20.0	2.5	blank	1.0	107.48446989059448	0.0842750072479248
22	57.14949297904968	response	0	2		20.0	2.5	blank	1.0	107.55952501296997	
22	57.15871286392212	movie	1		301.0	20.0	2.5	blank	1.0	107.56874489784241	2.507265090942383
22	59.6659779548645	fix_post	2		12.0	20.0	2.5	blank	1.0	110.07600998878479	0.09992384910583496
23	59.76590180397034	fix_pre	0		22.0	21.0	2.5	/experiments/knapen_aot/oldvideos/R_S_yt-7Fyu2vr7zbA_31.mp4	0.0	110.17593383789062	0.18426918983459473
23	59.941056966781616	response	0	2		21.0	2.5	/experiments/knapen_aot/oldvideos/R_S_yt-7Fyu2vr7zbA_31.mp4	0.0	110.3510890007019	
23	59.95017099380493	movie	1		301.0	21.0	2.5	/experiments/knapen_aot/oldvideos/R_S_yt-7Fyu2vr7zbA_31.mp4	0.0	110.36020302772522	2.507411003112793
23	62.457581996917725	fix_post	2		12.0	21.0	2.5	/experiments/knapen_aot/oldvideos/R_S_yt-7Fyu2vr7zbA_31.mp4	0.0	112.86761403083801	0.10004782676696777
24	62.55762982368469	fix_pre	0		11.0	22.0	2.5	/experiments/knapen_aot/oldvideos/R_S_yt-y6JsUW0eSW8_32.mp4	0.0	112.96766185760498	0.09164810180664062
24	62.64110589027405	response	0	2		22.0	2.5	/experiments/knapen_aot/oldvideos/R_S_yt-y6JsUW0eSW8_32.mp4	0.0	113.05113792419434	
24	62.64927792549133	movie	1		301.0	22.0	2.5	/experiments/knapen_aot/oldvideos/R_S_yt-y6JsUW0eSW8_32.mp4	0.0	113.05930995941162	2.508543014526367
24	65.1578209400177	fix_post	2		12.0	22.0	2.5	/experiments/knapen_aot/oldvideos/R_S_yt-y6JsUW0eSW8_32.mp4	0.0	115.56785297393799	0.09987592697143555
25	65.25769686698914	fix_pre	0		7.0	23.0	2.5	/experiments/knapen_aot/oldvideos/S_yt-xNKgc8sFYvU_35.mp4	0.0	115.66772890090942	0.05814194679260254
25	65.30773782730103	response	0	2		23.0	2.5	/experiments/knapen_aot/oldvideos/S_yt-xNKgc8sFYvU_35.mp4	0.0	115.71776986122131	
25	65.31583881378174	movie	1		301.0	23.0	2.5	/experiments/knapen_aot/oldvideos/S_yt-xNKgc8sFYvU_35.mp4	0.0	115.72587084770203	2.508435010910034
25	67.82427382469177	fix_post	2		12.0	23.0	2.5	/experiments/knapen_aot/oldvideos/S_yt-xNKgc8sFYvU_35.mp4	0.0	118.23430585861206	0.09997010231018066
25	67.91601991653442	response	2	2		23.0	2.5	/experiments/knapen_aot/oldvideos/S_yt-xNKgc8sFYvU_35.mp4	0.0	118.32605195045471	
26	67.92424392700195	fix_pre	0		57.0	24.0	2.5	/experiments/knapen_aot/oldvideos/R_S_yt-JVhfcpV7OaY_71.mp4	0.0	118.33427596092224	0.4749588966369629
26	68.39097785949707	response	0	2		24.0	2.5	/experiments/knapen_aot/oldvideos/R_S_yt-JVhfcpV7OaY_71.mp4	0.0	118.80100989341736	
26	68.39920282363892	movie	1		301.0	24.0	2.5	/experiments/knapen_aot/oldvideos/R_S_yt-JVhfcpV7OaY_71.mp4	0.0	118.8092348575592	2.5083889961242676
26	70.90759181976318	fix_post	2		12.0	24.0	2.5	/experiments/knapen_aot/oldvideos/R_S_yt-JVhfcpV7OaY_71.mp4	0.0	121.31762385368347	0.0999760627746582
27	71.00756788253784	fix_pre	0		28.0	25.0	2.5	/experiments/knapen_aot/oldvideos/S_yt-RKo978aBdzw_173.mp4	0.0	121.41759991645813	0.2341310977935791
27	71.23261189460754	response	0	2		25.0	2.5	/experiments/knapen_aot/oldvideos/S_yt-RKo978aBdzw_173.mp4	0.0	121.64264392852783	
27	71.24169898033142	movie	1		301.0	25.0	2.5	/experiments/knapen_aot/oldvideos/S_yt-RKo978aBdzw_173.mp4	0.0	121.65173101425171	2.5075669288635254
27	73.66608095169067	response	1	2		25.0	2.5	/experiments/knapen_aot/oldvideos/S_yt-RKo978aBdzw_173.mp4	0.0	124.07611298561096	
27	73.74926590919495	fix_post	2		12.0	25.0	2.5	/experiments/knapen_aot/oldvideos/S_yt-RKo978aBdzw_173.mp4	0.0	124.15929794311523	0.10000300407409668
28	73.84926891326904	fix_pre	0		3.0	26.0	2.5	/experiments/knapen_aot/oldvideos/R_S_yt-qurTr1BJMec_244.mp4	0.0	124.25930094718933	0.024945974349975586
28	73.86714792251587	response	0	2		26.0	2.5	/experiments/knapen_aot/oldvideos/R_S_yt-qurTr1BJMec_244.mp4	0.0	124.27717995643616	
28	73.87421488761902	movie	1		301.0	26.0	2.5	/experiments/knapen_aot/oldvideos/R_S_yt-qurTr1BJMec_244.mp4	0.0	124.2842469215393	2.5083670616149902
28	74.13273596763611	response	1	2		26.0	2.5	/experiments/knapen_aot/oldvideos/R_S_yt-qurTr1BJMec_244.mp4	0.0	124.5427680015564	
28	74.30767679214478	response	1	2		26.0	2.5	/experiments/knapen_aot/oldvideos/R_S_yt-qurTr1BJMec_244.mp4	0.0	124.71770882606506	
28	74.47427582740784	response	1	2		26.0	2.5	/experiments/knapen_aot/oldvideos/R_S_yt-qurTr1BJMec_244.mp4	0.0	124.88430786132812	
28	74.65158176422119	response	1	2		26.0	2.5	/experiments/knapen_aot/oldvideos/R_S_yt-qurTr1BJMec_244.mp4	0.0	125.06161379814148	
28	74.82505583763123	response	1	2		26.0	2.5	/experiments/knapen_aot/oldvideos/R_S_yt-qurTr1BJMec_244.mp4	0.0	125.23508787155151	
28	76.38258194923401	fix_post	2		12.0	26.0	2.5	/experiments/knapen_aot/oldvideos/R_S_yt-qurTr1BJMec_244.mp4	0.0	126.7926139831543	0.09999990463256836
29	76.48258185386658	fix_pre	0		10.0	27.0	2.5	/experiments/knapen_aot/oldvideos/R_S_yt-83nimFMNhrM_131.mp4	0.0	126.89261388778687	0.08331513404846191
29	76.55769085884094	response	0	2		27.0	2.5	/experiments/knapen_aot/oldvideos/R_S_yt-83nimFMNhrM_131.mp4	0.0	126.96772289276123	
29	76.56589698791504	movie	1		301.0	27.0	2.5	/experiments/knapen_aot/oldvideos/R_S_yt-83nimFMNhrM_131.mp4	0.0	126.97592902183533	2.508387804031372
29	78.90860295295715	response	1	2		27.0	2.5	/experiments/knapen_aot/oldvideos/R_S_yt-83nimFMNhrM_131.mp4	0.0	129.31863498687744	
29	79.07428479194641	fix_post	2		12.0	27.0	2.5	/experiments/knapen_aot/oldvideos/R_S_yt-83nimFMNhrM_131.mp4	0.0	129.4843168258667	0.09995102882385254
30	79.17423582077026	fix_pre	0		10.0	28.0	2.5	blank	1.0	129.58426785469055	0.08327507972717285
30	79.2493507862091	response	0	2		28.0	2.5	blank	1.0	129.6593828201294	
30	79.25751090049744	movie	1		301.0	28.0	2.5	blank	1.0	129.66754293441772	2.5084569454193115
30	81.76596784591675	fix_post	2		12.0	28.0	2.5	blank	1.0	132.17599987983704	0.09984612464904785
31	81.8658139705658	fix_pre	0		21.0	29.0	2.5	/experiments/knapen_aot/oldvideos/R_S_WCwb-DeQOSg_85.mp4	0.0	132.27584600448608	0.17502784729003906
31	82.03259682655334	response	0	2		29.0	2.5	/experiments/knapen_aot/oldvideos/R_S_WCwb-DeQOSg_85.mp4	0.0	132.44262886047363	
31	82.04084181785583	movie	1		301.0	29.0	2.5	/experiments/knapen_aot/oldvideos/R_S_WCwb-DeQOSg_85.mp4	0.0	132.45087385177612	2.5084030628204346
31	84.54924488067627	fix_post	2		12.0	29.0	2.5	/experiments/knapen_aot/oldvideos/R_S_WCwb-DeQOSg_85.mp4	0.0	134.95927691459656	0.09994888305664062
32	84.64919376373291	fix_pre	0		8.0	30.0	2.5	/experiments/knapen_aot/oldvideos/S_yt-8LO59eN9om4_16.mp4	0.0	135.0592257976532	0.06664514541625977
32	84.70753979682922	response	0	2		30.0	2.5	/experiments/knapen_aot/oldvideos/S_yt-8LO59eN9om4_16.mp4	0.0	135.1175718307495	
32	84.71583890914917	movie	1		301.0	30.0	2.5	/experiments/knapen_aot/oldvideos/S_yt-8LO59eN9om4_16.mp4	0.0	135.12587094306946	2.5083420276641846
32	87.22418093681335	fix_post	2		12.0	30.0	2.5	/experiments/knapen_aot/oldvideos/S_yt-8LO59eN9om4_16.mp4	0.0	137.63421297073364	0.10077285766601562
33	87.32495379447937	fix_pre	0		18.0	31.0	2.5	/experiments/knapen_aot/oldvideos/S_yt-8RmEimCI80g_35.mp4	0.0	137.73498582839966	0.14921307563781738
33	87.4585108757019	response	0	2		31.0	2.5	/experiments/knapen_aot/oldvideos/S_yt-8RmEimCI80g_35.mp4	0.0	137.8685429096222	
33	87.47416687011719	movie	1		301.0	31.0	2.5	/experiments/knapen_aot/oldvideos/S_yt-8RmEimCI80g_35.mp4	0.0	137.88419890403748	2.5083611011505127
33	89.9825279712677	fix_post	2		12.0	31.0	2.5	/experiments/knapen_aot/oldvideos/S_yt-8RmEimCI80g_35.mp4	0.0	140.392560005188	0.0999608039855957
34	90.0824887752533	fix_pre	0		10.0	32.0	2.5	/experiments/knapen_aot/oldvideos/S_yt-ET5YTz1laWo_108.mp4	0.0	140.49252080917358	0.08332419395446777
34	90.15762376785278	response	0	2		32.0	2.5	/experiments/knapen_aot/oldvideos/S_yt-ET5YTz1laWo_108.mp4	0.0	140.56765580177307	
34	90.16581296920776	movie	1		301.0	32.0	2.5	/experiments/knapen_aot/oldvideos/S_yt-ET5YTz1laWo_108.mp4	0.0	140.57584500312805	2.508297920227051
34	92.67411088943481	fix_post	2		12.0	32.0	2.5	/experiments/knapen_aot/oldvideos/S_yt-ET5YTz1laWo_108.mp4	0.0	143.0841429233551	0.10006904602050781
35	92.77417993545532	fix_pre	0		6.0	33.0	2.5	blank	1.0	143.1842119693756	0.050668954849243164
35	92.81592583656311	response	0	2		33.0	2.5	blank	1.0	143.2259578704834	
35	92.82484889030457	movie	1		301.0	33.0	2.5	blank	1.0	143.23488092422485	2.5076980590820312
35	95.3325469493866	fix_post	2		12.0	33.0	2.5	blank	1.0	145.74257898330688	0.10002684593200684
35	95.41595077514648	response	2	2		33.0	2.5	blank	1.0	145.82598280906677	
36	95.4325737953186	fix_pre	0		34.0	34.0	2.5	/experiments/knapen_aot/oldvideos/S_yt-IlW1U39Dga4_5.mp4	0.0	145.8426058292389	0.2832491397857666
36	95.70003890991211	response	0	2		34.0	2.5	/experiments/knapen_aot/oldvideos/S_yt-IlW1U39Dga4_5.mp4	0.0	146.1100709438324	
36	95.71582293510437	movie	1		301.0	34.0	2.5	/experiments/knapen_aot/oldvideos/S_yt-IlW1U39Dga4_5.mp4	0.0	146.12585496902466	2.5083959102630615
36	98.22421884536743	fix_post	2		12.0	34.0	2.5	/experiments/knapen_aot/oldvideos/S_yt-IlW1U39Dga4_5.mp4	0.0	148.63425087928772	0.09990215301513672
37	98.32412099838257	fix_pre	0		12.0	35.0	2.5	/experiments/knapen_aot/oldvideos/R_S_ILSVRC2015_train_00485001.mp4	0.0	148.73415303230286	0.09996676445007324
37	98.41587090492249	response	0	2		35.0	2.5	/experiments/knapen_aot/oldvideos/R_S_ILSVRC2015_train_00485001.mp4	0.0	148.82590293884277	
37	98.42408776283264	movie	1		301.0	35.0	2.5	/experiments/knapen_aot/oldvideos/R_S_ILSVRC2015_train_00485001.mp4	0.0	148.83411979675293	2.5084280967712402
37	100.93251585960388	fix_post	2		12.0	35.0	2.5	/experiments/knapen_aot/oldvideos/R_S_ILSVRC2015_train_00485001.mp4	0.0	151.34254789352417	0.1006779670715332
38	101.03319382667542	fix_pre	0		13.0	36.0	2.5	/experiments/knapen_aot/oldvideos/S_yt-82O1uT8dmv8_12.mp4	0.0	151.4432258605957	0.10755610466003418
38	101.13256692886353	response	0	2		36.0	2.5	/experiments/knapen_aot/oldvideos/S_yt-82O1uT8dmv8_12.mp4	0.0	151.5425989627838	
38	101.14074993133545	movie	1		301.0	36.0	2.5	/experiments/knapen_aot/oldvideos/S_yt-82O1uT8dmv8_12.mp4	0.0	151.55078196525574	2.508394956588745
38	103.6491448879242	fix_post	2		12.0	36.0	2.5	/experiments/knapen_aot/oldvideos/S_yt-82O1uT8dmv8_12.mp4	0.0	154.05917692184448	0.10006594657897949
39	103.74921083450317	fix_pre	0		12.0	37.0	2.5	/experiments/knapen_aot/oldvideos/S_yt-fP2JRJAFGZ4_25.mp4	0.0	154.15924286842346	0.09989404678344727
39	103.8409469127655	response	0	2		37.0	2.5	/experiments/knapen_aot/oldvideos/S_yt-fP2JRJAFGZ4_25.mp4	0.0	154.2509789466858	
39	103.84910488128662	movie	1		301.0	37.0	2.5	/experiments/knapen_aot/oldvideos/S_yt-fP2JRJAFGZ4_25.mp4	0.0	154.2591369152069	2.5084168910980225
39	106.35752177238464	fix_post	2		12.0	37.0	2.5	/experiments/knapen_aot/oldvideos/S_yt-fP2JRJAFGZ4_25.mp4	0.0	156.76755380630493	0.09995913505554199
40	106.45748090744019	fix_pre	0		23.0	38.0	2.5	/experiments/knapen_aot/oldvideos/R_S_yt--jzScB82vKI_90.mp4	0.0	156.86751294136047	0.19161701202392578
40	106.64094090461731	response	0	2		38.0	2.5	/experiments/knapen_aot/oldvideos/R_S_yt--jzScB82vKI_90.mp4	0.0	157.0509729385376	
40	106.64909791946411	movie	1		301.0	38.0	2.5	/experiments/knapen_aot/oldvideos/R_S_yt--jzScB82vKI_90.mp4	0.0	157.0591299533844	2.508415937423706
40	109.15751385688782	fix_post	2		12.0	38.0	2.5	/experiments/knapen_aot/oldvideos/R_S_yt--jzScB82vKI_90.mp4	0.0	159.5675458908081	0.09995794296264648
41	109.25747179985046	fix_pre	0		21.0	39.0	2.5	/experiments/knapen_aot/oldvideos/S_yt-QiJyOUkuo38_6.mp4	0.0	159.66750383377075	0.17496919631958008
41	109.42426896095276	response	0	2		39.0	2.5	/experiments/knapen_aot/oldvideos/S_yt-QiJyOUkuo38_6.mp4	0.0	159.83430099487305	
41	109.43244099617004	movie	1		301.0	39.0	2.5	/experiments/knapen_aot/oldvideos/S_yt-QiJyOUkuo38_6.mp4	0.0	159.84247303009033	2.508356809616089
41	111.94079780578613	fix_post	2		12.0	39.0	2.5	/experiments/knapen_aot/oldvideos/S_yt-QiJyOUkuo38_6.mp4	0.0	162.35082983970642	0.09995317459106445
42	112.0407509803772	fix_pre	0		28.0	40.0	2.5	/experiments/knapen_aot/oldvideos/R_S_yt-8LO59eN9om4_16.mp4	0.0	162.45078301429749	0.23333287239074707
42	112.26585984230042	response	0	2		40.0	2.5	/experiments/knapen_aot/oldvideos/R_S_yt-8LO59eN9om4_16.mp4	0.0	162.6758918762207	
42	112.27408385276794	movie	1		301.0	40.0	2.5	/experiments/knapen_aot/oldvideos/R_S_yt-8LO59eN9om4_16.mp4	0.0	162.68411588668823	2.5083630084991455
42	114.78244686126709	fix_post	2		12.0	40.0	2.5	/experiments/knapen_aot/oldvideos/R_S_yt-8LO59eN9om4_16.mp4	0.0	165.19247889518738	0.10004997253417969
43	114.88249683380127	fix_pre	0		33.0	41.0	2.5	blank	1.0	165.29252886772156	0.2755129337310791
43	115.14927697181702	response	0	2		41.0	2.5	blank	1.0	165.5593090057373	
43	115.15800976753235	movie	1		301.0	41.0	2.5	blank	1.0	165.56804180145264	2.507777214050293
43	117.66578698158264	fix_post	2		12.0	41.0	2.5	blank	1.0	168.07581901550293	0.09997701644897461
44	117.76576399803162	fix_pre	0		260.0	42.0	2.5	/experiments/knapen_aot/oldvideos/S_yt-i3-YlGenYmk_411.mp4	0.0	168.1757960319519	2.166583776473999
44	119.92425894737244	response	0	2		42.0	2.5	/experiments/knapen_aot/oldvideos/S_yt-i3-YlGenYmk_411.mp4	0.0	170.33429098129272	
44	119.93234777450562	movie	1		301.0	42.0	2.5	/experiments/knapen_aot/oldvideos/S_yt-i3-YlGenYmk_411.mp4	0.0	170.3423798084259	2.5083870887756348
44	122.44073486328125	fix_post	2		12.0	42.0	2.5	/experiments/knapen_aot/oldvideos/S_yt-i3-YlGenYmk_411.mp4	0.0	172.85076689720154	0.10003805160522461
45	122.54077291488647	fix_pre	0		145.0	43.0	2.5	/experiments/knapen_aot/oldvideos/S_yt-V4ptcLegCiw_161.mp4	0.0	172.95080494880676	1.2082839012145996
45	123.74086689949036	response	0	2		43.0	2.5	/experiments/knapen_aot/oldvideos/S_yt-V4ptcLegCiw_161.mp4	0.0	174.15089893341064	
45	123.74905681610107	movie	1		301.0	43.0	2.5	/experiments/knapen_aot/oldvideos/S_yt-V4ptcLegCiw_161.mp4	0.0	174.15908885002136	2.508445978164673
45	126.25750279426575	fix_post	2		12.0	43.0	2.5	/experiments/knapen_aot/oldvideos/S_yt-V4ptcLegCiw_161.mp4	0.0	176.66753482818604	0.10000109672546387
46	126.35750389099121	fix_pre	0		8.0	44.0	2.5	/experiments/knapen_aot/oldvideos/S_SE_A016_C009_SDR_20190717_SDR_2K_AVC.mp4	0.0	176.7675359249115	0.0665280818939209
46	126.41584897041321	response	0	2		44.0	2.5	/experiments/knapen_aot/oldvideos/S_SE_A016_C009_SDR_20190717_SDR_2K_AVC.mp4	0.0	176.8258810043335	
46	126.42403197288513	movie	1		163.0	44.0	2.5	/experiments/knapen_aot/oldvideos/S_SE_A016_C009_SDR_20190717_SDR_2K_AVC.mp4	0.0	176.83406400680542	2.508405923843384
46	128.93243789672852	fix_post	2		12.0	44.0	2.5	/experiments/knapen_aot/oldvideos/S_SE_A016_C009_SDR_20190717_SDR_2K_AVC.mp4	0.0	179.3424699306488	0.09997105598449707
46	128.99088382720947	response	2	2		44.0	2.5	/experiments/knapen_aot/oldvideos/S_SE_A016_C009_SDR_20190717_SDR_2K_AVC.mp4	0.0	179.40091586112976	
47	129.032408952713	fix_pre	0		43.0	45.0	2.5	/experiments/knapen_aot/oldvideos/R_S_ILSVRC2015_train_00418001.mp4	0.0	179.4424409866333	0.35825181007385254
47	129.3824667930603	response	0	2		45.0	2.5	/experiments/knapen_aot/oldvideos/R_S_ILSVRC2015_train_00418001.mp4	0.0	179.7924988269806	
47	129.39066076278687	movie	1		301.0	45.0	2.5	/experiments/knapen_aot/oldvideos/R_S_ILSVRC2015_train_00418001.mp4	0.0	179.80069279670715	2.508376121520996
47	131.89903688430786	fix_post	2		12.0	45.0	2.5	/experiments/knapen_aot/oldvideos/R_S_ILSVRC2015_train_00418001.mp4	0.0	182.30906891822815	0.10002899169921875
47	131.92419385910034	response	2	2		45.0	2.5	/experiments/knapen_aot/oldvideos/R_S_ILSVRC2015_train_00418001.mp4	0.0	182.33422589302063	
48	131.99906587600708	fix_pre	0		21.0	46.0	2.5	/experiments/knapen_aot/oldvideos/S_comp_GL_G004_C010_PSNK_v04_SDR_PS_FINAL_20180709_SDR_2K_AVC.mp4	0.0	182.40909790992737	0.1749250888824463
48	132.16584086418152	response	0	2		46.0	2.5	/experiments/knapen_aot/oldvideos/S_comp_GL_G004_C010_PSNK_v04_SDR_PS_FINAL_20180709_SDR_2K_AVC.mp4	0.0	182.5758728981018	
48	132.17399096488953	movie	1		166.0	46.0	2.5	/experiments/knapen_aot/oldvideos/S_comp_GL_G004_C010_PSNK_v04_SDR_PS_FINAL_20180709_SDR_2K_AVC.mp4	0.0	182.58402299880981	2.508584976196289
48	134.68257594108582	fix_post	2		12.0	46.0	2.5	/experiments/knapen_aot/oldvideos/S_comp_GL_G004_C010_PSNK_v04_SDR_PS_FINAL_20180709_SDR_2K_AVC.mp4	0.0	185.0926079750061	0.10027885437011719
49	134.78285479545593	fix_pre	0		4.0	47.0	2.5	/experiments/knapen_aot/oldvideos/S_wc-eJe3wXMgTLRV_20.mp4	0.0	185.19288682937622	0.0328521728515625
49	134.80747294425964	response	0	2		47.0	2.5	/experiments/knapen_aot/oldvideos/S_wc-eJe3wXMgTLRV_20.mp4	0.0	185.21750497817993	
49	134.8157069683075	movie	1		172.0	47.0	2.5	/experiments/knapen_aot/oldvideos/S_wc-eJe3wXMgTLRV_20.mp4	0.0	185.22573900222778	2.5083630084991455
49	137.32406997680664	fix_post	2		12.0	47.0	2.5	/experiments/knapen_aot/oldvideos/S_wc-eJe3wXMgTLRV_20.mp4	0.0	187.73410201072693	0.1000368595123291
49	137.39083886146545	response	2	2		47.0	2.5	/experiments/knapen_aot/oldvideos/S_wc-eJe3wXMgTLRV_20.mp4	0.0	187.80087089538574	
50	137.42410683631897	fix_pre	0		73.0	48.0	2.5	blank	1.0	187.83413887023926	0.6087210178375244
50	138.02559089660645	response	0	2		48.0	2.5	blank	1.0	188.43562293052673	
50	138.0328278541565	movie	1		301.0	48.0	2.5	blank	1.0	188.44285988807678	2.5078511238098145
50	140.5406789779663	fix_post	2		12.0	48.0	2.5	blank	1.0	190.9507110118866	0.10010600090026855
50	140.6074469089508	response	2	2		48.0	2.5	blank	1.0	191.0174789428711	
51	140.64078497886658	fix_pre	0		40.0	49.0	2.5	/experiments/knapen_aot/oldvideos/S_yt-ebzrQh5ErI4_3.mp4	0.0	191.05081701278687	0.3332397937774658
51	140.965744972229	response	0	2		49.0	2.5	/experiments/knapen_aot/oldvideos/S_yt-ebzrQh5ErI4_3.mp4	0.0	191.3757770061493	
51	140.97402477264404	movie	1		301.0	49.0	2.5	/experiments/knapen_aot/oldvideos/S_yt-ebzrQh5ErI4_3.mp4	0.0	191.38405680656433	2.508380174636841
51	142.75738978385925	response	1	2		49.0	2.5	/experiments/knapen_aot/oldvideos/S_yt-ebzrQh5ErI4_3.mp4	0.0	193.16742181777954	
51	143.1509759426117	response	1	2		49.0	2.5	/experiments/knapen_aot/oldvideos/S_yt-ebzrQh5ErI4_3.mp4	0.0	193.56100797653198	
51	143.43239498138428	response	1	2		49.0	2.5	/experiments/knapen_aot/oldvideos/S_yt-ebzrQh5ErI4_3.mp4	0.0	193.84242701530457	
51	143.48240494728088	fix_post	2		12.0	49.0	2.5	/experiments/knapen_aot/oldvideos/S_yt-ebzrQh5ErI4_3.mp4	0.0	193.89243698120117	0.09997701644897461
52	143.58238196372986	fix_pre	0		16.0	50.0	2.5	/experiments/knapen_aot/oldvideos/R_S_yt-OrTpetjDNKs_31.mp4	0.0	193.99241399765015	0.13324499130249023
52	143.70736289024353	response	0	2		50.0	2.5	/experiments/knapen_aot/oldvideos/R_S_yt-OrTpetjDNKs_31.mp4	0.0	194.11739492416382	
52	143.71562695503235	movie	1		301.0	50.0	2.5	/experiments/knapen_aot/oldvideos/R_S_yt-OrTpetjDNKs_31.mp4	0.0	194.12565898895264	2.508471965789795
52	146.22409892082214	fix_post	2		12.0	50.0	2.5	/experiments/knapen_aot/oldvideos/R_S_yt-OrTpetjDNKs_31.mp4	0.0	196.63413095474243	0.0999150276184082
53	146.32401394844055	fix_pre	0		5.0	51.0	2.5	/experiments/knapen_aot/oldvideos/S_production_ID_5199636.mp4	0.0	196.73404598236084	0.04202890396118164
53	146.35744976997375	response	0	2		51.0	2.5	/experiments/knapen_aot/oldvideos/S_production_ID_5199636.mp4	0.0	196.76748180389404	
53	146.36604285240173	movie	1		164.0	51.0	2.5	/experiments/knapen_aot/oldvideos/S_production_ID_5199636.mp4	0.0	196.77607488632202	2.507934093475342
53	148.3731119632721	response	1	2		51.0	2.5	/experiments/knapen_aot/oldvideos/S_production_ID_5199636.mp4	0.0	198.78314399719238	
53	148.6491367816925	response	1	2		51.0	2.5	/experiments/knapen_aot/oldvideos/S_production_ID_5199636.mp4	0.0	199.0591688156128	
53	148.87397694587708	fix_post	2		12.0	51.0	2.5	/experiments/knapen_aot/oldvideos/S_production_ID_5199636.mp4	0.0	199.28400897979736	0.10000801086425781
53	148.91577577590942	response	2	2		51.0	2.5	/experiments/knapen_aot/oldvideos/S_production_ID_5199636.mp4	0.0	199.3258078098297	
54	148.97398495674133	fix_pre	0		25.0	52.0	2.5	/experiments/knapen_aot/oldvideos/R_S_pexels-cottonbro-9063801.mp4	0.0	199.38401699066162	0.20830392837524414
54	149.17403483390808	response	0	2		52.0	2.5	/experiments/knapen_aot/oldvideos/R_S_pexels-cottonbro-9063801.mp4	0.0	199.58406686782837	
54	149.18228888511658	movie	1		196.0	52.0	2.5	/experiments/knapen_aot/oldvideos/R_S_pexels-cottonbro-9063801.mp4	0.0	199.59232091903687	2.508413076400757
54	149.39409279823303	response	1	2		52.0	2.5	/experiments/knapen_aot/oldvideos/R_S_pexels-cottonbro-9063801.mp4	0.0	199.80412483215332	
54	151.44950485229492	response	1	2		52.0	2.5	/experiments/knapen_aot/oldvideos/R_S_pexels-cottonbro-9063801.mp4	0.0	201.8595368862152	
54	151.69070196151733	fix_post	2		12.0	52.0	2.5	/experiments/knapen_aot/oldvideos/R_S_pexels-cottonbro-9063801.mp4	0.0	202.10073399543762	0.09993100166320801
54	151.72409582138062	response	2	2		52.0	2.5	/experiments/knapen_aot/oldvideos/R_S_pexels-cottonbro-9063801.mp4	0.0	202.1341278553009	
55	151.79063296318054	fix_pre	0		34.0	53.0	2.5	/experiments/knapen_aot/oldvideos/S_yt-QXsedpZh800_275.mp4	0.0	202.20066499710083	0.2837808132171631
55	152.06572484970093	response	0	2		53.0	2.5	/experiments/knapen_aot/oldvideos/S_yt-QXsedpZh800_275.mp4	0.0	202.47575688362122	
55	152.0744137763977	movie	1		301.0	53.0	2.5	/experiments/knapen_aot/oldvideos/S_yt-QXsedpZh800_275.mp4	0.0	202.484445810318	2.507878065109253
55	154.58229184150696	fix_post	2		12.0	53.0	2.5	/experiments/knapen_aot/oldvideos/S_yt-QXsedpZh800_275.mp4	0.0	204.99232387542725	0.09997200965881348
56	154.68226385116577	fix_pre	0		7.0	54.0	2.5	blank	1.0	205.09229588508606	0.05884599685668945
56	154.7323877811432	response	0	2		54.0	2.5	blank	1.0	205.14241981506348	
56	154.74110984802246	movie	1		301.0	54.0	2.5	blank	1.0	205.15114188194275	2.5079641342163086
56	157.24907398223877	fix_post	2		12.0	54.0	2.5	blank	1.0	207.65910601615906	0.09997391700744629
57	157.34904789924622	fix_pre	0		15.0	55.0	2.5	/experiments/knapen_aot/oldvideos/R_S_yt-ebzrQh5ErI4_3.mp4	0.0	207.7590799331665	0.12486600875854492
57	157.46569895744324	response	0	2		55.0	2.5	/experiments/knapen_aot/oldvideos/R_S_yt-ebzrQh5ErI4_3.mp4	0.0	207.87573099136353	
57	157.47391390800476	movie	1		301.0	55.0	2.5	/experiments/knapen_aot/oldvideos/R_S_yt-ebzrQh5ErI4_3.mp4	0.0	207.88394594192505	2.5084400177001953
57	159.98235392570496	fix_post	2		12.0	55.0	2.5	/experiments/knapen_aot/oldvideos/R_S_yt-ebzrQh5ErI4_3.mp4	0.0	210.39238595962524	0.09991002082824707
58	160.0822639465332	fix_pre	0		13.0	56.0	2.5	/experiments/knapen_aot/oldvideos/S_PA_A001_C007_SDR_20190717_SDR_2K_AVC.mp4	0.0	210.4922959804535	0.10831999778747559
58	160.17487597465515	response	0	2		56.0	2.5	/experiments/knapen_aot/oldvideos/S_PA_A001_C007_SDR_20190717_SDR_2K_AVC.mp4	0.0	210.58490800857544	
58	160.19058394432068	movie	1		164.0	56.0	2.5	/experiments/knapen_aot/oldvideos/S_PA_A001_C007_SDR_20190717_SDR_2K_AVC.mp4	0.0	210.60061597824097	2.508328914642334
58	162.698912858963	fix_post	2		12.0	56.0	2.5	/experiments/knapen_aot/oldvideos/S_PA_A001_C007_SDR_20190717_SDR_2K_AVC.mp4	0.0	213.1089448928833	0.09998607635498047
59	162.798898935318	fix_pre	0		8.0	57.0	2.5	/experiments/knapen_aot/oldvideos/R_S_yt-he_RSdeVinA_68.mp4	0.0	213.20893096923828	0.06696796417236328
59	162.8572998046875	response	0	2		57.0	2.5	/experiments/knapen_aot/oldvideos/R_S_yt-he_RSdeVinA_68.mp4	0.0	213.2673318386078	
59	162.86586689949036	movie	1		301.0	57.0	2.5	/experiments/knapen_aot/oldvideos/R_S_yt-he_RSdeVinA_68.mp4	0.0	213.27589893341064	2.5081260204315186
59	165.37399291992188	fix_post	2		12.0	57.0	2.5	/experiments/knapen_aot/oldvideos/R_S_yt-he_RSdeVinA_68.mp4	0.0	215.78402495384216	0.09990501403808594
60	165.47389793395996	fix_pre	0		25.0	58.0	2.5	/experiments/knapen_aot/oldvideos/R_S_yt-V4Oosy-ZtGY_193.mp4	0.0	215.88392996788025	0.20831990242004395
60	165.66641497612	response	0	2		58.0	2.5	/experiments/knapen_aot/oldvideos/R_S_yt-V4Oosy-ZtGY_193.mp4	0.0	216.07644701004028	
60	165.68221783638	movie	1		301.0	58.0	2.5	/experiments/knapen_aot/oldvideos/R_S_yt-V4Oosy-ZtGY_193.mp4	0.0	216.0922498703003	2.5083510875701904
60	168.1905689239502	fix_post	2		12.0	58.0	2.5	/experiments/knapen_aot/oldvideos/R_S_yt-V4Oosy-ZtGY_193.mp4	0.0	218.60060095787048	0.1000070571899414
61	168.29057598114014	fix_pre	0		8.0	59.0	2.5	/experiments/knapen_aot/oldvideos/R_S_yt-WTxvvlP8xnw_113.mp4	0.0	218.70060801506042	0.06661200523376465
61	168.34903597831726	response	0	2		59.0	2.5	/experiments/knapen_aot/oldvideos/R_S_yt-WTxvvlP8xnw_113.mp4	0.0	218.75906801223755	
61	168.3571879863739	movie	1		301.0	59.0	2.5	/experiments/knapen_aot/oldvideos/R_S_yt-WTxvvlP8xnw_113.mp4	0.0	218.7672200202942	2.5083608627319336
61	170.86554884910583	fix_post	2		12.0	59.0	2.5	/experiments/knapen_aot/oldvideos/R_S_yt-WTxvvlP8xnw_113.mp4	0.0	221.27558088302612	0.10002613067626953
62	170.9655749797821	fix_pre	0		6.0	60.0	2.5	/experiments/knapen_aot/oldvideos/S_yt-HwEfWfFJhRo_73.mp4	0.0	221.3756070137024	0.050035953521728516
62	171.00722789764404	response	0	2		60.0	2.5	/experiments/knapen_aot/oldvideos/S_yt-HwEfWfFJhRo_73.mp4	0.0	221.41725993156433	
62	171.01561093330383	movie	1		301.0	60.0	2.5	/experiments/knapen_aot/oldvideos/S_yt-HwEfWfFJhRo_73.mp4	0.0	221.42564296722412	2.5082759857177734
62	173.5238869190216	fix_post	2		12.0	60.0	2.5	/experiments/knapen_aot/oldvideos/S_yt-HwEfWfFJhRo_73.mp4	0.0	223.9339189529419	0.10026097297668457
63	173.6241478919983	fix_pre	0		3.0	61.0	2.5	blank	1.0	224.03417992591858	0.02473306655883789
63	173.64071393013	response	0	2		61.0	2.5	blank	1.0	224.0507459640503	
63	173.64888095855713	movie	1		301.0	61.0	2.5	blank	1.0	224.05891299247742	2.5082948207855225
63	176.15717577934265	fix_post	2		12.0	61.0	2.5	blank	1.0	226.56720781326294	0.10008120536804199
64	176.2572569847107	fix_pre	0		29.0	62.0	2.5	/experiments/knapen_aot/oldvideos/S_yt-PYHK810V_n8_1375.mp4	0.0	226.66728901863098	0.2416698932647705
64	176.4906108379364	response	0	2		62.0	2.5	/experiments/knapen_aot/oldvideos/S_yt-PYHK810V_n8_1375.mp4	0.0	226.9006428718567	
64	176.49892687797546	movie	1		301.0	62.0	2.5	/experiments/knapen_aot/oldvideos/S_yt-PYHK810V_n8_1375.mp4	0.0	226.90895891189575	2.5082480907440186
64	179.00717496871948	fix_post	2		12.0	62.0	2.5	/experiments/knapen_aot/oldvideos/S_yt-PYHK810V_n8_1375.mp4	0.0	229.41720700263977	0.09994292259216309
65	179.10711789131165	fix_pre	0		19.0	63.0	2.5	/experiments/knapen_aot/oldvideos/R_S_yt-fP2JRJAFGZ4_25.mp4	0.0	229.51714992523193	0.1583719253540039
65	179.25728487968445	response	0	2		63.0	2.5	/experiments/knapen_aot/oldvideos/R_S_yt-fP2JRJAFGZ4_25.mp4	0.0	229.66731691360474	
65	179.26548981666565	movie	1		301.0	63.0	2.5	/experiments/knapen_aot/oldvideos/R_S_yt-fP2JRJAFGZ4_25.mp4	0.0	229.67552185058594	2.5084869861602783
65	181.77397680282593	fix_post	2		12.0	63.0	2.5	/experiments/knapen_aot/oldvideos/R_S_yt-fP2JRJAFGZ4_25.mp4	0.0	232.18400883674622	0.09984898567199707
66	181.87382578849792	fix_pre	0		7.0	64.0	2.5	/experiments/knapen_aot/oldvideos/R_S_yt-ET5YTz1laWo_108.mp4	0.0	232.2838578224182	0.05827617645263672
66	181.9239318370819	response	0	2		64.0	2.5	/experiments/knapen_aot/oldvideos/R_S_yt-ET5YTz1laWo_108.mp4	0.0	232.3339638710022	
66	181.93210196495056	movie	1		301.0	64.0	2.5	/experiments/knapen_aot/oldvideos/R_S_yt-ET5YTz1laWo_108.mp4	0.0	232.34213399887085	2.5084187984466553
66	184.44052076339722	fix_post	2		12.0	64.0	2.5	/experiments/knapen_aot/oldvideos/R_S_yt-ET5YTz1laWo_108.mp4	0.0	234.8505527973175	0.10007405281066895
67	184.54059481620789	fix_pre	0		7.0	65.0	2.5	/experiments/knapen_aot/oldvideos/R_S_yt-R9Iabv0XgOQ_80.mp4	0.0	234.95062685012817	0.05819416046142578
67	184.59062886238098	response	0	2		65.0	2.5	/experiments/knapen_aot/oldvideos/R_S_yt-R9Iabv0XgOQ_80.mp4	0.0	235.00066089630127	
67	184.5987889766693	movie	1		301.0	65.0	2.5	/experiments/knapen_aot/oldvideos/R_S_yt-R9Iabv0XgOQ_80.mp4	0.0	235.0088210105896	2.5085527896881104
67	187.10734176635742	fix_post	2		12.0	65.0	2.5	/experiments/knapen_aot/oldvideos/R_S_yt-R9Iabv0XgOQ_80.mp4	0.0	237.5173738002777	0.09988713264465332
68	187.20722889900208	fix_pre	0		15.0	66.0	2.5	/experiments/knapen_aot/oldvideos/R_S_yt-b29VtKvlnWE_430.mp4	0.0	237.61726093292236	0.1249079704284668
68	187.32390093803406	response	0	2		66.0	2.5	/experiments/knapen_aot/oldvideos/R_S_yt-b29VtKvlnWE_430.mp4	0.0	237.73393297195435	
68	187.33213686943054	movie	1		301.0	66.0	2.5	/experiments/knapen_aot/oldvideos/R_S_yt-b29VtKvlnWE_430.mp4	0.0	237.74216890335083	2.508345127105713
68	189.84048199653625	fix_post	2		12.0	66.0	2.5	/experiments/knapen_aot/oldvideos/R_S_yt-b29VtKvlnWE_430.mp4	0.0	240.25051403045654	0.09993386268615723
69	189.9404158592224	fix_pre	0		23.0	67.0	2.5	/experiments/knapen_aot/oldvideos/R_S_production_ID_5020960.mp4	0.0	240.3504478931427	0.19169306755065918
69	190.12384486198425	response	0	2		67.0	2.5	/experiments/knapen_aot/oldvideos/R_S_production_ID_5020960.mp4	0.0	240.53387689590454	
69	190.13210892677307	movie	1		193.0	67.0	2.5	/experiments/knapen_aot/oldvideos/R_S_production_ID_5020960.mp4	0.0	240.54214096069336	2.508305072784424
69	192.6404139995575	fix_post	2		12.0	67.0	2.5	/experiments/knapen_aot/oldvideos/R_S_production_ID_5020960.mp4	0.0	243.05044603347778	0.10025978088378906
70	192.74067378044128	fix_pre	0		14.0	68.0	2.5	/experiments/knapen_aot/oldvideos/R_S_yt-ET5YTz1laWo_108.mp4	0.0	243.15070581436157	0.11631202697753906
70	192.8488848209381	response	0	2		68.0	2.5	/experiments/knapen_aot/oldvideos/R_S_yt-ET5YTz1laWo_108.mp4	0.0	243.2589168548584	
70	192.85698580741882	movie	1		301.0	68.0	2.5	/experiments/knapen_aot/oldvideos/R_S_yt-ET5YTz1laWo_108.mp4	0.0	243.2670178413391	2.508366107940674
70	195.3653519153595	fix_post	2		12.0	68.0	2.5	/experiments/knapen_aot/oldvideos/R_S_yt-ET5YTz1laWo_108.mp4	0.0	245.77538394927979	0.10004496574401855
71	195.46539688110352	fix_pre	0		14.0	69.0	2.5	blank	1.0	245.8754289150238	0.11662602424621582
71	195.56633496284485	response	0	2		69.0	2.5	blank	1.0	245.97636699676514	
71	195.58202290534973	movie	1		301.0	69.0	2.5	blank	1.0	245.99205493927002	2.5083649158477783
71	198.0903878211975	fix_post	2		12.0	69.0	2.5	blank	1.0	248.5004198551178	0.10004997253417969
72	198.1904377937317	fix_pre	0		16.0	70.0	2.5	/experiments/knapen_aot/oldvideos/R_S_pexels-pavel-danilyuk-8626652.mp4	0.0	248.60046982765198	0.13340020179748535
72	198.31545877456665	response	0	2		70.0	2.5	/experiments/knapen_aot/oldvideos/R_S_pexels-pavel-danilyuk-8626652.mp4	0.0	248.72549080848694	
72	198.32383799552917	movie	1		168.0	70.0	2.5	/experiments/knapen_aot/oldvideos/R_S_pexels-pavel-danilyuk-8626652.mp4	0.0	248.73387002944946	2.50822377204895
72	200.83206176757812	fix_post	2		12.0	70.0	2.5	/experiments/knapen_aot/oldvideos/R_S_pexels-pavel-danilyuk-8626652.mp4	0.0	251.2420938014984	0.09997010231018066
73	200.9320318698883	fix_pre	0		13.0	71.0	2.5	/experiments/knapen_aot/oldvideos/S_yt-kA0ybjmoiMc_284.mp4	0.0	251.3420639038086	0.10844111442565918
73	201.03209590911865	response	0	2		71.0	2.5	/experiments/knapen_aot/oldvideos/S_yt-kA0ybjmoiMc_284.mp4	0.0	251.44212794303894	
73	201.04047298431396	movie	1		301.0	71.0	2.5	/experiments/knapen_aot/oldvideos/S_yt-kA0ybjmoiMc_284.mp4	0.0	251.45050501823425	2.5082550048828125
73	203.54872798919678	fix_post	2		12.0	71.0	2.5	/experiments/knapen_aot/oldvideos/S_yt-kA0ybjmoiMc_284.mp4	0.0	253.95876002311707	0.0999608039855957
74	203.64868879318237	fix_pre	0		14.0	72.0	2.5	/experiments/knapen_aot/oldvideos/S_yt-R5wOWRtRmrI_36.mp4	0.0	254.05872082710266	0.11666107177734375
74	203.7571737766266	response	0	2		72.0	2.5	/experiments/knapen_aot/oldvideos/S_yt-R5wOWRtRmrI_36.mp4	0.0	254.16720581054688	
74	203.76534986495972	movie	1		301.0	72.0	2.5	/experiments/knapen_aot/oldvideos/S_yt-R5wOWRtRmrI_36.mp4	0.0	254.17538189888	2.508284091949463
74	206.27363395690918	fix_post	2		12.0	72.0	2.5	/experiments/knapen_aot/oldvideos/S_yt-R5wOWRtRmrI_36.mp4	0.0	256.68366599082947	0.10004401206970215
75	206.37367796897888	fix_pre	0		24.0	73.0	2.5	/experiments/knapen_aot/oldvideos/R_S_yt-fQgLKiz2tuM_14.mp4	0.0	256.78371000289917	0.20009779930114746
75	206.565358877182	response	0	2		73.0	2.5	/experiments/knapen_aot/oldvideos/R_S_yt-fQgLKiz2tuM_14.mp4	0.0	256.9753909111023	
75	206.57377576828003	movie	1		301.0	73.0	2.5	/experiments/knapen_aot/oldvideos/R_S_yt-fQgLKiz2tuM_14.mp4	0.0	256.9838078022003	2.5082411766052246
75	209.08201694488525	fix_post	2		12.0	73.0	2.5	/experiments/knapen_aot/oldvideos/R_S_yt-fQgLKiz2tuM_14.mp4	0.0	259.49204897880554	0.10002994537353516
76	209.1820468902588	fix_pre	0		11.0	74.0	2.5	/experiments/knapen_aot/oldvideos/R_S_Person_Going_Through_A_Bible.mp4	0.0	259.5920789241791	0.09162497520446777
76	209.2654459476471	response	0	2		74.0	2.5	/experiments/knapen_aot/oldvideos/R_S_Person_Going_Through_A_Bible.mp4	0.0	259.6754779815674	
76	209.27367186546326	movie	1		172.0	74.0	2.5	/experiments/knapen_aot/oldvideos/R_S_Person_Going_Through_A_Bible.mp4	0.0	259.68370389938354	2.5084590911865234
76	211.78213095664978	fix_post	2		12.0	74.0	2.5	/experiments/knapen_aot/oldvideos/R_S_Person_Going_Through_A_Bible.mp4	0.0	262.19216299057007	0.09979796409606934
77	211.88192892074585	fix_pre	0		28.0	75.0	2.5	blank	1.0	262.29196095466614	0.23346495628356934
77	212.10714983940125	response	0	2		75.0	2.5	blank	1.0	262.51718187332153	
77	212.11539387702942	movie	1		301.0	75.0	2.5	blank	1.0	262.5254259109497	2.508286952972412
77	214.62368083000183	fix_post	2		12.0	75.0	2.5	blank	1.0	265.0337128639221	0.10000300407409668
78	214.72368383407593	fix_pre	0		29.0	76.0	2.5	/experiments/knapen_aot/oldvideos/S_3dzza09VbXY_235.mp4	0.0	265.1337158679962	0.24162697792053223
78	214.95705795288086	response	0	2		76.0	2.5	/experiments/knapen_aot/oldvideos/S_3dzza09VbXY_235.mp4	0.0	265.36708998680115	
78	214.96531081199646	movie	1		301.0	76.0	2.5	/experiments/knapen_aot/oldvideos/S_3dzza09VbXY_235.mp4	0.0	265.37534284591675	2.5083560943603516
78	217.4736669063568	fix_post	2		12.0	76.0	2.5	/experiments/knapen_aot/oldvideos/S_3dzza09VbXY_235.mp4	0.0	267.8836989402771	0.10019993782043457
79	217.57386684417725	fix_pre	0		24.0	77.0	2.5	/experiments/knapen_aot/oldvideos/R_S_yt-Xkx53mjgj2E_30.mp4	0.0	267.98389887809753	0.19976592063903809
79	217.7654299736023	response	0	2		77.0	2.5	/experiments/knapen_aot/oldvideos/R_S_yt-Xkx53mjgj2E_30.mp4	0.0	268.1754620075226	
79	217.77363276481628	movie	1		301.0	77.0	2.5	/experiments/knapen_aot/oldvideos/R_S_yt-Xkx53mjgj2E_30.mp4	0.0	268.1836647987366	2.5087900161743164
79	220.2824227809906	fix_post	2		12.0	77.0	2.5	/experiments/knapen_aot/oldvideos/R_S_yt-Xkx53mjgj2E_30.mp4	0.0	270.6924548149109	0.09954404830932617
80	220.38196682929993	fix_pre	0		9.0	78.0	2.5	/experiments/knapen_aot/oldvideos/R_S_yt-i4kSCZ8rNC0_11.mp4	0.0	270.7919988632202	0.07490110397338867
80	220.4412338733673	response	0	2		78.0	2.5	/experiments/knapen_aot/oldvideos/R_S_yt-i4kSCZ8rNC0_11.mp4	0.0	270.8512659072876	
80	220.45686793327332	movie	1		301.0	78.0	2.5	/experiments/knapen_aot/oldvideos/R_S_yt-i4kSCZ8rNC0_11.mp4	0.0	270.8668999671936	2.5084738731384277
80	222.96534180641174	fix_post	2		12.0	78.0	2.5	/experiments/knapen_aot/oldvideos/R_S_yt-i4kSCZ8rNC0_11.mp4	0.0	273.37537384033203	0.09995317459106445
81	223.0652949810028	fix_pre	0		11.0	79.0	2.5	/experiments/knapen_aot/oldvideos/S_yt-2lnxIdOTxog_157.mp4	0.0	273.4753270149231	0.09168887138366699
81	223.1486837863922	response	0	2		79.0	2.5	/experiments/knapen_aot/oldvideos/S_yt-2lnxIdOTxog_157.mp4	0.0	273.5587158203125	
81	223.15698385238647	movie	1		301.0	79.0	2.5	/experiments/knapen_aot/oldvideos/S_yt-2lnxIdOTxog_157.mp4	0.0	273.56701588630676	2.508345127105713
81	225.6653289794922	fix_post	2		12.0	79.0	2.5	/experiments/knapen_aot/oldvideos/S_yt-2lnxIdOTxog_157.mp4	0.0	276.0753610134125	0.09993791580200195
81	225.73201084136963	response	2	2		79.0	2.5	/experiments/knapen_aot/oldvideos/S_yt-2lnxIdOTxog_157.mp4	0.0	276.1420428752899	
82	225.7652668952942	fix_pre	0		41.0	80.0	2.5	/experiments/knapen_aot/oldvideos/R_S_yt--vHa85DHvLU_31.mp4	0.0	276.1752989292145	0.34165287017822266
82	226.09865379333496	response	0	2		80.0	2.5	/experiments/knapen_aot/oldvideos/R_S_yt--vHa85DHvLU_31.mp4	0.0	276.50868582725525	
82	226.1069197654724	movie	1		301.0	80.0	2.5	/experiments/knapen_aot/oldvideos/R_S_yt--vHa85DHvLU_31.mp4	0.0	276.5169517993927	2.508441209793091
82	228.6153609752655	fix_post	2		12.0	80.0	2.5	/experiments/knapen_aot/oldvideos/R_S_yt--vHa85DHvLU_31.mp4	0.0	279.0253930091858	0.09997892379760742
83	228.7153398990631	fix_pre	0		6.0	81.0	2.5	/experiments/knapen_aot/oldvideos/S_ILSVRC2015_train_00405001.mp4	0.0	279.1253719329834	0.049928903579711914
83	228.75701689720154	response	0	2		81.0	2.5	/experiments/knapen_aot/oldvideos/S_ILSVRC2015_train_00405001.mp4	0.0	279.1670489311218	
83	228.76526880264282	movie	1		301.0	81.0	2.5	/experiments/knapen_aot/oldvideos/S_ILSVRC2015_train_00405001.mp4	0.0	279.1753008365631	2.5083320140838623
83	231.27360081672668	fix_post	2		12.0	81.0	2.5	/experiments/knapen_aot/oldvideos/S_ILSVRC2015_train_00405001.mp4	0.0	281.683632850647	0.09998703002929688
84	231.37358784675598	fix_pre	0		25.0	82.0	2.5	blank	1.0	281.78361988067627	0.2083580493927002
84	231.57371878623962	response	0	2		82.0	2.5	blank	1.0	281.9837508201599	
84	231.58194589614868	movie	1		301.0	82.0	2.5	blank	1.0	281.99197793006897	2.5083069801330566
84	234.09025287628174	fix_post	2		12.0	82.0	2.5	blank	1.0	284.500284910202	0.10012602806091309
85	234.19037890434265	fix_pre	0		22.0	83.0	2.5	/experiments/knapen_aot/oldvideos/S_pexels-cottonbro-9063801_1.mp4	0.0	284.60041093826294	0.18317699432373047
85	234.3653118610382	response	0	2		83.0	2.5	/experiments/knapen_aot/oldvideos/S_pexels-cottonbro-9063801_1.mp4	0.0	284.7753438949585	
85	234.37355589866638	movie	1		190.0	83.0	2.5	/experiments/knapen_aot/oldvideos/S_pexels-cottonbro-9063801_1.mp4	0.0	284.78358793258667	2.508341073989868
85	236.88189697265625	fix_post	2		12.0	83.0	2.5	/experiments/knapen_aot/oldvideos/S_pexels-cottonbro-9063801_1.mp4	0.0	287.29192900657654	0.10000991821289062
87	236.98190689086914	stim	0		304.0					287.39193892478943	2.536020040512085
87	237.0653839111328	response	0	2						287.4754159450531	
87	239.5121648311615	response	0	space						289.9221968650818	
