trial_nr	onset	event_type	phase	response	nr_frames	movie_index	movie_duration	movie_file	blank	onset_abs	duration
0	0.13514399528503418	stim	0		31.0					65.25949215888977	0.2570629119873047
0	0.3834519386291504	response	0	space						65.50780010223389	
1	0.39220690727233887	stim	0		121.0					65.51655507087708	1.0078520774841309
1	1.4000589847564697	stim	1		120.0					66.5244071483612	0.9996209144592285
1	2.166438102722168	response	1	space						67.2907862663269	
2	2.3996798992156982	fix_pre	0		81.0	0.0	2.5	/experiments/knapen_aot/videos/S_yt-dO0OuozAgt0_225.mp4	0.0	67.52402806282043	0.6749939918518066
2	3.066401958465576	response	0	space		0.0	2.5	/experiments/knapen_aot/videos/S_yt-dO0OuozAgt0_225.mp4	0.0	68.19075012207031	
2	3.074673891067505	movie	1		300.0	0.0	2.5	/experiments/knapen_aot/videos/S_yt-dO0OuozAgt0_225.mp4	0.0	68.19902205467224	2.508316993713379
2	5.582990884780884	fix_post	2		11.0	0.0	2.5	/experiments/knapen_aot/videos/S_yt-dO0OuozAgt0_225.mp4	0.0	70.70733904838562	0.09349703788757324
2	5.660098075866699	response	2	2		0.0	2.5	/experiments/knapen_aot/videos/S_yt-dO0OuozAgt0_225.mp4	0.0	70.78444623947144	
3	5.676487922668457	fix_pre	0		32.0	1.0	2.5	/experiments/knapen_aot/videos/R_S_comp_CH_C002_C005_PSNK_v05_SDR_PS_FINAL_20180709_SDR_2K_AVC.mp4	0.0	70.8008360862732	0.2647981643676758
3	5.925468921661377	response	0	2		1.0	2.5	/experiments/knapen_aot/videos/R_S_comp_CH_C002_C005_PSNK_v05_SDR_PS_FINAL_20180709_SDR_2K_AVC.mp4	0.0	71.04981708526611	
3	5.941286087036133	movie	1		186.0	1.0	2.5	/experiments/knapen_aot/videos/R_S_comp_CH_C002_C005_PSNK_v05_SDR_PS_FINAL_20180709_SDR_2K_AVC.mp4	0.0	71.06563425064087	2.5083680152893066
3	8.44965410232544	fix_post	2		12.0	1.0	2.5	/experiments/knapen_aot/videos/R_S_comp_CH_C002_C005_PSNK_v05_SDR_PS_FINAL_20180709_SDR_2K_AVC.mp4	0.0	73.57400226593018	0.09999394416809082
4	8.54964804649353	fix_pre	0		18.0	2.0	2.5	/experiments/knapen_aot/videos/R_S_yt-2V2tq9-O_Nc_1669.mp4	0.0	73.67399621009827	0.1499948501586914
4	8.691466093063354	response	0	2		2.0	2.5	/experiments/knapen_aot/videos/R_S_yt-2V2tq9-O_Nc_1669.mp4	0.0	73.81581425666809	
4	8.699642896652222	movie	1		301.0	2.0	2.5	/experiments/knapen_aot/videos/R_S_yt-2V2tq9-O_Nc_1669.mp4	0.0	73.82399106025696	2.508342981338501
4	11.207985877990723	fix_post	2		12.0	2.0	2.5	/experiments/knapen_aot/videos/R_S_yt-2V2tq9-O_Nc_1669.mp4	0.0	76.33233404159546	0.09999918937683105
5	11.307985067367554	fix_pre	0		19.0	3.0	2.5	/experiments/knapen_aot/videos/S_comp_C004_C003_PS_v01_SDR_PS_20180925_SDR_2K_AVC.mp4	0.0	76.43233323097229	0.15826892852783203
5	11.457958936691284	response	0	2		3.0	2.5	/experiments/knapen_aot/videos/S_comp_C004_C003_PS_v01_SDR_PS_20180925_SDR_2K_AVC.mp4	0.0	76.58230710029602	
5	11.466253995895386	movie	1		169.0	3.0	2.5	/experiments/knapen_aot/videos/S_comp_C004_C003_PS_v01_SDR_PS_20180925_SDR_2K_AVC.mp4	0.0	76.59060215950012	2.50838303565979
5	13.974637031555176	fix_post	2		12.0	3.0	2.5	/experiments/knapen_aot/videos/S_comp_C004_C003_PS_v01_SDR_PS_20180925_SDR_2K_AVC.mp4	0.0	79.09898519515991	0.09999394416809082
5	14.016577959060669	response	2	2		3.0	2.5	/experiments/knapen_aot/videos/S_comp_C004_C003_PS_v01_SDR_PS_20180925_SDR_2K_AVC.mp4	0.0	79.1409261226654	
6	14.074630975723267	fix_pre	0		29.0	4.0	2.5	/experiments/knapen_aot/videos/S_P007_C027_UHD_SDR_2K_AVC.mp4	0.0	79.198979139328	0.24164605140686035
6	14.308063983917236	response	0	2		4.0	2.5	/experiments/knapen_aot/videos/S_P007_C027_UHD_SDR_2K_AVC.mp4	0.0	79.43241214752197	
6	14.316277027130127	movie	1		168.0	4.0	2.5	/experiments/knapen_aot/videos/S_P007_C027_UHD_SDR_2K_AVC.mp4	0.0	79.44062519073486	2.508378028869629
6	16.824655055999756	fix_post	2		12.0	4.0	2.5	/experiments/knapen_aot/videos/S_P007_C027_UHD_SDR_2K_AVC.mp4	0.0	81.94900321960449	0.09998798370361328
6	16.849766969680786	response	2	2		4.0	2.5	/experiments/knapen_aot/videos/S_P007_C027_UHD_SDR_2K_AVC.mp4	0.0	81.97411513328552	
7	16.92464303970337	fix_pre	0		24.0	5.0	2.5	/experiments/knapen_aot/videos/S_yt-bshHX6vWLtA_84.mp4	0.0	82.0489912033081	0.19996905326843262
7	17.11639404296875	response	0	2		5.0	2.5	/experiments/knapen_aot/videos/S_yt-bshHX6vWLtA_84.mp4	0.0	82.24074220657349	
7	17.1246120929718	movie	1		301.0	5.0	2.5	/experiments/knapen_aot/videos/S_yt-bshHX6vWLtA_84.mp4	0.0	82.24896025657654	2.5083248615264893
7	19.63293695449829	fix_post	2		12.0	5.0	2.5	/experiments/knapen_aot/videos/S_yt-bshHX6vWLtA_84.mp4	0.0	84.75728511810303	0.10002613067626953
8	19.73296308517456	fix_pre	0		18.0	6.0	2.5	blank	1.0	84.8573112487793	0.149979829788208
8	19.874687910079956	response	0	2		6.0	2.5	blank	1.0	84.99903607368469	
8	19.88294291496277	movie	1		301.0	6.0	2.5	blank	1.0	85.0072910785675	2.508342981338501
8	22.39128589630127	fix_post	2		12.0	6.0	2.5	blank	1.0	87.515634059906	0.09998917579650879
9	22.49127507209778	fix_pre	0		26.0	7.0	2.5	/experiments/knapen_aot/videos/S_PA_A002_C009_SDR_20190730_ALT01_SDR_2K_AVC.mp4	0.0	87.61562323570251	0.21663284301757812
9	22.699891090393066	response	0	2		7.0	2.5	/experiments/knapen_aot/videos/S_PA_A002_C009_SDR_20190730_ALT01_SDR_2K_AVC.mp4	0.0	87.8242392539978	
9	22.707907915115356	movie	1		167.0	7.0	2.5	/experiments/knapen_aot/videos/S_PA_A002_C009_SDR_20190730_ALT01_SDR_2K_AVC.mp4	0.0	87.83225607872009	2.5083160400390625
9	25.21622395515442	fix_post	2		12.0	7.0	2.5	/experiments/knapen_aot/videos/S_PA_A002_C009_SDR_20190730_ALT01_SDR_2K_AVC.mp4	0.0	90.34057211875916	0.10004496574401855
10	25.316268920898438	fix_pre	0		6.0	8.0	2.5	/experiments/knapen_aot/videos/S_yt-fja6A_3ys_w_116.mp4	0.0	90.44061708450317	0.04994702339172363
10	25.35810899734497	response	0	2		8.0	2.5	/experiments/knapen_aot/videos/S_yt-fja6A_3ys_w_116.mp4	0.0	90.4824571609497	
10	25.36621594429016	movie	1		299.0	8.0	2.5	/experiments/knapen_aot/videos/S_yt-fja6A_3ys_w_116.mp4	0.0	90.4905641078949	2.508397102355957
10	27.874613046646118	fix_post	2		12.0	8.0	2.5	/experiments/knapen_aot/videos/S_yt-fja6A_3ys_w_116.mp4	0.0	92.99896121025085	0.10030984878540039
11	27.97492289543152	fix_pre	0		22.0	9.0	2.5	/experiments/knapen_aot/videos/R_S_yt-5fZZrdwkFx0_28.mp4	0.0	93.09927105903625	0.1830291748046875
11	28.149730920791626	response	0	2		9.0	2.5	/experiments/knapen_aot/videos/R_S_yt-5fZZrdwkFx0_28.mp4	0.0	93.27407908439636	
11	28.157952070236206	movie	1		301.0	9.0	2.5	/experiments/knapen_aot/videos/R_S_yt-5fZZrdwkFx0_28.mp4	0.0	93.28230023384094	2.508280038833618
11	30.666232109069824	fix_post	2		12.0	9.0	2.5	/experiments/knapen_aot/videos/R_S_yt-5fZZrdwkFx0_28.mp4	0.0	95.79058027267456	0.1003258228302002
12	30.766557931900024	fix_pre	0		21.0	10.0	2.5	/experiments/knapen_aot/videos/S_ILSVRC2015_train_00001011.mp4	0.0	95.89090609550476	0.17466306686401367
12	30.93301296234131	response	0	2		10.0	2.5	/experiments/knapen_aot/videos/S_ILSVRC2015_train_00001011.mp4	0.0	96.05736112594604	
12	30.941220998764038	movie	1		301.0	10.0	2.5	/experiments/knapen_aot/videos/S_ILSVRC2015_train_00001011.mp4	0.0	96.06556916236877	2.5083301067352295
12	33.44955110549927	fix_post	2		12.0	10.0	2.5	/experiments/knapen_aot/videos/S_ILSVRC2015_train_00001011.mp4	0.0	98.573899269104	0.0999598503112793
13	33.54951095581055	fix_pre	0		7.0	11.0	2.5	/experiments/knapen_aot/videos/R_S_yt-BlWfK4MkjWA_469.mp4	0.0	98.67385911941528	0.058377981185913086
13	33.60025405883789	response	0	2		11.0	2.5	/experiments/knapen_aot/videos/R_S_yt-BlWfK4MkjWA_469.mp4	0.0	98.72460222244263	
13	33.60788893699646	movie	1		301.0	11.0	2.5	/experiments/knapen_aot/videos/R_S_yt-BlWfK4MkjWA_469.mp4	0.0	98.7322371006012	2.508305072784424
13	36.116194009780884	fix_post	2		12.0	11.0	2.5	/experiments/knapen_aot/videos/R_S_yt-BlWfK4MkjWA_469.mp4	0.0	101.24054217338562	0.10002303123474121
14	36.216217041015625	fix_pre	0		18.0	12.0	2.5	/experiments/knapen_aot/videos/R_S_P005_C002_UHD_SDR_2K_AVC.mp4	0.0	101.34056520462036	0.14998197555541992
14	36.35791993141174	response	0	2		12.0	2.5	/experiments/knapen_aot/videos/R_S_P005_C002_UHD_SDR_2K_AVC.mp4	0.0	101.48226809501648	
14	36.366199016571045	movie	1		171.0	12.0	2.5	/experiments/knapen_aot/videos/R_S_P005_C002_UHD_SDR_2K_AVC.mp4	0.0	101.49054718017578	2.5082359313964844
14	38.87443494796753	fix_post	2		12.0	12.0	2.5	/experiments/knapen_aot/videos/R_S_P005_C002_UHD_SDR_2K_AVC.mp4	0.0	103.99878311157227	0.10036993026733398
15	38.97480487823486	fix_pre	0		17.0	13.0	2.5	/experiments/knapen_aot/videos/S_yt-OEY9O2MglQM_7.mp4	0.0	104.0991530418396	0.1413731575012207
15	39.1079421043396	response	0	2		13.0	2.5	/experiments/knapen_aot/videos/S_yt-OEY9O2MglQM_7.mp4	0.0	104.23229026794434	
15	39.116178035736084	movie	1		301.0	13.0	2.5	/experiments/knapen_aot/videos/S_yt-OEY9O2MglQM_7.mp4	0.0	104.24052619934082	2.50827693939209
15	41.624454975128174	fix_post	2		12.0	13.0	2.5	/experiments/knapen_aot/videos/S_yt-OEY9O2MglQM_7.mp4	0.0	106.74880313873291	0.10032105445861816
16	41.72477602958679	fix_pre	0		15.0	14.0	2.5	blank	1.0	106.84912419319153	0.12496399879455566
16	41.84130501747131	response	0	2		14.0	2.5	blank	1.0	106.96565318107605	
16	41.84974002838135	movie	1		301.0	14.0	2.5	blank	1.0	106.97408819198608	2.508018970489502
16	44.09121799468994	response	1	2		14.0	2.5	blank	1.0	109.21556615829468	
16	44.35775899887085	fix_post	2		12.0	14.0	2.5	blank	1.0	109.48210716247559	0.10010409355163574
17	44.457863092422485	fix_pre	0		12.0	15.0	2.5	/experiments/knapen_aot/videos/S_yt-fymgyhmYnMI_76.mp4	0.0	109.58221125602722	0.10022497177124023
17	44.54954504966736	response	0	2		15.0	2.5	/experiments/knapen_aot/videos/S_yt-fymgyhmYnMI_76.mp4	0.0	109.6738932132721	
17	44.558088064193726	movie	1		301.0	15.0	2.5	/experiments/knapen_aot/videos/S_yt-fymgyhmYnMI_76.mp4	0.0	109.68243622779846	2.508018970489502
17	47.06610703468323	fix_post	2		12.0	15.0	2.5	/experiments/knapen_aot/videos/S_yt-fymgyhmYnMI_76.mp4	0.0	112.19045519828796	0.09999203681945801
18	47.166099071502686	fix_pre	0		8.0	16.0	2.5	/experiments/knapen_aot/videos/S_xq822dX6DDM_1.mp4	0.0	112.29044723510742	0.06666994094848633
18	47.22488307952881	response	0	2		16.0	2.5	/experiments/knapen_aot/videos/S_xq822dX6DDM_1.mp4	0.0	112.34923124313354	
18	47.23276901245117	movie	1		301.0	16.0	2.5	/experiments/knapen_aot/videos/S_xq822dX6DDM_1.mp4	0.0	112.35711717605591	2.5083940029144287
18	49.7411630153656	fix_post	2		12.0	16.0	2.5	/experiments/knapen_aot/videos/S_xq822dX6DDM_1.mp4	0.0	114.86551117897034	0.0999610424041748
19	49.841124057769775	fix_pre	0		14.0	17.0	2.5	/experiments/knapen_aot/videos/R_S_yt-K_gHa2x2OQA_319.mp4	0.0	114.96547222137451	0.11662888526916504
19	49.949609994888306	response	0	2		17.0	2.5	/experiments/knapen_aot/videos/R_S_yt-K_gHa2x2OQA_319.mp4	0.0	115.07395815849304	
19	49.95775294303894	movie	1		301.0	17.0	2.5	/experiments/knapen_aot/videos/R_S_yt-K_gHa2x2OQA_319.mp4	0.0	115.08210110664368	2.5083560943603516
19	52.46610903739929	fix_post	2		12.0	17.0	2.5	/experiments/knapen_aot/videos/R_S_yt-K_gHa2x2OQA_319.mp4	0.0	117.59045720100403	0.09996390342712402
20	52.566072940826416	fix_pre	0		13.0	18.0	2.5	/experiments/knapen_aot/videos/S_yt-jeVeQBuzbEQ_120.mp4	0.0	117.69042110443115	0.10828709602355957
20	52.66625094413757	response	0	2		18.0	2.5	/experiments/knapen_aot/videos/S_yt-jeVeQBuzbEQ_120.mp4	0.0	117.79059910774231	
20	52.674360036849976	movie	1		301.0	18.0	2.5	/experiments/knapen_aot/videos/S_yt-jeVeQBuzbEQ_120.mp4	0.0	117.79870820045471	2.5085718631744385
20	55.182931900024414	fix_post	2		12.0	18.0	2.5	/experiments/knapen_aot/videos/S_yt-jeVeQBuzbEQ_120.mp4	0.0	120.30728006362915	0.09978699684143066
21	55.282718896865845	fix_pre	0		17.0	19.0	2.5	/experiments/knapen_aot/videos/S_pexels-koolshooters-7689098.mp4	0.0	120.40706706047058	0.14164400100708008
21	55.41616988182068	response	0	2		19.0	2.5	/experiments/knapen_aot/videos/S_pexels-koolshooters-7689098.mp4	0.0	120.54051804542542	
21	55.424362897872925	movie	1		167.0	19.0	2.5	/experiments/knapen_aot/videos/S_pexels-koolshooters-7689098.mp4	0.0	120.54871106147766	2.50870418548584
21	57.933067083358765	fix_post	2		12.0	19.0	2.5	/experiments/knapen_aot/videos/S_pexels-koolshooters-7689098.mp4	0.0	123.0574152469635	0.09970688819885254
22	58.03277397155762	fix_pre	0		4.0	20.0	2.5	blank	1.0	123.15712213516235	0.033386945724487305
22	58.05820298194885	response	0	2		20.0	2.5	blank	1.0	123.18255114555359	
22	58.066160917282104	movie	1		301.0	20.0	2.5	blank	1.0	123.19050908088684	2.508294105529785
22	60.57445502281189	fix_post	2		12.0	20.0	2.5	blank	1.0	125.69880318641663	0.10005903244018555
23	60.674514055252075	fix_pre	0		26.0	21.0	2.5	/experiments/knapen_aot/videos/S_ILSVRC2015_train_00578000.mp4	0.0	125.79886221885681	0.21672987937927246
23	60.87539005279541	response	0	2		21.0	2.5	/experiments/knapen_aot/videos/S_ILSVRC2015_train_00578000.mp4	0.0	125.99973821640015	
23	60.89124393463135	movie	1		301.0	21.0	2.5	/experiments/knapen_aot/videos/S_ILSVRC2015_train_00578000.mp4	0.0	126.01559209823608	2.508213996887207
23	63.399457931518555	fix_post	2		12.0	21.0	2.5	/experiments/knapen_aot/videos/S_ILSVRC2015_train_00578000.mp4	0.0	128.5238060951233	0.09993910789489746
24	63.49939703941345	fix_pre	0		6.0	22.0	2.5	/experiments/knapen_aot/videos/S_yt-XRQ_LSGGr3Y_712.mp4	0.0	128.6237452030182	0.051576852798461914
24	63.541301012039185	response	0	2		22.0	2.5	/experiments/knapen_aot/videos/S_yt-XRQ_LSGGr3Y_712.mp4	0.0	128.66564917564392	
24	63.550973892211914	movie	1		301.0	22.0	2.5	/experiments/knapen_aot/videos/S_yt-XRQ_LSGGr3Y_712.mp4	0.0	128.67532205581665	2.5068600177764893
24	66.0578339099884	fix_post	2		12.0	22.0	2.5	/experiments/knapen_aot/videos/S_yt-XRQ_LSGGr3Y_712.mp4	0.0	131.18218207359314	0.09980297088623047
25	66.15763688087463	fix_pre	0		8.0	23.0	2.5	/experiments/knapen_aot/videos/S_production_ID_3927047.mp4	0.0	131.28198504447937	0.0675971508026123
25	66.20941090583801	response	0	2		23.0	2.5	/experiments/knapen_aot/videos/S_production_ID_3927047.mp4	0.0	131.33375906944275	
25	66.22523403167725	movie	1		190.0	23.0	2.5	/experiments/knapen_aot/videos/S_production_ID_3927047.mp4	0.0	131.34958219528198	2.5075290203094482
25	68.7327630519867	fix_post	2		12.0	23.0	2.5	/experiments/knapen_aot/videos/S_production_ID_3927047.mp4	0.0	133.85711121559143	0.09995293617248535
26	68.83271598815918	fix_pre	0		75.0	24.0	2.5	/experiments/knapen_aot/videos/R_S_yt-9pYW_TqVpU4_43.mp4	0.0	133.95706415176392	0.6249608993530273
26	69.44955396652222	response	0	2		24.0	2.5	/experiments/knapen_aot/videos/R_S_yt-9pYW_TqVpU4_43.mp4	0.0	134.57390213012695	
26	69.4576768875122	movie	1		301.0	24.0	2.5	/experiments/knapen_aot/videos/R_S_yt-9pYW_TqVpU4_43.mp4	0.0	134.58202505111694	2.5083580017089844
26	71.96603488922119	fix_post	2		12.0	24.0	2.5	/experiments/knapen_aot/videos/R_S_yt-9pYW_TqVpU4_43.mp4	0.0	137.09038305282593	0.09993100166320801
27	72.0659658908844	fix_pre	0		11.0	25.0	2.5	/experiments/knapen_aot/videos/S_yt-khmJAQuCRRE_119.mp4	0.0	137.19031405448914	0.09161901473999023
27	72.14195990562439	response	0	2		25.0	2.5	/experiments/knapen_aot/videos/S_yt-khmJAQuCRRE_119.mp4	0.0	137.26630806922913	
27	72.15758490562439	movie	1		300.0	25.0	2.5	/experiments/knapen_aot/videos/S_yt-khmJAQuCRRE_119.mp4	0.0	137.28193306922913	2.5084049701690674
27	74.66598987579346	fix_post	2		12.0	25.0	2.5	/experiments/knapen_aot/videos/S_yt-khmJAQuCRRE_119.mp4	0.0	139.7903380393982	0.10017204284667969
28	74.76616191864014	fix_pre	0		13.0	26.0	2.5	blank	1.0	139.89051008224487	0.10822916030883789
28	74.86613011360168	response	0	2		26.0	2.5	blank	1.0	139.99047827720642	
28	74.87439107894897	movie	1		301.0	26.0	2.5	blank	1.0	139.9987392425537	2.5082168579101562
28	77.38260793685913	fix_post	2		12.0	26.0	2.5	blank	1.0	142.50695610046387	0.10000109672546387
29	77.4826090335846	fix_pre	0		29.0	27.0	2.5	/experiments/knapen_aot/videos/S_ILSVRC2015_train_00572000.mp4	0.0	142.60695719718933	0.24175405502319336
29	77.71616291999817	response	0	2		27.0	2.5	/experiments/knapen_aot/videos/S_ILSVRC2015_train_00572000.mp4	0.0	142.8405110836029	
29	77.72436308860779	movie	1		300.0	27.0	2.5	/experiments/knapen_aot/videos/S_ILSVRC2015_train_00572000.mp4	0.0	142.84871125221252	2.5081839561462402
29	80.23254704475403	fix_post	2		12.0	27.0	2.5	/experiments/knapen_aot/videos/S_ILSVRC2015_train_00572000.mp4	0.0	145.35689520835876	0.10004901885986328
30	80.33259606361389	fix_pre	0		10.0	28.0	2.5	/experiments/knapen_aot/videos/R_S_b2-2.mp4	0.0	145.45694422721863	0.08328604698181152
30	80.40774393081665	response	0	2		28.0	2.5	/experiments/knapen_aot/videos/R_S_b2-2.mp4	0.0	145.5320920944214	
30	80.4158821105957	movie	1		172.0	28.0	2.5	/experiments/knapen_aot/videos/R_S_b2-2.mp4	0.0	145.54023027420044	2.508405923843384
30	82.92428803443909	fix_post	2		12.0	28.0	2.5	/experiments/knapen_aot/videos/R_S_b2-2.mp4	0.0	148.04863619804382	0.10000896453857422
31	83.02429699897766	fix_pre	0		15.0	29.0	2.5	/experiments/knapen_aot/videos/S_dwi2oPzQ1Wo_48.mp4	0.0	148.1486451625824	0.1249549388885498
31	83.1411030292511	response	0	2		29.0	2.5	/experiments/knapen_aot/videos/S_dwi2oPzQ1Wo_48.mp4	0.0	148.26545119285583	
31	83.14925193786621	movie	1		301.0	29.0	2.5	/experiments/knapen_aot/videos/S_dwi2oPzQ1Wo_48.mp4	0.0	148.27360010147095	2.508312940597534
31	85.65756487846375	fix_post	2		12.0	29.0	2.5	/experiments/knapen_aot/videos/S_dwi2oPzQ1Wo_48.mp4	0.0	150.78191304206848	0.10001707077026367
32	85.75758194923401	fix_pre	0		27.0	30.0	2.5	/experiments/knapen_aot/videos/S_pexels-mart-production-7698911.mp4	0.0	150.88193011283875	0.2249910831451416
32	85.9744520187378	response	0	2		30.0	2.5	/experiments/knapen_aot/videos/S_pexels-mart-production-7698911.mp4	0.0	151.09880018234253	
32	85.98257303237915	movie	1		210.0	30.0	2.5	/experiments/knapen_aot/videos/S_pexels-mart-production-7698911.mp4	0.0	151.1069211959839	2.50838303565979
32	88.49095606803894	fix_post	2		12.0	30.0	2.5	/experiments/knapen_aot/videos/S_pexels-mart-production-7698911.mp4	0.0	153.61530423164368	0.09995388984680176
33	88.59090995788574	fix_pre	0		41.0	31.0	2.5	/experiments/knapen_aot/videos/S_pexels-koolshooters-7327405.mp4	0.0	153.71525812149048	0.3417060375213623
33	88.92440795898438	response	0	2		31.0	2.5	/experiments/knapen_aot/videos/S_pexels-koolshooters-7327405.mp4	0.0	154.0487561225891	
33	88.9326159954071	movie	1		170.0	31.0	2.5	/experiments/knapen_aot/videos/S_pexels-koolshooters-7327405.mp4	0.0	154.05696415901184	2.5083119869232178
33	91.44092798233032	fix_post	2		12.0	31.0	2.5	/experiments/knapen_aot/videos/S_pexels-koolshooters-7327405.mp4	0.0	156.56527614593506	0.1001729965209961
34	91.54110097885132	fix_pre	0		9.0	32.0	2.5	/experiments/knapen_aot/videos/R_S_ILSVRC2015_train_00219003.mp4	0.0	156.66544914245605	0.0747840404510498
34	91.6077470779419	response	0	2		32.0	2.5	/experiments/knapen_aot/videos/R_S_ILSVRC2015_train_00219003.mp4	0.0	156.73209524154663	
34	91.61588501930237	movie	1		301.0	32.0	2.5	/experiments/knapen_aot/videos/R_S_ILSVRC2015_train_00219003.mp4	0.0	156.7402331829071	2.5083608627319336
34	94.1242458820343	fix_post	2		12.0	32.0	2.5	/experiments/knapen_aot/videos/R_S_ILSVRC2015_train_00219003.mp4	0.0	159.24859404563904	0.10004520416259766
35	94.2242910861969	fix_pre	0		27.0	33.0	2.5	/experiments/knapen_aot/videos/S_comp_C004_C003_PS_v01_SDR_PS_20180925_SDR_2K_AVC.mp4	0.0	159.34863924980164	0.2249279022216797
35	94.44104599952698	response	0	2		33.0	2.5	/experiments/knapen_aot/videos/S_comp_C004_C003_PS_v01_SDR_PS_20180925_SDR_2K_AVC.mp4	0.0	159.5653941631317	
35	94.44921898841858	movie	1		167.0	33.0	2.5	/experiments/knapen_aot/videos/S_comp_C004_C003_PS_v01_SDR_PS_20180925_SDR_2K_AVC.mp4	0.0	159.57356715202332	2.5083789825439453
35	96.95759797096252	fix_post	2		12.0	33.0	2.5	/experiments/knapen_aot/videos/S_comp_C004_C003_PS_v01_SDR_PS_20180925_SDR_2K_AVC.mp4	0.0	162.08194613456726	0.09995913505554199
35	96.9674870967865	response	2	2		33.0	2.5	/experiments/knapen_aot/videos/S_comp_C004_C003_PS_v01_SDR_PS_20180925_SDR_2K_AVC.mp4	0.0	162.09183526039124	
36	97.05755710601807	fix_pre	0		39.0	34.0	2.5	/experiments/knapen_aot/videos/R_S_yt-Id-f63kUHsE_20.mp4	0.0	162.1819052696228	0.3249979019165039
36	97.37435293197632	response	0	2		34.0	2.5	/experiments/knapen_aot/videos/R_S_yt-Id-f63kUHsE_20.mp4	0.0	162.49870109558105	
36	97.38255500793457	movie	1		301.0	34.0	2.5	/experiments/knapen_aot/videos/R_S_yt-Id-f63kUHsE_20.mp4	0.0	162.5069031715393	2.508378028869629
36	99.8909330368042	fix_post	2		12.0	34.0	2.5	/experiments/knapen_aot/videos/R_S_yt-Id-f63kUHsE_20.mp4	0.0	165.01528120040894	0.09992098808288574
37	99.99085402488708	fix_pre	0		22.0	35.0	2.5	blank	1.0	165.11520218849182	0.1833350658416748
37	100.16606998443604	response	0	2		35.0	2.5	blank	1.0	165.29041814804077	
37	100.17418909072876	movie	1		301.0	35.0	2.5	blank	1.0	165.2985372543335	2.508328914642334
37	102.6825180053711	fix_post	2		12.0	35.0	2.5	blank	1.0	167.80686616897583	0.09998297691345215
38	102.78250098228455	fix_pre	0		24.0	36.0	2.5	/experiments/knapen_aot/videos/R_S_yt-J8E_BpSJMpk_5.mp4	0.0	167.90684914588928	0.20004606246948242
38	102.97429704666138	response	0	2		36.0	2.5	/experiments/knapen_aot/videos/R_S_yt-J8E_BpSJMpk_5.mp4	0.0	168.0986452102661	
38	102.98254704475403	movie	1		301.0	36.0	2.5	/experiments/knapen_aot/videos/R_S_yt-J8E_BpSJMpk_5.mp4	0.0	168.10689520835876	2.508357048034668
38	105.4909040927887	fix_post	2		11.0	36.0	2.5	/experiments/knapen_aot/videos/R_S_yt-J8E_BpSJMpk_5.mp4	0.0	170.61525225639343	0.10131382942199707
39	105.5922179222107	fix_pre	0		13.0	37.0	2.5	/experiments/knapen_aot/videos/R_S_SPNvf6JCjGw_123.mp4	0.0	170.71656608581543	0.10697817802429199
39	105.69105911254883	response	0	2		37.0	2.5	/experiments/knapen_aot/videos/R_S_SPNvf6JCjGw_123.mp4	0.0	170.81540727615356	
39	105.69919610023499	movie	1		300.0	37.0	2.5	/experiments/knapen_aot/videos/R_S_SPNvf6JCjGw_123.mp4	0.0	170.82354426383972	2.5082778930664062
39	108.20747399330139	fix_post	2		12.0	37.0	2.5	/experiments/knapen_aot/videos/R_S_SPNvf6JCjGw_123.mp4	0.0	173.33182215690613	0.10002708435058594
39	108.29087209701538	response	2	2		37.0	2.5	/experiments/knapen_aot/videos/R_S_SPNvf6JCjGw_123.mp4	0.0	173.41522026062012	
40	108.30750107765198	fix_pre	0		48.0	38.0	2.5	/experiments/knapen_aot/videos/R_S_yt-Tn563IPZfg4_55.mp4	0.0	173.4318492412567	0.4000129699707031
40	108.69927501678467	response	0	2		38.0	2.5	/experiments/knapen_aot/videos/R_S_yt-Tn563IPZfg4_55.mp4	0.0	173.8236231803894	
40	108.70751404762268	movie	1		301.0	38.0	2.5	/experiments/knapen_aot/videos/R_S_yt-Tn563IPZfg4_55.mp4	0.0	173.83186221122742	2.508291006088257
40	111.21580505371094	fix_post	2		12.0	38.0	2.5	/experiments/knapen_aot/videos/R_S_yt-Tn563IPZfg4_55.mp4	0.0	176.34015321731567	0.10000300407409668
41	111.31580805778503	fix_pre	0		20.0	39.0	2.5	/experiments/knapen_aot/videos/S_yt-tHBOlYmaBuk_96.mp4	0.0	176.44015622138977	0.16666293144226074
41	111.47428107261658	response	0	2		39.0	2.5	/experiments/knapen_aot/videos/S_yt-tHBOlYmaBuk_96.mp4	0.0	176.5986292362213	
41	111.4824709892273	movie	1		301.0	39.0	2.5	/experiments/knapen_aot/videos/S_yt-tHBOlYmaBuk_96.mp4	0.0	176.60681915283203	2.5083529949188232
41	113.99082398414612	fix_post	2		12.0	39.0	2.5	/experiments/knapen_aot/videos/S_yt-tHBOlYmaBuk_96.mp4	0.0	179.11517214775085	0.1001589298248291
42	114.09098291397095	fix_pre	0		18.0	40.0	2.5	blank	1.0	179.21533107757568	0.1498119831085205
42	114.23266291618347	response	0	2		40.0	2.5	blank	1.0	179.3570110797882	
42	114.24079489707947	movie	1		301.0	40.0	2.5	blank	1.0	179.3651430606842	2.508388042449951
42	116.74918293952942	fix_post	2		12.0	40.0	2.5	blank	1.0	181.87353110313416	0.09998703002929688
43	116.84916996955872	fix_pre	0		24.0	41.0	2.5	/experiments/knapen_aot/videos/R_S_yt-PYHK810V_n8_1375.mp4	0.0	181.97351813316345	0.20125412940979004
43	117.04095506668091	response	0	2		41.0	2.5	/experiments/knapen_aot/videos/R_S_yt-PYHK810V_n8_1375.mp4	0.0	182.16530323028564	
43	117.0504240989685	movie	1		301.0	41.0	2.5	/experiments/knapen_aot/videos/R_S_yt-PYHK810V_n8_1375.mp4	0.0	182.17477226257324	2.5070948600769043
43	119.55751895904541	fix_post	2		12.0	41.0	2.5	/experiments/knapen_aot/videos/R_S_yt-PYHK810V_n8_1375.mp4	0.0	184.68186712265015	0.09998512268066406
44	119.65750408172607	fix_pre	0		11.0	42.0	2.5	/experiments/knapen_aot/videos/S_production_ID_4269182.mp4	0.0	184.7818522453308	0.09166598320007324
44	119.74093198776245	response	0	2		42.0	2.5	/experiments/knapen_aot/videos/S_production_ID_4269182.mp4	0.0	184.8652801513672	
44	119.74917006492615	movie	1		192.0	42.0	2.5	/experiments/knapen_aot/videos/S_production_ID_4269182.mp4	0.0	184.87351822853088	2.5083258152008057
44	122.25749588012695	fix_post	2		12.0	42.0	2.5	/experiments/knapen_aot/videos/S_production_ID_4269182.mp4	0.0	187.3818440437317	0.09990620613098145
45	122.35740208625793	fix_pre	0		19.0	43.0	2.5	/experiments/knapen_aot/videos/R_S_BO_A014_C023_SDR_20190717_F240F3709_SDR_2K_AVC.mp4	0.0	187.48175024986267	0.15843987464904785
45	122.50012302398682	response	0	2		43.0	2.5	/experiments/knapen_aot/videos/R_S_BO_A014_C023_SDR_20190717_F240F3709_SDR_2K_AVC.mp4	0.0	187.62447118759155	
45	122.51584196090698	movie	1		169.0	43.0	2.5	/experiments/knapen_aot/videos/R_S_BO_A014_C023_SDR_20190717_F240F3709_SDR_2K_AVC.mp4	0.0	187.64019012451172	2.508316993713379
45	125.02415895462036	fix_post	2		12.0	43.0	2.5	/experiments/knapen_aot/videos/R_S_BO_A014_C023_SDR_20190717_F240F3709_SDR_2K_AVC.mp4	0.0	190.1485071182251	0.09995698928833008
46	125.12411594390869	fix_pre	0		4.0	44.0	2.5	/experiments/knapen_aot/videos/S_comp_LA_A008_C004_ALTB_ED_FROM_FLAME_RETIME_v46_SDR_PS_20180917_SDR_2K_AVC.mp4	0.0	190.24846410751343	0.03338909149169922
46	125.14927005767822	response	0	2		44.0	2.5	/experiments/knapen_aot/videos/S_comp_LA_A008_C004_ALTB_ED_FROM_FLAME_RETIME_v46_SDR_PS_20180917_SDR_2K_AVC.mp4	0.0	190.27361822128296	
46	125.15750503540039	movie	1		169.0	44.0	2.5	/experiments/knapen_aot/videos/S_comp_LA_A008_C004_ALTB_ED_FROM_FLAME_RETIME_v46_SDR_PS_20180917_SDR_2K_AVC.mp4	0.0	190.28185319900513	2.5083019733428955
46	127.66580700874329	fix_post	2		11.0	44.0	2.5	/experiments/knapen_aot/videos/S_comp_LA_A008_C004_ALTB_ED_FROM_FLAME_RETIME_v46_SDR_PS_20180917_SDR_2K_AVC.mp4	0.0	192.79015517234802	0.09291410446166992
46	127.72603392601013	response	2	2		44.0	2.5	/experiments/knapen_aot/videos/S_comp_LA_A008_C004_ALTB_ED_FROM_FLAME_RETIME_v46_SDR_PS_20180917_SDR_2K_AVC.mp4	0.0	192.85038208961487	
47	127.75872111320496	fix_pre	0		43.0	45.0	2.5	/experiments/knapen_aot/videos/R_S_production_ID_3943334.mp4	0.0	192.8830692768097	0.3570737838745117
47	128.10755610466003	response	0	2		45.0	2.5	/experiments/knapen_aot/videos/R_S_production_ID_3943334.mp4	0.0	193.23190426826477	
47	128.11579489707947	movie	1		203.0	45.0	2.5	/experiments/knapen_aot/videos/R_S_production_ID_3943334.mp4	0.0	193.2401430606842	2.508350133895874
47	130.62414503097534	fix_post	2		12.0	45.0	2.5	/experiments/knapen_aot/videos/R_S_production_ID_3943334.mp4	0.0	195.74849319458008	0.10002994537353516
48	130.72417497634888	fix_pre	0		8.0	46.0	2.5	/experiments/knapen_aot/videos/S_yt-fCjjH_4i8Fg_115.mp4	0.0	195.8485231399536	0.0666038990020752
48	130.78256607055664	response	0	2		46.0	2.5	/experiments/knapen_aot/videos/S_yt-fCjjH_4i8Fg_115.mp4	0.0	195.90691423416138	
48	130.79077887535095	movie	1		300.0	46.0	2.5	/experiments/knapen_aot/videos/S_yt-fCjjH_4i8Fg_115.mp4	0.0	195.9151270389557	2.508223056793213
48	133.29900193214417	fix_post	2		12.0	46.0	2.5	/experiments/knapen_aot/videos/S_yt-fCjjH_4i8Fg_115.mp4	0.0	198.4233500957489	0.10008502006530762
49	133.39908695220947	fix_pre	0		23.0	47.0	2.5	/experiments/knapen_aot/videos/R_S_bing-www_dailymotion_com_video_x64hzm7_8.mp4	0.0	198.5234351158142	0.1928081512451172
49	133.58263492584229	response	0	2		47.0	2.5	/experiments/knapen_aot/videos/R_S_bing-www_dailymotion_com_video_x64hzm7_8.mp4	0.0	198.70698308944702	
49	133.5918951034546	movie	1		174.0	47.0	2.5	/experiments/knapen_aot/videos/R_S_bing-www_dailymotion_com_video_x64hzm7_8.mp4	0.0	198.71624326705933	2.5073018074035645
49	136.09919691085815	fix_post	2		12.0	47.0	2.5	/experiments/knapen_aot/videos/R_S_bing-www_dailymotion_com_video_x64hzm7_8.mp4	0.0	201.2235450744629	0.09992218017578125
50	136.19911909103394	fix_pre	0		26.0	48.0	2.5	/experiments/knapen_aot/videos/S_yt-SCzpSxzt0TA_46.mp4	0.0	201.32346725463867	0.216688871383667
50	136.40763902664185	response	0	2		48.0	2.5	/experiments/knapen_aot/videos/S_yt-SCzpSxzt0TA_46.mp4	0.0	201.53198719024658	
50	136.4158079624176	movie	1		301.0	48.0	2.5	/experiments/knapen_aot/videos/S_yt-SCzpSxzt0TA_46.mp4	0.0	201.54015612602234	2.5082640647888184
50	138.92407202720642	fix_post	2		12.0	48.0	2.5	/experiments/knapen_aot/videos/S_yt-SCzpSxzt0TA_46.mp4	0.0	204.04842019081116	0.10005688667297363
51	139.0241289138794	fix_pre	0		34.0	49.0	2.5	blank	1.0	204.14847707748413	0.28326916694641113
51	139.29920506477356	response	0	2		49.0	2.5	blank	1.0	204.4235532283783	
51	139.3073980808258	movie	1		301.0	49.0	2.5	blank	1.0	204.43174624443054	2.508301019668579
51	141.81569910049438	fix_post	2		12.0	49.0	2.5	blank	1.0	206.94004726409912	0.10002684593200684
52	141.9157259464264	fix_pre	0		55.0	50.0	2.5	/experiments/knapen_aot/videos/R_S_production_ID_3943334.mp4	0.0	207.04007411003113	0.45833301544189453
52	142.3657488822937	response	0	2		50.0	2.5	/experiments/knapen_aot/videos/R_S_production_ID_3943334.mp4	0.0	207.49009704589844	
52	142.3740589618683	movie	1		204.0	50.0	2.5	/experiments/knapen_aot/videos/R_S_production_ID_3943334.mp4	0.0	207.49840712547302	2.508336067199707
52	144.882395029068	fix_post	2		12.0	50.0	2.5	/experiments/knapen_aot/videos/R_S_production_ID_3943334.mp4	0.0	210.00674319267273	0.09999799728393555
53	144.98239302635193	fix_pre	0		31.0	51.0	2.5	/experiments/knapen_aot/videos/S_ILSVRC2015_train_00165011.mp4	0.0	210.10674118995667	0.25833892822265625
53	145.23252892494202	response	0	2		51.0	2.5	/experiments/knapen_aot/videos/S_ILSVRC2015_train_00165011.mp4	0.0	210.35687708854675	
53	145.24073195457458	movie	1		301.0	51.0	2.5	/experiments/knapen_aot/videos/S_ILSVRC2015_train_00165011.mp4	0.0	210.36508011817932	2.5082850456237793
53	147.74901700019836	fix_post	2		12.0	51.0	2.5	/experiments/knapen_aot/videos/S_ILSVRC2015_train_00165011.mp4	0.0	212.8733651638031	0.10000491142272949
54	147.8490219116211	fix_pre	0		27.0	52.0	2.5	/experiments/knapen_aot/videos/R_S_yt-QI6k6mhpxLo_453.mp4	0.0	212.97337007522583	0.22495317459106445
54	148.06575894355774	response	0	2		52.0	2.5	/experiments/knapen_aot/videos/R_S_yt-QI6k6mhpxLo_453.mp4	0.0	213.19010710716248	
54	148.07397508621216	movie	1		301.0	52.0	2.5	/experiments/knapen_aot/videos/R_S_yt-QI6k6mhpxLo_453.mp4	0.0	213.1983232498169	2.508387804031372
54	150.58236289024353	fix_post	2		12.0	52.0	2.5	/experiments/knapen_aot/videos/R_S_yt-QI6k6mhpxLo_453.mp4	0.0	215.70671105384827	0.09995102882385254
55	150.68231391906738	fix_pre	0		29.0	53.0	2.5	/experiments/knapen_aot/videos/S_yt-MEfljVFL0xw_375.mp4	0.0	215.80666208267212	0.24280405044555664
55	150.9158399105072	response	0	2		53.0	2.5	/experiments/knapen_aot/videos/S_yt-MEfljVFL0xw_375.mp4	0.0	216.04018807411194	
55	150.92511796951294	movie	1		299.0	53.0	2.5	/experiments/knapen_aot/videos/S_yt-MEfljVFL0xw_375.mp4	0.0	216.04946613311768	2.5072479248046875
55	153.43236589431763	fix_post	2		12.0	53.0	2.5	/experiments/knapen_aot/videos/S_yt-MEfljVFL0xw_375.mp4	0.0	218.55671405792236	0.10000300407409668
56	153.53236889839172	fix_pre	0		27.0	54.0	2.5	/experiments/knapen_aot/videos/S_yt-WTxvvlP8xnw_113.mp4	0.0	218.65671706199646	0.22605514526367188
56	153.74159002304077	response	0	2		54.0	2.5	/experiments/knapen_aot/videos/S_yt-WTxvvlP8xnw_113.mp4	0.0	218.8659381866455	
56	153.7584240436554	movie	1		301.0	54.0	2.5	/experiments/knapen_aot/videos/S_yt-WTxvvlP8xnw_113.mp4	0.0	218.88277220726013	2.5073158740997314
56	156.26573991775513	fix_post	2		12.0	54.0	2.5	/experiments/knapen_aot/videos/S_yt-WTxvvlP8xnw_113.mp4	0.0	221.39008808135986	0.09997797012329102
57	156.36571788787842	fix_pre	0		38.0	55.0	2.5	/experiments/knapen_aot/videos/R_S_yt-deiWoIfK6vg_44.mp4	0.0	221.49006605148315	0.3166511058807373
57	156.6741750240326	response	0	2		55.0	2.5	/experiments/knapen_aot/videos/R_S_yt-deiWoIfK6vg_44.mp4	0.0	221.79852318763733	
57	156.68236899375916	movie	1		301.0	55.0	2.5	/experiments/knapen_aot/videos/R_S_yt-deiWoIfK6vg_44.mp4	0.0	221.8067171573639	2.5083210468292236
57	159.19069004058838	fix_post	2		12.0	55.0	2.5	/experiments/knapen_aot/videos/R_S_yt-deiWoIfK6vg_44.mp4	0.0	224.31503820419312	0.10001087188720703
58	159.2907009124756	fix_pre	0		30.0	56.0	2.5	blank	1.0	224.41504907608032	0.2500021457672119
58	159.53244495391846	response	0	2		56.0	2.5	blank	1.0	224.6567931175232	
58	159.5407030582428	movie	1		301.0	56.0	2.5	blank	1.0	224.66505122184753	2.508267879486084
58	162.04897093772888	fix_post	2		12.0	56.0	2.5	blank	1.0	227.17331910133362	0.09995508193969727
59	162.14892601966858	fix_pre	0		80.0	57.0	2.5	/experiments/knapen_aot/videos/R_S_comp_LA_A005_C009_PSNK_ALT_v09_SDR_PS_201809134_SDR_2K_AVC.mp4	0.0	227.27327418327332	0.6666789054870605
59	162.80739092826843	response	0	2		57.0	2.5	/experiments/knapen_aot/videos/R_S_comp_LA_A005_C009_PSNK_ALT_v09_SDR_PS_201809134_SDR_2K_AVC.mp4	0.0	227.93173909187317	
59	162.81560492515564	movie	1		172.0	57.0	2.5	/experiments/knapen_aot/videos/R_S_comp_LA_A005_C009_PSNK_ALT_v09_SDR_PS_201809134_SDR_2K_AVC.mp4	0.0	227.93995308876038	2.5083651542663574
59	165.323970079422	fix_post	2		12.0	57.0	2.5	/experiments/knapen_aot/videos/R_S_comp_LA_A005_C009_PSNK_ALT_v09_SDR_PS_201809134_SDR_2K_AVC.mp4	0.0	230.44831824302673	0.09997892379760742
59	165.3991301059723	response	2	2		57.0	2.5	/experiments/knapen_aot/videos/R_S_comp_LA_A005_C009_PSNK_ALT_v09_SDR_PS_201809134_SDR_2K_AVC.mp4	0.0	230.52347826957703	
60	165.4239490032196	fix_pre	0		45.0	58.0	2.5	/experiments/knapen_aot/videos/R_S_pexels-mart-production-7698911.mp4	0.0	230.54829716682434	0.37600207328796387
60	165.79069900512695	response	0	2		58.0	2.5	/experiments/knapen_aot/videos/R_S_pexels-mart-production-7698911.mp4	0.0	230.9150471687317	
60	165.79995107650757	movie	1		194.0	58.0	2.5	/experiments/knapen_aot/videos/R_S_pexels-mart-production-7698911.mp4	0.0	230.9242992401123	2.507269859313965
60	168.30722093582153	fix_post	2		12.0	58.0	2.5	/experiments/knapen_aot/videos/R_S_pexels-mart-production-7698911.mp4	0.0	233.43156909942627	0.10008597373962402
61	168.40730690956116	fix_pre	0		12.0	59.0	2.5	/experiments/knapen_aot/videos/S_yt-eLQydFSMGCU_75.mp4	0.0	233.5316550731659	0.10096216201782227
61	168.49905610084534	response	0	2		59.0	2.5	/experiments/knapen_aot/videos/S_yt-eLQydFSMGCU_75.mp4	0.0	233.62340426445007	
61	168.50826907157898	movie	1		301.0	59.0	2.5	/experiments/knapen_aot/videos/S_yt-eLQydFSMGCU_75.mp4	0.0	233.63261723518372	2.507282018661499
61	171.01555109024048	fix_post	2		12.0	59.0	2.5	/experiments/knapen_aot/videos/S_yt-eLQydFSMGCU_75.mp4	0.0	236.13989925384521	0.09999489784240723
62	171.11554598808289	fix_pre	0		66.0	60.0	2.5	/experiments/knapen_aot/videos/R_S_yt-r4st6Mt4EE8_85.mp4	0.0	236.23989415168762	0.5500071048736572
62	171.65735697746277	response	0	2		60.0	2.5	/experiments/knapen_aot/videos/R_S_yt-r4st6Mt4EE8_85.mp4	0.0	236.7817051410675	
62	171.66555309295654	movie	1		301.0	60.0	2.5	/experiments/knapen_aot/videos/R_S_yt-r4st6Mt4EE8_85.mp4	0.0	236.78990125656128	2.5083208084106445
62	174.1738739013672	fix_post	2		12.0	60.0	2.5	/experiments/knapen_aot/videos/R_S_yt-r4st6Mt4EE8_85.mp4	0.0	239.29822206497192	0.1000070571899414
63	174.27388095855713	fix_pre	0		26.0	61.0	2.5	/experiments/knapen_aot/videos/R_S_wc-eJe3wXMgTLRV_20.mp4	0.0	239.39822912216187	0.2166910171508789
63	174.47480297088623	response	0	2		61.0	2.5	/experiments/knapen_aot/videos/R_S_wc-eJe3wXMgTLRV_20.mp4	0.0	239.59915113449097	
63	174.490571975708	movie	1		167.0	61.0	2.5	/experiments/knapen_aot/videos/R_S_wc-eJe3wXMgTLRV_20.mp4	0.0	239.61492013931274	2.5083580017089844
63	176.998929977417	fix_post	2		12.0	61.0	2.5	/experiments/knapen_aot/videos/R_S_wc-eJe3wXMgTLRV_20.mp4	0.0	242.12327814102173	0.10004901885986328
63	177.05744194984436	response	2	2		61.0	2.5	/experiments/knapen_aot/videos/R_S_wc-eJe3wXMgTLRV_20.mp4	0.0	242.1817901134491	
64	177.09897899627686	fix_pre	0		44.0	62.0	2.5	blank	1.0	242.2233271598816	0.36765003204345703
64	177.4574019908905	response	0	2		62.0	2.5	blank	1.0	242.58175015449524	
64	177.4666290283203	movie	1		301.0	62.0	2.5	blank	1.0	242.59097719192505	2.5073249340057373
64	179.97395396232605	fix_post	2		12.0	62.0	2.5	blank	1.0	245.0983021259308	0.09999513626098633
65	180.07394909858704	fix_pre	0		23.0	63.0	2.5	/experiments/knapen_aot/videos/S_yt-TvU-aYjNa2c_21.mp4	0.0	245.19829726219177	0.19163799285888672
65	180.25739097595215	response	0	2		63.0	2.5	/experiments/knapen_aot/videos/S_yt-TvU-aYjNa2c_21.mp4	0.0	245.38173913955688	
65	180.26558709144592	movie	1		301.0	63.0	2.5	/experiments/knapen_aot/videos/S_yt-TvU-aYjNa2c_21.mp4	0.0	245.38993525505066	2.508382797241211
65	182.77396988868713	fix_post	2		12.0	63.0	2.5	/experiments/knapen_aot/videos/S_yt-TvU-aYjNa2c_21.mp4	0.0	247.89831805229187	0.09990811347961426
66	182.87387800216675	fix_pre	0		12.0	64.0	2.5	/experiments/knapen_aot/videos/R_S_yt-IC62JSYpq9w_71.mp4	0.0	247.99822616577148	0.10005998611450195
66	182.96568894386292	response	0	2		64.0	2.5	/experiments/knapen_aot/videos/R_S_yt-IC62JSYpq9w_71.mp4	0.0	248.09003710746765	
66	182.97393798828125	movie	1		301.0	64.0	2.5	/experiments/knapen_aot/videos/R_S_yt-IC62JSYpq9w_71.mp4	0.0	248.098286151886	2.5083401203155518
66	185.4822781085968	fix_post	2		12.0	64.0	2.5	/experiments/knapen_aot/videos/R_S_yt-IC62JSYpq9w_71.mp4	0.0	250.60662627220154	0.09997987747192383
67	185.58225798606873	fix_pre	0		23.0	65.0	2.5	/experiments/knapen_aot/videos/S_wc-6or3Gl2Fif0m_13.mp4	0.0	250.70660614967346	0.1916179656982422
67	185.76575207710266	response	0	2		65.0	2.5	/experiments/knapen_aot/videos/S_wc-6or3Gl2Fif0m_13.mp4	0.0	250.8901002407074	
67	185.77387595176697	movie	1		168.0	65.0	2.5	/experiments/knapen_aot/videos/S_wc-6or3Gl2Fif0m_13.mp4	0.0	250.8982241153717	2.508342981338501
67	188.28221893310547	fix_post	2		12.0	65.0	2.5	/experiments/knapen_aot/videos/S_wc-6or3Gl2Fif0m_13.mp4	0.0	253.4065670967102	0.10003805160522461
68	188.3822569847107	fix_pre	0		11.0	66.0	2.5	/experiments/knapen_aot/videos/S_pexels-cottonbro-10640532.mp4	0.0	253.50660514831543	0.09175610542297363
68	188.46690201759338	response	0	2		66.0	2.5	/experiments/knapen_aot/videos/S_pexels-cottonbro-10640532.mp4	0.0	253.59125018119812	
68	188.47401309013367	movie	1		201.0	66.0	2.5	/experiments/knapen_aot/videos/S_pexels-cottonbro-10640532.mp4	0.0	253.5983612537384	2.5082027912139893
68	190.98221588134766	fix_post	2		12.0	66.0	2.5	/experiments/knapen_aot/videos/S_pexels-cottonbro-10640532.mp4	0.0	256.1065640449524	0.0999751091003418
69	191.082190990448	fix_pre	0		40.0	67.0	2.5	/experiments/knapen_aot/videos/S_video_inspire_california_santa-barbara_050.1080-h264.mp4	0.0	256.20653915405273	0.3333570957183838
69	191.40741896629333	response	0	2		67.0	2.5	/experiments/knapen_aot/videos/S_video_inspire_california_santa-barbara_050.1080-h264.mp4	0.0	256.53176712989807	
69	191.41554808616638	movie	1		170.0	67.0	2.5	/experiments/knapen_aot/videos/S_video_inspire_california_santa-barbara_050.1080-h264.mp4	0.0	256.5398962497711	2.5082859992980957
69	193.92383408546448	fix_post	2		12.0	67.0	2.5	/experiments/knapen_aot/videos/S_video_inspire_california_santa-barbara_050.1080-h264.mp4	0.0	259.0481822490692	0.1000509262084961
70	194.02388501167297	fix_pre	0		13.0	68.0	2.5	blank	1.0	259.1482331752777	0.10919308662414551
70	194.12408804893494	response	0	2		68.0	2.5	blank	1.0	259.2484362125397	
70	194.13307809829712	movie	1		301.0	68.0	2.5	blank	1.0	259.25742626190186	2.5074520111083984
70	196.64053010940552	fix_post	2		12.0	68.0	2.5	blank	1.0	261.76487827301025	0.10001683235168457
71	196.7405469417572	fix_pre	0		25.0	69.0	2.5	/experiments/knapen_aot/videos/R_S_yt-s5YONFy3vb4_46.mp4	0.0	261.86489510536194	0.20822906494140625
71	196.94056510925293	response	0	2		69.0	2.5	/experiments/knapen_aot/videos/R_S_yt-s5YONFy3vb4_46.mp4	0.0	262.06491327285767	
71	196.9487760066986	movie	1		301.0	69.0	2.5	/experiments/knapen_aot/videos/R_S_yt-s5YONFy3vb4_46.mp4	0.0	262.07312417030334	2.508297920227051
71	199.45707392692566	fix_post	2		12.0	69.0	2.5	/experiments/knapen_aot/videos/R_S_yt-s5YONFy3vb4_46.mp4	0.0	264.5814220905304	0.10004210472106934
72	199.55711603164673	fix_pre	0		12.0	70.0	2.5	/experiments/knapen_aot/videos/R_S_yt-FbCVXEJicis_5.mp4	0.0	264.68146419525146	0.09993600845336914
72	199.64891910552979	response	0	2		70.0	2.5	/experiments/knapen_aot/videos/R_S_yt-FbCVXEJicis_5.mp4	0.0	264.7732672691345	
72	199.6570520401001	movie	1		301.0	70.0	2.5	/experiments/knapen_aot/videos/R_S_yt-FbCVXEJicis_5.mp4	0.0	264.78140020370483	2.5084049701690674
72	202.16545701026917	fix_post	2		12.0	70.0	2.5	/experiments/knapen_aot/videos/R_S_yt-FbCVXEJicis_5.mp4	0.0	267.2898051738739	0.10001492500305176
73	202.26547193527222	fix_pre	0		19.0	71.0	2.5	/experiments/knapen_aot/videos/S_yt-Tn563IPZfg4_55.mp4	0.0	267.38982009887695	0.15906596183776855
73	202.40813994407654	response	0	2		71.0	2.5	/experiments/knapen_aot/videos/S_yt-Tn563IPZfg4_55.mp4	0.0	267.5324881076813	
73	202.42453789710999	movie	1		301.0	71.0	2.5	/experiments/knapen_aot/videos/S_yt-Tn563IPZfg4_55.mp4	0.0	267.5488860607147	2.507512092590332
73	204.93204998970032	fix_post	2		12.0	71.0	2.5	/experiments/knapen_aot/videos/S_yt-Tn563IPZfg4_55.mp4	0.0	270.05639815330505	0.10008692741394043
74	205.03213691711426	fix_pre	0		16.0	72.0	2.5	/experiments/knapen_aot/videos/R_S_ILSVRC2015_train_00578001.mp4	0.0	270.156485080719	0.13330411911010742
74	205.1572539806366	response	0	2		72.0	2.5	/experiments/knapen_aot/videos/R_S_ILSVRC2015_train_00578001.mp4	0.0	270.28160214424133	
74	205.16544103622437	movie	1		301.0	72.0	2.5	/experiments/knapen_aot/videos/R_S_ILSVRC2015_train_00578001.mp4	0.0	270.2897891998291	2.508378028869629
74	207.673819065094	fix_post	2		12.0	72.0	2.5	/experiments/knapen_aot/videos/R_S_ILSVRC2015_train_00578001.mp4	0.0	272.79816722869873	0.09992790222167969
75	207.77374696731567	fix_pre	0		27.0	73.0	2.5	/experiments/knapen_aot/videos/R_S_yt-5AI_SyK5sg8_112.mp4	0.0	272.8980951309204	0.22503995895385742
75	207.9905300140381	response	0	2		73.0	2.5	/experiments/knapen_aot/videos/R_S_yt-5AI_SyK5sg8_112.mp4	0.0	273.1148781776428	
75	207.99878692626953	movie	1		301.0	73.0	2.5	/experiments/knapen_aot/videos/R_S_yt-5AI_SyK5sg8_112.mp4	0.0	273.12313508987427	2.5082740783691406
75	210.50706100463867	fix_post	2		12.0	73.0	2.5	/experiments/knapen_aot/videos/R_S_yt-5AI_SyK5sg8_112.mp4	0.0	275.6314091682434	0.09999489784240723
76	210.60705590248108	fix_pre	0		29.0	74.0	2.5	/experiments/knapen_aot/videos/S_yt-QI6k6mhpxLo_453.mp4	0.0	275.7314040660858	0.24166417121887207
76	210.84056496620178	response	0	2		74.0	2.5	/experiments/knapen_aot/videos/S_yt-QI6k6mhpxLo_453.mp4	0.0	275.9649131298065	
76	210.84872007369995	movie	1		301.0	74.0	2.5	/experiments/knapen_aot/videos/S_yt-QI6k6mhpxLo_453.mp4	0.0	275.9730682373047	2.5083489418029785
76	213.35706901550293	fix_post	2		12.0	74.0	2.5	/experiments/knapen_aot/videos/S_yt-QI6k6mhpxLo_453.mp4	0.0	278.48141717910767	0.10001087188720703
77	213.45707988739014	fix_pre	0		26.0	75.0	2.5	/experiments/knapen_aot/videos/S_ILSVRC2015_train_00661001.mp4	0.0	278.5814280509949	0.2173621654510498
77	213.66557788848877	response	0	2		75.0	2.5	/experiments/knapen_aot/videos/S_ILSVRC2015_train_00661001.mp4	0.0	278.7899260520935	
77	213.6744420528412	movie	1		301.0	75.0	2.5	/experiments/knapen_aot/videos/S_ILSVRC2015_train_00661001.mp4	0.0	278.7987902164459	2.5075788497924805
77	216.18202090263367	fix_post	2		12.0	75.0	2.5	/experiments/knapen_aot/videos/S_ILSVRC2015_train_00661001.mp4	0.0	281.3063690662384	0.10003805160522461
78	216.2820589542389	fix_pre	0		10.0	76.0	2.5	/experiments/knapen_aot/videos/R_S_yt-Tt_LkR4iAt4_11.mp4	0.0	281.4064071178436	0.08329010009765625
78	216.35720992088318	response	0	2		76.0	2.5	/experiments/knapen_aot/videos/R_S_yt-Tt_LkR4iAt4_11.mp4	0.0	281.4815580844879	
78	216.36534905433655	movie	1		301.0	76.0	2.5	/experiments/knapen_aot/videos/R_S_yt-Tt_LkR4iAt4_11.mp4	0.0	281.4896972179413	2.5083260536193848
78	218.87367510795593	fix_post	2		12.0	76.0	2.5	/experiments/knapen_aot/videos/R_S_yt-Tt_LkR4iAt4_11.mp4	0.0	283.99802327156067	0.1000528335571289
79	218.97372794151306	fix_pre	0		3.0	77.0	2.5	blank	1.0	284.0980761051178	0.025014162063598633
79	218.99059104919434	response	0	2		77.0	2.5	blank	1.0	284.1149392127991	
79	218.99874210357666	movie	1		301.0	77.0	2.5	blank	1.0	284.1230902671814	2.508347988128662
79	221.50709009170532	fix_post	2		12.0	77.0	2.5	blank	1.0	286.63143825531006	0.09987187385559082
80	221.6069619655609	fix_pre	0		23.0	78.0	2.5	/experiments/knapen_aot/videos/R_S_yt-JmmyeMOFpII_29.mp4	0.0	286.73131012916565	0.19243311882019043
80	221.7904679775238	response	0	2		78.0	2.5	/experiments/knapen_aot/videos/R_S_yt-JmmyeMOFpII_29.mp4	0.0	286.91481614112854	
80	221.7993950843811	movie	1		301.0	78.0	2.5	/experiments/knapen_aot/videos/R_S_yt-JmmyeMOFpII_29.mp4	0.0	286.92374324798584	2.5076658725738525
80	224.30706095695496	fix_post	2		12.0	78.0	2.5	/experiments/knapen_aot/videos/R_S_yt-JmmyeMOFpII_29.mp4	0.0	289.4314091205597	0.09999394416809082
81	224.40705490112305	fix_pre	0		17.0	79.0	2.5	/experiments/knapen_aot/videos/S_P005_C002_UHD_SDR_2K_AVC.mp4	0.0	289.5314030647278	0.14234399795532227
81	224.5404920578003	response	0	2		79.0	2.5	/experiments/knapen_aot/videos/S_P005_C002_UHD_SDR_2K_AVC.mp4	0.0	289.66484022140503	
81	224.54939889907837	movie	1		169.0	79.0	2.5	/experiments/knapen_aot/videos/S_P005_C002_UHD_SDR_2K_AVC.mp4	0.0	289.6737470626831	2.507662057876587
81	227.05706095695496	fix_post	2		12.0	79.0	2.5	/experiments/knapen_aot/videos/S_P005_C002_UHD_SDR_2K_AVC.mp4	0.0	292.1814091205597	0.09992504119873047
82	227.1569859981537	fix_pre	0		10.0	80.0	2.5	/experiments/knapen_aot/videos/R_S_yt-14tjqjjjAEI_15.mp4	0.0	292.2813341617584	0.08332705497741699
82	227.2246150970459	response	0	2		80.0	2.5	/experiments/knapen_aot/videos/R_S_yt-14tjqjjjAEI_15.mp4	0.0	292.34896326065063	
82	227.2403130531311	movie	1		297.0	80.0	2.5	/experiments/knapen_aot/videos/R_S_yt-14tjqjjjAEI_15.mp4	0.0	292.36466121673584	2.508335828781128
82	229.74864888191223	fix_post	2		12.0	80.0	2.5	/experiments/knapen_aot/videos/R_S_yt-14tjqjjjAEI_15.mp4	0.0	294.87299704551697	0.09998512268066406
83	229.8486340045929	fix_pre	0		28.0	81.0	2.5	/experiments/knapen_aot/videos/S_ILSVRC2015_train_00219003.mp4	0.0	294.97298216819763	0.23332905769348145
83	230.07370901107788	response	0	2		81.0	2.5	/experiments/knapen_aot/videos/S_ILSVRC2015_train_00219003.mp4	0.0	295.1980571746826	
83	230.08196306228638	movie	1		301.0	81.0	2.5	/experiments/knapen_aot/videos/S_ILSVRC2015_train_00219003.mp4	0.0	295.2063112258911	2.508370876312256
83	232.59033393859863	fix_post	2		12.0	81.0	2.5	/experiments/knapen_aot/videos/S_ILSVRC2015_train_00219003.mp4	0.0	297.71468210220337	0.10000896453857422
84	232.6903429031372	fix_pre	0		18.0	82.0	2.5	/experiments/knapen_aot/videos/R_S_yt-LdHRVIb4nIE_6.mp4	0.0	297.81469106674194	0.15064406394958496
84	232.8321349620819	response	0	2		82.0	2.5	/experiments/knapen_aot/videos/R_S_yt-LdHRVIb4nIE_6.mp4	0.0	297.95648312568665	
84	232.8409869670868	movie	1		301.0	82.0	2.5	/experiments/knapen_aot/videos/R_S_yt-LdHRVIb4nIE_6.mp4	0.0	297.9653351306915	2.507622003555298
84	235.3486089706421	fix_post	2		12.0	82.0	2.5	/experiments/knapen_aot/videos/R_S_yt-LdHRVIb4nIE_6.mp4	0.0	300.4729571342468	0.10003495216369629
85	235.4486439228058	fix_pre	0		12.0	83.0	2.5	blank	1.0	300.5729920864105	0.10065317153930664
85	235.54041194915771	response	0	2		83.0	2.5	blank	1.0	300.66476011276245	
85	235.5492970943451	movie	1		301.0	83.0	2.5	blank	1.0	300.67364525794983	2.5076839923858643
85	238.05698108673096	fix_post	2		12.0	83.0	2.5	blank	1.0	303.1813292503357	0.09998393058776855
87	238.15696501731873	stim	0		302.0					303.28131318092346	2.517343044281006
87	238.34874391555786	response	0	2						303.4730920791626	
87	240.66941499710083	response	0	space						305.79376316070557	
