trial_nr	onset	event_type	phase	response	nr_frames	movie_index	movie_duration	movie_file	blank	onset_abs	duration
0	0.13856005668640137	stim	0		20.0					100.655020236969	0.1696760654449463
0	0.3002300262451172	response	0	space						100.81669020652771	
1	0.30823612213134766	stim	0		121.0					100.82469630241394	1.0081400871276855
1	1.3163762092590332	stim	1		120.0					101.83283638954163	0.9999439716339111
1	1.7831461429595947	response	1	space						102.29960632324219	
2	2.3163201808929443	fix_pre	0		35.0	0.0	2.5	/experiments/knapen_aot/videos/R_S_ILSVRC2015_train_00693000.mp4	0.0	102.83278036117554	0.291658878326416
2	2.599809169769287	response	0	space		0.0	2.5	/experiments/knapen_aot/videos/R_S_ILSVRC2015_train_00693000.mp4	0.0	103.11626935005188	
2	2.6079790592193604	movie	1		301.0	0.0	2.5	/experiments/knapen_aot/videos/R_S_ILSVRC2015_train_00693000.mp4	0.0	103.12443923950195	2.5082590579986572
2	5.116238117218018	fix_post	2		12.0	0.0	2.5	/experiments/knapen_aot/videos/R_S_ILSVRC2015_train_00693000.mp4	0.0	105.63269829750061	0.10004591941833496
3	5.2162840366363525	fix_pre	0		75.0	1.0	2.5	/experiments/knapen_aot/videos/S_yt-jy7rAnpu0u8_128.mp4	0.0	105.73274421691895	0.6249880790710449
3	5.8300981521606445	response	0	2		1.0	2.5	/experiments/knapen_aot/videos/S_yt-jy7rAnpu0u8_128.mp4	0.0	106.34655833244324	
3	5.8412721157073975	movie	1		301.0	1.0	2.5	/experiments/knapen_aot/videos/S_yt-jy7rAnpu0u8_128.mp4	0.0	106.35773229598999	2.5083138942718506
3	8.349586009979248	fix_post	2		12.0	1.0	2.5	/experiments/knapen_aot/videos/S_yt-jy7rAnpu0u8_128.mp4	0.0	108.86604619026184	0.10002899169921875
4	8.449615001678467	fix_pre	0		18.0	2.0	2.5	/experiments/knapen_aot/videos/S_yt-wrxk7fFkxHg_177.mp4	0.0	108.96607518196106	0.1499621868133545
4	8.591442108154297	response	0	2		2.0	2.5	/experiments/knapen_aot/videos/S_yt-wrxk7fFkxHg_177.mp4	0.0	109.10790228843689	
4	8.599577188491821	movie	1		301.0	2.0	2.5	/experiments/knapen_aot/videos/S_yt-wrxk7fFkxHg_177.mp4	0.0	109.11603736877441	2.5083749294281006
4	11.107952117919922	fix_post	2		12.0	2.0	2.5	/experiments/knapen_aot/videos/S_yt-wrxk7fFkxHg_177.mp4	0.0	111.62441229820251	0.10000395774841309
5	11.207956075668335	fix_pre	0		19.0	3.0	2.5	/experiments/knapen_aot/videos/R_S_yt-sWJc_Do8EaI_32.mp4	0.0	111.72441625595093	0.15916013717651367
5	11.357992172241211	response	0	2		3.0	2.5	/experiments/knapen_aot/videos/R_S_yt-sWJc_Do8EaI_32.mp4	0.0	111.8744523525238	
5	11.367116212844849	movie	1		301.0	3.0	2.5	/experiments/knapen_aot/videos/R_S_yt-sWJc_Do8EaI_32.mp4	0.0	111.88357639312744	2.507469892501831
5	13.87458610534668	fix_post	2		12.0	3.0	2.5	/experiments/knapen_aot/videos/R_S_yt-sWJc_Do8EaI_32.mp4	0.0	114.39104628562927	0.09998798370361328
6	13.974574089050293	fix_pre	0		11.0	4.0	2.5	/experiments/knapen_aot/videos/R_S_flickr-seattlemcneals-996953_3.mp4	0.0	114.49103426933289	0.09163904190063477
6	14.058134078979492	response	0	2		4.0	2.5	/experiments/knapen_aot/videos/R_S_flickr-seattlemcneals-996953_3.mp4	0.0	114.57459425926208	
6	14.066213130950928	movie	1		301.0	4.0	2.5	/experiments/knapen_aot/videos/R_S_flickr-seattlemcneals-996953_3.mp4	0.0	114.58267331123352	2.5083420276641846
6	16.574555158615112	fix_post	2		12.0	4.0	2.5	/experiments/knapen_aot/videos/R_S_flickr-seattlemcneals-996953_3.mp4	0.0	117.0910153388977	0.10005497932434082
7	16.674610137939453	fix_pre	0		10.0	5.0	2.5	blank	1.0	117.19107031822205	0.08326101303100586
7	16.749778032302856	response	0	2		5.0	2.5	blank	1.0	117.26623821258545	
7	16.75787115097046	movie	1		301.0	5.0	2.5	blank	1.0	117.27433133125305	2.5083909034729004
7	19.26626205444336	fix_post	2		12.0	5.0	2.5	blank	1.0	119.78272223472595	0.09995198249816895
8	19.36621403694153	fix_pre	0		28.0	6.0	2.5	/experiments/knapen_aot/videos/R_S_yt-1iB2ofPY1U8_16.mp4	0.0	119.88267421722412	0.23335719108581543
8	19.591352224349976	response	0	2		6.0	2.5	/experiments/knapen_aot/videos/R_S_yt-1iB2ofPY1U8_16.mp4	0.0	120.10781240463257	
8	19.599571228027344	movie	1		301.0	6.0	2.5	/experiments/knapen_aot/videos/R_S_yt-1iB2ofPY1U8_16.mp4	0.0	120.11603140830994	2.508225917816162
8	22.107797145843506	fix_post	2		12.0	6.0	2.5	/experiments/knapen_aot/videos/R_S_yt-1iB2ofPY1U8_16.mp4	0.0	122.6242573261261	0.1000509262084961
9	22.207848072052002	fix_pre	0		12.0	7.0	2.5	/experiments/knapen_aot/videos/S_Person_Going_Through_A_Bible.mp4	0.0	122.7243082523346	0.10005497932434082
9	22.299946069717407	response	0	2		7.0	2.5	/experiments/knapen_aot/videos/S_Person_Going_Through_A_Bible.mp4	0.0	122.81640625	
9	22.307903051376343	movie	1		164.0	7.0	2.5	/experiments/knapen_aot/videos/S_Person_Going_Through_A_Bible.mp4	0.0	122.82436323165894	2.508286952972412
9	24.816190004348755	fix_post	2		12.0	7.0	2.5	/experiments/knapen_aot/videos/S_Person_Going_Through_A_Bible.mp4	0.0	125.33265018463135	0.10000801086425781
10	24.916198015213013	fix_pre	0		9.0	8.0	2.5	/experiments/knapen_aot/videos/S_yt-q9kT_c9QjbQ_34.mp4	0.0	125.4326581954956	0.07568812370300293
10	24.983070135116577	response	0	2		8.0	2.5	/experiments/knapen_aot/videos/S_yt-q9kT_c9QjbQ_34.mp4	0.0	125.49953031539917	
10	24.991886138916016	movie	1		300.0	8.0	2.5	/experiments/knapen_aot/videos/S_yt-q9kT_c9QjbQ_34.mp4	0.0	125.50834631919861	2.5075740814208984
10	27.499460220336914	fix_post	2		12.0	8.0	2.5	/experiments/knapen_aot/videos/S_yt-q9kT_c9QjbQ_34.mp4	0.0	128.0159204006195	0.10008382797241211
11	27.599544048309326	fix_pre	0		26.0	9.0	2.5	/experiments/knapen_aot/videos/S_production_ID_5144824.mp4	0.0	128.11600422859192	0.21663308143615723
11	27.80801820755005	response	0	2		9.0	2.5	/experiments/knapen_aot/videos/S_production_ID_5144824.mp4	0.0	128.32447838783264	
11	27.816177129745483	movie	1		162.0	9.0	2.5	/experiments/knapen_aot/videos/S_production_ID_5144824.mp4	0.0	128.33263731002808	2.5083398818969727
11	30.324517011642456	fix_post	2		12.0	9.0	2.5	/experiments/knapen_aot/videos/S_production_ID_5144824.mp4	0.0	130.84097719192505	0.09997320175170898
12	30.424490213394165	fix_pre	0		11.0	10.0	2.5	/experiments/knapen_aot/videos/R_S_yt-gmiyqQDGN78_7.mp4	0.0	130.94095039367676	0.09167695045471191
12	30.50796103477478	response	0	2		10.0	2.5	/experiments/knapen_aot/videos/R_S_yt-gmiyqQDGN78_7.mp4	0.0	131.02442121505737	
12	30.516167163848877	movie	1		300.0	10.0	2.5	/experiments/knapen_aot/videos/R_S_yt-gmiyqQDGN78_7.mp4	0.0	131.03262734413147	2.508354902267456
12	33.02452206611633	fix_post	2		12.0	10.0	2.5	/experiments/knapen_aot/videos/R_S_yt-gmiyqQDGN78_7.mp4	0.0	133.54098224639893	0.09999608993530273
13	33.124518156051636	fix_pre	0		47.0	11.0	2.5	/experiments/knapen_aot/videos/S_yt-iKe-0YNR5Eo_164.mp4	0.0	133.64097833633423	0.391571044921875
13	33.50800609588623	response	0	2		11.0	2.5	/experiments/knapen_aot/videos/S_yt-iKe-0YNR5Eo_164.mp4	0.0	134.02446627616882	
13	33.51608920097351	movie	1		301.0	11.0	2.5	/experiments/knapen_aot/videos/S_yt-iKe-0YNR5Eo_164.mp4	0.0	134.0325493812561	2.5084269046783447
13	36.024516105651855	fix_post	2		12.0	11.0	2.5	/experiments/knapen_aot/videos/S_yt-iKe-0YNR5Eo_164.mp4	0.0	136.54097628593445	0.09998798370361328
14	36.12450408935547	fix_pre	0		131.0	12.0	2.5	/experiments/knapen_aot/videos/S_yt-gmiyqQDGN78_7.mp4	0.0	136.64096426963806	1.0916309356689453
14	37.207985162734985	response	0	2		12.0	2.5	/experiments/knapen_aot/videos/S_yt-gmiyqQDGN78_7.mp4	0.0	137.72444534301758	
14	37.216135025024414	movie	1		301.0	12.0	2.5	/experiments/knapen_aot/videos/S_yt-gmiyqQDGN78_7.mp4	0.0	137.732595205307	2.5083770751953125
14	39.72451210021973	fix_post	2		12.0	12.0	2.5	/experiments/knapen_aot/videos/S_yt-gmiyqQDGN78_7.mp4	0.0	140.24097228050232	0.09995198249816895
15	39.824464082717896	fix_pre	0		26.0	13.0	2.5	/experiments/knapen_aot/videos/R_S_yt-0bovQBIUZho_15.mp4	0.0	140.3409242630005	0.21660804748535156
15	40.03293704986572	response	0	2		13.0	2.5	/experiments/knapen_aot/videos/R_S_yt-0bovQBIUZho_15.mp4	0.0	140.54939723014832	
15	40.04107213020325	movie	1		301.0	13.0	2.5	/experiments/knapen_aot/videos/R_S_yt-0bovQBIUZho_15.mp4	0.0	140.55753231048584	2.508352041244507
15	42.549424171447754	fix_post	2		12.0	13.0	2.5	/experiments/knapen_aot/videos/R_S_yt-0bovQBIUZho_15.mp4	0.0	143.06588435173035	0.10006594657897949
16	42.64949011802673	fix_pre	0		13.0	14.0	2.5	blank	1.0	143.16595029830933	0.10828590393066406
16	42.74214005470276	response	0	2		14.0	2.5	blank	1.0	143.25860023498535	
16	42.7577760219574	movie	1		301.0	14.0	2.5	blank	1.0	143.27423620224	2.5083470344543457
16	45.26612305641174	fix_post	2		12.0	14.0	2.5	blank	1.0	145.78258323669434	0.09998011589050293
17	45.366103172302246	fix_pre	0		37.0	15.0	2.5	/experiments/knapen_aot/videos/R_S_yt-6aqg1P9YqR8_38.mp4	0.0	145.88256335258484	0.308305025100708
17	45.666200160980225	response	0	2		15.0	2.5	/experiments/knapen_aot/videos/R_S_yt-6aqg1P9YqR8_38.mp4	0.0	146.18266034126282	
17	45.674408197402954	movie	1		301.0	15.0	2.5	/experiments/knapen_aot/videos/R_S_yt-6aqg1P9YqR8_38.mp4	0.0	146.19086837768555	2.5083630084991455
17	48.1827712059021	fix_post	2		12.0	15.0	2.5	/experiments/knapen_aot/videos/R_S_yt-6aqg1P9YqR8_38.mp4	0.0	148.6992313861847	0.10000395774841309
18	48.28277516365051	fix_pre	0		18.0	16.0	2.5	/experiments/knapen_aot/videos/R_S_wc-_W9iefBXz8bi_23.mp4	0.0	148.7992353439331	0.149932861328125
18	48.42456817626953	response	0	2		16.0	2.5	/experiments/knapen_aot/videos/R_S_wc-_W9iefBXz8bi_23.mp4	0.0	148.94102835655212	
18	48.43270802497864	movie	1		161.0	16.0	2.5	/experiments/knapen_aot/videos/R_S_wc-_W9iefBXz8bi_23.mp4	0.0	148.94916820526123	2.5084052085876465
18	50.941113233566284	fix_post	2		12.0	16.0	2.5	/experiments/knapen_aot/videos/R_S_wc-_W9iefBXz8bi_23.mp4	0.0	151.45757341384888	0.09993577003479004
19	51.041049003601074	fix_pre	0		12.0	17.0	2.5	/experiments/knapen_aot/videos/S_yt-074ygGXNoQ8_64.mp4	0.0	151.55750918388367	0.10005307197570801
19	51.13287806510925	response	0	2		17.0	2.5	/experiments/knapen_aot/videos/S_yt-074ygGXNoQ8_64.mp4	0.0	151.64933824539185	
19	51.14110207557678	movie	1		301.0	17.0	2.5	/experiments/knapen_aot/videos/S_yt-074ygGXNoQ8_64.mp4	0.0	151.65756225585938	2.508345127105713
19	53.649447202682495	fix_post	2		12.0	17.0	2.5	/experiments/knapen_aot/videos/S_yt-074ygGXNoQ8_64.mp4	0.0	154.1659073829651	0.10000896453857422
20	53.74945616722107	fix_pre	0		21.0	18.0	2.5	/experiments/knapen_aot/videos/R_S_yt-FzMLLmcD1mE_19.mp4	0.0	154.26591634750366	0.17491483688354492
20	53.9161651134491	response	0	2		18.0	2.5	/experiments/knapen_aot/videos/R_S_yt-FzMLLmcD1mE_19.mp4	0.0	154.4326252937317	
20	53.924371004104614	movie	1		301.0	18.0	2.5	/experiments/knapen_aot/videos/R_S_yt-FzMLLmcD1mE_19.mp4	0.0	154.4408311843872	2.508277177810669
20	56.43264818191528	fix_post	2		12.0	18.0	2.5	/experiments/knapen_aot/videos/R_S_yt-FzMLLmcD1mE_19.mp4	0.0	156.94910836219788	0.1000819206237793
21	56.53273010253906	fix_pre	0		18.0	19.0	2.5	/experiments/knapen_aot/videos/S_production_ID_4360158.mp4	0.0	157.04919028282166	0.15003490447998047
21	56.6745240688324	response	0	2		19.0	2.5	/experiments/knapen_aot/videos/S_production_ID_4360158.mp4	0.0	157.190984249115	
21	56.68276500701904	movie	1		164.0	19.0	2.5	/experiments/knapen_aot/videos/S_production_ID_4360158.mp4	0.0	157.19922518730164	2.508291006088257
21	59.1910560131073	fix_post	2		12.0	19.0	2.5	/experiments/knapen_aot/videos/S_production_ID_4360158.mp4	0.0	159.7075161933899	0.10003304481506348
22	59.29108905792236	fix_pre	0		15.0	20.0	2.5	blank	1.0	159.80754923820496	0.1249699592590332
22	59.40781903266907	response	0	2		20.0	2.5	blank	1.0	159.92427921295166	
22	59.4160590171814	movie	1		301.0	20.0	2.5	blank	1.0	159.932519197464	2.508294105529785
22	61.92435312271118	fix_post	2		12.0	20.0	2.5	blank	1.0	162.44081330299377	0.10006904602050781
23	62.02442216873169	fix_pre	0		24.0	21.0	2.5	/experiments/knapen_aot/videos/S_yt-iT6jsSikmGM_4.mp4	0.0	162.54088234901428	0.19997787475585938
23	62.21617317199707	response	0	2		21.0	2.5	/experiments/knapen_aot/videos/S_yt-iT6jsSikmGM_4.mp4	0.0	162.73263335227966	
23	62.22440004348755	movie	1		298.0	21.0	2.5	/experiments/knapen_aot/videos/S_yt-iT6jsSikmGM_4.mp4	0.0	162.74086022377014	2.51021409034729
23	64.73461413383484	fix_post	2		12.0	21.0	2.5	/experiments/knapen_aot/videos/S_yt-iT6jsSikmGM_4.mp4	0.0	165.25107431411743	0.09801888465881348
24	64.83263301849365	fix_pre	0		21.0	22.0	2.5	/experiments/knapen_aot/videos/R_S_yt-J8E_BpSJMpk_5.mp4	0.0	165.34909319877625	0.1750631332397461
24	64.9994740486145	response	0	2		22.0	2.5	/experiments/knapen_aot/videos/R_S_yt-J8E_BpSJMpk_5.mp4	0.0	165.5159342288971	
24	65.0076961517334	movie	1		301.0	22.0	2.5	/experiments/knapen_aot/videos/R_S_yt-J8E_BpSJMpk_5.mp4	0.0	165.524156332016	2.5083868503570557
24	67.51608300209045	fix_post	2		12.0	22.0	2.5	/experiments/knapen_aot/videos/R_S_yt-J8E_BpSJMpk_5.mp4	0.0	168.03254318237305	0.09999322891235352
25	67.61607623100281	fix_pre	0		21.0	23.0	2.5	/experiments/knapen_aot/videos/S_ILSVRC2015_train_00371012.mp4	0.0	168.1325364112854	0.17497777938842773
25	67.78280210494995	response	0	2		23.0	2.5	/experiments/knapen_aot/videos/S_ILSVRC2015_train_00371012.mp4	0.0	168.29926228523254	
25	67.79105401039124	movie	1		301.0	23.0	2.5	/experiments/knapen_aot/videos/S_ILSVRC2015_train_00371012.mp4	0.0	168.30751419067383	2.5083730220794678
25	70.2994270324707	fix_post	2		12.0	23.0	2.5	/experiments/knapen_aot/videos/S_ILSVRC2015_train_00371012.mp4	0.0	170.8158872127533	0.09999799728393555
26	70.39942502975464	fix_pre	0		13.0	24.0	2.5	/experiments/knapen_aot/videos/R_S_yt-7NjoFHBdP7c_102.mp4	0.0	170.91588521003723	0.10821318626403809
26	70.49950814247131	response	0	2		24.0	2.5	/experiments/knapen_aot/videos/R_S_yt-7NjoFHBdP7c_102.mp4	0.0	171.0159683227539	
26	70.50763821601868	movie	1		301.0	24.0	2.5	/experiments/knapen_aot/videos/R_S_yt-7NjoFHBdP7c_102.mp4	0.0	171.02409839630127	2.5084400177001953
26	73.01607823371887	fix_post	2		12.0	24.0	2.5	/experiments/knapen_aot/videos/R_S_yt-7NjoFHBdP7c_102.mp4	0.0	173.53253841400146	0.09989595413208008
27	73.11597418785095	fix_pre	0		18.0	25.0	2.5	/experiments/knapen_aot/videos/S_yt-hRAqAwRhmwE_58.mp4	0.0	173.63243436813354	0.14999985694885254
27	73.25031614303589	response	0	2		25.0	2.5	/experiments/knapen_aot/videos/S_yt-hRAqAwRhmwE_58.mp4	0.0	173.76677632331848	
27	73.2659740447998	movie	1		301.0	25.0	2.5	/experiments/knapen_aot/videos/S_yt-hRAqAwRhmwE_58.mp4	0.0	173.7824342250824	2.508289098739624
27	75.77426314353943	fix_post	2		12.0	25.0	2.5	/experiments/knapen_aot/videos/S_yt-hRAqAwRhmwE_58.mp4	0.0	176.29072332382202	0.10006499290466309
28	75.87432813644409	fix_pre	0		20.0	26.0	2.5	/experiments/knapen_aot/videos/S_WCwb-DeQOSg_85.mp4	0.0	176.39078831672668	0.166672945022583
28	76.02529811859131	response	0	2		26.0	2.5	/experiments/knapen_aot/videos/S_WCwb-DeQOSg_85.mp4	0.0	176.5417582988739	
28	76.04100108146667	movie	1		301.0	26.0	2.5	/experiments/knapen_aot/videos/S_WCwb-DeQOSg_85.mp4	0.0	176.55746126174927	2.5083460807800293
28	78.5493471622467	fix_post	2		12.0	26.0	2.5	/experiments/knapen_aot/videos/S_WCwb-DeQOSg_85.mp4	0.0	179.0658073425293	0.09990286827087402
29	78.64925003051758	fix_pre	0		39.0	27.0	2.5	blank	1.0	179.16571021080017	0.32500720024108887
29	78.96613001823425	response	0	2		27.0	2.5	blank	1.0	179.48259019851685	
29	78.97425723075867	movie	1		301.0	27.0	2.5	blank	1.0	179.49071741104126	2.508354902267456
29	81.48261213302612	fix_post	2		12.0	27.0	2.5	blank	1.0	181.99907231330872	0.10005807876586914
30	81.58267021179199	fix_pre	0		105.0	28.0	2.5	/experiments/knapen_aot/videos/R_S_yt-GBt59U0KUR0_6.mp4	0.0	182.09913039207458	0.8749468326568604
30	82.44942116737366	response	0	2		28.0	2.5	/experiments/knapen_aot/videos/R_S_yt-GBt59U0KUR0_6.mp4	0.0	182.96588134765625	
30	82.45761704444885	movie	1		301.0	28.0	2.5	/experiments/knapen_aot/videos/R_S_yt-GBt59U0KUR0_6.mp4	0.0	182.97407722473145	2.508319139480591
30	84.96593618392944	fix_post	2		12.0	28.0	2.5	/experiments/knapen_aot/videos/R_S_yt-GBt59U0KUR0_6.mp4	0.0	185.48239636421204	0.09993600845336914
31	85.06587219238281	fix_pre	0		10.0	29.0	2.5	/experiments/knapen_aot/videos/S_yt-8vm83GUgYxI_1.mp4	0.0	185.5823323726654	0.0834050178527832
31	85.14101219177246	response	0	2		29.0	2.5	/experiments/knapen_aot/videos/S_yt-8vm83GUgYxI_1.mp4	0.0	185.65747237205505	
31	85.1492772102356	movie	1		301.0	29.0	2.5	/experiments/knapen_aot/videos/S_yt-8vm83GUgYxI_1.mp4	0.0	185.6657373905182	2.5083417892456055
31	87.6576189994812	fix_post	2		12.0	29.0	2.5	/experiments/knapen_aot/videos/S_yt-8vm83GUgYxI_1.mp4	0.0	188.1740791797638	0.09997916221618652
32	87.75759816169739	fix_pre	0		37.0	30.0	2.5	/experiments/knapen_aot/videos/S_ILSVRC2015_train_00371006.mp4	0.0	188.27405834197998	0.30831193923950195
32	88.0577712059021	response	0	2		30.0	2.5	/experiments/knapen_aot/videos/S_ILSVRC2015_train_00371006.mp4	0.0	188.5742313861847	
32	88.06591010093689	movie	1		301.0	30.0	2.5	/experiments/knapen_aot/videos/S_ILSVRC2015_train_00371006.mp4	0.0	188.58237028121948	2.5083110332489014
32	90.57422113418579	fix_post	2		12.0	30.0	2.5	/experiments/knapen_aot/videos/S_ILSVRC2015_train_00371006.mp4	0.0	191.09068131446838	0.09999489784240723
33	90.6742160320282	fix_pre	0		33.0	31.0	2.5	/experiments/knapen_aot/videos/S_yt-xQPKYWDRy2A_491.mp4	0.0	191.1906762123108	0.2753751277923584
33	90.94106411933899	response	0	2		31.0	2.5	/experiments/knapen_aot/videos/S_yt-xQPKYWDRy2A_491.mp4	0.0	191.45752429962158	
33	90.94959115982056	movie	1		301.0	31.0	2.5	/experiments/knapen_aot/videos/S_yt-xQPKYWDRy2A_491.mp4	0.0	191.46605134010315	2.5079829692840576
33	93.45757412910461	fix_post	2		12.0	31.0	2.5	/experiments/knapen_aot/videos/S_yt-xQPKYWDRy2A_491.mp4	0.0	193.9740343093872	0.09990406036376953
34	93.55747818946838	fix_pre	0		16.0	32.0	2.5	/experiments/knapen_aot/videos/R_S_yt-mdLT282PVbE_6.mp4	0.0	194.07393836975098	0.1334519386291504
34	93.68262314796448	response	0	2		32.0	2.5	/experiments/knapen_aot/videos/R_S_yt-mdLT282PVbE_6.mp4	0.0	194.19908332824707	
34	93.69093012809753	movie	1		301.0	32.0	2.5	/experiments/knapen_aot/videos/R_S_yt-mdLT282PVbE_6.mp4	0.0	194.20739030838013	2.508291006088257
34	96.19922113418579	fix_post	2		12.0	32.0	2.5	/experiments/knapen_aot/videos/R_S_yt-mdLT282PVbE_6.mp4	0.0	196.71568131446838	0.09997987747192383
35	96.29920101165771	fix_pre	0		18.0	33.0	2.5	/experiments/knapen_aot/videos/S_yt-Id-f63kUHsE_20.mp4	0.0	196.8156611919403	0.1503911018371582
35	96.44104504585266	response	0	2		33.0	2.5	/experiments/knapen_aot/videos/S_yt-Id-f63kUHsE_20.mp4	0.0	196.95750522613525	
35	96.44959211349487	movie	1		301.0	33.0	2.5	/experiments/knapen_aot/videos/S_yt-Id-f63kUHsE_20.mp4	0.0	196.96605229377747	2.5080020427703857
35	98.95759415626526	fix_post	2		12.0	33.0	2.5	/experiments/knapen_aot/videos/S_yt-Id-f63kUHsE_20.mp4	0.0	199.47405433654785	0.0999300479888916
36	99.05752420425415	fix_pre	0		15.0	34.0	2.5	/experiments/knapen_aot/videos/R_S_yt-s73Xqkcq9Js_285.mp4	0.0	199.57398438453674	0.12500786781311035
36	99.16677212715149	response	0	2		34.0	2.5	/experiments/knapen_aot/videos/R_S_yt-s73Xqkcq9Js_285.mp4	0.0	199.68323230743408	
36	99.18253207206726	movie	1		301.0	34.0	2.5	/experiments/knapen_aot/videos/R_S_yt-s73Xqkcq9Js_285.mp4	0.0	199.69899225234985	2.5084280967712402
36	101.6909601688385	fix_post	2		12.0	34.0	2.5	/experiments/knapen_aot/videos/R_S_yt-s73Xqkcq9Js_285.mp4	0.0	202.2074203491211	0.09993195533752441
37	101.79089212417603	fix_pre	0		22.0	35.0	2.5	blank	1.0	202.30735230445862	0.18329095840454102
37	101.96603107452393	response	0	2		35.0	2.5	blank	1.0	202.48249125480652	
37	101.97418308258057	movie	1		301.0	35.0	2.5	blank	1.0	202.49064326286316	2.5083200931549072
37	104.48250317573547	fix_post	2		12.0	35.0	2.5	blank	1.0	204.99896335601807	0.10005784034729004
38	104.58256101608276	fix_pre	0		31.0	36.0	2.5	/experiments/knapen_aot/videos/S_pexels-c-technical-6753390.mp4	0.0	205.09902119636536	0.25834202766418457
38	104.8253321647644	response	0	2		36.0	2.5	/experiments/knapen_aot/videos/S_pexels-c-technical-6753390.mp4	0.0	205.341792345047	
38	104.84090304374695	movie	1		189.0	36.0	2.5	/experiments/knapen_aot/videos/S_pexels-c-technical-6753390.mp4	0.0	205.35736322402954	2.508315086364746
38	107.3492181301117	fix_post	2		12.0	36.0	2.5	/experiments/knapen_aot/videos/S_pexels-c-technical-6753390.mp4	0.0	207.8656783103943	0.10039210319519043
39	107.44961023330688	fix_pre	0		14.0	37.0	2.5	/experiments/knapen_aot/videos/R_S_yt-4oT-2eGhmUo_102.mp4	0.0	207.96607041358948	0.11616182327270508
39	107.55769920349121	response	0	2		37.0	2.5	/experiments/knapen_aot/videos/R_S_yt-4oT-2eGhmUo_102.mp4	0.0	208.0741593837738	
39	107.56577205657959	movie	1		301.0	37.0	2.5	/experiments/knapen_aot/videos/R_S_yt-4oT-2eGhmUo_102.mp4	0.0	208.08223223686218	2.5083200931549072
39	110.0740921497345	fix_post	2		12.0	37.0	2.5	/experiments/knapen_aot/videos/R_S_yt-4oT-2eGhmUo_102.mp4	0.0	210.5905523300171	0.1000368595123291
40	110.17412900924683	fix_pre	0		11.0	38.0	2.5	/experiments/knapen_aot/videos/R_S_pexels-vlada-karpovich-8044792.mp4	0.0	210.69058918952942	0.09176111221313477
40	110.25756120681763	response	0	2		38.0	2.5	/experiments/knapen_aot/videos/R_S_pexels-vlada-karpovich-8044792.mp4	0.0	210.77402138710022	
40	110.26589012145996	movie	1		167.0	38.0	2.5	/experiments/knapen_aot/videos/R_S_pexels-vlada-karpovich-8044792.mp4	0.0	210.78235030174255	2.5082650184631348
40	112.7741551399231	fix_post	2		12.0	38.0	2.5	/experiments/knapen_aot/videos/R_S_pexels-vlada-karpovich-8044792.mp4	0.0	213.2906153202057	0.09996891021728516
41	112.87412405014038	fix_pre	0		11.0	39.0	2.5	/experiments/knapen_aot/videos/S_yt-i3-YlGenYmk_411.mp4	0.0	213.39058423042297	0.09165596961975098
41	112.95759701728821	response	0	2		39.0	2.5	/experiments/knapen_aot/videos/S_yt-i3-YlGenYmk_411.mp4	0.0	213.4740571975708	
41	112.96578001976013	movie	1		301.0	39.0	2.5	/experiments/knapen_aot/videos/S_yt-i3-YlGenYmk_411.mp4	0.0	213.48224020004272	2.5084052085876465
41	115.47418522834778	fix_post	2		12.0	39.0	2.5	/experiments/knapen_aot/videos/S_yt-i3-YlGenYmk_411.mp4	0.0	215.99064540863037	0.10021686553955078
42	115.57440209388733	fix_pre	0		17.0	40.0	2.5	blank	1.0	216.09086227416992	0.1414320468902588
42	115.70753407478333	response	0	2		40.0	2.5	blank	1.0	216.22399425506592	
42	115.71583414077759	movie	1		301.0	40.0	2.5	blank	1.0	216.23229432106018	2.5083210468292236
42	118.22415518760681	fix_post	2		12.0	40.0	2.5	blank	1.0	218.7406153678894	0.10019683837890625
43	118.32435202598572	fix_pre	0		21.0	41.0	2.5	/experiments/knapen_aot/videos/R_S_yt-7NjoFHBdP7c_102.mp4	0.0	218.8408122062683	0.17477011680603027
43	118.49088406562805	response	0	2		41.0	2.5	/experiments/knapen_aot/videos/R_S_yt-7NjoFHBdP7c_102.mp4	0.0	219.00734424591064	
43	118.49912214279175	movie	1		301.0	41.0	2.5	/experiments/knapen_aot/videos/R_S_yt-7NjoFHBdP7c_102.mp4	0.0	219.01558232307434	2.5083398818969727
43	121.00746202468872	fix_post	2		12.0	41.0	2.5	/experiments/knapen_aot/videos/R_S_yt-7NjoFHBdP7c_102.mp4	0.0	221.5239222049713	0.09997200965881348
44	121.10743403434753	fix_pre	0		15.0	42.0	2.5	/experiments/knapen_aot/videos/S_yt-xrPrnzvWUkY_7.mp4	0.0	221.62389421463013	0.12659406661987305
44	121.22429013252258	response	0	2		42.0	2.5	/experiments/knapen_aot/videos/S_yt-xrPrnzvWUkY_7.mp4	0.0	221.74075031280518	
44	121.23402810096741	movie	1		300.0	42.0	2.5	/experiments/knapen_aot/videos/S_yt-xrPrnzvWUkY_7.mp4	0.0	221.75048828125	2.5069351196289062
44	123.74096322059631	fix_post	2		12.0	42.0	2.5	/experiments/knapen_aot/videos/S_yt-xrPrnzvWUkY_7.mp4	0.0	224.2574234008789	0.09987378120422363
45	123.84083700180054	fix_pre	0		17.0	43.0	2.5	/experiments/knapen_aot/videos/R_S_yt-J1dw4AznwmQ_7.mp4	0.0	224.35729718208313	0.14158320426940918
45	123.9667820930481	response	0	2		43.0	2.5	/experiments/knapen_aot/videos/R_S_yt-J1dw4AznwmQ_7.mp4	0.0	224.4832422733307	
45	123.98242020606995	movie	1		301.0	43.0	2.5	/experiments/knapen_aot/videos/R_S_yt-J1dw4AznwmQ_7.mp4	0.0	224.49888038635254	2.5085480213165283
45	126.49096822738647	fix_post	2		12.0	43.0	2.5	/experiments/knapen_aot/videos/R_S_yt-J1dw4AznwmQ_7.mp4	0.0	227.00742840766907	0.09984493255615234
46	126.59081315994263	fix_pre	0		14.0	44.0	2.5	/experiments/knapen_aot/videos/R_S_yt-PreGL81PEP4_61.mp4	0.0	227.10727334022522	0.11658191680908203
46	126.69921207427979	response	0	2		44.0	2.5	/experiments/knapen_aot/videos/R_S_yt-PreGL81PEP4_61.mp4	0.0	227.21567225456238	
46	126.70739507675171	movie	1		300.0	44.0	2.5	/experiments/knapen_aot/videos/R_S_yt-PreGL81PEP4_61.mp4	0.0	227.2238552570343	2.5083930492401123
46	129.21578812599182	fix_post	2		12.0	44.0	2.5	/experiments/knapen_aot/videos/R_S_yt-PreGL81PEP4_61.mp4	0.0	229.7322483062744	0.09999394416809082
47	129.3157820701599	fix_pre	0		7.0	45.0	2.5	/experiments/knapen_aot/videos/S_yt-aTEGTeQuDWM_93.mp4	0.0	229.8322422504425	0.058283090591430664
47	129.36592817306519	response	0	2		45.0	2.5	/experiments/knapen_aot/videos/S_yt-aTEGTeQuDWM_93.mp4	0.0	229.88238835334778	
47	129.37406516075134	movie	1		301.0	45.0	2.5	/experiments/knapen_aot/videos/S_yt-aTEGTeQuDWM_93.mp4	0.0	229.89052534103394	2.5083670616149902
47	131.88243222236633	fix_post	2		12.0	45.0	2.5	/experiments/knapen_aot/videos/S_yt-aTEGTeQuDWM_93.mp4	0.0	232.39889240264893	0.0999898910522461
48	131.98242211341858	fix_pre	0		34.0	46.0	2.5	/experiments/knapen_aot/videos/R_S_ILSVRC2015_train_00425000.mp4	0.0	232.49888229370117	0.28334903717041016
48	132.25757718086243	response	0	2		46.0	2.5	/experiments/knapen_aot/videos/R_S_ILSVRC2015_train_00425000.mp4	0.0	232.77403736114502	
48	132.265771150589	movie	1		301.0	46.0	2.5	/experiments/knapen_aot/videos/R_S_ILSVRC2015_train_00425000.mp4	0.0	232.78223133087158	2.5083789825439453
48	134.77415013313293	fix_post	2		12.0	46.0	2.5	/experiments/knapen_aot/videos/R_S_ILSVRC2015_train_00425000.mp4	0.0	235.29061031341553	0.09994292259216309
49	134.8740930557251	fix_pre	0		28.0	47.0	2.5	blank	1.0	235.3905532360077	0.2333230972290039
49	135.09917521476746	response	0	2		47.0	2.5	blank	1.0	235.61563539505005	
49	135.1074161529541	movie	1		301.0	47.0	2.5	blank	1.0	235.6238763332367	2.5083670616149902
49	137.6157832145691	fix_post	2		12.0	47.0	2.5	blank	1.0	238.13224339485168	0.09993386268615723
50	137.71571707725525	fix_pre	0		34.0	48.0	2.5	/experiments/knapen_aot/videos/R_S_gHYomsO1dSU_5.mp4	0.0	238.23217725753784	0.28329992294311523
50	137.99087500572205	response	0	2		48.0	2.5	/experiments/knapen_aot/videos/R_S_gHYomsO1dSU_5.mp4	0.0	238.50733518600464	
50	137.99901700019836	movie	1		301.0	48.0	2.5	/experiments/knapen_aot/videos/R_S_gHYomsO1dSU_5.mp4	0.0	238.51547718048096	2.508378028869629
50	140.507395029068	fix_post	2		12.0	48.0	2.5	/experiments/knapen_aot/videos/R_S_gHYomsO1dSU_5.mp4	0.0	241.0238552093506	0.1000361442565918
51	140.60743117332458	fix_pre	0		11.0	49.0	2.5	/experiments/knapen_aot/videos/S_pexels-polina-tankilevitch-8203088.mp4	0.0	241.12389135360718	0.09181094169616699
51	140.6908140182495	response	0	2		49.0	2.5	/experiments/knapen_aot/videos/S_pexels-polina-tankilevitch-8203088.mp4	0.0	241.2072741985321	
51	140.69924211502075	movie	1		164.0	49.0	2.5	/experiments/knapen_aot/videos/S_pexels-polina-tankilevitch-8203088.mp4	0.0	241.21570229530334	2.5081560611724854
51	143.20739817619324	fix_post	2		12.0	49.0	2.5	/experiments/knapen_aot/videos/S_pexels-polina-tankilevitch-8203088.mp4	0.0	243.72385835647583	0.09999990463256836
52	143.3073980808258	fix_pre	0		13.0	50.0	2.5	/experiments/knapen_aot/videos/R_S_g201_CA_A016_C002_SDR_20191114_SDR_2K_AVC.mp4	0.0	243.8238582611084	0.10825705528259277
52	143.4075300693512	response	0	2		50.0	2.5	/experiments/knapen_aot/videos/R_S_g201_CA_A016_C002_SDR_20191114_SDR_2K_AVC.mp4	0.0	243.9239902496338	
52	143.4156551361084	movie	1		178.0	50.0	2.5	/experiments/knapen_aot/videos/R_S_g201_CA_A016_C002_SDR_20191114_SDR_2K_AVC.mp4	0.0	243.932115316391	2.5083200931549072
52	145.9239752292633	fix_post	2		12.0	50.0	2.5	/experiments/knapen_aot/videos/R_S_g201_CA_A016_C002_SDR_20191114_SDR_2K_AVC.mp4	0.0	246.4404354095459	0.10014581680297852
53	146.02412104606628	fix_pre	0		6.0	51.0	2.5	/experiments/knapen_aot/videos/R_S_ILSVRC2015_train_00371006.mp4	0.0	246.54058122634888	0.050022125244140625
53	146.0657970905304	response	0	2		51.0	2.5	/experiments/knapen_aot/videos/R_S_ILSVRC2015_train_00371006.mp4	0.0	246.582257270813	
53	146.07414317131042	movie	1		301.0	51.0	2.5	/experiments/knapen_aot/videos/R_S_ILSVRC2015_train_00371006.mp4	0.0	246.59060335159302	2.5081489086151123
53	148.58229207992554	fix_post	2		12.0	51.0	2.5	/experiments/knapen_aot/videos/R_S_ILSVRC2015_train_00371006.mp4	0.0	249.09875226020813	0.09994101524353027
54	148.68223309516907	fix_pre	0		9.0	52.0	2.5	/experiments/knapen_aot/videos/S_yt-c5_SFS4aaJI_1102.mp4	0.0	249.19869327545166	0.07511591911315918
54	148.7494502067566	response	0	2		52.0	2.5	/experiments/knapen_aot/videos/S_yt-c5_SFS4aaJI_1102.mp4	0.0	249.26591038703918	
54	148.75734901428223	movie	1		301.0	52.0	2.5	/experiments/knapen_aot/videos/S_yt-c5_SFS4aaJI_1102.mp4	0.0	249.27380919456482	2.5082859992980957
54	151.26563501358032	fix_post	2		12.0	52.0	2.5	/experiments/knapen_aot/videos/S_yt-c5_SFS4aaJI_1102.mp4	0.0	251.78209519386292	0.10007405281066895
55	151.365709066391	fix_pre	0		18.0	53.0	2.5	/experiments/knapen_aot/videos/S_yt-5DD4XtHSA9Q_171.mp4	0.0	251.88216924667358	0.14993715286254883
55	151.50743222236633	response	0	2		53.0	2.5	/experiments/knapen_aot/videos/S_yt-5DD4XtHSA9Q_171.mp4	0.0	252.02389240264893	
55	151.51564621925354	movie	1		301.0	53.0	2.5	/experiments/knapen_aot/videos/S_yt-5DD4XtHSA9Q_171.mp4	0.0	252.03210639953613	2.508335828781128
55	154.02398204803467	fix_post	2		12.0	53.0	2.5	/experiments/knapen_aot/videos/S_yt-5DD4XtHSA9Q_171.mp4	0.0	254.54044222831726	0.09994196891784668
56	154.12392401695251	fix_pre	0		30.0	54.0	2.5	/experiments/knapen_aot/videos/R_S_comp_HK_B005_C011_PSNK_v16_SDR_PS_20180914_SDR_2K_AVC.mp4	0.0	254.6403841972351	0.25003504753112793
56	154.36571311950684	response	0	2		54.0	2.5	/experiments/knapen_aot/videos/R_S_comp_HK_B005_C011_PSNK_v16_SDR_PS_20180914_SDR_2K_AVC.mp4	0.0	254.88217329978943	
56	154.37395906448364	movie	1		170.0	54.0	2.5	/experiments/knapen_aot/videos/R_S_comp_HK_B005_C011_PSNK_v16_SDR_PS_20180914_SDR_2K_AVC.mp4	0.0	254.89041924476624	2.5083091259002686
56	156.8822681903839	fix_post	2		12.0	54.0	2.5	/experiments/knapen_aot/videos/R_S_comp_HK_B005_C011_PSNK_v16_SDR_PS_20180914_SDR_2K_AVC.mp4	0.0	257.3987283706665	0.10004782676696777
57	156.98231601715088	fix_pre	0		112.0	55.0	2.5	blank	1.0	257.4987761974335	0.933265209197998
57	157.9073932170868	response	0	2		55.0	2.5	blank	1.0	258.4238533973694	
57	157.91558122634888	movie	1		301.0	55.0	2.5	blank	1.0	258.43204140663147	2.508368968963623
57	160.4239501953125	fix_post	2		12.0	55.0	2.5	blank	1.0	260.9404103755951	0.10000085830688477
58	160.52395105361938	fix_pre	0		36.0	56.0	2.5	/experiments/knapen_aot/videos/S_yt-BLmwmX-mni8_56.mp4	0.0	261.040411233902	0.3000020980834961
58	160.81573104858398	response	0	2		56.0	2.5	/experiments/knapen_aot/videos/S_yt-BLmwmX-mni8_56.mp4	0.0	261.3321912288666	
58	160.82395315170288	movie	1		298.0	56.0	2.5	/experiments/knapen_aot/videos/S_yt-BLmwmX-mni8_56.mp4	0.0	261.3404133319855	2.508225917816162
58	163.33217906951904	fix_post	2		12.0	56.0	2.5	/experiments/knapen_aot/videos/S_yt-BLmwmX-mni8_56.mp4	0.0	263.84863924980164	0.10007309913635254
59	163.4322521686554	fix_pre	0		14.0	57.0	2.5	/experiments/knapen_aot/videos/R_S_yt-0bovQBIUZho_15.mp4	0.0	263.948712348938	0.11669588088989258
59	163.54075503349304	response	0	2		57.0	2.5	/experiments/knapen_aot/videos/R_S_yt-0bovQBIUZho_15.mp4	0.0	264.05721521377563	
59	163.5489480495453	movie	1		301.0	57.0	2.5	/experiments/knapen_aot/videos/R_S_yt-0bovQBIUZho_15.mp4	0.0	264.0654082298279	2.508347988128662
59	166.05729603767395	fix_post	2		12.0	57.0	2.5	/experiments/knapen_aot/videos/R_S_yt-0bovQBIUZho_15.mp4	0.0	266.57375621795654	0.09994816780090332
60	166.15724420547485	fix_pre	0		13.0	58.0	2.5	/experiments/knapen_aot/videos/R_S_yt-F1X_vq0Zioc_154.mp4	0.0	266.67370438575745	0.10826301574707031
60	166.24984216690063	response	0	2		58.0	2.5	/experiments/knapen_aot/videos/R_S_yt-F1X_vq0Zioc_154.mp4	0.0	266.7663023471832	
60	166.26550722122192	movie	1		301.0	58.0	2.5	/experiments/knapen_aot/videos/R_S_yt-F1X_vq0Zioc_154.mp4	0.0	266.7819674015045	2.5084259510040283
60	168.77393317222595	fix_post	2		12.0	58.0	2.5	/experiments/knapen_aot/videos/R_S_yt-F1X_vq0Zioc_154.mp4	0.0	269.29039335250854	0.10000896453857422
61	168.87394213676453	fix_pre	0		15.0	59.0	2.5	/experiments/knapen_aot/videos/S_yt-b7JAHOeiTqU_44.mp4	0.0	269.3904023170471	0.12497901916503906
61	168.98314809799194	response	0	2		59.0	2.5	/experiments/knapen_aot/videos/S_yt-b7JAHOeiTqU_44.mp4	0.0	269.49960827827454	
61	168.99892115592957	movie	1		301.0	59.0	2.5	/experiments/knapen_aot/videos/S_yt-b7JAHOeiTqU_44.mp4	0.0	269.51538133621216	2.508288860321045
61	171.5072100162506	fix_post	2		12.0	59.0	2.5	/experiments/knapen_aot/videos/S_yt-b7JAHOeiTqU_44.mp4	0.0	272.0236701965332	0.10002708435058594
62	171.6072371006012	fix_pre	0		28.0	60.0	2.5	/experiments/knapen_aot/videos/R_S_yt-4GDusA21cEA_170.mp4	0.0	272.1236972808838	0.23334193229675293
62	171.83237218856812	response	0	2		60.0	2.5	/experiments/knapen_aot/videos/R_S_yt-4GDusA21cEA_170.mp4	0.0	272.3488323688507	
62	171.84057903289795	movie	1		300.0	60.0	2.5	/experiments/knapen_aot/videos/R_S_yt-4GDusA21cEA_170.mp4	0.0	272.35703921318054	2.5082850456237793
62	174.34886407852173	fix_post	2		12.0	60.0	2.5	/experiments/knapen_aot/videos/R_S_yt-4GDusA21cEA_170.mp4	0.0	274.8653242588043	0.10003399848937988
63	174.4488980770111	fix_pre	0		22.0	61.0	2.5	/experiments/knapen_aot/videos/S_comp_GMT312_162NC_139M_1041_AFRICA_NIGHT_v14_SDR_FINAL_20180706_SDR_2K_AVC.mp4	0.0	274.9653582572937	0.183333158493042
63	174.62398314476013	response	0	2		61.0	2.5	/experiments/knapen_aot/videos/S_comp_GMT312_162NC_139M_1041_AFRICA_NIGHT_v14_SDR_FINAL_20180706_SDR_2K_AVC.mp4	0.0	275.1404433250427	
63	174.63223123550415	movie	1		167.0	61.0	2.5	/experiments/knapen_aot/videos/S_comp_GMT312_162NC_139M_1041_AFRICA_NIGHT_v14_SDR_FINAL_20180706_SDR_2K_AVC.mp4	0.0	275.14869141578674	2.5083298683166504
63	177.1405611038208	fix_post	2		12.0	61.0	2.5	/experiments/knapen_aot/videos/S_comp_GMT312_162NC_139M_1041_AFRICA_NIGHT_v14_SDR_FINAL_20180706_SDR_2K_AVC.mp4	0.0	277.6570212841034	0.09999895095825195
64	177.24056005477905	fix_pre	0		16.0	62.0	2.5	blank	1.0	277.75702023506165	0.13322210311889648
64	177.3657021522522	response	0	2		62.0	2.5	blank	1.0	277.8821623325348	
64	177.37378215789795	movie	1		301.0	62.0	2.5	blank	1.0	277.89024233818054	2.5083649158477783
64	179.88214707374573	fix_post	2		12.0	62.0	2.5	blank	1.0	280.3986072540283	0.1000680923461914
65	179.98221516609192	fix_pre	0		32.0	63.0	2.5	/experiments/knapen_aot/videos/R_S_yt-RO4mhuXBVrY_67.mp4	0.0	280.4986753463745	0.26665496826171875
65	180.24068117141724	response	0	2		63.0	2.5	/experiments/knapen_aot/videos/R_S_yt-RO4mhuXBVrY_67.mp4	0.0	280.75714135169983	
65	180.24887013435364	movie	1		301.0	63.0	2.5	/experiments/knapen_aot/videos/R_S_yt-RO4mhuXBVrY_67.mp4	0.0	280.76533031463623	2.5084080696105957
65	182.75727820396423	fix_post	2		12.0	63.0	2.5	/experiments/knapen_aot/videos/R_S_yt-RO4mhuXBVrY_67.mp4	0.0	283.2737383842468	0.09998703002929688
66	182.85726523399353	fix_pre	0		8.0	64.0	2.5	/experiments/knapen_aot/videos/R_S_production_ID_5144824.mp4	0.0	283.3737254142761	0.06658792495727539
66	182.91594815254211	response	0	2		64.0	2.5	/experiments/knapen_aot/videos/R_S_production_ID_5144824.mp4	0.0	283.4324083328247	
66	182.9238531589508	movie	1		164.0	64.0	2.5	/experiments/knapen_aot/videos/R_S_production_ID_5144824.mp4	0.0	283.4403133392334	2.5083189010620117
66	185.43217206001282	fix_post	2		12.0	64.0	2.5	/experiments/knapen_aot/videos/R_S_production_ID_5144824.mp4	0.0	285.9486322402954	0.09998011589050293
67	185.53215217590332	fix_pre	0		20.0	65.0	2.5	/experiments/knapen_aot/videos/R_S_ILSVRC2015_train_00682005.mp4	0.0	286.0486123561859	0.16664886474609375
67	185.6907980442047	response	0	2		65.0	2.5	/experiments/knapen_aot/videos/R_S_ILSVRC2015_train_00682005.mp4	0.0	286.2072582244873	
67	185.6988010406494	movie	1		301.0	65.0	2.5	/experiments/knapen_aot/videos/R_S_ILSVRC2015_train_00682005.mp4	0.0	286.215261220932	2.508388042449951
67	188.20718908309937	fix_post	2		12.0	65.0	2.5	/experiments/knapen_aot/videos/R_S_ILSVRC2015_train_00682005.mp4	0.0	288.72364926338196	0.09997105598449707
68	188.30716013908386	fix_pre	0		13.0	66.0	2.5	/experiments/knapen_aot/videos/S_ILSVRC2015_train_00303005.mp4	0.0	288.82362031936646	0.10833287239074707
68	188.407329082489	response	0	2		66.0	2.5	/experiments/knapen_aot/videos/S_ILSVRC2015_train_00303005.mp4	0.0	288.9237892627716	
68	188.4154930114746	movie	1		301.0	66.0	2.5	/experiments/knapen_aot/videos/S_ILSVRC2015_train_00303005.mp4	0.0	288.9319531917572	2.5083351135253906
68	190.923828125	fix_post	2		12.0	66.0	2.5	/experiments/knapen_aot/videos/S_ILSVRC2015_train_00303005.mp4	0.0	291.4402883052826	0.10009503364562988
69	191.02392315864563	fix_pre	0		15.0	67.0	2.5	/experiments/knapen_aot/videos/S_yt-wVMhACNFF-M_154.mp4	0.0	291.5403833389282	0.12610697746276855
69	191.14061307907104	response	0	2		67.0	2.5	/experiments/knapen_aot/videos/S_yt-wVMhACNFF-M_154.mp4	0.0	291.65707325935364	
69	191.1500301361084	movie	1		301.0	67.0	2.5	/experiments/knapen_aot/videos/S_yt-wVMhACNFF-M_154.mp4	0.0	291.666490316391	2.5071098804473877
69	193.6571400165558	fix_post	2		12.0	67.0	2.5	/experiments/knapen_aot/videos/S_yt-wVMhACNFF-M_154.mp4	0.0	294.1736001968384	0.09997820854187012
70	193.75711822509766	fix_pre	0		33.0	68.0	2.5	blank	1.0	294.27357840538025	0.27503085136413574
70	194.0238971710205	response	0	2		68.0	2.5	blank	1.0	294.5403573513031	
70	194.0321490764618	movie	1		301.0	68.0	2.5	blank	1.0	294.5486092567444	2.5083250999450684
70	196.54047417640686	fix_post	2		12.0	68.0	2.5	blank	1.0	297.05693435668945	0.09993886947631836
71	196.64041304588318	fix_pre	0		100.0	69.0	2.5	/experiments/knapen_aot/videos/R_S_production_ID_5119260.mp4	0.0	297.15687322616577	0.8333590030670166
71	197.46555519104004	response	0	2		69.0	2.5	/experiments/knapen_aot/videos/R_S_production_ID_5119260.mp4	0.0	297.98201537132263	
71	197.4737720489502	movie	1		166.0	69.0	2.5	/experiments/knapen_aot/videos/R_S_production_ID_5119260.mp4	0.0	297.9902322292328	2.5083229541778564
71	199.98209500312805	fix_post	2		12.0	69.0	2.5	/experiments/knapen_aot/videos/R_S_production_ID_5119260.mp4	0.0	300.49855518341064	0.09999608993530273
72	200.08209109306335	fix_pre	0		3.0	70.0	2.5	/experiments/knapen_aot/videos/R_S_Person_Going_Through_A_Bible.mp4	0.0	300.59855127334595	0.026235103607177734
72	200.09159207344055	response	0	2		70.0	2.5	/experiments/knapen_aot/videos/R_S_Person_Going_Through_A_Bible.mp4	0.0	300.60805225372314	
72	200.10832619667053	movie	1		165.0	70.0	2.5	/experiments/knapen_aot/videos/R_S_Person_Going_Through_A_Bible.mp4	0.0	300.6247863769531	2.507143974304199
72	202.61547017097473	fix_post	2		12.0	70.0	2.5	/experiments/knapen_aot/videos/R_S_Person_Going_Through_A_Bible.mp4	0.0	303.1319303512573	0.09991884231567383
73	202.7153890132904	fix_pre	0		10.0	71.0	2.5	/experiments/knapen_aot/videos/R_S_yt-GBt59U0KUR0_6.mp4	0.0	303.231849193573	0.0833590030670166
73	202.79046320915222	response	0	2		71.0	2.5	/experiments/knapen_aot/videos/R_S_yt-GBt59U0KUR0_6.mp4	0.0	303.3069233894348	
73	202.79874801635742	movie	1		301.0	71.0	2.5	/experiments/knapen_aot/videos/R_S_yt-GBt59U0KUR0_6.mp4	0.0	303.31520819664	2.5083131790161133
73	205.30706119537354	fix_post	2		12.0	71.0	2.5	/experiments/knapen_aot/videos/R_S_yt-GBt59U0KUR0_6.mp4	0.0	305.8235213756561	0.09997701644897461
74	205.4070382118225	fix_pre	0		6.0	72.0	2.5	/experiments/knapen_aot/videos/R_S_yt-i3-YlGenYmk_411.mp4	0.0	305.9234983921051	0.05003190040588379
74	205.44896912574768	response	0	2		72.0	2.5	/experiments/knapen_aot/videos/R_S_yt-i3-YlGenYmk_411.mp4	0.0	305.9654293060303	
74	205.4570701122284	movie	1		301.0	72.0	2.5	/experiments/knapen_aot/videos/R_S_yt-i3-YlGenYmk_411.mp4	0.0	305.973530292511	2.508418083190918
74	207.9654881954193	fix_post	2		12.0	72.0	2.5	/experiments/knapen_aot/videos/R_S_yt-i3-YlGenYmk_411.mp4	0.0	308.4819483757019	0.09996390342712402
75	208.06545209884644	fix_pre	0		11.0	73.0	2.5	/experiments/knapen_aot/videos/R_S_yt-D_f3_HIXG2g_87.mp4	0.0	308.581912279129	0.09163308143615723
75	208.14893007278442	response	0	2		73.0	2.5	/experiments/knapen_aot/videos/R_S_yt-D_f3_HIXG2g_87.mp4	0.0	308.665390253067	
75	208.1570851802826	movie	1		301.0	73.0	2.5	/experiments/knapen_aot/videos/R_S_yt-D_f3_HIXG2g_87.mp4	0.0	308.6735453605652	2.5082499980926514
75	210.66533517837524	fix_post	2		12.0	73.0	2.5	/experiments/knapen_aot/videos/R_S_yt-D_f3_HIXG2g_87.mp4	0.0	311.18179535865784	0.10012984275817871
76	210.76546502113342	fix_pre	0		18.0	74.0	2.5	/experiments/knapen_aot/videos/R_S_yt-YykKZWKmLnQ_386.mp4	0.0	311.281925201416	0.1499321460723877
76	210.90721011161804	response	0	2		74.0	2.5	/experiments/knapen_aot/videos/R_S_yt-YykKZWKmLnQ_386.mp4	0.0	311.42367029190063	
76	210.9153971672058	movie	1		301.0	74.0	2.5	/experiments/knapen_aot/videos/R_S_yt-YykKZWKmLnQ_386.mp4	0.0	311.4318573474884	2.508357048034668
76	213.42375421524048	fix_post	2		12.0	74.0	2.5	/experiments/knapen_aot/videos/R_S_yt-YykKZWKmLnQ_386.mp4	0.0	313.94021439552307	0.09999990463256836
77	213.52375411987305	fix_pre	0		11.0	75.0	2.5	blank	1.0	314.04021430015564	0.0916299819946289
77	213.6074550151825	response	0	2		75.0	2.5	blank	1.0	314.1239151954651	
77	213.61538410186768	movie	1		301.0	75.0	2.5	blank	1.0	314.13184428215027	2.5083260536193848
77	216.12371015548706	fix_post	2		12.0	75.0	2.5	blank	1.0	316.64017033576965	0.09999704360961914
78	216.22370719909668	fix_pre	0		26.0	76.0	2.5	/experiments/knapen_aot/videos/S_ux8Mvi8P16k_168.mp4	0.0	316.7401673793793	0.21775197982788086
78	216.43215417861938	response	0	2		76.0	2.5	/experiments/knapen_aot/videos/S_ux8Mvi8P16k_168.mp4	0.0	316.948614358902	
78	216.44145917892456	movie	1		301.0	76.0	2.5	/experiments/knapen_aot/videos/S_ux8Mvi8P16k_168.mp4	0.0	316.95791935920715	2.5071728229522705
78	218.94863200187683	fix_post	2		12.0	76.0	2.5	/experiments/knapen_aot/videos/S_ux8Mvi8P16k_168.mp4	0.0	319.4650921821594	0.10006904602050781
79	219.04870104789734	fix_pre	0		3.0	77.0	2.5	/experiments/knapen_aot/videos/R_S_yt-s73Xqkcq9Js_285.mp4	0.0	319.56516122817993	0.0250091552734375
79	219.06553506851196	response	0	2		77.0	2.5	/experiments/knapen_aot/videos/R_S_yt-s73Xqkcq9Js_285.mp4	0.0	319.58199524879456	
79	219.07371020317078	movie	1		301.0	77.0	2.5	/experiments/knapen_aot/videos/R_S_yt-s73Xqkcq9Js_285.mp4	0.0	319.59017038345337	2.5083489418029785
79	221.58205914497375	fix_post	2		12.0	77.0	2.5	/experiments/knapen_aot/videos/R_S_yt-s73Xqkcq9Js_285.mp4	0.0	322.09851932525635	0.09991288185119629
80	221.68197202682495	fix_pre	0		12.0	78.0	2.5	/experiments/knapen_aot/videos/S_8amznWxLS04_212.mp4	0.0	322.19843220710754	0.10005998611450195
80	221.76624703407288	response	0	2		78.0	2.5	/experiments/knapen_aot/videos/S_8amznWxLS04_212.mp4	0.0	322.28270721435547	
80	221.78203201293945	movie	1		301.0	78.0	2.5	/experiments/knapen_aot/videos/S_8amznWxLS04_212.mp4	0.0	322.29849219322205	2.5083320140838623
80	224.29036402702332	fix_post	2		12.0	78.0	2.5	/experiments/knapen_aot/videos/S_8amznWxLS04_212.mp4	0.0	324.8068242073059	0.09994101524353027
81	224.39030504226685	fix_pre	0		23.0	79.0	2.5	/experiments/knapen_aot/videos/R_S_yt-bH4nJibL4Jo_164.mp4	0.0	324.90676522254944	0.19170713424682617
81	224.5738182067871	response	0	2		79.0	2.5	/experiments/knapen_aot/videos/R_S_yt-bH4nJibL4Jo_164.mp4	0.0	325.0902783870697	
81	224.58201217651367	movie	1		301.0	79.0	2.5	/experiments/knapen_aot/videos/R_S_yt-bH4nJibL4Jo_164.mp4	0.0	325.09847235679626	2.5083060264587402
81	227.0903182029724	fix_post	2		12.0	79.0	2.5	/experiments/knapen_aot/videos/R_S_yt-bH4nJibL4Jo_164.mp4	0.0	327.606778383255	0.10004496574401855
82	227.19036316871643	fix_pre	0		26.0	80.0	2.5	/experiments/knapen_aot/videos/S_pexels-polina-tankilevitch-8203088.mp4	0.0	327.706823348999	0.21667695045471191
82	227.39874601364136	response	0	2		80.0	2.5	/experiments/knapen_aot/videos/S_pexels-polina-tankilevitch-8203088.mp4	0.0	327.91520619392395	
82	227.40704011917114	movie	1		162.0	80.0	2.5	/experiments/knapen_aot/videos/S_pexels-polina-tankilevitch-8203088.mp4	0.0	327.92350029945374	2.5082390308380127
82	229.91527915000916	fix_post	2		12.0	80.0	2.5	/experiments/knapen_aot/videos/S_pexels-polina-tankilevitch-8203088.mp4	0.0	330.43173933029175	0.10002493858337402
83	230.01530408859253	fix_pre	0		23.0	81.0	2.5	/experiments/knapen_aot/videos/R_S_yt-PYHK810V_n8_1375.mp4	0.0	330.5317642688751	0.19162893295288086
83	230.19881200790405	response	0	2		81.0	2.5	/experiments/knapen_aot/videos/R_S_yt-PYHK810V_n8_1375.mp4	0.0	330.71527218818665	
83	230.2069330215454	movie	1		301.0	81.0	2.5	/experiments/knapen_aot/videos/R_S_yt-PYHK810V_n8_1375.mp4	0.0	330.723393201828	2.508355140686035
83	232.71528816223145	fix_post	2		12.0	81.0	2.5	/experiments/knapen_aot/videos/R_S_yt-PYHK810V_n8_1375.mp4	0.0	333.23174834251404	0.09999895095825195
84	232.8152871131897	fix_pre	0		38.0	82.0	2.5	blank	1.0	333.3317472934723	0.31671905517578125
84	233.12378001213074	response	0	2		82.0	2.5	blank	1.0	333.64024019241333	
84	233.13200616836548	movie	1		301.0	82.0	2.5	blank	1.0	333.64846634864807	2.5083060264587402
84	235.64031219482422	fix_post	2		12.0	82.0	2.5	blank	1.0	336.1567723751068	0.09992194175720215
85	235.74023413658142	fix_pre	0		39.0	83.0	2.5	/experiments/knapen_aot/videos/S_yt-BAQ3Xhm_PPE_23.mp4	0.0	336.256694316864	0.3261909484863281
85	236.057067155838	response	0	2		83.0	2.5	/experiments/knapen_aot/videos/S_yt-BAQ3Xhm_PPE_23.mp4	0.0	336.5735273361206	
85	236.06642508506775	movie	1		301.0	83.0	2.5	/experiments/knapen_aot/videos/S_yt-BAQ3Xhm_PPE_23.mp4	0.0	336.58288526535034	2.5071489810943604
85	238.5735740661621	fix_post	2		12.0	83.0	2.5	/experiments/knapen_aot/videos/S_yt-BAQ3Xhm_PPE_23.mp4	0.0	339.0900342464447	0.10000395774841309
87	238.67357802391052	stim	0		368.0					339.1900382041931	3.0666451454162598
87	238.76647210121155	response	0	2						339.28293228149414	
87	241.7345621585846	response	0	space						342.2510223388672	
