trial_nr	onset	event_type	phase	response	nr_frames	movie_index	movie_duration	movie_file	blank	onset_abs	duration
0	0.12711310386657715	stim	0		42.0					58.41090202331543	0.34780287742614746
0	0.46767091751098633	response	0	space						58.75145983695984	
1	0.4749159812927246	stim	0		121.0					58.75870490074158	1.0083630084991455
1	1.383436918258667	response	0	space						59.66722583770752	
1	1.4832789897918701	stim	1		120.0					59.76706790924072	0.9997920989990234
1	1.7084228992462158	response	1	space						59.99221181869507	
1	2.149722099304199	response	1	space						60.43351101875305	
2	2.4830710887908936	fix_pre	0		1.0	0.0	2.5	/experiments/knapen_aot/videos/S_pexels-cottonbro-5780808.mp4	0.0	60.766860008239746	0.011781930923461914
2	2.4867780208587646	response	0	space		0.0	2.5	/experiments/knapen_aot/videos/S_pexels-cottonbro-5780808.mp4	0.0	60.77056694030762	
2	2.4948530197143555	movie	1		163.0	0.0	2.5	/experiments/knapen_aot/videos/S_pexels-cottonbro-5780808.mp4	0.0	60.77864193916321	2.5047860145568848
2	4.99963903427124	fix_post	2		12.0	0.0	2.5	/experiments/knapen_aot/videos/S_pexels-cottonbro-5780808.mp4	0.0	63.28342795372009	0.10000300407409668
3	5.099642038345337	fix_pre	0		113.0	1.0	2.5	/experiments/knapen_aot/videos/R_S_yt-14tjqjjjAEI_15.mp4	0.0	63.38343095779419	0.9437189102172852
3	6.036406993865967	response	0	2		1.0	2.5	/experiments/knapen_aot/videos/R_S_yt-14tjqjjjAEI_15.mp4	0.0	64.32019591331482	
3	6.043360948562622	movie	1		298.0	1.0	2.5	/experiments/knapen_aot/videos/R_S_yt-14tjqjjjAEI_15.mp4	0.0	64.32714986801147	2.506282091140747
3	8.54964303970337	fix_post	2		12.0	1.0	2.5	/experiments/knapen_aot/videos/R_S_yt-14tjqjjjAEI_15.mp4	0.0	66.83343195915222	0.09993600845336914
4	8.649579048156738	fix_pre	0		53.0	2.0	2.5	/experiments/knapen_aot/videos/S_ga8dBJH_qK8_765.mp4	0.0	66.93336796760559	0.4423098564147949
4	9.08315896987915	response	0	2		2.0	2.5	/experiments/knapen_aot/videos/S_ga8dBJH_qK8_765.mp4	0.0	67.366947889328	
4	9.091888904571533	movie	1		300.0	2.0	2.5	/experiments/knapen_aot/videos/S_ga8dBJH_qK8_765.mp4	0.0	67.37567782402039	2.507667064666748
4	11.599555969238281	fix_post	2		12.0	2.0	2.5	/experiments/knapen_aot/videos/S_ga8dBJH_qK8_765.mp4	0.0	69.88334488868713	0.10010814666748047
5	11.699664115905762	fix_pre	0		51.0	3.0	2.5	/experiments/knapen_aot/videos/S_ILSVRC2015_train_00521000.mp4	0.0	69.98345303535461	0.42499399185180664
5	12.116456985473633	response	0	2		3.0	2.5	/experiments/knapen_aot/videos/S_ILSVRC2015_train_00521000.mp4	0.0	70.40024590492249	
5	12.124658107757568	movie	1		301.0	3.0	2.5	/experiments/knapen_aot/videos/S_ILSVRC2015_train_00521000.mp4	0.0	70.40844702720642	2.508286952972412
5	14.63294506072998	fix_post	2		12.0	3.0	2.5	/experiments/knapen_aot/videos/S_ILSVRC2015_train_00521000.mp4	0.0	72.91673398017883	0.10001897811889648
6	14.732964038848877	fix_pre	0		70.0	4.0	2.5	/experiments/knapen_aot/videos/R_S_3dzza09VbXY_235.mp4	0.0	73.01675295829773	0.5833098888397217
6	15.308089971542358	response	0	2		4.0	2.5	/experiments/knapen_aot/videos/R_S_3dzza09VbXY_235.mp4	0.0	73.59187889099121	
6	15.316273927688599	movie	1		301.0	4.0	2.5	/experiments/knapen_aot/videos/R_S_3dzza09VbXY_235.mp4	0.0	73.60006284713745	2.508331060409546
6	17.824604988098145	fix_post	2		12.0	4.0	2.5	/experiments/knapen_aot/videos/R_S_3dzza09VbXY_235.mp4	0.0	76.108393907547	0.10065293312072754
7	17.925257921218872	fix_pre	0		47.0	5.0	2.5	/experiments/knapen_aot/videos/S_yt-iT6jsSikmGM_4.mp4	0.0	76.20904684066772	0.3909950256347656
7	18.300523042678833	response	0	2		5.0	2.5	/experiments/knapen_aot/videos/S_yt-iT6jsSikmGM_4.mp4	0.0	76.58431196212769	
7	18.316252946853638	movie	1		301.0	5.0	2.5	/experiments/knapen_aot/videos/S_yt-iT6jsSikmGM_4.mp4	0.0	76.60004186630249	2.508289098739624
7	20.82454204559326	fix_post	2		12.0	5.0	2.5	/experiments/knapen_aot/videos/S_yt-iT6jsSikmGM_4.mp4	0.0	79.10833096504211	0.1001439094543457
8	20.924685955047607	fix_pre	0		47.0	6.0	2.5	/experiments/knapen_aot/videos/R_S_yt-Ol4xuEA8xQc_776.mp4	0.0	79.20847487449646	0.39156603813171387
8	21.30052399635315	response	0	2		6.0	2.5	/experiments/knapen_aot/videos/R_S_yt-Ol4xuEA8xQc_776.mp4	0.0	79.584312915802	
8	21.31625199317932	movie	1		301.0	6.0	2.5	/experiments/knapen_aot/videos/R_S_yt-Ol4xuEA8xQc_776.mp4	0.0	79.60004091262817	2.5082321166992188
8	23.82448410987854	fix_post	2		12.0	6.0	2.5	/experiments/knapen_aot/videos/R_S_yt-Ol4xuEA8xQc_776.mp4	0.0	82.10827302932739	0.10008597373962402
9	23.924570083618164	fix_pre	0		53.0	7.0	2.5	blank	1.0	82.20835900306702	0.44167304039001465
9	24.358021020889282	response	0	2		7.0	2.5	blank	1.0	82.64180994033813	
9	24.36624312400818	movie	1		301.0	7.0	2.5	blank	1.0	82.65003204345703	2.508281946182251
9	26.87452507019043	fix_post	2		12.0	7.0	2.5	blank	1.0	85.15831398963928	0.09994387626647949
10	26.97446894645691	fix_pre	0		104.0	8.0	2.5	/experiments/knapen_aot/videos/R_S_flickr-csgzs-8144064966_10.mp4	0.0	85.25825786590576	0.8673021793365479
10	27.83303689956665	response	0	2		8.0	2.5	/experiments/knapen_aot/videos/R_S_flickr-csgzs-8144064966_10.mp4	0.0	86.1168258190155	
10	27.841771125793457	movie	1		299.0	8.0	2.5	/experiments/knapen_aot/videos/R_S_flickr-csgzs-8144064966_10.mp4	0.0	86.12556004524231	2.5077779293060303
10	30.349549055099487	fix_post	2		12.0	8.0	2.5	/experiments/knapen_aot/videos/R_S_flickr-csgzs-8144064966_10.mp4	0.0	88.63333797454834	0.09999895095825195
11	30.44954800605774	fix_pre	0		57.0	9.0	2.5	/experiments/knapen_aot/videos/S_yt-074ygGXNoQ8_64.mp4	0.0	88.73333692550659	0.4755239486694336
11	30.916348934173584	response	0	2		9.0	2.5	/experiments/knapen_aot/videos/S_yt-074ygGXNoQ8_64.mp4	0.0	89.20013785362244	
11	30.925071954727173	movie	1		301.0	9.0	2.5	/experiments/knapen_aot/videos/S_yt-074ygGXNoQ8_64.mp4	0.0	89.20886087417603	2.507822036743164
11	33.43289399147034	fix_post	2		12.0	9.0	2.5	/experiments/knapen_aot/videos/S_yt-074ygGXNoQ8_64.mp4	0.0	91.71668291091919	0.09999799728393555
12	33.53289198875427	fix_pre	0		55.0	10.0	2.5	/experiments/knapen_aot/videos/S_pexels-yaroslav-shuraev-8091356.mp4	0.0	91.81668090820312	0.4583249092102051
12	33.98302698135376	response	0	2		10.0	2.5	/experiments/knapen_aot/videos/S_pexels-yaroslav-shuraev-8091356.mp4	0.0	92.26681590080261	
12	33.99121689796448	movie	1		203.0	10.0	2.5	/experiments/knapen_aot/videos/S_pexels-yaroslav-shuraev-8091356.mp4	0.0	92.27500581741333	2.508472204208374
12	36.49968910217285	fix_post	2		12.0	10.0	2.5	/experiments/knapen_aot/videos/S_pexels-yaroslav-shuraev-8091356.mp4	0.0	94.7834780216217	0.09979581832885742
13	36.59948492050171	fix_pre	0		59.0	11.0	2.5	/experiments/knapen_aot/videos/R_S_yt-iT6jsSikmGM_4.mp4	0.0	94.88327383995056	0.49216413497924805
13	37.083017110824585	response	0	2		11.0	2.5	/experiments/knapen_aot/videos/R_S_yt-iT6jsSikmGM_4.mp4	0.0	95.36680603027344	
13	37.09164905548096	movie	1		301.0	11.0	2.5	/experiments/knapen_aot/videos/R_S_yt-iT6jsSikmGM_4.mp4	0.0	95.37543797492981	2.507767915725708
13	39.599416971206665	fix_post	2		12.0	11.0	2.5	/experiments/knapen_aot/videos/R_S_yt-iT6jsSikmGM_4.mp4	0.0	97.88320589065552	0.10009598731994629
14	39.69951295852661	fix_pre	0		56.0	12.0	2.5	/experiments/knapen_aot/videos/R_S_yt-0Ut9QANGX20_35.mp4	0.0	97.98330187797546	0.46659016609191895
14	40.15801405906677	response	0	2		12.0	2.5	/experiments/knapen_aot/videos/R_S_yt-0Ut9QANGX20_35.mp4	0.0	98.44180297851562	
14	40.16610312461853	movie	1		301.0	12.0	2.5	/experiments/knapen_aot/videos/R_S_yt-0Ut9QANGX20_35.mp4	0.0	98.44989204406738	2.508312940597534
14	42.674416065216064	fix_post	2		12.0	12.0	2.5	/experiments/knapen_aot/videos/R_S_yt-0Ut9QANGX20_35.mp4	0.0	100.95820498466492	0.10006594657897949
15	42.774482011795044	fix_pre	0		47.0	13.0	2.5	/experiments/knapen_aot/videos/S_ILSVRC2015_train_00524001.mp4	0.0	101.0582709312439	0.39168810844421387
15	43.158013105392456	response	0	2		13.0	2.5	/experiments/knapen_aot/videos/S_ILSVRC2015_train_00524001.mp4	0.0	101.44180202484131	
15	43.16617012023926	movie	1		301.0	13.0	2.5	/experiments/knapen_aot/videos/S_ILSVRC2015_train_00524001.mp4	0.0	101.44995903968811	2.5082688331604004
15	45.67443895339966	fix_post	2		12.0	13.0	2.5	/experiments/knapen_aot/videos/S_ILSVRC2015_train_00524001.mp4	0.0	103.95822787284851	0.10003113746643066
16	45.77447009086609	fix_pre	0		56.0	14.0	2.5	blank	1.0	104.05825901031494	0.4666748046875
16	46.23296809196472	response	0	2		14.0	2.5	blank	1.0	104.51675701141357	
16	46.24114489555359	movie	1		301.0	14.0	2.5	blank	1.0	104.52493381500244	2.5082900524139404
16	48.74943494796753	fix_post	2		12.0	14.0	2.5	blank	1.0	107.03322386741638	0.09995007514953613
17	48.849385023117065	fix_pre	0		71.0	15.0	2.5	/experiments/knapen_aot/videos/S_yt-WCT9dyz0-gQ_36.mp4	0.0	107.13317394256592	0.5917150974273682
17	49.43295907974243	response	0	2		15.0	2.5	/experiments/knapen_aot/videos/S_yt-WCT9dyz0-gQ_36.mp4	0.0	107.71674799919128	
17	49.441100120544434	movie	1		301.0	15.0	2.5	/experiments/knapen_aot/videos/S_yt-WCT9dyz0-gQ_36.mp4	0.0	107.72488903999329	2.5083439350128174
17	51.94944405555725	fix_post	2		12.0	15.0	2.5	/experiments/knapen_aot/videos/S_yt-WCT9dyz0-gQ_36.mp4	0.0	110.2332329750061	0.10044384002685547
18	52.049887895584106	fix_pre	0		55.0	16.0	2.5	/experiments/knapen_aot/videos/S_yt-9t5-3Qe_t9A_591.mp4	0.0	110.33367681503296	0.45830321311950684
18	52.49957799911499	response	0	2		16.0	2.5	/experiments/knapen_aot/videos/S_yt-9t5-3Qe_t9A_591.mp4	0.0	110.78336691856384	
18	52.50819110870361	movie	1		300.0	16.0	2.5	/experiments/knapen_aot/videos/S_yt-9t5-3Qe_t9A_591.mp4	0.0	110.79198002815247	2.5079588890075684
18	55.01614999771118	fix_post	2		12.0	16.0	2.5	/experiments/knapen_aot/videos/S_yt-9t5-3Qe_t9A_591.mp4	0.0	113.29993891716003	0.09990811347961426
19	55.116058111190796	fix_pre	0		79.0	17.0	2.5	/experiments/knapen_aot/videos/S_comp_HK_H004_C013_t9_6M_HB_tag0.mp4	0.0	113.39984703063965	0.6582880020141602
19	55.76629400253296	response	0	2		17.0	2.5	/experiments/knapen_aot/videos/S_comp_HK_H004_C013_t9_6M_HB_tag0.mp4	0.0	114.05008292198181	
19	55.774346113204956	movie	1		175.0	17.0	2.5	/experiments/knapen_aot/videos/S_comp_HK_H004_C013_t9_6M_HB_tag0.mp4	0.0	114.05813503265381	2.508427858352661
19	58.28277397155762	fix_post	2		12.0	17.0	2.5	/experiments/knapen_aot/videos/S_comp_HK_H004_C013_t9_6M_HB_tag0.mp4	0.0	116.56656289100647	0.10002303123474121
20	58.38279700279236	fix_pre	0		55.0	18.0	2.5	/experiments/knapen_aot/videos/S_comp_C003_C003_PS_v01_SDR_PS_20180925_SDR_2K_AVC.mp4	0.0	116.66658592224121	0.4586620330810547
20	58.8329119682312	response	0	2		18.0	2.5	/experiments/knapen_aot/videos/S_comp_C003_C003_PS_v01_SDR_PS_20180925_SDR_2K_AVC.mp4	0.0	117.11670088768005	
20	58.84145903587341	movie	1		163.0	18.0	2.5	/experiments/knapen_aot/videos/S_comp_C003_C003_PS_v01_SDR_PS_20180925_SDR_2K_AVC.mp4	0.0	117.12524795532227	2.50791597366333
20	61.34937500953674	fix_post	2		12.0	18.0	2.5	/experiments/knapen_aot/videos/S_comp_C003_C003_PS_v01_SDR_PS_20180925_SDR_2K_AVC.mp4	0.0	119.6331639289856	0.10000896453857422
21	61.44938397407532	fix_pre	0		90.0	19.0	2.5	blank	1.0	119.73317289352417	0.7500691413879395
21	62.191224098205566	response	0	2		19.0	2.5	blank	1.0	120.47501301765442	
21	62.19945311546326	movie	1		301.0	19.0	2.5	blank	1.0	120.48324203491211	2.508241891860962
21	64.70769500732422	fix_post	2		12.0	19.0	2.5	blank	1.0	122.99148392677307	0.10005903244018555
22	64.8077540397644	fix_pre	0		100.0	20.0	2.5	/experiments/knapen_aot/videos/S_yt-2IxVZeiSv3g_28.mp4	0.0	123.09154295921326	0.8332290649414062
22	65.63285207748413	response	0	2		20.0	2.5	/experiments/knapen_aot/videos/S_yt-2IxVZeiSv3g_28.mp4	0.0	123.91664099693298	
22	65.64098310470581	movie	1		301.0	20.0	2.5	/experiments/knapen_aot/videos/S_yt-2IxVZeiSv3g_28.mp4	0.0	123.92477202415466	2.5084228515625
22	68.14940595626831	fix_post	2		12.0	20.0	2.5	/experiments/knapen_aot/videos/S_yt-2IxVZeiSv3g_28.mp4	0.0	126.43319487571716	0.09996604919433594
23	68.24937200546265	fix_pre	0		48.0	21.0	2.5	/experiments/knapen_aot/videos/R_S_ILSVRC2015_train_00584001.mp4	0.0	126.5331609249115	0.3999369144439697
23	68.64123392105103	response	0	2		21.0	2.5	/experiments/knapen_aot/videos/R_S_ILSVRC2015_train_00584001.mp4	0.0	126.92502284049988	
23	68.64930891990662	movie	1		300.0	21.0	2.5	/experiments/knapen_aot/videos/R_S_ILSVRC2015_train_00584001.mp4	0.0	126.93309783935547	2.508397102355957
23	71.15770602226257	fix_post	2		12.0	21.0	2.5	/experiments/knapen_aot/videos/R_S_ILSVRC2015_train_00584001.mp4	0.0	129.44149494171143	0.10046505928039551
24	71.25817108154297	fix_pre	0		89.0	22.0	2.5	/experiments/knapen_aot/videos/R_S_yt-giRwl4yChlw_9.mp4	0.0	129.54196000099182	0.7412569522857666
24	71.98368191719055	response	0	2		22.0	2.5	/experiments/knapen_aot/videos/R_S_yt-giRwl4yChlw_9.mp4	0.0	130.2674708366394	
24	71.99942803382874	movie	1		301.0	22.0	2.5	/experiments/knapen_aot/videos/R_S_yt-giRwl4yChlw_9.mp4	0.0	130.2832169532776	2.50832200050354
24	74.50775003433228	fix_post	2		12.0	22.0	2.5	/experiments/knapen_aot/videos/R_S_yt-giRwl4yChlw_9.mp4	0.0	132.79153895378113	0.10000896453857422
25	74.60775899887085	fix_pre	0		59.0	23.0	2.5	/experiments/knapen_aot/videos/R_S_yt-8RmEimCI80g_35.mp4	0.0	132.8915479183197	0.4915900230407715
25	75.09122109413147	response	0	2		23.0	2.5	/experiments/knapen_aot/videos/R_S_yt-8RmEimCI80g_35.mp4	0.0	133.37501001358032	
25	75.09934902191162	movie	1		301.0	23.0	2.5	/experiments/knapen_aot/videos/R_S_yt-8RmEimCI80g_35.mp4	0.0	133.38313794136047	2.5084068775177
25	77.60775589942932	fix_post	2		12.0	23.0	2.5	/experiments/knapen_aot/videos/R_S_yt-8RmEimCI80g_35.mp4	0.0	135.89154481887817	0.09996509552001953
26	77.70772099494934	fix_pre	0		56.0	24.0	2.5	/experiments/knapen_aot/videos/R_S_production_ID_4873122.mp4	0.0	135.9915099143982	0.46695899963378906
26	78.16620707511902	response	0	2		24.0	2.5	/experiments/knapen_aot/videos/R_S_production_ID_4873122.mp4	0.0	136.44999599456787	
26	78.17467999458313	movie	1		170.0	24.0	2.5	/experiments/knapen_aot/videos/R_S_production_ID_4873122.mp4	0.0	136.45846891403198	2.508028984069824
26	80.68270897865295	fix_post	2		12.0	24.0	2.5	/experiments/knapen_aot/videos/R_S_production_ID_4873122.mp4	0.0	138.9664978981018	0.10001301765441895
27	80.78272199630737	fix_pre	0		64.0	25.0	2.5	/experiments/knapen_aot/videos/S_ILSVRC2015_train_00465000.mp4	0.0	139.06651091575623	0.5332629680633545
27	81.30784511566162	response	0	2		25.0	2.5	/experiments/knapen_aot/videos/S_ILSVRC2015_train_00465000.mp4	0.0	139.59163403511047	
27	81.31598496437073	movie	1		301.0	25.0	2.5	/experiments/knapen_aot/videos/S_ILSVRC2015_train_00465000.mp4	0.0	139.59977388381958	2.508345127105713
27	83.82433009147644	fix_post	2		12.0	25.0	2.5	/experiments/knapen_aot/videos/S_ILSVRC2015_train_00465000.mp4	0.0	142.1081190109253	0.10028481483459473
28	83.92461490631104	fix_pre	0		59.0	26.0	2.5	/experiments/knapen_aot/videos/R_S_yt-GbL63AmOIss_116.mp4	0.0	142.2084038257599	0.49131107330322266
28	84.40780305862427	response	0	2		26.0	2.5	/experiments/knapen_aot/videos/R_S_yt-GbL63AmOIss_116.mp4	0.0	142.69159197807312	
28	84.41592597961426	movie	1		301.0	26.0	2.5	/experiments/knapen_aot/videos/R_S_yt-GbL63AmOIss_116.mp4	0.0	142.6997148990631	2.508388042449951
28	86.92431402206421	fix_post	2		12.0	26.0	2.5	/experiments/knapen_aot/videos/R_S_yt-GbL63AmOIss_116.mp4	0.0	145.20810294151306	0.10000109672546387
29	87.02431511878967	fix_pre	0		77.0	27.0	2.5	blank	1.0	145.30810403823853	0.6416499614715576
29	87.65786504745483	response	0	2		27.0	2.5	blank	1.0	145.9416539669037	
29	87.66596508026123	movie	1		301.0	27.0	2.5	blank	1.0	145.94975399971008	2.5083818435668945
29	90.17434692382812	fix_post	2		12.0	27.0	2.5	blank	1.0	148.45813584327698	0.09998917579650879
30	90.27433609962463	fix_pre	0		79.0	28.0	2.5	/experiments/knapen_aot/videos/S_yt-TxU1H5A6BaQ_52.mp4	0.0	148.5581250190735	0.6583418846130371
30	90.92437410354614	response	0	2		28.0	2.5	/experiments/knapen_aot/videos/S_yt-TxU1H5A6BaQ_52.mp4	0.0	149.208163022995	
30	90.93267798423767	movie	1		301.0	28.0	2.5	/experiments/knapen_aot/videos/S_yt-TxU1H5A6BaQ_52.mp4	0.0	149.21646690368652	2.508327007293701
30	93.44100499153137	fix_post	2		12.0	28.0	2.5	/experiments/knapen_aot/videos/S_yt-TxU1H5A6BaQ_52.mp4	0.0	151.72479391098022	0.09999704360961914
31	93.54100203514099	fix_pre	0		67.0	29.0	2.5	/experiments/knapen_aot/videos/S_flickr-51283549@N02-23064904264_16.mp4	0.0	151.82479095458984	0.558311939239502
31	94.0911021232605	response	0	2		29.0	2.5	/experiments/knapen_aot/videos/S_flickr-51283549@N02-23064904264_16.mp4	0.0	152.37489104270935	
31	94.0993139743805	movie	1		161.0	29.0	2.5	/experiments/knapen_aot/videos/S_flickr-51283549@N02-23064904264_16.mp4	0.0	152.38310289382935	2.5082080364227295
31	96.60752201080322	fix_post	2		12.0	29.0	2.5	/experiments/knapen_aot/videos/S_flickr-51283549@N02-23064904264_16.mp4	0.0	154.89131093025208	0.10004496574401855
32	96.70756697654724	fix_pre	0		40.0	30.0	2.5	/experiments/knapen_aot/videos/R_S_yt-OPzchvF7jO8_53.mp4	0.0	154.9913558959961	0.33344197273254395
32	97.03277111053467	response	0	2		30.0	2.5	/experiments/knapen_aot/videos/R_S_yt-OPzchvF7jO8_53.mp4	0.0	155.31656002998352	
32	97.04100894927979	movie	1		301.0	30.0	2.5	/experiments/knapen_aot/videos/R_S_yt-OPzchvF7jO8_53.mp4	0.0	155.32479786872864	2.508294105529785
32	99.54930305480957	fix_post	2		12.0	30.0	2.5	/experiments/knapen_aot/videos/R_S_yt-OPzchvF7jO8_53.mp4	0.0	157.83309197425842	0.0999288558959961
33	99.64923191070557	fix_pre	0		60.0	31.0	2.5	/experiments/knapen_aot/videos/R_S_ILSVRC2015_train_00521000.mp4	0.0	157.93302083015442	0.5000221729278564
33	100.1336739063263	response	0	2		31.0	2.5	/experiments/knapen_aot/videos/R_S_ILSVRC2015_train_00521000.mp4	0.0	158.41746282577515	
33	100.14925408363342	movie	1		301.0	31.0	2.5	/experiments/knapen_aot/videos/R_S_ILSVRC2015_train_00521000.mp4	0.0	158.43304300308228	2.5083420276641846
33	102.65759611129761	fix_post	2		12.0	31.0	2.5	/experiments/knapen_aot/videos/R_S_ILSVRC2015_train_00521000.mp4	0.0	160.94138503074646	0.1001889705657959
34	102.7577850818634	fix_pre	0		47.0	32.0	2.5	/experiments/knapen_aot/videos/S_ILSVRC2015_train_00568000.mp4	0.0	161.04157400131226	0.3914220333099365
34	103.14108204841614	response	0	2		32.0	2.5	/experiments/knapen_aot/videos/S_ILSVRC2015_train_00568000.mp4	0.0	161.424870967865	
34	103.14920711517334	movie	1		301.0	32.0	2.5	/experiments/knapen_aot/videos/S_ILSVRC2015_train_00568000.mp4	0.0	161.4329960346222	2.5083398818969727
34	105.65754699707031	fix_post	2		12.0	32.0	2.5	/experiments/knapen_aot/videos/S_ILSVRC2015_train_00568000.mp4	0.0	163.94133591651917	0.10019612312316895
35	105.75774312019348	fix_pre	0		54.0	33.0	2.5	/experiments/knapen_aot/videos/R_S_yt-s2tZ2NIQrxg_175.mp4	0.0	164.04153203964233	0.4513988494873047
35	106.19940900802612	response	0	2		33.0	2.5	/experiments/knapen_aot/videos/R_S_yt-s2tZ2NIQrxg_175.mp4	0.0	164.48319792747498	
35	106.20914196968079	movie	1		301.0	33.0	2.5	/experiments/knapen_aot/videos/R_S_yt-s2tZ2NIQrxg_175.mp4	0.0	164.49293088912964	2.5068979263305664
35	108.71603989601135	fix_post	2		12.0	33.0	2.5	/experiments/knapen_aot/videos/R_S_yt-s2tZ2NIQrxg_175.mp4	0.0	166.9998288154602	0.09979414939880371
36	108.81583404541016	fix_pre	0		35.0	34.0	2.5	blank	1.0	167.099622964859	0.2916698455810547
36	109.09936809539795	response	0	2		34.0	2.5	blank	1.0	167.3831570148468	
36	109.10750389099121	movie	1		301.0	34.0	2.5	blank	1.0	167.39129281044006	2.5084221363067627
36	111.61592602729797	fix_post	2		12.0	34.0	2.5	blank	1.0	169.89971494674683	0.10011792182922363
37	111.7160439491272	fix_pre	0		59.0	35.0	2.5	/experiments/knapen_aot/videos/S_yt-_68FWLGgPYE_25.mp4	0.0	169.99983286857605	0.49143505096435547
37	112.19938707351685	response	0	2		35.0	2.5	/experiments/knapen_aot/videos/S_yt-_68FWLGgPYE_25.mp4	0.0	170.4831759929657	
37	112.20747900009155	movie	1		301.0	35.0	2.5	/experiments/knapen_aot/videos/S_yt-_68FWLGgPYE_25.mp4	0.0	170.4912679195404	2.5085389614105225
37	114.71601796150208	fix_post	2		12.0	35.0	2.5	/experiments/knapen_aot/videos/S_yt-_68FWLGgPYE_25.mp4	0.0	172.99980688095093	0.09990096092224121
38	114.81591892242432	fix_pre	0		90.0	36.0	2.5	/experiments/knapen_aot/videos/R_S_ILSVRC2015_train_00465000.mp4	0.0	173.09970784187317	0.749934196472168
38	115.55013489723206	response	0	2		36.0	2.5	/experiments/knapen_aot/videos/R_S_ILSVRC2015_train_00465000.mp4	0.0	173.8339238166809	
38	115.56585311889648	movie	1		300.0	36.0	2.5	/experiments/knapen_aot/videos/R_S_ILSVRC2015_train_00465000.mp4	0.0	173.84964203834534	2.508368968963623
38	118.07422208786011	fix_post	2		12.0	36.0	2.5	/experiments/knapen_aot/videos/R_S_ILSVRC2015_train_00465000.mp4	0.0	176.35801100730896	0.10007190704345703
39	118.17429399490356	fix_pre	0		67.0	37.0	2.5	/experiments/knapen_aot/videos/R_S_yt-yPl8LcgSMjo_32.mp4	0.0	176.45808291435242	0.5582289695739746
39	118.72436904907227	response	0	2		37.0	2.5	/experiments/knapen_aot/videos/R_S_yt-yPl8LcgSMjo_32.mp4	0.0	177.00815796852112	
39	118.73252296447754	movie	1		300.0	37.0	2.5	/experiments/knapen_aot/videos/R_S_yt-yPl8LcgSMjo_32.mp4	0.0	177.0163118839264	2.5082950592041016
39	121.24081802368164	fix_post	2		12.0	37.0	2.5	/experiments/knapen_aot/videos/R_S_yt-yPl8LcgSMjo_32.mp4	0.0	179.5246069431305	0.10012292861938477
40	121.34094095230103	fix_pre	0		51.0	38.0	2.5	/experiments/knapen_aot/videos/R_S_yt-Dwgpjoikt84_122.mp4	0.0	179.62472987174988	0.4248659610748291
40	121.75760102272034	response	0	2		38.0	2.5	/experiments/knapen_aot/videos/R_S_yt-Dwgpjoikt84_122.mp4	0.0	180.0413899421692	
40	121.76580691337585	movie	1		301.0	38.0	2.5	/experiments/knapen_aot/videos/R_S_yt-Dwgpjoikt84_122.mp4	0.0	180.0495958328247	2.508338212966919
40	124.27414512634277	fix_post	2		12.0	38.0	2.5	/experiments/knapen_aot/videos/R_S_yt-Dwgpjoikt84_122.mp4	0.0	182.55793404579163	0.0999457836151123
41	124.37409090995789	fix_pre	0		53.0	39.0	2.5	/experiments/knapen_aot/videos/S_video_inspire_uk_edinburgh_arthursseat_010.1080-h264.mp4	0.0	182.65787982940674	0.4417262077331543
41	124.80756092071533	response	0	2		39.0	2.5	/experiments/knapen_aot/videos/S_video_inspire_uk_edinburgh_arthursseat_010.1080-h264.mp4	0.0	183.09134984016418	
41	124.81581711769104	movie	1		170.0	39.0	2.5	/experiments/knapen_aot/videos/S_video_inspire_uk_edinburgh_arthursseat_010.1080-h264.mp4	0.0	183.0996060371399	2.5084228515625
41	127.32423996925354	fix_post	2		12.0	39.0	2.5	/experiments/knapen_aot/videos/S_video_inspire_uk_edinburgh_arthursseat_010.1080-h264.mp4	0.0	185.6080288887024	0.09995913505554199
42	127.42419910430908	fix_pre	0		57.0	40.0	2.5	/experiments/knapen_aot/videos/S_ILSVRC2015_train_00538000.mp4	0.0	185.70798802375793	0.4749720096588135
42	127.89113903045654	response	0	2		40.0	2.5	/experiments/knapen_aot/videos/S_ILSVRC2015_train_00538000.mp4	0.0	186.1749279499054	
42	127.8991711139679	movie	1		301.0	40.0	2.5	/experiments/knapen_aot/videos/S_ILSVRC2015_train_00538000.mp4	0.0	186.18296003341675	2.508206844329834
42	130.40737795829773	fix_post	2		12.0	40.0	2.5	/experiments/knapen_aot/videos/S_ILSVRC2015_train_00538000.mp4	0.0	188.69116687774658	0.10012698173522949
43	130.50750494003296	fix_pre	0		54.0	41.0	2.5	/experiments/knapen_aot/videos/R_S_yt-ZE8Af60eNsI_15.mp4	0.0	188.7912938594818	0.4498910903930664
43	130.94931197166443	response	0	2		41.0	2.5	/experiments/knapen_aot/videos/R_S_yt-ZE8Af60eNsI_15.mp4	0.0	189.23310089111328	
43	130.95739603042603	movie	1		301.0	41.0	2.5	/experiments/knapen_aot/videos/R_S_yt-ZE8Af60eNsI_15.mp4	0.0	189.24118494987488	2.5084359645843506
43	133.46583199501038	fix_post	2		12.0	41.0	2.5	/experiments/knapen_aot/videos/R_S_yt-ZE8Af60eNsI_15.mp4	0.0	191.74962091445923	0.09999489784240723
44	133.56582689285278	fix_pre	0		50.0	42.0	2.5	blank	1.0	191.84961581230164	0.4166080951690674
44	133.97445106506348	response	0	2		42.0	2.5	blank	1.0	192.25823998451233	
44	133.98243498802185	movie	1		301.0	42.0	2.5	blank	1.0	192.2662239074707	2.5082600116729736
44	136.49069499969482	fix_post	2		12.0	42.0	2.5	blank	1.0	194.77448391914368	0.10009193420410156
45	136.59078693389893	fix_pre	0		55.0	43.0	2.5	/experiments/knapen_aot/videos/R_S_yt-2ftSsLqRQnA_84.mp4	0.0	194.87457585334778	0.45833396911621094
45	137.04090905189514	response	0	2		43.0	2.5	/experiments/knapen_aot/videos/R_S_yt-2ftSsLqRQnA_84.mp4	0.0	195.324697971344	
45	137.04912090301514	movie	1		299.0	43.0	2.5	/experiments/knapen_aot/videos/R_S_yt-2ftSsLqRQnA_84.mp4	0.0	195.332909822464	2.5083060264587402
45	139.55742692947388	fix_post	2		12.0	43.0	2.5	/experiments/knapen_aot/videos/R_S_yt-2ftSsLqRQnA_84.mp4	0.0	197.84121584892273	0.10003113746643066
46	139.6574580669403	fix_pre	0		71.0	44.0	2.5	/experiments/knapen_aot/videos/S_comp_A351_C001_v06_SDR_PS_20180725_SDR_2K_AVC.mp4	0.0	197.94124698638916	0.5916810035705566
46	140.2409529685974	response	0	2		44.0	2.5	/experiments/knapen_aot/videos/S_comp_A351_C001_v06_SDR_PS_20180725_SDR_2K_AVC.mp4	0.0	198.52474188804626	
46	140.24913907051086	movie	1		167.0	44.0	2.5	/experiments/knapen_aot/videos/S_comp_A351_C001_v06_SDR_PS_20180725_SDR_2K_AVC.mp4	0.0	198.53292798995972	2.5082778930664062
46	142.75741696357727	fix_post	2		12.0	44.0	2.5	/experiments/knapen_aot/videos/S_comp_A351_C001_v06_SDR_PS_20180725_SDR_2K_AVC.mp4	0.0	201.04120588302612	0.10000205039978027
47	142.85741901397705	fix_pre	0		39.0	45.0	2.5	/experiments/knapen_aot/videos/S_yt-11S5tcT2Tm0_254.mp4	0.0	201.1412079334259	0.32495999336242676
47	143.1742479801178	response	0	2		45.0	2.5	/experiments/knapen_aot/videos/S_yt-11S5tcT2Tm0_254.mp4	0.0	201.45803689956665	
47	143.18237900733948	movie	1		301.0	45.0	2.5	/experiments/knapen_aot/videos/S_yt-11S5tcT2Tm0_254.mp4	0.0	201.46616792678833	2.5084381103515625
47	145.69081711769104	fix_post	2		12.0	45.0	2.5	/experiments/knapen_aot/videos/S_yt-11S5tcT2Tm0_254.mp4	0.0	203.9746060371399	0.09990882873535156
48	145.7907259464264	fix_pre	0		66.0	46.0	2.5	/experiments/knapen_aot/videos/S_ILSVRC2015_train_00638001.mp4	0.0	204.07451486587524	0.5499911308288574
48	146.33258295059204	response	0	2		46.0	2.5	/experiments/knapen_aot/videos/S_ILSVRC2015_train_00638001.mp4	0.0	204.6163718700409	
48	146.34071707725525	movie	1		301.0	46.0	2.5	/experiments/knapen_aot/videos/S_ILSVRC2015_train_00638001.mp4	0.0	204.6245059967041	2.508375883102417
48	148.84909296035767	fix_post	2		12.0	46.0	2.5	/experiments/knapen_aot/videos/S_ILSVRC2015_train_00638001.mp4	0.0	207.13288187980652	0.09999513626098633
49	148.94908809661865	fix_pre	0		54.0	47.0	2.5	/experiments/knapen_aot/videos/S_pexels-cottonbro-5780808.mp4	0.0	207.2328770160675	0.4499659538269043
49	149.3909330368042	response	0	2		47.0	2.5	/experiments/knapen_aot/videos/S_pexels-cottonbro-5780808.mp4	0.0	207.67472195625305	
49	149.39905405044556	movie	1		165.0	47.0	2.5	/experiments/knapen_aot/videos/S_pexels-cottonbro-5780808.mp4	0.0	207.6828429698944	2.508305072784424
49	151.90735912322998	fix_post	2		12.0	47.0	2.5	/experiments/knapen_aot/videos/S_pexels-cottonbro-5780808.mp4	0.0	210.19114804267883	0.10002779960632324
50	152.0073869228363	fix_pre	0		75.0	48.0	2.5	/experiments/knapen_aot/videos/R_S_yt-074ygGXNoQ8_64.mp4	0.0	210.29117584228516	0.6249680519104004
50	152.62418007850647	response	0	2		48.0	2.5	/experiments/knapen_aot/videos/R_S_yt-074ygGXNoQ8_64.mp4	0.0	210.90796899795532	
50	152.6323549747467	movie	1		301.0	48.0	2.5	/experiments/knapen_aot/videos/R_S_yt-074ygGXNoQ8_64.mp4	0.0	210.91614389419556	2.5083789825439453
50	155.14073395729065	fix_post	2		12.0	48.0	2.5	/experiments/knapen_aot/videos/R_S_yt-074ygGXNoQ8_64.mp4	0.0	213.4245228767395	0.09995007514953613
51	155.24068403244019	fix_pre	0		59.0	49.0	2.5	blank	1.0	213.52447295188904	0.4916539192199707
51	155.7166450023651	response	0	2		49.0	2.5	blank	1.0	214.00043392181396	
51	155.73233795166016	movie	1		301.0	49.0	2.5	blank	1.0	214.016126871109	2.508327007293701
51	158.24066495895386	fix_post	2		12.0	49.0	2.5	blank	1.0	216.5244538784027	0.10002708435058594
52	158.34069204330444	fix_pre	0		55.0	50.0	2.5	/experiments/knapen_aot/videos/S_yt-Bx2kLEUuN0E_456.mp4	0.0	216.6244809627533	0.45830392837524414
52	158.79083395004272	response	0	2		50.0	2.5	/experiments/knapen_aot/videos/S_yt-Bx2kLEUuN0E_456.mp4	0.0	217.07462286949158	
52	158.7989959716797	movie	1		301.0	50.0	2.5	/experiments/knapen_aot/videos/S_yt-Bx2kLEUuN0E_456.mp4	0.0	217.08278489112854	2.5084049701690674
52	161.30740094184875	fix_post	2		12.0	50.0	2.5	/experiments/knapen_aot/videos/S_yt-Bx2kLEUuN0E_456.mp4	0.0	219.5911898612976	0.09998297691345215
53	161.4073839187622	fix_pre	0		42.0	51.0	2.5	/experiments/knapen_aot/videos/R_S_flickr-51283549@N02-23064904264_16.mp4	0.0	219.69117283821106	0.3499610424041748
53	161.74921989440918	response	0	2		51.0	2.5	/experiments/knapen_aot/videos/R_S_flickr-51283549@N02-23064904264_16.mp4	0.0	220.03300881385803	
53	161.75734496116638	movie	1		165.0	51.0	2.5	/experiments/knapen_aot/videos/R_S_flickr-51283549@N02-23064904264_16.mp4	0.0	220.04113388061523	2.508336067199707
53	164.2656810283661	fix_post	2		12.0	51.0	2.5	/experiments/knapen_aot/videos/R_S_flickr-51283549@N02-23064904264_16.mp4	0.0	222.54946994781494	0.10006499290466309
54	164.36574602127075	fix_pre	0		71.0	52.0	2.5	/experiments/knapen_aot/videos/R_S_yt-GWOOQZ19-oU_331.mp4	0.0	222.6495349407196	0.5928630828857422
54	164.9491810798645	response	0	2		52.0	2.5	/experiments/knapen_aot/videos/R_S_yt-GWOOQZ19-oU_331.mp4	0.0	223.23296999931335	
54	164.9586091041565	movie	1		301.0	52.0	2.5	/experiments/knapen_aot/videos/R_S_yt-GWOOQZ19-oU_331.mp4	0.0	223.24239802360535	2.5071089267730713
54	167.46571803092957	fix_post	2		12.0	52.0	2.5	/experiments/knapen_aot/videos/R_S_yt-GWOOQZ19-oU_331.mp4	0.0	225.74950695037842	0.10001206398010254
55	167.56573009490967	fix_pre	0		59.0	53.0	2.5	/experiments/knapen_aot/videos/R_S_yt-nYi_FfCjepk_74.mp4	0.0	225.84951901435852	0.49159979820251465
55	168.04919910430908	response	0	2		53.0	2.5	/experiments/knapen_aot/videos/R_S_yt-nYi_FfCjepk_74.mp4	0.0	226.33298802375793	
55	168.05732989311218	movie	1		301.0	53.0	2.5	/experiments/knapen_aot/videos/R_S_yt-nYi_FfCjepk_74.mp4	0.0	226.34111881256104	2.5083961486816406
55	170.56572604179382	fix_post	2		12.0	53.0	2.5	/experiments/knapen_aot/videos/R_S_yt-nYi_FfCjepk_74.mp4	0.0	228.84951496124268	0.09999585151672363
56	170.66572189331055	fix_pre	0		73.0	54.0	2.5	/experiments/knapen_aot/videos/S_yt-EBuE7GbFw7U_180.mp4	0.0	228.9495108127594	0.6082830429077148
56	171.26577591896057	response	0	2		54.0	2.5	/experiments/knapen_aot/videos/S_yt-EBuE7GbFw7U_180.mp4	0.0	229.54956483840942	
56	171.27400493621826	movie	1		301.0	54.0	2.5	/experiments/knapen_aot/videos/S_yt-EBuE7GbFw7U_180.mp4	0.0	229.55779385566711	2.508347988128662
56	173.78235292434692	fix_post	2		12.0	54.0	2.5	/experiments/knapen_aot/videos/S_yt-EBuE7GbFw7U_180.mp4	0.0	232.06614184379578	0.09998416900634766
57	173.88233709335327	fix_pre	0		74.0	55.0	2.5	blank	1.0	232.16612601280212	0.6166808605194092
57	174.49078607559204	response	0	2		55.0	2.5	blank	1.0	232.7745749950409	
57	174.49901795387268	movie	1		301.0	55.0	2.5	blank	1.0	232.78280687332153	2.5082509517669678
57	177.00726890563965	fix_post	2		12.0	55.0	2.5	blank	1.0	235.2910578250885	0.10000920295715332
58	177.1072781085968	fix_pre	0		63.0	56.0	2.5	/experiments/knapen_aot/videos/S_yt-316ecr1BT84_44.mp4	0.0	235.39106702804565	0.5250339508056641
58	177.62412190437317	response	0	2		56.0	2.5	/experiments/knapen_aot/videos/S_yt-316ecr1BT84_44.mp4	0.0	235.90791082382202	
58	177.63231205940247	movie	1		301.0	56.0	2.5	/experiments/knapen_aot/videos/S_yt-316ecr1BT84_44.mp4	0.0	235.91610097885132	2.50838303565979
58	180.14069509506226	fix_post	2		12.0	56.0	2.5	/experiments/knapen_aot/videos/S_yt-316ecr1BT84_44.mp4	0.0	238.4244840145111	0.09996199607849121
59	180.24065709114075	fix_pre	0		72.0	57.0	2.5	/experiments/knapen_aot/videos/R_S_yt-5rC42egLl5E_387.mp4	0.0	238.5244460105896	0.599984884262085
59	180.83246612548828	response	0	2		57.0	2.5	/experiments/knapen_aot/videos/R_S_yt-5rC42egLl5E_387.mp4	0.0	239.11625504493713	
59	180.84064197540283	movie	1		301.0	57.0	2.5	/experiments/knapen_aot/videos/R_S_yt-5rC42egLl5E_387.mp4	0.0	239.12443089485168	2.5083041191101074
59	183.34894609451294	fix_post	2		12.0	57.0	2.5	/experiments/knapen_aot/videos/R_S_yt-5rC42egLl5E_387.mp4	0.0	241.6327350139618	0.09997892379760742
60	183.44892501831055	fix_pre	0		80.0	58.0	2.5	/experiments/knapen_aot/videos/R_S_comp_DB_D008_C010_PSNK_v21_SDR_PS_20180914_F0F16157_SDR_2K_AVC.mp4	0.0	241.7327139377594	0.6667070388793945
60	184.10740494728088	response	0	2		58.0	2.5	/experiments/knapen_aot/videos/R_S_comp_DB_D008_C010_PSNK_v21_SDR_PS_20180914_F0F16157_SDR_2K_AVC.mp4	0.0	242.39119386672974	
60	184.11563205718994	movie	1		169.0	58.0	2.5	/experiments/knapen_aot/videos/R_S_comp_DB_D008_C010_PSNK_v21_SDR_PS_20180914_F0F16157_SDR_2K_AVC.mp4	0.0	242.3994209766388	2.5083420276641846
60	186.62397408485413	fix_post	2		12.0	58.0	2.5	/experiments/knapen_aot/videos/R_S_comp_DB_D008_C010_PSNK_v21_SDR_PS_20180914_F0F16157_SDR_2K_AVC.mp4	0.0	244.90776300430298	0.09999990463256836
61	186.7239739894867	fix_pre	0		38.0	59.0	2.5	/experiments/knapen_aot/videos/R_S_pexels-rodnae-productions-5993671.mp4	0.0	245.00776290893555	0.3177659511566162
61	187.03242993354797	response	0	2		59.0	2.5	/experiments/knapen_aot/videos/R_S_pexels-rodnae-productions-5993671.mp4	0.0	245.31621885299683	
61	187.0417399406433	movie	1		165.0	59.0	2.5	/experiments/knapen_aot/videos/R_S_pexels-rodnae-productions-5993671.mp4	0.0	245.32552886009216	2.507277011871338
61	189.54901695251465	fix_post	2		12.0	59.0	2.5	/experiments/knapen_aot/videos/R_S_pexels-rodnae-productions-5993671.mp4	0.0	247.8328058719635	0.0999600887298584
62	189.6489770412445	fix_pre	0		50.0	60.0	2.5	/experiments/knapen_aot/videos/S_pexels-yaroslav-shuraev-8091356.mp4	0.0	247.93276596069336	0.4165818691253662
62	190.0574860572815	response	0	2		60.0	2.5	/experiments/knapen_aot/videos/S_pexels-yaroslav-shuraev-8091356.mp4	0.0	248.34127497673035	
62	190.06555891036987	movie	1		203.0	60.0	2.5	/experiments/knapen_aot/videos/S_pexels-yaroslav-shuraev-8091356.mp4	0.0	248.34934782981873	2.5083460807800293
62	192.5739049911499	fix_post	2		12.0	60.0	2.5	/experiments/knapen_aot/videos/S_pexels-yaroslav-shuraev-8091356.mp4	0.0	250.85769391059875	0.10005593299865723
63	192.67396092414856	fix_pre	0		53.0	61.0	2.5	/experiments/knapen_aot/videos/S_yt-MXLxcvKZDHw_22.mp4	0.0	250.9577498435974	0.44161200523376465
63	193.10734391212463	response	0	2		61.0	2.5	/experiments/knapen_aot/videos/S_yt-MXLxcvKZDHw_22.mp4	0.0	251.3911328315735	
63	193.11557292938232	movie	1		301.0	61.0	2.5	/experiments/knapen_aot/videos/S_yt-MXLxcvKZDHw_22.mp4	0.0	251.39936184883118	2.5083470344543457
63	195.62391996383667	fix_post	2		12.0	61.0	2.5	/experiments/knapen_aot/videos/S_yt-MXLxcvKZDHw_22.mp4	0.0	253.90770888328552	0.09997010231018066
64	195.72389006614685	fix_pre	0		53.0	62.0	2.5	/experiments/knapen_aot/videos/S_comp_DB_D008_C010_PSNK_v21_SDR_PS_20180914_F0F16157_SDR_2K_AVC.mp4	0.0	254.0076789855957	0.44269800186157227
64	196.15733790397644	response	0	2		62.0	2.5	/experiments/knapen_aot/videos/S_comp_DB_D008_C010_PSNK_v21_SDR_PS_20180914_F0F16157_SDR_2K_AVC.mp4	0.0	254.4411268234253	
64	196.16658806800842	movie	1		178.0	62.0	2.5	/experiments/knapen_aot/videos/S_comp_DB_D008_C010_PSNK_v21_SDR_PS_20180914_F0F16157_SDR_2K_AVC.mp4	0.0	254.45037698745728	2.5073440074920654
64	198.6739320755005	fix_post	2		12.0	62.0	2.5	/experiments/knapen_aot/videos/S_comp_DB_D008_C010_PSNK_v21_SDR_PS_20180914_F0F16157_SDR_2K_AVC.mp4	0.0	256.95772099494934	0.10000896453857422
65	198.77394104003906	fix_pre	0		57.0	63.0	2.5	blank	1.0	257.0577299594879	0.47498488426208496
65	199.23320603370667	response	0	2		63.0	2.5	blank	1.0	257.5169949531555	
65	199.24892592430115	movie	1		301.0	63.0	2.5	blank	1.0	257.53271484375	2.508265972137451
65	201.7571918964386	fix_post	2		12.0	63.0	2.5	blank	1.0	260.04098081588745	0.10004210472106934
66	201.85723400115967	fix_pre	0		49.0	64.0	2.5	/experiments/knapen_aot/videos/R_S_yt-jQrMcUCmAaM_44.mp4	0.0	260.1410229206085	0.4083120822906494
66	202.25737309455872	response	0	2		64.0	2.5	/experiments/knapen_aot/videos/R_S_yt-jQrMcUCmAaM_44.mp4	0.0	260.54116201400757	
66	202.26554608345032	movie	1		301.0	64.0	2.5	/experiments/knapen_aot/videos/R_S_yt-jQrMcUCmAaM_44.mp4	0.0	260.54933500289917	2.508275032043457
66	204.77382111549377	fix_post	2		12.0	64.0	2.5	/experiments/knapen_aot/videos/R_S_yt-jQrMcUCmAaM_44.mp4	0.0	263.0576100349426	0.09999489784240723
67	204.87381601333618	fix_pre	0		41.0	65.0	2.5	/experiments/knapen_aot/videos/S_yt-kXarkCFJLeg_46.mp4	0.0	263.15760493278503	0.3416609764099121
67	205.20735692977905	response	0	2		65.0	2.5	/experiments/knapen_aot/videos/S_yt-kXarkCFJLeg_46.mp4	0.0	263.4911458492279	
67	205.2154769897461	movie	1		298.0	65.0	2.5	/experiments/knapen_aot/videos/S_yt-kXarkCFJLeg_46.mp4	0.0	263.49926590919495	2.508397102355957
67	207.72387409210205	fix_post	2		12.0	65.0	2.5	/experiments/knapen_aot/videos/S_yt-kXarkCFJLeg_46.mp4	0.0	266.0076630115509	0.09998393058776855
68	207.82385802268982	fix_pre	0		56.0	66.0	2.5	/experiments/knapen_aot/videos/S_yt-1XfKrSmjtl4_443.mp4	0.0	266.1076469421387	0.4676249027252197
68	208.27480697631836	response	0	2		66.0	2.5	/experiments/knapen_aot/videos/S_yt-1XfKrSmjtl4_443.mp4	0.0	266.5585958957672	
68	208.29148292541504	movie	1		301.0	66.0	2.5	/experiments/knapen_aot/videos/S_yt-1XfKrSmjtl4_443.mp4	0.0	266.5752718448639	2.5073721408843994
68	210.79885506629944	fix_post	2		12.0	66.0	2.5	/experiments/knapen_aot/videos/S_yt-1XfKrSmjtl4_443.mp4	0.0	269.0826439857483	0.09999990463256836
69	210.898854970932	fix_pre	0		53.0	67.0	2.5	/experiments/knapen_aot/videos/R_S_ILSVRC2015_train_00568000.mp4	0.0	269.18264389038086	0.4416179656982422
69	211.33233404159546	response	0	2		67.0	2.5	/experiments/knapen_aot/videos/R_S_ILSVRC2015_train_00568000.mp4	0.0	269.6161229610443	
69	211.34047293663025	movie	1		298.0	67.0	2.5	/experiments/knapen_aot/videos/R_S_ILSVRC2015_train_00568000.mp4	0.0	269.6242618560791	2.5083301067352295
69	213.84880304336548	fix_post	2		12.0	67.0	2.5	/experiments/knapen_aot/videos/R_S_ILSVRC2015_train_00568000.mp4	0.0	272.13259196281433	0.10001897811889648
70	213.94882202148438	fix_pre	0		48.0	68.0	2.5	blank	1.0	272.2326109409332	0.3999819755554199
70	214.34052896499634	response	0	2		68.0	2.5	blank	1.0	272.6243178844452	
70	214.3488039970398	movie	1		301.0	68.0	2.5	blank	1.0	272.63259291648865	2.508331060409546
70	216.85713505744934	fix_post	2		12.0	68.0	2.5	blank	1.0	275.1409239768982	0.09998106956481934
71	216.95711612701416	fix_pre	0		75.0	69.0	2.5	/experiments/knapen_aot/videos/S_flickr-51283549@N02-23064904264_16.mp4	0.0	275.240905046463	0.6260068416595459
71	217.5664300918579	response	0	2		69.0	2.5	/experiments/knapen_aot/videos/S_flickr-51283549@N02-23064904264_16.mp4	0.0	275.85021901130676	
71	217.5831229686737	movie	1		165.0	69.0	2.5	/experiments/knapen_aot/videos/S_flickr-51283549@N02-23064904264_16.mp4	0.0	275.86691188812256	2.507322072982788
71	220.0904450416565	fix_post	2		12.0	69.0	2.5	/experiments/knapen_aot/videos/S_flickr-51283549@N02-23064904264_16.mp4	0.0	278.37423396110535	0.0999748706817627
72	220.19041991233826	fix_pre	0		58.0	70.0	2.5	/experiments/knapen_aot/videos/R_S_ILSVRC2015_train_00568002.mp4	0.0	278.4742088317871	0.48335814476013184
72	220.6655240058899	response	0	2		70.0	2.5	/experiments/knapen_aot/videos/R_S_ILSVRC2015_train_00568002.mp4	0.0	278.94931292533875	
72	220.6737780570984	movie	1		298.0	70.0	2.5	/experiments/knapen_aot/videos/R_S_ILSVRC2015_train_00568002.mp4	0.0	278.95756697654724	2.5083670616149902
72	223.18214511871338	fix_post	2		12.0	70.0	2.5	/experiments/knapen_aot/videos/R_S_ILSVRC2015_train_00568002.mp4	0.0	281.46593403816223	0.09996294975280762
73	223.2821080684662	fix_pre	0		53.0	71.0	2.5	/experiments/knapen_aot/videos/R_S_yt-lv6mhnH7_g4_134.mp4	0.0	281.56589698791504	0.4416539669036865
73	223.71553301811218	response	0	2		71.0	2.5	/experiments/knapen_aot/videos/R_S_yt-lv6mhnH7_g4_134.mp4	0.0	281.99932193756104	
73	223.72376203536987	movie	1		301.0	71.0	2.5	/experiments/knapen_aot/videos/R_S_yt-lv6mhnH7_g4_134.mp4	0.0	282.0075509548187	2.5083260536193848
73	226.23208808898926	fix_post	2		12.0	71.0	2.5	/experiments/knapen_aot/videos/R_S_yt-lv6mhnH7_g4_134.mp4	0.0	284.5158770084381	0.09997797012329102
74	226.33206605911255	fix_pre	0		52.0	72.0	2.5	/experiments/knapen_aot/videos/R_S_yt-McqS-QObQbk_122.mp4	0.0	284.6158549785614	0.4333200454711914
74	226.7572410106659	response	0	2		72.0	2.5	/experiments/knapen_aot/videos/R_S_yt-McqS-QObQbk_122.mp4	0.0	285.04102993011475	
74	226.76538610458374	movie	1		301.0	72.0	2.5	/experiments/knapen_aot/videos/R_S_yt-McqS-QObQbk_122.mp4	0.0	285.0491750240326	2.508373975753784
74	229.27376008033752	fix_post	2		12.0	72.0	2.5	/experiments/knapen_aot/videos/R_S_yt-McqS-QObQbk_122.mp4	0.0	287.5575489997864	0.09993195533752441
75	229.37369203567505	fix_pre	0		38.0	73.0	2.5	/experiments/knapen_aot/videos/S_comp_A006_C003_1219EE_CC_v01_SDR_PS_FINAL_20180709_SDR_2K_AVC.mp4	0.0	287.6574809551239	0.3167240619659424
75	229.67464208602905	response	0	2		73.0	2.5	/experiments/knapen_aot/videos/S_comp_A006_C003_1219EE_CC_v01_SDR_PS_FINAL_20180709_SDR_2K_AVC.mp4	0.0	287.9584310054779	
75	229.690416097641	movie	1		169.0	73.0	2.5	/experiments/knapen_aot/videos/S_comp_A006_C003_1219EE_CC_v01_SDR_PS_FINAL_20180709_SDR_2K_AVC.mp4	0.0	287.97420501708984	2.5083069801330566
75	232.19872307777405	fix_post	2		12.0	73.0	2.5	/experiments/knapen_aot/videos/S_comp_A006_C003_1219EE_CC_v01_SDR_PS_FINAL_20180709_SDR_2K_AVC.mp4	0.0	290.4825119972229	0.10006284713745117
76	232.2987859249115	fix_pre	0		63.0	74.0	2.5	/experiments/knapen_aot/videos/R_S_yt-7bSTxOajpjc_58.mp4	0.0	290.58257484436035	0.5272271633148193
76	232.81697702407837	response	0	2		74.0	2.5	/experiments/knapen_aot/videos/R_S_yt-7bSTxOajpjc_58.mp4	0.0	291.1007659435272	
76	232.82601308822632	movie	1		301.0	74.0	2.5	/experiments/knapen_aot/videos/R_S_yt-7bSTxOajpjc_58.mp4	0.0	291.10980200767517	2.50614595413208
76	235.3321590423584	fix_post	2		12.0	74.0	2.5	/experiments/knapen_aot/videos/R_S_yt-7bSTxOajpjc_58.mp4	0.0	293.61594796180725	0.09996986389160156
77	235.43212890625	fix_pre	0		76.0	75.0	2.5	/experiments/knapen_aot/videos/R_S_pexels-anthony-shkraba-7569650.mp4	0.0	293.71591782569885	0.6332981586456299
77	236.05730199813843	response	0	2		75.0	2.5	/experiments/knapen_aot/videos/R_S_pexels-anthony-shkraba-7569650.mp4	0.0	294.3410909175873	
77	236.06542706489563	movie	1		192.0	75.0	2.5	/experiments/knapen_aot/videos/R_S_pexels-anthony-shkraba-7569650.mp4	0.0	294.3492159843445	2.50832200050354
77	238.57374906539917	fix_post	2		10.0	75.0	2.5	/experiments/knapen_aot/videos/R_S_pexels-anthony-shkraba-7569650.mp4	0.0	296.857537984848	0.09997391700744629
78	238.67372298240662	fix_pre	0		38.0	76.0	2.5	blank	1.0	296.95751190185547	0.3166050910949707
78	238.98213505744934	response	0	2		76.0	2.5	blank	1.0	297.2659239768982	
78	238.9903280735016	movie	1		301.0	76.0	2.5	blank	1.0	297.27411699295044	2.508391857147217
78	241.4987199306488	fix_post	2		12.0	76.0	2.5	blank	1.0	299.78250885009766	0.09999299049377441
79	241.59871292114258	fix_pre	0		78.0	77.0	2.5	/experiments/knapen_aot/videos/R_S_X-D3lUv-atE_376.mp4	0.0	299.88250184059143	0.6508171558380127
79	242.24053406715393	response	0	2		77.0	2.5	/experiments/knapen_aot/videos/R_S_X-D3lUv-atE_376.mp4	0.0	300.5243229866028	
79	242.2495300769806	movie	1		297.0	77.0	2.5	/experiments/knapen_aot/videos/R_S_X-D3lUv-atE_376.mp4	0.0	300.53331899642944	2.5074799060821533
79	244.75700998306274	fix_post	2		12.0	77.0	2.5	/experiments/knapen_aot/videos/R_S_X-D3lUv-atE_376.mp4	0.0	303.0407989025116	0.10000205039978027
80	244.85701203346252	fix_pre	0		67.0	78.0	2.5	/experiments/knapen_aot/videos/R_S_yt-2IfvnrF3IV0_241.mp4	0.0	303.1408009529114	0.5591769218444824
80	245.4071500301361	response	0	2		78.0	2.5	/experiments/knapen_aot/videos/R_S_yt-2IfvnrF3IV0_241.mp4	0.0	303.69093894958496	
80	245.416188955307	movie	1		301.0	78.0	2.5	/experiments/knapen_aot/videos/R_S_yt-2IfvnrF3IV0_241.mp4	0.0	303.69997787475586	2.507481098175049
80	247.92367005348206	fix_post	2		12.0	78.0	2.5	/experiments/knapen_aot/videos/R_S_yt-2IfvnrF3IV0_241.mp4	0.0	306.2074589729309	0.09999585151672363
81	248.02366590499878	fix_pre	0		42.0	79.0	2.5	/experiments/knapen_aot/videos/S_G009_C014_UHD_SDR_2K_AVC.mp4	0.0	306.30745482444763	0.35077810287475586
81	248.36554598808289	response	0	2		79.0	2.5	/experiments/knapen_aot/videos/S_G009_C014_UHD_SDR_2K_AVC.mp4	0.0	306.64933490753174	
81	248.37444400787354	movie	1		168.0	79.0	2.5	/experiments/knapen_aot/videos/S_G009_C014_UHD_SDR_2K_AVC.mp4	0.0	306.6582329273224	2.507559061050415
81	250.88200306892395	fix_post	2		12.0	79.0	2.5	/experiments/knapen_aot/videos/S_G009_C014_UHD_SDR_2K_AVC.mp4	0.0	309.1657919883728	0.10000801086425781
82	250.9820110797882	fix_pre	0		62.0	80.0	2.5	/experiments/knapen_aot/videos/R_S_yt-Bx2kLEUuN0E_456.mp4	0.0	309.26579999923706	0.517413854598999
82	251.49182510375977	response	0	2		80.0	2.5	/experiments/knapen_aot/videos/R_S_yt-Bx2kLEUuN0E_456.mp4	0.0	309.7756140232086	
82	251.4994249343872	movie	1		301.0	80.0	2.5	/experiments/knapen_aot/videos/R_S_yt-Bx2kLEUuN0E_456.mp4	0.0	309.78321385383606	2.5076770782470703
82	254.00710201263428	fix_post	2		12.0	80.0	2.5	/experiments/knapen_aot/videos/R_S_yt-Bx2kLEUuN0E_456.mp4	0.0	312.29089093208313	0.09988689422607422
83	254.10698890686035	fix_pre	0		57.0	81.0	2.5	/experiments/knapen_aot/videos/R_S_comp_H012_C009_PS_v01_SDR_PS_20180925_SDR_2K_AVC.mp4	0.0	312.3907778263092	0.47574400901794434
83	254.5738489627838	response	0	2		81.0	2.5	/experiments/knapen_aot/videos/R_S_comp_H012_C009_PS_v01_SDR_PS_20180925_SDR_2K_AVC.mp4	0.0	312.85763788223267	
83	254.5827329158783	movie	1		165.0	81.0	2.5	/experiments/knapen_aot/videos/R_S_comp_H012_C009_PS_v01_SDR_PS_20180925_SDR_2K_AVC.mp4	0.0	312.86652183532715	2.5077340602874756
83	257.09046697616577	fix_post	2		12.0	81.0	2.5	/experiments/knapen_aot/videos/R_S_comp_H012_C009_PS_v01_SDR_PS_20180925_SDR_2K_AVC.mp4	0.0	315.3742558956146	0.09981393814086914
84	257.19028091430664	fix_pre	0		75.0	82.0	2.5	/experiments/knapen_aot/videos/R_S_yt-9yxWUrtQJnw_11.mp4	0.0	315.4740698337555	0.6250081062316895
84	257.80712890625	response	0	2		82.0	2.5	/experiments/knapen_aot/videos/R_S_yt-9yxWUrtQJnw_11.mp4	0.0	316.09091782569885	
84	257.81528902053833	movie	1		300.0	82.0	2.5	/experiments/knapen_aot/videos/R_S_yt-9yxWUrtQJnw_11.mp4	0.0	316.0990779399872	2.508327007293701
84	260.32361602783203	fix_post	2		12.0	82.0	2.5	/experiments/knapen_aot/videos/R_S_yt-9yxWUrtQJnw_11.mp4	0.0	318.6074049472809	0.09998703002929688
85	260.4236030578613	fix_pre	0		72.0	83.0	2.5	blank	1.0	318.7073919773102	0.5999939441680908
85	261.01537895202637	response	0	2		83.0	2.5	blank	1.0	319.2991678714752	
85	261.0235970020294	movie	1		301.0	83.0	2.5	blank	1.0	319.30738592147827	2.5083720684051514
85	263.53196907043457	fix_post	2		12.0	83.0	2.5	blank	1.0	321.8157579898834	0.1000509262084961
87	263.63201999664307	stim	0		184.0					321.9158089160919	1.5339701175689697
87	265.160964012146	response	0	space						323.44475293159485	
