trial_nr	onset	event_type	phase	response	nr_frames	movie_index	movie_duration	movie_file	blank	onset_abs	duration
0	0.13202786445617676	stim	0		32.0					95.9670238494873	0.26660919189453125
0	0.3905339241027832	response	0	space						96.22552990913391	
1	0.398637056350708	stim	0		121.0					96.23363304138184	1.0086729526519775
1	1.2747900485992432	response	0	space						97.10978603363037	
1	1.4073100090026855	stim	1		120.0					97.24230599403381	0.9993710517883301
1	1.507174015045166	response	1	space						97.3421700000763	
1	1.7484419345855713	response	1	space						97.5834379196167	
1	1.9401419162750244	response	1	space						97.77513790130615	
1	2.148487091064453	response	1	space						97.98348307609558	
2	2.4066810607910156	fix_pre	0		12.0	0.0	2.5	/experiments/knapen_aot/videos/R_S_yt-B8Sy53C6Pxw_8.mp4	0.0	98.24167704582214	0.10003399848937988
2	2.490946054458618	response	0	space		0.0	2.5	/experiments/knapen_aot/videos/R_S_yt-B8Sy53C6Pxw_8.mp4	0.0	98.32594203948975	
2	2.5067150592803955	movie	1		301.0	0.0	2.5	/experiments/knapen_aot/videos/R_S_yt-B8Sy53C6Pxw_8.mp4	0.0	98.34171104431152	2.508366823196411
2	5.015081882476807	fix_post	2		12.0	0.0	2.5	/experiments/knapen_aot/videos/R_S_yt-B8Sy53C6Pxw_8.mp4	0.0	100.85007786750793	0.09997200965881348
3	5.11505389213562	fix_pre	0		715.0	1.0	2.5	/experiments/knapen_aot/videos/S_yt-H45g6700wbc_159.mp4	0.0	100.95004987716675	5.960832118988037
3	11.067967891693115	response	0	2		1.0	2.5	/experiments/knapen_aot/videos/S_yt-H45g6700wbc_159.mp4	0.0	106.90296387672424	
3	11.075886011123657	movie	1		301.0	1.0	2.5	/experiments/knapen_aot/videos/S_yt-H45g6700wbc_159.mp4	0.0	106.91088199615479	2.505790948867798
3	13.581676959991455	fix_post	2		12.0	1.0	2.5	/experiments/knapen_aot/videos/S_yt-H45g6700wbc_159.mp4	0.0	109.41667294502258	0.10006213188171387
4	13.681739091873169	fix_pre	0		23.0	2.0	2.5	/experiments/knapen_aot/videos/R_S_yt-_7HJhRPVmHw_255.mp4	0.0	109.5167350769043	0.1927938461303711
4	13.865159034729004	response	0	2		2.0	2.5	/experiments/knapen_aot/videos/R_S_yt-_7HJhRPVmHw_255.mp4	0.0	109.70015501976013	
4	13.87453293800354	movie	1		301.0	2.0	2.5	/experiments/knapen_aot/videos/R_S_yt-_7HJhRPVmHw_255.mp4	0.0	109.70952892303467	2.5071511268615723
4	16.381684064865112	fix_post	2		12.0	2.0	2.5	/experiments/knapen_aot/videos/R_S_yt-_7HJhRPVmHw_255.mp4	0.0	112.21668004989624	0.10006380081176758
5	16.48174786567688	fix_pre	0		622.0	3.0	2.5	/experiments/knapen_aot/videos/R_S_pexels-vlada-karpovich-8044792.mp4	0.0	112.31674385070801	5.184295177459717
5	21.65674591064453	response	0	2		3.0	2.5	/experiments/knapen_aot/videos/R_S_pexels-vlada-karpovich-8044792.mp4	0.0	117.49174189567566	
5	21.666043043136597	movie	1		168.0	3.0	2.5	/experiments/knapen_aot/videos/R_S_pexels-vlada-karpovich-8044792.mp4	0.0	117.50103902816772	2.50724196434021
5	24.173285007476807	fix_post	2		12.0	3.0	2.5	/experiments/knapen_aot/videos/R_S_pexels-vlada-karpovich-8044792.mp4	0.0	120.00828099250793	0.09994697570800781
5	24.257505893707275	response	2	2		3.0	2.5	/experiments/knapen_aot/videos/R_S_pexels-vlada-karpovich-8044792.mp4	0.0	120.0925018787384	
6	24.273231983184814	fix_pre	0		26.0	4.0	2.5	/experiments/knapen_aot/videos/R_S_fHdEaNT0gA0_35.mp4	0.0	120.10822796821594	0.2167220115661621
6	24.474119901657104	response	0	2		4.0	2.5	/experiments/knapen_aot/videos/R_S_fHdEaNT0gA0_35.mp4	0.0	120.30911588668823	
6	24.489953994750977	movie	1		301.0	4.0	2.5	/experiments/knapen_aot/videos/R_S_fHdEaNT0gA0_35.mp4	0.0	120.3249499797821	2.508347988128662
6	26.99830198287964	fix_post	2		12.0	4.0	2.5	/experiments/knapen_aot/videos/R_S_fHdEaNT0gA0_35.mp4	0.0	122.83329796791077	0.09998011589050293
7	27.09828209877014	fix_pre	0		11.0	5.0	2.5	/experiments/knapen_aot/videos/R_S_yt-QXsedpZh800_275.mp4	0.0	122.93327808380127	0.09156680107116699
7	27.181780099868774	response	0	2		5.0	2.5	/experiments/knapen_aot/videos/R_S_yt-QXsedpZh800_275.mp4	0.0	123.0167760848999	
7	27.18984889984131	movie	1		301.0	5.0	2.5	/experiments/knapen_aot/videos/R_S_yt-QXsedpZh800_275.mp4	0.0	123.02484488487244	2.5084421634674072
7	29.698291063308716	fix_post	2		12.0	5.0	2.5	/experiments/knapen_aot/videos/R_S_yt-QXsedpZh800_275.mp4	0.0	125.53328704833984	0.09995484352111816
8	29.798245906829834	fix_pre	0		17.0	6.0	2.5	/experiments/knapen_aot/videos/S_production_ID_4325516.mp4	0.0	125.63324189186096	0.14165806770324707
8	29.931621074676514	response	0	2		6.0	2.5	/experiments/knapen_aot/videos/S_production_ID_4325516.mp4	0.0	125.76661705970764	
8	29.93990397453308	movie	1		202.0	6.0	2.5	/experiments/knapen_aot/videos/S_production_ID_4325516.mp4	0.0	125.77489995956421	2.5083460807800293
8	32.44825005531311	fix_post	2		12.0	6.0	2.5	/experiments/knapen_aot/videos/S_production_ID_4325516.mp4	0.0	128.28324604034424	0.09999585151672363
8	32.54001307487488	response	2	2		6.0	2.5	/experiments/knapen_aot/videos/S_production_ID_4325516.mp4	0.0	128.375009059906	
9	32.548245906829834	fix_pre	0		29.0	7.0	2.5	blank	1.0	128.38324189186096	0.24166297912597656
9	32.78168296813965	response	0	2		7.0	2.5	blank	1.0	128.61667895317078	
9	32.78990888595581	movie	1		301.0	7.0	2.5	blank	1.0	128.62490487098694	2.50835919380188
9	35.29826807975769	fix_post	2		12.0	7.0	2.5	blank	1.0	131.13326406478882	0.10013890266418457
10	35.398406982421875	fix_pre	0		16.0	8.0	2.5	/experiments/knapen_aot/videos/S_yt-m8HxO_-RRq0_127.mp4	0.0	131.233402967453	0.13315200805664062
10	35.52334690093994	response	0	2		8.0	2.5	/experiments/knapen_aot/videos/S_yt-m8HxO_-RRq0_127.mp4	0.0	131.35834288597107	
10	35.531558990478516	movie	1		301.0	8.0	2.5	/experiments/knapen_aot/videos/S_yt-m8HxO_-RRq0_127.mp4	0.0	131.36655497550964	2.5083210468292236
10	38.03988003730774	fix_post	2		12.0	8.0	2.5	/experiments/knapen_aot/videos/S_yt-m8HxO_-RRq0_127.mp4	0.0	133.87487602233887	0.10006904602050781
11	38.13994908332825	fix_pre	0		6.0	9.0	2.5	/experiments/knapen_aot/videos/S_yt-Rsfo57AlpLA_332.mp4	0.0	133.97494506835938	0.049942970275878906
11	38.18166708946228	response	0	2		9.0	2.5	/experiments/knapen_aot/videos/S_yt-Rsfo57AlpLA_332.mp4	0.0	134.0166630744934	
11	38.189892053604126	movie	1		301.0	9.0	2.5	/experiments/knapen_aot/videos/S_yt-Rsfo57AlpLA_332.mp4	0.0	134.02488803863525	2.5083909034729004
11	40.698282957077026	fix_post	2		12.0	9.0	2.5	/experiments/knapen_aot/videos/S_yt-Rsfo57AlpLA_332.mp4	0.0	136.53327894210815	0.09996700286865234
12	40.79824995994568	fix_pre	0		6.0	10.0	2.5	/experiments/knapen_aot/videos/R_S_video-11.mp4	0.0	136.6332459449768	0.04993104934692383
12	40.83996105194092	response	0	2		10.0	2.5	/experiments/knapen_aot/videos/R_S_video-11.mp4	0.0	136.67495703697205	
12	40.8481810092926	movie	1		163.0	10.0	2.5	/experiments/knapen_aot/videos/R_S_video-11.mp4	0.0	136.68317699432373	2.5084168910980225
12	43.356597900390625	fix_post	2		12.0	10.0	2.5	/experiments/knapen_aot/videos/R_S_video-11.mp4	0.0	139.19159388542175	0.10000205039978027
13	43.456599950790405	fix_pre	0		2.0	11.0	2.5	/experiments/knapen_aot/videos/S_yt-kQpE9L-fsNE_55.mp4	0.0	139.29159593582153	0.016657114028930664
13	43.46507692337036	response	0	2		11.0	2.5	/experiments/knapen_aot/videos/S_yt-kQpE9L-fsNE_55.mp4	0.0	139.3000729084015	
13	43.473257064819336	movie	1		301.0	11.0	2.5	/experiments/knapen_aot/videos/S_yt-kQpE9L-fsNE_55.mp4	0.0	139.30825304985046	2.508275032043457
13	45.98153209686279	fix_post	2		12.0	11.0	2.5	/experiments/knapen_aot/videos/S_yt-kQpE9L-fsNE_55.mp4	0.0	141.81652808189392	0.10000085830688477
14	46.08153295516968	fix_pre	0		10.0	12.0	2.5	/experiments/knapen_aot/videos/R_S_yt-H611SOb1T78_189.mp4	0.0	141.9165289402008	0.08440399169921875
14	46.156660079956055	response	0	2		12.0	2.5	/experiments/knapen_aot/videos/R_S_yt-H611SOb1T78_189.mp4	0.0	141.99165606498718	
14	46.1659369468689	movie	1		301.0	12.0	2.5	/experiments/knapen_aot/videos/R_S_yt-H611SOb1T78_189.mp4	0.0	142.00093293190002	2.5072591304779053
14	48.6731960773468	fix_post	2		12.0	12.0	2.5	/experiments/knapen_aot/videos/R_S_yt-H611SOb1T78_189.mp4	0.0	144.50819206237793	0.0999460220336914
15	48.77314209938049	fix_pre	0		8.0	13.0	2.5	blank	1.0	144.60813808441162	0.06663799285888672
15	48.83164191246033	response	0	2		13.0	2.5	blank	1.0	144.66663789749146	
15	48.83978009223938	movie	1		301.0	13.0	2.5	blank	1.0	144.6747760772705	2.508413791656494
15	51.348193883895874	fix_post	2		12.0	13.0	2.5	blank	1.0	147.183189868927	0.09997701644897461
16	51.44817090034485	fix_pre	0		32.0	14.0	2.5	/experiments/knapen_aot/videos/R_S_video_inspire_texas_austin_oct2019_evening_00085.1080-h264.mp4	0.0	147.28316688537598	0.26668500900268555
16	51.706615924835205	response	0	2		14.0	2.5	/experiments/knapen_aot/videos/R_S_video_inspire_texas_austin_oct2019_evening_00085.1080-h264.mp4	0.0	147.54161190986633	
16	51.714855909347534	movie	1		168.0	14.0	2.5	/experiments/knapen_aot/videos/R_S_video_inspire_texas_austin_oct2019_evening_00085.1080-h264.mp4	0.0	147.54985189437866	2.508303165435791
16	54.223159074783325	fix_post	2		12.0	14.0	2.5	/experiments/knapen_aot/videos/R_S_video_inspire_texas_austin_oct2019_evening_00085.1080-h264.mp4	0.0	150.05815505981445	0.1000208854675293
16	54.22503304481506	response	2	2		14.0	2.5	/experiments/knapen_aot/videos/R_S_video_inspire_texas_austin_oct2019_evening_00085.1080-h264.mp4	0.0	150.0600290298462	
17	54.323179960250854	fix_pre	0		22.0	15.0	2.5	/experiments/knapen_aot/videos/S_production_ID_3735542.mp4	0.0	150.15817594528198	0.18340301513671875
17	54.49820303916931	response	0	2		15.0	2.5	/experiments/knapen_aot/videos/S_production_ID_3735542.mp4	0.0	150.33319902420044	
17	54.50658297538757	movie	1		162.0	15.0	2.5	/experiments/knapen_aot/videos/S_production_ID_3735542.mp4	0.0	150.3415789604187	2.50821590423584
17	57.01479887962341	fix_post	2		12.0	15.0	2.5	/experiments/knapen_aot/videos/S_production_ID_3735542.mp4	0.0	152.84979486465454	0.10010313987731934
18	57.11490201950073	fix_pre	0		8.0	16.0	2.5	/experiments/knapen_aot/videos/R_S_yt-44ip3uFe4YM_30.mp4	0.0	152.94989800453186	0.06657290458679199
18	57.173157930374146	response	0	2		16.0	2.5	/experiments/knapen_aot/videos/R_S_yt-44ip3uFe4YM_30.mp4	0.0	153.00815391540527	
18	57.181474924087524	movie	1		301.0	16.0	2.5	/experiments/knapen_aot/videos/R_S_yt-44ip3uFe4YM_30.mp4	0.0	153.01647090911865	2.5084149837493896
18	59.689889907836914	fix_post	2		12.0	16.0	2.5	/experiments/knapen_aot/videos/R_S_yt-44ip3uFe4YM_30.mp4	0.0	155.52488589286804	0.09995198249816895
19	59.78984189033508	fix_pre	0		6.0	17.0	2.5	/experiments/knapen_aot/videos/S_pexels-yaroslav-shuraev-8091356.mp4	0.0	155.6248378753662	0.04996609687805176
19	59.831599950790405	response	0	2		17.0	2.5	/experiments/knapen_aot/videos/S_pexels-yaroslav-shuraev-8091356.mp4	0.0	155.66659593582153	
19	59.839807987213135	movie	1		201.0	17.0	2.5	/experiments/knapen_aot/videos/S_pexels-yaroslav-shuraev-8091356.mp4	0.0	155.67480397224426	2.5084660053253174
19	62.34827399253845	fix_post	2		12.0	17.0	2.5	/experiments/knapen_aot/videos/S_pexels-yaroslav-shuraev-8091356.mp4	0.0	158.18326997756958	0.09986495971679688
20	62.44813895225525	fix_pre	0		4.0	18.0	2.5	/experiments/knapen_aot/videos/R_S_yt-qazCIJqjxUU_3.mp4	0.0	158.28313493728638	0.033338069915771484
20	62.47319197654724	response	0	2		18.0	2.5	/experiments/knapen_aot/videos/R_S_yt-qazCIJqjxUU_3.mp4	0.0	158.30818796157837	
20	62.48147702217102	movie	1		301.0	18.0	2.5	/experiments/knapen_aot/videos/R_S_yt-qazCIJqjxUU_3.mp4	0.0	158.31647300720215	2.508349895477295
20	64.98982691764832	fix_post	2		12.0	18.0	2.5	/experiments/knapen_aot/videos/R_S_yt-qazCIJqjxUU_3.mp4	0.0	160.82482290267944	0.09987902641296387
21	65.08970594406128	fix_pre	0		15.0	19.0	2.5	blank	1.0	160.9247019290924	0.1250779628753662
21	65.20655798912048	response	0	2		19.0	2.5	blank	1.0	161.0415539741516	
21	65.21478390693665	movie	1		301.0	19.0	2.5	blank	1.0	161.04977989196777	2.5085461139678955
21	67.72333002090454	fix_post	2		12.0	19.0	2.5	blank	1.0	163.55832600593567	0.09979796409606934
22	67.82312798500061	fix_pre	0		18.0	20.0	2.5	/experiments/knapen_aot/videos/S_yt-xCh0LI9VKeI_28.mp4	0.0	163.65812397003174	0.14995193481445312
22	67.9648129940033	response	0	2		20.0	2.5	/experiments/knapen_aot/videos/S_yt-xCh0LI9VKeI_28.mp4	0.0	163.79980897903442	
22	67.97307991981506	movie	1		301.0	20.0	2.5	/experiments/knapen_aot/videos/S_yt-xCh0LI9VKeI_28.mp4	0.0	163.8080759048462	2.5083320140838623
22	70.48141193389893	fix_post	2		12.0	20.0	2.5	/experiments/knapen_aot/videos/S_yt-xCh0LI9VKeI_28.mp4	0.0	166.31640791893005	0.10001897811889648
23	70.58143091201782	fix_pre	0		14.0	21.0	2.5	/experiments/knapen_aot/videos/R_S_yt-GFcuvjHJmS4_86.mp4	0.0	166.41642689704895	0.1165611743927002
23	70.68989205360413	response	0	2		21.0	2.5	/experiments/knapen_aot/videos/R_S_yt-GFcuvjHJmS4_86.mp4	0.0	166.52488803863525	
23	70.69799208641052	movie	1		301.0	21.0	2.5	/experiments/knapen_aot/videos/R_S_yt-GFcuvjHJmS4_86.mp4	0.0	166.53298807144165	2.5083978176116943
23	73.20638990402222	fix_post	2		12.0	21.0	2.5	/experiments/knapen_aot/videos/R_S_yt-GFcuvjHJmS4_86.mp4	0.0	169.04138588905334	0.10014915466308594
24	73.3065390586853	fix_pre	0		11.0	22.0	2.5	/experiments/knapen_aot/videos/S_yt--_ZMybcaUOw_254.mp4	0.0	169.14153504371643	0.09151601791381836
24	73.38984489440918	response	0	2		22.0	2.5	/experiments/knapen_aot/videos/S_yt--_ZMybcaUOw_254.mp4	0.0	169.2248408794403	
24	73.39805507659912	movie	1		301.0	22.0	2.5	/experiments/knapen_aot/videos/S_yt--_ZMybcaUOw_254.mp4	0.0	169.23305106163025	2.5084128379821777
24	75.9064679145813	fix_post	2		12.0	22.0	2.5	/experiments/knapen_aot/videos/S_yt--_ZMybcaUOw_254.mp4	0.0	171.74146389961243	0.09994101524353027
25	76.00640892982483	fix_pre	0		13.0	23.0	2.5	/experiments/knapen_aot/videos/S_yt-JpOBXV46TLE_124.mp4	0.0	171.84140491485596	0.10830807685852051
25	76.10648703575134	response	0	2		23.0	2.5	/experiments/knapen_aot/videos/S_yt-JpOBXV46TLE_124.mp4	0.0	171.94148302078247	
25	76.11471700668335	movie	1		301.0	23.0	2.5	/experiments/knapen_aot/videos/S_yt-JpOBXV46TLE_124.mp4	0.0	171.94971299171448	2.508347988128662
25	78.62306499481201	fix_post	2		12.0	23.0	2.5	/experiments/knapen_aot/videos/S_yt-JpOBXV46TLE_124.mp4	0.0	174.45806097984314	0.10000300407409668
26	78.72306799888611	fix_pre	0		18.0	24.0	2.5	/experiments/knapen_aot/videos/S_yt-Xq6uX1jfFRk_21.mp4	0.0	174.55806398391724	0.1508769989013672
26	78.86475801467896	response	0	2		24.0	2.5	/experiments/knapen_aot/videos/S_yt-Xq6uX1jfFRk_21.mp4	0.0	174.69975399971008	
26	78.87394499778748	movie	1		301.0	24.0	2.5	/experiments/knapen_aot/videos/S_yt-Xq6uX1jfFRk_21.mp4	0.0	174.7089409828186	2.5074830055236816
26	81.38142800331116	fix_post	2		12.0	24.0	2.5	/experiments/knapen_aot/videos/S_yt-Xq6uX1jfFRk_21.mp4	0.0	177.21642398834229	0.09990191459655762
27	81.48132991790771	fix_pre	0		17.0	25.0	2.5	/experiments/knapen_aot/videos/R_S_production_ID_5139371.mp4	0.0	177.31632590293884	0.1425480842590332
27	81.61479306221008	response	0	2		25.0	2.5	/experiments/knapen_aot/videos/R_S_production_ID_5139371.mp4	0.0	177.4497890472412	
27	81.62387800216675	movie	1		171.0	25.0	2.5	/experiments/knapen_aot/videos/R_S_production_ID_5139371.mp4	0.0	177.45887398719788	2.507519006729126
27	84.13139700889587	fix_post	2		12.0	25.0	2.5	/experiments/knapen_aot/videos/R_S_production_ID_5139371.mp4	0.0	179.966392993927	0.0999898910522461
28	84.23138689994812	fix_pre	0		27.0	26.0	2.5	blank	1.0	180.06638288497925	0.2258741855621338
28	84.44823908805847	response	0	2		26.0	2.5	blank	1.0	180.2832350730896	
28	84.45726108551025	movie	1		301.0	26.0	2.5	blank	1.0	180.29225707054138	2.5074479579925537
28	86.96470904350281	fix_post	2		12.0	26.0	2.5	blank	1.0	182.79970502853394	0.10001397132873535
29	87.06472301483154	fix_pre	0		18.0	27.0	2.5	/experiments/knapen_aot/videos/R_S_g201_CA_A016_C002_SDR_20191114_SDR_2K_AVC.mp4	0.0	182.89971899986267	0.14990687370300293
29	87.19888305664062	response	0	2		27.0	2.5	/experiments/knapen_aot/videos/R_S_g201_CA_A016_C002_SDR_20191114_SDR_2K_AVC.mp4	0.0	183.03387904167175	
29	87.21462988853455	movie	1		174.0	27.0	2.5	/experiments/knapen_aot/videos/R_S_g201_CA_A016_C002_SDR_20191114_SDR_2K_AVC.mp4	0.0	183.04962587356567	2.5084140300750732
29	89.72304391860962	fix_post	2		12.0	27.0	2.5	/experiments/knapen_aot/videos/R_S_g201_CA_A016_C002_SDR_20191114_SDR_2K_AVC.mp4	0.0	185.55803990364075	0.09998703002929688
30	89.82303094863892	fix_pre	0		1.0	28.0	2.5	/experiments/knapen_aot/videos/S_yt-GaJaxp546lc_22.mp4	0.0	185.65802693367004	0.00908207893371582
30	89.82458686828613	response	0	2		28.0	2.5	/experiments/knapen_aot/videos/S_yt-GaJaxp546lc_22.mp4	0.0	185.65958285331726	
30	89.83211302757263	movie	1		301.0	28.0	2.5	/experiments/knapen_aot/videos/S_yt-GaJaxp546lc_22.mp4	0.0	185.66710901260376	2.5075509548187256
30	92.33966398239136	fix_post	2		12.0	28.0	2.5	/experiments/knapen_aot/videos/S_yt-GaJaxp546lc_22.mp4	0.0	188.17465996742249	0.1000518798828125
31	92.43971586227417	fix_pre	0		14.0	29.0	2.5	/experiments/knapen_aot/videos/R_S_ILSVRC2015_train_00563000.mp4	0.0	188.2747118473053	0.11660623550415039
31	92.54809093475342	response	0	2		29.0	2.5	/experiments/knapen_aot/videos/R_S_ILSVRC2015_train_00563000.mp4	0.0	188.38308691978455	
31	92.55632209777832	movie	1		301.0	29.0	2.5	/experiments/knapen_aot/videos/R_S_ILSVRC2015_train_00563000.mp4	0.0	188.39131808280945	2.5084609985351562
31	95.06478309631348	fix_post	2		12.0	29.0	2.5	/experiments/knapen_aot/videos/R_S_ILSVRC2015_train_00563000.mp4	0.0	190.8997790813446	0.09988594055175781
32	95.16466903686523	fix_pre	0		19.0	30.0	2.5	/experiments/knapen_aot/videos/S_G009_C003_UHD_SDR_2K_AVC.mp4	0.0	190.99966502189636	0.15836095809936523
32	95.31475400924683	response	0	2		30.0	2.5	/experiments/knapen_aot/videos/S_G009_C003_UHD_SDR_2K_AVC.mp4	0.0	191.14974999427795	
32	95.3230299949646	movie	1		167.0	30.0	2.5	/experiments/knapen_aot/videos/S_G009_C003_UHD_SDR_2K_AVC.mp4	0.0	191.15802597999573	2.508229970932007
32	97.8312599658966	fix_post	2		12.0	30.0	2.5	/experiments/knapen_aot/videos/S_G009_C003_UHD_SDR_2K_AVC.mp4	0.0	193.66625595092773	0.10003805160522461
33	97.93129801750183	fix_pre	0		22.0	31.0	2.5	/experiments/knapen_aot/videos/R_S_yt-rIQoRErqnlI_17.mp4	0.0	193.76629400253296	0.1833498477935791
33	98.1063940525055	response	0	2		31.0	2.5	/experiments/knapen_aot/videos/R_S_yt-rIQoRErqnlI_17.mp4	0.0	193.94139003753662	
33	98.11464786529541	movie	1		301.0	31.0	2.5	/experiments/knapen_aot/videos/R_S_yt-rIQoRErqnlI_17.mp4	0.0	193.94964385032654	2.50835919380188
33	100.62300705909729	fix_post	2		12.0	31.0	2.5	/experiments/knapen_aot/videos/R_S_yt-rIQoRErqnlI_17.mp4	0.0	196.45800304412842	0.10001492500305176
33	100.68961787223816	response	2	2		31.0	2.5	/experiments/knapen_aot/videos/R_S_yt-rIQoRErqnlI_17.mp4	0.0	196.5246138572693	
34	100.72302198410034	fix_pre	0		27.0	32.0	2.5	/experiments/knapen_aot/videos/R_S_yt-T1mMDOVjvrE_83.mp4	0.0	196.55801796913147	0.22491908073425293
34	100.9397439956665	response	0	2		32.0	2.5	/experiments/knapen_aot/videos/R_S_yt-T1mMDOVjvrE_83.mp4	0.0	196.77473998069763	
34	100.9479410648346	movie	1		301.0	32.0	2.5	/experiments/knapen_aot/videos/R_S_yt-T1mMDOVjvrE_83.mp4	0.0	196.78293704986572	2.5082828998565674
34	103.45622396469116	fix_post	2		12.0	32.0	2.5	/experiments/knapen_aot/videos/R_S_yt-T1mMDOVjvrE_83.mp4	0.0	199.2912199497223	0.1000969409942627
35	103.55632090568542	fix_pre	0		15.0	33.0	2.5	/experiments/knapen_aot/videos/R_S_ILSVRC2015_train_00484001.mp4	0.0	199.39131689071655	0.12493109703063965
35	103.66552209854126	response	0	2		33.0	2.5	/experiments/knapen_aot/videos/R_S_ILSVRC2015_train_00484001.mp4	0.0	199.5005180835724	
35	103.68125200271606	movie	1		301.0	33.0	2.5	/experiments/knapen_aot/videos/R_S_ILSVRC2015_train_00484001.mp4	0.0	199.5162479877472	2.5083069801330566
35	106.18955898284912	fix_post	2		12.0	33.0	2.5	/experiments/knapen_aot/videos/R_S_ILSVRC2015_train_00484001.mp4	0.0	202.02455496788025	0.10006999969482422
36	106.28962898254395	fix_pre	0		9.0	34.0	2.5	blank	1.0	202.12462496757507	0.0752260684967041
36	106.35643005371094	response	0	2		34.0	2.5	blank	1.0	202.19142603874207	
36	106.36485505104065	movie	1		301.0	34.0	2.5	blank	1.0	202.19985103607178	2.5080959796905518
36	108.8729510307312	fix_post	2		12.0	34.0	2.5	blank	1.0	204.70794701576233	0.09994792938232422
37	108.97289896011353	fix_pre	0		16.0	35.0	2.5	/experiments/knapen_aot/videos/S_yt-Kwfwhd07dVo_2.mp4	0.0	204.80789494514465	0.1333470344543457
37	109.09800505638123	response	0	2		35.0	2.5	/experiments/knapen_aot/videos/S_yt-Kwfwhd07dVo_2.mp4	0.0	204.93300104141235	
37	109.10624599456787	movie	1		301.0	35.0	2.5	/experiments/knapen_aot/videos/S_yt-Kwfwhd07dVo_2.mp4	0.0	204.941241979599	2.5083189010620117
37	111.61456489562988	fix_post	2		12.0	35.0	2.5	/experiments/knapen_aot/videos/S_yt-Kwfwhd07dVo_2.mp4	0.0	207.449560880661	0.10023617744445801
38	111.71480107307434	fix_pre	0		41.0	36.0	2.5	/experiments/knapen_aot/videos/R_S_yt-tOOaOzYvtKE_79.mp4	0.0	207.54979705810547	0.341519832611084
38	112.04803204536438	response	0	2		36.0	2.5	/experiments/knapen_aot/videos/R_S_yt-tOOaOzYvtKE_79.mp4	0.0	207.8830280303955	
38	112.05632090568542	movie	1		301.0	36.0	2.5	/experiments/knapen_aot/videos/R_S_yt-tOOaOzYvtKE_79.mp4	0.0	207.89131689071655	2.5081920623779297
38	114.56451296806335	fix_post	2		12.0	36.0	2.5	/experiments/knapen_aot/videos/R_S_yt-tOOaOzYvtKE_79.mp4	0.0	210.39950895309448	0.10008001327514648
39	114.6645929813385	fix_pre	0		11.0	37.0	2.5	/experiments/knapen_aot/videos/R_S_yt-J2PiBa1MXI0_210.mp4	0.0	210.49958896636963	0.09170889854431152
39	114.74795198440552	response	0	2		37.0	2.5	/experiments/knapen_aot/videos/R_S_yt-J2PiBa1MXI0_210.mp4	0.0	210.58294796943665	
39	114.75630187988281	movie	1		301.0	37.0	2.5	/experiments/knapen_aot/videos/R_S_yt-J2PiBa1MXI0_210.mp4	0.0	210.59129786491394	2.508294105529785
39	117.2645959854126	fix_post	2		12.0	37.0	2.5	/experiments/knapen_aot/videos/R_S_yt-J2PiBa1MXI0_210.mp4	0.0	213.09959197044373	0.0999898910522461
40	117.36458587646484	fix_pre	0		17.0	38.0	2.5	/experiments/knapen_aot/videos/S_yt--C2DDZ7LOQA_95.mp4	0.0	213.19958186149597	0.14165210723876953
40	117.49798703193665	response	0	2		38.0	2.5	/experiments/knapen_aot/videos/S_yt--C2DDZ7LOQA_95.mp4	0.0	213.33298301696777	
40	117.50623798370361	movie	1		301.0	38.0	2.5	/experiments/knapen_aot/videos/S_yt--C2DDZ7LOQA_95.mp4	0.0	213.34123396873474	2.5083301067352295
40	120.01456809043884	fix_post	2		12.0	38.0	2.5	/experiments/knapen_aot/videos/S_yt--C2DDZ7LOQA_95.mp4	0.0	215.84956407546997	0.09996390342712402
41	120.11453199386597	fix_pre	0		21.0	39.0	2.5	/experiments/knapen_aot/videos/R_S_yt-NqyG4Ar2JWo_10.mp4	0.0	215.9495279788971	0.17562103271484375
41	120.28131103515625	response	0	2		39.0	2.5	/experiments/knapen_aot/videos/R_S_yt-NqyG4Ar2JWo_10.mp4	0.0	216.11630702018738	
41	120.29015302658081	movie	1		301.0	39.0	2.5	/experiments/knapen_aot/videos/R_S_yt-NqyG4Ar2JWo_10.mp4	0.0	216.12514901161194	2.5077168941497803
41	122.79786992073059	fix_post	2		12.0	39.0	2.5	/experiments/knapen_aot/videos/R_S_yt-NqyG4Ar2JWo_10.mp4	0.0	218.63286590576172	0.1000981330871582
42	122.89796805381775	fix_pre	0		21.0	40.0	2.5	blank	1.0	218.73296403884888	0.17487597465515137
42	123.06457996368408	response	0	2		40.0	2.5	blank	1.0	218.8995759487152	
42	123.0728440284729	movie	1		301.0	40.0	2.5	blank	1.0	218.90784001350403	2.5083470344543457
42	125.58119106292725	fix_post	2		12.0	40.0	2.5	blank	1.0	221.41618704795837	0.09999585151672363
43	125.68118691444397	fix_pre	0		28.0	41.0	2.5	/experiments/knapen_aot/videos/R_S_yt-GFcuvjHJmS4_86.mp4	0.0	221.5161828994751	0.23390603065490723
43	125.90630006790161	response	0	2		41.0	2.5	/experiments/knapen_aot/videos/R_S_yt-GFcuvjHJmS4_86.mp4	0.0	221.74129605293274	
43	125.91509294509888	movie	1		301.0	41.0	2.5	/experiments/knapen_aot/videos/R_S_yt-GFcuvjHJmS4_86.mp4	0.0	221.75008893013	2.507786989212036
43	128.4228799343109	fix_post	2		12.0	41.0	2.5	/experiments/knapen_aot/videos/R_S_yt-GFcuvjHJmS4_86.mp4	0.0	224.25787591934204	0.09996199607849121
44	128.5228419303894	fix_pre	0		15.0	42.0	2.5	/experiments/knapen_aot/videos/R_S_production_ID_5020953.mp4	0.0	224.35783791542053	0.12501811981201172
44	128.63206505775452	response	0	2		42.0	2.5	/experiments/knapen_aot/videos/R_S_production_ID_5020953.mp4	0.0	224.46706104278564	
44	128.64786005020142	movie	1		211.0	42.0	2.5	/experiments/knapen_aot/videos/R_S_production_ID_5020953.mp4	0.0	224.48285603523254	2.5083179473876953
44	131.1561779975891	fix_post	2		12.0	42.0	2.5	/experiments/knapen_aot/videos/R_S_production_ID_5020953.mp4	0.0	226.99117398262024	0.09999394416809082
45	131.2561719417572	fix_pre	0		7.0	43.0	2.5	/experiments/knapen_aot/videos/R_S_yt-kQpE9L-fsNE_55.mp4	0.0	227.09116792678833	0.058326005935668945
45	131.30650305747986	response	0	2		43.0	2.5	/experiments/knapen_aot/videos/R_S_yt-kQpE9L-fsNE_55.mp4	0.0	227.141499042511	
45	131.31449794769287	movie	1		301.0	43.0	2.5	/experiments/knapen_aot/videos/R_S_yt-kQpE9L-fsNE_55.mp4	0.0	227.149493932724	2.5082881450653076
45	133.82278609275818	fix_post	2		12.0	43.0	2.5	/experiments/knapen_aot/videos/R_S_yt-kQpE9L-fsNE_55.mp4	0.0	229.6577820777893	0.1000218391418457
46	133.92280793190002	fix_pre	0		15.0	44.0	2.5	/experiments/knapen_aot/videos/S_wc-q23aBNJMZbnZ_27.mp4	0.0	229.75780391693115	0.12505197525024414
46	134.03951692581177	response	0	2		44.0	2.5	/experiments/knapen_aot/videos/S_wc-q23aBNJMZbnZ_27.mp4	0.0	229.8745129108429	
46	134.04785990715027	movie	1		163.0	44.0	2.5	/experiments/knapen_aot/videos/S_wc-q23aBNJMZbnZ_27.mp4	0.0	229.8828558921814	2.5084900856018066
46	136.55634999275208	fix_post	2		12.0	44.0	2.5	/experiments/knapen_aot/videos/S_wc-q23aBNJMZbnZ_27.mp4	0.0	232.3913459777832	0.09984707832336426
47	136.65619707107544	fix_pre	0		8.0	45.0	2.5	/experiments/knapen_aot/videos/R_S_yt-a0axt7n0GuQ_19.mp4	0.0	232.49119305610657	0.06658482551574707
47	136.70695900917053	response	0	2		45.0	2.5	/experiments/knapen_aot/videos/R_S_yt-a0axt7n0GuQ_19.mp4	0.0	232.54195499420166	
47	136.7227818965912	movie	1		301.0	45.0	2.5	/experiments/knapen_aot/videos/R_S_yt-a0axt7n0GuQ_19.mp4	0.0	232.55777788162231	2.5083560943603516
47	139.23113799095154	fix_post	2		12.0	45.0	2.5	/experiments/knapen_aot/videos/R_S_yt-a0axt7n0GuQ_19.mp4	0.0	235.06613397598267	0.10003209114074707
48	139.33117008209229	fix_pre	0		16.0	46.0	2.5	/experiments/knapen_aot/videos/R_S_pexels-rodnae-productions-5993654.mp4	0.0	235.1661660671234	0.13320183753967285
48	139.45621395111084	response	0	2		46.0	2.5	/experiments/knapen_aot/videos/R_S_pexels-rodnae-productions-5993654.mp4	0.0	235.29120993614197	
48	139.46437191963196	movie	1		163.0	46.0	2.5	/experiments/knapen_aot/videos/R_S_pexels-rodnae-productions-5993654.mp4	0.0	235.2993679046631	2.508427143096924
48	141.97279906272888	fix_post	2		12.0	46.0	2.5	/experiments/knapen_aot/videos/R_S_pexels-rodnae-productions-5993654.mp4	0.0	237.80779504776	0.09998202323913574
49	142.07278108596802	fix_pre	0		5.0	47.0	2.5	blank	1.0	237.90777707099915	0.04165792465209961
49	142.10631799697876	response	0	2		47.0	2.5	blank	1.0	237.9413139820099	
49	142.11443901062012	movie	1		301.0	47.0	2.5	blank	1.0	237.94943499565125	2.5083460807800293
49	144.62278509140015	fix_post	2		12.0	47.0	2.5	blank	1.0	240.45778107643127	0.09994196891784668
50	144.722727060318	fix_pre	0		15.0	48.0	2.5	/experiments/knapen_aot/videos/R_S_yt-rqYMMAU_GJs_91.mp4	0.0	240.55772304534912	0.1250309944152832
50	144.83952403068542	response	0	2		48.0	2.5	/experiments/knapen_aot/videos/R_S_yt-rqYMMAU_GJs_91.mp4	0.0	240.67452001571655	
50	144.84775805473328	movie	1		301.0	48.0	2.5	/experiments/knapen_aot/videos/R_S_yt-rqYMMAU_GJs_91.mp4	0.0	240.6827540397644	2.508333921432495
50	147.35609197616577	fix_post	2		12.0	48.0	2.5	/experiments/knapen_aot/videos/R_S_yt-rqYMMAU_GJs_91.mp4	0.0	243.1910879611969	0.10051798820495605
51	147.45660996437073	fix_pre	0		8.0	49.0	2.5	/experiments/knapen_aot/videos/S_yt-deiWoIfK6vg_44.mp4	0.0	243.29160594940186	0.0661461353302002
51	147.51451897621155	response	0	2		49.0	2.5	/experiments/knapen_aot/videos/S_yt-deiWoIfK6vg_44.mp4	0.0	243.34951496124268	
51	147.52275609970093	movie	1		301.0	49.0	2.5	/experiments/knapen_aot/videos/S_yt-deiWoIfK6vg_44.mp4	0.0	243.35775208473206	2.5083627700805664
51	150.0311188697815	fix_post	2		12.0	49.0	2.5	/experiments/knapen_aot/videos/S_yt-deiWoIfK6vg_44.mp4	0.0	245.86611485481262	0.09997415542602539
52	150.13109302520752	fix_pre	0		23.0	50.0	2.5	/experiments/knapen_aot/videos/R_S_yt--C2DDZ7LOQA_95.mp4	0.0	245.96608901023865	0.19170594215393066
52	150.31447005271912	response	0	2		50.0	2.5	/experiments/knapen_aot/videos/R_S_yt--C2DDZ7LOQA_95.mp4	0.0	246.14946603775024	
52	150.32279896736145	movie	1		301.0	50.0	2.5	/experiments/knapen_aot/videos/R_S_yt--C2DDZ7LOQA_95.mp4	0.0	246.15779495239258	2.508284091949463
52	152.8310830593109	fix_post	2		12.0	50.0	2.5	/experiments/knapen_aot/videos/R_S_yt--C2DDZ7LOQA_95.mp4	0.0	248.66607904434204	0.0999748706817627
53	152.93105792999268	fix_pre	0		13.0	51.0	2.5	/experiments/knapen_aot/videos/S_yt-gaCbT4RR9Tw_191.mp4	0.0	248.7660539150238	0.10877203941345215
53	153.03118991851807	response	0	2		51.0	2.5	/experiments/knapen_aot/videos/S_yt-gaCbT4RR9Tw_191.mp4	0.0	248.8661859035492	
53	153.03982996940613	movie	1		301.0	51.0	2.5	/experiments/knapen_aot/videos/S_yt-gaCbT4RR9Tw_191.mp4	0.0	248.87482595443726	2.507894992828369
53	155.5477249622345	fix_post	2		12.0	51.0	2.5	/experiments/knapen_aot/videos/S_yt-gaCbT4RR9Tw_191.mp4	0.0	251.38272094726562	0.09999608993530273
54	155.6477210521698	fix_pre	0		25.0	52.0	2.5	/experiments/knapen_aot/videos/S_yt-lADkWM79teI_18.mp4	0.0	251.48271703720093	0.20829081535339355
54	155.84787607192993	response	0	2		52.0	2.5	/experiments/knapen_aot/videos/S_yt-lADkWM79teI_18.mp4	0.0	251.68287205696106	
54	155.8560118675232	movie	1		301.0	52.0	2.5	/experiments/knapen_aot/videos/S_yt-lADkWM79teI_18.mp4	0.0	251.69100785255432	2.508376121520996
54	158.3643879890442	fix_post	2		12.0	52.0	2.5	/experiments/knapen_aot/videos/S_yt-lADkWM79teI_18.mp4	0.0	254.19938397407532	0.09999704360961914
55	158.4643850326538	fix_pre	0		14.0	53.0	2.5	/experiments/knapen_aot/videos/R_S_production_ID_5049072.mp4	0.0	254.29938101768494	0.11702990531921387
55	158.57285404205322	response	0	2		53.0	2.5	/experiments/knapen_aot/videos/R_S_production_ID_5049072.mp4	0.0	254.40785002708435	
55	158.58141493797302	movie	1		167.0	53.0	2.5	/experiments/knapen_aot/videos/R_S_production_ID_5049072.mp4	0.0	254.41641092300415	2.5079691410064697
55	161.0893840789795	fix_post	2		12.0	53.0	2.5	/experiments/knapen_aot/videos/R_S_production_ID_5049072.mp4	0.0	256.9243800640106	0.0999908447265625
55	161.14780402183533	response	2	2		53.0	2.5	/experiments/knapen_aot/videos/R_S_production_ID_5049072.mp4	0.0	256.98280000686646	
56	161.18937492370605	fix_pre	0		33.0	54.0	2.5	/experiments/knapen_aot/videos/S_yt-ET5YTz1laWo_108.mp4	0.0	257.0243709087372	0.274960994720459
56	161.4561219215393	response	0	2		54.0	2.5	/experiments/knapen_aot/videos/S_yt-ET5YTz1laWo_108.mp4	0.0	257.29111790657043	
56	161.4643359184265	movie	1		301.0	54.0	2.5	/experiments/knapen_aot/videos/S_yt-ET5YTz1laWo_108.mp4	0.0	257.29933190345764	2.508357048034668
56	163.97269296646118	fix_post	2		12.0	54.0	2.5	/experiments/knapen_aot/videos/S_yt-ET5YTz1laWo_108.mp4	0.0	259.8076889514923	0.09998512268066406
57	164.07267808914185	fix_pre	0		8.0	55.0	2.5	blank	1.0	259.907674074173	0.06679677963256836
57	164.1311058998108	response	0	2		55.0	2.5	blank	1.0	259.9661018848419	
57	164.1394748687744	movie	1		301.0	55.0	2.5	blank	1.0	259.97447085380554	2.5082271099090576
57	166.64770197868347	fix_post	2		12.0	55.0	2.5	blank	1.0	262.4826979637146	0.10003304481506348
58	166.74773502349854	fix_pre	0		22.0	56.0	2.5	/experiments/knapen_aot/videos/S_S005_C015_SDR_2K_AVC.mp4	0.0	262.58273100852966	0.18337607383728027
58	166.92269206047058	response	0	2		56.0	2.5	/experiments/knapen_aot/videos/S_S005_C015_SDR_2K_AVC.mp4	0.0	262.7576880455017	
58	166.93111109733582	movie	1		173.0	56.0	2.5	/experiments/knapen_aot/videos/S_S005_C015_SDR_2K_AVC.mp4	0.0	262.76610708236694	2.5082387924194336
58	169.43934988975525	fix_post	2		12.0	56.0	2.5	/experiments/knapen_aot/videos/S_S005_C015_SDR_2K_AVC.mp4	0.0	265.2743458747864	0.10040116310119629
58	169.50613689422607	response	2	2		56.0	2.5	/experiments/knapen_aot/videos/S_S005_C015_SDR_2K_AVC.mp4	0.0	265.3411328792572	
59	169.53975105285645	fix_pre	0		31.0	57.0	2.5	/experiments/knapen_aot/videos/R_S_ILSVRC2015_train_00610000.mp4	0.0	265.3747470378876	0.2578279972076416
59	169.78947806358337	response	0	2		57.0	2.5	/experiments/knapen_aot/videos/R_S_ILSVRC2015_train_00610000.mp4	0.0	265.6244740486145	
59	169.7975790500641	movie	1		301.0	57.0	2.5	/experiments/knapen_aot/videos/R_S_ILSVRC2015_train_00610000.mp4	0.0	265.6325750350952	2.5084228515625
59	172.3060019016266	fix_post	2		11.0	57.0	2.5	/experiments/knapen_aot/videos/R_S_ILSVRC2015_train_00610000.mp4	0.0	268.1409978866577	0.09157609939575195
59	172.3895230293274	response	2	2		57.0	2.5	/experiments/knapen_aot/videos/R_S_ILSVRC2015_train_00610000.mp4	0.0	268.2245190143585	
60	172.39757800102234	fix_pre	0		30.0	58.0	2.5	/experiments/knapen_aot/videos/R_S_3WAnGcPubBY_143.mp4	0.0	268.23257398605347	0.25005388259887695
60	172.63940405845642	response	0	2		58.0	2.5	/experiments/knapen_aot/videos/R_S_3WAnGcPubBY_143.mp4	0.0	268.47440004348755	
60	172.64763188362122	movie	1		301.0	58.0	2.5	/experiments/knapen_aot/videos/R_S_3WAnGcPubBY_143.mp4	0.0	268.48262786865234	2.508352041244507
60	175.15598392486572	fix_post	2		12.0	58.0	2.5	/experiments/knapen_aot/videos/R_S_3WAnGcPubBY_143.mp4	0.0	270.99097990989685	0.09998607635498047
61	175.2559700012207	fix_pre	0		7.0	59.0	2.5	/experiments/knapen_aot/videos/R_S_Y004_C015_SDR_2K_AVC.mp4	0.0	271.09096598625183	0.05835103988647461
61	175.30608987808228	response	0	2		59.0	2.5	/experiments/knapen_aot/videos/R_S_Y004_C015_SDR_2K_AVC.mp4	0.0	271.1410858631134	
61	175.31432104110718	movie	1		171.0	59.0	2.5	/experiments/knapen_aot/videos/R_S_Y004_C015_SDR_2K_AVC.mp4	0.0	271.1493170261383	2.508323907852173
61	177.82264494895935	fix_post	2		12.0	59.0	2.5	/experiments/knapen_aot/videos/R_S_Y004_C015_SDR_2K_AVC.mp4	0.0	273.6576409339905	0.10006308555603027
62	177.92270803451538	fix_pre	0		12.0	60.0	2.5	/experiments/knapen_aot/videos/R_S_yt-wPXrAuiiRZg_1062.mp4	0.0	273.7577040195465	0.09990406036376953
62	178.0143940448761	response	0	2		60.0	2.5	/experiments/knapen_aot/videos/R_S_yt-wPXrAuiiRZg_1062.mp4	0.0	273.8493900299072	
62	178.02261209487915	movie	1		301.0	60.0	2.5	/experiments/knapen_aot/videos/R_S_yt-wPXrAuiiRZg_1062.mp4	0.0	273.8576080799103	2.508741855621338
62	180.5313539505005	fix_post	2		12.0	60.0	2.5	/experiments/knapen_aot/videos/R_S_yt-wPXrAuiiRZg_1062.mp4	0.0	276.3663499355316	0.09962797164916992
63	180.63098192214966	fix_pre	0		9.0	61.0	2.5	/experiments/knapen_aot/videos/R_S_fHdEaNT0gA0_35.mp4	0.0	276.4659779071808	0.07524895668029785
63	180.69775700569153	response	0	2		61.0	2.5	/experiments/knapen_aot/videos/R_S_fHdEaNT0gA0_35.mp4	0.0	276.53275299072266	
63	180.70623087882996	movie	1		301.0	61.0	2.5	/experiments/knapen_aot/videos/R_S_fHdEaNT0gA0_35.mp4	0.0	276.5412268638611	2.5080320835113525
63	183.2142629623413	fix_post	2		12.0	61.0	2.5	/experiments/knapen_aot/videos/R_S_fHdEaNT0gA0_35.mp4	0.0	279.04925894737244	0.10002994537353516
64	183.31429290771484	fix_pre	0		20.0	62.0	2.5	/experiments/knapen_aot/videos/R_S_comp_LA_A009_C009_PSNK_v02_SDR_PS_FINAL_20180709_SDR_2K_AVC.mp4	0.0	279.149288892746	0.16664814949035645
64	183.4727509021759	response	0	2		62.0	2.5	/experiments/knapen_aot/videos/R_S_comp_LA_A009_C009_PSNK_v02_SDR_PS_FINAL_20180709_SDR_2K_AVC.mp4	0.0	279.30774688720703	
64	183.4809410572052	movie	1		177.0	62.0	2.5	/experiments/knapen_aot/videos/R_S_comp_LA_A009_C009_PSNK_v02_SDR_PS_FINAL_20180709_SDR_2K_AVC.mp4	0.0	279.3159370422363	2.508270025253296
64	185.9892110824585	fix_post	2		12.0	62.0	2.5	/experiments/knapen_aot/videos/R_S_comp_LA_A009_C009_PSNK_v02_SDR_PS_FINAL_20180709_SDR_2K_AVC.mp4	0.0	281.8242070674896	0.1000819206237793
65	186.08929300308228	fix_pre	0		12.0	63.0	2.5	blank	1.0	281.9242889881134	0.09997296333312988
65	186.18101596832275	response	0	2		63.0	2.5	blank	1.0	282.0160119533539	
65	186.1892659664154	movie	1		301.0	63.0	2.5	blank	1.0	282.02426195144653	2.508345127105713
65	188.69761109352112	fix_post	2		12.0	63.0	2.5	blank	1.0	284.53260707855225	0.10000491142272949
66	188.79761600494385	fix_pre	0		16.0	64.0	2.5	/experiments/knapen_aot/videos/R_S_video_inspire_california_santa-barbara_050.1080-h264.mp4	0.0	284.632611989975	0.13329601287841797
66	188.92267489433289	response	0	2		64.0	2.5	/experiments/knapen_aot/videos/R_S_video_inspire_california_santa-barbara_050.1080-h264.mp4	0.0	284.757670879364	
66	188.93091201782227	movie	1		171.0	64.0	2.5	/experiments/knapen_aot/videos/R_S_video_inspire_california_santa-barbara_050.1080-h264.mp4	0.0	284.7659080028534	2.5083420276641846
66	191.43925404548645	fix_post	2		12.0	64.0	2.5	/experiments/knapen_aot/videos/R_S_video_inspire_california_santa-barbara_050.1080-h264.mp4	0.0	287.2742500305176	0.10030603408813477
67	191.53956007957458	fix_pre	0		3.0	65.0	2.5	/experiments/knapen_aot/videos/S_ILSVRC2015_train_00087003.mp4	0.0	287.3745560646057	0.02463388442993164
67	191.55624294281006	response	0	2		65.0	2.5	/experiments/knapen_aot/videos/S_ILSVRC2015_train_00087003.mp4	0.0	287.3912389278412	
67	191.56419396400452	movie	1		301.0	65.0	2.5	/experiments/knapen_aot/videos/S_ILSVRC2015_train_00087003.mp4	0.0	287.39918994903564	2.5084049701690674
67	194.07259893417358	fix_post	2		12.0	65.0	2.5	/experiments/knapen_aot/videos/S_ILSVRC2015_train_00087003.mp4	0.0	289.9075949192047	0.09996914863586426
68	194.17256808280945	fix_pre	0		13.0	66.0	2.5	/experiments/knapen_aot/videos/S_yt-LdHRVIb4nIE_6.mp4	0.0	290.0075640678406	0.10831785202026367
68	194.2725989818573	response	0	2		66.0	2.5	/experiments/knapen_aot/videos/S_yt-LdHRVIb4nIE_6.mp4	0.0	290.1075949668884	
68	194.2808859348297	movie	1		301.0	66.0	2.5	/experiments/knapen_aot/videos/S_yt-LdHRVIb4nIE_6.mp4	0.0	290.11588191986084	2.5088210105895996
68	196.7897069454193	fix_post	2		12.0	66.0	2.5	/experiments/knapen_aot/videos/S_yt-LdHRVIb4nIE_6.mp4	0.0	292.62470293045044	0.09955406188964844
69	196.88926100730896	fix_pre	0		19.0	67.0	2.5	/experiments/knapen_aot/videos/R_S_video_inspire_oregon_portland_00064.1080-h264.mp4	0.0	292.7242569923401	0.15829896926879883
69	197.03921103477478	response	0	2		67.0	2.5	/experiments/knapen_aot/videos/R_S_video_inspire_oregon_portland_00064.1080-h264.mp4	0.0	292.8742070198059	
69	197.04755997657776	movie	1		170.0	67.0	2.5	/experiments/knapen_aot/videos/R_S_video_inspire_oregon_portland_00064.1080-h264.mp4	0.0	292.8825559616089	2.5083560943603516
69	199.5559160709381	fix_post	2		12.0	67.0	2.5	/experiments/knapen_aot/videos/R_S_video_inspire_oregon_portland_00064.1080-h264.mp4	0.0	295.39091205596924	0.10004591941833496
70	199.65596199035645	fix_pre	0		1.0	68.0	2.5	/experiments/knapen_aot/videos/S_yt-Xq6uX1jfFRk_21.mp4	0.0	295.4909579753876	0.008812904357910156
70	199.65761590003967	response	0	2		68.0	2.5	/experiments/knapen_aot/videos/S_yt-Xq6uX1jfFRk_21.mp4	0.0	295.4926118850708	
70	199.66477489471436	movie	1		301.0	68.0	2.5	/experiments/knapen_aot/videos/S_yt-Xq6uX1jfFRk_21.mp4	0.0	295.4997708797455	2.5077881813049316
70	202.1725630760193	fix_post	2		12.0	68.0	2.5	/experiments/knapen_aot/videos/S_yt-Xq6uX1jfFRk_21.mp4	0.0	298.0075590610504	0.10003089904785156
71	202.27259397506714	fix_pre	0		21.0	69.0	2.5	/experiments/knapen_aot/videos/S_yt--UhwpukdyBg_51.mp4	0.0	298.10758996009827	0.17493104934692383
71	202.43177199363708	response	0	2		69.0	2.5	/experiments/knapen_aot/videos/S_yt--UhwpukdyBg_51.mp4	0.0	298.2667679786682	
71	202.44752502441406	movie	1		301.0	69.0	2.5	/experiments/knapen_aot/videos/S_yt--UhwpukdyBg_51.mp4	0.0	298.2825210094452	2.508344888687134
71	204.9558699131012	fix_post	2		12.0	69.0	2.5	/experiments/knapen_aot/videos/S_yt--UhwpukdyBg_51.mp4	0.0	300.7908658981323	0.10001611709594727
72	205.05588603019714	fix_pre	0		15.0	70.0	2.5	blank	1.0	300.89088201522827	0.12489700317382812
72	205.17264604568481	response	0	2		70.0	2.5	blank	1.0	301.00764203071594	
72	205.18078303337097	movie	1		301.0	70.0	2.5	blank	1.0	301.0157790184021	2.508328914642334
72	207.6891119480133	fix_post	2		12.0	70.0	2.5	blank	1.0	303.52410793304443	0.10025501251220703
73	207.7893669605255	fix_pre	0		13.0	71.0	2.5	/experiments/knapen_aot/videos/R_S_ILSVRC2015_train_00601000.mp4	0.0	303.62436294555664	0.10811090469360352
73	207.88915300369263	response	0	2		71.0	2.5	/experiments/knapen_aot/videos/R_S_ILSVRC2015_train_00601000.mp4	0.0	303.72414898872375	
73	207.89747786521912	movie	1		301.0	71.0	2.5	/experiments/knapen_aot/videos/R_S_ILSVRC2015_train_00601000.mp4	0.0	303.73247385025024	2.508355140686035
73	210.40583300590515	fix_post	2		12.0	71.0	2.5	/experiments/knapen_aot/videos/R_S_ILSVRC2015_train_00601000.mp4	0.0	306.2408289909363	0.09998607635498047
74	210.50581908226013	fix_pre	0		10.0	72.0	2.5	/experiments/knapen_aot/videos/S_xTlFOCRvy68_1564.mp4	0.0	306.34081506729126	0.08333301544189453
74	210.58095407485962	response	0	2		72.0	2.5	/experiments/knapen_aot/videos/S_xTlFOCRvy68_1564.mp4	0.0	306.41595005989075	
74	210.58915209770203	movie	1		301.0	72.0	2.5	/experiments/knapen_aot/videos/S_xTlFOCRvy68_1564.mp4	0.0	306.42414808273315	2.5084409713745117
74	213.09759306907654	fix_post	2		12.0	72.0	2.5	/experiments/knapen_aot/videos/S_xTlFOCRvy68_1564.mp4	0.0	308.93258905410767	0.10001587867736816
75	213.1976089477539	fix_pre	0		34.0	73.0	2.5	/experiments/knapen_aot/videos/S_ILSVRC2015_train_00418004.mp4	0.0	309.03260493278503	0.2831740379333496
75	213.4725239276886	response	0	2		73.0	2.5	/experiments/knapen_aot/videos/S_ILSVRC2015_train_00418004.mp4	0.0	309.3075199127197	
75	213.48078298568726	movie	1		301.0	73.0	2.5	/experiments/knapen_aot/videos/S_ILSVRC2015_train_00418004.mp4	0.0	309.3157789707184	2.5083370208740234
75	215.98912000656128	fix_post	2		12.0	73.0	2.5	/experiments/knapen_aot/videos/S_ILSVRC2015_train_00418004.mp4	0.0	311.8241159915924	0.10004496574401855
76	216.0891649723053	fix_pre	0		6.0	74.0	2.5	/experiments/knapen_aot/videos/R_S_yt--UhwpukdyBg_51.mp4	0.0	311.9241609573364	0.050086021423339844
76	216.131000995636	response	0	2		74.0	2.5	/experiments/knapen_aot/videos/R_S_yt--UhwpukdyBg_51.mp4	0.0	311.9659969806671	
76	216.13925099372864	movie	1		301.0	74.0	2.5	/experiments/knapen_aot/videos/R_S_yt--UhwpukdyBg_51.mp4	0.0	311.97424697875977	2.5082919597625732
76	218.6475429534912	fix_post	2		12.0	74.0	2.5	/experiments/knapen_aot/videos/R_S_yt--UhwpukdyBg_51.mp4	0.0	314.48253893852234	0.10029911994934082
77	218.74784207344055	fix_pre	0		18.0	75.0	2.5	/experiments/knapen_aot/videos/S_yt-7Ya-rGPO8cM_159.mp4	0.0	314.5828380584717	0.14962387084960938
77	218.88927292823792	response	0	2		75.0	2.5	/experiments/knapen_aot/videos/S_yt-7Ya-rGPO8cM_159.mp4	0.0	314.72426891326904	
77	218.89746594429016	movie	1		301.0	75.0	2.5	/experiments/knapen_aot/videos/S_yt-7Ya-rGPO8cM_159.mp4	0.0	314.7324619293213	2.5083301067352295
77	221.4057960510254	fix_post	2		12.0	75.0	2.5	/experiments/knapen_aot/videos/S_yt-7Ya-rGPO8cM_159.mp4	0.0	317.2407920360565	0.10008382797241211
78	221.5058798789978	fix_pre	0		22.0	76.0	2.5	/experiments/knapen_aot/videos/S_yt-aiwDdJm1ek8_90.mp4	0.0	317.34087586402893	0.18326902389526367
78	221.680988073349	response	0	2		76.0	2.5	/experiments/knapen_aot/videos/S_yt-aiwDdJm1ek8_90.mp4	0.0	317.5159840583801	
78	221.68914890289307	movie	1		301.0	76.0	2.5	/experiments/knapen_aot/videos/S_yt-aiwDdJm1ek8_90.mp4	0.0	317.5241448879242	2.508324146270752
78	224.19747304916382	fix_post	2		12.0	76.0	2.5	/experiments/knapen_aot/videos/S_yt-aiwDdJm1ek8_90.mp4	0.0	320.03246903419495	0.09996604919433594
79	224.29743909835815	fix_pre	0		26.0	77.0	2.5	blank	1.0	320.1324350833893	0.21665382385253906
79	224.50587391853333	response	0	2		77.0	2.5	blank	1.0	320.34086990356445	
79	224.5140929222107	movie	1		301.0	77.0	2.5	blank	1.0	320.3490889072418	2.5083470344543457
79	227.02243995666504	fix_post	2		12.0	77.0	2.5	blank	1.0	322.85743594169617	0.10021710395812988
80	227.12265706062317	fix_pre	0		19.0	78.0	2.5	/experiments/knapen_aot/videos/R_S_production_ID_4124475.mp4	0.0	322.9576530456543	0.15807485580444336
80	227.27247405052185	response	0	2		78.0	2.5	/experiments/knapen_aot/videos/R_S_production_ID_4124475.mp4	0.0	323.107470035553	
80	227.2807319164276	movie	1		171.0	78.0	2.5	/experiments/knapen_aot/videos/R_S_production_ID_4124475.mp4	0.0	323.11572790145874	2.5084240436553955
80	229.789155960083	fix_post	2		12.0	78.0	2.5	/experiments/knapen_aot/videos/R_S_production_ID_4124475.mp4	0.0	325.62415194511414	0.09991812705993652
81	229.88907408714294	fix_pre	0		7.0	79.0	2.5	/experiments/knapen_aot/videos/S_yt-xCh0LI9VKeI_28.mp4	0.0	325.7240700721741	0.05825400352478027
81	229.93920707702637	response	0	2		79.0	2.5	/experiments/knapen_aot/videos/S_yt-xCh0LI9VKeI_28.mp4	0.0	325.7742030620575	
81	229.94732809066772	movie	1		301.0	79.0	2.5	/experiments/knapen_aot/videos/S_yt-xCh0LI9VKeI_28.mp4	0.0	325.78232407569885	2.508485794067383
81	232.4558138847351	fix_post	2		12.0	79.0	2.5	/experiments/knapen_aot/videos/S_yt-xCh0LI9VKeI_28.mp4	0.0	328.29080986976624	0.09992218017578125
82	232.5557360649109	fix_pre	0		9.0	80.0	2.5	/experiments/knapen_aot/videos/S_yt-xSGPe0KemD4_384.mp4	0.0	328.390732049942	0.07494187355041504
82	232.6224958896637	response	0	2		80.0	2.5	/experiments/knapen_aot/videos/S_yt-xSGPe0KemD4_384.mp4	0.0	328.4574918746948	
82	232.6306779384613	movie	1		301.0	80.0	2.5	/experiments/knapen_aot/videos/S_yt-xSGPe0KemD4_384.mp4	0.0	328.46567392349243	2.5084619522094727
82	235.13913989067078	fix_post	2		12.0	80.0	2.5	/experiments/knapen_aot/videos/S_yt-xSGPe0KemD4_384.mp4	0.0	330.9741358757019	0.09996318817138672
83	235.23910307884216	fix_pre	0		26.0	81.0	2.5	/experiments/knapen_aot/videos/R_S_pexels-polina-tankilevitch-8203088.mp4	0.0	331.0740990638733	0.21661090850830078
83	235.44747400283813	response	0	2		81.0	2.5	/experiments/knapen_aot/videos/R_S_pexels-polina-tankilevitch-8203088.mp4	0.0	331.28246998786926	
83	235.45571398735046	movie	1		164.0	81.0	2.5	/experiments/knapen_aot/videos/R_S_pexels-polina-tankilevitch-8203088.mp4	0.0	331.2907099723816	2.508375883102417
83	237.96408987045288	fix_post	2		12.0	81.0	2.5	/experiments/knapen_aot/videos/R_S_pexels-polina-tankilevitch-8203088.mp4	0.0	333.799085855484	0.09995603561401367
84	238.0640459060669	fix_pre	0		15.0	82.0	2.5	blank	1.0	333.899041891098	0.12499618530273438
84	238.180734872818	response	0	2		82.0	2.5	blank	1.0	334.0157308578491	
84	238.18904209136963	movie	1		301.0	82.0	2.5	blank	1.0	334.02403807640076	2.5083677768707275
84	240.69740986824036	fix_post	2		12.0	82.0	2.5	blank	1.0	336.5324058532715	0.10005307197570801
85	240.79746294021606	fix_pre	0		15.0	83.0	2.5	/experiments/knapen_aot/videos/R_S_yt-Ub5Xx5BqIOk_74.mp4	0.0	336.6324589252472	0.12485098838806152
85	240.91415786743164	response	0	2		83.0	2.5	/experiments/knapen_aot/videos/R_S_yt-Ub5Xx5BqIOk_74.mp4	0.0	336.74915385246277	
85	240.92231392860413	movie	1		301.0	83.0	2.5	/experiments/knapen_aot/videos/R_S_yt-Ub5Xx5BqIOk_74.mp4	0.0	336.75730991363525	2.5084240436553955
85	243.43073797225952	fix_post	2		12.0	83.0	2.5	/experiments/knapen_aot/videos/R_S_yt-Ub5Xx5BqIOk_74.mp4	0.0	339.26573395729065	0.09996509552001953
87	243.53070306777954	stim	0		222.0					339.36569905281067	1.8499078750610352
87	243.58182096481323	response	0	2						339.41681694984436	
87	245.3761830329895	response	0	space						341.21117901802063	
