trial_nr	onset	event_type	phase	response	nr_frames	movie_index	movie_duration	movie_file	blank	onset_abs	duration
0	0.16620087623596191	stim	0		94.0					60.411290884017944	0.7989449501037598
0	0.9564428329467773	response	0	space						61.20153284072876	
1	0.9651458263397217	stim	0		121.0					61.210235834121704	1.0072660446166992
1	1.972411870956421	stim	1		120.0					62.2175018787384	1.0000419616699219
2	2.9724538326263428	fix_pre	0		37.0	0.0	2.5	/experiments/knapen_aot/videos/S_yt-jcuaf9iSEkI_169.mp4	0.0	63.217543840408325	0.3083150386810303
2	3.2726118564605713	response	0	space		0.0	2.5	/experiments/knapen_aot/videos/S_yt-jcuaf9iSEkI_169.mp4	0.0	63.517701864242554	
2	3.280768871307373	movie	1		300.0	0.0	2.5	/experiments/knapen_aot/videos/S_yt-jcuaf9iSEkI_169.mp4	0.0	63.525858879089355	2.5083370208740234
2	5.7891058921813965	fix_post	2		12.0	0.0	2.5	/experiments/knapen_aot/videos/S_yt-jcuaf9iSEkI_169.mp4	0.0	66.03419589996338	0.09998798370361328
3	5.88909387588501	fix_pre	0		52.0	1.0	2.5	/experiments/knapen_aot/videos/S_yt-tNCrkObhB6c_17.mp4	0.0	66.13418388366699	0.43331313133239746
3	6.315711975097656	response	0	2		1.0	2.5	/experiments/knapen_aot/videos/S_yt-tNCrkObhB6c_17.mp4	0.0	66.56080198287964	
3	6.322407007217407	movie	1		301.0	1.0	2.5	/experiments/knapen_aot/videos/S_yt-tNCrkObhB6c_17.mp4	0.0	66.56749701499939	2.5083439350128174
3	8.830750942230225	fix_post	2		12.0	1.0	2.5	/experiments/knapen_aot/videos/S_yt-tNCrkObhB6c_17.mp4	0.0	69.0758409500122	0.09995794296264648
4	8.930708885192871	fix_pre	0		14.0	2.0	2.5	/experiments/knapen_aot/videos/R_S_wc-b4Oquu3WQPRz_45.mp4	0.0	69.17579889297485	0.11737608909606934
4	9.031782865524292	response	0	2		2.0	2.5	/experiments/knapen_aot/videos/R_S_wc-b4Oquu3WQPRz_45.mp4	0.0	69.27687287330627	
4	9.04808497428894	movie	1		173.0	2.0	2.5	/experiments/knapen_aot/videos/R_S_wc-b4Oquu3WQPRz_45.mp4	0.0	69.29317498207092	2.5076169967651367
4	11.555701971054077	fix_post	2		12.0	2.0	2.5	/experiments/knapen_aot/videos/R_S_wc-b4Oquu3WQPRz_45.mp4	0.0	71.80079197883606	0.09999680519104004
5	11.655698776245117	fix_pre	0		12.0	3.0	2.5	/experiments/knapen_aot/videos/R_S_ILSVRC2015_train_00628000.mp4	0.0	71.9007887840271	0.10076522827148438
5	11.747516870498657	response	0	2		3.0	2.5	/experiments/knapen_aot/videos/R_S_ILSVRC2015_train_00628000.mp4	0.0	71.99260687828064	
5	11.756464004516602	movie	1		301.0	3.0	2.5	/experiments/knapen_aot/videos/R_S_ILSVRC2015_train_00628000.mp4	0.0	72.00155401229858	2.5075509548187256
5	14.264014959335327	fix_post	2		12.0	3.0	2.5	/experiments/knapen_aot/videos/R_S_ILSVRC2015_train_00628000.mp4	0.0	74.50910496711731	0.10001397132873535
6	14.364028930664062	fix_pre	0		4.0	4.0	2.5	/experiments/knapen_aot/videos/S_yt-I2n2eo2zoZs_94.mp4	0.0	74.60911893844604	0.03335690498352051
6	14.389208793640137	response	0	2		4.0	2.5	/experiments/knapen_aot/videos/S_yt-I2n2eo2zoZs_94.mp4	0.0	74.63429880142212	
6	14.397385835647583	movie	1		301.0	4.0	2.5	/experiments/knapen_aot/videos/S_yt-I2n2eo2zoZs_94.mp4	0.0	74.64247584342957	2.5082790851593018
6	16.905664920806885	fix_post	2		12.0	4.0	2.5	/experiments/knapen_aot/videos/S_yt-I2n2eo2zoZs_94.mp4	0.0	77.15075492858887	0.09998798370361328
7	17.005652904510498	fix_pre	0		16.0	5.0	2.5	blank	1.0	77.25074291229248	0.13339591026306152
7	17.130863904953003	response	0	2		5.0	2.5	blank	1.0	77.37595391273499	
7	17.13904881477356	movie	1		301.0	5.0	2.5	blank	1.0	77.38413882255554	2.508296012878418
7	19.647344827651978	fix_post	2		12.0	5.0	2.5	blank	1.0	79.89243483543396	0.10008096694946289
8	19.74742579460144	fix_pre	0		21.0	6.0	2.5	/experiments/knapen_aot/videos/S_Pexels_Videos_2786546.mp4	0.0	79.99251580238342	0.17558813095092773
8	19.91407799720764	response	0	2		6.0	2.5	/experiments/knapen_aot/videos/S_Pexels_Videos_2786546.mp4	0.0	80.15916800498962	
8	19.923013925552368	movie	1		167.0	6.0	2.5	/experiments/knapen_aot/videos/S_Pexels_Videos_2786546.mp4	0.0	80.16810393333435	2.5076558589935303
8	22.4306697845459	fix_post	2		12.0	6.0	2.5	/experiments/knapen_aot/videos/S_Pexels_Videos_2786546.mp4	0.0	82.67575979232788	0.10005307197570801
9	22.530722856521606	fix_pre	0		5.0	7.0	2.5	/experiments/knapen_aot/videos/R_S_yt-VJ65ukWmdxQ_193.mp4	0.0	82.77581286430359	0.041676998138427734
9	22.56411600112915	response	0	2		7.0	2.5	/experiments/knapen_aot/videos/R_S_yt-VJ65ukWmdxQ_193.mp4	0.0	82.80920600891113	
9	22.572399854660034	movie	1		301.0	7.0	2.5	/experiments/knapen_aot/videos/R_S_yt-VJ65ukWmdxQ_193.mp4	0.0	82.81748986244202	2.5082919597625732
9	25.080691814422607	fix_post	2		12.0	7.0	2.5	/experiments/knapen_aot/videos/R_S_yt-VJ65ukWmdxQ_193.mp4	0.0	85.32578182220459	0.10000014305114746
10	25.180691957473755	fix_pre	0		18.0	8.0	2.5	/experiments/knapen_aot/videos/R_S_yt-zlbtESb7Fcw_28.mp4	0.0	85.42578196525574	0.14998292922973633
10	25.322402000427246	response	0	2		8.0	2.5	/experiments/knapen_aot/videos/R_S_yt-zlbtESb7Fcw_28.mp4	0.0	85.56749200820923	
10	25.33067488670349	movie	1		301.0	8.0	2.5	/experiments/knapen_aot/videos/R_S_yt-zlbtESb7Fcw_28.mp4	0.0	85.57576489448547	2.5083119869232178
10	27.83898687362671	fix_post	2		12.0	8.0	2.5	/experiments/knapen_aot/videos/R_S_yt-zlbtESb7Fcw_28.mp4	0.0	88.08407688140869	0.09999513626098633
11	27.938982009887695	fix_pre	0		13.0	9.0	2.5	/experiments/knapen_aot/videos/S_yt-3V8US8ZD3NU_229.mp4	0.0	88.18407201766968	0.10896182060241699
11	28.039150953292847	response	0	2		9.0	2.5	/experiments/knapen_aot/videos/S_yt-3V8US8ZD3NU_229.mp4	0.0	88.28424096107483	
11	28.047943830490112	movie	1		298.0	9.0	2.5	/experiments/knapen_aot/videos/S_yt-3V8US8ZD3NU_229.mp4	0.0	88.2930338382721	2.50769305229187
11	30.555636882781982	fix_post	2		12.0	9.0	2.5	/experiments/knapen_aot/videos/S_yt-3V8US8ZD3NU_229.mp4	0.0	90.80072689056396	0.09998893737792969
12	30.655625820159912	fix_pre	0		26.0	10.0	2.5	/experiments/knapen_aot/videos/R_S_yt-JG2OY_7B-gI_537.mp4	0.0	90.9007158279419	0.21659398078918457
12	30.864107847213745	response	0	2		10.0	2.5	/experiments/knapen_aot/videos/R_S_yt-JG2OY_7B-gI_537.mp4	0.0	91.10919785499573	
12	30.872219800949097	movie	1		301.0	10.0	2.5	/experiments/knapen_aot/videos/R_S_yt-JG2OY_7B-gI_537.mp4	0.0	91.11730980873108	2.5084140300750732
12	33.38063383102417	fix_post	2		12.0	10.0	2.5	/experiments/knapen_aot/videos/R_S_yt-JG2OY_7B-gI_537.mp4	0.0	93.62572383880615	0.10002303123474121
13	33.48065686225891	fix_pre	0		7.0	11.0	2.5	/experiments/knapen_aot/videos/S_comp_LA_A005_C009_PSNK_ALT_v09_SDR_PS_201809134_SDR_2K_AVC.mp4	0.0	93.7257468700409	0.058320045471191406
13	33.53073000907898	response	0	2		11.0	2.5	/experiments/knapen_aot/videos/S_comp_LA_A005_C009_PSNK_ALT_v09_SDR_PS_201809134_SDR_2K_AVC.mp4	0.0	93.77582001686096	
13	33.5389769077301	movie	1		168.0	11.0	2.5	/experiments/knapen_aot/videos/S_comp_LA_A005_C009_PSNK_ALT_v09_SDR_PS_201809134_SDR_2K_AVC.mp4	0.0	93.78406691551208	2.508384943008423
13	36.047361850738525	fix_post	2		12.0	11.0	2.5	/experiments/knapen_aot/videos/S_comp_LA_A005_C009_PSNK_ALT_v09_SDR_PS_201809134_SDR_2K_AVC.mp4	0.0	96.29245185852051	0.09998607635498047
14	36.147347927093506	fix_pre	0		7.0	12.0	2.5	/experiments/knapen_aot/videos/S_yt-zgimmOcW5Mc_127.mp4	0.0	96.39243793487549	0.06031608581542969
14	36.197505950927734	response	0	2		12.0	2.5	/experiments/knapen_aot/videos/S_yt-zgimmOcW5Mc_127.mp4	0.0	96.44259595870972	
14	36.207664012908936	movie	1		301.0	12.0	2.5	/experiments/knapen_aot/videos/S_yt-zgimmOcW5Mc_127.mp4	0.0	96.45275402069092	2.5063748359680176
14	38.71403884887695	fix_post	2		12.0	12.0	2.5	/experiments/knapen_aot/videos/S_yt-zgimmOcW5Mc_127.mp4	0.0	98.95912885665894	0.09994196891784668
15	38.8139808177948	fix_pre	0		13.0	13.0	2.5	/experiments/knapen_aot/videos/S_yt-kuzdrmHa-W0_39.mp4	0.0	99.05907082557678	0.10888504981994629
15	38.906601905822754	response	0	2		13.0	2.5	/experiments/knapen_aot/videos/S_yt-kuzdrmHa-W0_39.mp4	0.0	99.15169191360474	
15	38.922865867614746	movie	1		301.0	13.0	2.5	/experiments/knapen_aot/videos/S_yt-kuzdrmHa-W0_39.mp4	0.0	99.16795587539673	2.5077779293060303
15	41.430643796920776	fix_post	2		12.0	13.0	2.5	/experiments/knapen_aot/videos/S_yt-kuzdrmHa-W0_39.mp4	0.0	101.67573380470276	0.09999299049377441
16	41.53063678741455	fix_pre	0		18.0	14.0	2.5	blank	1.0	101.77572679519653	0.14998722076416016
16	41.67245578765869	response	0	2		14.0	2.5	blank	1.0	101.91754579544067	
16	41.68062400817871	movie	1		301.0	14.0	2.5	blank	1.0	101.9257140159607	2.5084118843078613
16	44.18903589248657	fix_post	2		12.0	14.0	2.5	blank	1.0	104.43412590026855	0.09992790222167969
17	44.28896379470825	fix_pre	0		17.0	15.0	2.5	/experiments/knapen_aot/videos/R_S_production_ID_4325585.mp4	0.0	104.53405380249023	0.14162611961364746
17	44.42241287231445	response	0	2		15.0	2.5	/experiments/knapen_aot/videos/R_S_production_ID_4325585.mp4	0.0	104.66750288009644	
17	44.4305899143219	movie	1		180.0	15.0	2.5	/experiments/knapen_aot/videos/R_S_production_ID_4325585.mp4	0.0	104.67567992210388	2.508405923843384
17	46.93899583816528	fix_post	2		12.0	15.0	2.5	/experiments/knapen_aot/videos/R_S_production_ID_4325585.mp4	0.0	107.18408584594727	0.09994697570800781
18	47.03894281387329	fix_pre	0		8.0	16.0	2.5	/experiments/knapen_aot/videos/R_S_pexels-anthony-shkraba-7569650.mp4	0.0	107.28403282165527	0.06668901443481445
18	47.09737992286682	response	0	2		16.0	2.5	/experiments/knapen_aot/videos/R_S_pexels-anthony-shkraba-7569650.mp4	0.0	107.3424699306488	
18	47.105631828308105	movie	1		185.0	16.0	2.5	/experiments/knapen_aot/videos/R_S_pexels-anthony-shkraba-7569650.mp4	0.0	107.35072183609009	2.508291006088257
18	49.61392283439636	fix_post	2		12.0	16.0	2.5	/experiments/knapen_aot/videos/R_S_pexels-anthony-shkraba-7569650.mp4	0.0	109.85901284217834	0.09986114501953125
19	49.713783979415894	fix_pre	0		20.0	17.0	2.5	/experiments/knapen_aot/videos/R_S_yt-_6j2NXrB-zE_28.mp4	0.0	109.95887398719788	0.16726994514465332
19	49.87242579460144	response	0	2		17.0	2.5	/experiments/knapen_aot/videos/R_S_yt-_6j2NXrB-zE_28.mp4	0.0	110.11751580238342	
19	49.88105392456055	movie	1		301.0	17.0	2.5	/experiments/knapen_aot/videos/R_S_yt-_6j2NXrB-zE_28.mp4	0.0	110.12614393234253	2.5077850818634033
19	52.38883900642395	fix_post	2		12.0	17.0	2.5	/experiments/knapen_aot/videos/R_S_yt-_6j2NXrB-zE_28.mp4	0.0	112.63392901420593	0.09999489784240723
20	52.48883390426636	fix_pre	0		28.0	18.0	2.5	/experiments/knapen_aot/videos/S_yt-a9bnYU0Gnxg_59.mp4	0.0	112.73392391204834	0.23335909843444824
20	52.714011907577515	response	0	2		18.0	2.5	/experiments/knapen_aot/videos/S_yt-a9bnYU0Gnxg_59.mp4	0.0	112.9591019153595	
20	52.722193002700806	movie	1		301.0	18.0	2.5	/experiments/knapen_aot/videos/S_yt-a9bnYU0Gnxg_59.mp4	0.0	112.96728301048279	2.5082919597625732
20	55.23048496246338	fix_post	2		12.0	18.0	2.5	/experiments/knapen_aot/videos/S_yt-a9bnYU0Gnxg_59.mp4	0.0	115.47557497024536	0.10017991065979004
21	55.33066487312317	fix_pre	0		12.0	19.0	2.5	blank	1.0	115.57575488090515	0.09985804557800293
21	55.422321796417236	response	0	2		19.0	2.5	blank	1.0	115.66741180419922	
21	55.43052291870117	movie	1		301.0	19.0	2.5	blank	1.0	115.67561292648315	2.508229970932007
21	57.93875288963318	fix_post	2		12.0	19.0	2.5	blank	1.0	118.18384289741516	0.1000509262084961
22	58.038803815841675	fix_pre	0		17.0	20.0	2.5	/experiments/knapen_aot/videos/S_ILSVRC2015_train_00219004.mp4	0.0	118.28389382362366	0.1417100429534912
22	58.17233681678772	response	0	2		20.0	2.5	/experiments/knapen_aot/videos/S_ILSVRC2015_train_00219004.mp4	0.0	118.4174268245697	
22	58.180513858795166	movie	1		301.0	20.0	2.5	/experiments/knapen_aot/videos/S_ILSVRC2015_train_00219004.mp4	0.0	118.42560386657715	2.5083000659942627
22	60.68881392478943	fix_post	2		12.0	20.0	2.5	/experiments/knapen_aot/videos/S_ILSVRC2015_train_00219004.mp4	0.0	120.93390393257141	0.0999748706817627
23	60.78878879547119	fix_pre	0		37.0	21.0	2.5	/experiments/knapen_aot/videos/S_ILSVRC2015_train_00599000.mp4	0.0	121.03387880325317	0.3083360195159912
23	61.08884286880493	response	0	2		21.0	2.5	/experiments/knapen_aot/videos/S_ILSVRC2015_train_00599000.mp4	0.0	121.33393287658691	
23	61.09712481498718	movie	1		301.0	21.0	2.5	/experiments/knapen_aot/videos/S_ILSVRC2015_train_00599000.mp4	0.0	121.34221482276917	2.50838303565979
23	63.60550785064697	fix_post	2		12.0	21.0	2.5	/experiments/knapen_aot/videos/S_ILSVRC2015_train_00599000.mp4	0.0	123.85059785842896	0.10001206398010254
24	63.705519914627075	fix_pre	0		28.0	22.0	2.5	/experiments/knapen_aot/videos/R_S_yt--OkafQ5VFHs_51.mp4	0.0	123.95060992240906	0.23325490951538086
24	63.930630922317505	response	0	2		22.0	2.5	/experiments/knapen_aot/videos/R_S_yt--OkafQ5VFHs_51.mp4	0.0	124.17572093009949	
24	63.938774824142456	movie	1		301.0	22.0	2.5	/experiments/knapen_aot/videos/R_S_yt--OkafQ5VFHs_51.mp4	0.0	124.18386483192444	2.508388042449951
24	66.44716286659241	fix_post	2		12.0	22.0	2.5	/experiments/knapen_aot/videos/R_S_yt--OkafQ5VFHs_51.mp4	0.0	126.69225287437439	0.09993600845336914
25	66.54709887504578	fix_pre	0		44.0	23.0	2.5	/experiments/knapen_aot/videos/S_yt-lv6mhnH7_g4_134.mp4	0.0	126.79218888282776	0.3666219711303711
25	66.90561699867249	response	0	2		23.0	2.5	/experiments/knapen_aot/videos/S_yt-lv6mhnH7_g4_134.mp4	0.0	127.15070700645447	
25	66.91372084617615	movie	1		300.0	23.0	2.5	/experiments/knapen_aot/videos/S_yt-lv6mhnH7_g4_134.mp4	0.0	127.15881085395813	2.5084149837493896
25	69.42213582992554	fix_post	2		12.0	23.0	2.5	/experiments/knapen_aot/videos/S_yt-lv6mhnH7_g4_134.mp4	0.0	129.66722583770752	0.09999203681945801
26	69.522127866745	fix_pre	0		34.0	24.0	2.5	/experiments/knapen_aot/videos/S_wc-TAGpcap1KdAS_212.mp4	0.0	129.76721787452698	0.28330302238464355
26	69.79732394218445	response	0	2		24.0	2.5	/experiments/knapen_aot/videos/S_wc-TAGpcap1KdAS_212.mp4	0.0	130.04241394996643	
26	69.80543088912964	movie	1		301.0	24.0	2.5	/experiments/knapen_aot/videos/S_wc-TAGpcap1KdAS_212.mp4	0.0	130.05052089691162	2.5083560943603516
26	72.31378698348999	fix_post	2		12.0	24.0	2.5	/experiments/knapen_aot/videos/S_wc-TAGpcap1KdAS_212.mp4	0.0	132.55887699127197	0.09996986389160156
27	72.41375684738159	fix_pre	0		15.0	25.0	2.5	/experiments/knapen_aot/videos/R_S_pexels-rodnae-productions-5993237.mp4	0.0	132.65884685516357	0.12496209144592285
27	72.5305597782135	response	0	2		25.0	2.5	/experiments/knapen_aot/videos/R_S_pexels-rodnae-productions-5993237.mp4	0.0	132.77564978599548	
27	72.53871893882751	movie	1		164.0	25.0	2.5	/experiments/knapen_aot/videos/R_S_pexels-rodnae-productions-5993237.mp4	0.0	132.7838089466095	2.5084259510040283
27	75.04714488983154	fix_post	2		12.0	25.0	2.5	/experiments/knapen_aot/videos/R_S_pexels-rodnae-productions-5993237.mp4	0.0	135.29223489761353	0.0999910831451416
28	75.14713597297668	fix_pre	0		28.0	26.0	2.5	/experiments/knapen_aot/videos/S_ILSVRC2015_train_00274003.mp4	0.0	135.39222598075867	0.23363995552062988
28	75.37230777740479	response	0	2		26.0	2.5	/experiments/knapen_aot/videos/S_ILSVRC2015_train_00274003.mp4	0.0	135.61739778518677	
28	75.38077592849731	movie	1		301.0	26.0	2.5	/experiments/knapen_aot/videos/S_ILSVRC2015_train_00274003.mp4	0.0	135.6258659362793	2.5079500675201416
28	77.88872599601746	fix_post	2		12.0	26.0	2.5	/experiments/knapen_aot/videos/S_ILSVRC2015_train_00274003.mp4	0.0	138.13381600379944	0.10001301765441895
29	77.98873901367188	fix_pre	0		32.0	27.0	2.5	/experiments/knapen_aot/videos/R_S_video_inspire_california_santa-barbara_050.1080-h264.mp4	0.0	138.23382902145386	0.26698780059814453
29	78.2471559047699	response	0	2		27.0	2.5	/experiments/knapen_aot/videos/R_S_video_inspire_california_santa-barbara_050.1080-h264.mp4	0.0	138.49224591255188	
29	78.25572681427002	movie	1		176.0	27.0	2.5	/experiments/knapen_aot/videos/R_S_video_inspire_california_santa-barbara_050.1080-h264.mp4	0.0	138.500816822052	2.507986068725586
29	80.7637128829956	fix_post	2		12.0	27.0	2.5	/experiments/knapen_aot/videos/R_S_video_inspire_california_santa-barbara_050.1080-h264.mp4	0.0	141.0088028907776	0.10005998611450195
30	80.86377286911011	fix_pre	0		8.0	28.0	2.5	blank	1.0	141.1088628768921	0.06667208671569824
30	80.92269277572632	response	0	2		28.0	2.5	blank	1.0	141.1677827835083	
30	80.9304449558258	movie	1		301.0	28.0	2.5	blank	1.0	141.1755349636078	2.5083858966827393
30	83.43883085250854	fix_post	2		12.0	28.0	2.5	blank	1.0	143.68392086029053	0.09993195533752441
31	83.53876280784607	fix_pre	0		18.0	29.0	2.5	/experiments/knapen_aot/videos/S_ILSVRC2015_train_00165013.mp4	0.0	143.78385281562805	0.14993500709533691
31	83.68050479888916	response	0	2		29.0	2.5	/experiments/knapen_aot/videos/S_ILSVRC2015_train_00165013.mp4	0.0	143.92559480667114	
31	83.6886978149414	movie	1		301.0	29.0	2.5	/experiments/knapen_aot/videos/S_ILSVRC2015_train_00165013.mp4	0.0	143.9337878227234	2.508310079574585
31	86.19700789451599	fix_post	2		12.0	29.0	2.5	/experiments/knapen_aot/videos/S_ILSVRC2015_train_00165013.mp4	0.0	146.44209790229797	0.10043096542358398
32	86.29743885993958	fix_pre	0		14.0	30.0	2.5	/experiments/knapen_aot/videos/R_S_PA_A002_C009_SDR_20190730_ALT01_SDR_2K_AVC.mp4	0.0	146.54252886772156	0.11619400978088379
32	86.40555691719055	response	0	2		30.0	2.5	/experiments/knapen_aot/videos/R_S_PA_A002_C009_SDR_20190730_ALT01_SDR_2K_AVC.mp4	0.0	146.65064692497253	
32	86.41363286972046	movie	1		172.0	30.0	2.5	/experiments/knapen_aot/videos/R_S_PA_A002_C009_SDR_20190730_ALT01_SDR_2K_AVC.mp4	0.0	146.65872287750244	2.5083580017089844
32	88.92199087142944	fix_post	2		12.0	30.0	2.5	/experiments/knapen_aot/videos/R_S_PA_A002_C009_SDR_20190730_ALT01_SDR_2K_AVC.mp4	0.0	149.16708087921143	0.10006213188171387
33	89.02205300331116	fix_pre	0		16.0	31.0	2.5	/experiments/knapen_aot/videos/S_pexels-mikhail-nilov-8410084.mp4	0.0	149.26714301109314	0.13331294059753418
33	89.14713096618652	response	0	2		31.0	2.5	/experiments/knapen_aot/videos/S_pexels-mikhail-nilov-8410084.mp4	0.0	149.3922209739685	
33	89.15536594390869	movie	1		167.0	31.0	2.5	/experiments/knapen_aot/videos/S_pexels-mikhail-nilov-8410084.mp4	0.0	149.40045595169067	2.5083439350128174
33	91.66370987892151	fix_post	2		12.0	31.0	2.5	/experiments/knapen_aot/videos/S_pexels-mikhail-nilov-8410084.mp4	0.0	151.9087998867035	0.10002708435058594
34	91.7637369632721	fix_pre	0		2.0	32.0	2.5	/experiments/knapen_aot/videos/S_ILSVRC2015_test_00001002.mp4	0.0	152.00882697105408	0.016705989837646484
34	91.7722978591919	response	0	2		32.0	2.5	/experiments/knapen_aot/videos/S_ILSVRC2015_test_00001002.mp4	0.0	152.01738786697388	
34	91.78044295310974	movie	1		301.0	32.0	2.5	/experiments/knapen_aot/videos/S_ILSVRC2015_test_00001002.mp4	0.0	152.02553296089172	2.508201837539673
34	94.28864479064941	fix_post	2		12.0	32.0	2.5	/experiments/knapen_aot/videos/S_ILSVRC2015_test_00001002.mp4	0.0	154.5337347984314	0.09998321533203125
35	94.38862800598145	fix_pre	0		40.0	33.0	2.5	blank	1.0	154.63371801376343	0.3333308696746826
35	94.713791847229	response	0	2		33.0	2.5	blank	1.0	154.958881855011	
35	94.72195887565613	movie	1		301.0	33.0	2.5	blank	1.0	154.9670488834381	2.508341073989868
35	97.230299949646	fix_post	2		12.0	33.0	2.5	blank	1.0	157.47538995742798	0.10004591941833496
36	97.33034586906433	fix_pre	0		10.0	34.0	2.5	/experiments/knapen_aot/videos/S_3WAnGcPubBY_179.mp4	0.0	157.5754358768463	0.08330202102661133
36	97.40540099143982	response	0	2		34.0	2.5	/experiments/knapen_aot/videos/S_3WAnGcPubBY_179.mp4	0.0	157.6504909992218	
36	97.41364789009094	movie	1		298.0	34.0	2.5	/experiments/knapen_aot/videos/S_3WAnGcPubBY_179.mp4	0.0	157.65873789787292	2.5083439350128174
36	99.86376595497131	response	1	2		34.0	2.5	/experiments/knapen_aot/videos/S_3WAnGcPubBY_179.mp4	0.0	160.1088559627533	
36	99.92199182510376	fix_post	2		12.0	34.0	2.5	/experiments/knapen_aot/videos/S_3WAnGcPubBY_179.mp4	0.0	160.16708183288574	0.09997797012329102
37	100.02196979522705	fix_pre	0		32.0	35.0	2.5	/experiments/knapen_aot/videos/R_S_yt-lv6mhnH7_g4_134.mp4	0.0	160.26705980300903	0.2666611671447754
37	100.2803418636322	response	0	2		35.0	2.5	/experiments/knapen_aot/videos/R_S_yt-lv6mhnH7_g4_134.mp4	0.0	160.52543187141418	
37	100.28863096237183	movie	1		301.0	35.0	2.5	/experiments/knapen_aot/videos/R_S_yt-lv6mhnH7_g4_134.mp4	0.0	160.5337209701538	2.5082528591156006
37	102.79688382148743	fix_post	2		12.0	35.0	2.5	/experiments/knapen_aot/videos/R_S_yt-lv6mhnH7_g4_134.mp4	0.0	163.0419738292694	0.10010004043579102
38	102.89698386192322	fix_pre	0		34.0	36.0	2.5	/experiments/knapen_aot/videos/S_cST9H3zu3zQ_126.mp4	0.0	163.1420738697052	0.2832200527191162
38	103.1721248626709	response	0	2		36.0	2.5	/experiments/knapen_aot/videos/S_cST9H3zu3zQ_126.mp4	0.0	163.41721487045288	
38	103.18020391464233	movie	1		298.0	36.0	2.5	/experiments/knapen_aot/videos/S_cST9H3zu3zQ_126.mp4	0.0	163.42529392242432	2.5084328651428223
38	105.68863677978516	fix_post	2		12.0	36.0	2.5	/experiments/knapen_aot/videos/S_cST9H3zu3zQ_126.mp4	0.0	165.93372678756714	0.10001015663146973
39	105.78864693641663	fix_pre	0		67.0	37.0	2.5	/experiments/knapen_aot/videos/R_S_yt--vHa85DHvLU_31.mp4	0.0	166.0337369441986	0.5582840442657471
39	106.33879685401917	response	0	2		37.0	2.5	/experiments/knapen_aot/videos/R_S_yt--vHa85DHvLU_31.mp4	0.0	166.58388686180115	
39	106.34693098068237	movie	1		301.0	37.0	2.5	/experiments/knapen_aot/videos/R_S_yt--vHa85DHvLU_31.mp4	0.0	166.59202098846436	2.50833797454834
39	108.85526895523071	fix_post	2		12.0	37.0	2.5	/experiments/knapen_aot/videos/R_S_yt--vHa85DHvLU_31.mp4	0.0	169.1003589630127	0.10000300407409668
40	108.95527195930481	fix_pre	0		15.0	38.0	2.5	/experiments/knapen_aot/videos/R_S_I005_C008_CROP_SDR_2K_AVC.mp4	0.0	169.2003619670868	0.12490987777709961
40	109.07202696800232	response	0	2		38.0	2.5	/experiments/knapen_aot/videos/R_S_I005_C008_CROP_SDR_2K_AVC.mp4	0.0	169.3171169757843	
40	109.08018183708191	movie	1		169.0	38.0	2.5	/experiments/knapen_aot/videos/R_S_I005_C008_CROP_SDR_2K_AVC.mp4	0.0	169.3252718448639	2.5087499618530273
40	111.58893179893494	fix_post	2		12.0	38.0	2.5	/experiments/knapen_aot/videos/R_S_I005_C008_CROP_SDR_2K_AVC.mp4	0.0	171.83402180671692	0.0996100902557373
41	111.68854188919067	fix_pre	0		31.0	39.0	2.5	/experiments/knapen_aot/videos/S_yt-BCFGCganiuE_8.mp4	0.0	171.93363189697266	0.2583649158477783
41	111.93863892555237	response	0	2		39.0	2.5	/experiments/knapen_aot/videos/S_yt-BCFGCganiuE_8.mp4	0.0	172.18372893333435	
41	111.94690680503845	movie	1		301.0	39.0	2.5	/experiments/knapen_aot/videos/S_yt-BCFGCganiuE_8.mp4	0.0	172.19199681282043	2.50835919380188
41	114.45526599884033	fix_post	2		12.0	39.0	2.5	/experiments/knapen_aot/videos/S_yt-BCFGCganiuE_8.mp4	0.0	174.70035600662231	0.09997987747192383
42	114.55524587631226	fix_pre	0		16.0	40.0	2.5	/experiments/knapen_aot/videos/R_S_yt-JTBXPfbkjsA_11.mp4	0.0	174.80033588409424	0.13335108757019043
42	114.68038988113403	response	0	2		40.0	2.5	/experiments/knapen_aot/videos/R_S_yt-JTBXPfbkjsA_11.mp4	0.0	174.92547988891602	
42	114.68859696388245	movie	1		299.0	40.0	2.5	/experiments/knapen_aot/videos/R_S_yt-JTBXPfbkjsA_11.mp4	0.0	174.93368697166443	2.5083370208740234
42	117.19693398475647	fix_post	2		12.0	40.0	2.5	/experiments/knapen_aot/videos/R_S_yt-JTBXPfbkjsA_11.mp4	0.0	177.44202399253845	0.10016894340515137
43	117.29710292816162	fix_pre	0		10.0	41.0	2.5	blank	1.0	177.5421929359436	0.08328986167907715
43	117.371994972229	response	0	2		41.0	2.5	blank	1.0	177.617084980011	
43	117.3803927898407	movie	1		301.0	41.0	2.5	blank	1.0	177.62548279762268	2.5081660747528076
43	119.8885588645935	fix_post	2		12.0	41.0	2.5	blank	1.0	180.1336488723755	0.09993696212768555
44	119.98849582672119	fix_pre	0		26.0	42.0	2.5	/experiments/knapen_aot/videos/R_S_bing-www_nytimes_com_video_dining_1247468118505_grilled-chicken-breasts-with-herb-butter_html_132.mp4	0.0	180.23358583450317	0.21662497520446777
44	120.19699788093567	response	0	2		42.0	2.5	/experiments/knapen_aot/videos/R_S_bing-www_nytimes_com_video_dining_1247468118505_grilled-chicken-breasts-with-herb-butter_html_132.mp4	0.0	180.44208788871765	
44	120.20512080192566	movie	1		167.0	42.0	2.5	/experiments/knapen_aot/videos/R_S_bing-www_nytimes_com_video_dining_1247468118505_grilled-chicken-breasts-with-herb-butter_html_132.mp4	0.0	180.45021080970764	2.5086209774017334
44	122.71374177932739	fix_post	2		12.0	42.0	2.5	/experiments/knapen_aot/videos/R_S_bing-www_nytimes_com_video_dining_1247468118505_grilled-chicken-breasts-with-herb-butter_html_132.mp4	0.0	182.95883178710938	0.09983110427856445
45	122.81357288360596	fix_pre	0		23.0	43.0	2.5	/experiments/knapen_aot/videos/S_yt-C0INfEJ4Awk_53.mp4	0.0	183.05866289138794	0.19177603721618652
45	122.9969789981842	response	0	2		43.0	2.5	/experiments/knapen_aot/videos/S_yt-C0INfEJ4Awk_53.mp4	0.0	183.2420690059662	
45	123.00534892082214	movie	1		301.0	43.0	2.5	/experiments/knapen_aot/videos/S_yt-C0INfEJ4Awk_53.mp4	0.0	183.25043892860413	2.5082030296325684
45	125.51355195045471	fix_post	2		12.0	43.0	2.5	/experiments/knapen_aot/videos/S_yt-C0INfEJ4Awk_53.mp4	0.0	185.7586419582367	0.09998297691345215
46	125.61353492736816	fix_pre	0		30.0	44.0	2.5	/experiments/knapen_aot/videos/S_yt-rPYBHkUEwwc_10.mp4	0.0	185.85862493515015	0.2499690055847168
46	125.8553478717804	response	0	2		44.0	2.5	/experiments/knapen_aot/videos/S_yt-rPYBHkUEwwc_10.mp4	0.0	186.10043787956238	
46	125.86350393295288	movie	1		301.0	44.0	2.5	/experiments/knapen_aot/videos/S_yt-rPYBHkUEwwc_10.mp4	0.0	186.10859394073486	2.5083580017089844
46	128.37186193466187	fix_post	2		12.0	44.0	2.5	/experiments/knapen_aot/videos/S_yt-rPYBHkUEwwc_10.mp4	0.0	188.61695194244385	0.09995698928833008
47	128.4718189239502	fix_pre	0		19.0	45.0	2.5	/experiments/knapen_aot/videos/R_S_yt-xSGPe0KemD4_384.mp4	0.0	188.71690893173218	0.15844297409057617
47	128.62188982963562	response	0	2		45.0	2.5	/experiments/knapen_aot/videos/R_S_yt-xSGPe0KemD4_384.mp4	0.0	188.8669798374176	
47	128.63026189804077	movie	1		301.0	45.0	2.5	/experiments/knapen_aot/videos/R_S_yt-xSGPe0KemD4_384.mp4	0.0	188.87535190582275	2.508254051208496
47	131.13851594924927	fix_post	2		12.0	45.0	2.5	/experiments/knapen_aot/videos/R_S_yt-xSGPe0KemD4_384.mp4	0.0	191.38360595703125	0.10001802444458008
48	131.23853397369385	fix_pre	0		17.0	46.0	2.5	/experiments/knapen_aot/videos/S_yt-1ruRqcfBMw0_21.mp4	0.0	191.48362398147583	0.14165592193603516
48	131.37190079689026	response	0	2		46.0	2.5	/experiments/knapen_aot/videos/S_yt-1ruRqcfBMw0_21.mp4	0.0	191.61699080467224	
48	131.38018989562988	movie	1		301.0	46.0	2.5	/experiments/knapen_aot/videos/S_yt-1ruRqcfBMw0_21.mp4	0.0	191.62527990341187	2.5083260536193848
48	133.88851594924927	fix_post	2		12.0	46.0	2.5	/experiments/knapen_aot/videos/S_yt-1ruRqcfBMw0_21.mp4	0.0	194.13360595703125	0.09995484352111816
49	133.98847079277039	fix_pre	0		40.0	47.0	2.5	/experiments/knapen_aot/videos/R_S_yt-bH4nJibL4Jo_164.mp4	0.0	194.23356080055237	0.3332960605621338
49	134.31356000900269	response	0	2		47.0	2.5	/experiments/knapen_aot/videos/R_S_yt-bH4nJibL4Jo_164.mp4	0.0	194.55865001678467	
49	134.32176685333252	movie	1		301.0	47.0	2.5	/experiments/knapen_aot/videos/R_S_yt-bH4nJibL4Jo_164.mp4	0.0	194.5668568611145	2.5083730220794678
49	136.830139875412	fix_post	2		12.0	47.0	2.5	/experiments/knapen_aot/videos/R_S_yt-bH4nJibL4Jo_164.mp4	0.0	197.07522988319397	0.09998297691345215
50	136.93012285232544	fix_pre	0		24.0	48.0	2.5	blank	1.0	197.17521286010742	0.20005202293395996
50	137.1144299507141	response	0	2		48.0	2.5	blank	1.0	197.3595199584961	
50	137.1301748752594	movie	1		301.0	48.0	2.5	blank	1.0	197.37526488304138	2.5082850456237793
50	139.63845992088318	fix_post	2		12.0	48.0	2.5	blank	1.0	199.88354992866516	0.09997391700744629
51	139.73843383789062	fix_pre	0		21.0	49.0	2.5	/experiments/knapen_aot/videos/R_S_yt-kawmL3oVw8c_2.mp4	0.0	199.9835238456726	0.17499709129333496
51	139.9052438735962	response	0	2		49.0	2.5	/experiments/knapen_aot/videos/R_S_yt-kawmL3oVw8c_2.mp4	0.0	200.15033388137817	
51	139.91343092918396	movie	1		300.0	49.0	2.5	/experiments/knapen_aot/videos/R_S_yt-kawmL3oVw8c_2.mp4	0.0	200.15852093696594	2.508384943008423
51	142.42181587219238	fix_post	2		12.0	49.0	2.5	/experiments/knapen_aot/videos/R_S_yt-kawmL3oVw8c_2.mp4	0.0	202.66690587997437	0.09991908073425293
52	142.52173495292664	fix_pre	0		27.0	50.0	2.5	/experiments/knapen_aot/videos/S_yt-zlbtESb7Fcw_28.mp4	0.0	202.76682496070862	0.2250049114227295
52	142.73106288909912	response	0	2		50.0	2.5	/experiments/knapen_aot/videos/S_yt-zlbtESb7Fcw_28.mp4	0.0	202.9761528968811	
52	142.74673986434937	movie	1		301.0	50.0	2.5	/experiments/knapen_aot/videos/S_yt-zlbtESb7Fcw_28.mp4	0.0	202.99182987213135	2.5083630084991455
52	145.2551028728485	fix_post	2		12.0	50.0	2.5	/experiments/knapen_aot/videos/S_yt-zlbtESb7Fcw_28.mp4	0.0	205.5001928806305	0.09994912147521973
53	145.35505199432373	fix_pre	0		12.0	51.0	2.5	/experiments/knapen_aot/videos/S_yt--OkafQ5VFHs_51.mp4	0.0	205.6001420021057	0.09994196891784668
53	145.44690084457397	response	0	2		51.0	2.5	/experiments/knapen_aot/videos/S_yt--OkafQ5VFHs_51.mp4	0.0	205.69199085235596	
53	145.45499396324158	movie	1		301.0	51.0	2.5	/experiments/knapen_aot/videos/S_yt--OkafQ5VFHs_51.mp4	0.0	205.70008397102356	2.508415937423706
53	147.96340990066528	fix_post	2		12.0	51.0	2.5	/experiments/knapen_aot/videos/S_yt--OkafQ5VFHs_51.mp4	0.0	208.20849990844727	0.10003209114074707
54	148.06344199180603	fix_pre	0		13.0	52.0	2.5	/experiments/knapen_aot/videos/R_S_yt-3ohvpS42xug_184.mp4	0.0	208.308531999588	0.10830378532409668
54	148.16360878944397	response	0	2		52.0	2.5	/experiments/knapen_aot/videos/R_S_yt-3ohvpS42xug_184.mp4	0.0	208.40869879722595	
54	148.17174577713013	movie	1		301.0	52.0	2.5	/experiments/knapen_aot/videos/R_S_yt-3ohvpS42xug_184.mp4	0.0	208.4168357849121	2.508366107940674
54	150.6801118850708	fix_post	2		12.0	52.0	2.5	/experiments/knapen_aot/videos/R_S_yt-3ohvpS42xug_184.mp4	0.0	210.92520189285278	0.0999140739440918
55	150.7800259590149	fix_pre	0		36.0	53.0	2.5	/experiments/knapen_aot/videos/S_yt-JmmyeMOFpII_29.mp4	0.0	211.02511596679688	0.30139589309692383
55	151.0720338821411	response	0	2		53.0	2.5	/experiments/knapen_aot/videos/S_yt-JmmyeMOFpII_29.mp4	0.0	211.3171238899231	
55	151.08142185211182	movie	1		301.0	53.0	2.5	/experiments/knapen_aot/videos/S_yt-JmmyeMOFpII_29.mp4	0.0	211.3265118598938	2.5069589614868164
55	153.58838081359863	fix_post	2		12.0	53.0	2.5	/experiments/knapen_aot/videos/S_yt-JmmyeMOFpII_29.mp4	0.0	213.83347082138062	0.10004806518554688
56	153.68842887878418	fix_pre	0		22.0	54.0	2.5	/experiments/knapen_aot/videos/R_S_yt-SkIJvj6KNOo_33.mp4	0.0	213.93351888656616	0.18329811096191406
56	153.8634979724884	response	0	2		54.0	2.5	/experiments/knapen_aot/videos/R_S_yt-SkIJvj6KNOo_33.mp4	0.0	214.10858798027039	
56	153.8717269897461	movie	1		300.0	54.0	2.5	/experiments/knapen_aot/videos/R_S_yt-SkIJvj6KNOo_33.mp4	0.0	214.11681699752808	2.508344888687134
56	156.38007187843323	fix_post	2		12.0	54.0	2.5	/experiments/knapen_aot/videos/R_S_yt-SkIJvj6KNOo_33.mp4	0.0	216.6251618862152	0.10012698173522949
57	156.48019886016846	fix_pre	0		26.0	55.0	2.5	blank	1.0	216.72528886795044	0.21647000312805176
57	156.6885039806366	response	0	2		55.0	2.5	blank	1.0	216.93359398841858	
57	156.6966688632965	movie	1		301.0	55.0	2.5	blank	1.0	216.9417588710785	2.508432149887085
57	159.2051010131836	fix_post	2		12.0	55.0	2.5	blank	1.0	219.45019102096558	0.09988784790039062
58	159.30498886108398	fix_pre	0		32.0	56.0	2.5	/experiments/knapen_aot/videos/R_S_comp_A050_C004_1027V8_v16_SDR_FINAL_20180706_SDR_2K_AVC.mp4	0.0	219.55007886886597	0.26671504974365234
58	159.5634298324585	response	0	2		56.0	2.5	/experiments/knapen_aot/videos/R_S_comp_A050_C004_1027V8_v16_SDR_FINAL_20180706_SDR_2K_AVC.mp4	0.0	219.80851984024048	
58	159.57170391082764	movie	1		169.0	56.0	2.5	/experiments/knapen_aot/videos/R_S_comp_A050_C004_1027V8_v16_SDR_FINAL_20180706_SDR_2K_AVC.mp4	0.0	219.81679391860962	2.508378028869629
58	162.08008193969727	fix_post	2		12.0	56.0	2.5	/experiments/knapen_aot/videos/R_S_comp_A050_C004_1027V8_v16_SDR_FINAL_20180706_SDR_2K_AVC.mp4	0.0	222.32517194747925	0.0999748706817627
58	162.09689688682556	response	2	2		56.0	2.5	/experiments/knapen_aot/videos/R_S_comp_A050_C004_1027V8_v16_SDR_FINAL_20180706_SDR_2K_AVC.mp4	0.0	222.34198689460754	
59	162.18005681037903	fix_pre	0		39.0	57.0	2.5	/experiments/knapen_aot/videos/R_S_production_ID_3927047.mp4	0.0	222.425146818161	0.3250081539154053
59	162.49678492546082	response	0	2		57.0	2.5	/experiments/knapen_aot/videos/R_S_production_ID_3927047.mp4	0.0	222.7418749332428	
59	162.50506496429443	movie	1		180.0	57.0	2.5	/experiments/knapen_aot/videos/R_S_production_ID_3927047.mp4	0.0	222.75015497207642	2.508265972137451
59	165.01333093643188	fix_post	2		12.0	57.0	2.5	/experiments/knapen_aot/videos/R_S_production_ID_3927047.mp4	0.0	225.25842094421387	0.10001397132873535
60	165.11334490776062	fix_pre	0		35.0	58.0	2.5	/experiments/knapen_aot/videos/S_yt-zam74qlzGtQ_122.mp4	0.0	225.3584349155426	0.29164695739746094
60	165.39679980278015	response	0	2		58.0	2.5	/experiments/knapen_aot/videos/S_yt-zam74qlzGtQ_122.mp4	0.0	225.64188981056213	
60	165.40499186515808	movie	1		301.0	58.0	2.5	/experiments/knapen_aot/videos/S_yt-zam74qlzGtQ_122.mp4	0.0	225.65008187294006	2.5083069801330566
60	167.91329884529114	fix_post	2		12.0	58.0	2.5	/experiments/knapen_aot/videos/S_yt-zam74qlzGtQ_122.mp4	0.0	228.15838885307312	0.09994006156921387
61	168.01323890686035	fix_pre	0		28.0	59.0	2.5	/experiments/knapen_aot/videos/S_comp_A050_C004_1027V8_v16_SDR_FINAL_20180706_SDR_2K_AVC.mp4	0.0	228.25832891464233	0.23467302322387695
61	168.23839688301086	response	0	2		59.0	2.5	/experiments/knapen_aot/videos/S_comp_A050_C004_1027V8_v16_SDR_FINAL_20180706_SDR_2K_AVC.mp4	0.0	228.48348689079285	
61	168.24791193008423	movie	1		169.0	59.0	2.5	/experiments/knapen_aot/videos/S_comp_A050_C004_1027V8_v16_SDR_FINAL_20180706_SDR_2K_AVC.mp4	0.0	228.4930019378662	2.5071449279785156
61	170.75505685806274	fix_post	2		12.0	59.0	2.5	/experiments/knapen_aot/videos/S_comp_A050_C004_1027V8_v16_SDR_FINAL_20180706_SDR_2K_AVC.mp4	0.0	231.00014686584473	0.09995603561401367
61	170.8135118484497	response	2	2		59.0	2.5	/experiments/knapen_aot/videos/S_comp_A050_C004_1027V8_v16_SDR_FINAL_20180706_SDR_2K_AVC.mp4	0.0	231.0586018562317	
62	170.85501289367676	fix_pre	0		36.0	60.0	2.5	/experiments/knapen_aot/videos/S_comp_A050_C004_1027V8_v16_SDR_FINAL_20180706_SDR_2K_AVC.mp4	0.0	231.10010290145874	0.30002903938293457
62	171.1467249393463	response	0	2		60.0	2.5	/experiments/knapen_aot/videos/S_comp_A050_C004_1027V8_v16_SDR_FINAL_20180706_SDR_2K_AVC.mp4	0.0	231.3918149471283	
62	171.1550419330597	movie	1		169.0	60.0	2.5	/experiments/knapen_aot/videos/S_comp_A050_C004_1027V8_v16_SDR_FINAL_20180706_SDR_2K_AVC.mp4	0.0	231.40013194084167	2.5083138942718506
62	173.66335582733154	fix_post	2		12.0	60.0	2.5	/experiments/knapen_aot/videos/S_comp_A050_C004_1027V8_v16_SDR_FINAL_20180706_SDR_2K_AVC.mp4	0.0	233.90844583511353	0.09998297691345215
63	173.763338804245	fix_pre	0		18.0	61.0	2.5	/experiments/knapen_aot/videos/R_S_yt-bhiGMKSAz2g_370.mp4	0.0	234.00842881202698	0.14999008178710938
63	173.9051218032837	response	0	2		61.0	2.5	/experiments/knapen_aot/videos/R_S_yt-bhiGMKSAz2g_370.mp4	0.0	234.15021181106567	
63	173.9133288860321	movie	1		301.0	61.0	2.5	/experiments/knapen_aot/videos/R_S_yt-bhiGMKSAz2g_370.mp4	0.0	234.1584188938141	2.508349895477295
63	176.4216787815094	fix_post	2		12.0	61.0	2.5	/experiments/knapen_aot/videos/R_S_yt-bhiGMKSAz2g_370.mp4	0.0	236.66676878929138	0.09998512268066406
64	176.52166390419006	fix_pre	0		21.0	62.0	2.5	/experiments/knapen_aot/videos/R_S_yt-sTBOjPxix5c_1072.mp4	0.0	236.76675391197205	0.17496395111083984
64	176.68849301338196	response	0	2		62.0	2.5	/experiments/knapen_aot/videos/R_S_yt-sTBOjPxix5c_1072.mp4	0.0	236.93358302116394	
64	176.6966278553009	movie	1		301.0	62.0	2.5	/experiments/knapen_aot/videos/R_S_yt-sTBOjPxix5c_1072.mp4	0.0	236.94171786308289	2.508358955383301
64	179.2049868106842	fix_post	2		12.0	62.0	2.5	/experiments/knapen_aot/videos/R_S_yt-sTBOjPxix5c_1072.mp4	0.0	239.4500768184662	0.09996414184570312
65	179.3049509525299	fix_pre	0		27.0	63.0	2.5	blank	1.0	239.5500409603119	0.22504305839538574
65	179.5141978263855	response	0	2		63.0	2.5	blank	1.0	239.75928783416748	
65	179.5299940109253	movie	1		301.0	63.0	2.5	blank	1.0	239.77508401870728	2.508302927017212
65	182.0382969379425	fix_post	2		12.0	63.0	2.5	blank	1.0	242.2833869457245	0.1000058650970459
66	182.13830280303955	fix_pre	0		35.0	64.0	2.5	/experiments/knapen_aot/videos/R_S_yt-JTBXPfbkjsA_11.mp4	0.0	242.38339281082153	0.29167699813842773
66	182.42178177833557	response	0	2		64.0	2.5	/experiments/knapen_aot/videos/R_S_yt-JTBXPfbkjsA_11.mp4	0.0	242.66687178611755	
66	182.42997980117798	movie	1		301.0	64.0	2.5	/experiments/knapen_aot/videos/R_S_yt-JTBXPfbkjsA_11.mp4	0.0	242.67506980895996	2.508291006088257
66	184.93827080726624	fix_post	2		12.0	64.0	2.5	/experiments/knapen_aot/videos/R_S_yt-JTBXPfbkjsA_11.mp4	0.0	245.18336081504822	0.09988999366760254
67	185.03816080093384	fix_pre	0		13.0	65.0	2.5	/experiments/knapen_aot/videos/S_yt-vQ-rd-1gwH4_238.mp4	0.0	245.28325080871582	0.10833120346069336
67	185.13837480545044	response	0	2		65.0	2.5	/experiments/knapen_aot/videos/S_yt-vQ-rd-1gwH4_238.mp4	0.0	245.38346481323242	
67	185.14649200439453	movie	1		301.0	65.0	2.5	/experiments/knapen_aot/videos/S_yt-vQ-rd-1gwH4_238.mp4	0.0	245.3915820121765	2.5084009170532227
67	187.65489292144775	fix_post	2		12.0	65.0	2.5	/experiments/knapen_aot/videos/S_yt-vQ-rd-1gwH4_238.mp4	0.0	247.89998292922974	0.09998393058776855
68	187.75487685203552	fix_pre	0		21.0	66.0	2.5	/experiments/knapen_aot/videos/S_production_ID_4124475.mp4	0.0	247.9999668598175	0.17503094673156738
68	187.92172288894653	response	0	2		66.0	2.5	/experiments/knapen_aot/videos/S_production_ID_4124475.mp4	0.0	248.16681289672852	
68	187.9299077987671	movie	1		167.0	66.0	2.5	/experiments/knapen_aot/videos/S_production_ID_4124475.mp4	0.0	248.17499780654907	2.508350133895874
68	190.43825793266296	fix_post	2		12.0	66.0	2.5	/experiments/knapen_aot/videos/S_production_ID_4124475.mp4	0.0	250.68334794044495	0.09994196891784668
69	190.5381999015808	fix_pre	0		23.0	67.0	2.5	/experiments/knapen_aot/videos/S_pexels-koolshooters-7691440.mp4	0.0	250.7832899093628	0.19170403480529785
69	190.7140998840332	response	0	2		67.0	2.5	/experiments/knapen_aot/videos/S_pexels-koolshooters-7691440.mp4	0.0	250.95918989181519	
69	190.7299039363861	movie	1		167.0	67.0	2.5	/experiments/knapen_aot/videos/S_pexels-koolshooters-7691440.mp4	0.0	250.9749939441681	2.5083398818969727
69	193.23824381828308	fix_post	2		12.0	67.0	2.5	/experiments/knapen_aot/videos/S_pexels-koolshooters-7691440.mp4	0.0	253.48333382606506	0.09997797012329102
70	193.33822178840637	fix_pre	0		43.0	68.0	2.5	blank	1.0	253.58331179618835	0.3583550453186035
70	193.68068480491638	response	0	2		68.0	2.5	blank	1.0	253.92577481269836	
70	193.69657683372498	movie	1		301.0	68.0	2.5	blank	1.0	253.94166684150696	2.5083131790161133
70	196.2048900127411	fix_post	2		12.0	68.0	2.5	blank	1.0	256.44998002052307	0.0999457836151123
71	196.3048357963562	fix_pre	0		27.0	69.0	2.5	/experiments/knapen_aot/videos/S_production_ID_4325585.mp4	0.0	256.5499258041382	0.22499299049377441
71	196.52167892456055	response	0	2		69.0	2.5	/experiments/knapen_aot/videos/S_production_ID_4325585.mp4	0.0	256.76676893234253	
71	196.52982878684998	movie	1		195.0	69.0	2.5	/experiments/knapen_aot/videos/S_production_ID_4325585.mp4	0.0	256.77491879463196	2.5083560943603516
71	199.03818488121033	fix_post	2		12.0	69.0	2.5	/experiments/knapen_aot/videos/S_production_ID_4325585.mp4	0.0	259.2832748889923	0.0999290943145752
72	199.1381139755249	fix_pre	0		42.0	70.0	2.5	/experiments/knapen_aot/videos/S_ILSVRC2015_train_00371012.mp4	0.0	259.3832039833069	0.3500659465789795
72	199.47999382019043	response	0	2		70.0	2.5	/experiments/knapen_aot/videos/S_ILSVRC2015_train_00371012.mp4	0.0	259.7250838279724	
72	199.48817992210388	movie	1		301.0	70.0	2.5	/experiments/knapen_aot/videos/S_ILSVRC2015_train_00371012.mp4	0.0	259.73326992988586	2.508312940597534
72	201.99649286270142	fix_post	2		12.0	70.0	2.5	/experiments/knapen_aot/videos/S_ILSVRC2015_train_00371012.mp4	0.0	262.2415828704834	0.09998011589050293
73	202.09647297859192	fix_pre	0		21.0	71.0	2.5	/experiments/knapen_aot/videos/S_I005_C008_CROP_SDR_2K_AVC.mp4	0.0	262.3415629863739	0.17502284049987793
73	202.2557029724121	response	0	2		71.0	2.5	/experiments/knapen_aot/videos/S_I005_C008_CROP_SDR_2K_AVC.mp4	0.0	262.5007929801941	
73	202.2714958190918	movie	1		168.0	71.0	2.5	/experiments/knapen_aot/videos/S_I005_C008_CROP_SDR_2K_AVC.mp4	0.0	262.5165858268738	2.508226156234741
73	204.77972197532654	fix_post	2		12.0	71.0	2.5	/experiments/knapen_aot/videos/S_I005_C008_CROP_SDR_2K_AVC.mp4	0.0	265.0248119831085	0.10008502006530762
74	204.87980699539185	fix_pre	0		24.0	72.0	2.5	/experiments/knapen_aot/videos/R_S_yt-IyxCMODHSSE_29.mp4	0.0	265.1248970031738	0.20106792449951172
74	205.07156682014465	response	0	2		72.0	2.5	/experiments/knapen_aot/videos/R_S_yt-IyxCMODHSSE_29.mp4	0.0	265.31665682792664	
74	205.08087491989136	movie	1		301.0	72.0	2.5	/experiments/knapen_aot/videos/R_S_yt-IyxCMODHSSE_29.mp4	0.0	265.32596492767334	2.507288932800293
74	207.58816385269165	fix_post	2		12.0	72.0	2.5	/experiments/knapen_aot/videos/R_S_yt-IyxCMODHSSE_29.mp4	0.0	267.83325386047363	0.09992504119873047
75	207.68808889389038	fix_pre	0		44.0	73.0	2.5	/experiments/knapen_aot/videos/R_S_yt-r7brAHgxZSU_248.mp4	0.0	267.93317890167236	0.36667895317077637
75	208.04660296440125	response	0	2		73.0	2.5	/experiments/knapen_aot/videos/R_S_yt-r7brAHgxZSU_248.mp4	0.0	268.2916929721832	
75	208.05476784706116	movie	1		301.0	73.0	2.5	/experiments/knapen_aot/videos/R_S_yt-r7brAHgxZSU_248.mp4	0.0	268.29985785484314	2.5083091259002686
75	210.56307697296143	fix_post	2		12.0	73.0	2.5	/experiments/knapen_aot/videos/R_S_yt-r7brAHgxZSU_248.mp4	0.0	270.8081669807434	0.09999585151672363
76	210.66307282447815	fix_pre	0		24.0	74.0	2.5	/experiments/knapen_aot/videos/S_video_inspire_california_big-sur_bixby_005.1080-h264.mp4	0.0	270.90816283226013	0.20000600814819336
76	210.85492992401123	response	0	2		74.0	2.5	/experiments/knapen_aot/videos/S_video_inspire_california_big-sur_bixby_005.1080-h264.mp4	0.0	271.1000199317932	
76	210.86307883262634	movie	1		169.0	74.0	2.5	/experiments/knapen_aot/videos/S_video_inspire_california_big-sur_bixby_005.1080-h264.mp4	0.0	271.1081688404083	2.5083229541778564
76	213.3714017868042	fix_post	2		12.0	74.0	2.5	/experiments/knapen_aot/videos/S_video_inspire_california_big-sur_bixby_005.1080-h264.mp4	0.0	273.6164917945862	0.10001301765441895
77	213.47141480445862	fix_pre	0		58.0	75.0	2.5	/experiments/knapen_aot/videos/R_S_ILSVRC2015_train_00463000.mp4	0.0	273.7165048122406	0.48443102836608887
77	213.94656991958618	response	0	2		75.0	2.5	/experiments/knapen_aot/videos/R_S_ILSVRC2015_train_00463000.mp4	0.0	274.19165992736816	
77	213.9558458328247	movie	1		301.0	75.0	2.5	/experiments/knapen_aot/videos/R_S_ILSVRC2015_train_00463000.mp4	0.0	274.2009358406067	2.507220983505249
77	216.46306681632996	fix_post	2		12.0	75.0	2.5	/experiments/knapen_aot/videos/R_S_ILSVRC2015_train_00463000.mp4	0.0	276.70815682411194	0.09999299049377441
78	216.56305980682373	fix_pre	0		25.0	76.0	2.5	blank	1.0	276.8081498146057	0.20837998390197754
78	216.76320886611938	response	0	2		76.0	2.5	blank	1.0	277.00829887390137	
78	216.7714397907257	movie	1		301.0	76.0	2.5	blank	1.0	277.0165297985077	2.508296012878418
78	219.27973580360413	fix_post	2		12.0	76.0	2.5	blank	1.0	279.5248258113861	0.09995317459106445
79	219.3796889781952	fix_pre	0		46.0	77.0	2.5	/experiments/knapen_aot/videos/R_S_yt-ZzC953ahaxs_195.mp4	0.0	279.6247789859772	0.3833479881286621
79	219.75485181808472	response	0	2		77.0	2.5	/experiments/knapen_aot/videos/R_S_yt-ZzC953ahaxs_195.mp4	0.0	279.9999418258667	
79	219.76303696632385	movie	1		301.0	77.0	2.5	/experiments/knapen_aot/videos/R_S_yt-ZzC953ahaxs_195.mp4	0.0	280.00812697410583	2.5083439350128174
79	222.27138090133667	fix_post	2		12.0	77.0	2.5	/experiments/knapen_aot/videos/R_S_yt-ZzC953ahaxs_195.mp4	0.0	282.51647090911865	0.09997296333312988
80	222.3713538646698	fix_pre	0		34.0	78.0	2.5	/experiments/knapen_aot/videos/S_yt-JTBXPfbkjsA_11.mp4	0.0	282.6164438724518	0.28336095809936523
80	222.6465198993683	response	0	2		78.0	2.5	/experiments/knapen_aot/videos/S_yt-JTBXPfbkjsA_11.mp4	0.0	282.89160990715027	
80	222.65471482276917	movie	1		299.0	78.0	2.5	/experiments/knapen_aot/videos/S_yt-JTBXPfbkjsA_11.mp4	0.0	282.89980483055115	2.508355140686035
80	225.1630699634552	fix_post	2		12.0	78.0	2.5	/experiments/knapen_aot/videos/S_yt-JTBXPfbkjsA_11.mp4	0.0	285.4081599712372	0.09997081756591797
81	225.26304078102112	fix_pre	0		24.0	79.0	2.5	/experiments/knapen_aot/videos/S_yt-sTBOjPxix5c_1072.mp4	0.0	285.5081307888031	0.199951171875
81	225.45488691329956	response	0	2		79.0	2.5	/experiments/knapen_aot/videos/S_yt-sTBOjPxix5c_1072.mp4	0.0	285.69997692108154	
81	225.46299195289612	movie	1		301.0	79.0	2.5	/experiments/knapen_aot/videos/S_yt-sTBOjPxix5c_1072.mp4	0.0	285.7080819606781	2.508342981338501
81	227.97133493423462	fix_post	2		12.0	79.0	2.5	/experiments/knapen_aot/videos/S_yt-sTBOjPxix5c_1072.mp4	0.0	288.2164249420166	0.0999898910522461
82	228.07132482528687	fix_pre	0		48.0	80.0	2.5	/experiments/knapen_aot/videos/S_production_ID_4325585.mp4	0.0	288.31641483306885	0.4000120162963867
82	228.46315789222717	response	0	2		80.0	2.5	/experiments/knapen_aot/videos/S_production_ID_4325585.mp4	0.0	288.70824790000916	
82	228.47133684158325	movie	1		192.0	80.0	2.5	/experiments/knapen_aot/videos/S_production_ID_4325585.mp4	0.0	288.71642684936523	2.5082969665527344
82	230.979633808136	fix_post	2		12.0	80.0	2.5	/experiments/knapen_aot/videos/S_production_ID_4325585.mp4	0.0	291.22472381591797	0.10007405281066895
83	231.07970786094666	fix_pre	0		20.0	81.0	2.5	/experiments/knapen_aot/videos/R_S_yt-y6zr69M0yHI_76.mp4	0.0	291.32479786872864	0.16764092445373535
83	231.23812699317932	response	0	2		81.0	2.5	/experiments/knapen_aot/videos/R_S_yt-y6zr69M0yHI_76.mp4	0.0	291.4832170009613	
83	231.2473487854004	movie	1		300.0	81.0	2.5	/experiments/knapen_aot/videos/R_S_yt-y6zr69M0yHI_76.mp4	0.0	291.4924387931824	2.5073800086975098
83	233.7547287940979	fix_post	2		12.0	81.0	2.5	/experiments/knapen_aot/videos/R_S_yt-y6zr69M0yHI_76.mp4	0.0	293.9998188018799	0.09990715980529785
84	233.8546359539032	fix_pre	0		20.0	82.0	2.5	/experiments/knapen_aot/videos/S_video-8.mp4	0.0	294.0997259616852	0.166611909866333
84	234.01318383216858	response	0	2		82.0	2.5	/experiments/knapen_aot/videos/S_video-8.mp4	0.0	294.25827383995056	
84	234.02124786376953	movie	1		196.0	82.0	2.5	/experiments/knapen_aot/videos/S_video-8.mp4	0.0	294.2663378715515	2.508474111557007
84	236.52972197532654	fix_post	2		12.0	82.0	2.5	/experiments/knapen_aot/videos/S_video-8.mp4	0.0	296.7748119831085	0.09994792938232422
85	236.62966990470886	fix_pre	0		15.0	83.0	2.5	blank	1.0	296.87475991249084	0.12493395805358887
85	236.74648094177246	response	0	2		83.0	2.5	blank	1.0	296.99157094955444	
85	236.75460386276245	movie	1		301.0	83.0	2.5	blank	1.0	296.99969387054443	2.508397102355957
85	239.2630009651184	fix_post	2		12.0	83.0	2.5	blank	1.0	299.5080909729004	0.10002684593200684
87	239.36302781105042	stim	0		121.0					299.6081178188324	1.0092201232910156
87	239.5130968093872	response	0	2						299.7581868171692	
87	240.3653588294983	response	0	space						300.6104488372803	
