trial_nr	onset	event_type	phase	response	nr_frames	movie_index	movie_duration	movie_file	blank	onset_abs	duration
0	0.12488389015197754	stim	0		22.0					75.910160779953	0.18352508544921875
0	0.30008578300476074	response	0	space						76.08536267280579	
1	0.3084089756011963	stim	0		121.0					76.09368586540222	1.0082428455352783
1	1.2165699005126953	response	0	space						77.00184679031372	
1	1.3166518211364746	stim	1		120.0					77.1019287109375	0.999575138092041
1	1.525000810623169	response	1	space						77.3102777004242	
2	2.3162269592285156	fix_pre	0		10.0	0.0	2.5	/experiments/knapen_aot/videos/R_S_yt-9mWz93En7Gw_97.mp4	0.0	78.10150384902954	0.08334803581237793
2	2.3913729190826416	response	0	space		0.0	2.5	/experiments/knapen_aot/videos/R_S_yt-9mWz93En7Gw_97.mp4	0.0	78.17664980888367	
2	2.3995749950408936	movie	1		300.0	0.0	2.5	/experiments/knapen_aot/videos/R_S_yt-9mWz93En7Gw_97.mp4	0.0	78.18485188484192	2.508297920227051
2	4.907872915267944	fix_post	2		12.0	0.0	2.5	/experiments/knapen_aot/videos/R_S_yt-9mWz93En7Gw_97.mp4	0.0	80.69314980506897	0.10003805160522461
3	5.007910966873169	fix_pre	0		54.0	1.0	2.5	/experiments/knapen_aot/videos/S_yt-w_e3sxIzepA_115.mp4	0.0	80.7931878566742	0.45254087448120117
3	5.454187870025635	response	0	2		1.0	2.5	/experiments/knapen_aot/videos/S_yt-w_e3sxIzepA_115.mp4	0.0	81.23946475982666	
3	5.46045184135437	movie	1		299.0	1.0	2.5	/experiments/knapen_aot/videos/S_yt-w_e3sxIzepA_115.mp4	0.0	81.2457287311554	2.505730152130127
3	7.966181993484497	fix_post	2		12.0	1.0	2.5	/experiments/knapen_aot/videos/S_yt-w_e3sxIzepA_115.mp4	0.0	83.75145888328552	0.10003089904785156
4	8.066212892532349	fix_pre	0		64.0	2.0	2.5	/experiments/knapen_aot/videos/R_S_production_ID_4510622.mp4	0.0	83.85148978233337	0.5332620143890381
4	8.583756923675537	response	0	2		2.0	2.5	/experiments/knapen_aot/videos/R_S_production_ID_4510622.mp4	0.0	84.36903381347656	
4	8.599474906921387	movie	1		165.0	2.0	2.5	/experiments/knapen_aot/videos/R_S_production_ID_4510622.mp4	0.0	84.38475179672241	2.508394956588745
4	11.107869863510132	fix_post	2		12.0	2.0	2.5	/experiments/knapen_aot/videos/R_S_production_ID_4510622.mp4	0.0	86.89314675331116	0.09998703002929688
5	11.207856893539429	fix_pre	0		72.0	3.0	2.5	/experiments/knapen_aot/videos/S_yt-Y3pi1bgUwIg_78.mp4	0.0	86.99313378334045	0.5999479293823242
5	11.799597978591919	response	0	2		3.0	2.5	/experiments/knapen_aot/videos/S_yt-Y3pi1bgUwIg_78.mp4	0.0	87.58487486839294	
5	11.807804822921753	movie	1		301.0	3.0	2.5	/experiments/knapen_aot/videos/S_yt-Y3pi1bgUwIg_78.mp4	0.0	87.59308171272278	2.5083940029144287
5	14.316198825836182	fix_post	2		12.0	3.0	2.5	/experiments/knapen_aot/videos/S_yt-Y3pi1bgUwIg_78.mp4	0.0	90.1014757156372	0.10010910034179688
6	14.416307926177979	fix_pre	0		80.0	4.0	2.5	/experiments/knapen_aot/videos/S_yt-aD-EAuBdpUo_163.mp4	0.0	90.201584815979	0.6665439605712891
6	15.07479977607727	response	0	2		4.0	2.5	/experiments/knapen_aot/videos/S_yt-aD-EAuBdpUo_163.mp4	0.0	90.8600766658783	
6	15.082851886749268	movie	1		300.0	4.0	2.5	/experiments/knapen_aot/videos/S_yt-aD-EAuBdpUo_163.mp4	0.0	90.8681287765503	2.5083250999450684
6	17.591176986694336	fix_post	2		12.0	4.0	2.5	/experiments/knapen_aot/videos/S_yt-aD-EAuBdpUo_163.mp4	0.0	93.37645387649536	0.10003280639648438
7	17.69120979309082	fix_pre	0		91.0	5.0	2.5	/experiments/knapen_aot/videos/S_yt-gikcYT6ZLzA_7.mp4	0.0	93.47648668289185	0.7582361698150635
7	18.441349983215332	response	0	2		5.0	2.5	/experiments/knapen_aot/videos/S_yt-gikcYT6ZLzA_7.mp4	0.0	94.22662687301636	
7	18.449445962905884	movie	1		300.0	5.0	2.5	/experiments/knapen_aot/videos/S_yt-gikcYT6ZLzA_7.mp4	0.0	94.23472285270691	2.508389949798584
7	20.957835912704468	fix_post	2		12.0	5.0	2.5	/experiments/knapen_aot/videos/S_yt-gikcYT6ZLzA_7.mp4	0.0	96.7431128025055	0.09999203681945801
8	21.057827949523926	fix_pre	0		91.0	6.0	2.5	blank	1.0	96.84310483932495	0.7584779262542725
8	21.807946920394897	response	0	2		6.0	2.5	blank	1.0	97.59322381019592	
8	21.8163058757782	movie	1		301.0	6.0	2.5	blank	1.0	97.60158276557922	2.5081899166107178
8	24.324495792388916	fix_post	2		12.0	6.0	2.5	blank	1.0	100.10977268218994	0.0998690128326416
9	24.424364805221558	fix_pre	0		78.0	7.0	2.5	/experiments/knapen_aot/videos/R_S_bing-www_dailymotion_com_video_x4kcklg_53.mp4	0.0	100.20964169502258	0.6501660346984863
9	25.06616997718811	response	0	2		7.0	2.5	/experiments/knapen_aot/videos/R_S_bing-www_dailymotion_com_video_x4kcklg_53.mp4	0.0	100.85144686698914	
9	25.074530839920044	movie	1		164.0	7.0	2.5	/experiments/knapen_aot/videos/R_S_bing-www_dailymotion_com_video_x4kcklg_53.mp4	0.0	100.85980772972107	2.508284091949463
9	27.582814931869507	fix_post	2		12.0	7.0	2.5	/experiments/knapen_aot/videos/R_S_bing-www_dailymotion_com_video_x4kcklg_53.mp4	0.0	103.36809182167053	0.1000058650970459
10	27.682820796966553	fix_pre	0		55.0	8.0	2.5	/experiments/knapen_aot/videos/S_yt-j-ifVbxZePQ_70.mp4	0.0	103.46809768676758	0.45827817916870117
10	28.13293695449829	response	0	2		8.0	2.5	/experiments/knapen_aot/videos/S_yt-j-ifVbxZePQ_70.mp4	0.0	103.91821384429932	
10	28.141098976135254	movie	1		299.0	8.0	2.5	/experiments/knapen_aot/videos/S_yt-j-ifVbxZePQ_70.mp4	0.0	103.92637586593628	2.5083940029144287
10	30.649492979049683	fix_post	2		12.0	8.0	2.5	/experiments/knapen_aot/videos/S_yt-j-ifVbxZePQ_70.mp4	0.0	106.43476986885071	0.09986400604248047
11	30.749356985092163	fix_pre	0		74.0	9.0	2.5	/experiments/knapen_aot/videos/S_yt-gmFYJR5ABNs_305.mp4	0.0	106.53463387489319	0.6167058944702148
11	31.3579318523407	response	0	2		9.0	2.5	/experiments/knapen_aot/videos/S_yt-gmFYJR5ABNs_305.mp4	0.0	107.14320874214172	
11	31.366062879562378	movie	1		301.0	9.0	2.5	/experiments/knapen_aot/videos/S_yt-gmFYJR5ABNs_305.mp4	0.0	107.1513397693634	2.5083470344543457
11	33.874409914016724	fix_post	2		12.0	9.0	2.5	/experiments/knapen_aot/videos/S_yt-gmFYJR5ABNs_305.mp4	0.0	109.65968680381775	0.09998798370361328
12	33.97439789772034	fix_pre	0		92.0	10.0	2.5	/experiments/knapen_aot/videos/S_video-3.mp4	0.0	109.75967478752136	0.7666640281677246
12	34.73289084434509	response	0	2		10.0	2.5	/experiments/knapen_aot/videos/S_video-3.mp4	0.0	110.51816773414612	
12	34.74106192588806	movie	1		161.0	10.0	2.5	/experiments/knapen_aot/videos/S_video-3.mp4	0.0	110.52633881568909	2.508302927017212
12	37.24936485290527	fix_post	2		12.0	10.0	2.5	/experiments/knapen_aot/videos/S_video-3.mp4	0.0	113.0346417427063	0.09997701644897461
13	37.34934186935425	fix_pre	0		166.0	11.0	2.5	/experiments/knapen_aot/videos/S_G009_C014_UHD_SDR_2K_AVC.mp4	0.0	113.13461875915527	1.3833999633789062
13	38.7244918346405	response	0	2		11.0	2.5	/experiments/knapen_aot/videos/S_G009_C014_UHD_SDR_2K_AVC.mp4	0.0	114.50976872444153	
13	38.732741832733154	movie	1		181.0	11.0	2.5	/experiments/knapen_aot/videos/S_G009_C014_UHD_SDR_2K_AVC.mp4	0.0	114.51801872253418	2.5083301067352295
13	41.241071939468384	fix_post	2		12.0	11.0	2.5	/experiments/knapen_aot/videos/S_G009_C014_UHD_SDR_2K_AVC.mp4	0.0	117.02634882926941	0.10008597373962402
14	41.34115791320801	fix_pre	0		73.0	12.0	2.5	blank	1.0	117.12643480300903	0.6082260608673096
14	41.94125699996948	response	0	2		12.0	2.5	blank	1.0	117.72653388977051	
14	41.94938397407532	movie	1		301.0	12.0	2.5	blank	1.0	117.73466086387634	2.5083699226379395
14	44.45775389671326	fix_post	2		12.0	12.0	2.5	blank	1.0	120.24303078651428	0.09994697570800781
15	44.557700872421265	fix_pre	0		80.0	13.0	2.5	/experiments/knapen_aot/videos/R_S_gX_VbZnZO0k_13.mp4	0.0	120.34297776222229	0.6666910648345947
15	45.21613883972168	response	0	2		13.0	2.5	/experiments/knapen_aot/videos/R_S_gX_VbZnZO0k_13.mp4	0.0	121.0014157295227	
15	45.22439193725586	movie	1		301.0	13.0	2.5	/experiments/knapen_aot/videos/R_S_gX_VbZnZO0k_13.mp4	0.0	121.00966882705688	2.5083138942718506
15	47.73270583152771	fix_post	2		12.0	13.0	2.5	/experiments/knapen_aot/videos/R_S_gX_VbZnZO0k_13.mp4	0.0	123.51798272132874	0.10001707077026367
16	47.832722902297974	fix_pre	0		69.0	14.0	2.5	/experiments/knapen_aot/videos/S_yt-PaxmJhMoP3w_87.mp4	0.0	123.617999792099	0.5749731063842773
16	48.399573802948	response	0	2		14.0	2.5	/experiments/knapen_aot/videos/S_yt-PaxmJhMoP3w_87.mp4	0.0	124.18485069274902	
16	48.40769600868225	movie	1		301.0	14.0	2.5	/experiments/knapen_aot/videos/S_yt-PaxmJhMoP3w_87.mp4	0.0	124.19297289848328	2.5083940029144287
16	50.91609001159668	fix_post	2		12.0	14.0	2.5	/experiments/knapen_aot/videos/S_yt-PaxmJhMoP3w_87.mp4	0.0	126.7013669013977	0.10004281997680664
17	51.016132831573486	fix_pre	0		79.0	15.0	2.5	/experiments/knapen_aot/videos/S_yt-9mWz93En7Gw_97.mp4	0.0	126.80140972137451	0.659168004989624
17	51.65866780281067	response	0	2		15.0	2.5	/experiments/knapen_aot/videos/S_yt-9mWz93En7Gw_97.mp4	0.0	127.4439446926117	
17	51.67530083656311	movie	1		301.0	15.0	2.5	/experiments/knapen_aot/videos/S_yt-9mWz93En7Gw_97.mp4	0.0	127.46057772636414	2.507456064224243
17	54.18275690078735	fix_post	2		12.0	15.0	2.5	/experiments/knapen_aot/videos/S_yt-9mWz93En7Gw_97.mp4	0.0	129.96803379058838	0.09997010231018066
18	54.282727003097534	fix_pre	0		60.0	16.0	2.5	/experiments/knapen_aot/videos/S_Y011_C008_SDR_2K_AVC.mp4	0.0	130.06800389289856	0.5000059604644775
18	54.774521827697754	response	0	2		16.0	2.5	/experiments/knapen_aot/videos/S_Y011_C008_SDR_2K_AVC.mp4	0.0	130.55979871749878	
18	54.78273296356201	movie	1		169.0	16.0	2.5	/experiments/knapen_aot/videos/S_Y011_C008_SDR_2K_AVC.mp4	0.0	130.56800985336304	2.50832200050354
18	57.29105496406555	fix_post	2		12.0	16.0	2.5	/experiments/knapen_aot/videos/S_Y011_C008_SDR_2K_AVC.mp4	0.0	133.07633185386658	0.10001802444458008
19	57.39107298851013	fix_pre	0		62.0	17.0	2.5	/experiments/knapen_aot/videos/S_video_inspire_uk_london_hampstead-heath_003.1080-h264.mp4	0.0	133.17634987831116	0.5179469585418701
19	57.899539947509766	response	0	2		17.0	2.5	/experiments/knapen_aot/videos/S_video_inspire_uk_london_hampstead-heath_003.1080-h264.mp4	0.0	133.6848168373108	
19	57.909019947052	movie	1		166.0	17.0	2.5	/experiments/knapen_aot/videos/S_video_inspire_uk_london_hampstead-heath_003.1080-h264.mp4	0.0	133.69429683685303	2.5069398880004883
19	60.41595983505249	fix_post	2		12.0	17.0	2.5	/experiments/knapen_aot/videos/S_video_inspire_uk_london_hampstead-heath_003.1080-h264.mp4	0.0	136.20123672485352	0.099945068359375
20	60.515904903411865	fix_pre	0		70.0	18.0	2.5	/experiments/knapen_aot/videos/R_S_yt-Xkx53mjgj2E_30.mp4	0.0	136.3011817932129	0.5833148956298828
20	61.09109878540039	response	0	2		18.0	2.5	/experiments/knapen_aot/videos/R_S_yt-Xkx53mjgj2E_30.mp4	0.0	136.87637567520142	
20	61.09921979904175	movie	1		301.0	18.0	2.5	/experiments/knapen_aot/videos/R_S_yt-Xkx53mjgj2E_30.mp4	0.0	136.88449668884277	2.5084099769592285
20	63.60762977600098	fix_post	2		12.0	18.0	2.5	/experiments/knapen_aot/videos/R_S_yt-Xkx53mjgj2E_30.mp4	0.0	139.392906665802	0.1000220775604248
21	63.7076518535614	fix_pre	0		101.0	19.0	2.5	blank	1.0	139.49292874336243	0.8416891098022461
21	64.53356885910034	response	0	2		19.0	2.5	blank	1.0	140.31884574890137	
21	64.54934096336365	movie	1		301.0	19.0	2.5	blank	1.0	140.33461785316467	2.50821590423584
21	67.05755686759949	fix_post	2		12.0	19.0	2.5	blank	1.0	142.8428337574005	0.1000831127166748
22	67.15763998031616	fix_pre	0		126.0	20.0	2.5	/experiments/knapen_aot/videos/R_S_yt--jzScB82vKI_90.mp4	0.0	142.9429168701172	1.0499508380889893
22	68.19948101043701	response	0	2		20.0	2.5	/experiments/knapen_aot/videos/R_S_yt--jzScB82vKI_90.mp4	0.0	143.98475790023804	
22	68.20759081840515	movie	1		301.0	20.0	2.5	/experiments/knapen_aot/videos/R_S_yt--jzScB82vKI_90.mp4	0.0	143.99286770820618	2.5084080696105957
22	70.71599888801575	fix_post	2		12.0	20.0	2.5	/experiments/knapen_aot/videos/R_S_yt--jzScB82vKI_90.mp4	0.0	146.50127577781677	0.10000896453857422
23	70.81600785255432	fix_pre	0		77.0	21.0	2.5	/experiments/knapen_aot/videos/R_S_yt-y6zr69M0yHI_76.mp4	0.0	146.60128474235535	0.641632080078125
23	71.44947385787964	response	0	2		21.0	2.5	/experiments/knapen_aot/videos/R_S_yt-y6zr69M0yHI_76.mp4	0.0	147.23475074768066	
23	71.45763993263245	movie	1		301.0	21.0	2.5	/experiments/knapen_aot/videos/R_S_yt-y6zr69M0yHI_76.mp4	0.0	147.24291682243347	2.5083060264587402
23	73.96594595909119	fix_post	2		12.0	21.0	2.5	/experiments/knapen_aot/videos/R_S_yt-y6zr69M0yHI_76.mp4	0.0	149.7512228488922	0.09997200965881348
24	74.06591796875	fix_pre	0		121.0	22.0	2.5	/experiments/knapen_aot/videos/S_yt-nlfwzxlwRfk_12.mp4	0.0	149.85119485855103	1.0166819095611572
24	75.06609082221985	response	0	2		22.0	2.5	/experiments/knapen_aot/videos/S_yt-nlfwzxlwRfk_12.mp4	0.0	150.85136771202087	
24	75.08259987831116	movie	1		296.0	22.0	2.5	/experiments/knapen_aot/videos/S_yt-nlfwzxlwRfk_12.mp4	0.0	150.86787676811218	2.500049114227295
24	77.58264899253845	fix_post	2		12.0	22.0	2.5	/experiments/knapen_aot/videos/S_yt-nlfwzxlwRfk_12.mp4	0.0	153.36792588233948	0.09995293617248535
25	77.68260192871094	fix_pre	0		81.0	23.0	2.5	/experiments/knapen_aot/videos/R_S_goAwcQiFu1Q_99.mp4	0.0	153.46787881851196	0.6749789714813232
25	78.34940600395203	response	0	2		23.0	2.5	/experiments/knapen_aot/videos/R_S_goAwcQiFu1Q_99.mp4	0.0	154.13468289375305	
25	78.35758090019226	movie	1		301.0	23.0	2.5	/experiments/knapen_aot/videos/R_S_goAwcQiFu1Q_99.mp4	0.0	154.1428577899933	2.5083940029144287
25	80.86597490310669	fix_post	2		12.0	23.0	2.5	/experiments/knapen_aot/videos/R_S_goAwcQiFu1Q_99.mp4	0.0	156.65125179290771	0.09993696212768555
26	80.96591186523438	fix_pre	0		77.0	24.0	2.5	/experiments/knapen_aot/videos/S_yt--C2DDZ7LOQA_95.mp4	0.0	156.7511887550354	0.6416490077972412
26	81.59177780151367	response	0	2		24.0	2.5	/experiments/knapen_aot/videos/S_yt--C2DDZ7LOQA_95.mp4	0.0	157.3770546913147	
26	81.60756087303162	movie	1		301.0	24.0	2.5	/experiments/knapen_aot/videos/S_yt--C2DDZ7LOQA_95.mp4	0.0	157.39283776283264	2.508258104324341
26	84.11581897735596	fix_post	2		12.0	24.0	2.5	/experiments/knapen_aot/videos/S_yt--C2DDZ7LOQA_95.mp4	0.0	159.90109586715698	0.10003900527954102
27	84.2158579826355	fix_pre	0		67.0	25.0	2.5	/experiments/knapen_aot/videos/S_ILSVRC2015_train_00323000.mp4	0.0	160.00113487243652	0.5583078861236572
27	84.76603984832764	response	0	2		25.0	2.5	/experiments/knapen_aot/videos/S_ILSVRC2015_train_00323000.mp4	0.0	160.55131673812866	
27	84.77416586875916	movie	1		301.0	25.0	2.5	/experiments/knapen_aot/videos/S_ILSVRC2015_train_00323000.mp4	0.0	160.55944275856018	2.5083091259002686
27	87.28247499465942	fix_post	2		12.0	25.0	2.5	/experiments/knapen_aot/videos/S_ILSVRC2015_train_00323000.mp4	0.0	163.06775188446045	0.10010480880737305
28	87.3825798034668	fix_pre	0		79.0	26.0	2.5	/experiments/knapen_aot/videos/R_S_yt-BqJHT4K7Qf8_127.mp4	0.0	163.16785669326782	0.658332109451294
28	88.03262591362	response	0	2		26.0	2.5	/experiments/knapen_aot/videos/R_S_yt-BqJHT4K7Qf8_127.mp4	0.0	163.81790280342102	
28	88.04091191291809	movie	1		301.0	26.0	2.5	/experiments/knapen_aot/videos/R_S_yt-BqJHT4K7Qf8_127.mp4	0.0	163.82618880271912	2.5083260536193848
28	90.54923796653748	fix_post	2		12.0	26.0	2.5	/experiments/knapen_aot/videos/R_S_yt-BqJHT4K7Qf8_127.mp4	0.0	166.3345148563385	0.09998893737792969
29	90.6492269039154	fix_pre	0		73.0	27.0	2.5	blank	1.0	166.43450379371643	0.6090600490570068
29	91.24938893318176	response	0	2		27.0	2.5	blank	1.0	167.0346658229828	
29	91.25828695297241	movie	1		301.0	27.0	2.5	blank	1.0	167.04356384277344	2.507572889328003
29	93.76585984230042	fix_post	2		12.0	27.0	2.5	blank	1.0	169.55113673210144	0.10003399848937988
30	93.8658938407898	fix_pre	0		61.0	28.0	2.5	/experiments/knapen_aot/videos/R_S_yt-SjPYdaUBi7A_37.mp4	0.0	169.65117073059082	0.5082700252532959
30	94.36604285240173	response	0	2		28.0	2.5	/experiments/knapen_aot/videos/R_S_yt-SjPYdaUBi7A_37.mp4	0.0	170.15131974220276	
30	94.37416386604309	movie	1		301.0	28.0	2.5	/experiments/knapen_aot/videos/R_S_yt-SjPYdaUBi7A_37.mp4	0.0	170.15944075584412	2.5083789825439453
30	96.88254284858704	fix_post	2		12.0	28.0	2.5	/experiments/knapen_aot/videos/R_S_yt-SjPYdaUBi7A_37.mp4	0.0	172.66781973838806	0.1000220775604248
31	96.98256492614746	fix_pre	0		66.0	29.0	2.5	/experiments/knapen_aot/videos/S_yt-qurTr1BJMec_244.mp4	0.0	172.7678418159485	0.5499138832092285
31	97.52422380447388	response	0	2		29.0	2.5	/experiments/knapen_aot/videos/S_yt-qurTr1BJMec_244.mp4	0.0	173.3095006942749	
31	97.53247880935669	movie	1		301.0	29.0	2.5	/experiments/knapen_aot/videos/S_yt-qurTr1BJMec_244.mp4	0.0	173.31775569915771	2.508308172225952
31	100.04078698158264	fix_post	2		12.0	29.0	2.5	/experiments/knapen_aot/videos/S_yt-qurTr1BJMec_244.mp4	0.0	175.82606387138367	0.1000819206237793
32	100.14086890220642	fix_pre	0		73.0	30.0	2.5	/experiments/knapen_aot/videos/R_S_yt-bmGWhOCsvJo_128.mp4	0.0	175.92614579200745	0.6082649230957031
32	100.7409839630127	response	0	2		30.0	2.5	/experiments/knapen_aot/videos/R_S_yt-bmGWhOCsvJo_128.mp4	0.0	176.52626085281372	
32	100.74913382530212	movie	1		301.0	30.0	2.5	/experiments/knapen_aot/videos/R_S_yt-bmGWhOCsvJo_128.mp4	0.0	176.53441071510315	2.5083541870117188
32	103.25748801231384	fix_post	2		12.0	30.0	2.5	/experiments/knapen_aot/videos/R_S_yt-bmGWhOCsvJo_128.mp4	0.0	179.04276490211487	0.09994983673095703
33	103.3574378490448	fix_pre	0		81.0	31.0	2.5	/experiments/knapen_aot/videos/S_yt-D9uD7yM6bxQ_269.mp4	0.0	179.14271473884583	0.6750359535217285
33	104.02429294586182	response	0	2		31.0	2.5	/experiments/knapen_aot/videos/S_yt-D9uD7yM6bxQ_269.mp4	0.0	179.80956983566284	
33	104.03247380256653	movie	1		301.0	31.0	2.5	/experiments/knapen_aot/videos/S_yt-D9uD7yM6bxQ_269.mp4	0.0	179.81775069236755	2.5082461833953857
33	106.54071998596191	fix_post	2		12.0	31.0	2.5	/experiments/knapen_aot/videos/S_yt-D9uD7yM6bxQ_269.mp4	0.0	182.32599687576294	0.10006880760192871
34	106.64078879356384	fix_pre	0		67.0	32.0	2.5	/experiments/knapen_aot/videos/R_S_wc-16LozRfhUGea_49.mp4	0.0	182.42606568336487	0.5582711696624756
34	107.19093585014343	response	0	2		32.0	2.5	/experiments/knapen_aot/videos/R_S_wc-16LozRfhUGea_49.mp4	0.0	182.97621273994446	
34	107.19905996322632	movie	1		301.0	32.0	2.5	/experiments/knapen_aot/videos/R_S_wc-16LozRfhUGea_49.mp4	0.0	182.98433685302734	2.508492946624756
34	109.70755290985107	fix_post	2		12.0	32.0	2.5	/experiments/knapen_aot/videos/R_S_wc-16LozRfhUGea_49.mp4	0.0	185.4928297996521	0.0999460220336914
35	109.80749893188477	fix_pre	0		129.0	33.0	2.5	/experiments/knapen_aot/videos/R_S_yt-J1dw4AznwmQ_7.mp4	0.0	185.5927758216858	1.0756049156188965
35	110.8742778301239	response	0	2		33.0	2.5	/experiments/knapen_aot/videos/R_S_yt-J1dw4AznwmQ_7.mp4	0.0	186.65955471992493	
35	110.88310384750366	movie	1		301.0	33.0	2.5	/experiments/knapen_aot/videos/R_S_yt-J1dw4AznwmQ_7.mp4	0.0	186.6683807373047	2.5078110694885254
35	113.39091491699219	fix_post	2		12.0	33.0	2.5	/experiments/knapen_aot/videos/R_S_yt-J1dw4AznwmQ_7.mp4	0.0	189.1761918067932	0.09992003440856934
36	113.49083495140076	fix_pre	0		76.0	34.0	2.5	blank	1.0	189.27611184120178	0.6332478523254395
36	114.11593890190125	response	0	2		34.0	2.5	blank	1.0	189.90121579170227	
36	114.1240828037262	movie	1		301.0	34.0	2.5	blank	1.0	189.90935969352722	2.508291006088257
36	116.63237380981445	fix_post	2		12.0	34.0	2.5	blank	1.0	192.41765069961548	0.10010910034179688
37	116.73248291015625	fix_pre	0		76.0	35.0	2.5	/experiments/knapen_aot/videos/S_cST9H3zu3zQ_126.mp4	0.0	192.51775979995728	0.6332390308380127
37	117.35754680633545	response	0	2		35.0	2.5	/experiments/knapen_aot/videos/S_cST9H3zu3zQ_126.mp4	0.0	193.14282369613647	
37	117.36572194099426	movie	1		301.0	35.0	2.5	/experiments/knapen_aot/videos/S_cST9H3zu3zQ_126.mp4	0.0	193.1509988307953	2.508481979370117
37	119.87420392036438	fix_post	2		12.0	35.0	2.5	/experiments/knapen_aot/videos/S_cST9H3zu3zQ_126.mp4	0.0	195.6594808101654	0.09988594055175781
38	119.97408986091614	fix_pre	0		190.0	36.0	2.5	/experiments/knapen_aot/videos/S_cST9H3zu3zQ_126.mp4	0.0	195.75936675071716	1.5832951068878174
38	121.5492799282074	response	0	2		36.0	2.5	/experiments/knapen_aot/videos/S_cST9H3zu3zQ_126.mp4	0.0	197.33455681800842	
38	121.55738496780396	movie	1		301.0	36.0	2.5	/experiments/knapen_aot/videos/S_cST9H3zu3zQ_126.mp4	0.0	197.34266185760498	2.5084338188171387
38	124.0658187866211	fix_post	2		12.0	36.0	2.5	/experiments/knapen_aot/videos/S_cST9H3zu3zQ_126.mp4	0.0	199.85109567642212	0.09996914863586426
39	124.16578793525696	fix_pre	0		84.0	37.0	2.5	/experiments/knapen_aot/videos/S_yt-ZzC953ahaxs_195.mp4	0.0	199.95106482505798	0.6999988555908203
39	124.85760188102722	response	0	2		37.0	2.5	/experiments/knapen_aot/videos/S_yt-ZzC953ahaxs_195.mp4	0.0	200.64287877082825	
39	124.86578679084778	movie	1		301.0	37.0	2.5	/experiments/knapen_aot/videos/S_yt-ZzC953ahaxs_195.mp4	0.0	200.6510636806488	2.5081779956817627
39	127.37396478652954	fix_post	2		12.0	37.0	2.5	/experiments/knapen_aot/videos/S_yt-ZzC953ahaxs_195.mp4	0.0	203.15924167633057	0.1000511646270752
40	127.47401595115662	fix_pre	0		110.0	38.0	2.5	/experiments/knapen_aot/videos/S_gX_VbZnZO0k_13.mp4	0.0	203.25929284095764	0.9166679382324219
40	128.38249397277832	response	0	2		38.0	2.5	/experiments/knapen_aot/videos/S_gX_VbZnZO0k_13.mp4	0.0	204.16777086257935	
40	128.39068388938904	movie	1		298.0	38.0	2.5	/experiments/knapen_aot/videos/S_gX_VbZnZO0k_13.mp4	0.0	204.17596077919006	2.5084309577941895
40	130.89911484718323	fix_post	2		12.0	38.0	2.5	/experiments/knapen_aot/videos/S_gX_VbZnZO0k_13.mp4	0.0	206.68439173698425	0.09994316101074219
41	130.99905800819397	fix_pre	0		95.0	39.0	2.5	/experiments/knapen_aot/videos/S_yt-06XMUn9DTKc_35.mp4	0.0	206.784334897995	0.7916707992553711
41	131.78258800506592	response	0	2		39.0	2.5	/experiments/knapen_aot/videos/S_yt-06XMUn9DTKc_35.mp4	0.0	207.56786489486694	
41	131.79072880744934	movie	1		301.0	39.0	2.5	/experiments/knapen_aot/videos/S_yt-06XMUn9DTKc_35.mp4	0.0	207.57600569725037	2.5083329677581787
41	134.29906177520752	fix_post	2		12.0	39.0	2.5	/experiments/knapen_aot/videos/S_yt-06XMUn9DTKc_35.mp4	0.0	210.08433866500854	0.10004019737243652
42	134.39910197257996	fix_pre	0		68.0	40.0	2.5	/experiments/knapen_aot/videos/S_yt-mQESmS4uqRU_208.mp4	0.0	210.18437886238098	0.5671148300170898
42	134.95748591423035	response	0	2		40.0	2.5	/experiments/knapen_aot/videos/S_yt-mQESmS4uqRU_208.mp4	0.0	210.74276280403137	
42	134.96621680259705	movie	1		301.0	40.0	2.5	/experiments/knapen_aot/videos/S_yt-mQESmS4uqRU_208.mp4	0.0	210.75149369239807	2.507873058319092
42	137.47408986091614	fix_post	2		12.0	40.0	2.5	/experiments/knapen_aot/videos/S_yt-mQESmS4uqRU_208.mp4	0.0	213.25936675071716	0.09997391700744629
43	137.57406377792358	fix_pre	0		66.0	41.0	2.5	/experiments/knapen_aot/videos/R_S_yt-wVMhACNFF-M_154.mp4	0.0	213.3593406677246	0.5499720573425293
43	138.11588597297668	response	0	2		41.0	2.5	/experiments/knapen_aot/videos/R_S_yt-wVMhACNFF-M_154.mp4	0.0	213.9011628627777	
43	138.1240358352661	movie	1		301.0	41.0	2.5	/experiments/knapen_aot/videos/R_S_yt-wVMhACNFF-M_154.mp4	0.0	213.90931272506714	2.50832200050354
43	140.63235783576965	fix_post	2		12.0	41.0	2.5	/experiments/knapen_aot/videos/R_S_yt-wVMhACNFF-M_154.mp4	0.0	216.41763472557068	0.10003495216369629
44	140.73239278793335	fix_pre	0		68.0	42.0	2.5	blank	1.0	216.51766967773438	0.5671250820159912
44	141.2906768321991	response	0	2		42.0	2.5	blank	1.0	217.07595372200012	
44	141.29951786994934	movie	1		301.0	42.0	2.5	blank	1.0	217.08479475975037	2.5078539848327637
44	143.8073718547821	fix_post	2		12.0	42.0	2.5	blank	1.0	219.59264874458313	0.10003399848937988
45	143.90740585327148	fix_pre	0		86.0	43.0	2.5	/experiments/knapen_aot/videos/S_yt-jy96-k8drRE_1.mp4	0.0	219.6926827430725	0.7165670394897461
45	144.615868806839	response	0	2		43.0	2.5	/experiments/knapen_aot/videos/S_yt-jy96-k8drRE_1.mp4	0.0	220.40114569664001	
45	144.62397289276123	movie	1		301.0	43.0	2.5	/experiments/knapen_aot/videos/S_yt-jy96-k8drRE_1.mp4	0.0	220.40924978256226	2.5083560943603516
45	147.13232898712158	fix_post	2		12.0	43.0	2.5	/experiments/knapen_aot/videos/S_yt-jy96-k8drRE_1.mp4	0.0	222.9176058769226	0.10000896453857422
46	147.23233795166016	fix_pre	0		121.0	44.0	2.5	/experiments/knapen_aot/videos/S_yt-HMAa2QbfFPI_216.mp4	0.0	223.01761484146118	1.008314847946167
46	148.23246693611145	response	0	2		44.0	2.5	/experiments/knapen_aot/videos/S_yt-HMAa2QbfFPI_216.mp4	0.0	224.01774382591248	
46	148.24065279960632	movie	1		297.0	44.0	2.5	/experiments/knapen_aot/videos/S_yt-HMAa2QbfFPI_216.mp4	0.0	224.02592968940735	2.5083391666412354
46	150.74899196624756	fix_post	2		12.0	44.0	2.5	/experiments/knapen_aot/videos/S_yt-HMAa2QbfFPI_216.mp4	0.0	226.53426885604858	0.09999585151672363
47	150.84898781776428	fix_pre	0		99.0	45.0	2.5	/experiments/knapen_aot/videos/S_yt-Ojy5TMPX8_Q_165.mp4	0.0	226.6342647075653	0.8254389762878418
47	151.66579580307007	response	0	2		45.0	2.5	/experiments/knapen_aot/videos/S_yt-Ojy5TMPX8_Q_165.mp4	0.0	227.4510726928711	
47	151.67442679405212	movie	1		301.0	45.0	2.5	/experiments/knapen_aot/videos/S_yt-Ojy5TMPX8_Q_165.mp4	0.0	227.45970368385315	2.507904052734375
47	154.1823308467865	fix_post	2		12.0	45.0	2.5	/experiments/knapen_aot/videos/S_yt-Ojy5TMPX8_Q_165.mp4	0.0	229.96760773658752	0.09989094734191895
48	154.28222179412842	fix_pre	0		60.0	46.0	2.5	/experiments/knapen_aot/videos/R_S_bing-www_dailymotion_com_video_x64c56w_164.mp4	0.0	230.06749868392944	0.5000731945037842
48	154.7741367816925	response	0	2		46.0	2.5	/experiments/knapen_aot/videos/R_S_bing-www_dailymotion_com_video_x64c56w_164.mp4	0.0	230.55941367149353	
48	154.7822949886322	movie	1		165.0	46.0	2.5	/experiments/knapen_aot/videos/R_S_bing-www_dailymotion_com_video_x64c56w_164.mp4	0.0	230.56757187843323	2.5083489418029785
48	157.29064393043518	fix_post	2		12.0	46.0	2.5	/experiments/knapen_aot/videos/R_S_bing-www_dailymotion_com_video_x64c56w_164.mp4	0.0	233.0759208202362	0.09999585151672363
49	157.3906397819519	fix_pre	0		73.0	47.0	2.5	/experiments/knapen_aot/videos/S_yt-GWOOQZ19-oU_331.mp4	0.0	233.17591667175293	0.608253002166748
49	157.99069094657898	response	0	2		47.0	2.5	/experiments/knapen_aot/videos/S_yt-GWOOQZ19-oU_331.mp4	0.0	233.77596783638	
49	157.99889278411865	movie	1		301.0	47.0	2.5	/experiments/knapen_aot/videos/S_yt-GWOOQZ19-oU_331.mp4	0.0	233.78416967391968	2.5083751678466797
49	160.50726795196533	fix_post	2		12.0	47.0	2.5	/experiments/knapen_aot/videos/S_yt-GWOOQZ19-oU_331.mp4	0.0	236.29254484176636	0.1000070571899414
50	160.60727500915527	fix_pre	0		83.0	48.0	2.5	/experiments/knapen_aot/videos/R_S_yt--UhwpukdyBg_51.mp4	0.0	236.3925518989563	0.6920669078826904
50	161.29073286056519	response	0	2		48.0	2.5	/experiments/knapen_aot/videos/R_S_yt--UhwpukdyBg_51.mp4	0.0	237.0760097503662	
50	161.29934191703796	movie	1		301.0	48.0	2.5	/experiments/knapen_aot/videos/R_S_yt--UhwpukdyBg_51.mp4	0.0	237.084618806839	2.507946014404297
50	163.80728793144226	fix_post	2		12.0	48.0	2.5	/experiments/knapen_aot/videos/R_S_yt--UhwpukdyBg_51.mp4	0.0	239.5925648212433	0.09998488426208496
51	163.90727281570435	fix_pre	0		59.0	49.0	2.5	blank	1.0	239.69254970550537	0.4916191101074219
51	164.39073491096497	response	0	2		49.0	2.5	blank	1.0	240.176011800766	
51	164.39889192581177	movie	1		301.0	49.0	2.5	blank	1.0	240.1841688156128	2.5083420276641846
51	166.90723395347595	fix_post	2		12.0	49.0	2.5	blank	1.0	242.69251084327698	0.10038590431213379
52	167.0076198577881	fix_pre	0		59.0	50.0	2.5	/experiments/knapen_aot/videos/R_S_g201_TH_804_A001_8_SDR_20191031_SDR_2K_AVC.mp4	0.0	242.7928967475891	0.491286039352417
52	167.49069380760193	response	0	2		50.0	2.5	/experiments/knapen_aot/videos/R_S_g201_TH_804_A001_8_SDR_20191031_SDR_2K_AVC.mp4	0.0	243.27597069740295	
52	167.4989058971405	movie	1		167.0	50.0	2.5	/experiments/knapen_aot/videos/R_S_g201_TH_804_A001_8_SDR_20191031_SDR_2K_AVC.mp4	0.0	243.28418278694153	2.508331060409546
52	170.00723695755005	fix_post	2		12.0	50.0	2.5	/experiments/knapen_aot/videos/R_S_g201_TH_804_A001_8_SDR_20191031_SDR_2K_AVC.mp4	0.0	245.79251384735107	0.09991693496704102
53	170.1071538925171	fix_pre	0		49.0	51.0	2.5	/experiments/knapen_aot/videos/S_yt-wqdTPz0bLrM_561.mp4	0.0	245.89243078231812	0.4084138870239258
53	170.50744581222534	response	0	2		51.0	2.5	/experiments/knapen_aot/videos/S_yt-wqdTPz0bLrM_561.mp4	0.0	246.29272270202637	
53	170.51556777954102	movie	1		301.0	51.0	2.5	/experiments/knapen_aot/videos/S_yt-wqdTPz0bLrM_561.mp4	0.0	246.30084466934204	2.5082931518554688
53	173.02386093139648	fix_post	2		12.0	51.0	2.5	/experiments/knapen_aot/videos/S_yt-wqdTPz0bLrM_561.mp4	0.0	248.8091378211975	0.0999898910522461
54	173.12385082244873	fix_pre	0		44.0	52.0	2.5	/experiments/knapen_aot/videos/R_S_ILSVRC2015_train_00044004.mp4	0.0	248.90912771224976	0.36667513847351074
54	173.48238587379456	response	0	2		52.0	2.5	/experiments/knapen_aot/videos/R_S_ILSVRC2015_train_00044004.mp4	0.0	249.26766276359558	
54	173.49052596092224	movie	1		301.0	52.0	2.5	/experiments/knapen_aot/videos/R_S_ILSVRC2015_train_00044004.mp4	0.0	249.27580285072327	2.5083320140838623
54	175.9988579750061	fix_post	2		12.0	52.0	2.5	/experiments/knapen_aot/videos/R_S_ILSVRC2015_train_00044004.mp4	0.0	251.78413486480713	0.09993600845336914
55	176.09879398345947	fix_pre	0		61.0	53.0	2.5	/experiments/knapen_aot/videos/R_S_g201_TH_804_A001_8_SDR_20191031_SDR_2K_AVC.mp4	0.0	251.8840708732605	0.5084309577941895
55	176.5990297794342	response	0	2		53.0	2.5	/experiments/knapen_aot/videos/R_S_g201_TH_804_A001_8_SDR_20191031_SDR_2K_AVC.mp4	0.0	252.38430666923523	
55	176.60722494125366	movie	1		166.0	53.0	2.5	/experiments/knapen_aot/videos/R_S_g201_TH_804_A001_8_SDR_20191031_SDR_2K_AVC.mp4	0.0	252.3925018310547	2.5083658695220947
55	179.11559081077576	fix_post	2		12.0	53.0	2.5	/experiments/knapen_aot/videos/R_S_g201_TH_804_A001_8_SDR_20191031_SDR_2K_AVC.mp4	0.0	254.90086770057678	0.10026407241821289
56	179.21585488319397	fix_pre	0		51.0	54.0	2.5	/experiments/knapen_aot/videos/R_S_yt-Ojy5TMPX8_Q_165.mp4	0.0	255.001131772995	0.42467594146728516
56	179.63243198394775	response	0	2		54.0	2.5	/experiments/knapen_aot/videos/R_S_yt-Ojy5TMPX8_Q_165.mp4	0.0	255.41770887374878	
56	179.64053082466125	movie	1		300.0	54.0	2.5	/experiments/knapen_aot/videos/R_S_yt-Ojy5TMPX8_Q_165.mp4	0.0	255.42580771446228	2.5082850456237793
56	182.14881587028503	fix_post	2		12.0	54.0	2.5	/experiments/knapen_aot/videos/R_S_yt-Ojy5TMPX8_Q_165.mp4	0.0	257.93409276008606	0.10000395774841309
57	182.24881982803345	fix_pre	0		66.0	55.0	2.5	/experiments/knapen_aot/videos/R_S_Y011_C008_SDR_2K_AVC.mp4	0.0	258.0340967178345	0.5502851009368896
57	182.79060196876526	response	0	2		55.0	2.5	/experiments/knapen_aot/videos/R_S_Y011_C008_SDR_2K_AVC.mp4	0.0	258.5758788585663	
57	182.79910492897034	movie	1		171.0	55.0	2.5	/experiments/knapen_aot/videos/R_S_Y011_C008_SDR_2K_AVC.mp4	0.0	258.58438181877136	2.5081119537353516
57	185.3072168827057	fix_post	2		12.0	55.0	2.5	/experiments/knapen_aot/videos/R_S_Y011_C008_SDR_2K_AVC.mp4	0.0	261.0924937725067	0.09999608993530273
58	185.407212972641	fix_pre	0		82.0	56.0	2.5	blank	1.0	261.192489862442	0.6835370063781738
58	186.08238577842712	response	0	2		56.0	2.5	blank	1.0	261.86766266822815	
58	186.09074997901917	movie	1		301.0	56.0	2.5	blank	1.0	261.8760268688202	2.508219003677368
58	188.59896898269653	fix_post	2		12.0	56.0	2.5	blank	1.0	264.38424587249756	0.09991788864135742
59	188.6988868713379	fix_pre	0		96.0	57.0	2.5	/experiments/knapen_aot/videos/R_S_yt-i-1Gou9SA5U_3.mp4	0.0	264.4841637611389	0.7999269962310791
59	189.49071383476257	response	0	2		57.0	2.5	/experiments/knapen_aot/videos/R_S_yt-i-1Gou9SA5U_3.mp4	0.0	265.2759907245636	
59	189.49881386756897	movie	1		301.0	57.0	2.5	/experiments/knapen_aot/videos/R_S_yt-i-1Gou9SA5U_3.mp4	0.0	265.28409075737	2.5085511207580566
59	192.00736498832703	fix_post	2		12.0	57.0	2.5	/experiments/knapen_aot/videos/R_S_yt-i-1Gou9SA5U_3.mp4	0.0	267.79264187812805	0.0998389720916748
60	192.1072039604187	fix_pre	0		82.0	58.0	2.5	/experiments/knapen_aot/videos/R_S_yt-9pUeQix6EW8_7.mp4	0.0	267.8924808502197	0.6833188533782959
60	192.7748157978058	response	0	2		58.0	2.5	/experiments/knapen_aot/videos/R_S_yt-9pUeQix6EW8_7.mp4	0.0	268.5600926876068	
60	192.790522813797	movie	1		300.0	58.0	2.5	/experiments/knapen_aot/videos/R_S_yt-9pUeQix6EW8_7.mp4	0.0	268.575799703598	2.5084609985351562
60	195.29898381233215	fix_post	2		12.0	58.0	2.5	/experiments/knapen_aot/videos/R_S_yt-9pUeQix6EW8_7.mp4	0.0	271.0842607021332	0.09976816177368164
61	195.39875197410583	fix_pre	0		71.0	59.0	2.5	/experiments/knapen_aot/videos/S_yt-CEQnXB0LxQU_278.mp4	0.0	271.18402886390686	0.5916798114776611
61	195.98232984542847	response	0	2		59.0	2.5	/experiments/knapen_aot/videos/S_yt-CEQnXB0LxQU_278.mp4	0.0	271.7676067352295	
61	195.9904317855835	movie	1		301.0	59.0	2.5	/experiments/knapen_aot/videos/S_yt-CEQnXB0LxQU_278.mp4	0.0	271.7757086753845	2.5083742141723633
61	198.49880599975586	fix_post	2		12.0	59.0	2.5	/experiments/knapen_aot/videos/S_yt-CEQnXB0LxQU_278.mp4	0.0	274.2840828895569	0.1000068187713623
62	198.59881281852722	fix_pre	0		81.0	60.0	2.5	/experiments/knapen_aot/videos/S_bing-www_dailymotion_com_video_x4kcklg_53.mp4	0.0	274.38408970832825	0.6749911308288574
62	199.26554989814758	response	0	2		60.0	2.5	/experiments/knapen_aot/videos/S_bing-www_dailymotion_com_video_x4kcklg_53.mp4	0.0	275.0508267879486	
62	199.27380394935608	movie	1		166.0	60.0	2.5	/experiments/knapen_aot/videos/S_bing-www_dailymotion_com_video_x4kcklg_53.mp4	0.0	275.0590808391571	2.508344888687134
62	201.7821488380432	fix_post	2		12.0	60.0	2.5	/experiments/knapen_aot/videos/S_bing-www_dailymotion_com_video_x4kcklg_53.mp4	0.0	277.56742572784424	0.10011601448059082
63	201.8822648525238	fix_pre	0		81.0	61.0	2.5	/experiments/knapen_aot/videos/R_S_yt-j-ifVbxZePQ_70.mp4	0.0	277.66754174232483	0.6748499870300293
63	202.54889678955078	response	0	2		61.0	2.5	/experiments/knapen_aot/videos/R_S_yt-j-ifVbxZePQ_70.mp4	0.0	278.3341736793518	
63	202.55711483955383	movie	1		301.0	61.0	2.5	/experiments/knapen_aot/videos/R_S_yt-j-ifVbxZePQ_70.mp4	0.0	278.34239172935486	2.50833797454834
63	205.06545281410217	fix_post	2		12.0	61.0	2.5	/experiments/knapen_aot/videos/R_S_yt-j-ifVbxZePQ_70.mp4	0.0	280.8507297039032	0.1000680923461914
64	205.16552090644836	fix_pre	0		73.0	62.0	2.5	/experiments/knapen_aot/videos/R_S_yt-1UFhynm5g6Y_266.mp4	0.0	280.9507977962494	0.6082360744476318
64	205.76557278633118	response	0	2		62.0	2.5	/experiments/knapen_aot/videos/R_S_yt-1UFhynm5g6Y_266.mp4	0.0	281.5508496761322	
64	205.773756980896	movie	1		301.0	62.0	2.5	/experiments/knapen_aot/videos/R_S_yt-1UFhynm5g6Y_266.mp4	0.0	281.559033870697	2.508391857147217
64	208.2821488380432	fix_post	2		12.0	62.0	2.5	/experiments/knapen_aot/videos/R_S_yt-1UFhynm5g6Y_266.mp4	0.0	284.06742572784424	0.10010600090026855
65	208.38225483894348	fix_pre	0		63.0	63.0	2.5	blank	1.0	284.1675317287445	0.5248961448669434
65	208.89893984794617	response	0	2		63.0	2.5	blank	1.0	284.6842167377472	
65	208.90715098381042	movie	1		301.0	63.0	2.5	blank	1.0	284.69242787361145	2.50827693939209
65	211.41542792320251	fix_post	2		12.0	63.0	2.5	blank	1.0	287.20070481300354	0.09997200965881348
66	211.51539993286133	fix_pre	0		72.0	64.0	2.5	/experiments/knapen_aot/videos/S_yt-G65z8p1YNhw_16.mp4	0.0	287.30067682266235	0.5999109745025635
66	212.10721898078918	response	0	2		64.0	2.5	/experiments/knapen_aot/videos/S_yt-G65z8p1YNhw_16.mp4	0.0	287.8924958705902	
66	212.1153109073639	movie	1		301.0	64.0	2.5	/experiments/knapen_aot/videos/S_yt-G65z8p1YNhw_16.mp4	0.0	287.9005877971649	2.508420944213867
66	214.62373185157776	fix_post	2		12.0	64.0	2.5	/experiments/knapen_aot/videos/S_yt-G65z8p1YNhw_16.mp4	0.0	290.4090087413788	0.1000070571899414
67	214.7237389087677	fix_pre	0		81.0	65.0	2.5	/experiments/knapen_aot/videos/S_pexels-cottonbro-9063801_1.mp4	0.0	290.5090157985687	0.674915075302124
67	215.39054489135742	response	0	2		65.0	2.5	/experiments/knapen_aot/videos/S_pexels-cottonbro-9063801_1.mp4	0.0	291.17582178115845	
67	215.39865398406982	movie	1		193.0	65.0	2.5	/experiments/knapen_aot/videos/S_pexels-cottonbro-9063801_1.mp4	0.0	291.18393087387085	2.508404016494751
67	217.90705800056458	fix_post	2		12.0	65.0	2.5	/experiments/knapen_aot/videos/S_pexels-cottonbro-9063801_1.mp4	0.0	293.6923348903656	0.10006594657897949
68	218.00712394714355	fix_pre	0		80.0	66.0	2.5	/experiments/knapen_aot/videos/R_S_yt-ZBhTpmrAlUY_70.mp4	0.0	293.7924008369446	0.6668069362640381
68	218.66557693481445	response	0	2		66.0	2.5	/experiments/knapen_aot/videos/R_S_yt-ZBhTpmrAlUY_70.mp4	0.0	294.4508538246155	
68	218.6739308834076	movie	1		301.0	66.0	2.5	/experiments/knapen_aot/videos/R_S_yt-ZBhTpmrAlUY_70.mp4	0.0	294.4592077732086	2.508096933364868
68	221.18202781677246	fix_post	2		12.0	66.0	2.5	/experiments/knapen_aot/videos/R_S_yt-ZBhTpmrAlUY_70.mp4	0.0	296.9673047065735	0.09995508193969727
69	221.28198289871216	fix_pre	0		87.0	67.0	2.5	/experiments/knapen_aot/videos/S_yt-GWOOQZ19-oU_331.mp4	0.0	297.0672597885132	0.7250590324401855
69	221.99880981445312	response	0	2		67.0	2.5	/experiments/knapen_aot/videos/S_yt-GWOOQZ19-oU_331.mp4	0.0	297.78408670425415	
69	222.00704193115234	movie	1		298.0	67.0	2.5	/experiments/knapen_aot/videos/S_yt-GWOOQZ19-oU_331.mp4	0.0	297.79231882095337	2.5083000659942627
69	224.5153419971466	fix_post	2		12.0	67.0	2.5	/experiments/knapen_aot/videos/S_yt-GWOOQZ19-oU_331.mp4	0.0	300.30061888694763	0.09991598129272461
70	224.61525797843933	fix_pre	0		55.0	68.0	2.5	/experiments/knapen_aot/videos/S_yt-a9bnYU0Gnxg_59.mp4	0.0	300.40053486824036	0.4583468437194824
70	225.0654637813568	response	0	2		68.0	2.5	/experiments/knapen_aot/videos/S_yt-a9bnYU0Gnxg_59.mp4	0.0	300.85074067115784	
70	225.0736048221588	movie	1		301.0	68.0	2.5	/experiments/knapen_aot/videos/S_yt-a9bnYU0Gnxg_59.mp4	0.0	300.85888171195984	2.5083329677581787
70	227.581937789917	fix_post	2		12.0	68.0	2.5	/experiments/knapen_aot/videos/S_yt-a9bnYU0Gnxg_59.mp4	0.0	303.367214679718	0.10001420974731445
71	227.6819519996643	fix_pre	0		48.0	69.0	2.5	/experiments/knapen_aot/videos/R_S_yt-LB9LoYfH_EA_15.mp4	0.0	303.46722888946533	0.4014558792114258
71	228.07386589050293	response	0	2		69.0	2.5	/experiments/knapen_aot/videos/R_S_yt-LB9LoYfH_EA_15.mp4	0.0	303.85914278030396	
71	228.08340787887573	movie	1		301.0	69.0	2.5	/experiments/knapen_aot/videos/R_S_yt-LB9LoYfH_EA_15.mp4	0.0	303.86868476867676	2.5069220066070557
71	230.5903298854828	fix_post	2		12.0	69.0	2.5	/experiments/knapen_aot/videos/R_S_yt-LB9LoYfH_EA_15.mp4	0.0	306.3756067752838	0.10002589225769043
72	230.69035577774048	fix_pre	0		31.0	70.0	2.5	blank	1.0	306.4756326675415	0.25833702087402344
72	230.94048190116882	response	0	2		70.0	2.5	blank	1.0	306.72575879096985	
72	230.9486927986145	movie	1		301.0	70.0	2.5	blank	1.0	306.7339696884155	2.5083041191101074
72	233.4569969177246	fix_post	2		12.0	70.0	2.5	blank	1.0	309.24227380752563	0.099945068359375
73	233.55694198608398	fix_pre	0		46.0	71.0	2.5	/experiments/knapen_aot/videos/S_yt-fCjjH_4i8Fg_115.mp4	0.0	309.342218875885	0.3833580017089844
73	233.93226194381714	response	0	2		71.0	2.5	/experiments/knapen_aot/videos/S_yt-fCjjH_4i8Fg_115.mp4	0.0	309.71753883361816	
73	233.94029998779297	movie	1		301.0	71.0	2.5	/experiments/knapen_aot/videos/S_yt-fCjjH_4i8Fg_115.mp4	0.0	309.725576877594	2.5084099769592285
73	236.4487099647522	fix_post	2		12.0	71.0	2.5	/experiments/knapen_aot/videos/S_yt-fCjjH_4i8Fg_115.mp4	0.0	312.2339868545532	0.09997987747192383
74	236.54868984222412	fix_pre	0		72.0	72.0	2.5	/experiments/knapen_aot/videos/R_S_comp_LA_A006_C004_v01_SDR_FINAL_PS_20180730_SDR_2K_AVC.mp4	0.0	312.33396673202515	0.5999090671539307
74	237.14046096801758	response	0	2		72.0	2.5	/experiments/knapen_aot/videos/R_S_comp_LA_A006_C004_v01_SDR_FINAL_PS_20180730_SDR_2K_AVC.mp4	0.0	312.9257378578186	
74	237.14859890937805	movie	1		169.0	72.0	2.5	/experiments/knapen_aot/videos/R_S_comp_LA_A006_C004_v01_SDR_FINAL_PS_20180730_SDR_2K_AVC.mp4	0.0	312.9338757991791	2.5084099769592285
74	239.65700888633728	fix_post	2		12.0	72.0	2.5	/experiments/knapen_aot/videos/R_S_comp_LA_A006_C004_v01_SDR_FINAL_PS_20180730_SDR_2K_AVC.mp4	0.0	315.4422857761383	0.09998512268066406
75	239.75699400901794	fix_pre	0		32.0	73.0	2.5	/experiments/knapen_aot/videos/R_S_yt-mL3MuCfKtdY_79.mp4	0.0	315.54227089881897	0.2665719985961914
75	240.01542687416077	response	0	2		73.0	2.5	/experiments/knapen_aot/videos/R_S_yt-mL3MuCfKtdY_79.mp4	0.0	315.8007037639618	
75	240.02356600761414	movie	1		301.0	73.0	2.5	/experiments/knapen_aot/videos/R_S_yt-mL3MuCfKtdY_79.mp4	0.0	315.80884289741516	2.5083439350128174
75	242.53190994262695	fix_post	2		12.0	73.0	2.5	/experiments/knapen_aot/videos/R_S_yt-mL3MuCfKtdY_79.mp4	0.0	318.317186832428	0.10007286071777344
76	242.63198280334473	fix_pre	0		71.0	74.0	2.5	/experiments/knapen_aot/videos/S_yt-lzXao6Reec4_14.mp4	0.0	318.41725969314575	0.5916330814361572
76	243.21544194221497	response	0	2		74.0	2.5	/experiments/knapen_aot/videos/S_yt-lzXao6Reec4_14.mp4	0.0	319.000718832016	
76	243.22361588478088	movie	1		298.0	74.0	2.5	/experiments/knapen_aot/videos/S_yt-lzXao6Reec4_14.mp4	0.0	319.0088927745819	2.5082759857177734
76	245.73189187049866	fix_post	2		12.0	74.0	2.5	/experiments/knapen_aot/videos/S_yt-lzXao6Reec4_14.mp4	0.0	321.5171687602997	0.0999441146850586
77	245.83183598518372	fix_pre	0		53.0	75.0	2.5	/experiments/knapen_aot/videos/R_S_P007_C027_UHD_SDR_2K_AVC.mp4	0.0	321.61711287498474	0.44169092178344727
77	246.2579309940338	response	0	2		75.0	2.5	/experiments/knapen_aot/videos/R_S_P007_C027_UHD_SDR_2K_AVC.mp4	0.0	322.04320788383484	
77	246.27352690696716	movie	1		176.0	75.0	2.5	/experiments/knapen_aot/videos/R_S_P007_C027_UHD_SDR_2K_AVC.mp4	0.0	322.0588037967682	2.5084378719329834
77	248.78196477890015	fix_post	2		12.0	75.0	2.5	/experiments/knapen_aot/videos/R_S_P007_C027_UHD_SDR_2K_AVC.mp4	0.0	324.5672416687012	0.10002422332763672
78	248.88198900222778	fix_pre	0		101.0	76.0	2.5	/experiments/knapen_aot/videos/R_S_yt-XYULt48onn4_6.mp4	0.0	324.6672658920288	0.8415918350219727
78	249.71544194221497	response	0	2		76.0	2.5	/experiments/knapen_aot/videos/R_S_yt-XYULt48onn4_6.mp4	0.0	325.500718832016	
78	249.72358083724976	movie	1		301.0	76.0	2.5	/experiments/knapen_aot/videos/R_S_yt-XYULt48onn4_6.mp4	0.0	325.5088577270508	2.5082671642303467
78	252.2318480014801	fix_post	2		12.0	76.0	2.5	/experiments/knapen_aot/videos/R_S_yt-XYULt48onn4_6.mp4	0.0	328.0171248912811	0.10003089904785156
79	252.33187890052795	fix_pre	0		107.0	77.0	2.5	blank	1.0	328.117155790329	0.891700029373169
79	253.21553897857666	response	0	2		77.0	2.5	blank	1.0	329.0008158683777	
79	253.22357892990112	movie	1		301.0	77.0	2.5	blank	1.0	329.00885581970215	2.5082478523254395
79	255.73182678222656	fix_post	2		12.0	77.0	2.5	blank	1.0	331.5171036720276	0.10002923011779785
80	255.83185601234436	fix_pre	0		61.0	78.0	2.5	/experiments/knapen_aot/videos/S_yt-wVMhACNFF-M_154.mp4	0.0	331.6171329021454	0.5083329677581787
80	256.3319458961487	response	0	2		78.0	2.5	/experiments/knapen_aot/videos/S_yt-wVMhACNFF-M_154.mp4	0.0	332.1172227859497	
80	256.34018898010254	movie	1		301.0	78.0	2.5	/experiments/knapen_aot/videos/S_yt-wVMhACNFF-M_154.mp4	0.0	332.12546586990356	2.5083768367767334
80	258.8485658168793	fix_post	2		12.0	78.0	2.5	/experiments/knapen_aot/videos/S_yt-wVMhACNFF-M_154.mp4	0.0	334.6338427066803	0.09998011589050293
81	258.9485459327698	fix_pre	0		140.0	79.0	2.5	/experiments/knapen_aot/videos/R_S_yt-GWOOQZ19-oU_331.mp4	0.0	334.7338228225708	1.1666290760040283
81	260.10700488090515	response	0	2		79.0	2.5	/experiments/knapen_aot/videos/R_S_yt-GWOOQZ19-oU_331.mp4	0.0	335.8922817707062	
81	260.1151750087738	movie	1		301.0	79.0	2.5	/experiments/knapen_aot/videos/R_S_yt-GWOOQZ19-oU_331.mp4	0.0	335.90045189857483	2.508316993713379
81	262.6234920024872	fix_post	2		12.0	79.0	2.5	/experiments/knapen_aot/videos/R_S_yt-GWOOQZ19-oU_331.mp4	0.0	338.4087688922882	0.10007095336914062
82	262.7235629558563	fix_pre	0		65.0	80.0	2.5	/experiments/knapen_aot/videos/R_S_ILSVRC2015_train_00323000.mp4	0.0	338.50883984565735	0.5416049957275391
82	263.2570159435272	response	0	2		80.0	2.5	/experiments/knapen_aot/videos/R_S_ILSVRC2015_train_00323000.mp4	0.0	339.04229283332825	
82	263.26516795158386	movie	1		301.0	80.0	2.5	/experiments/knapen_aot/videos/R_S_ILSVRC2015_train_00323000.mp4	0.0	339.0504448413849	2.50827693939209
82	265.77344489097595	fix_post	2		12.0	80.0	2.5	/experiments/knapen_aot/videos/R_S_ILSVRC2015_train_00323000.mp4	0.0	341.558721780777	0.10003399848937988
83	265.87347888946533	fix_pre	0		79.0	81.0	2.5	/experiments/knapen_aot/videos/R_S_yt-CEQnXB0LxQU_278.mp4	0.0	341.65875577926636	0.6583569049835205
83	266.5161919593811	response	0	2		81.0	2.5	/experiments/knapen_aot/videos/R_S_yt-CEQnXB0LxQU_278.mp4	0.0	342.30146884918213	
83	266.53183579444885	movie	1		301.0	81.0	2.5	/experiments/knapen_aot/videos/R_S_yt-CEQnXB0LxQU_278.mp4	0.0	342.3171126842499	2.5083770751953125
83	269.04021286964417	fix_post	2		12.0	81.0	2.5	/experiments/knapen_aot/videos/R_S_yt-CEQnXB0LxQU_278.mp4	0.0	344.8254897594452	0.1000370979309082
84	269.1402499675751	fix_pre	0		77.0	82.0	2.5	blank	1.0	344.9255268573761	0.6415538787841797
84	269.77371883392334	response	0	2		82.0	2.5	blank	1.0	345.55899572372437	
84	269.78180384635925	movie	1		301.0	82.0	2.5	blank	1.0	345.5670807361603	2.508384943008423
84	272.2901887893677	fix_post	2		12.0	82.0	2.5	blank	1.0	348.0754656791687	0.09991216659545898
85	272.39010095596313	fix_pre	0		93.0	83.0	2.5	/experiments/knapen_aot/videos/S_production_ID_4325513.mp4	0.0	348.17537784576416	0.7762339115142822
85	273.1570198535919	response	0	2		83.0	2.5	/experiments/knapen_aot/videos/S_production_ID_4325513.mp4	0.0	348.94229674339294	
85	273.1663348674774	movie	1		210.0	83.0	2.5	/experiments/knapen_aot/videos/S_production_ID_4325513.mp4	0.0	348.95161175727844	2.5071589946746826
85	275.6734938621521	fix_post	2		12.0	83.0	2.5	/experiments/knapen_aot/videos/S_production_ID_4325513.mp4	0.0	351.4587707519531	0.1000051498413086
87	275.7734990119934	stim	0		128.0					351.55877590179443	1.0666790008544922
87	276.8293159008026	response	0	space						352.61459279060364	
