trial_nr	onset	event_type	phase	response	nr_frames	movie_index	movie_duration	movie_file	blank	onset_abs	duration
0	0.12493515014648438	stim	0		90.0					104.57835912704468	0.7498838901519775
0	0.8665640354156494	response	0	space						105.31998801231384	
1	0.8748190402984619	stim	0		121.0					105.32824301719666	1.0084071159362793
1	1.8832261562347412	stim	1		120.0					106.33665013313293	0.9995989799499512
1	2.5579590797424316	response	1	space						107.01138305664062	
2	2.8828251361846924	fix_pre	0		796.0	0.0	2.5	/experiments/knapen_aot/videos/S_yt-IX6uxR5DSKk_2.mp4	0.0	107.33624911308289	6.635756969451904
2	9.510120153427124	response	0	2		0.0	2.5	/experiments/knapen_aot/videos/S_yt-IX6uxR5DSKk_2.mp4	0.0	113.96354413032532	
2	9.518582105636597	movie	1		298.0	0.0	2.5	/experiments/knapen_aot/videos/S_yt-IX6uxR5DSKk_2.mp4	0.0	113.97200608253479	2.5059139728546143
2	12.024496078491211	fix_post	2		12.0	0.0	2.5	/experiments/knapen_aot/videos/S_yt-IX6uxR5DSKk_2.mp4	0.0	116.4779200553894	0.09997797012329102
3	12.124474048614502	fix_pre	0		37.0	1.0	2.5	/experiments/knapen_aot/videos/R_S_yt-Rybd-sKJFz0_78.mp4	0.0	116.5778980255127	0.308337926864624
3	12.424613952636719	response	0	2		1.0	2.5	/experiments/knapen_aot/videos/R_S_yt-Rybd-sKJFz0_78.mp4	0.0	116.87803792953491	
3	12.432811975479126	movie	1		301.0	1.0	2.5	/experiments/knapen_aot/videos/R_S_yt-Rybd-sKJFz0_78.mp4	0.0	116.88623595237732	2.5082709789276123
3	14.941082954406738	fix_post	2		12.0	1.0	2.5	/experiments/knapen_aot/videos/R_S_yt-Rybd-sKJFz0_78.mp4	0.0	119.39450693130493	0.09993410110473633
4	15.041017055511475	fix_pre	0		24.0	2.0	2.5	/experiments/knapen_aot/videos/R_S_yt-lv6mhnH7_g4_134.mp4	0.0	119.49444103240967	0.2000749111175537
4	15.232874155044556	response	0	2		2.0	2.5	/experiments/knapen_aot/videos/R_S_yt-lv6mhnH7_g4_134.mp4	0.0	119.68629813194275	
4	15.241091966629028	movie	1		301.0	2.0	2.5	/experiments/knapen_aot/videos/R_S_yt-lv6mhnH7_g4_134.mp4	0.0	119.69451594352722	2.508270025253296
4	17.749361991882324	fix_post	2		12.0	2.0	2.5	/experiments/knapen_aot/videos/R_S_yt-lv6mhnH7_g4_134.mp4	0.0	122.20278596878052	0.100067138671875
5	17.8494291305542	fix_pre	0		27.0	3.0	2.5	/experiments/knapen_aot/videos/R_S_yt-7NjoFHBdP7c_102.mp4	0.0	122.30285310745239	0.22495698928833008
5	18.066231966018677	response	0	2		3.0	2.5	/experiments/knapen_aot/videos/R_S_yt-7NjoFHBdP7c_102.mp4	0.0	122.51965594291687	
5	18.07438611984253	movie	1		301.0	3.0	2.5	/experiments/knapen_aot/videos/R_S_yt-7NjoFHBdP7c_102.mp4	0.0	122.52781009674072	2.50833797454834
5	20.58272409439087	fix_post	2		12.0	3.0	2.5	/experiments/knapen_aot/videos/R_S_yt-7NjoFHBdP7c_102.mp4	0.0	125.03614807128906	0.1000208854675293
6	20.6827449798584	fix_pre	0		19.0	4.0	2.5	/experiments/knapen_aot/videos/S_yt-ZwnliF0525U_95.mp4	0.0	125.13616895675659	0.15830206871032715
6	20.832903146743774	response	0	2		4.0	2.5	/experiments/knapen_aot/videos/S_yt-ZwnliF0525U_95.mp4	0.0	125.28632712364197	
6	20.841047048568726	movie	1		301.0	4.0	2.5	/experiments/knapen_aot/videos/S_yt-ZwnliF0525U_95.mp4	0.0	125.29447102546692	2.5083580017089844
6	23.34940505027771	fix_post	2		12.0	4.0	2.5	/experiments/knapen_aot/videos/S_yt-ZwnliF0525U_95.mp4	0.0	127.8028290271759	0.09996294975280762
7	23.449368000030518	fix_pre	0		8.0	5.0	2.5	blank	1.0	127.90279197692871	0.06688594818115234
7	23.50780701637268	response	0	4		5.0	2.5	blank	1.0	127.96123099327087	
7	23.51625394821167	movie	1		301.0	5.0	2.5	blank	1.0	127.96967792510986	2.508153200149536
7	26.024407148361206	fix_post	2		12.0	5.0	2.5	blank	1.0	130.4778311252594	0.10000991821289062
8	26.124417066574097	fix_pre	0		14.0	6.0	2.5	/experiments/knapen_aot/videos/R_S_ILSVRC2015_train_00354001.mp4	0.0	130.5778410434723	0.11662101745605469
8	26.225439071655273	response	0	2		6.0	2.5	/experiments/knapen_aot/videos/R_S_ILSVRC2015_train_00354001.mp4	0.0	130.67886304855347	
8	26.24103808403015	movie	1		301.0	6.0	2.5	/experiments/knapen_aot/videos/R_S_ILSVRC2015_train_00354001.mp4	0.0	130.69446206092834	2.5082740783691406
8	28.749312162399292	fix_post	2		12.0	6.0	2.5	/experiments/knapen_aot/videos/R_S_ILSVRC2015_train_00354001.mp4	0.0	133.20273613929749	0.1000368595123291
9	28.84934902191162	fix_pre	0		37.0	7.0	2.5	/experiments/knapen_aot/videos/S_yt-LUIvP_NDWAs_45.mp4	0.0	133.30277299880981	0.308319091796875
9	29.149532079696655	response	0	2		7.0	2.5	/experiments/knapen_aot/videos/S_yt-LUIvP_NDWAs_45.mp4	0.0	133.60295605659485	
9	29.157668113708496	movie	1		301.0	7.0	2.5	/experiments/knapen_aot/videos/S_yt-LUIvP_NDWAs_45.mp4	0.0	133.6110920906067	2.5083730220794678
9	31.666041135787964	fix_post	2		12.0	7.0	2.5	/experiments/knapen_aot/videos/S_yt-LUIvP_NDWAs_45.mp4	0.0	136.11946511268616	0.09998583793640137
10	31.766026973724365	fix_pre	0		20.0	8.0	2.5	/experiments/knapen_aot/videos/S_yt-9NV8zv2Sdq4_30.mp4	0.0	136.21945095062256	0.16660809516906738
10	31.924500942230225	response	0	2		8.0	2.5	/experiments/knapen_aot/videos/S_yt-9NV8zv2Sdq4_30.mp4	0.0	136.37792491912842	
10	31.932635068893433	movie	1		301.0	8.0	2.5	/experiments/knapen_aot/videos/S_yt-9NV8zv2Sdq4_30.mp4	0.0	136.38605904579163	2.5083608627319336
10	34.440995931625366	fix_post	2		12.0	8.0	2.5	/experiments/knapen_aot/videos/S_yt-9NV8zv2Sdq4_30.mp4	0.0	138.89441990852356	0.10004520416259766
11	34.541041135787964	fix_pre	0		10.0	9.0	2.5	/experiments/knapen_aot/videos/R_S_yt-R0gFQo85cAE_5.mp4	0.0	138.99446511268616	0.08329892158508301
11	34.61003112792969	response	0	2		9.0	2.5	/experiments/knapen_aot/videos/R_S_yt-R0gFQo85cAE_5.mp4	0.0	139.06345510482788	
11	34.62434005737305	movie	1		301.0	9.0	2.5	/experiments/knapen_aot/videos/R_S_yt-R0gFQo85cAE_5.mp4	0.0	139.07776403427124	2.508315086364746
11	37.13265514373779	fix_post	2		12.0	9.0	2.5	/experiments/knapen_aot/videos/R_S_yt-R0gFQo85cAE_5.mp4	0.0	141.586079120636	0.09997081756591797
12	37.23262596130371	fix_pre	0		5.0	10.0	2.5	/experiments/knapen_aot/videos/R_S_yt-UKrWbJEs7pw_74.mp4	0.0	141.6860499382019	0.0428919792175293
12	37.26614308357239	response	0	2		10.0	2.5	/experiments/knapen_aot/videos/R_S_yt-UKrWbJEs7pw_74.mp4	0.0	141.71956706047058	
12	37.27551794052124	movie	1		301.0	10.0	2.5	/experiments/knapen_aot/videos/R_S_yt-UKrWbJEs7pw_74.mp4	0.0	141.72894191741943	2.5071640014648438
12	39.64939212799072	response	1	2		10.0	2.5	/experiments/knapen_aot/videos/R_S_yt-UKrWbJEs7pw_74.mp4	0.0	144.10281610488892	
12	39.782681941986084	fix_post	2		12.0	10.0	2.5	/experiments/knapen_aot/videos/R_S_yt-UKrWbJEs7pw_74.mp4	0.0	144.23610591888428	0.0999441146850586
13	39.88262605667114	fix_pre	0		3.0	11.0	2.5	/experiments/knapen_aot/videos/R_S_comp_N008_C009_PS_v01_SDR_PS_20180925_SDR_2K_AVC.mp4	0.0	144.33605003356934	0.025012969970703125
13	39.899662017822266	response	0	2		11.0	2.5	/experiments/knapen_aot/videos/R_S_comp_N008_C009_PS_v01_SDR_PS_20180925_SDR_2K_AVC.mp4	0.0	144.35308599472046	
13	39.907639026641846	movie	1		168.0	11.0	2.5	/experiments/knapen_aot/videos/R_S_comp_N008_C009_PS_v01_SDR_PS_20180925_SDR_2K_AVC.mp4	0.0	144.36106300354004	2.508350133895874
13	42.41598916053772	fix_post	2		12.0	11.0	2.5	/experiments/knapen_aot/videos/R_S_comp_N008_C009_PS_v01_SDR_PS_20180925_SDR_2K_AVC.mp4	0.0	146.8694131374359	0.10000991821289062
14	42.51599907875061	fix_pre	0		9.0	12.0	2.5	/experiments/knapen_aot/videos/R_S_yt-a0axt7n0GuQ_19.mp4	0.0	146.9694230556488	0.07497096061706543
14	42.58271598815918	response	0	2		12.0	2.5	/experiments/knapen_aot/videos/R_S_yt-a0axt7n0GuQ_19.mp4	0.0	147.03613996505737	
14	42.590970039367676	movie	1		301.0	12.0	2.5	/experiments/knapen_aot/videos/R_S_yt-a0axt7n0GuQ_19.mp4	0.0	147.04439401626587	2.5083370208740234
14	45.0993070602417	fix_post	2		12.0	12.0	2.5	/experiments/knapen_aot/videos/R_S_yt-a0axt7n0GuQ_19.mp4	0.0	149.5527310371399	0.09996294975280762
15	45.19927000999451	fix_pre	0		12.0	13.0	2.5	blank	1.0	149.6526939868927	0.10000300407409668
15	45.291100025177	response	0	2		13.0	2.5	blank	1.0	149.7445240020752	
15	45.2992730140686	movie	1		301.0	13.0	2.5	blank	1.0	149.7526969909668	2.508358955383301
15	47.807631969451904	fix_post	2		12.0	13.0	2.5	blank	1.0	152.2610559463501	0.10005497932434082
16	47.907686948776245	fix_pre	0		16.0	14.0	2.5	/experiments/knapen_aot/videos/R_S_yt-nfDPFHUDq8g_136.mp4	0.0	152.36111092567444	0.13318514823913574
16	48.03271794319153	response	0	2		14.0	2.5	/experiments/knapen_aot/videos/R_S_yt-nfDPFHUDq8g_136.mp4	0.0	152.48614192008972	
16	48.04087209701538	movie	1		301.0	14.0	2.5	/experiments/knapen_aot/videos/R_S_yt-nfDPFHUDq8g_136.mp4	0.0	152.49429607391357	2.5083999633789062
16	50.54927206039429	fix_post	2		12.0	14.0	2.5	/experiments/knapen_aot/videos/R_S_yt-nfDPFHUDq8g_136.mp4	0.0	155.00269603729248	0.0999910831451416
17	50.64926314353943	fix_pre	0		7.0	15.0	2.5	/experiments/knapen_aot/videos/S_yt-JVhfcpV7OaY_71.mp4	0.0	155.10268712043762	0.05829787254333496
17	50.69942903518677	response	0	2		15.0	2.5	/experiments/knapen_aot/videos/S_yt-JVhfcpV7OaY_71.mp4	0.0	155.15285301208496	
17	50.707561016082764	movie	1		301.0	15.0	2.5	/experiments/knapen_aot/videos/S_yt-JVhfcpV7OaY_71.mp4	0.0	155.16098499298096	2.5083770751953125
17	53.215938091278076	fix_post	2		12.0	15.0	2.5	/experiments/knapen_aot/videos/S_yt-JVhfcpV7OaY_71.mp4	0.0	157.66936206817627	0.09998202323913574
18	53.31592011451721	fix_pre	0		7.0	16.0	2.5	/experiments/knapen_aot/videos/S_ILSVRC2015_train_00572000.mp4	0.0	157.7693440914154	0.05828285217285156
18	53.36613416671753	response	0	2		16.0	2.5	/experiments/knapen_aot/videos/S_ILSVRC2015_train_00572000.mp4	0.0	157.81955814361572	
18	53.37420296669006	movie	1		301.0	16.0	2.5	/experiments/knapen_aot/videos/S_ILSVRC2015_train_00572000.mp4	0.0	157.82762694358826	2.5083301067352295
18	55.88253307342529	fix_post	2		12.0	16.0	2.5	/experiments/knapen_aot/videos/S_ILSVRC2015_train_00572000.mp4	0.0	160.3359570503235	0.10001587867736816
19	55.98254895210266	fix_pre	0		1.0	17.0	2.5	/experiments/knapen_aot/videos/R_S_yt-7Ya-rGPO8cM_159.mp4	0.0	160.43597292900085	0.008352041244506836
19	55.984184980392456	response	0	2		17.0	2.5	/experiments/knapen_aot/videos/R_S_yt-7Ya-rGPO8cM_159.mp4	0.0	160.43760895729065	
19	55.99090099334717	movie	1		301.0	17.0	2.5	/experiments/knapen_aot/videos/R_S_yt-7Ya-rGPO8cM_159.mp4	0.0	160.44432497024536	2.50833797454834
19	58.49923896789551	fix_post	2		12.0	17.0	2.5	/experiments/knapen_aot/videos/R_S_yt-7Ya-rGPO8cM_159.mp4	0.0	162.9526629447937	0.09997296333312988
20	58.59921193122864	fix_pre	0		19.0	18.0	2.5	/experiments/knapen_aot/videos/S_yt-J1dw4AznwmQ_7.mp4	0.0	163.05263590812683	0.15831923484802246
20	58.74941396713257	response	0	2		18.0	2.5	/experiments/knapen_aot/videos/S_yt-J1dw4AznwmQ_7.mp4	0.0	163.20283794403076	
20	58.75753116607666	movie	1		299.0	18.0	2.5	/experiments/knapen_aot/videos/S_yt-J1dw4AznwmQ_7.mp4	0.0	163.21095514297485	2.508330821990967
20	61.26586198806763	fix_post	2		12.0	18.0	2.5	/experiments/knapen_aot/videos/S_yt-J1dw4AznwmQ_7.mp4	0.0	165.71928596496582	0.0999760627746582
21	61.365838050842285	fix_pre	0		7.0	19.0	2.5	/experiments/knapen_aot/videos/S_yt-PP93D7b7Ni4_10.mp4	0.0	165.81926202774048	0.05832791328430176
21	61.41599106788635	response	0	2		19.0	2.5	/experiments/knapen_aot/videos/S_yt-PP93D7b7Ni4_10.mp4	0.0	165.86941504478455	
21	61.42416596412659	movie	1		301.0	19.0	2.5	/experiments/knapen_aot/videos/S_yt-PP93D7b7Ni4_10.mp4	0.0	165.87758994102478	2.5083260536193848
21	63.93249201774597	fix_post	2		12.0	19.0	2.5	/experiments/knapen_aot/videos/S_yt-PP93D7b7Ni4_10.mp4	0.0	168.38591599464417	0.09998393058776855
22	64.03247594833374	fix_pre	0		9.0	20.0	2.5	/experiments/knapen_aot/videos/R_S_yt-bwSRV1Vr21s_435.mp4	0.0	168.48589992523193	0.0757761001586914
22	64.09929704666138	response	0	2		20.0	2.5	/experiments/knapen_aot/videos/R_S_yt-bwSRV1Vr21s_435.mp4	0.0	168.55272102355957	
22	64.10825204849243	movie	1		301.0	20.0	2.5	/experiments/knapen_aot/videos/R_S_yt-bwSRV1Vr21s_435.mp4	0.0	168.56167602539062	2.5076398849487305
22	66.61589193344116	fix_post	2		12.0	20.0	2.5	/experiments/knapen_aot/videos/R_S_yt-bwSRV1Vr21s_435.mp4	0.0	171.06931591033936	0.09998011589050293
23	66.71587204933167	fix_pre	0		263.0	21.0	2.5	blank	1.0	171.16929602622986	2.191570997238159
23	68.89932012557983	response	0	2		21.0	2.5	blank	1.0	173.35274410247803	
23	68.90744304656982	movie	1		301.0	21.0	2.5	blank	1.0	173.36086702346802	2.508307933807373
23	71.14927315711975	response	1	2		21.0	2.5	blank	1.0	175.60269713401794	
23	71.4157509803772	fix_post	2		12.0	21.0	2.5	blank	1.0	175.8691749572754	0.10004997253417969
24	71.51580095291138	fix_pre	0		31.0	22.0	2.5	/experiments/knapen_aot/videos/S_yt-bwSRV1Vr21s_435.mp4	0.0	175.96922492980957	0.25907421112060547
24	71.76595401763916	response	0	2		22.0	2.5	/experiments/knapen_aot/videos/S_yt-bwSRV1Vr21s_435.mp4	0.0	176.21937799453735	
24	71.77487516403198	movie	1		301.0	22.0	2.5	/experiments/knapen_aot/videos/S_yt-bwSRV1Vr21s_435.mp4	0.0	176.22829914093018	2.5076279640197754
24	74.28250312805176	fix_post	2		12.0	22.0	2.5	/experiments/knapen_aot/videos/S_yt-bwSRV1Vr21s_435.mp4	0.0	178.73592710494995	0.10000395774841309
25	74.38250708580017	fix_pre	0		6.0	23.0	2.5	/experiments/knapen_aot/videos/S_yt-0MB_IYX1fgo_44.mp4	0.0	178.83593106269836	0.05219602584838867
25	74.42455816268921	response	0	2		23.0	2.5	/experiments/knapen_aot/videos/S_yt-0MB_IYX1fgo_44.mp4	0.0	178.8779821395874	
25	74.43470311164856	movie	1		301.0	23.0	2.5	/experiments/knapen_aot/videos/S_yt-0MB_IYX1fgo_44.mp4	0.0	178.88812708854675	2.50614595413208
25	76.94084906578064	fix_post	2		12.0	23.0	2.5	/experiments/knapen_aot/videos/S_yt-0MB_IYX1fgo_44.mp4	0.0	181.39427304267883	0.09991908073425293
26	77.04076814651489	fix_pre	0		8.0	24.0	2.5	/experiments/knapen_aot/videos/R_S_yt-GBt59U0KUR0_6.mp4	0.0	181.4941921234131	0.06743001937866211
26	77.09928703308105	response	0	2		24.0	2.5	/experiments/knapen_aot/videos/R_S_yt-GBt59U0KUR0_6.mp4	0.0	181.55271100997925	
26	77.10819816589355	movie	1		301.0	24.0	2.5	/experiments/knapen_aot/videos/R_S_yt-GBt59U0KUR0_6.mp4	0.0	181.56162214279175	2.507568836212158
26	79.61576700210571	fix_post	2		12.0	24.0	2.5	/experiments/knapen_aot/videos/R_S_yt-GBt59U0KUR0_6.mp4	0.0	184.0691909790039	0.1000211238861084
27	79.71578812599182	fix_pre	0		8.0	25.0	2.5	/experiments/knapen_aot/videos/R_S_yt-GWOOQZ19-oU_331.mp4	0.0	184.16921210289001	0.06660890579223633
27	79.77422904968262	response	0	2		25.0	2.5	/experiments/knapen_aot/videos/R_S_yt-GWOOQZ19-oU_331.mp4	0.0	184.2276530265808	
27	79.78239703178406	movie	1		301.0	25.0	2.5	/experiments/knapen_aot/videos/R_S_yt-GWOOQZ19-oU_331.mp4	0.0	184.23582100868225	2.508336067199707
27	82.29073309898376	fix_post	2		12.0	25.0	2.5	/experiments/knapen_aot/videos/R_S_yt-GWOOQZ19-oU_331.mp4	0.0	186.74415707588196	0.1000518798828125
28	82.39078497886658	fix_pre	0		18.0	26.0	2.5	/experiments/knapen_aot/videos/S_I003_C015_SDR_2K_AVC.mp4	0.0	186.84420895576477	0.1499481201171875
28	82.53253316879272	response	0	2		26.0	2.5	/experiments/knapen_aot/videos/S_I003_C015_SDR_2K_AVC.mp4	0.0	186.98595714569092	
28	82.54073309898376	movie	1		167.0	26.0	2.5	/experiments/knapen_aot/videos/S_I003_C015_SDR_2K_AVC.mp4	0.0	186.99415707588196	2.5082428455352783
28	85.04897594451904	fix_post	2		12.0	26.0	2.5	/experiments/knapen_aot/videos/S_I003_C015_SDR_2K_AVC.mp4	0.0	189.50239992141724	0.10008001327514648
29	85.14905595779419	fix_pre	0		21.0	27.0	2.5	blank	1.0	189.60247993469238	0.17499804496765137
29	85.31591200828552	response	0	2		27.0	2.5	blank	1.0	189.76933598518372	
29	85.32405400276184	movie	1		301.0	27.0	2.5	blank	1.0	189.77747797966003	2.5083301067352295
29	87.83238410949707	fix_post	2		12.0	27.0	2.5	blank	1.0	192.28580808639526	0.09996485710144043
30	87.93234896659851	fix_pre	0		18.0	28.0	2.5	/experiments/knapen_aot/videos/S_pexels-cottonbro-10639398.mp4	0.0	192.3857729434967	0.15010905265808105
30	88.07421803474426	response	0	2		28.0	2.5	/experiments/knapen_aot/videos/S_pexels-cottonbro-10639398.mp4	0.0	192.52764201164246	
30	88.08245801925659	movie	1		208.0	28.0	2.5	/experiments/knapen_aot/videos/S_pexels-cottonbro-10639398.mp4	0.0	192.53588199615479	2.5083041191101074
30	90.5907621383667	fix_post	2		12.0	28.0	2.5	/experiments/knapen_aot/videos/S_pexels-cottonbro-10639398.mp4	0.0	195.0441861152649	0.09998798370361328
31	90.69075012207031	fix_pre	0		13.0	29.0	2.5	/experiments/knapen_aot/videos/S_yt-QqSceHxY3d0_356.mp4	0.0	195.1441740989685	0.1082909107208252
31	90.79088997840881	response	0	2		29.0	2.5	/experiments/knapen_aot/videos/S_yt-QqSceHxY3d0_356.mp4	0.0	195.244313955307	
31	90.79904103279114	movie	1		301.0	29.0	2.5	/experiments/knapen_aot/videos/S_yt-QqSceHxY3d0_356.mp4	0.0	195.25246500968933	2.508354902267456
31	93.3073959350586	fix_post	2		12.0	29.0	2.5	/experiments/knapen_aot/videos/S_yt-QqSceHxY3d0_356.mp4	0.0	197.7608199119568	0.09996318817138672
32	93.40735912322998	fix_pre	0		4.0	30.0	2.5	/experiments/knapen_aot/videos/R_S_TYs22gin-EU_57.mp4	0.0	197.86078310012817	0.03406786918640137
32	93.43272709846497	response	0	2		30.0	2.5	/experiments/knapen_aot/videos/R_S_TYs22gin-EU_57.mp4	0.0	197.88615107536316	
32	93.44142699241638	movie	1		300.0	30.0	2.5	/experiments/knapen_aot/videos/R_S_TYs22gin-EU_57.mp4	0.0	197.89485096931458	2.507603168487549
32	95.94903016090393	fix_post	2		12.0	30.0	2.5	/experiments/knapen_aot/videos/R_S_TYs22gin-EU_57.mp4	0.0	200.40245413780212	0.10000395774841309
33	96.04903411865234	fix_pre	0		1.0	31.0	2.5	/experiments/knapen_aot/videos/S_production_ID_4325509.mp4	0.0	200.50245809555054	0.01045989990234375
33	96.05072402954102	response	0	2		31.0	2.5	/experiments/knapen_aot/videos/S_production_ID_4325509.mp4	0.0	200.5041480064392	
33	96.05949401855469	movie	1		180.0	31.0	2.5	/experiments/knapen_aot/videos/S_production_ID_4325509.mp4	0.0	200.51291799545288	2.5061399936676025
33	98.56563401222229	fix_post	2		12.0	31.0	2.5	/experiments/knapen_aot/videos/S_production_ID_4325509.mp4	0.0	203.01905798912048	0.10005593299865723
34	98.66568994522095	fix_pre	0		6.0	32.0	2.5	/experiments/knapen_aot/videos/S_video-12.mp4	0.0	203.11911392211914	0.04999709129333496
34	98.7074830532074	response	0	2		32.0	2.5	/experiments/knapen_aot/videos/S_video-12.mp4	0.0	203.1609070301056	
34	98.71568703651428	movie	1		165.0	32.0	2.5	/experiments/knapen_aot/videos/S_video-12.mp4	0.0	203.16911101341248	2.508305072784424
34	101.2239921092987	fix_post	2		12.0	32.0	2.5	/experiments/knapen_aot/videos/S_video-12.mp4	0.0	205.6774160861969	0.09998393058776855
35	101.32397603988647	fix_pre	0		14.0	33.0	2.5	blank	1.0	205.77740001678467	0.11728906631469727
35	101.4324860572815	response	0	2		33.0	2.5	blank	1.0	205.8859100341797	
35	101.44126510620117	movie	1		301.0	33.0	2.5	blank	1.0	205.89468908309937	2.5076699256896973
35	103.94893503189087	fix_post	2		12.0	33.0	2.5	blank	1.0	208.40235900878906	0.1001119613647461
36	104.04904699325562	fix_pre	0		15.0	34.0	2.5	/experiments/knapen_aot/videos/R_S_yt-PP93D7b7Ni4_10.mp4	0.0	208.5024709701538	0.12493896484375
36	104.16581201553345	response	0	2		34.0	2.5	/experiments/knapen_aot/videos/R_S_yt-PP93D7b7Ni4_10.mp4	0.0	208.61923599243164	
36	104.17398595809937	movie	1		300.0	34.0	2.5	/experiments/knapen_aot/videos/R_S_yt-PP93D7b7Ni4_10.mp4	0.0	208.62740993499756	2.508336067199707
36	106.68232202529907	fix_post	2		12.0	34.0	2.5	/experiments/knapen_aot/videos/R_S_yt-PP93D7b7Ni4_10.mp4	0.0	211.13574600219727	0.10002899169921875
36	106.74080395698547	response	2	2		34.0	2.5	/experiments/knapen_aot/videos/R_S_yt-PP93D7b7Ni4_10.mp4	0.0	211.19422793388367	
37	106.78235101699829	fix_pre	0		107.0	35.0	2.5	/experiments/knapen_aot/videos/R_S_pexels-artem-podrez-5457692.mp4	0.0	211.23577499389648	0.8915989398956299
37	107.66564702987671	response	0	2		35.0	2.5	/experiments/knapen_aot/videos/R_S_pexels-artem-podrez-5457692.mp4	0.0	212.1190710067749	
37	107.67394995689392	movie	1		166.0	35.0	2.5	/experiments/knapen_aot/videos/R_S_pexels-artem-podrez-5457692.mp4	0.0	212.12737393379211	2.5083839893341064
37	110.18233394622803	fix_post	2		12.0	35.0	2.5	/experiments/knapen_aot/videos/R_S_pexels-artem-podrez-5457692.mp4	0.0	214.63575792312622	0.0999751091003418
37	110.22410416603088	response	2	2		35.0	2.5	/experiments/knapen_aot/videos/R_S_pexels-artem-podrez-5457692.mp4	0.0	214.67752814292908	
38	110.28230905532837	fix_pre	0		409.0	36.0	2.5	/experiments/knapen_aot/videos/R_S_yt-dj0XQUJos38_14.mp4	0.0	214.73573303222656	3.4088330268859863
38	113.6824049949646	response	0	2		36.0	2.5	/experiments/knapen_aot/videos/R_S_yt-dj0XQUJos38_14.mp4	0.0	218.1358289718628	
38	113.69114208221436	movie	1		301.0	36.0	2.5	/experiments/knapen_aot/videos/R_S_yt-dj0XQUJos38_14.mp4	0.0	218.14456605911255	2.5077500343322754
38	116.19889211654663	fix_post	2		12.0	36.0	2.5	/experiments/knapen_aot/videos/R_S_yt-dj0XQUJos38_14.mp4	0.0	220.65231609344482	0.09998083114624023
39	116.29887294769287	fix_pre	0		21.0	37.0	2.5	/experiments/knapen_aot/videos/R_S_yt-gPhlnZG-pRY_4.mp4	0.0	220.75229692459106	0.17504119873046875
39	116.4657461643219	response	0	2		37.0	2.5	/experiments/knapen_aot/videos/R_S_yt-gPhlnZG-pRY_4.mp4	0.0	220.9191701412201	
39	116.47391414642334	movie	1		301.0	37.0	2.5	/experiments/knapen_aot/videos/R_S_yt-gPhlnZG-pRY_4.mp4	0.0	220.92733812332153	2.508342981338501
39	118.98225712776184	fix_post	2		12.0	37.0	2.5	/experiments/knapen_aot/videos/R_S_yt-gPhlnZG-pRY_4.mp4	0.0	223.43568110466003	0.09996390342712402
40	119.08222103118896	fix_pre	0		11.0	38.0	2.5	/experiments/knapen_aot/videos/R_S_yt-PvWkOmfZuSY_4.mp4	0.0	223.53564500808716	0.09167098999023438
40	119.16568803787231	response	0	2		38.0	2.5	/experiments/knapen_aot/videos/R_S_yt-PvWkOmfZuSY_4.mp4	0.0	223.6191120147705	
40	119.1738920211792	movie	1		301.0	38.0	2.5	/experiments/knapen_aot/videos/R_S_yt-PvWkOmfZuSY_4.mp4	0.0	223.6273159980774	2.508307933807373
40	121.68219995498657	fix_post	2		12.0	38.0	2.5	/experiments/knapen_aot/videos/R_S_yt-PvWkOmfZuSY_4.mp4	0.0	226.13562393188477	0.10005998611450195
40	121.74159097671509	response	2	2		38.0	2.5	/experiments/knapen_aot/videos/R_S_yt-PvWkOmfZuSY_4.mp4	0.0	226.19501495361328	
41	121.78225994110107	fix_pre	0		66.0	39.0	2.5	/experiments/knapen_aot/videos/S_production_ID_4153808.mp4	0.0	226.23568391799927	0.5499939918518066
41	122.3238890171051	response	0	2		39.0	2.5	/experiments/knapen_aot/videos/S_production_ID_4153808.mp4	0.0	226.7773129940033	
41	122.33225393295288	movie	1		199.0	39.0	2.5	/experiments/knapen_aot/videos/S_production_ID_4153808.mp4	0.0	226.78567790985107	2.5082950592041016
41	124.84054899215698	fix_post	2		12.0	39.0	2.5	/experiments/knapen_aot/videos/S_production_ID_4153808.mp4	0.0	229.29397296905518	0.10007810592651367
42	124.9406270980835	fix_pre	0		21.0	40.0	2.5	/experiments/knapen_aot/videos/R_S_pexels-marcus-aurelius-6785014.mp4	0.0	229.3940510749817	0.1749269962310791
42	125.10739612579346	response	0	2		40.0	2.5	/experiments/knapen_aot/videos/R_S_pexels-marcus-aurelius-6785014.mp4	0.0	229.56082010269165	
42	125.11555409431458	movie	1		171.0	40.0	2.5	/experiments/knapen_aot/videos/R_S_pexels-marcus-aurelius-6785014.mp4	0.0	229.56897807121277	2.508314847946167
42	127.62386894226074	fix_post	2		12.0	40.0	2.5	/experiments/knapen_aot/videos/R_S_pexels-marcus-aurelius-6785014.mp4	0.0	232.07729291915894	0.10008120536804199
43	127.72395014762878	fix_pre	0		12.0	41.0	2.5	blank	1.0	232.17737412452698	0.09994196891784668
43	127.81577801704407	response	0	2		41.0	2.5	blank	1.0	232.26920199394226	
43	127.82389211654663	movie	1		301.0	41.0	2.5	blank	1.0	232.27731609344482	2.5083749294281006
43	130.33226704597473	fix_post	2		12.0	41.0	2.5	blank	1.0	234.78569102287292	0.09997010231018066
43	130.41566801071167	response	2	2		41.0	2.5	blank	1.0	234.86909198760986	
44	130.4322371482849	fix_pre	0		124.0	42.0	2.5	/experiments/knapen_aot/videos/R_S_yt-PP93D7b7Ni4_10.mp4	0.0	234.8856611251831	1.0333068370819092
44	131.45731401443481	response	0	2		42.0	2.5	/experiments/knapen_aot/videos/R_S_yt-PP93D7b7Ni4_10.mp4	0.0	235.910737991333	
44	131.46554398536682	movie	1		301.0	42.0	2.5	/experiments/knapen_aot/videos/R_S_yt-PP93D7b7Ni4_10.mp4	0.0	235.91896796226501	2.5082790851593018
44	133.97382307052612	fix_post	2		12.0	42.0	2.5	/experiments/knapen_aot/videos/R_S_yt-PP93D7b7Ni4_10.mp4	0.0	238.42724704742432	0.09999704360961914
45	134.07382011413574	fix_pre	0		4.0	43.0	2.5	/experiments/knapen_aot/videos/R_S_production_ID_4269182.mp4	0.0	238.52724409103394	0.033815860748291016
45	134.09147715568542	response	0	2		43.0	2.5	/experiments/knapen_aot/videos/R_S_production_ID_4269182.mp4	0.0	238.54490113258362	
45	134.10763597488403	movie	1		196.0	43.0	2.5	/experiments/knapen_aot/videos/R_S_production_ID_4269182.mp4	0.0	238.56105995178223	2.507901191711426
45	136.61553716659546	fix_post	2		12.0	43.0	2.5	/experiments/knapen_aot/videos/R_S_production_ID_4269182.mp4	0.0	241.06896114349365	0.09990596771240234
46	136.71544313430786	fix_pre	0		6.0	44.0	2.5	/experiments/knapen_aot/videos/S_yt-AjyR9--Mx3A_44.mp4	0.0	241.16886711120605	0.05000782012939453
46	136.75736093521118	response	0	2		44.0	2.5	/experiments/knapen_aot/videos/S_yt-AjyR9--Mx3A_44.mp4	0.0	241.21078491210938	
46	136.76545095443726	movie	1		301.0	44.0	2.5	/experiments/knapen_aot/videos/S_yt-AjyR9--Mx3A_44.mp4	0.0	241.21887493133545	2.508342981338501
46	139.27379393577576	fix_post	2		12.0	44.0	2.5	/experiments/knapen_aot/videos/S_yt-AjyR9--Mx3A_44.mp4	0.0	243.72721791267395	0.09994101524353027
47	139.3737349510193	fix_pre	0		3.0	45.0	2.5	/experiments/knapen_aot/videos/R_S_yt-osdlC1buTaM_4.mp4	0.0	243.82715892791748	0.025803089141845703
47	139.39079809188843	response	0	2		45.0	2.5	/experiments/knapen_aot/videos/R_S_yt-osdlC1buTaM_4.mp4	0.0	243.84422206878662	
47	139.39953804016113	movie	1		301.0	45.0	2.5	/experiments/knapen_aot/videos/R_S_yt-osdlC1buTaM_4.mp4	0.0	243.85296201705933	2.5075840950012207
47	141.90712213516235	fix_post	2		12.0	45.0	2.5	/experiments/knapen_aot/videos/R_S_yt-osdlC1buTaM_4.mp4	0.0	246.36054611206055	0.10006189346313477
48	142.0071840286255	fix_pre	0		19.0	46.0	2.5	/experiments/knapen_aot/videos/S_yt-Q4edV5qiqu0_578.mp4	0.0	246.46060800552368	0.15830302238464355
48	142.15728616714478	response	0	2		46.0	2.5	/experiments/knapen_aot/videos/S_yt-Q4edV5qiqu0_578.mp4	0.0	246.61071014404297	
48	142.16548705101013	movie	1		301.0	46.0	2.5	/experiments/knapen_aot/videos/S_yt-Q4edV5qiqu0_578.mp4	0.0	246.61891102790833	2.5083420276641846
48	144.67382907867432	fix_post	2		12.0	46.0	2.5	/experiments/knapen_aot/videos/S_yt-Q4edV5qiqu0_578.mp4	0.0	249.1272530555725	0.10041999816894531
49	144.77424907684326	fix_pre	0		39.0	47.0	2.5	blank	1.0	249.22767305374146	0.32456207275390625
49	145.09062099456787	response	0	2		47.0	2.5	blank	1.0	249.54404497146606	
49	145.09881114959717	movie	1		301.0	47.0	2.5	blank	1.0	249.55223512649536	2.5083138942718506
49	147.60712504386902	fix_post	2		12.0	47.0	2.5	blank	1.0	252.0605490207672	0.10002493858337402
50	147.7071499824524	fix_pre	0		26.0	48.0	2.5	/experiments/knapen_aot/videos/R_S_yt-f9iXELY0EJ0_344.mp4	0.0	252.1605739593506	0.2168440818786621
50	147.91557002067566	response	0	2		48.0	2.5	/experiments/knapen_aot/videos/R_S_yt-f9iXELY0EJ0_344.mp4	0.0	252.36899399757385	
50	147.92399406433105	movie	1		301.0	48.0	2.5	/experiments/knapen_aot/videos/R_S_yt-f9iXELY0EJ0_344.mp4	0.0	252.37741804122925	2.5081450939178467
50	150.4321391582489	fix_post	2		12.0	48.0	2.5	/experiments/knapen_aot/videos/R_S_yt-f9iXELY0EJ0_344.mp4	0.0	254.8855631351471	0.09996581077575684
51	150.53210496902466	fix_pre	0		22.0	49.0	2.5	/experiments/knapen_aot/videos/S_yt-BW6jWEVbxxk_4.mp4	0.0	254.98552894592285	0.18331408500671387
51	150.70731496810913	response	0	2		49.0	2.5	/experiments/knapen_aot/videos/S_yt-BW6jWEVbxxk_4.mp4	0.0	255.16073894500732	
51	150.71541905403137	movie	1		301.0	49.0	2.5	/experiments/knapen_aot/videos/S_yt-BW6jWEVbxxk_4.mp4	0.0	255.16884303092957	2.508341073989868
51	153.22376012802124	fix_post	2		12.0	49.0	2.5	/experiments/knapen_aot/videos/S_yt-BW6jWEVbxxk_4.mp4	0.0	257.67718410491943	0.0999898910522461
52	153.3237500190735	fix_pre	0		34.0	50.0	2.5	/experiments/knapen_aot/videos/S_comp_GMT329_113NC_396B_1105_CHINA_v04_SDR_FINAL_20180706_F900F2700_SDR_2K_AVC.mp4	0.0	257.7771739959717	0.28368401527404785
52	153.5988781452179	response	0	2		50.0	2.5	/experiments/knapen_aot/videos/S_comp_GMT329_113NC_396B_1105_CHINA_v04_SDR_FINAL_20180706_F900F2700_SDR_2K_AVC.mp4	0.0	258.0523021221161	
52	153.60743403434753	movie	1		163.0	50.0	2.5	/experiments/knapen_aot/videos/S_comp_GMT329_113NC_396B_1105_CHINA_v04_SDR_FINAL_20180706_F900F2700_SDR_2K_AVC.mp4	0.0	258.0608580112457	2.507988929748535
52	156.11542296409607	fix_post	2		12.0	50.0	2.5	/experiments/knapen_aot/videos/S_comp_GMT329_113NC_396B_1105_CHINA_v04_SDR_FINAL_20180706_F900F2700_SDR_2K_AVC.mp4	0.0	260.56884694099426	0.10002017021179199
53	156.21544313430786	fix_pre	0		73.0	51.0	2.5	/experiments/knapen_aot/videos/S_production_ID_4584682.mp4	0.0	260.66886711120605	0.6082749366760254
53	156.81553506851196	response	0	2		51.0	2.5	/experiments/knapen_aot/videos/S_production_ID_4584682.mp4	0.0	261.26895904541016	
53	156.8237180709839	movie	1		164.0	51.0	2.5	/experiments/knapen_aot/videos/S_production_ID_4584682.mp4	0.0	261.2771420478821	2.508327007293701
53	159.3320450782776	fix_post	2		12.0	51.0	2.5	/experiments/knapen_aot/videos/S_production_ID_4584682.mp4	0.0	263.7854690551758	0.10001802444458008
54	159.43206310272217	fix_pre	0		51.0	52.0	2.5	/experiments/knapen_aot/videos/S_yt-he_RSdeVinA_68.mp4	0.0	263.88548707962036	0.4252588748931885
54	159.84877610206604	response	0	2		52.0	2.5	/experiments/knapen_aot/videos/S_yt-he_RSdeVinA_68.mp4	0.0	264.30220007896423	
54	159.85732197761536	movie	1		297.0	52.0	2.5	/experiments/knapen_aot/videos/S_yt-he_RSdeVinA_68.mp4	0.0	264.31074595451355	2.5080699920654297
54	162.3653919696808	fix_post	2		12.0	52.0	2.5	/experiments/knapen_aot/videos/S_yt-he_RSdeVinA_68.mp4	0.0	266.818815946579	0.10001206398010254
55	162.4654040336609	fix_pre	0		35.0	53.0	2.5	/experiments/knapen_aot/videos/S_yt-wE0cEswyaaM_53.mp4	0.0	266.9188280105591	0.29161691665649414
55	162.74886393547058	response	0	2		53.0	2.5	/experiments/knapen_aot/videos/S_yt-wE0cEswyaaM_53.mp4	0.0	267.2022879123688	
55	162.75702095031738	movie	1		301.0	53.0	2.5	/experiments/knapen_aot/videos/S_yt-wE0cEswyaaM_53.mp4	0.0	267.2104449272156	2.5083041191101074
55	165.2653250694275	fix_post	2		12.0	53.0	2.5	/experiments/knapen_aot/videos/S_yt-wE0cEswyaaM_53.mp4	0.0	269.7187490463257	0.10003995895385742
56	165.36536502838135	fix_pre	0		38.0	54.0	2.5	blank	1.0	269.81878900527954	0.31664109230041504
56	165.6738531589508	response	0	2		54.0	2.5	blank	1.0	270.127277135849	
56	165.68200612068176	movie	1		301.0	54.0	2.5	blank	1.0	270.13543009757996	2.5084500312805176
56	168.19045615196228	fix_post	2		12.0	54.0	2.5	blank	1.0	272.6438801288605	0.09989190101623535
57	168.29034805297852	fix_pre	0		60.0	55.0	2.5	/experiments/knapen_aot/videos/S_yt--Ou506YF3mY_106.mp4	0.0	272.7437720298767	0.4999980926513672
57	168.78205394744873	response	0	2		55.0	2.5	/experiments/knapen_aot/videos/S_yt--Ou506YF3mY_106.mp4	0.0	273.2354779243469	
57	168.79034614562988	movie	1		301.0	55.0	2.5	/experiments/knapen_aot/videos/S_yt--Ou506YF3mY_106.mp4	0.0	273.2437701225281	2.5083348751068115
57	171.2986810207367	fix_post	2		12.0	55.0	2.5	/experiments/knapen_aot/videos/S_yt--Ou506YF3mY_106.mp4	0.0	275.7521049976349	0.1002969741821289
58	171.39897799491882	fix_pre	0		33.0	56.0	2.5	/experiments/knapen_aot/videos/R_S_production_ID_4101242.mp4	0.0	275.852401971817	0.274705171585083
58	171.66543793678284	response	0	2		56.0	2.5	/experiments/knapen_aot/videos/R_S_production_ID_4101242.mp4	0.0	276.11886191368103	
58	171.6736831665039	movie	1		196.0	56.0	2.5	/experiments/knapen_aot/videos/R_S_production_ID_4101242.mp4	0.0	276.1271071434021	2.50832200050354
58	174.18200516700745	fix_post	2		12.0	56.0	2.5	/experiments/knapen_aot/videos/R_S_production_ID_4101242.mp4	0.0	278.63542914390564	0.0999288558959961
59	174.28193402290344	fix_pre	0		37.0	57.0	2.5	/experiments/knapen_aot/videos/R_S_yt-KM_SJx8CMGc_10.mp4	0.0	278.73535799980164	0.30828404426574707
59	174.58213210105896	response	0	2		57.0	2.5	/experiments/knapen_aot/videos/R_S_yt-KM_SJx8CMGc_10.mp4	0.0	279.03555607795715	
59	174.5902180671692	movie	1		301.0	57.0	2.5	/experiments/knapen_aot/videos/R_S_yt-KM_SJx8CMGc_10.mp4	0.0	279.0436420440674	2.5084280967712402
59	177.09864616394043	fix_post	2		12.0	57.0	2.5	/experiments/knapen_aot/videos/R_S_yt-KM_SJx8CMGc_10.mp4	0.0	281.5520701408386	0.09995579719543457
60	177.19860196113586	fix_pre	0		176.0	58.0	2.5	/experiments/knapen_aot/videos/R_S_yt-JTBXPfbkjsA_11.mp4	0.0	281.65202593803406	1.4666881561279297
60	178.65707111358643	response	0	2		58.0	2.5	/experiments/knapen_aot/videos/R_S_yt-JTBXPfbkjsA_11.mp4	0.0	283.1104950904846	
60	178.6652901172638	movie	1		301.0	58.0	2.5	/experiments/knapen_aot/videos/R_S_yt-JTBXPfbkjsA_11.mp4	0.0	283.118714094162	2.508359909057617
60	181.1736500263214	fix_post	2		12.0	58.0	2.5	/experiments/knapen_aot/videos/R_S_yt-JTBXPfbkjsA_11.mp4	0.0	285.6270740032196	0.10020804405212402
61	181.27385807037354	fix_pre	0		20.0	59.0	2.5	/experiments/knapen_aot/videos/S_yt-BrepyEWKrPQ_20.mp4	0.0	285.72728204727173	0.16659808158874512
61	181.4321141242981	response	0	2		59.0	2.5	/experiments/knapen_aot/videos/S_yt-BrepyEWKrPQ_20.mp4	0.0	285.8855381011963	
61	181.44045615196228	movie	1		301.0	59.0	2.5	/experiments/knapen_aot/videos/S_yt-BrepyEWKrPQ_20.mp4	0.0	285.8938801288605	2.508225917816162
61	183.94868206977844	fix_post	2		12.0	59.0	2.5	/experiments/knapen_aot/videos/S_yt-BrepyEWKrPQ_20.mp4	0.0	288.40210604667664	0.09994697570800781
62	184.04862904548645	fix_pre	0		42.0	60.0	2.5	/experiments/knapen_aot/videos/S_yt-hMyqUMAbFAk_303.mp4	0.0	288.50205302238464	0.35011792182922363
62	184.39041209220886	response	0	2		60.0	2.5	/experiments/knapen_aot/videos/S_yt-hMyqUMAbFAk_303.mp4	0.0	288.84383606910706	
62	184.39874696731567	movie	1		301.0	60.0	2.5	/experiments/knapen_aot/videos/S_yt-hMyqUMAbFAk_303.mp4	0.0	288.85217094421387	2.50817608833313
62	186.9069230556488	fix_post	2		12.0	60.0	2.5	/experiments/knapen_aot/videos/S_yt-hMyqUMAbFAk_303.mp4	0.0	291.360347032547	0.10001111030578613
63	187.0069341659546	fix_pre	0		18.0	61.0	2.5	/experiments/knapen_aot/videos/S_pexels-mart-production-7279749.mp4	0.0	291.4603581428528	0.14998698234558105
63	187.14108514785767	response	0	2		61.0	2.5	/experiments/knapen_aot/videos/S_pexels-mart-production-7279749.mp4	0.0	291.59450912475586	
63	187.15692114830017	movie	1		169.0	61.0	2.5	/experiments/knapen_aot/videos/S_pexels-mart-production-7279749.mp4	0.0	291.61034512519836	2.5082778930664062
63	189.66519904136658	fix_post	2		12.0	61.0	2.5	/experiments/knapen_aot/videos/S_pexels-mart-production-7279749.mp4	0.0	294.11862301826477	0.09998798370361328
64	189.7651870250702	fix_pre	0		9.0	62.0	2.5	blank	1.0	294.2186110019684	0.07508206367492676
64	189.8320460319519	response	0	2		62.0	2.5	blank	1.0	294.2854700088501	
64	189.84026908874512	movie	1		301.0	62.0	2.5	blank	1.0	294.2936930656433	2.5082008838653564
64	192.34846997261047	fix_post	2		12.0	62.0	2.5	blank	1.0	296.80189394950867	0.1001119613647461
65	192.44858193397522	fix_pre	0		28.0	63.0	2.5	/experiments/knapen_aot/videos/S_flickr-hapanine-31880782705_22.mp4	0.0	296.9020059108734	0.23330020904541016
65	192.67367911338806	response	0	2		63.0	2.5	/experiments/knapen_aot/videos/S_flickr-hapanine-31880782705_22.mp4	0.0	297.12710309028625	
65	192.68188214302063	movie	1		165.0	63.0	2.5	/experiments/knapen_aot/videos/S_flickr-hapanine-31880782705_22.mp4	0.0	297.1353061199188	2.508435010910034
65	195.19031715393066	fix_post	2		12.0	63.0	2.5	/experiments/knapen_aot/videos/S_flickr-hapanine-31880782705_22.mp4	0.0	299.64374113082886	0.0999288558959961
66	195.29024600982666	fix_pre	0		25.0	64.0	2.5	/experiments/knapen_aot/videos/R_S_production_ID_4325591.mp4	0.0	299.74366998672485	0.20828604698181152
66	195.4903690814972	response	0	2		64.0	2.5	/experiments/knapen_aot/videos/R_S_production_ID_4325591.mp4	0.0	299.9437930583954	
66	195.49853205680847	movie	1		212.0	64.0	2.5	/experiments/knapen_aot/videos/R_S_production_ID_4325591.mp4	0.0	299.95195603370667	2.5083260536193848
66	198.00685811042786	fix_post	2		12.0	64.0	2.5	/experiments/knapen_aot/videos/R_S_production_ID_4325591.mp4	0.0	302.46028208732605	0.10006093978881836
67	198.10691905021667	fix_pre	0		29.0	65.0	2.5	/experiments/knapen_aot/videos/R_S_yt-7Ya-rGPO8cM_159.mp4	0.0	302.56034302711487	0.24162888526916504
67	198.34032607078552	response	0	2		65.0	2.5	/experiments/knapen_aot/videos/R_S_yt-7Ya-rGPO8cM_159.mp4	0.0	302.7937500476837	
67	198.34854793548584	movie	1		301.0	65.0	2.5	/experiments/knapen_aot/videos/R_S_yt-7Ya-rGPO8cM_159.mp4	0.0	302.80197191238403	2.5084152221679688
67	200.8569631576538	fix_post	2		12.0	65.0	2.5	/experiments/knapen_aot/videos/R_S_yt-7Ya-rGPO8cM_159.mp4	0.0	305.310387134552	0.09991192817687988
68	200.9568750858307	fix_pre	0		10.0	66.0	2.5	/experiments/knapen_aot/videos/S_comp_DB_D011_C010_PSNK_DENOISE_v19_SDR_PS_20180914_SDR_2K_AVC.mp4	0.0	305.4102990627289	0.08330106735229492
68	201.03201293945312	response	0	2		66.0	2.5	/experiments/knapen_aot/videos/S_comp_DB_D011_C010_PSNK_DENOISE_v19_SDR_PS_20180914_SDR_2K_AVC.mp4	0.0	305.4854369163513	
68	201.04017615318298	movie	1		167.0	66.0	2.5	/experiments/knapen_aot/videos/S_comp_DB_D011_C010_PSNK_DENOISE_v19_SDR_PS_20180914_SDR_2K_AVC.mp4	0.0	305.4936001300812	2.508309841156006
68	203.548485994339	fix_post	2		12.0	66.0	2.5	/experiments/knapen_aot/videos/S_comp_DB_D011_C010_PSNK_DENOISE_v19_SDR_PS_20180914_SDR_2K_AVC.mp4	0.0	308.0019099712372	0.10010099411010742
69	203.6485869884491	fix_pre	0		24.0	67.0	2.5	/experiments/knapen_aot/videos/R_S_yt-iHmshS63rBc_329.mp4	0.0	308.1020109653473	0.19990301132202148
69	203.84034609794617	response	0	2		67.0	2.5	/experiments/knapen_aot/videos/R_S_yt-iHmshS63rBc_329.mp4	0.0	308.29377007484436	
69	203.84848999977112	movie	1		301.0	67.0	2.5	/experiments/knapen_aot/videos/R_S_yt-iHmshS63rBc_329.mp4	0.0	308.3019139766693	2.508384943008423
69	206.35687494277954	fix_post	2		12.0	67.0	2.5	/experiments/knapen_aot/videos/R_S_yt-iHmshS63rBc_329.mp4	0.0	310.81029891967773	0.09995222091674805
70	206.4568271636963	fix_pre	0		51.0	68.0	2.5	/experiments/knapen_aot/videos/R_S_S005_C015_SDR_2K_AVC.mp4	0.0	310.9102511405945	0.4250009059906006
70	206.87360215187073	response	0	2		68.0	2.5	/experiments/knapen_aot/videos/R_S_S005_C015_SDR_2K_AVC.mp4	0.0	311.3270261287689	
70	206.8818280696869	movie	1		167.0	68.0	2.5	/experiments/knapen_aot/videos/R_S_S005_C015_SDR_2K_AVC.mp4	0.0	311.3352520465851	2.508370876312256
70	209.39019894599915	fix_post	2		12.0	68.0	2.5	/experiments/knapen_aot/videos/R_S_S005_C015_SDR_2K_AVC.mp4	0.0	313.84362292289734	0.09998202323913574
71	209.49018096923828	fix_pre	0		37.0	69.0	2.5	/experiments/knapen_aot/videos/R_S_yt-XpM1Jtwlvvk_42.mp4	0.0	313.9436049461365	0.3083460330963135
71	209.7903220653534	response	0	2		69.0	2.5	/experiments/knapen_aot/videos/R_S_yt-XpM1Jtwlvvk_42.mp4	0.0	314.2437460422516	
71	209.7985270023346	movie	1		301.0	69.0	2.5	/experiments/knapen_aot/videos/R_S_yt-XpM1Jtwlvvk_42.mp4	0.0	314.2519509792328	2.5083141326904297
71	212.30684113502502	fix_post	2		12.0	69.0	2.5	/experiments/knapen_aot/videos/R_S_yt-XpM1Jtwlvvk_42.mp4	0.0	316.7602651119232	0.09996581077575684
72	212.40680694580078	fix_pre	0		14.0	70.0	2.5	blank	1.0	316.860230922699	0.11670804023742676
72	212.51528000831604	response	0	2		70.0	2.5	blank	1.0	316.96870398521423	
72	212.5235149860382	movie	1		301.0	70.0	2.5	blank	1.0	316.9769389629364	2.5082931518554688
72	215.03180813789368	fix_post	2		12.0	70.0	2.5	blank	1.0	319.48523211479187	0.0999288558959961
73	215.13173699378967	fix_pre	0		31.0	71.0	2.5	/experiments/knapen_aot/videos/R_S_yt-hHdxZ26SImA_17.mp4	0.0	319.58516097068787	0.25834107398986816
73	215.38192009925842	response	0	2		71.0	2.5	/experiments/knapen_aot/videos/R_S_yt-hHdxZ26SImA_17.mp4	0.0	319.8353440761566	
73	215.39007806777954	movie	1		301.0	71.0	2.5	/experiments/knapen_aot/videos/R_S_yt-hHdxZ26SImA_17.mp4	0.0	319.84350204467773	2.50833797454834
73	217.89841604232788	fix_post	2		12.0	71.0	2.5	/experiments/knapen_aot/videos/R_S_yt-hHdxZ26SImA_17.mp4	0.0	322.3518400192261	0.1000831127166748
74	217.99849915504456	fix_pre	0		31.0	72.0	2.5	/experiments/knapen_aot/videos/S_yt-M_ApPnq00iE_67.mp4	0.0	322.45192313194275	0.2582979202270508
74	218.2485899925232	response	0	2		72.0	2.5	/experiments/knapen_aot/videos/S_yt-M_ApPnq00iE_67.mp4	0.0	322.7020139694214	
74	218.2567970752716	movie	1		301.0	72.0	2.5	/experiments/knapen_aot/videos/S_yt-M_ApPnq00iE_67.mp4	0.0	322.7102210521698	2.508328914642334
74	220.76512598991394	fix_post	2		12.0	72.0	2.5	/experiments/knapen_aot/videos/S_yt-M_ApPnq00iE_67.mp4	0.0	325.21854996681213	0.09994912147521973
75	220.86507511138916	fix_pre	0		57.0	73.0	2.5	/experiments/knapen_aot/videos/S_yt_R-JaY8f33fOCw_25.mp4	0.0	325.31849908828735	0.474977970123291
75	221.33191204071045	response	0	2		73.0	2.5	/experiments/knapen_aot/videos/S_yt_R-JaY8f33fOCw_25.mp4	0.0	325.78533601760864	
75	221.34005308151245	movie	1		301.0	73.0	2.5	/experiments/knapen_aot/videos/S_yt_R-JaY8f33fOCw_25.mp4	0.0	325.79347705841064	2.5083580017089844
75	223.84841108322144	fix_post	2		12.0	73.0	2.5	/experiments/knapen_aot/videos/S_yt_R-JaY8f33fOCw_25.mp4	0.0	328.30183506011963	0.09999585151672363
76	223.94840693473816	fix_pre	0		63.0	74.0	2.5	/experiments/knapen_aot/videos/R_S_yt-1RVw8p6Dw2Q_20.mp4	0.0	328.40183091163635	0.5249550342559814
76	224.4652190208435	response	0	2		74.0	2.5	/experiments/knapen_aot/videos/R_S_yt-1RVw8p6Dw2Q_20.mp4	0.0	328.9186429977417	
76	224.47336196899414	movie	1		300.0	74.0	2.5	/experiments/knapen_aot/videos/R_S_yt-1RVw8p6Dw2Q_20.mp4	0.0	328.92678594589233	2.50839900970459
76	226.98176097869873	fix_post	2		12.0	74.0	2.5	/experiments/knapen_aot/videos/R_S_yt-1RVw8p6Dw2Q_20.mp4	0.0	331.4351849555969	0.09999918937683105
77	227.08176016807556	fix_pre	0		44.0	75.0	2.5	/experiments/knapen_aot/videos/S_yt-rPYBHkUEwwc_10.mp4	0.0	331.53518414497375	0.3666529655456543
77	227.44018697738647	response	0	2		75.0	2.5	/experiments/knapen_aot/videos/S_yt-rPYBHkUEwwc_10.mp4	0.0	331.89361095428467	
77	227.44841313362122	movie	1		301.0	75.0	2.5	/experiments/knapen_aot/videos/S_yt-rPYBHkUEwwc_10.mp4	0.0	331.9018371105194	2.5083608627319336
77	229.95677399635315	fix_post	2		12.0	75.0	2.5	/experiments/knapen_aot/videos/S_yt-rPYBHkUEwwc_10.mp4	0.0	334.41019797325134	0.09995794296264648
78	230.0567319393158	fix_pre	0		30.0	76.0	2.5	blank	1.0	334.510155916214	0.2500112056732178
78	230.2985110282898	response	0	2		76.0	2.5	blank	1.0	334.751935005188	
78	230.306743144989	movie	1		301.0	76.0	2.5	blank	1.0	334.7601671218872	2.50832200050354
78	232.81506514549255	fix_post	2		12.0	76.0	2.5	blank	1.0	337.26848912239075	0.10000491142272949
79	232.91507005691528	fix_pre	0		34.0	77.0	2.5	/experiments/knapen_aot/videos/R_S_yt-ybH6uAiFbjc_273.mp4	0.0	337.3684940338135	0.2832639217376709
79	233.19019508361816	response	0	2		77.0	2.5	/experiments/knapen_aot/videos/R_S_yt-ybH6uAiFbjc_273.mp4	0.0	337.64361906051636	
79	233.19833397865295	movie	1		301.0	77.0	2.5	/experiments/knapen_aot/videos/R_S_yt-ybH6uAiFbjc_273.mp4	0.0	337.65175795555115	2.5083401203155518
79	235.7066740989685	fix_post	2		12.0	77.0	2.5	/experiments/knapen_aot/videos/R_S_yt-ybH6uAiFbjc_273.mp4	0.0	340.1600980758667	0.10001897811889648
80	235.8066930770874	fix_pre	0		42.0	78.0	2.5	/experiments/knapen_aot/videos/R_S_video_inspire_oregon_portland_00064.1080-h264.mp4	0.0	340.2601170539856	0.350024938583374
80	236.14849996566772	response	0	2		78.0	2.5	/experiments/knapen_aot/videos/R_S_video_inspire_oregon_portland_00064.1080-h264.mp4	0.0	340.6019239425659	
80	236.15671801567078	movie	1		172.0	78.0	2.5	/experiments/knapen_aot/videos/R_S_video_inspire_oregon_portland_00064.1080-h264.mp4	0.0	340.61014199256897	2.508363962173462
80	238.66508197784424	fix_post	2		12.0	78.0	2.5	/experiments/knapen_aot/videos/R_S_video_inspire_oregon_portland_00064.1080-h264.mp4	0.0	343.11850595474243	0.10000896453857422
81	238.7650909423828	fix_pre	0		23.0	79.0	2.5	/experiments/knapen_aot/videos/R_S_yt-vQGD-rJyMw4_166.mp4	0.0	343.218514919281	0.19159913063049316
81	238.94843411445618	response	0	2		79.0	2.5	/experiments/knapen_aot/videos/R_S_yt-vQGD-rJyMw4_166.mp4	0.0	343.40185809135437	
81	238.9566900730133	movie	1		301.0	79.0	2.5	/experiments/knapen_aot/videos/R_S_yt-vQGD-rJyMw4_166.mp4	0.0	343.4101140499115	2.508331060409546
81	241.46502113342285	fix_post	2		12.0	79.0	2.5	/experiments/knapen_aot/videos/R_S_yt-vQGD-rJyMw4_166.mp4	0.0	345.91844511032104	0.0999898910522461
82	241.5650110244751	fix_pre	0		49.0	80.0	2.5	/experiments/knapen_aot/videos/R_S_yt-BJsMGxfjrZk_59.mp4	0.0	346.0184350013733	0.4095439910888672
82	241.9650981426239	response	0	2		80.0	2.5	/experiments/knapen_aot/videos/R_S_yt-BJsMGxfjrZk_59.mp4	0.0	346.4185221195221	
82	241.97455501556396	movie	1		301.0	80.0	2.5	/experiments/knapen_aot/videos/R_S_yt-BJsMGxfjrZk_59.mp4	0.0	346.42797899246216	2.5070910453796387
82	244.4816460609436	fix_post	2		12.0	80.0	2.5	/experiments/knapen_aot/videos/R_S_yt-BJsMGxfjrZk_59.mp4	0.0	348.9350700378418	0.1000359058380127
83	244.58168196678162	fix_pre	0		18.0	81.0	2.5	/experiments/knapen_aot/videos/S_yt-b7JAHOeiTqU_44.mp4	0.0	349.0351059436798	0.14998817443847656
83	244.7234809398651	response	0	2		81.0	2.5	/experiments/knapen_aot/videos/S_yt-b7JAHOeiTqU_44.mp4	0.0	349.1769049167633	
83	244.7316701412201	movie	1		298.0	81.0	2.5	/experiments/knapen_aot/videos/S_yt-b7JAHOeiTqU_44.mp4	0.0	349.1850941181183	2.5083279609680176
83	247.2399981021881	fix_post	2		12.0	81.0	2.5	/experiments/knapen_aot/videos/S_yt-b7JAHOeiTqU_44.mp4	0.0	351.6934220790863	0.09992098808288574
84	247.339919090271	fix_pre	0		30.0	82.0	2.5	/experiments/knapen_aot/videos/R_S_yt-a9bnYU0Gnxg_59.mp4	0.0	351.7933430671692	0.2500488758087158
84	247.58183312416077	response	0	2		82.0	2.5	/experiments/knapen_aot/videos/R_S_yt-a9bnYU0Gnxg_59.mp4	0.0	352.03525710105896	
84	247.5899679660797	movie	1		301.0	82.0	2.5	/experiments/knapen_aot/videos/R_S_yt-a9bnYU0Gnxg_59.mp4	0.0	352.0433919429779	2.5083231925964355
84	250.09829115867615	fix_post	2		12.0	82.0	2.5	/experiments/knapen_aot/videos/R_S_yt-a9bnYU0Gnxg_59.mp4	0.0	354.55171513557434	0.10000181198120117
85	250.19829297065735	fix_pre	0		11.0	83.0	2.5	blank	1.0	354.65171694755554	0.09163713455200195
85	250.27438402175903	response	0	2		83.0	2.5	blank	1.0	354.7278079986572	
85	250.28993010520935	movie	1		301.0	83.0	2.5	blank	1.0	354.74335408210754	2.5082998275756836
85	252.79822993278503	fix_post	2		12.0	83.0	2.5	blank	1.0	357.2516539096832	0.10009217262268066
87	252.89832210540771	stim	0		159.0					357.3517460823059	1.3261969089508057
87	253.0484049320221	response	0	2						357.5018289089203	
87	254.2180471420288	response	0	space						358.671471118927	
