trial_nr	onset	event_type	phase	response	nr_frames	movie_index	movie_duration	movie_file	blank	onset_abs	duration
0	0.12494397163391113	stim	0		41.0					58.88233304023743	0.3416001796722412
0	0.458449125289917	response	0	space						59.21583819389343	
1	0.46654415130615234	stim	0		121.0					59.22393321990967	1.0078120231628418
1	1.1494061946868896	response	0	space						59.906795263290405	
1	1.4743561744689941	stim	1		120.0					60.23174524307251	0.9999978542327881
1	1.5827531814575195	response	1	space						60.340142250061035	
1	2.008498191833496	response	1	space						60.76588726043701	
2	2.4743540287017822	fix_pre	0		38.0	0.0	2.5	/experiments/knapen_aot/videos/R_S_b4-3.mp4	0.0	61.2317430973053	0.3168480396270752
2	2.7828171253204346	response	0	space		0.0	2.5	/experiments/knapen_aot/videos/R_S_b4-3.mp4	0.0	61.54020619392395	
2	2.7912020683288574	movie	1		167.0	0.0	2.5	/experiments/knapen_aot/videos/R_S_b4-3.mp4	0.0	61.54859113693237	2.5081701278686523
2	5.29937219619751	fix_post	2		12.0	0.0	2.5	/experiments/knapen_aot/videos/R_S_b4-3.mp4	0.0	64.05676126480103	0.09994077682495117
3	5.399312973022461	fix_pre	0		296.0	1.0	2.5	/experiments/knapen_aot/videos/S_yt-y3tyx6cZjmA_412.mp4	0.0	64.15670204162598	2.4681811332702637
3	7.861054182052612	response	0	2		1.0	2.5	/experiments/knapen_aot/videos/S_yt-y3tyx6cZjmA_412.mp4	0.0	66.61844325065613	
3	7.867494106292725	movie	1		301.0	1.0	2.5	/experiments/knapen_aot/videos/S_yt-y3tyx6cZjmA_412.mp4	0.0	66.62488317489624	2.5069830417633057
3	10.37447714805603	fix_post	2		12.0	1.0	2.5	/experiments/knapen_aot/videos/S_yt-y3tyx6cZjmA_412.mp4	0.0	69.13186621665955	0.09980487823486328
4	10.474282026290894	fix_pre	0		114.0	2.0	2.5	/experiments/knapen_aot/videos/S_82eJpVKGnC0_188.mp4	0.0	69.23167109489441	0.9499871730804443
4	11.416176080703735	response	0	2		2.0	2.5	/experiments/knapen_aot/videos/S_82eJpVKGnC0_188.mp4	0.0	70.17356514930725	
4	11.424269199371338	movie	1		301.0	2.0	2.5	/experiments/knapen_aot/videos/S_82eJpVKGnC0_188.mp4	0.0	70.18165826797485	2.5084009170532227
4	13.652443170547485	response	1	2		2.0	2.5	/experiments/knapen_aot/videos/S_82eJpVKGnC0_188.mp4	0.0	72.409832239151	
4	13.93267011642456	fix_post	2		12.0	2.0	2.5	/experiments/knapen_aot/videos/S_82eJpVKGnC0_188.mp4	0.0	72.69005918502808	0.09999704360961914
5	14.03266716003418	fix_pre	0		54.0	3.0	2.5	/experiments/knapen_aot/videos/R_S_yt-zgkJCgcT1s4_300.mp4	0.0	72.7900562286377	0.4499390125274658
5	14.474363088607788	response	0	2		3.0	2.5	/experiments/knapen_aot/videos/R_S_yt-zgkJCgcT1s4_300.mp4	0.0	73.2317521572113	
5	14.482606172561646	movie	1		300.0	3.0	2.5	/experiments/knapen_aot/videos/R_S_yt-zgkJCgcT1s4_300.mp4	0.0	73.23999524116516	2.5083107948303223
5	16.990916967391968	fix_post	2		12.0	3.0	2.5	/experiments/knapen_aot/videos/R_S_yt-zgkJCgcT1s4_300.mp4	0.0	75.74830603599548	0.09994220733642578
6	17.090859174728394	fix_pre	0		58.0	4.0	2.5	/experiments/knapen_aot/videos/S_yt-3eQHOLBzOqA_100.mp4	0.0	75.84824824333191	0.48337292671203613
6	17.566025018692017	response	0	2		4.0	2.5	/experiments/knapen_aot/videos/S_yt-3eQHOLBzOqA_100.mp4	0.0	76.32341408729553	
6	17.57423210144043	movie	1		301.0	4.0	2.5	/experiments/knapen_aot/videos/S_yt-3eQHOLBzOqA_100.mp4	0.0	76.33162117004395	2.5084710121154785
6	20.082703113555908	fix_post	2		12.0	4.0	2.5	/experiments/knapen_aot/videos/S_yt-3eQHOLBzOqA_100.mp4	0.0	78.84009218215942	0.09990787506103516
7	20.182610988616943	fix_pre	0		73.0	5.0	2.5	blank	1.0	78.94000005722046	0.608396053314209
7	20.7827410697937	response	0	2		5.0	2.5	blank	1.0	79.54013013839722	
7	20.791007041931152	movie	1		301.0	5.0	2.5	blank	1.0	79.54839611053467	2.508268117904663
7	23.299275159835815	fix_post	2		12.0	5.0	2.5	blank	1.0	82.05666422843933	0.09999680519104004
8	23.399271965026855	fix_pre	0		673.0	6.0	2.5	/experiments/knapen_aot/videos/R_S_pexels-c-technical-6809719.mp4	0.0	82.15666103363037	5.608235120773315
8	28.991875171661377	response	0	2		6.0	2.5	/experiments/knapen_aot/videos/R_S_pexels-c-technical-6809719.mp4	0.0	87.74926424026489	
8	29.00750708580017	movie	1		185.0	6.0	2.5	/experiments/knapen_aot/videos/R_S_pexels-c-technical-6809719.mp4	0.0	87.76489615440369	2.5083858966827393
8	31.51589298248291	fix_post	2		12.0	6.0	2.5	/experiments/knapen_aot/videos/R_S_pexels-c-technical-6809719.mp4	0.0	90.27328205108643	0.10001921653747559
9	31.615912199020386	fix_pre	0		67.0	7.0	2.5	/experiments/knapen_aot/videos/S_BsNCrwV7d8Q_9.mp4	0.0	90.3733012676239	0.5582849979400635
9	32.166035175323486	response	0	2		7.0	2.5	/experiments/knapen_aot/videos/S_BsNCrwV7d8Q_9.mp4	0.0	90.923424243927	
9	32.17419719696045	movie	1		300.0	7.0	2.5	/experiments/knapen_aot/videos/S_BsNCrwV7d8Q_9.mp4	0.0	90.93158626556396	2.5082249641418457
9	34.682422161102295	fix_post	2		12.0	7.0	2.5	/experiments/knapen_aot/videos/S_BsNCrwV7d8Q_9.mp4	0.0	93.43981122970581	0.10006284713745117
10	34.782485008239746	fix_pre	0		76.0	8.0	2.5	/experiments/knapen_aot/videos/R_S_ILSVRC2015_test_00004002.mp4	0.0	93.53987407684326	0.6332991123199463
10	35.40767002105713	response	0	2		8.0	2.5	/experiments/knapen_aot/videos/R_S_ILSVRC2015_test_00004002.mp4	0.0	94.16505908966064	
10	35.41578412055969	movie	1		301.0	8.0	2.5	/experiments/knapen_aot/videos/R_S_ILSVRC2015_test_00004002.mp4	0.0	94.17317318916321	2.5083940029144287
10	37.92417812347412	fix_post	2		12.0	8.0	2.5	/experiments/knapen_aot/videos/R_S_ILSVRC2015_test_00004002.mp4	0.0	96.68156719207764	0.1000220775604248
11	38.024200201034546	fix_pre	0		49.0	9.0	2.5	/experiments/knapen_aot/videos/S_yt-4qU-6TEW06E_38.mp4	0.0	96.78158926963806	0.4083237648010254
11	38.424355030059814	response	0	2		9.0	2.5	/experiments/knapen_aot/videos/S_yt-4qU-6TEW06E_38.mp4	0.0	97.18174409866333	
11	38.43252396583557	movie	1		301.0	9.0	2.5	/experiments/knapen_aot/videos/S_yt-4qU-6TEW06E_38.mp4	0.0	97.18991303443909	2.5083091259002686
11	40.94083309173584	fix_post	2		12.0	9.0	2.5	/experiments/knapen_aot/videos/S_yt-4qU-6TEW06E_38.mp4	0.0	99.69822216033936	0.10004806518554688
12	41.04088115692139	fix_pre	0		45.0	10.0	2.5	/experiments/knapen_aot/videos/R_S_production_ID_4101307.mp4	0.0	99.7982702255249	0.3749518394470215
12	41.40763711929321	response	0	2		10.0	2.5	/experiments/knapen_aot/videos/R_S_production_ID_4101307.mp4	0.0	100.16502618789673	
12	41.41583299636841	movie	1		202.0	10.0	2.5	/experiments/knapen_aot/videos/R_S_production_ID_4101307.mp4	0.0	100.17322206497192	2.508357048034668
12	43.924190044403076	fix_post	2		12.0	10.0	2.5	/experiments/knapen_aot/videos/R_S_production_ID_4101307.mp4	0.0	102.68157911300659	0.09998893737792969
13	44.024178981781006	fix_pre	0		20.0	11.0	2.5	/experiments/knapen_aot/videos/R_S_yt-Xs-YKSogfak_24.mp4	0.0	102.78156805038452	0.16663312911987305
13	44.18266415596008	response	0	2		11.0	2.5	/experiments/knapen_aot/videos/R_S_yt-Xs-YKSogfak_24.mp4	0.0	102.9400532245636	
13	44.19081211090088	movie	1		301.0	11.0	2.5	/experiments/knapen_aot/videos/R_S_yt-Xs-YKSogfak_24.mp4	0.0	102.9482011795044	2.5083248615264893
13	46.69913697242737	fix_post	2		12.0	11.0	2.5	/experiments/knapen_aot/videos/R_S_yt-Xs-YKSogfak_24.mp4	0.0	105.45652604103088	0.10004711151123047
14	46.7991840839386	fix_pre	0		100.0	12.0	2.5	/experiments/knapen_aot/videos/S_yt-gC3my54_ChQ_58.mp4	0.0	105.55657315254211	0.8332619667053223
14	47.62429904937744	response	0	2		12.0	2.5	/experiments/knapen_aot/videos/S_yt-gC3my54_ChQ_58.mp4	0.0	106.38168811798096	
14	47.63244605064392	movie	1		301.0	12.0	2.5	/experiments/knapen_aot/videos/S_yt-gC3my54_ChQ_58.mp4	0.0	106.38983511924744	2.5083539485931396
14	50.14079999923706	fix_post	2		12.0	12.0	2.5	/experiments/knapen_aot/videos/S_yt-gC3my54_ChQ_58.mp4	0.0	108.89818906784058	0.09995007514953613
15	50.2407500743866	fix_pre	0		51.0	13.0	2.5	/experiments/knapen_aot/videos/R_S_production_ID_4802712.mp4	0.0	108.99813914299011	0.42503809928894043
15	50.65008497238159	response	0	2		13.0	2.5	/experiments/knapen_aot/videos/R_S_production_ID_4802712.mp4	0.0	109.40747404098511	
15	50.66578817367554	movie	1		165.0	13.0	2.5	/experiments/knapen_aot/videos/R_S_production_ID_4802712.mp4	0.0	109.42317724227905	2.508387804031372
15	53.17417597770691	fix_post	2		12.0	13.0	2.5	/experiments/knapen_aot/videos/R_S_production_ID_4802712.mp4	0.0	111.93156504631042	0.10005521774291992
16	53.27423119544983	fix_pre	0		38.0	14.0	2.5	blank	1.0	112.03162026405334	0.31658291816711426
16	53.57509517669678	response	0	2		14.0	2.5	blank	1.0	112.3324842453003	
16	53.59081411361694	movie	1		301.0	14.0	2.5	blank	1.0	112.34820318222046	2.5083470344543457
16	56.09916114807129	fix_post	2		12.0	14.0	2.5	blank	1.0	114.8565502166748	0.09999799728393555
17	56.199159145355225	fix_pre	0		60.0	15.0	2.5	/experiments/knapen_aot/videos/R_S_yt-kAUL5o7i5mo_116.mp4	0.0	114.95654821395874	0.5012869834899902
17	56.69090509414673	response	0	2		15.0	2.5	/experiments/knapen_aot/videos/R_S_yt-kAUL5o7i5mo_116.mp4	0.0	115.44829416275024	
17	56.700446128845215	movie	1		301.0	15.0	2.5	/experiments/knapen_aot/videos/R_S_yt-kAUL5o7i5mo_116.mp4	0.0	115.45783519744873	2.5070838928222656
17	59.20753002166748	fix_post	2		12.0	15.0	2.5	/experiments/knapen_aot/videos/R_S_yt-kAUL5o7i5mo_116.mp4	0.0	117.964919090271	0.09992814064025879
18	59.30745816230774	fix_pre	0		41.0	16.0	2.5	/experiments/knapen_aot/videos/R_S_yt-MhW2fU45JK8_544.mp4	0.0	118.06484723091125	0.34166789054870605
18	59.64091610908508	response	0	2		16.0	2.5	/experiments/knapen_aot/videos/R_S_yt-MhW2fU45JK8_544.mp4	0.0	118.3983051776886	
18	59.649126052856445	movie	1		301.0	16.0	2.5	/experiments/knapen_aot/videos/R_S_yt-MhW2fU45JK8_544.mp4	0.0	118.40651512145996	2.5082271099090576
18	62.1573531627655	fix_post	2		12.0	16.0	2.5	/experiments/knapen_aot/videos/R_S_yt-MhW2fU45JK8_544.mp4	0.0	120.91474223136902	0.10003900527954102
19	62.257392168045044	fix_pre	0		40.0	17.0	2.5	/experiments/knapen_aot/videos/S_yt-RqWnxg1wT-0_41.mp4	0.0	121.01478123664856	0.33338189125061035
19	62.575040102005005	response	0	2		17.0	2.5	/experiments/knapen_aot/videos/S_yt-RqWnxg1wT-0_41.mp4	0.0	121.33242917060852	
19	62.590774059295654	movie	1		299.0	17.0	2.5	/experiments/knapen_aot/videos/S_yt-RqWnxg1wT-0_41.mp4	0.0	121.34816312789917	2.5082640647888184
19	65.09903812408447	fix_post	2		12.0	17.0	2.5	/experiments/knapen_aot/videos/S_yt-RqWnxg1wT-0_41.mp4	0.0	123.85642719268799	0.10002303123474121
20	65.19906115531921	fix_pre	0		52.0	18.0	2.5	/experiments/knapen_aot/videos/R_S_yt-c6kLumgTX54_7.mp4	0.0	123.95645022392273	0.4333069324493408
20	65.62418913841248	response	0	2		18.0	2.5	/experiments/knapen_aot/videos/R_S_yt-c6kLumgTX54_7.mp4	0.0	124.38157820701599	
20	65.63236808776855	movie	1		301.0	18.0	2.5	/experiments/knapen_aot/videos/R_S_yt-c6kLumgTX54_7.mp4	0.0	124.38975715637207	2.5083820819854736
20	68.14075016975403	fix_post	2		12.0	18.0	2.5	/experiments/knapen_aot/videos/R_S_yt-c6kLumgTX54_7.mp4	0.0	126.89813923835754	0.09999895095825195
21	68.24074912071228	fix_pre	0		53.0	19.0	2.5	/experiments/knapen_aot/videos/S_ILSVRC2015_train_00434000.mp4	0.0	126.9981381893158	0.4416379928588867
21	68.67420506477356	response	0	2		19.0	2.5	/experiments/knapen_aot/videos/S_ILSVRC2015_train_00434000.mp4	0.0	127.43159413337708	
21	68.68238711357117	movie	1		300.0	19.0	2.5	/experiments/knapen_aot/videos/S_ILSVRC2015_train_00434000.mp4	0.0	127.43977618217468	2.508363962173462
21	71.19075107574463	fix_post	2		12.0	19.0	2.5	/experiments/knapen_aot/videos/S_ILSVRC2015_train_00434000.mp4	0.0	129.94814014434814	0.09997701644897461
22	71.2907280921936	fix_pre	0		64.0	20.0	2.5	blank	1.0	130.04811716079712	0.533336877822876
22	71.8158221244812	response	0	2		20.0	2.5	blank	1.0	130.57321119308472	
22	71.82406497001648	movie	1		301.0	20.0	2.5	blank	1.0	130.58145403862	2.5083460807800293
22	74.33241105079651	fix_post	2		12.0	20.0	2.5	blank	1.0	133.08980011940002	0.09999895095825195
23	74.43241000175476	fix_pre	0		375.0	21.0	2.5	/experiments/knapen_aot/videos/S_production_ID_4101307.mp4	0.0	133.18979907035828	3.1248741149902344
23	77.54163408279419	response	0	2		21.0	2.5	/experiments/knapen_aot/videos/S_production_ID_4101307.mp4	0.0	136.2990231513977	
23	77.557284116745	movie	1		193.0	21.0	2.5	/experiments/knapen_aot/videos/S_production_ID_4101307.mp4	0.0	136.3146731853485	2.508280038833618
23	80.06556415557861	fix_post	2		12.0	21.0	2.5	/experiments/knapen_aot/videos/S_production_ID_4101307.mp4	0.0	138.82295322418213	0.10010385513305664
24	80.16566801071167	fix_pre	0		207.0	22.0	2.5	/experiments/knapen_aot/videos/S_pexels-koolshooters-7689098.mp4	0.0	138.92305707931519	1.7249410152435303
24	81.87495112419128	response	0	2		22.0	2.5	/experiments/knapen_aot/videos/S_pexels-koolshooters-7689098.mp4	0.0	140.6323401927948	
24	81.8906090259552	movie	1		164.0	22.0	2.5	/experiments/knapen_aot/videos/S_pexels-koolshooters-7689098.mp4	0.0	140.64799809455872	2.5083260536193848
24	84.39893507957458	fix_post	2		12.0	22.0	2.5	/experiments/knapen_aot/videos/S_pexels-koolshooters-7689098.mp4	0.0	143.1563241481781	0.10001492500305176
25	84.49895000457764	fix_pre	0		53.0	23.0	2.5	/experiments/knapen_aot/videos/R_S_yt-Xkx53mjgj2E_30.mp4	0.0	143.25633907318115	0.44165611267089844
25	84.93245506286621	response	0	2		23.0	2.5	/experiments/knapen_aot/videos/R_S_yt-Xkx53mjgj2E_30.mp4	0.0	143.68984413146973	
25	84.94060611724854	movie	1		301.0	23.0	2.5	/experiments/knapen_aot/videos/R_S_yt-Xkx53mjgj2E_30.mp4	0.0	143.69799518585205	2.508389949798584
25	87.44899606704712	fix_post	2		12.0	23.0	2.5	/experiments/knapen_aot/videos/R_S_yt-Xkx53mjgj2E_30.mp4	0.0	146.20638513565063	0.10016703605651855
26	87.54916310310364	fix_pre	0		62.0	24.0	2.5	/experiments/knapen_aot/videos/R_S_production_ID_5139371.mp4	0.0	146.30655217170715	0.5164299011230469
26	88.05739212036133	response	0	2		24.0	2.5	/experiments/knapen_aot/videos/R_S_production_ID_5139371.mp4	0.0	146.81478118896484	
26	88.06559300422668	movie	1		167.0	24.0	2.5	/experiments/knapen_aot/videos/R_S_production_ID_5139371.mp4	0.0	146.8229820728302	2.5083980560302734
26	90.57399106025696	fix_post	2		12.0	24.0	2.5	/experiments/knapen_aot/videos/R_S_production_ID_5139371.mp4	0.0	149.33138012886047	0.10019493103027344
27	90.67418599128723	fix_pre	0		51.0	25.0	2.5	/experiments/knapen_aot/videos/R_S_ILSVRC2015_train_00638000.mp4	0.0	149.43157505989075	0.42467403411865234
27	91.09076499938965	response	0	2		25.0	2.5	/experiments/knapen_aot/videos/R_S_ILSVRC2015_train_00638000.mp4	0.0	149.84815406799316	
27	91.09886002540588	movie	1		301.0	25.0	2.5	/experiments/knapen_aot/videos/R_S_ILSVRC2015_train_00638000.mp4	0.0	149.8562490940094	2.508455991744995
27	93.60731601715088	fix_post	2		12.0	25.0	2.5	/experiments/knapen_aot/videos/R_S_ILSVRC2015_train_00638000.mp4	0.0	152.3647050857544	0.09997010231018066
28	93.70728611946106	fix_pre	0		81.0	26.0	2.5	blank	1.0	152.46467518806458	0.6749720573425293
28	94.37422204017639	response	0	2		26.0	2.5	blank	1.0	153.1316111087799	
28	94.38225817680359	movie	1		301.0	26.0	2.5	blank	1.0	153.1396472454071	2.5083889961242676
28	96.89064717292786	fix_post	2		12.0	26.0	2.5	blank	1.0	155.64803624153137	0.0999758243560791
28	96.94074010848999	response	2	2		26.0	2.5	blank	1.0	155.6981291770935	
29	96.99062299728394	fix_pre	0		55.0	27.0	2.5	/experiments/knapen_aot/videos/S_yt-0n0uppNuUus_15.mp4	0.0	155.74801206588745	0.4593501091003418
29	97.44068002700806	response	0	2		27.0	2.5	/experiments/knapen_aot/videos/S_yt-0n0uppNuUus_15.mp4	0.0	156.19806909561157	
29	97.44997310638428	movie	1		301.0	27.0	2.5	/experiments/knapen_aot/videos/S_yt-0n0uppNuUus_15.mp4	0.0	156.2073621749878	2.5072379112243652
29	99.95721101760864	fix_post	2		12.0	27.0	2.5	/experiments/knapen_aot/videos/S_yt-0n0uppNuUus_15.mp4	0.0	158.71460008621216	0.09997415542602539
30	100.05718517303467	fix_pre	0		64.0	28.0	2.5	/experiments/knapen_aot/videos/R_S_yt-3eQHOLBzOqA_100.mp4	0.0	158.81457424163818	0.5333938598632812
30	100.58255815505981	response	0	2		28.0	2.5	/experiments/knapen_aot/videos/R_S_yt-3eQHOLBzOqA_100.mp4	0.0	159.33994722366333	
30	100.59057903289795	movie	1		300.0	28.0	2.5	/experiments/knapen_aot/videos/R_S_yt-3eQHOLBzOqA_100.mp4	0.0	159.34796810150146	2.508345127105713
30	103.09892416000366	fix_post	2		12.0	28.0	2.5	/experiments/knapen_aot/videos/R_S_yt-3eQHOLBzOqA_100.mp4	0.0	161.85631322860718	0.10011482238769531
31	103.19903898239136	fix_pre	0		204.0	29.0	2.5	/experiments/knapen_aot/videos/S_b4-3.mp4	0.0	161.95642805099487	1.6998281478881836
31	104.89060616493225	response	0	2		29.0	2.5	/experiments/knapen_aot/videos/S_b4-3.mp4	0.0	163.64799523353577	
31	104.89886713027954	movie	1		164.0	29.0	2.5	/experiments/knapen_aot/videos/S_b4-3.mp4	0.0	163.65625619888306	2.508323907852173
31	107.40719103813171	fix_post	2		11.0	29.0	2.5	/experiments/knapen_aot/videos/S_b4-3.mp4	0.0	166.16458010673523	0.10006403923034668
32	107.50725507736206	fix_pre	0		96.0	30.0	2.5	/experiments/knapen_aot/videos/R_S_yt-4ouMuGUuPHI_193.mp4	0.0	166.26464414596558	0.7999439239501953
32	108.29914212226868	response	0	2		30.0	2.5	/experiments/knapen_aot/videos/R_S_yt-4ouMuGUuPHI_193.mp4	0.0	167.0565311908722	
32	108.30719900131226	movie	1		301.0	30.0	2.5	/experiments/knapen_aot/videos/R_S_yt-4ouMuGUuPHI_193.mp4	0.0	167.06458806991577	2.5082969665527344
32	110.81549596786499	fix_post	2		12.0	30.0	2.5	/experiments/knapen_aot/videos/R_S_yt-4ouMuGUuPHI_193.mp4	0.0	169.5728850364685	0.10017514228820801
33	110.9156711101532	fix_pre	0		36.0	31.0	2.5	/experiments/knapen_aot/videos/R_S_yt-BLmwmX-mni8_1030.mp4	0.0	169.6730601787567	0.29976606369018555
33	111.20732617378235	response	0	2		31.0	2.5	/experiments/knapen_aot/videos/R_S_yt-BLmwmX-mni8_1030.mp4	0.0	169.96471524238586	
33	111.21543717384338	movie	1		300.0	31.0	2.5	/experiments/knapen_aot/videos/R_S_yt-BLmwmX-mni8_1030.mp4	0.0	169.9728262424469	2.508368968963623
33	113.24891304969788	response	1	2		31.0	2.5	/experiments/knapen_aot/videos/R_S_yt-BLmwmX-mni8_1030.mp4	0.0	172.0063021183014	
33	113.723806142807	fix_post	2		12.0	31.0	2.5	/experiments/knapen_aot/videos/R_S_yt-BLmwmX-mni8_1030.mp4	0.0	172.48119521141052	0.10004782676696777
34	113.82385396957397	fix_pre	0		148.0	32.0	2.5	/experiments/knapen_aot/videos/S_yt-8RmEimCI80g_35.mp4	0.0	172.5812430381775	1.233293056488037
34	115.04899311065674	response	0	2		32.0	2.5	/experiments/knapen_aot/videos/S_yt-8RmEimCI80g_35.mp4	0.0	173.80638217926025	
34	115.05714702606201	movie	1		301.0	32.0	2.5	/experiments/knapen_aot/videos/S_yt-8RmEimCI80g_35.mp4	0.0	173.81453609466553	2.5083999633789062
34	117.56554698944092	fix_post	2		12.0	32.0	2.5	/experiments/knapen_aot/videos/S_yt-8RmEimCI80g_35.mp4	0.0	176.32293605804443	0.09994220733642578
35	117.66548919677734	fix_pre	0		54.0	33.0	2.5	/experiments/knapen_aot/videos/S_comp_A103_C002_0205DG_v12_SDR_FINAL_20180706_SDR_2K_AVC.mp4	0.0	176.42287826538086	0.45095086097717285
35	118.10733604431152	response	0	2		33.0	2.5	/experiments/knapen_aot/videos/S_comp_A103_C002_0205DG_v12_SDR_FINAL_20180706_SDR_2K_AVC.mp4	0.0	176.86472511291504	
35	118.11644005775452	movie	1		164.0	33.0	2.5	/experiments/knapen_aot/videos/S_comp_A103_C002_0205DG_v12_SDR_FINAL_20180706_SDR_2K_AVC.mp4	0.0	176.87382912635803	2.507388114929199
35	120.62382817268372	fix_post	2		12.0	33.0	2.5	/experiments/knapen_aot/videos/S_comp_A103_C002_0205DG_v12_SDR_FINAL_20180706_SDR_2K_AVC.mp4	0.0	179.38121724128723	0.10002589225769043
36	120.7238540649414	fix_pre	0		196.0	34.0	2.5	blank	1.0	179.48124313354492	1.6332099437713623
36	122.34891104698181	response	0	2		34.0	2.5	blank	1.0	181.10630011558533	
36	122.35706400871277	movie	1		301.0	34.0	2.5	blank	1.0	181.11445307731628	2.5083720684051514
36	124.86543607711792	fix_post	2		11.0	34.0	2.5	blank	1.0	183.62282514572144	0.09998011589050293
37	124.96541619300842	fix_pre	0		17.0	35.0	2.5	/experiments/knapen_aot/videos/S_yt-BJsMGxfjrZk_59.mp4	0.0	183.72280526161194	0.1416618824005127
37	125.09894514083862	response	0	2		35.0	2.5	/experiments/knapen_aot/videos/S_yt-BJsMGxfjrZk_59.mp4	0.0	183.85633420944214	
37	125.10707807540894	movie	1		301.0	35.0	2.5	/experiments/knapen_aot/videos/S_yt-BJsMGxfjrZk_59.mp4	0.0	183.86446714401245	2.5082950592041016
37	127.61537313461304	fix_post	2		12.0	35.0	2.5	/experiments/knapen_aot/videos/S_yt-BJsMGxfjrZk_59.mp4	0.0	186.37276220321655	0.10004401206970215
38	127.71541714668274	fix_pre	0		32.0	36.0	2.5	/experiments/knapen_aot/videos/S_yt-X6ivH9SqGu8_306.mp4	0.0	186.47280621528625	0.26665496826171875
38	127.97393202781677	response	0	2		36.0	2.5	/experiments/knapen_aot/videos/S_yt-X6ivH9SqGu8_306.mp4	0.0	186.7313210964203	
38	127.98207211494446	movie	1		301.0	36.0	2.5	/experiments/knapen_aot/videos/S_yt-X6ivH9SqGu8_306.mp4	0.0	186.73946118354797	2.508349895477295
38	130.49042201042175	fix_post	2		12.0	36.0	2.5	/experiments/knapen_aot/videos/S_yt-X6ivH9SqGu8_306.mp4	0.0	189.24781107902527	0.09997105598449707
39	130.59039306640625	fix_pre	0		50.0	37.0	2.5	/experiments/knapen_aot/videos/R_S_yt-EuyfT0PuOoQ_91.mp4	0.0	189.34778213500977	0.4167170524597168
39	130.9989140033722	response	0	2		37.0	2.5	/experiments/knapen_aot/videos/R_S_yt-EuyfT0PuOoQ_91.mp4	0.0	189.7563030719757	
39	131.00711011886597	movie	1		301.0	37.0	2.5	/experiments/knapen_aot/videos/R_S_yt-EuyfT0PuOoQ_91.mp4	0.0	189.76449918746948	2.508370876312256
39	133.51548099517822	fix_post	2		12.0	37.0	2.5	/experiments/knapen_aot/videos/R_S_yt-EuyfT0PuOoQ_91.mp4	0.0	192.27287006378174	0.10001897811889648
40	133.61549997329712	fix_pre	0		42.0	38.0	2.5	/experiments/knapen_aot/videos/S_yt-Gam0NeyyG8w_22.mp4	0.0	192.37288904190063	0.34997010231018066
40	133.95727610588074	response	0	2		38.0	2.5	/experiments/knapen_aot/videos/S_yt-Gam0NeyyG8w_22.mp4	0.0	192.71466517448425	
40	133.9654700756073	movie	1		301.0	38.0	2.5	/experiments/knapen_aot/videos/S_yt-Gam0NeyyG8w_22.mp4	0.0	192.72285914421082	2.508344888687134
40	136.47381496429443	fix_post	2		12.0	38.0	2.5	/experiments/knapen_aot/videos/S_yt-Gam0NeyyG8w_22.mp4	0.0	195.23120403289795	0.10002303123474121
41	136.57383799552917	fix_pre	0		53.0	39.0	2.5	/experiments/knapen_aot/videos/R_S_yt-gC3my54_ChQ_58.mp4	0.0	195.3312270641327	0.44156503677368164
41	136.999773979187	response	0	2		39.0	2.5	/experiments/knapen_aot/videos/R_S_yt-gC3my54_ChQ_58.mp4	0.0	195.75716304779053	
41	137.01540303230286	movie	1		301.0	39.0	2.5	/experiments/knapen_aot/videos/R_S_yt-gC3my54_ChQ_58.mp4	0.0	195.77279210090637	2.5084221363067627
41	139.52382516860962	fix_post	2		12.0	39.0	2.5	/experiments/knapen_aot/videos/R_S_yt-gC3my54_ChQ_58.mp4	0.0	198.28121423721313	0.09999799728393555
42	139.62382316589355	fix_pre	0		249.0	40.0	2.5	blank	1.0	198.38121223449707	2.0757699012756348
42	141.69056701660156	response	0	2		40.0	2.5	blank	1.0	200.44795608520508	
42	141.6995930671692	movie	1		301.0	40.0	2.5	blank	1.0	200.4569821357727	2.5075430870056152
42	144.2071361541748	fix_post	2		12.0	40.0	2.5	blank	1.0	202.96452522277832	0.09998583793640137
43	144.3071219921112	fix_pre	0		107.0	41.0	2.5	/experiments/knapen_aot/videos/R_S_yt-hQ5pge893b4_6.mp4	0.0	203.06451106071472	0.8923931121826172
43	145.19054102897644	response	0	2		41.0	2.5	/experiments/knapen_aot/videos/R_S_yt-hQ5pge893b4_6.mp4	0.0	203.94793009757996	
43	145.19951510429382	movie	1		301.0	41.0	2.5	/experiments/knapen_aot/videos/R_S_yt-hQ5pge893b4_6.mp4	0.0	203.95690417289734	2.507560968399048
43	147.70707607269287	fix_post	2		12.0	41.0	2.5	/experiments/knapen_aot/videos/R_S_yt-hQ5pge893b4_6.mp4	0.0	206.4644651412964	0.10001206398010254
44	147.80708813667297	fix_pre	0		15.0	42.0	2.5	/experiments/knapen_aot/videos/R_S_yt-nE8YJOhW4e4_171.mp4	0.0	206.5644772052765	0.12497305870056152
44	147.9239010810852	response	0	2		42.0	2.5	/experiments/knapen_aot/videos/R_S_yt-nE8YJOhW4e4_171.mp4	0.0	206.68129014968872	
44	147.93206119537354	movie	1		301.0	42.0	2.5	/experiments/knapen_aot/videos/R_S_yt-nE8YJOhW4e4_171.mp4	0.0	206.68945026397705	2.508358955383301
44	150.44042015075684	fix_post	2		12.0	42.0	2.5	/experiments/knapen_aot/videos/R_S_yt-nE8YJOhW4e4_171.mp4	0.0	209.19780921936035	0.10002398490905762
45	150.5404441356659	fix_pre	0		37.0	43.0	2.5	/experiments/knapen_aot/videos/S_X-D3lUv-atE_376.mp4	0.0	209.2978332042694	0.30828285217285156
45	150.8405601978302	response	0	2		43.0	2.5	/experiments/knapen_aot/videos/S_X-D3lUv-atE_376.mp4	0.0	209.59794926643372	
45	150.84872698783875	movie	1		301.0	43.0	2.5	/experiments/knapen_aot/videos/S_X-D3lUv-atE_376.mp4	0.0	209.60611605644226	2.5082671642303467
45	153.3569941520691	fix_post	2		12.0	43.0	2.5	/experiments/knapen_aot/videos/S_X-D3lUv-atE_376.mp4	0.0	212.1143832206726	0.0999610424041748
46	153.45695519447327	fix_pre	0		59.0	44.0	2.5	/experiments/knapen_aot/videos/R_S_yt-Ojy5TMPX8_Q_165.mp4	0.0	212.21434426307678	0.4925827980041504
46	153.9404489994049	response	0	2		44.0	2.5	/experiments/knapen_aot/videos/R_S_yt-Ojy5TMPX8_Q_165.mp4	0.0	212.69783806800842	
46	153.94953799247742	movie	1		301.0	44.0	2.5	/experiments/knapen_aot/videos/R_S_yt-Ojy5TMPX8_Q_165.mp4	0.0	212.70692706108093	2.507479190826416
46	156.45701718330383	fix_post	2		12.0	44.0	2.5	/experiments/knapen_aot/videos/R_S_yt-Ojy5TMPX8_Q_165.mp4	0.0	215.21440625190735	0.09992098808288574
47	156.55693817138672	fix_pre	0		12.0	45.0	2.5	/experiments/knapen_aot/videos/R_S_yt-JDHApyT5ngs_128.mp4	0.0	215.31432723999023	0.10085296630859375
47	156.64872097969055	response	0	2		45.0	2.5	/experiments/knapen_aot/videos/R_S_yt-JDHApyT5ngs_128.mp4	0.0	215.40611004829407	
47	156.6577911376953	movie	1		300.0	45.0	2.5	/experiments/knapen_aot/videos/R_S_yt-JDHApyT5ngs_128.mp4	0.0	215.41518020629883	2.5075628757476807
47	159.165354013443	fix_post	2		12.0	45.0	2.5	/experiments/knapen_aot/videos/R_S_yt-JDHApyT5ngs_128.mp4	0.0	217.9227430820465	0.10002017021179199
47	159.25719499588013	response	2	2		45.0	2.5	/experiments/knapen_aot/videos/R_S_yt-JDHApyT5ngs_128.mp4	0.0	218.01458406448364	
48	159.26537418365479	fix_pre	0		69.0	46.0	2.5	/experiments/knapen_aot/videos/S_yt-1n1jTroiwJs_163.mp4	0.0	218.0227632522583	0.5748968124389648
48	159.83201503753662	response	0	2		46.0	2.5	/experiments/knapen_aot/videos/S_yt-1n1jTroiwJs_163.mp4	0.0	218.58940410614014	
48	159.84027099609375	movie	1		301.0	46.0	2.5	/experiments/knapen_aot/videos/S_yt-1n1jTroiwJs_163.mp4	0.0	218.59766006469727	2.508357048034668
48	162.34862804412842	fix_post	2		12.0	46.0	2.5	/experiments/knapen_aot/videos/S_yt-1n1jTroiwJs_163.mp4	0.0	221.10601711273193	0.1000370979309082
49	162.44866514205933	fix_pre	0		50.0	47.0	2.5	/experiments/knapen_aot/videos/R_S_ILSVRC2015_test_00001002.mp4	0.0	221.20605421066284	0.41734886169433594
49	162.85712599754333	response	0	2		47.0	2.5	/experiments/knapen_aot/videos/R_S_ILSVRC2015_test_00001002.mp4	0.0	221.61451506614685	
49	162.86601400375366	movie	1		300.0	47.0	2.5	/experiments/knapen_aot/videos/R_S_ILSVRC2015_test_00001002.mp4	0.0	221.62340307235718	2.507662057876587
49	165.37367606163025	fix_post	2		12.0	47.0	2.5	/experiments/knapen_aot/videos/R_S_ILSVRC2015_test_00001002.mp4	0.0	224.13106513023376	0.09998106956481934
49	165.45708107948303	response	2	2		47.0	2.5	/experiments/knapen_aot/videos/R_S_ILSVRC2015_test_00001002.mp4	0.0	224.21447014808655	
50	165.47365713119507	fix_pre	0		305.0	48.0	2.5	/experiments/knapen_aot/videos/R_S_yt-Rqwi-Fk9IJQ_114.mp4	0.0	224.23104619979858	2.5417020320892334
50	168.00713419914246	response	0	2		48.0	2.5	/experiments/knapen_aot/videos/R_S_yt-Rqwi-Fk9IJQ_114.mp4	0.0	226.76452326774597	
50	168.0153591632843	movie	1		301.0	48.0	2.5	/experiments/knapen_aot/videos/R_S_yt-Rqwi-Fk9IJQ_114.mp4	0.0	226.77274823188782	2.508291006088257
50	170.31539297103882	response	1	2		48.0	2.5	/experiments/knapen_aot/videos/R_S_yt-Rqwi-Fk9IJQ_114.mp4	0.0	229.07278203964233	
50	170.52365016937256	fix_post	2		12.0	48.0	2.5	/experiments/knapen_aot/videos/R_S_yt-Rqwi-Fk9IJQ_114.mp4	0.0	229.28103923797607	0.10000181198120117
51	170.62365198135376	fix_pre	0		82.0	49.0	2.5	blank	1.0	229.38104104995728	0.683312177658081
51	171.29876518249512	response	0	2		49.0	2.5	blank	1.0	230.05615425109863	
51	171.30696415901184	movie	1		301.0	49.0	2.5	blank	1.0	230.06435322761536	2.508297920227051
51	173.8152620792389	fix_post	2		12.0	49.0	2.5	blank	1.0	232.5726511478424	0.09994196891784668
52	173.91520404815674	fix_pre	0		45.0	50.0	2.5	/experiments/knapen_aot/videos/S_yt-fnE8kgUHUMI_64.mp4	0.0	232.67259311676025	0.37507104873657227
52	174.28203296661377	response	0	2		50.0	2.5	/experiments/knapen_aot/videos/S_yt-fnE8kgUHUMI_64.mp4	0.0	233.03942203521729	
52	174.2902750968933	movie	1		301.0	50.0	2.5	/experiments/knapen_aot/videos/S_yt-fnE8kgUHUMI_64.mp4	0.0	233.04766416549683	2.5083370208740234
52	176.79861211776733	fix_post	2		12.0	50.0	2.5	/experiments/knapen_aot/videos/S_yt-fnE8kgUHUMI_64.mp4	0.0	235.55600118637085	0.09994101524353027
53	176.89855313301086	fix_pre	0		31.0	51.0	2.5	/experiments/knapen_aot/videos/S_yt-JQOHHL30Y54_101.mp4	0.0	235.65594220161438	0.2591559886932373
53	177.1486780643463	response	0	2		51.0	2.5	/experiments/knapen_aot/videos/S_yt-JQOHHL30Y54_101.mp4	0.0	235.90606713294983	
53	177.1577091217041	movie	1		301.0	51.0	2.5	/experiments/knapen_aot/videos/S_yt-JQOHHL30Y54_101.mp4	0.0	235.91509819030762	2.5075478553771973
53	179.6652569770813	fix_post	2		12.0	51.0	2.5	/experiments/knapen_aot/videos/S_yt-JQOHHL30Y54_101.mp4	0.0	238.42264604568481	0.0999901294708252
54	179.76524710655212	fix_pre	0		90.0	52.0	2.5	/experiments/knapen_aot/videos/S_yt-WrwPgZYBXlA_34.mp4	0.0	238.52263617515564	0.7499840259552002
54	180.50698900222778	response	0	2		52.0	2.5	/experiments/knapen_aot/videos/S_yt-WrwPgZYBXlA_34.mp4	0.0	239.2643780708313	
54	180.51523113250732	movie	1		301.0	52.0	2.5	/experiments/knapen_aot/videos/S_yt-WrwPgZYBXlA_34.mp4	0.0	239.27262020111084	2.508251905441284
54	183.0234830379486	fix_post	2		12.0	52.0	2.5	/experiments/knapen_aot/videos/S_yt-WrwPgZYBXlA_34.mp4	0.0	241.78087210655212	0.10006594657897949
55	183.1235489845276	fix_pre	0		61.0	53.0	2.5	/experiments/knapen_aot/videos/S_yt-xNKgc8sFYvU_35.mp4	0.0	241.8809380531311	0.5082871913909912
55	183.62382006645203	response	0	2		53.0	2.5	/experiments/knapen_aot/videos/S_yt-xNKgc8sFYvU_35.mp4	0.0	242.38120913505554	
55	183.63183617591858	movie	1		301.0	53.0	2.5	/experiments/knapen_aot/videos/S_yt-xNKgc8sFYvU_35.mp4	0.0	242.3892252445221	2.508410930633545
55	186.14024710655212	fix_post	2		12.0	53.0	2.5	/experiments/knapen_aot/videos/S_yt-xNKgc8sFYvU_35.mp4	0.0	244.89763617515564	0.10071802139282227
56	186.24096512794495	fix_pre	0		70.0	54.0	2.5	/experiments/knapen_aot/videos/R_S_yt-yAtHuDsadu8_102.mp4	0.0	244.99835419654846	0.5831530094146729
56	186.8153259754181	response	0	2		54.0	2.5	/experiments/knapen_aot/videos/R_S_yt-yAtHuDsadu8_102.mp4	0.0	245.5727150440216	
56	186.82411813735962	movie	1		301.0	54.0	2.5	/experiments/knapen_aot/videos/R_S_yt-yAtHuDsadu8_102.mp4	0.0	245.58150720596313	2.507761001586914
56	189.33187913894653	fix_post	2		12.0	54.0	2.5	/experiments/knapen_aot/videos/R_S_yt-yAtHuDsadu8_102.mp4	0.0	248.08926820755005	0.0999760627746582
57	189.4318552017212	fix_pre	0		206.0	55.0	2.5	/experiments/knapen_aot/videos/S_comp_GL_G002_C002_PSNK_v03_SDR_PS_20180925_SDR_2K_AVC.mp4	0.0	248.1892442703247	1.7166848182678223
57	191.1328740119934	response	0	2		55.0	2.5	/experiments/knapen_aot/videos/S_comp_GL_G002_C002_PSNK_v03_SDR_PS_20180925_SDR_2K_AVC.mp4	0.0	249.89026308059692	
57	191.148540019989	movie	1		164.0	55.0	2.5	/experiments/knapen_aot/videos/S_comp_GL_G002_C002_PSNK_v03_SDR_PS_20180925_SDR_2K_AVC.mp4	0.0	249.90592908859253	2.508331060409546
57	193.65687108039856	fix_post	2		12.0	55.0	2.5	/experiments/knapen_aot/videos/S_comp_GL_G002_C002_PSNK_v03_SDR_PS_20180925_SDR_2K_AVC.mp4	0.0	252.41426014900208	0.10010910034179688
58	193.75698018074036	fix_pre	0		69.0	56.0	2.5	blank	1.0	252.51436924934387	0.5748169422149658
58	194.32364416122437	response	0	2		56.0	2.5	blank	1.0	253.08103322982788	
58	194.33179712295532	movie	1		301.0	56.0	2.5	blank	1.0	253.08918619155884	2.5082919597625732
58	196.8400890827179	fix_post	2		12.0	56.0	2.5	blank	1.0	255.5974781513214	0.10005998611450195
59	196.9401490688324	fix_pre	0		70.0	57.0	2.5	/experiments/knapen_aot/videos/S_yt-146gReE6xKw_379.mp4	0.0	255.6975381374359	0.5833070278167725
59	197.51528120040894	response	0	2		57.0	2.5	/experiments/knapen_aot/videos/S_yt-146gReE6xKw_379.mp4	0.0	256.27267026901245	
59	197.52345609664917	movie	1		301.0	57.0	2.5	/experiments/knapen_aot/videos/S_yt-146gReE6xKw_379.mp4	0.0	256.2808451652527	2.50833797454834
59	198.9908390045166	response	1	2		57.0	2.5	/experiments/knapen_aot/videos/S_yt-146gReE6xKw_379.mp4	0.0	257.7482280731201	
59	200.0317940711975	fix_post	2		12.0	57.0	2.5	/experiments/knapen_aot/videos/S_yt-146gReE6xKw_379.mp4	0.0	258.789183139801	0.10016798973083496
60	200.13196206092834	fix_pre	0		193.0	58.0	2.5	/experiments/knapen_aot/videos/R_S_yt-iT6jsSikmGM_4.mp4	0.0	258.88935112953186	1.6086599826812744
60	201.7318320274353	response	0	2		58.0	2.5	/experiments/knapen_aot/videos/R_S_yt-iT6jsSikmGM_4.mp4	0.0	260.4892210960388	
60	201.74062204360962	movie	1		301.0	58.0	2.5	/experiments/knapen_aot/videos/R_S_yt-iT6jsSikmGM_4.mp4	0.0	260.49801111221313	2.507897138595581
60	202.498615026474	response	1	2		58.0	2.5	/experiments/knapen_aot/videos/R_S_yt-iT6jsSikmGM_4.mp4	0.0	261.2560040950775	
60	204.2485191822052	fix_post	2		12.0	58.0	2.5	/experiments/knapen_aot/videos/R_S_yt-iT6jsSikmGM_4.mp4	0.0	263.0059082508087	0.09999990463256836
61	204.34851908683777	fix_pre	0		58.0	59.0	2.5	/experiments/knapen_aot/videos/S_yt-9Q7SZR0mgMA_155.mp4	0.0	263.1059081554413	0.4832890033721924
61	204.8160481452942	response	0	2		59.0	2.5	/experiments/knapen_aot/videos/S_yt-9Q7SZR0mgMA_155.mp4	0.0	263.5734372138977	
61	204.83180809020996	movie	1		301.0	59.0	2.5	/experiments/knapen_aot/videos/S_yt-9Q7SZR0mgMA_155.mp4	0.0	263.5891971588135	2.5083348751068115
61	207.34014296531677	fix_post	2		12.0	59.0	2.5	/experiments/knapen_aot/videos/S_yt-9Q7SZR0mgMA_155.mp4	0.0	266.0975320339203	0.10014104843139648
62	207.44028401374817	fix_pre	0		22.0	60.0	2.5	/experiments/knapen_aot/videos/S_yt-JQOHHL30Y54_101.mp4	0.0	266.1976730823517	0.18315696716308594
62	207.61522912979126	response	0	2		60.0	2.5	/experiments/knapen_aot/videos/S_yt-JQOHHL30Y54_101.mp4	0.0	266.3726181983948	
62	207.62344098091125	movie	1		301.0	60.0	2.5	/experiments/knapen_aot/videos/S_yt-JQOHHL30Y54_101.mp4	0.0	266.38083004951477	2.5083141326904297
62	210.13175511360168	fix_post	2		12.0	60.0	2.5	/experiments/knapen_aot/videos/S_yt-JQOHHL30Y54_101.mp4	0.0	268.8891441822052	0.10001897811889648
63	210.23177409172058	fix_pre	0		11.0	61.0	2.5	/experiments/knapen_aot/videos/S_ILSVRC2015_train_00165009.mp4	0.0	268.9891631603241	0.0921170711517334
63	210.3152310848236	response	0	2		61.0	2.5	/experiments/knapen_aot/videos/S_ILSVRC2015_train_00165009.mp4	0.0	269.0726201534271	
63	210.32389116287231	movie	1		301.0	61.0	2.5	/experiments/knapen_aot/videos/S_ILSVRC2015_train_00165009.mp4	0.0	269.08128023147583	2.5078439712524414
63	212.83173513412476	fix_post	2		12.0	61.0	2.5	/experiments/knapen_aot/videos/S_ILSVRC2015_train_00165009.mp4	0.0	271.58912420272827	0.1000208854675293
64	212.93175601959229	fix_pre	0		177.0	62.0	2.5	/experiments/knapen_aot/videos/S_yt-9Q7SZR0mgMA_155.mp4	0.0	271.6891450881958	1.4753999710083008
64	214.39105010032654	response	0	2		62.0	2.5	/experiments/knapen_aot/videos/S_yt-9Q7SZR0mgMA_155.mp4	0.0	273.14843916893005	
64	214.4071559906006	movie	1		300.0	62.0	2.5	/experiments/knapen_aot/videos/S_yt-9Q7SZR0mgMA_155.mp4	0.0	273.1645450592041	2.5079281330108643
64	216.91508412361145	fix_post	2		12.0	62.0	2.5	/experiments/knapen_aot/videos/S_yt-9Q7SZR0mgMA_155.mp4	0.0	275.67247319221497	0.10003900527954102
65	217.015123128891	fix_pre	0		18.0	63.0	2.5	blank	1.0	275.7725121974945	0.14998984336853027
65	217.15688514709473	response	0	2		63.0	2.5	blank	1.0	275.91427421569824	
65	217.16511297225952	movie	1		301.0	63.0	2.5	blank	1.0	275.92250204086304	2.508345127105713
65	219.67345809936523	fix_post	2		12.0	63.0	2.5	blank	1.0	278.43084716796875	0.09995293617248535
66	219.77341103553772	fix_pre	0		32.0	64.0	2.5	/experiments/knapen_aot/videos/S_pexels-yaroslav-shuraev-8091356.mp4	0.0	278.53080010414124	0.2666900157928467
66	220.03179717063904	response	0	2		64.0	2.5	/experiments/knapen_aot/videos/S_pexels-yaroslav-shuraev-8091356.mp4	0.0	278.78918623924255	
66	220.04010105133057	movie	1		189.0	64.0	2.5	/experiments/knapen_aot/videos/S_pexels-yaroslav-shuraev-8091356.mp4	0.0	278.7974901199341	2.5082831382751465
66	222.5483841896057	fix_post	2		12.0	64.0	2.5	/experiments/knapen_aot/videos/S_pexels-yaroslav-shuraev-8091356.mp4	0.0	281.30577325820923	0.09995794296264648
67	222.64834213256836	fix_pre	0		62.0	65.0	2.5	/experiments/knapen_aot/videos/S_comp_H004_C007_PS_v02_SDR_PS_20180925_SDR_2K_AVC.mp4	0.0	281.4057312011719	0.5167438983917236
67	223.15683603286743	response	0	2		65.0	2.5	/experiments/knapen_aot/videos/S_comp_H004_C007_PS_v02_SDR_PS_20180925_SDR_2K_AVC.mp4	0.0	281.91422510147095	
67	223.16508603096008	movie	1		166.0	65.0	2.5	/experiments/knapen_aot/videos/S_comp_H004_C007_PS_v02_SDR_PS_20180925_SDR_2K_AVC.mp4	0.0	281.9224750995636	2.508307933807373
67	225.67339396476746	fix_post	2		12.0	65.0	2.5	/experiments/knapen_aot/videos/S_comp_H004_C007_PS_v02_SDR_PS_20180925_SDR_2K_AVC.mp4	0.0	284.430783033371	0.09993100166320801
68	225.77332496643066	fix_pre	0		30.0	66.0	2.5	/experiments/knapen_aot/videos/R_S_yt-tEzCpMrjOHs_24.mp4	0.0	284.5307140350342	0.2500460147857666
68	226.01516008377075	response	0	2		66.0	2.5	/experiments/knapen_aot/videos/R_S_yt-tEzCpMrjOHs_24.mp4	0.0	284.77254915237427	
68	226.02337098121643	movie	1		301.0	66.0	2.5	/experiments/knapen_aot/videos/R_S_yt-tEzCpMrjOHs_24.mp4	0.0	284.78076004981995	2.508334159851074
68	228.5317051410675	fix_post	2		12.0	66.0	2.5	/experiments/knapen_aot/videos/R_S_yt-tEzCpMrjOHs_24.mp4	0.0	287.289094209671	0.09999585151672363
69	228.63170099258423	fix_pre	0		32.0	67.0	2.5	/experiments/knapen_aot/videos/S_yt-XbNHfZjXuVM_43.mp4	0.0	287.38909006118774	0.26668500900268555
69	228.8901469707489	response	0	2		67.0	2.5	/experiments/knapen_aot/videos/S_yt-XbNHfZjXuVM_43.mp4	0.0	287.6475360393524	
69	228.8983860015869	movie	1		301.0	67.0	2.5	/experiments/knapen_aot/videos/S_yt-XbNHfZjXuVM_43.mp4	0.0	287.65577507019043	2.5082759857177734
69	231.4066619873047	fix_post	2		12.0	67.0	2.5	/experiments/knapen_aot/videos/S_yt-XbNHfZjXuVM_43.mp4	0.0	290.1640510559082	0.09991312026977539
70	231.50657510757446	fix_pre	0		35.0	68.0	2.5	blank	1.0	290.263964176178	0.29166507720947266
70	231.7901611328125	response	0	2		68.0	2.5	blank	1.0	290.547550201416	
70	231.79824018478394	movie	1		301.0	68.0	2.5	blank	1.0	290.55562925338745	2.508327007293701
70	234.30656719207764	fix_post	2		12.0	68.0	2.5	blank	1.0	293.06395626068115	0.1000518798828125
71	234.40661907196045	fix_pre	0		70.0	69.0	2.5	/experiments/knapen_aot/videos/S_yt-BJsMGxfjrZk_59.mp4	0.0	293.16400814056396	0.5837008953094482
71	234.98175406455994	response	0	2		69.0	2.5	/experiments/knapen_aot/videos/S_yt-BJsMGxfjrZk_59.mp4	0.0	293.73914313316345	
71	234.9903199672699	movie	1		301.0	69.0	2.5	/experiments/knapen_aot/videos/S_yt-BJsMGxfjrZk_59.mp4	0.0	293.7477090358734	2.5079681873321533
71	237.49828815460205	fix_post	2		12.0	69.0	2.5	/experiments/knapen_aot/videos/S_yt-BJsMGxfjrZk_59.mp4	0.0	296.25567722320557	0.10001397132873535
72	237.5983021259308	fix_pre	0		221.0	70.0	2.5	/experiments/knapen_aot/videos/R_S_ILSVRC2015_train_00495000.mp4	0.0	296.3556911945343	1.841649055480957
72	239.431823015213	response	0	2		70.0	2.5	/experiments/knapen_aot/videos/R_S_ILSVRC2015_train_00495000.mp4	0.0	298.1892120838165	
72	239.43995118141174	movie	1		300.0	70.0	2.5	/experiments/knapen_aot/videos/R_S_ILSVRC2015_train_00495000.mp4	0.0	298.19734025001526	2.508272886276245
72	241.948224067688	fix_post	2		12.0	70.0	2.5	/experiments/knapen_aot/videos/R_S_ILSVRC2015_train_00495000.mp4	0.0	300.7056131362915	0.10007500648498535
73	242.04829907417297	fix_pre	0		35.0	71.0	2.5	/experiments/knapen_aot/videos/R_S_ILSVRC2015_train_00545000.mp4	0.0	300.8056881427765	0.291654109954834
73	242.33165001869202	response	0	2		71.0	2.5	/experiments/knapen_aot/videos/R_S_ILSVRC2015_train_00545000.mp4	0.0	301.08903908729553	
73	242.3399531841278	movie	1		300.0	71.0	2.5	/experiments/knapen_aot/videos/R_S_ILSVRC2015_train_00545000.mp4	0.0	301.0973422527313	2.508319854736328
73	244.84827303886414	fix_post	2		12.0	71.0	2.5	/experiments/knapen_aot/videos/R_S_ILSVRC2015_train_00545000.mp4	0.0	303.60566210746765	0.10033011436462402
74	244.94860315322876	fix_pre	0		28.0	72.0	2.5	/experiments/knapen_aot/videos/S_yt-4r-oovk9JWg_85.mp4	0.0	303.7059922218323	0.23296785354614258
74	245.17342901229858	response	0	2		72.0	2.5	/experiments/knapen_aot/videos/S_yt-4r-oovk9JWg_85.mp4	0.0	303.9308180809021	
74	245.1815710067749	movie	1		301.0	72.0	2.5	/experiments/knapen_aot/videos/S_yt-4r-oovk9JWg_85.mp4	0.0	303.9389600753784	2.5083611011505127
74	247.68993210792542	fix_post	2		12.0	72.0	2.5	/experiments/knapen_aot/videos/S_yt-4r-oovk9JWg_85.mp4	0.0	306.44732117652893	0.09994196891784668
75	247.78987407684326	fix_pre	0		378.0	73.0	2.5	/experiments/knapen_aot/videos/S_yt-zQnaVApUPH0_14.mp4	0.0	306.5472631454468	3.150054931640625
75	250.93168115615845	response	0	2		73.0	2.5	/experiments/knapen_aot/videos/S_yt-zQnaVApUPH0_14.mp4	0.0	309.68907022476196	
75	250.9399290084839	movie	1		301.0	73.0	2.5	/experiments/knapen_aot/videos/S_yt-zQnaVApUPH0_14.mp4	0.0	309.6973180770874	2.5083839893341064
75	253.448312997818	fix_post	2		12.0	73.0	2.5	/experiments/knapen_aot/videos/S_yt-zQnaVApUPH0_14.mp4	0.0	312.2057020664215	0.09995007514953613
76	253.54826307296753	fix_pre	0		55.0	74.0	2.5	/experiments/knapen_aot/videos/R_S_pexels-yaroslav-shuraev-8091356.mp4	0.0	312.30565214157104	0.45830392837524414
76	253.99832201004028	response	0	2		74.0	2.5	/experiments/knapen_aot/videos/R_S_pexels-yaroslav-shuraev-8091356.mp4	0.0	312.7557110786438	
76	254.00656700134277	movie	1		189.0	74.0	2.5	/experiments/knapen_aot/videos/R_S_pexels-yaroslav-shuraev-8091356.mp4	0.0	312.7639560699463	2.5082881450653076
76	256.0180661678314	response	1	2		74.0	2.5	/experiments/knapen_aot/videos/R_S_pexels-yaroslav-shuraev-8091356.mp4	0.0	314.77545523643494	
76	256.5148551464081	fix_post	2		12.0	74.0	2.5	/experiments/knapen_aot/videos/R_S_pexels-yaroslav-shuraev-8091356.mp4	0.0	315.2722442150116	0.10028290748596191
77	256.61513805389404	fix_pre	0		20.0	75.0	2.5	/experiments/knapen_aot/videos/R_S_ILSVRC2015_train_00434000.mp4	0.0	315.37252712249756	0.16663813591003418
77	256.7733201980591	response	0	2		75.0	2.5	/experiments/knapen_aot/videos/R_S_ILSVRC2015_train_00434000.mp4	0.0	315.5307092666626	
77	256.7817761898041	movie	1		301.0	75.0	2.5	/experiments/knapen_aot/videos/R_S_ILSVRC2015_train_00434000.mp4	0.0	315.5391652584076	2.5081398487091064
77	259.2899160385132	fix_post	2		12.0	75.0	2.5	/experiments/knapen_aot/videos/R_S_ILSVRC2015_train_00434000.mp4	0.0	318.0473051071167	0.09992504119873047
78	259.3898410797119	fix_pre	0		12.0	76.0	2.5	blank	1.0	318.14723014831543	0.10027098655700684
78	259.48161697387695	response	0	2		76.0	2.5	blank	1.0	318.23900604248047	
78	259.4901120662689	movie	1		301.0	76.0	2.5	blank	1.0	318.24750113487244	2.5081279277801514
78	261.9982399940491	fix_post	2		12.0	76.0	2.5	blank	1.0	320.7556290626526	0.09995198249816895
79	262.09819197654724	fix_pre	0		19.0	77.0	2.5	/experiments/knapen_aot/videos/R_S_yt-B8Sy53C6Pxw_8.mp4	0.0	320.85558104515076	0.15833115577697754
79	262.24827909469604	response	0	2		77.0	2.5	/experiments/knapen_aot/videos/R_S_yt-B8Sy53C6Pxw_8.mp4	0.0	321.00566816329956	
79	262.2565231323242	movie	1		300.0	77.0	2.5	/experiments/knapen_aot/videos/R_S_yt-B8Sy53C6Pxw_8.mp4	0.0	321.01391220092773	2.5083248615264893
79	264.7648479938507	fix_post	2		12.0	77.0	2.5	/experiments/knapen_aot/videos/R_S_yt-B8Sy53C6Pxw_8.mp4	0.0	323.5222370624542	0.10019516944885254
80	264.86504316329956	fix_pre	0		69.0	78.0	2.5	/experiments/knapen_aot/videos/R_S_comp_A007_C017_01156B_v02_SDR_PS_20180925_SDR_2K_AVC.mp4	0.0	323.6224322319031	0.5748100280761719
80	265.43156909942627	response	0	2		78.0	2.5	/experiments/knapen_aot/videos/R_S_comp_A007_C017_01156B_v02_SDR_PS_20180925_SDR_2K_AVC.mp4	0.0	324.1889581680298	
80	265.43985319137573	movie	1		164.0	78.0	2.5	/experiments/knapen_aot/videos/R_S_comp_A007_C017_01156B_v02_SDR_PS_20180925_SDR_2K_AVC.mp4	0.0	324.19724225997925	2.508511781692505
80	267.9232761859894	response	1	2		78.0	2.5	/experiments/knapen_aot/videos/R_S_comp_A007_C017_01156B_v02_SDR_PS_20180925_SDR_2K_AVC.mp4	0.0	326.6806652545929	
80	267.94836497306824	fix_post	2		12.0	78.0	2.5	/experiments/knapen_aot/videos/R_S_comp_A007_C017_01156B_v02_SDR_PS_20180925_SDR_2K_AVC.mp4	0.0	326.70575404167175	0.09983015060424805
81	268.0481951236725	fix_pre	0		371.0	79.0	2.5	/experiments/knapen_aot/videos/S_yt-y6zr69M0yHI_76.mp4	0.0	326.805584192276	3.091672897338867
81	271.13159704208374	response	0	2		79.0	2.5	/experiments/knapen_aot/videos/S_yt-y6zr69M0yHI_76.mp4	0.0	329.88898611068726	
81	271.13986802101135	movie	1		301.0	79.0	2.5	/experiments/knapen_aot/videos/S_yt-y6zr69M0yHI_76.mp4	0.0	329.89725708961487	2.5082859992980957
81	272.35819602012634	response	1	2		79.0	2.5	/experiments/knapen_aot/videos/S_yt-y6zr69M0yHI_76.mp4	0.0	331.11558508872986	
81	273.03993701934814	response	1	2		79.0	2.5	/experiments/knapen_aot/videos/S_yt-y6zr69M0yHI_76.mp4	0.0	331.79732608795166	
81	273.64815402030945	fix_post	2		12.0	79.0	2.5	/experiments/knapen_aot/videos/S_yt-y6zr69M0yHI_76.mp4	0.0	332.40554308891296	0.09997296333312988
82	273.7481269836426	fix_pre	0		240.0	80.0	2.5	/experiments/knapen_aot/videos/R_S_yt-M5qZo3CUXYE_27.mp4	0.0	332.5055160522461	1.9999611377716064
82	275.73999309539795	response	0	2		80.0	2.5	/experiments/knapen_aot/videos/R_S_yt-M5qZo3CUXYE_27.mp4	0.0	334.49738216400146	
82	275.7480881214142	movie	1		301.0	80.0	2.5	/experiments/knapen_aot/videos/R_S_yt-M5qZo3CUXYE_27.mp4	0.0	334.5054771900177	2.508293867111206
82	278.2563819885254	fix_post	2		12.0	80.0	2.5	/experiments/knapen_aot/videos/R_S_yt-M5qZo3CUXYE_27.mp4	0.0	337.0137710571289	0.10009598731994629
83	278.35647797584534	fix_pre	0		97.0	81.0	2.5	/experiments/knapen_aot/videos/R_S_wc-ZZxbTv7oc5DQ_10.mp4	0.0	337.11386704444885	0.8082761764526367
83	279.1565771102905	response	0	2		81.0	2.5	/experiments/knapen_aot/videos/R_S_wc-ZZxbTv7oc5DQ_10.mp4	0.0	337.91396617889404	
83	279.164754152298	movie	1		163.0	81.0	2.5	/experiments/knapen_aot/videos/R_S_wc-ZZxbTv7oc5DQ_10.mp4	0.0	337.9221432209015	2.50836181640625
83	281.6731159687042	fix_post	2		12.0	81.0	2.5	/experiments/knapen_aot/videos/R_S_wc-ZZxbTv7oc5DQ_10.mp4	0.0	340.43050503730774	0.10005521774291992
84	281.77317118644714	fix_pre	0		41.0	82.0	2.5	/experiments/knapen_aot/videos/S_yt-F2x6e7e7cAE_70.mp4	0.0	340.53056025505066	0.34172892570495605
84	282.1066060066223	response	0	2		82.0	2.5	/experiments/knapen_aot/videos/S_yt-F2x6e7e7cAE_70.mp4	0.0	340.86399507522583	
84	282.1149001121521	movie	1		301.0	82.0	2.5	/experiments/knapen_aot/videos/S_yt-F2x6e7e7cAE_70.mp4	0.0	340.8722891807556	2.50819993019104
84	284.62310004234314	fix_post	2		12.0	82.0	2.5	/experiments/knapen_aot/videos/S_yt-F2x6e7e7cAE_70.mp4	0.0	343.38048911094666	0.10003304481506348
85	284.7231330871582	fix_pre	0		35.0	83.0	2.5	blank	1.0	343.4805221557617	0.29158997535705566
85	285.0065791606903	response	0	2		83.0	2.5	blank	1.0	343.7639682292938	
85	285.01472306251526	movie	1		301.0	83.0	2.5	blank	1.0	343.7721121311188	2.50838303565979
85	287.52310609817505	fix_post	2		12.0	83.0	2.5	blank	1.0	346.28049516677856	0.10005307197570801
87	287.62315917015076	stim	0		152.0					346.3805482387543	1.269467830657959
87	287.8732080459595	response	0	2						346.630597114563	
87	288.8860821723938	response	0	space						347.6434712409973	
