trial_nr	onset	event_type	phase	response	nr_frames	movie_index	movie_duration	movie_file	blank	onset_abs	duration
0	0.1318960189819336	stim	0		39.0					53.993906021118164	0.3216240406036377
0	0.44495606422424316	response	0	space						54.306966066360474	
1	0.4535200595855713	stim	0		121.0					54.3155300617218	1.0080299377441406
1	1.0198900699615479	response	0	space						54.88190007209778	
1	1.461549997329712	stim	1		120.0					55.32355999946594	0.999589204788208
1	1.4782910346984863	response	1	space						55.34030103683472	
1	1.9620130062103271	response	1	space						55.82402300834656	
2	2.46113920211792	fix_pre	0		2.0	0.0	2.5	/experiments/knapen_aot/videos/S_Y011_C001_SDR_2K_AVC.mp4	0.0	56.32314920425415	0.017804861068725586
2	2.4721519947052	response	0	space		0.0	2.5	/experiments/knapen_aot/videos/S_Y011_C001_SDR_2K_AVC.mp4	0.0	56.33416199684143	
2	2.4789440631866455	movie	1		170.0	0.0	2.5	/experiments/knapen_aot/videos/S_Y011_C001_SDR_2K_AVC.mp4	0.0	56.340954065322876	2.5071940422058105
2	4.986138105392456	fix_post	2		12.0	0.0	2.5	/experiments/knapen_aot/videos/S_Y011_C001_SDR_2K_AVC.mp4	0.0	58.84814810752869	0.10013699531555176
3	5.086275100708008	fix_pre	0		61.0	1.0	2.5	/experiments/knapen_aot/videos/R_S_ILSVRC2015_test_00012005.mp4	0.0	58.94828510284424	0.5081639289855957
3	5.58664608001709	response	0	2		1.0	2.5	/experiments/knapen_aot/videos/R_S_ILSVRC2015_test_00012005.mp4	0.0	59.44865608215332	
3	5.5944390296936035	movie	1		301.0	1.0	2.5	/experiments/knapen_aot/videos/R_S_ILSVRC2015_test_00012005.mp4	0.0	59.456449031829834	2.50833797454834
3	8.102777004241943	fix_post	2		12.0	1.0	2.5	/experiments/knapen_aot/videos/R_S_ILSVRC2015_test_00012005.mp4	0.0	61.964787006378174	0.10000419616699219
4	8.202781200408936	fix_pre	0		58.0	2.0	2.5	/experiments/knapen_aot/videos/S_Y011_C001_SDR_2K_AVC.mp4	0.0	62.064791202545166	0.48431897163391113
4	8.677901029586792	response	0	2		2.0	2.5	/experiments/knapen_aot/videos/S_Y011_C001_SDR_2K_AVC.mp4	0.0	62.53991103172302	
4	8.687100172042847	movie	1		166.0	2.0	2.5	/experiments/knapen_aot/videos/S_Y011_C001_SDR_2K_AVC.mp4	0.0	62.54911017417908	2.5074198246002197
4	11.194519996643066	fix_post	2		12.0	2.0	2.5	/experiments/knapen_aot/videos/S_Y011_C001_SDR_2K_AVC.mp4	0.0	65.0565299987793	0.10000920295715332
5	11.29452919960022	fix_pre	0		52.0	3.0	2.5	/experiments/knapen_aot/videos/S_ILSVRC2015_train_00373000.mp4	0.0	65.15653920173645	0.4342978000640869
5	11.719515085220337	response	0	2		3.0	2.5	/experiments/knapen_aot/videos/S_ILSVRC2015_train_00373000.mp4	0.0	65.58152508735657	
5	11.728826999664307	movie	1		301.0	3.0	2.5	/experiments/knapen_aot/videos/S_ILSVRC2015_train_00373000.mp4	0.0	65.59083700180054	2.5072669982910156
5	14.236093997955322	fix_post	2		12.0	3.0	2.5	/experiments/knapen_aot/videos/S_ILSVRC2015_train_00373000.mp4	0.0	68.09810400009155	0.10002613067626953
6	14.336120128631592	fix_pre	0		54.0	4.0	2.5	/experiments/knapen_aot/videos/R_S_pexels-cottonbro-10640532.mp4	0.0	68.19813013076782	0.45001697540283203
6	14.7779061794281	response	0	2		4.0	2.5	/experiments/knapen_aot/videos/R_S_pexels-cottonbro-10640532.mp4	0.0	68.63991618156433	
6	14.786137104034424	movie	1		203.0	4.0	2.5	/experiments/knapen_aot/videos/R_S_pexels-cottonbro-10640532.mp4	0.0	68.64814710617065	2.5083260536193848
6	17.29446315765381	fix_post	2		12.0	4.0	2.5	/experiments/knapen_aot/videos/R_S_pexels-cottonbro-10640532.mp4	0.0	71.15647315979004	0.09998083114624023
7	17.39444398880005	fix_pre	0		57.0	5.0	2.5	blank	1.0	71.25645399093628	0.47497105598449707
7	17.86121106147766	response	0	2		5.0	2.5	blank	1.0	71.72322106361389	
7	17.869415044784546	movie	1		301.0	5.0	2.5	blank	1.0	71.73142504692078	2.508334159851074
7	20.37774920463562	fix_post	2		12.0	5.0	2.5	blank	1.0	74.23975920677185	0.10006999969482422
8	20.477819204330444	fix_pre	0		60.0	6.0	2.5	/experiments/knapen_aot/videos/S_yt-0d5TkclKWVA_146.mp4	0.0	74.33982920646667	0.500708818435669
8	20.96954107284546	response	0	2		6.0	2.5	/experiments/knapen_aot/videos/S_yt-0d5TkclKWVA_146.mp4	0.0	74.83155107498169	
8	20.978528022766113	movie	1		301.0	6.0	2.5	/experiments/knapen_aot/videos/S_yt-0d5TkclKWVA_146.mp4	0.0	74.84053802490234	2.50760817527771
8	23.486136198043823	fix_post	2		12.0	6.0	2.5	/experiments/knapen_aot/videos/S_yt-0d5TkclKWVA_146.mp4	0.0	77.34814620018005	0.0998539924621582
9	23.58599019050598	fix_pre	0		86.0	7.0	2.5	/experiments/knapen_aot/videos/S_comp_DB_D002_C003_PSNK_v04_SDR_PS_20180914_SDR_2K_AVC.mp4	0.0	77.44800019264221	0.7167048454284668
9	24.29454207420349	response	0	2		7.0	2.5	/experiments/knapen_aot/videos/S_comp_DB_D002_C003_PSNK_v04_SDR_PS_20180914_SDR_2K_AVC.mp4	0.0	78.15655207633972	
9	24.30269503593445	movie	1		167.0	7.0	2.5	/experiments/knapen_aot/videos/S_comp_DB_D002_C003_PSNK_v04_SDR_PS_20180914_SDR_2K_AVC.mp4	0.0	78.16470503807068	2.5083680152893066
9	26.811063051223755	fix_post	2		12.0	7.0	2.5	/experiments/knapen_aot/videos/S_comp_DB_D002_C003_PSNK_v04_SDR_PS_20180914_SDR_2K_AVC.mp4	0.0	80.67307305335999	0.10000014305114746
10	26.911063194274902	fix_pre	0		53.0	8.0	2.5	/experiments/knapen_aot/videos/R_S_yt-a5TGHnldsKg_102.mp4	0.0	80.77307319641113	0.44240593910217285
10	27.337123155593872	response	0	2		8.0	2.5	/experiments/knapen_aot/videos/R_S_yt-a5TGHnldsKg_102.mp4	0.0	81.1991331577301	
10	27.353469133377075	movie	1		301.0	8.0	2.5	/experiments/knapen_aot/videos/R_S_yt-a5TGHnldsKg_102.mp4	0.0	81.2154791355133	2.5076069831848145
10	29.86107611656189	fix_post	2		12.0	8.0	2.5	/experiments/knapen_aot/videos/R_S_yt-a5TGHnldsKg_102.mp4	0.0	83.72308611869812	0.09996294975280762
11	29.961039066314697	fix_pre	0		78.0	9.0	2.5	/experiments/knapen_aot/videos/R_S_pexels-kindel-media-7147375.mp4	0.0	83.82304906845093	0.6499700546264648
11	30.602805137634277	response	0	2		9.0	2.5	/experiments/knapen_aot/videos/R_S_pexels-kindel-media-7147375.mp4	0.0	84.46481513977051	
11	30.611009120941162	movie	1		166.0	9.0	2.5	/experiments/knapen_aot/videos/R_S_pexels-kindel-media-7147375.mp4	0.0	84.47301912307739	2.5083470344543457
11	33.11935615539551	fix_post	2		12.0	9.0	2.5	/experiments/knapen_aot/videos/R_S_pexels-kindel-media-7147375.mp4	0.0	86.98136615753174	0.10000801086425781
12	33.219364166259766	fix_pre	0		51.0	10.0	2.5	/experiments/knapen_aot/videos/S_yt-4-u4Fw_J_q8_45.mp4	0.0	87.081374168396	0.4258840084075928
12	33.636144161224365	response	0	2		10.0	2.5	/experiments/knapen_aot/videos/S_yt-4-u4Fw_J_q8_45.mp4	0.0	87.4981541633606	
12	33.64524817466736	movie	1		301.0	10.0	2.5	/experiments/knapen_aot/videos/S_yt-4-u4Fw_J_q8_45.mp4	0.0	87.50725817680359	2.507408857345581
12	36.15265703201294	fix_post	2		12.0	10.0	2.5	/experiments/knapen_aot/videos/S_yt-4-u4Fw_J_q8_45.mp4	0.0	90.01466703414917	0.1001119613647461
13	36.252768993377686	fix_pre	0		64.0	11.0	2.5	/experiments/knapen_aot/videos/S_ILSVRC2015_train_00517000.mp4	0.0	90.11477899551392	0.533156156539917
13	36.77780604362488	response	0	2		11.0	2.5	/experiments/knapen_aot/videos/S_ILSVRC2015_train_00517000.mp4	0.0	90.63981604576111	
13	36.7859251499176	movie	1		301.0	11.0	2.5	/experiments/knapen_aot/videos/S_ILSVRC2015_train_00517000.mp4	0.0	90.64793515205383	2.5083508491516113
13	39.294275999069214	fix_post	2		12.0	11.0	2.5	/experiments/knapen_aot/videos/S_ILSVRC2015_train_00517000.mp4	0.0	93.15628600120544	0.1000821590423584
14	39.39435815811157	fix_pre	0		68.0	12.0	2.5	/experiments/knapen_aot/videos/R_S_production_ID_4101244.mp4	0.0	93.2563681602478	0.5665979385375977
14	39.95273804664612	response	0	2		12.0	2.5	/experiments/knapen_aot/videos/R_S_production_ID_4101244.mp4	0.0	93.81474804878235	
14	39.96095609664917	movie	1		206.0	12.0	2.5	/experiments/knapen_aot/videos/R_S_production_ID_4101244.mp4	0.0	93.8229660987854	2.508392095565796
14	42.469348192214966	fix_post	2		12.0	12.0	2.5	/experiments/knapen_aot/videos/R_S_production_ID_4101244.mp4	0.0	96.3313581943512	0.09998393058776855
15	42.569332122802734	fix_pre	0		58.0	13.0	2.5	/experiments/knapen_aot/videos/R_S_yt-y2RUPYKfBZs_12.mp4	0.0	96.43134212493896	0.48323798179626465
15	43.0444061756134	response	0	2		13.0	2.5	/experiments/knapen_aot/videos/R_S_yt-y2RUPYKfBZs_12.mp4	0.0	96.90641617774963	
15	43.052570104599	movie	1		301.0	13.0	2.5	/experiments/knapen_aot/videos/R_S_yt-y2RUPYKfBZs_12.mp4	0.0	96.91458010673523	2.50844407081604
15	45.56101417541504	fix_post	2		12.0	13.0	2.5	/experiments/knapen_aot/videos/R_S_yt-y2RUPYKfBZs_12.mp4	0.0	99.42302417755127	0.09998703002929688
16	45.661001205444336	fix_pre	0		56.0	14.0	2.5	blank	1.0	99.52301120758057	0.4667038917541504
16	46.11949110031128	response	0	2		14.0	2.5	blank	1.0	99.98150110244751	
16	46.127705097198486	movie	1		301.0	14.0	2.5	blank	1.0	99.98971509933472	2.5083999633789062
16	48.63610506057739	fix_post	2		12.0	14.0	2.5	blank	1.0	102.49811506271362	0.09989094734191895
17	48.73599600791931	fix_pre	0		66.0	15.0	2.5	/experiments/knapen_aot/videos/S_comp_A009_C001_010181A_v09_SDR_PS_FINAL_20180725_SDR_2K_AVC.mp4	0.0	102.59800601005554	0.5499591827392578
17	49.27768301963806	response	0	2		15.0	2.5	/experiments/knapen_aot/videos/S_comp_A009_C001_010181A_v09_SDR_PS_FINAL_20180725_SDR_2K_AVC.mp4	0.0	103.13969302177429	
17	49.28595519065857	movie	1		162.0	15.0	2.5	/experiments/knapen_aot/videos/S_comp_A009_C001_010181A_v09_SDR_PS_FINAL_20180725_SDR_2K_AVC.mp4	0.0	103.1479651927948	2.5083909034729004
17	51.79434609413147	fix_post	2		12.0	15.0	2.5	/experiments/knapen_aot/videos/S_comp_A009_C001_010181A_v09_SDR_PS_FINAL_20180725_SDR_2K_AVC.mp4	0.0	105.6563560962677	0.10001206398010254
18	51.89435815811157	fix_pre	0		69.0	16.0	2.5	/experiments/knapen_aot/videos/S_yt-H2ce6U0SbVA_542.mp4	0.0	105.7563681602478	0.5748560428619385
18	52.46109700202942	response	0	2		16.0	2.5	/experiments/knapen_aot/videos/S_yt-H2ce6U0SbVA_542.mp4	0.0	106.32310700416565	
18	52.46921420097351	movie	1		301.0	16.0	2.5	/experiments/knapen_aot/videos/S_yt-H2ce6U0SbVA_542.mp4	0.0	106.33122420310974	2.508512020111084
18	54.977726221084595	fix_post	2		12.0	16.0	2.5	/experiments/knapen_aot/videos/S_yt-H2ce6U0SbVA_542.mp4	0.0	108.83973622322083	0.09984493255615234
19	55.07757115364075	fix_pre	0		64.0	17.0	2.5	/experiments/knapen_aot/videos/R_S_bing-www_dailymotion_com_video_x64c56w_164.mp4	0.0	108.93958115577698	0.5333218574523926
19	55.6026930809021	response	0	2		17.0	2.5	/experiments/knapen_aot/videos/R_S_bing-www_dailymotion_com_video_x64c56w_164.mp4	0.0	109.46470308303833	
19	55.61089301109314	movie	1		164.0	17.0	2.5	/experiments/knapen_aot/videos/R_S_bing-www_dailymotion_com_video_x64c56w_164.mp4	0.0	109.47290301322937	2.508392095565796
19	58.119285106658936	fix_post	2		12.0	17.0	2.5	/experiments/knapen_aot/videos/R_S_bing-www_dailymotion_com_video_x64c56w_164.mp4	0.0	111.98129510879517	0.09999895095825195
20	58.21928405761719	fix_pre	0		52.0	18.0	2.5	/experiments/knapen_aot/videos/S_yt-9NV8zv2Sdq4_30.mp4	0.0	112.08129405975342	0.4332849979400635
20	58.6444091796875	response	0	2		18.0	2.5	/experiments/knapen_aot/videos/S_yt-9NV8zv2Sdq4_30.mp4	0.0	112.50641918182373	
20	58.65256905555725	movie	1		301.0	18.0	2.5	/experiments/knapen_aot/videos/S_yt-9NV8zv2Sdq4_30.mp4	0.0	112.51457905769348	2.5084941387176514
20	61.1610631942749	fix_post	2		12.0	18.0	2.5	/experiments/knapen_aot/videos/S_yt-9NV8zv2Sdq4_30.mp4	0.0	115.02307319641113	0.09998798370361328
21	61.261051177978516	fix_pre	0		69.0	19.0	2.5	/experiments/knapen_aot/videos/S_yt-o0Hbe7kcPps_70.mp4	0.0	115.12306118011475	0.5748608112335205
21	61.82770013809204	response	0	2		19.0	2.5	/experiments/knapen_aot/videos/S_yt-o0Hbe7kcPps_70.mp4	0.0	115.68971014022827	
21	61.835911989212036	movie	1		301.0	19.0	2.5	/experiments/knapen_aot/videos/S_yt-o0Hbe7kcPps_70.mp4	0.0	115.69792199134827	2.5083541870117188
21	64.34426617622375	fix_post	2		12.0	19.0	2.5	/experiments/knapen_aot/videos/S_yt-o0Hbe7kcPps_70.mp4	0.0	118.20627617835999	0.09996700286865234
22	64.44423317909241	fix_pre	0		59.0	20.0	2.5	/experiments/knapen_aot/videos/S_yt-hvuC_2YXsTQ_159.mp4	0.0	118.30624318122864	0.49227094650268555
22	64.92768621444702	response	0	2		20.0	2.5	/experiments/knapen_aot/videos/S_yt-hvuC_2YXsTQ_159.mp4	0.0	118.78969621658325	
22	64.93650412559509	movie	1		301.0	20.0	2.5	/experiments/knapen_aot/videos/S_yt-hvuC_2YXsTQ_159.mp4	0.0	118.79851412773132	2.5079329013824463
22	67.44443702697754	fix_post	2		12.0	20.0	2.5	/experiments/knapen_aot/videos/S_yt-hvuC_2YXsTQ_159.mp4	0.0	121.30644702911377	0.09978008270263672
23	67.54421710968018	fix_pre	0		66.0	21.0	2.5	blank	1.0	121.4062271118164	0.5499470233917236
23	68.08609509468079	response	0	2		21.0	2.5	blank	1.0	121.94810509681702	
23	68.0941641330719	movie	1		301.0	21.0	2.5	blank	1.0	121.95617413520813	2.5083749294281006
23	70.6025390625	fix_post	2		12.0	21.0	2.5	blank	1.0	124.46454906463623	0.0999901294708252
24	70.70252919197083	fix_pre	0		65.0	22.0	2.5	/experiments/knapen_aot/videos/S_yt-4oT-2eGhmUo_102.mp4	0.0	124.56453919410706	0.5416498184204102
24	71.23604607582092	response	0	2		22.0	2.5	/experiments/knapen_aot/videos/S_yt-4oT-2eGhmUo_102.mp4	0.0	125.09805607795715	
24	71.24417901039124	movie	1		301.0	22.0	2.5	/experiments/knapen_aot/videos/S_yt-4oT-2eGhmUo_102.mp4	0.0	125.10618901252747	2.508329153060913
24	73.75250816345215	fix_post	2		12.0	22.0	2.5	/experiments/knapen_aot/videos/S_yt-4oT-2eGhmUo_102.mp4	0.0	127.61451816558838	0.09999704360961914
25	73.85250520706177	fix_pre	0		55.0	23.0	2.5	/experiments/knapen_aot/videos/S_production_ID_4101244.mp4	0.0	127.714515209198	0.4588479995727539
25	74.30264019966125	response	0	2		23.0	2.5	/experiments/knapen_aot/videos/S_production_ID_4101244.mp4	0.0	128.16465020179749	
25	74.31135320663452	movie	1		192.0	23.0	2.5	/experiments/knapen_aot/videos/S_production_ID_4101244.mp4	0.0	128.17336320877075	2.50799298286438
25	76.8193461894989	fix_post	2		12.0	23.0	2.5	/experiments/knapen_aot/videos/S_production_ID_4101244.mp4	0.0	130.68135619163513	0.0998528003692627
26	76.91919898986816	fix_pre	0		62.0	24.0	2.5	/experiments/knapen_aot/videos/S_pexels-mart-production-7698911_1.mp4	0.0	130.7812089920044	0.5171611309051514
26	77.42769408226013	response	0	2		24.0	2.5	/experiments/knapen_aot/videos/S_pexels-mart-production-7698911_1.mp4	0.0	131.28970408439636	
26	77.43636012077332	movie	1		194.0	24.0	2.5	/experiments/knapen_aot/videos/S_pexels-mart-production-7698911_1.mp4	0.0	131.29837012290955	2.507845878601074
26	79.94420599937439	fix_post	2		12.0	24.0	2.5	/experiments/knapen_aot/videos/S_pexels-mart-production-7698911_1.mp4	0.0	133.80621600151062	0.0999290943145752
27	80.04413509368896	fix_pre	0		84.0	25.0	2.5	/experiments/knapen_aot/videos/R_S_yt-x7NWmdlvVIQ_183.mp4	0.0	133.9061450958252	0.6999499797821045
27	80.73595404624939	response	0	2		25.0	2.5	/experiments/knapen_aot/videos/R_S_yt-x7NWmdlvVIQ_183.mp4	0.0	134.59796404838562	
27	80.74408507347107	movie	1		301.0	25.0	2.5	/experiments/knapen_aot/videos/R_S_yt-x7NWmdlvVIQ_183.mp4	0.0	134.6060950756073	2.508594036102295
27	80.92258715629578	response	1	2		25.0	2.5	/experiments/knapen_aot/videos/R_S_yt-x7NWmdlvVIQ_183.mp4	0.0	134.784597158432	
27	83.25267910957336	fix_post	2		12.0	25.0	2.5	/experiments/knapen_aot/videos/R_S_yt-x7NWmdlvVIQ_183.mp4	0.0	137.1146891117096	0.10039901733398438
28	83.35307812690735	fix_pre	0		60.0	26.0	2.5	/experiments/knapen_aot/videos/R_S_video_inspire_uk_edinburgh_arthursseat_010.1080-h264.mp4	0.0	137.21508812904358	0.4999098777770996
28	83.84432911872864	response	0	2		26.0	2.5	/experiments/knapen_aot/videos/R_S_video_inspire_uk_edinburgh_arthursseat_010.1080-h264.mp4	0.0	137.70633912086487	
28	83.85298800468445	movie	1		171.0	26.0	2.5	/experiments/knapen_aot/videos/R_S_video_inspire_uk_edinburgh_arthursseat_010.1080-h264.mp4	0.0	137.71499800682068	2.5079431533813477
28	86.3609311580658	fix_post	2		12.0	26.0	2.5	/experiments/knapen_aot/videos/R_S_video_inspire_uk_edinburgh_arthursseat_010.1080-h264.mp4	0.0	140.22294116020203	0.09986591339111328
29	86.46079707145691	fix_pre	0		43.0	27.0	2.5	/experiments/knapen_aot/videos/S_yt-PYP0fEQ357c_89.mp4	0.0	140.32280707359314	0.3583559989929199
29	86.81095719337463	response	0	2		27.0	2.5	/experiments/knapen_aot/videos/S_yt-PYP0fEQ357c_89.mp4	0.0	140.67296719551086	
29	86.81915307044983	movie	1		301.0	27.0	2.5	/experiments/knapen_aot/videos/S_yt-PYP0fEQ357c_89.mp4	0.0	140.68116307258606	2.5083351135253906
29	89.32748818397522	fix_post	2		12.0	27.0	2.5	/experiments/knapen_aot/videos/S_yt-PYP0fEQ357c_89.mp4	0.0	143.18949818611145	0.09999394416809082
30	89.42748212814331	fix_pre	0		67.0	28.0	2.5	blank	1.0	143.28949213027954	0.5582950115203857
30	89.97761011123657	response	0	2		28.0	2.5	blank	1.0	143.8396201133728	
30	89.9857771396637	movie	1		301.0	28.0	2.5	blank	1.0	143.84778714179993	2.5083730220794678
30	92.49415016174316	fix_post	2		12.0	28.0	2.5	blank	1.0	146.3561601638794	0.09995102882385254
31	92.59410119056702	fix_pre	0		68.0	29.0	2.5	/experiments/knapen_aot/videos/S_yt-OdTWn1U1mO4_68.mp4	0.0	146.45611119270325	0.5666289329528809
31	93.15255999565125	response	0	2		29.0	2.5	/experiments/knapen_aot/videos/S_yt-OdTWn1U1mO4_68.mp4	0.0	147.01456999778748	
31	93.1607301235199	movie	1		301.0	29.0	2.5	/experiments/knapen_aot/videos/S_yt-OdTWn1U1mO4_68.mp4	0.0	147.02274012565613	2.5083930492401123
31	95.66912317276001	fix_post	2		12.0	29.0	2.5	/experiments/knapen_aot/videos/S_yt-OdTWn1U1mO4_68.mp4	0.0	149.53113317489624	0.0999898910522461
32	95.76911306381226	fix_pre	0		62.0	30.0	2.5	/experiments/knapen_aot/videos/R_S_video-10.mp4	0.0	149.6311230659485	0.5166289806365967
32	96.27760720252991	response	0	2		30.0	2.5	/experiments/knapen_aot/videos/R_S_video-10.mp4	0.0	150.13961720466614	
32	96.28574204444885	movie	1		164.0	30.0	2.5	/experiments/knapen_aot/videos/R_S_video-10.mp4	0.0	150.14775204658508	2.508453130722046
32	98.7941951751709	fix_post	2		12.0	30.0	2.5	/experiments/knapen_aot/videos/R_S_video-10.mp4	0.0	152.65620517730713	0.09990096092224121
33	98.89409613609314	fix_pre	0		51.0	31.0	2.5	/experiments/knapen_aot/videos/S_ILSVRC2015_train_00373000.mp4	0.0	152.75610613822937	0.42496585845947266
33	99.31090998649597	response	0	2		31.0	2.5	/experiments/knapen_aot/videos/S_ILSVRC2015_train_00373000.mp4	0.0	153.1729199886322	
33	99.31906199455261	movie	1		301.0	31.0	2.5	/experiments/knapen_aot/videos/S_ILSVRC2015_train_00373000.mp4	0.0	153.18107199668884	2.5083370208740234
33	101.82739901542664	fix_post	2		12.0	31.0	2.5	/experiments/knapen_aot/videos/S_ILSVRC2015_train_00373000.mp4	0.0	155.68940901756287	0.10005712509155273
34	101.92745614051819	fix_pre	0		49.0	32.0	2.5	/experiments/knapen_aot/videos/S_wc-8bTJmWfuVyJ4_8.mp4	0.0	155.78946614265442	0.4082629680633545
34	102.3275511264801	response	0	2		32.0	2.5	/experiments/knapen_aot/videos/S_wc-8bTJmWfuVyJ4_8.mp4	0.0	156.18956112861633	
34	102.33571910858154	movie	1		163.0	32.0	2.5	/experiments/knapen_aot/videos/S_wc-8bTJmWfuVyJ4_8.mp4	0.0	156.19772911071777	2.508368968963623
34	104.84408807754517	fix_post	2		12.0	32.0	2.5	/experiments/knapen_aot/videos/S_wc-8bTJmWfuVyJ4_8.mp4	0.0	158.7060980796814	0.09999799728393555
35	104.9440860748291	fix_pre	0		58.0	33.0	2.5	/experiments/knapen_aot/videos/S_production_ID_3943965.mp4	0.0	158.80609607696533	0.4833259582519531
35	105.41920018196106	response	0	2		33.0	2.5	/experiments/knapen_aot/videos/S_production_ID_3943965.mp4	0.0	159.2812101840973	
35	105.42741203308105	movie	1		194.0	33.0	2.5	/experiments/knapen_aot/videos/S_production_ID_3943965.mp4	0.0	159.28942203521729	2.5082831382751465
35	107.9356951713562	fix_post	2		12.0	33.0	2.5	/experiments/knapen_aot/videos/S_production_ID_3943965.mp4	0.0	161.79770517349243	0.10003304481506348
36	108.03572821617126	fix_pre	0		62.0	34.0	2.5	/experiments/knapen_aot/videos/R_S_ILSVRC2015_train_00001011.mp4	0.0	161.8977382183075	0.5167369842529297
36	108.54417300224304	response	0	2		34.0	2.5	/experiments/knapen_aot/videos/R_S_ILSVRC2015_train_00001011.mp4	0.0	162.40618300437927	
36	108.5524652004242	movie	1		301.0	34.0	2.5	/experiments/knapen_aot/videos/R_S_ILSVRC2015_train_00001011.mp4	0.0	162.41447520256042	2.5082650184631348
36	111.06073021888733	fix_post	2		12.0	34.0	2.5	/experiments/knapen_aot/videos/R_S_ILSVRC2015_train_00001011.mp4	0.0	164.92274022102356	0.09994983673095703
37	111.16068005561829	fix_pre	0		44.0	35.0	2.5	blank	1.0	165.02269005775452	0.3666861057281494
37	111.51916813850403	response	0	2		35.0	2.5	blank	1.0	165.38117814064026	
37	111.52736616134644	movie	1		301.0	35.0	2.5	blank	1.0	165.38937616348267	2.508354902267456
37	114.03572106361389	fix_post	2		12.0	35.0	2.5	blank	1.0	167.89773106575012	0.09996795654296875
38	114.13568902015686	fix_pre	0		69.0	36.0	2.5	/experiments/knapen_aot/videos/S_ILSVRC2015_train_00469000.mp4	0.0	167.9976990222931	0.574984073638916
38	114.7025032043457	response	0	2		36.0	2.5	/experiments/knapen_aot/videos/S_ILSVRC2015_train_00469000.mp4	0.0	168.56451320648193	
38	114.71067309379578	movie	1		301.0	36.0	2.5	/experiments/knapen_aot/videos/S_ILSVRC2015_train_00469000.mp4	0.0	168.572683095932	2.508341073989868
38	117.21901416778564	fix_post	2		12.0	36.0	2.5	/experiments/knapen_aot/videos/S_ILSVRC2015_train_00469000.mp4	0.0	171.08102416992188	0.1000368595123291
39	117.31905102729797	fix_pre	0		41.0	37.0	2.5	/experiments/knapen_aot/videos/S_X-D3lUv-atE_376.mp4	0.0	171.1810610294342	0.34160804748535156
39	117.65247511863708	response	0	2		37.0	2.5	/experiments/knapen_aot/videos/S_X-D3lUv-atE_376.mp4	0.0	171.51448512077332	
39	117.66065907478333	movie	1		301.0	37.0	2.5	/experiments/knapen_aot/videos/S_X-D3lUv-atE_376.mp4	0.0	171.52266907691956	2.5083861351013184
39	120.16904520988464	fix_post	2		12.0	37.0	2.5	/experiments/knapen_aot/videos/S_X-D3lUv-atE_376.mp4	0.0	174.03105521202087	0.1003718376159668
40	120.26941704750061	fix_pre	0		51.0	38.0	2.5	/experiments/knapen_aot/videos/R_S_yt-mdxs8FCKLFc_232.mp4	0.0	174.13142704963684	0.4245591163635254
40	120.68581008911133	response	0	2		38.0	2.5	/experiments/knapen_aot/videos/R_S_yt-mdxs8FCKLFc_232.mp4	0.0	174.54782009124756	
40	120.69397616386414	movie	1		301.0	38.0	2.5	/experiments/knapen_aot/videos/R_S_yt-mdxs8FCKLFc_232.mp4	0.0	174.55598616600037	2.5083630084991455
40	123.20233917236328	fix_post	2		12.0	38.0	2.5	/experiments/knapen_aot/videos/R_S_yt-mdxs8FCKLFc_232.mp4	0.0	177.0643491744995	0.09999704360961914
41	123.3023362159729	fix_pre	0		60.0	39.0	2.5	/experiments/knapen_aot/videos/R_S_yt-ThT8utBaywI_68.mp4	0.0	177.16434621810913	0.4999887943267822
41	123.78655910491943	response	0	2		39.0	2.5	/experiments/knapen_aot/videos/R_S_yt-ThT8utBaywI_68.mp4	0.0	177.64856910705566	
41	123.80232501029968	movie	1		301.0	39.0	2.5	/experiments/knapen_aot/videos/R_S_yt-ThT8utBaywI_68.mp4	0.0	177.6643350124359	2.5085201263427734
41	126.31084513664246	fix_post	2		12.0	39.0	2.5	/experiments/knapen_aot/videos/R_S_yt-ThT8utBaywI_68.mp4	0.0	180.1728551387787	0.09983706474304199
42	126.4106822013855	fix_pre	0		56.0	40.0	2.5	/experiments/knapen_aot/videos/S_yt-feTWuKPZA_k_34.mp4	0.0	180.27269220352173	0.4666109085083008
42	126.86156511306763	response	0	2		40.0	2.5	/experiments/knapen_aot/videos/S_yt-feTWuKPZA_k_34.mp4	0.0	180.72357511520386	
42	126.8772931098938	movie	1		301.0	40.0	2.5	/experiments/knapen_aot/videos/S_yt-feTWuKPZA_k_34.mp4	0.0	180.73930311203003	2.508457899093628
42	129.38575100898743	fix_post	2		12.0	40.0	2.5	/experiments/knapen_aot/videos/S_yt-feTWuKPZA_k_34.mp4	0.0	183.24776101112366	0.09998607635498047
43	129.4857370853424	fix_pre	0		48.0	41.0	2.5	blank	1.0	183.34774708747864	0.39986610412597656
43	129.87737917900085	response	0	2		41.0	2.5	blank	1.0	183.73938918113708	
43	129.88560318946838	movie	1		301.0	41.0	2.5	blank	1.0	183.74761319160461	2.508657932281494
43	132.39426112174988	fix_post	2		12.0	41.0	2.5	blank	1.0	186.2562711238861	0.09990286827087402
44	132.49416399002075	fix_pre	0		72.0	42.0	2.5	/experiments/knapen_aot/videos/S_ILSVRC2015_train_00001011.mp4	0.0	186.35617399215698	0.599776029586792
44	133.07819819450378	response	0	2		42.0	2.5	/experiments/knapen_aot/videos/S_ILSVRC2015_train_00001011.mp4	0.0	186.94020819664001	
44	133.09394001960754	movie	1		301.0	42.0	2.5	/experiments/knapen_aot/videos/S_ILSVRC2015_train_00001011.mp4	0.0	186.95595002174377	2.508380174636841
44	135.60232019424438	fix_post	2		12.0	42.0	2.5	/experiments/knapen_aot/videos/S_ILSVRC2015_train_00001011.mp4	0.0	189.46433019638062	0.09995889663696289
45	135.70227909088135	fix_pre	0		49.0	43.0	2.5	/experiments/knapen_aot/videos/S_ILSVRC2015_train_00743000.mp4	0.0	189.56428909301758	0.40830302238464355
45	136.10239005088806	response	0	2		43.0	2.5	/experiments/knapen_aot/videos/S_ILSVRC2015_train_00743000.mp4	0.0	189.9644000530243	
45	136.110582113266	movie	1		301.0	43.0	2.5	/experiments/knapen_aot/videos/S_ILSVRC2015_train_00743000.mp4	0.0	189.97259211540222	2.5083539485931396
45	138.61893606185913	fix_post	2		12.0	43.0	2.5	/experiments/knapen_aot/videos/S_ILSVRC2015_train_00743000.mp4	0.0	192.48094606399536	0.09998607635498047
46	138.7189221382141	fix_pre	0		45.0	44.0	2.5	/experiments/knapen_aot/videos/S_yt-Fdv-V--QlR0_117.mp4	0.0	192.58093214035034	0.37496399879455566
46	139.08569502830505	response	0	2		44.0	2.5	/experiments/knapen_aot/videos/S_yt-Fdv-V--QlR0_117.mp4	0.0	192.94770503044128	
46	139.09388613700867	movie	1		301.0	44.0	2.5	/experiments/knapen_aot/videos/S_yt-Fdv-V--QlR0_117.mp4	0.0	192.9558961391449	2.5083298683166504
46	141.60221600532532	fix_post	2		12.0	44.0	2.5	/experiments/knapen_aot/videos/S_yt-Fdv-V--QlR0_117.mp4	0.0	195.46422600746155	0.1000220775604248
47	141.70223808288574	fix_pre	0		55.0	45.0	2.5	/experiments/knapen_aot/videos/S_yt-tMP5WhHMtWE_55.mp4	0.0	195.56424808502197	0.4582850933074951
47	142.1522581577301	response	0	2		45.0	2.5	/experiments/knapen_aot/videos/S_yt-tMP5WhHMtWE_55.mp4	0.0	196.01426815986633	
47	142.16052317619324	movie	1		301.0	45.0	2.5	/experiments/knapen_aot/videos/S_yt-tMP5WhHMtWE_55.mp4	0.0	196.02253317832947	2.508319854736328
47	144.66884303092957	fix_post	2		12.0	45.0	2.5	/experiments/knapen_aot/videos/S_yt-tMP5WhHMtWE_55.mp4	0.0	198.5308530330658	0.10028815269470215
48	144.76913118362427	fix_pre	0		51.0	46.0	2.5	/experiments/knapen_aot/videos/R_S_yt--koo4FOfZE0_86.mp4	0.0	198.6311411857605	0.42462801933288574
48	145.18571710586548	response	0	2		46.0	2.5	/experiments/knapen_aot/videos/R_S_yt--koo4FOfZE0_86.mp4	0.0	199.0477271080017	
48	145.19375920295715	movie	1		301.0	46.0	2.5	/experiments/knapen_aot/videos/R_S_yt--koo4FOfZE0_86.mp4	0.0	199.05576920509338	2.508525848388672
48	147.70228505134583	fix_post	2		12.0	46.0	2.5	/experiments/knapen_aot/videos/R_S_yt--koo4FOfZE0_86.mp4	0.0	201.56429505348206	0.09990811347961426
49	147.80219316482544	fix_pre	0		42.0	47.0	2.5	/experiments/knapen_aot/videos/S_yt-9pUeQix6EW8_7.mp4	0.0	201.66420316696167	0.34996891021728516
49	148.14398503303528	response	0	2		47.0	2.5	/experiments/knapen_aot/videos/S_yt-9pUeQix6EW8_7.mp4	0.0	202.0059950351715	
49	148.15216207504272	movie	1		301.0	47.0	2.5	/experiments/knapen_aot/videos/S_yt-9pUeQix6EW8_7.mp4	0.0	202.01417207717896	2.5083489418029785
49	150.6605110168457	fix_post	2		12.0	47.0	2.5	/experiments/knapen_aot/videos/S_yt-9pUeQix6EW8_7.mp4	0.0	204.52252101898193	0.09999418258666992
50	150.76050519943237	fix_pre	0		49.0	48.0	2.5	/experiments/knapen_aot/videos/S_comp_DB_D002_C003_PSNK_v04_SDR_PS_20180914_SDR_2K_AVC.mp4	0.0	204.6225152015686	0.4083118438720703
50	151.16057705879211	response	0	2		48.0	2.5	/experiments/knapen_aot/videos/S_comp_DB_D002_C003_PSNK_v04_SDR_PS_20180914_SDR_2K_AVC.mp4	0.0	205.02258706092834	
50	151.16881704330444	movie	1		167.0	48.0	2.5	/experiments/knapen_aot/videos/S_comp_DB_D002_C003_PSNK_v04_SDR_PS_20180914_SDR_2K_AVC.mp4	0.0	205.03082704544067	2.508419990539551
50	153.677237033844	fix_post	2		12.0	48.0	2.5	/experiments/knapen_aot/videos/S_comp_DB_D002_C003_PSNK_v04_SDR_PS_20180914_SDR_2K_AVC.mp4	0.0	207.53924703598022	0.09985899925231934
51	153.7770960330963	fix_pre	0		57.0	49.0	2.5	blank	1.0	207.63910603523254	0.4750630855560303
51	154.24393105506897	response	0	2		49.0	2.5	blank	1.0	208.1059410572052	
51	154.25215911865234	movie	1		301.0	49.0	2.5	blank	1.0	208.11416912078857	2.5082640647888184
51	156.76042318344116	fix_post	2		12.0	49.0	2.5	blank	1.0	210.6224331855774	0.10007381439208984
52	156.86049699783325	fix_pre	0		57.0	50.0	2.5	/experiments/knapen_aot/videos/R_S_yt-feTWuKPZA_k_34.mp4	0.0	210.72250699996948	0.4749259948730469
52	157.3272740840912	response	0	2		50.0	2.5	/experiments/knapen_aot/videos/R_S_yt-feTWuKPZA_k_34.mp4	0.0	211.18928408622742	
52	157.3354229927063	movie	1		301.0	50.0	2.5	/experiments/knapen_aot/videos/R_S_yt-feTWuKPZA_k_34.mp4	0.0	211.19743299484253	2.50842022895813
52	159.84384322166443	fix_post	2		12.0	50.0	2.5	/experiments/knapen_aot/videos/R_S_yt-feTWuKPZA_k_34.mp4	0.0	213.70585322380066	0.0999598503112793
53	159.9438030719757	fix_pre	0		50.0	51.0	2.5	/experiments/knapen_aot/videos/R_S_Y011_C001_SDR_2K_AVC.mp4	0.0	213.80581307411194	0.41665005683898926
53	160.3522801399231	response	0	2		51.0	2.5	/experiments/knapen_aot/videos/R_S_Y011_C001_SDR_2K_AVC.mp4	0.0	214.21429014205933	
53	160.3604531288147	movie	1		172.0	51.0	2.5	/experiments/knapen_aot/videos/R_S_Y011_C001_SDR_2K_AVC.mp4	0.0	214.22246313095093	2.5083088874816895
53	162.8687620162964	fix_post	2		12.0	51.0	2.5	/experiments/knapen_aot/videos/R_S_Y011_C001_SDR_2K_AVC.mp4	0.0	216.73077201843262	0.10013699531555176
54	162.96889901161194	fix_pre	0		63.0	52.0	2.5	/experiments/knapen_aot/videos/S_yt-GFcuvjHJmS4_86.mp4	0.0	216.83090901374817	0.5248441696166992
54	163.48557901382446	response	0	2		52.0	2.5	/experiments/knapen_aot/videos/S_yt-GFcuvjHJmS4_86.mp4	0.0	217.3475890159607	
54	163.49374318122864	movie	1		301.0	52.0	2.5	/experiments/knapen_aot/videos/S_yt-GFcuvjHJmS4_86.mp4	0.0	217.35575318336487	2.508312940597534
54	166.00205612182617	fix_post	2		12.0	52.0	2.5	/experiments/knapen_aot/videos/S_yt-GFcuvjHJmS4_86.mp4	0.0	219.8640661239624	0.10016989707946777
55	166.10222601890564	fix_pre	0		63.0	53.0	2.5	/experiments/knapen_aot/videos/S_yt-icd9UxxxeW0_255.mp4	0.0	219.96423602104187	0.5247950553894043
55	166.6188850402832	response	0	2		53.0	2.5	/experiments/knapen_aot/videos/S_yt-icd9UxxxeW0_255.mp4	0.0	220.48089504241943	
55	166.62702107429504	movie	1		301.0	53.0	2.5	/experiments/knapen_aot/videos/S_yt-icd9UxxxeW0_255.mp4	0.0	220.48903107643127	2.508418083190918
55	169.13543915748596	fix_post	2		12.0	53.0	2.5	/experiments/knapen_aot/videos/S_yt-icd9UxxxeW0_255.mp4	0.0	222.9974491596222	0.10000395774841309
56	169.23544311523438	fix_pre	0		53.0	54.0	2.5	/experiments/knapen_aot/videos/R_S_yt-y2RUPYKfBZs_12.mp4	0.0	223.0974531173706	0.44163990020751953
56	169.6688630580902	response	0	2		54.0	2.5	/experiments/knapen_aot/videos/R_S_yt-y2RUPYKfBZs_12.mp4	0.0	223.53087306022644	
56	169.6770830154419	movie	1		301.0	54.0	2.5	/experiments/knapen_aot/videos/R_S_yt-y2RUPYKfBZs_12.mp4	0.0	223.53909301757812	2.5083491802215576
56	172.18543219566345	fix_post	2		12.0	54.0	2.5	/experiments/knapen_aot/videos/R_S_yt-y2RUPYKfBZs_12.mp4	0.0	226.04744219779968	0.10003781318664551
57	172.2854700088501	fix_pre	0		63.0	55.0	2.5	blank	1.0	226.14748001098633	0.524989128112793
57	172.79470705986023	response	0	2		55.0	2.5	blank	1.0	226.65671706199646	
57	172.8104591369629	movie	1		301.0	55.0	2.5	blank	1.0	226.67246913909912	2.508275032043457
57	175.31873416900635	fix_post	2		12.0	55.0	2.5	blank	1.0	229.18074417114258	0.10007190704345703
58	175.4188060760498	fix_pre	0		78.0	56.0	2.5	/experiments/knapen_aot/videos/R_S_yt-ujdFTAUE8rc_34.mp4	0.0	229.28081607818604	0.6498620510101318
58	176.06055212020874	response	0	2		56.0	2.5	/experiments/knapen_aot/videos/R_S_yt-ujdFTAUE8rc_34.mp4	0.0	229.92256212234497	
58	176.06866812705994	movie	1		301.0	56.0	2.5	/experiments/knapen_aot/videos/R_S_yt-ujdFTAUE8rc_34.mp4	0.0	229.93067812919617	2.508504867553711
58	178.57717299461365	fix_post	2		12.0	56.0	2.5	/experiments/knapen_aot/videos/R_S_yt-ujdFTAUE8rc_34.mp4	0.0	232.43918299674988	0.09990811347961426
59	178.67708110809326	fix_pre	0		79.0	57.0	2.5	/experiments/knapen_aot/videos/S_g201_TH_804_A001_8_SDR_20191031_SDR_2K_AVC.mp4	0.0	232.5390911102295	0.6583209037780762
59	179.32716512680054	response	0	2		57.0	2.5	/experiments/knapen_aot/videos/S_g201_TH_804_A001_8_SDR_20191031_SDR_2K_AVC.mp4	0.0	233.18917512893677	
59	179.33540201187134	movie	1		164.0	57.0	2.5	/experiments/knapen_aot/videos/S_g201_TH_804_A001_8_SDR_20191031_SDR_2K_AVC.mp4	0.0	233.19741201400757	2.5083811283111572
59	181.8437831401825	fix_post	2		12.0	57.0	2.5	/experiments/knapen_aot/videos/S_g201_TH_804_A001_8_SDR_20191031_SDR_2K_AVC.mp4	0.0	235.70579314231873	0.10014796257019043
60	181.94393110275269	fix_pre	0		63.0	58.0	2.5	/experiments/knapen_aot/videos/R_S_ILSVRC2015_train_00696000.mp4	0.0	235.80594110488892	0.5248029232025146
60	182.46054816246033	response	0	2		58.0	2.5	/experiments/knapen_aot/videos/R_S_ILSVRC2015_train_00696000.mp4	0.0	236.32255816459656	
60	182.4687340259552	movie	1		301.0	58.0	2.5	/experiments/knapen_aot/videos/R_S_ILSVRC2015_train_00696000.mp4	0.0	236.33074402809143	2.508329153060913
60	184.9770631790161	fix_post	2		12.0	58.0	2.5	/experiments/knapen_aot/videos/R_S_ILSVRC2015_train_00696000.mp4	0.0	238.83907318115234	0.09998703002929688
61	185.0770502090454	fix_pre	0		56.0	59.0	2.5	/experiments/knapen_aot/videos/S_yt-tneuR3EtSZE_72.mp4	0.0	238.93906021118164	0.4665229320526123
61	185.53549718856812	response	0	2		59.0	2.5	/experiments/knapen_aot/videos/S_yt-tneuR3EtSZE_72.mp4	0.0	239.39750719070435	
61	185.54357314109802	movie	1		301.0	59.0	2.5	/experiments/knapen_aot/videos/S_yt-tneuR3EtSZE_72.mp4	0.0	239.40558314323425	2.5084609985351562
61	188.05203413963318	fix_post	2		12.0	59.0	2.5	/experiments/knapen_aot/videos/S_yt-tneuR3EtSZE_72.mp4	0.0	241.9140441417694	0.09996891021728516
62	188.15200304985046	fix_pre	0		63.0	60.0	2.5	/experiments/knapen_aot/videos/S_yt-npaE4fe6A6Y_26.mp4	0.0	242.0140130519867	0.5249769687652588
62	188.66123819351196	response	0	2		60.0	2.5	/experiments/knapen_aot/videos/S_yt-npaE4fe6A6Y_26.mp4	0.0	242.5232481956482	
62	188.67698001861572	movie	1		301.0	60.0	2.5	/experiments/knapen_aot/videos/S_yt-npaE4fe6A6Y_26.mp4	0.0	242.53899002075195	2.508357048034668
62	191.1853370666504	fix_post	2		12.0	60.0	2.5	/experiments/knapen_aot/videos/S_yt-npaE4fe6A6Y_26.mp4	0.0	245.04734706878662	0.09996795654296875
63	191.28530502319336	fix_pre	0		59.0	61.0	2.5	/experiments/knapen_aot/videos/S_yt-feTWuKPZA_k_34.mp4	0.0	245.1473150253296	0.491657018661499
63	191.7612180709839	response	0	2		61.0	2.5	/experiments/knapen_aot/videos/S_yt-feTWuKPZA_k_34.mp4	0.0	245.62322807312012	
63	191.77696204185486	movie	1		301.0	61.0	2.5	/experiments/knapen_aot/videos/S_yt-feTWuKPZA_k_34.mp4	0.0	245.6389720439911	2.508450984954834
63	194.2854130268097	fix_post	2		12.0	61.0	2.5	/experiments/knapen_aot/videos/S_yt-feTWuKPZA_k_34.mp4	0.0	248.14742302894592	0.09998202323913574
64	194.38539505004883	fix_pre	0		54.0	62.0	2.5	/experiments/knapen_aot/videos/S_yt-xqHrTtvFFIs_3.mp4	0.0	248.24740505218506	0.44987010955810547
64	194.8271050453186	response	0	2		62.0	2.5	/experiments/knapen_aot/videos/S_yt-xqHrTtvFFIs_3.mp4	0.0	248.68911504745483	
64	194.83526515960693	movie	1		301.0	62.0	2.5	/experiments/knapen_aot/videos/S_yt-xqHrTtvFFIs_3.mp4	0.0	248.69727516174316	2.5083699226379395
64	197.34363508224487	fix_post	2		12.0	62.0	2.5	/experiments/knapen_aot/videos/S_yt-xqHrTtvFFIs_3.mp4	0.0	251.2056450843811	0.10008907318115234
65	197.44372415542603	fix_pre	0		53.0	63.0	2.5	blank	1.0	251.30573415756226	0.44158005714416504
65	197.87707209587097	response	0	2		63.0	2.5	blank	1.0	251.7390820980072	
65	197.8853042125702	movie	1		301.0	63.0	2.5	blank	1.0	251.74731421470642	2.5083417892456055
65	200.3936460018158	fix_post	2		12.0	63.0	2.5	blank	1.0	254.25565600395203	0.09996700286865234
66	200.49361300468445	fix_pre	0		66.0	64.0	2.5	/experiments/knapen_aot/videos/R_S_yt-0d5TkclKWVA_146.mp4	0.0	254.35562300682068	0.550084114074707
66	201.03538417816162	response	0	2		64.0	2.5	/experiments/knapen_aot/videos/R_S_yt-0d5TkclKWVA_146.mp4	0.0	254.89739418029785	
66	201.04369711875916	movie	1		301.0	64.0	2.5	/experiments/knapen_aot/videos/R_S_yt-0d5TkclKWVA_146.mp4	0.0	254.90570712089539	2.508233070373535
66	203.5519301891327	fix_post	2		12.0	64.0	2.5	/experiments/knapen_aot/videos/R_S_yt-0d5TkclKWVA_146.mp4	0.0	257.4139401912689	0.10002684593200684
67	203.6519570350647	fix_pre	0		52.0	65.0	2.5	/experiments/knapen_aot/videos/R_S_yt-mdxs8FCKLFc_232.mp4	0.0	257.5139670372009	0.43331003189086914
67	204.07700419425964	response	0	2		65.0	2.5	/experiments/knapen_aot/videos/R_S_yt-mdxs8FCKLFc_232.mp4	0.0	257.9390141963959	
67	204.08526706695557	movie	1		301.0	65.0	2.5	/experiments/knapen_aot/videos/R_S_yt-mdxs8FCKLFc_232.mp4	0.0	257.9472770690918	2.508435010910034
67	206.5937020778656	fix_post	2		12.0	65.0	2.5	/experiments/knapen_aot/videos/R_S_yt-mdxs8FCKLFc_232.mp4	0.0	260.45571208000183	0.09988713264465332
68	206.69358921051025	fix_pre	0		57.0	66.0	2.5	/experiments/knapen_aot/videos/R_S_ILSVRC2015_train_00303008.mp4	0.0	260.5555992126465	0.4750699996948242
68	207.16037917137146	response	0	2		66.0	2.5	/experiments/knapen_aot/videos/R_S_ILSVRC2015_train_00303008.mp4	0.0	261.0223891735077	
68	207.16865921020508	movie	1		301.0	66.0	2.5	/experiments/knapen_aot/videos/R_S_ILSVRC2015_train_00303008.mp4	0.0	261.0306692123413	2.5082478523254395
68	209.67690706253052	fix_post	2		12.0	66.0	2.5	/experiments/knapen_aot/videos/R_S_ILSVRC2015_train_00303008.mp4	0.0	263.53891706466675	0.09994101524353027
69	209.77684807777405	fix_pre	0		57.0	67.0	2.5	/experiments/knapen_aot/videos/R_S_yt-H5LQq4MPIao_660.mp4	0.0	263.6388580799103	0.47504496574401855
69	210.23610305786133	response	0	2		67.0	2.5	/experiments/knapen_aot/videos/R_S_yt-H5LQq4MPIao_660.mp4	0.0	264.09811305999756	
69	210.25189304351807	movie	1		301.0	67.0	2.5	/experiments/knapen_aot/videos/R_S_yt-H5LQq4MPIao_660.mp4	0.0	264.1139030456543	2.5083730220794678
69	212.76026606559753	fix_post	2		12.0	67.0	2.5	/experiments/knapen_aot/videos/R_S_yt-H5LQq4MPIao_660.mp4	0.0	266.62227606773376	0.09996604919433594
70	212.86023211479187	fix_pre	0		56.0	68.0	2.5	/experiments/knapen_aot/videos/R_S_ILSVRC2015_train_00418004.mp4	0.0	266.7222421169281	0.46671199798583984
70	213.31870698928833	response	0	2		68.0	2.5	/experiments/knapen_aot/videos/R_S_ILSVRC2015_train_00418004.mp4	0.0	267.18071699142456	
70	213.3269441127777	movie	1		301.0	68.0	2.5	/experiments/knapen_aot/videos/R_S_ILSVRC2015_train_00418004.mp4	0.0	267.18895411491394	2.5082809925079346
70	215.83522510528564	fix_post	2		12.0	68.0	2.5	/experiments/knapen_aot/videos/R_S_ILSVRC2015_train_00418004.mp4	0.0	269.6972351074219	0.09994888305664062
71	215.93517398834229	fix_pre	0		52.0	69.0	2.5	blank	1.0	269.7971839904785	0.43352222442626953
71	216.36036205291748	response	0	2		69.0	2.5	blank	1.0	270.2223720550537	
71	216.36869621276855	movie	1		301.0	69.0	2.5	blank	1.0	270.2307062149048	2.5082058906555176
71	218.87690210342407	fix_post	2		12.0	69.0	2.5	blank	1.0	272.7389121055603	0.0999441146850586
72	218.97684621810913	fix_pre	0		59.0	70.0	2.5	/experiments/knapen_aot/videos/S_Y011_C008_SDR_2K_AVC.mp4	0.0	272.83885622024536	0.49298882484436035
72	219.46046209335327	response	0	2		70.0	2.5	/experiments/knapen_aot/videos/S_Y011_C008_SDR_2K_AVC.mp4	0.0	273.3224720954895	
72	219.4698350429535	movie	1		168.0	70.0	2.5	/experiments/knapen_aot/videos/S_Y011_C008_SDR_2K_AVC.mp4	0.0	273.3318450450897	2.507028102874756
72	221.97686314582825	fix_post	2		12.0	70.0	2.5	/experiments/knapen_aot/videos/S_Y011_C008_SDR_2K_AVC.mp4	0.0	275.8388731479645	0.09993791580200195
73	222.07680106163025	fix_pre	0		57.0	71.0	2.5	/experiments/knapen_aot/videos/S_yt-t8NfuFA7OlM_26.mp4	0.0	275.9388110637665	0.47626209259033203
73	222.5436110496521	response	0	2		71.0	2.5	/experiments/knapen_aot/videos/S_yt-t8NfuFA7OlM_26.mp4	0.0	276.40562105178833	
73	222.55306315422058	movie	1		301.0	71.0	2.5	/experiments/knapen_aot/videos/S_yt-t8NfuFA7OlM_26.mp4	0.0	276.4150731563568	2.507161855697632
73	225.0602250099182	fix_post	2		12.0	71.0	2.5	/experiments/knapen_aot/videos/S_yt-t8NfuFA7OlM_26.mp4	0.0	278.92223501205444	0.09996604919433594
74	225.16019105911255	fix_pre	0		72.0	72.0	2.5	/experiments/knapen_aot/videos/S_yt-WTxvvlP8xnw_113.mp4	0.0	279.0222010612488	0.6010911464691162
74	225.75202202796936	response	0	2		72.0	2.5	/experiments/knapen_aot/videos/S_yt-WTxvvlP8xnw_113.mp4	0.0	279.6140320301056	
74	225.76128220558167	movie	1		301.0	72.0	2.5	/experiments/knapen_aot/videos/S_yt-WTxvvlP8xnw_113.mp4	0.0	279.6232922077179	2.5072569847106934
74	228.26853919029236	fix_post	2		12.0	72.0	2.5	/experiments/knapen_aot/videos/S_yt-WTxvvlP8xnw_113.mp4	0.0	282.1305491924286	0.09998083114624023
75	228.3685200214386	fix_pre	0		59.0	73.0	2.5	/experiments/knapen_aot/videos/R_S_yt-AbJBxqEYoMg_105.mp4	0.0	282.23053002357483	0.4916219711303711
75	228.85191321372986	response	0	2		73.0	2.5	/experiments/knapen_aot/videos/R_S_yt-AbJBxqEYoMg_105.mp4	0.0	282.7139232158661	
75	228.86014199256897	movie	1		301.0	73.0	2.5	/experiments/knapen_aot/videos/R_S_yt-AbJBxqEYoMg_105.mp4	0.0	282.7221519947052	2.5083961486816406
75	231.3685381412506	fix_post	2		12.0	73.0	2.5	/experiments/knapen_aot/videos/R_S_yt-AbJBxqEYoMg_105.mp4	0.0	285.23054814338684	0.09993290901184082
76	231.46847105026245	fix_pre	0		72.0	74.0	2.5	/experiments/knapen_aot/videos/R_S_yt-bH4nJibL4Jo_164.mp4	0.0	285.3304810523987	0.5999729633331299
76	232.060200214386	response	0	2		74.0	2.5	/experiments/knapen_aot/videos/R_S_yt-bH4nJibL4Jo_164.mp4	0.0	285.9222102165222	
76	232.06844401359558	movie	1		301.0	74.0	2.5	/experiments/knapen_aot/videos/R_S_yt-bH4nJibL4Jo_164.mp4	0.0	285.9304540157318	2.5083789825439453
76	234.57682299613953	fix_post	2		12.0	74.0	2.5	/experiments/knapen_aot/videos/R_S_yt-bH4nJibL4Jo_164.mp4	0.0	288.43883299827576	0.0999751091003418
77	234.67679810523987	fix_pre	0		68.0	75.0	2.5	/experiments/knapen_aot/videos/R_S_yt-BQixB0mumIk_169.mp4	0.0	288.5388081073761	0.5666511058807373
77	235.23523902893066	response	0	2		75.0	2.5	/experiments/knapen_aot/videos/R_S_yt-BQixB0mumIk_169.mp4	0.0	289.0972490310669	
77	235.2434492111206	movie	1		301.0	75.0	2.5	/experiments/knapen_aot/videos/R_S_yt-BQixB0mumIk_169.mp4	0.0	289.10545921325684	2.50839900970459
77	237.7518482208252	fix_post	2		12.0	75.0	2.5	/experiments/knapen_aot/videos/R_S_yt-BQixB0mumIk_169.mp4	0.0	291.6138582229614	0.09989595413208008
78	237.85174417495728	fix_pre	0		58.0	76.0	2.5	/experiments/knapen_aot/videos/S_yt-wz2opOBqClo_14.mp4	0.0	291.7137541770935	0.48337292671203613
78	238.32681107521057	response	0	2		76.0	2.5	/experiments/knapen_aot/videos/S_yt-wz2opOBqClo_14.mp4	0.0	292.1888210773468	
78	238.3351171016693	movie	1		301.0	76.0	2.5	/experiments/knapen_aot/videos/S_yt-wz2opOBqClo_14.mp4	0.0	292.19712710380554	2.508328914642334
78	240.84344601631165	fix_post	2		12.0	76.0	2.5	/experiments/knapen_aot/videos/S_yt-wz2opOBqClo_14.mp4	0.0	294.7054560184479	0.10001301765441895
79	240.94345903396606	fix_pre	0		54.0	77.0	2.5	blank	1.0	294.8054690361023	0.449937105178833
79	241.38515710830688	response	0	2		77.0	2.5	blank	1.0	295.2471671104431	
79	241.3933961391449	movie	1		301.0	77.0	2.5	blank	1.0	295.2554061412811	2.508389949798584
79	243.90178608894348	fix_post	2		12.0	77.0	2.5	blank	1.0	297.7637960910797	0.09999489784240723
80	244.0017809867859	fix_pre	0		52.0	78.0	2.5	/experiments/knapen_aot/videos/S_ILSVRC2015_train_00697001.mp4	0.0	297.8637909889221	0.43325209617614746
80	244.42682003974915	response	0	2		78.0	2.5	/experiments/knapen_aot/videos/S_ILSVRC2015_train_00697001.mp4	0.0	298.2888300418854	
80	244.43503308296204	movie	1		301.0	78.0	2.5	/experiments/knapen_aot/videos/S_ILSVRC2015_train_00697001.mp4	0.0	298.29704308509827	2.5084240436553955
80	246.94345712661743	fix_post	2		12.0	78.0	2.5	/experiments/knapen_aot/videos/S_ILSVRC2015_train_00697001.mp4	0.0	300.80546712875366	0.09994697570800781
81	247.04340410232544	fix_pre	0		59.0	79.0	2.5	/experiments/knapen_aot/videos/R_S_yt--koo4FOfZE0_86.mp4	0.0	300.90541410446167	0.4916510581970215
81	247.52688312530518	response	0	2		79.0	2.5	/experiments/knapen_aot/videos/R_S_yt--koo4FOfZE0_86.mp4	0.0	301.3888931274414	
81	247.53505516052246	movie	1		301.0	79.0	2.5	/experiments/knapen_aot/videos/R_S_yt--koo4FOfZE0_86.mp4	0.0	301.3970651626587	2.5083529949188232
81	250.04340815544128	fix_post	2		12.0	79.0	2.5	/experiments/knapen_aot/videos/R_S_yt--koo4FOfZE0_86.mp4	0.0	303.9054181575775	0.10014700889587402
82	250.14355516433716	fix_pre	0		50.0	80.0	2.5	/experiments/knapen_aot/videos/R_S_yt-fA0nOetbOJY_580.mp4	0.0	304.0055651664734	0.41650390625
82	250.5518651008606	response	0	2		80.0	2.5	/experiments/knapen_aot/videos/R_S_yt-fA0nOetbOJY_580.mp4	0.0	304.4138751029968	
82	250.56005907058716	movie	1		301.0	80.0	2.5	/experiments/knapen_aot/videos/R_S_yt-fA0nOetbOJY_580.mp4	0.0	304.4220690727234	2.5083250999450684
82	253.06838417053223	fix_post	2		12.0	80.0	2.5	/experiments/knapen_aot/videos/R_S_yt-fA0nOetbOJY_580.mp4	0.0	306.93039417266846	0.09994888305664062
83	253.16833305358887	fix_pre	0		52.0	81.0	2.5	/experiments/knapen_aot/videos/S_wc-8bTJmWfuVyJ4_8.mp4	0.0	307.0303430557251	0.43337416648864746
83	253.59353113174438	response	0	2		81.0	2.5	/experiments/knapen_aot/videos/S_wc-8bTJmWfuVyJ4_8.mp4	0.0	307.4555411338806	
83	253.60170722007751	movie	1		169.0	81.0	2.5	/experiments/knapen_aot/videos/S_wc-8bTJmWfuVyJ4_8.mp4	0.0	307.46371722221375	2.5083699226379395
83	256.11007714271545	fix_post	2		12.0	81.0	2.5	/experiments/knapen_aot/videos/S_wc-8bTJmWfuVyJ4_8.mp4	0.0	309.9720871448517	0.09997701644897461
84	256.21005415916443	fix_pre	0		74.0	82.0	2.5	blank	1.0	310.07206416130066	0.6166539192199707
84	256.8185501098633	response	0	2		82.0	2.5	blank	1.0	310.6805601119995	
84	256.8267080783844	movie	1		301.0	82.0	2.5	blank	1.0	310.68871808052063	2.5082600116729736
84	259.3349680900574	fix_post	2		12.0	82.0	2.5	blank	1.0	313.1969780921936	0.1000969409942627
85	259.43506503105164	fix_pre	0		69.0	83.0	2.5	/experiments/knapen_aot/videos/R_S_yt-3R23XwTXpKs_238.mp4	0.0	313.29707503318787	0.5759341716766357
85	259.99427604675293	response	0	2		83.0	2.5	/experiments/knapen_aot/videos/R_S_yt-3R23XwTXpKs_238.mp4	0.0	313.85628604888916	
85	260.01099920272827	movie	1		301.0	83.0	2.5	/experiments/knapen_aot/videos/R_S_yt-3R23XwTXpKs_238.mp4	0.0	313.8730092048645	2.50734281539917
85	262.51834201812744	fix_post	2		12.0	83.0	2.5	/experiments/knapen_aot/videos/R_S_yt-3R23XwTXpKs_238.mp4	0.0	316.3803520202637	0.10001015663146973
87	262.6183521747589	stim	0		782.0					316.48036217689514	6.517547845840454
87	269.1307530403137	response	0	space						322.99276304244995	
