trial_nr	onset	event_type	phase	response	nr_frames	movie_index	movie_duration	movie_file	blank	onset_abs	duration
0	0.13318991661071777	stim	0		42.0					239.7177848815918	0.3520321846008301
0	0.47492194175720215	response	0	space						240.05951690673828	
1	0.48522210121154785	stim	0		121.0					240.06981706619263	1.0059900283813477
1	1.0166771411895752	response	0	space						240.60127210617065	
1	1.4912121295928955	stim	1		120.0					241.07580709457397	0.99993896484375
1	1.5504169464111328	response	1	space						241.1350119113922	
1	2.432992935180664	response	1	space						242.01758790016174	
2	2.4911510944366455	fix_pre	0		31.0	0.0	2.5	/experiments/knapen_aot/videos/R_S_pexels-laker-5793000.mp4	0.0	242.07574605941772	0.2583789825439453
2	2.7412800788879395	response	0	space		0.0	2.5	/experiments/knapen_aot/videos/R_S_pexels-laker-5793000.mp4	0.0	242.32587504386902	
2	2.749530076980591	movie	1		162.0	0.0	2.5	/experiments/knapen_aot/videos/R_S_pexels-laker-5793000.mp4	0.0	242.33412504196167	2.5083420276641846
2	5.257872104644775	fix_post	2		12.0	0.0	2.5	/experiments/knapen_aot/videos/R_S_pexels-laker-5793000.mp4	0.0	244.84246706962585	0.09998297691345215
3	5.3578550815582275	fix_pre	0		71.0	1.0	2.5	/experiments/knapen_aot/videos/R_S_comp_L007_C007_PS_v01_SDR_PS_20180925_SDR_2K_AVC.mp4	0.0	244.9424500465393	0.5922548770904541
3	5.941740989685059	response	0	2		1.0	2.5	/experiments/knapen_aot/videos/R_S_comp_L007_C007_PS_v01_SDR_PS_20180925_SDR_2K_AVC.mp4	0.0	245.52633595466614	
3	5.950109958648682	movie	1		170.0	1.0	2.5	/experiments/knapen_aot/videos/R_S_comp_L007_C007_PS_v01_SDR_PS_20180925_SDR_2K_AVC.mp4	0.0	245.53470492362976	2.5077950954437256
3	8.457905054092407	fix_post	2		12.0	1.0	2.5	/experiments/knapen_aot/videos/R_S_comp_L007_C007_PS_v01_SDR_PS_20180925_SDR_2K_AVC.mp4	0.0	248.0425000190735	0.1000220775604248
4	8.557927131652832	fix_pre	0		131.0	2.0	2.5	/experiments/knapen_aot/videos/S_yt-j-ifVbxZePQ_70.mp4	0.0	248.1425220966339	1.0916168689727783
4	9.641309976577759	response	0	2		2.0	2.5	/experiments/knapen_aot/videos/S_yt-j-ifVbxZePQ_70.mp4	0.0	249.22590494155884	
4	9.64954400062561	movie	1		301.0	2.0	2.5	/experiments/knapen_aot/videos/S_yt-j-ifVbxZePQ_70.mp4	0.0	249.2341389656067	2.5083670616149902
4	12.1579110622406	fix_post	2		12.0	2.0	2.5	/experiments/knapen_aot/videos/S_yt-j-ifVbxZePQ_70.mp4	0.0	251.74250602722168	0.09993791580200195
5	12.257848978042603	fix_pre	0		134.0	3.0	2.5	/experiments/knapen_aot/videos/S_yt-kuzdrmHa-W0_39.mp4	0.0	251.84244394302368	1.116685152053833
5	13.366347074508667	response	0	2		3.0	2.5	/experiments/knapen_aot/videos/S_yt-kuzdrmHa-W0_39.mp4	0.0	252.95094203948975	
5	13.374534130096436	movie	1		301.0	3.0	2.5	/experiments/knapen_aot/videos/S_yt-kuzdrmHa-W0_39.mp4	0.0	252.95912909507751	2.5082809925079346
5	15.88281512260437	fix_post	2		12.0	3.0	2.5	/experiments/knapen_aot/videos/S_yt-kuzdrmHa-W0_39.mp4	0.0	255.46741008758545	0.10003781318664551
6	15.982852935791016	fix_pre	0		103.0	4.0	2.5	/experiments/knapen_aot/videos/R_S_comp_H005_C012_PS_v01_SDR_PS_20180925_SDR_2K_AVC.mp4	0.0	255.5674479007721	0.8583149909973145
6	16.83300495147705	response	0	2		4.0	2.5	/experiments/knapen_aot/videos/R_S_comp_H005_C012_PS_v01_SDR_PS_20180925_SDR_2K_AVC.mp4	0.0	256.41759991645813	
6	16.84116792678833	movie	1		188.0	4.0	2.5	/experiments/knapen_aot/videos/R_S_comp_H005_C012_PS_v01_SDR_PS_20180925_SDR_2K_AVC.mp4	0.0	256.4257628917694	2.50823712348938
6	19.34940505027771	fix_post	2		12.0	4.0	2.5	/experiments/knapen_aot/videos/R_S_comp_H005_C012_PS_v01_SDR_PS_20180925_SDR_2K_AVC.mp4	0.0	258.9340000152588	0.10065603256225586
7	19.450061082839966	fix_pre	0		121.0	5.0	2.5	blank	1.0	259.03465604782104	1.0076909065246582
7	20.4496009349823	response	0	2		5.0	2.5	blank	1.0	260.0341958999634	
7	20.457751989364624	movie	1		301.0	5.0	2.5	blank	1.0	260.0423469543457	2.5083889961242676
7	22.96614098548889	fix_post	2		12.0	5.0	2.5	blank	1.0	262.55073595046997	0.09994101524353027
8	23.066082000732422	fix_pre	0		125.0	6.0	2.5	/experiments/knapen_aot/videos/R_S_yt-9pUeQix6EW8_7.mp4	0.0	262.6506769657135	1.041633129119873
8	24.099602937698364	response	0	2		6.0	2.5	/experiments/knapen_aot/videos/R_S_yt-9pUeQix6EW8_7.mp4	0.0	263.68419790267944	
8	24.107715129852295	movie	1		301.0	6.0	2.5	/experiments/knapen_aot/videos/R_S_yt-9pUeQix6EW8_7.mp4	0.0	263.6923100948334	2.508396863937378
8	26.616111993789673	fix_post	2		12.0	6.0	2.5	/experiments/knapen_aot/videos/R_S_yt-9pUeQix6EW8_7.mp4	0.0	266.20070695877075	0.09998202323913574
9	26.71609401702881	fix_pre	0		120.0	7.0	2.5	/experiments/knapen_aot/videos/R_S_yt-JVhfcpV7OaY_71.mp4	0.0	266.3006889820099	0.9999189376831055
9	27.707898139953613	response	0	2		7.0	2.5	/experiments/knapen_aot/videos/R_S_yt-JVhfcpV7OaY_71.mp4	0.0	267.2924931049347	
9	27.716012954711914	movie	1		301.0	7.0	2.5	/experiments/knapen_aot/videos/R_S_yt-JVhfcpV7OaY_71.mp4	0.0	267.300607919693	2.508413076400757
9	30.22442603111267	fix_post	2		12.0	7.0	2.5	/experiments/knapen_aot/videos/R_S_yt-JVhfcpV7OaY_71.mp4	0.0	269.80902099609375	0.1000220775604248
10	30.324448108673096	fix_pre	0		110.0	8.0	2.5	/experiments/knapen_aot/videos/S_Pz_NXxhQCJc_70.mp4	0.0	269.9090430736542	0.9171078205108643
10	31.23287796974182	response	0	2		8.0	2.5	/experiments/knapen_aot/videos/S_Pz_NXxhQCJc_70.mp4	0.0	270.8174729347229	
10	31.24155592918396	movie	1		301.0	8.0	2.5	/experiments/knapen_aot/videos/S_Pz_NXxhQCJc_70.mp4	0.0	270.82615089416504	2.5078811645507812
10	33.74943709373474	fix_post	2		12.0	8.0	2.5	/experiments/knapen_aot/videos/S_Pz_NXxhQCJc_70.mp4	0.0	273.3340320587158	0.09996199607849121
11	33.84939908981323	fix_pre	0		123.0	9.0	2.5	/experiments/knapen_aot/videos/R_S_yt-YFl_NAWBFAw_166.mp4	0.0	273.4339940547943	1.0249910354614258
11	34.86619591712952	response	0	2		9.0	2.5	/experiments/knapen_aot/videos/R_S_yt-YFl_NAWBFAw_166.mp4	0.0	274.4507908821106	
11	34.87439012527466	movie	1		301.0	9.0	2.5	/experiments/knapen_aot/videos/R_S_yt-YFl_NAWBFAw_166.mp4	0.0	274.45898509025574	2.5083279609680176
11	37.382718086242676	fix_post	2		12.0	9.0	2.5	/experiments/knapen_aot/videos/R_S_yt-YFl_NAWBFAw_166.mp4	0.0	276.96731305122375	0.09998083114624023
12	37.482698917388916	fix_pre	0		105.0	10.0	2.5	/experiments/knapen_aot/videos/R_S_yt-Dwgpjoikt84_122.mp4	0.0	277.06729388237	0.8749840259552002
12	38.349518060684204	response	0	2		10.0	2.5	/experiments/knapen_aot/videos/R_S_yt-Dwgpjoikt84_122.mp4	0.0	277.9341130256653	
12	38.357682943344116	movie	1		301.0	10.0	2.5	/experiments/knapen_aot/videos/R_S_yt-Dwgpjoikt84_122.mp4	0.0	277.9422779083252	2.508362054824829
12	40.866044998168945	fix_post	2		12.0	10.0	2.5	/experiments/knapen_aot/videos/R_S_yt-Dwgpjoikt84_122.mp4	0.0	280.45063996315	0.09992313385009766
13	40.96596813201904	fix_pre	0		138.0	11.0	2.5	/experiments/knapen_aot/videos/R_S_pexels-mikhail-nilov-8410063_1.mp4	0.0	280.5505630970001	1.150486946105957
13	42.107852935791016	response	0	2		11.0	2.5	/experiments/knapen_aot/videos/R_S_pexels-mikhail-nilov-8410063_1.mp4	0.0	281.6924479007721	
13	42.116455078125	movie	1		165.0	11.0	2.5	/experiments/knapen_aot/videos/R_S_pexels-mikhail-nilov-8410063_1.mp4	0.0	281.7010500431061	2.5078999996185303
13	44.62435507774353	fix_post	2		12.0	11.0	2.5	/experiments/knapen_aot/videos/R_S_pexels-mikhail-nilov-8410063_1.mp4	0.0	284.2089500427246	0.09994292259216309
14	44.72429800033569	fix_pre	0		99.0	12.0	2.5	/experiments/knapen_aot/videos/R_S_yt-isJga8ec5UM_32.mp4	0.0	284.3088929653168	0.8249969482421875
14	45.54117298126221	response	0	2		12.0	2.5	/experiments/knapen_aot/videos/R_S_yt-isJga8ec5UM_32.mp4	0.0	285.1257679462433	
14	45.54929494857788	movie	1		301.0	12.0	2.5	/experiments/knapen_aot/videos/R_S_yt-isJga8ec5UM_32.mp4	0.0	285.13388991355896	2.5083889961242676
14	48.05768394470215	fix_post	2		12.0	12.0	2.5	/experiments/knapen_aot/videos/R_S_yt-isJga8ec5UM_32.mp4	0.0	287.6422789096832	0.10005617141723633
15	48.157740116119385	fix_pre	0		93.0	13.0	2.5	blank	1.0	287.74233508110046	0.7748918533325195
15	48.91697907447815	response	0	2		13.0	2.5	blank	1.0	288.50157403945923	
15	48.932631969451904	movie	1		301.0	13.0	2.5	blank	1.0	288.517226934433	2.508366107940674
15	51.44099807739258	fix_post	2		12.0	13.0	2.5	blank	1.0	291.02559304237366	0.09998583793640137
16	51.54098391532898	fix_pre	0		45.0	14.0	2.5	/experiments/knapen_aot/videos/S_production_ID_5144823.mp4	0.0	291.12557888031006	0.3750040531158447
16	51.9077730178833	response	0	2		14.0	2.5	/experiments/knapen_aot/videos/S_production_ID_5144823.mp4	0.0	291.4923679828644	
16	51.915987968444824	movie	1		163.0	14.0	2.5	/experiments/knapen_aot/videos/S_production_ID_5144823.mp4	0.0	291.5005829334259	2.5083091259002686
16	54.42429709434509	fix_post	2		12.0	14.0	2.5	/experiments/knapen_aot/videos/S_production_ID_5144823.mp4	0.0	294.0088920593262	0.09996891021728516
17	54.52426600456238	fix_pre	0		126.0	15.0	2.5	/experiments/knapen_aot/videos/R_S_yt-FhnT_42bV7M_11.mp4	0.0	294.10886096954346	1.0503859519958496
17	55.566142082214355	response	0	2		15.0	2.5	/experiments/knapen_aot/videos/R_S_yt-FhnT_42bV7M_11.mp4	0.0	295.15073704719543	
17	55.57465195655823	movie	1		300.0	15.0	2.5	/experiments/knapen_aot/videos/R_S_yt-FhnT_42bV7M_11.mp4	0.0	295.1592469215393	2.5079290866851807
17	58.08258104324341	fix_post	2		12.0	15.0	2.5	/experiments/knapen_aot/videos/R_S_yt-FhnT_42bV7M_11.mp4	0.0	297.6671760082245	0.09999799728393555
18	58.182579040527344	fix_pre	0		107.0	16.0	2.5	/experiments/knapen_aot/videos/S_yt-N1ZrWT4xyzc_85.mp4	0.0	297.7671740055084	0.8919999599456787
18	59.06611895561218	response	0	2		16.0	2.5	/experiments/knapen_aot/videos/S_yt-N1ZrWT4xyzc_85.mp4	0.0	298.65071392059326	
18	59.07457900047302	movie	1		301.0	16.0	2.5	/experiments/knapen_aot/videos/S_yt-N1ZrWT4xyzc_85.mp4	0.0	298.6591739654541	2.5080440044403076
18	61.58262300491333	fix_post	2		12.0	16.0	2.5	/experiments/knapen_aot/videos/S_yt-N1ZrWT4xyzc_85.mp4	0.0	301.1672179698944	0.10004711151123047
19	61.68267011642456	fix_pre	0		108.0	17.0	2.5	/experiments/knapen_aot/videos/S_comp_H005_C012_PS_v01_SDR_PS_20180925_SDR_2K_AVC.mp4	0.0	301.26726508140564	0.8999028205871582
19	62.574406147003174	response	0	2		17.0	2.5	/experiments/knapen_aot/videos/S_comp_H005_C012_PS_v01_SDR_PS_20180925_SDR_2K_AVC.mp4	0.0	302.15900111198425	
19	62.58257293701172	movie	1		170.0	17.0	2.5	/experiments/knapen_aot/videos/S_comp_H005_C012_PS_v01_SDR_PS_20180925_SDR_2K_AVC.mp4	0.0	302.1671679019928	2.5083510875701904
19	65.09092402458191	fix_post	2		12.0	17.0	2.5	/experiments/knapen_aot/videos/S_comp_H005_C012_PS_v01_SDR_PS_20180925_SDR_2K_AVC.mp4	0.0	304.675518989563	0.09999799728393555
20	65.19092202186584	fix_pre	0		103.0	18.0	2.5	/experiments/knapen_aot/videos/S_yt-hyZEDFkh49w_196.mp4	0.0	304.7755169868469	0.858273983001709
20	66.04104709625244	response	0	2		18.0	2.5	/experiments/knapen_aot/videos/S_yt-hyZEDFkh49w_196.mp4	0.0	305.6256420612335	
20	66.04919600486755	movie	1		300.0	18.0	2.5	/experiments/knapen_aot/videos/S_yt-hyZEDFkh49w_196.mp4	0.0	305.63379096984863	2.5084149837493896
20	68.55761098861694	fix_post	2		12.0	18.0	2.5	/experiments/knapen_aot/videos/S_yt-hyZEDFkh49w_196.mp4	0.0	308.142205953598	0.09999203681945801
21	68.6576030254364	fix_pre	0		130.0	19.0	2.5	/experiments/knapen_aot/videos/R_S_yt-lADkWM79teI_18.mp4	0.0	308.2421979904175	1.0836400985717773
21	69.73263192176819	response	0	2		19.0	2.5	/experiments/knapen_aot/videos/R_S_yt-lADkWM79teI_18.mp4	0.0	309.31722688674927	
21	69.74124312400818	movie	1		301.0	19.0	2.5	/experiments/knapen_aot/videos/R_S_yt-lADkWM79teI_18.mp4	0.0	309.32583808898926	2.5080277919769287
21	72.24927091598511	fix_post	2		12.0	19.0	2.5	/experiments/knapen_aot/videos/R_S_yt-lADkWM79teI_18.mp4	0.0	311.8338658809662	0.10001206398010254
22	72.34928297996521	fix_pre	0		88.0	20.0	2.5	/experiments/knapen_aot/videos/S_ILSVRC2015_train_00373000.mp4	0.0	311.9338779449463	0.733302116394043
22	73.0667679309845	response	0	2		20.0	2.5	/experiments/knapen_aot/videos/S_ILSVRC2015_train_00373000.mp4	0.0	312.6513628959656	
22	73.08258509635925	movie	1		301.0	20.0	2.5	/experiments/knapen_aot/videos/S_ILSVRC2015_train_00373000.mp4	0.0	312.66718006134033	2.5083680152893066
22	75.59095311164856	fix_post	2		12.0	20.0	2.5	/experiments/knapen_aot/videos/S_ILSVRC2015_train_00373000.mp4	0.0	315.17554807662964	0.09995484352111816
23	75.69090795516968	fix_pre	0		76.0	21.0	2.5	blank	1.0	315.27550292015076	0.6336250305175781
23	76.31608414649963	response	0	2		21.0	2.5	blank	1.0	315.9006791114807	
23	76.32453298568726	movie	1		301.0	21.0	2.5	blank	1.0	315.90912795066833	2.5080630779266357
23	78.83259606361389	fix_post	2		12.0	21.0	2.5	blank	1.0	318.41719102859497	0.09983396530151367
24	78.9324300289154	fix_pre	0		74.0	22.0	2.5	/experiments/knapen_aot/videos/R_S_yt-Gc1p5CnDbDY_22.mp4	0.0	318.5170249938965	0.616753101348877
24	79.54101991653442	response	0	2		22.0	2.5	/experiments/knapen_aot/videos/R_S_yt-Gc1p5CnDbDY_22.mp4	0.0	319.1256148815155	
24	79.54918313026428	movie	1		301.0	22.0	2.5	/experiments/knapen_aot/videos/R_S_yt-Gc1p5CnDbDY_22.mp4	0.0	319.13377809524536	2.50834584236145
24	82.05752897262573	fix_post	2		12.0	22.0	2.5	/experiments/knapen_aot/videos/R_S_yt-Gc1p5CnDbDY_22.mp4	0.0	321.6421239376068	0.10020804405212402
25	82.15773701667786	fix_pre	0		96.0	23.0	2.5	/experiments/knapen_aot/videos/R_S_yt-EKPrSw5xF7k_112.mp4	0.0	321.74233198165894	0.7998619079589844
25	82.94935011863708	response	0	2		23.0	2.5	/experiments/knapen_aot/videos/R_S_yt-EKPrSw5xF7k_112.mp4	0.0	322.53394508361816	
25	82.95759892463684	movie	1		301.0	23.0	2.5	/experiments/knapen_aot/videos/R_S_yt-EKPrSw5xF7k_112.mp4	0.0	322.5421938896179	2.508212089538574
25	85.46581101417542	fix_post	2		12.0	23.0	2.5	/experiments/knapen_aot/videos/R_S_yt-EKPrSw5xF7k_112.mp4	0.0	325.0504059791565	0.09999299049377441
26	85.56580400466919	fix_pre	0		54.0	24.0	2.5	/experiments/knapen_aot/videos/R_S_yt-GjFQxAklviE_25.mp4	0.0	325.15039896965027	0.44998693466186523
26	86.00760102272034	response	0	2		24.0	2.5	/experiments/knapen_aot/videos/R_S_yt-GjFQxAklviE_25.mp4	0.0	325.5921959877014	
26	86.01579093933105	movie	1		301.0	24.0	2.5	/experiments/knapen_aot/videos/R_S_yt-GjFQxAklviE_25.mp4	0.0	325.60038590431213	2.508409023284912
26	88.52419996261597	fix_post	2		12.0	24.0	2.5	/experiments/knapen_aot/videos/R_S_yt-GjFQxAklviE_25.mp4	0.0	328.10879492759705	0.09999513626098633
27	88.62419509887695	fix_pre	0		186.0	25.0	2.5	/experiments/knapen_aot/videos/R_S_yt-AbJBxqEYoMg_27.mp4	0.0	328.20879006385803	1.55000901222229
27	90.1584780216217	response	0	2		25.0	2.5	/experiments/knapen_aot/videos/R_S_yt-AbJBxqEYoMg_27.mp4	0.0	329.7430729866028	
27	90.17420411109924	movie	1		301.0	25.0	2.5	/experiments/knapen_aot/videos/R_S_yt-AbJBxqEYoMg_27.mp4	0.0	329.7587990760803	2.5083158016204834
27	92.68251991271973	fix_post	2		12.0	25.0	2.5	/experiments/knapen_aot/videos/R_S_yt-AbJBxqEYoMg_27.mp4	0.0	332.2671148777008	0.10016703605651855
28	92.78268694877625	fix_pre	0		142.0	26.0	2.5	blank	1.0	332.3672819137573	1.1831669807434082
28	93.95765614509583	response	0	2		26.0	2.5	blank	1.0	333.5422511100769	
28	93.96585392951965	movie	1		301.0	26.0	2.5	blank	1.0	333.55044889450073	2.508324146270752
28	96.4741780757904	fix_post	2		12.0	26.0	2.5	blank	1.0	336.0587730407715	0.10008788108825684
29	96.57426595687866	fix_pre	0		40.0	27.0	2.5	/experiments/knapen_aot/videos/R_S_yt-bZfmqTZ-d2k_112.mp4	0.0	336.15886092185974	0.33333301544189453
29	96.89928102493286	response	0	2		27.0	2.5	/experiments/knapen_aot/videos/R_S_yt-bZfmqTZ-d2k_112.mp4	0.0	336.48387598991394	
29	96.90759897232056	movie	1		301.0	27.0	2.5	/experiments/knapen_aot/videos/R_S_yt-bZfmqTZ-d2k_112.mp4	0.0	336.49219393730164	2.5081570148468018
29	99.41575598716736	fix_post	2		12.0	27.0	2.5	/experiments/knapen_aot/videos/R_S_yt-bZfmqTZ-d2k_112.mp4	0.0	339.00035095214844	0.10000801086425781
30	99.51576399803162	fix_pre	0		167.0	28.0	2.5	/experiments/knapen_aot/videos/R_S_yt-738MRS0yI6g_177.mp4	0.0	339.1003589630127	1.3917510509490967
30	100.8992669582367	response	0	2		28.0	2.5	/experiments/knapen_aot/videos/R_S_yt-738MRS0yI6g_177.mp4	0.0	340.4838619232178	
30	100.90751504898071	movie	1		301.0	28.0	2.5	/experiments/knapen_aot/videos/R_S_yt-738MRS0yI6g_177.mp4	0.0	340.4921100139618	2.50827693939209
30	103.4157919883728	fix_post	2		12.0	28.0	2.5	/experiments/knapen_aot/videos/R_S_yt-738MRS0yI6g_177.mp4	0.0	343.0003869533539	0.09992098808288574
31	103.51571297645569	fix_pre	0		102.0	29.0	2.5	/experiments/knapen_aot/videos/R_S_yt-fA0nOetbOJY_580.mp4	0.0	343.10030794143677	0.8501300811767578
31	104.35754299163818	response	0	2		29.0	2.5	/experiments/knapen_aot/videos/R_S_yt-fA0nOetbOJY_580.mp4	0.0	343.94213795661926	
31	104.36584305763245	movie	1		301.0	29.0	2.5	/experiments/knapen_aot/videos/R_S_yt-fA0nOetbOJY_580.mp4	0.0	343.9504380226135	2.5082719326019287
31	106.87411499023438	fix_post	2		12.0	29.0	2.5	/experiments/knapen_aot/videos/R_S_yt-fA0nOetbOJY_580.mp4	0.0	346.45870995521545	0.0999610424041748
32	106.97407603263855	fix_pre	0		142.0	30.0	2.5	/experiments/knapen_aot/videos/R_S_ILSVRC2015_train_00373001.mp4	0.0	346.55867099761963	1.183384895324707
32	108.14179706573486	response	0	2		30.0	2.5	/experiments/knapen_aot/videos/R_S_ILSVRC2015_train_00373001.mp4	0.0	347.72639203071594	
32	108.15746092796326	movie	1		301.0	30.0	2.5	/experiments/knapen_aot/videos/R_S_ILSVRC2015_train_00373001.mp4	0.0	347.74205589294434	2.508310079574585
32	110.66577100753784	fix_post	2		12.0	30.0	2.5	/experiments/knapen_aot/videos/R_S_ILSVRC2015_train_00373001.mp4	0.0	350.2503659725189	0.10014605522155762
33	110.7659170627594	fix_pre	0		149.0	31.0	2.5	/experiments/knapen_aot/videos/S_production_ID_4360158.mp4	0.0	350.3505120277405	1.2415540218353271
33	111.99926209449768	response	0	2		31.0	2.5	/experiments/knapen_aot/videos/S_production_ID_4360158.mp4	0.0	351.58385705947876	
33	112.00747108459473	movie	1		162.0	31.0	2.5	/experiments/knapen_aot/videos/S_production_ID_4360158.mp4	0.0	351.5920660495758	2.5082929134368896
33	114.51576399803162	fix_post	2		12.0	31.0	2.5	/experiments/knapen_aot/videos/S_production_ID_4360158.mp4	0.0	354.1003589630127	0.10003900527954102
34	114.61580300331116	fix_pre	0		127.0	32.0	2.5	/experiments/knapen_aot/videos/S_yt-3TF_RGo9cLs_541.mp4	0.0	354.20039796829224	1.0582659244537354
34	115.66586303710938	response	0	2		32.0	2.5	/experiments/knapen_aot/videos/S_yt-3TF_RGo9cLs_541.mp4	0.0	355.25045800209045	
34	115.67406892776489	movie	1		301.0	32.0	2.5	/experiments/knapen_aot/videos/S_yt-3TF_RGo9cLs_541.mp4	0.0	355.258663892746	2.5083391666412354
34	118.18240809440613	fix_post	2		12.0	32.0	2.5	/experiments/knapen_aot/videos/S_yt-3TF_RGo9cLs_541.mp4	0.0	357.7670030593872	0.10001182556152344
35	118.28241991996765	fix_pre	0		136.0	33.0	2.5	/experiments/knapen_aot/videos/S_yt-9pUeQix6EW8_7.mp4	0.0	357.86701488494873	1.1332881450653076
35	119.4075620174408	response	0	2		33.0	2.5	/experiments/knapen_aot/videos/S_yt-9pUeQix6EW8_7.mp4	0.0	358.9921569824219	
35	119.41570806503296	movie	1		301.0	33.0	2.5	/experiments/knapen_aot/videos/S_yt-9pUeQix6EW8_7.mp4	0.0	359.00030303001404	2.508358955383301
35	121.92406702041626	fix_post	2		12.0	33.0	2.5	/experiments/knapen_aot/videos/S_yt-9pUeQix6EW8_7.mp4	0.0	361.50866198539734	0.100006103515625
36	122.02407312393188	fix_pre	0		115.0	34.0	2.5	blank	1.0	361.60866808891296	0.9583230018615723
36	122.97414994239807	response	0	2		34.0	2.5	blank	1.0	362.55874490737915	
36	122.98239612579346	movie	1		301.0	34.0	2.5	blank	1.0	362.56699109077454	2.508296012878418
36	125.49069213867188	fix_post	2		12.0	34.0	2.5	blank	1.0	365.07528710365295	0.10000395774841309
37	125.59069609642029	fix_pre	0		49.0	35.0	2.5	/experiments/knapen_aot/videos/R_S_wc-dwTccI0TNwps_15.mp4	0.0	365.17529106140137	0.40831899642944336
37	125.99083614349365	response	0	2		35.0	2.5	/experiments/knapen_aot/videos/R_S_wc-dwTccI0TNwps_15.mp4	0.0	365.57543110847473	
37	125.99901509284973	movie	1		301.0	35.0	2.5	/experiments/knapen_aot/videos/R_S_wc-dwTccI0TNwps_15.mp4	0.0	365.5836100578308	2.508314847946167
37	128.5073299407959	fix_post	2		12.0	35.0	2.5	/experiments/knapen_aot/videos/R_S_wc-dwTccI0TNwps_15.mp4	0.0	368.091924905777	0.10003018379211426
38	128.607360124588	fix_pre	0		170.0	36.0	2.5	/experiments/knapen_aot/videos/R_S_yt-be7r-ha8BpA_1045.mp4	0.0	368.1919550895691	1.4166309833526611
38	130.01583003997803	response	0	2		36.0	2.5	/experiments/knapen_aot/videos/R_S_yt-be7r-ha8BpA_1045.mp4	0.0	369.6004250049591	
38	130.02399110794067	movie	1		301.0	36.0	2.5	/experiments/knapen_aot/videos/R_S_yt-be7r-ha8BpA_1045.mp4	0.0	369.60858607292175	2.5083730220794678
38	132.53236413002014	fix_post	2		12.0	36.0	2.5	/experiments/knapen_aot/videos/R_S_yt-be7r-ha8BpA_1045.mp4	0.0	372.1169590950012	0.09998893737792969
39	132.63235306739807	fix_pre	0		159.0	37.0	2.5	/experiments/knapen_aot/videos/S_yt-isJga8ec5UM_32.mp4	0.0	372.21694803237915	1.3249130249023438
39	133.94911408424377	response	0	2		37.0	2.5	/experiments/knapen_aot/videos/S_yt-isJga8ec5UM_32.mp4	0.0	373.53370904922485	
39	133.95726609230042	movie	1		301.0	37.0	2.5	/experiments/knapen_aot/videos/S_yt-isJga8ec5UM_32.mp4	0.0	373.5418610572815	2.508347988128662
39	136.46561408042908	fix_post	2		12.0	37.0	2.5	/experiments/knapen_aot/videos/S_yt-isJga8ec5UM_32.mp4	0.0	376.05020904541016	0.09997200965881348
40	136.5655860900879	fix_pre	0		126.0	38.0	2.5	/experiments/knapen_aot/videos/S_comp_CH_C007_C011_PSNK_v02_SDR_PS_FINAL_20180709_SDR_2K_AVC.mp4	0.0	376.15018105506897	1.0499708652496338
40	137.60742592811584	response	0	2		38.0	2.5	/experiments/knapen_aot/videos/S_comp_CH_C007_C011_PSNK_v02_SDR_PS_FINAL_20180709_SDR_2K_AVC.mp4	0.0	377.1920208930969	
40	137.61555695533752	movie	1		166.0	38.0	2.5	/experiments/knapen_aot/videos/S_comp_CH_C007_C011_PSNK_v02_SDR_PS_FINAL_20180709_SDR_2K_AVC.mp4	0.0	377.2001519203186	2.5083401203155518
40	140.12389707565308	fix_post	2		12.0	38.0	2.5	/experiments/knapen_aot/videos/S_comp_CH_C007_C011_PSNK_v02_SDR_PS_FINAL_20180709_SDR_2K_AVC.mp4	0.0	379.70849204063416	0.10002899169921875
41	140.2239260673523	fix_pre	0		110.0	39.0	2.5	/experiments/knapen_aot/videos/S_wc-dwTccI0TNwps_15.mp4	0.0	379.8085210323334	0.9166748523712158
41	141.12500596046448	response	0	2		39.0	2.5	/experiments/knapen_aot/videos/S_wc-dwTccI0TNwps_15.mp4	0.0	380.70960092544556	
41	141.1406009197235	movie	1		301.0	39.0	2.5	/experiments/knapen_aot/videos/S_wc-dwTccI0TNwps_15.mp4	0.0	380.7251958847046	2.508277177810669
41	143.64887809753418	fix_post	2		12.0	39.0	2.5	/experiments/knapen_aot/videos/S_wc-dwTccI0TNwps_15.mp4	0.0	383.23347306251526	0.09999704360961914
42	143.7488751411438	fix_pre	0		140.0	40.0	2.5	/experiments/knapen_aot/videos/R_S_yt-BCFGCganiuE_8.mp4	0.0	383.3334701061249	1.1667218208312988
42	144.8998670578003	response	0	2		40.0	2.5	/experiments/knapen_aot/videos/R_S_yt-BCFGCganiuE_8.mp4	0.0	384.4844620227814	
42	144.9155969619751	movie	1		301.0	40.0	2.5	/experiments/knapen_aot/videos/R_S_yt-BCFGCganiuE_8.mp4	0.0	384.5001919269562	2.5083250999450684
42	147.42392206192017	fix_post	2		12.0	40.0	2.5	/experiments/knapen_aot/videos/R_S_yt-BCFGCganiuE_8.mp4	0.0	387.00851702690125	0.09998703002929688
43	147.52390909194946	fix_pre	0		161.0	41.0	2.5	/experiments/knapen_aot/videos/R_S_yt-e_eOzV7qMZo_374.mp4	0.0	387.10850405693054	1.341655969619751
43	148.8573820590973	response	0	2		41.0	2.5	/experiments/knapen_aot/videos/R_S_yt-e_eOzV7qMZo_374.mp4	0.0	388.44197702407837	
43	148.8655650615692	movie	1		301.0	41.0	2.5	/experiments/knapen_aot/videos/R_S_yt-e_eOzV7qMZo_374.mp4	0.0	388.4501600265503	2.5083119869232178
43	151.37387704849243	fix_post	2		12.0	41.0	2.5	/experiments/knapen_aot/videos/R_S_yt-e_eOzV7qMZo_374.mp4	0.0	390.9584720134735	0.10004401206970215
44	151.47392106056213	fix_pre	0		122.0	42.0	2.5	blank	1.0	391.0585160255432	1.0166170597076416
44	152.4823760986328	response	0	2		42.0	2.5	blank	1.0	392.0669710636139	
44	152.49053812026978	movie	1		301.0	42.0	2.5	blank	1.0	392.07513308525085	2.5083467960357666
44	154.99888491630554	fix_post	2		12.0	42.0	2.5	blank	1.0	394.5834798812866	0.10004305839538574
45	155.09892797470093	fix_pre	0		81.0	43.0	2.5	/experiments/knapen_aot/videos/R_S_yt-l_ioasf6yHg_44.mp4	0.0	394.683522939682	0.6761901378631592
45	155.7657129764557	response	0	2		43.0	2.5	/experiments/knapen_aot/videos/R_S_yt-l_ioasf6yHg_44.mp4	0.0	395.35030794143677	
45	155.7751181125641	movie	1		301.0	43.0	2.5	/experiments/knapen_aot/videos/R_S_yt-l_ioasf6yHg_44.mp4	0.0	395.35971307754517	2.5071120262145996
45	158.2822301387787	fix_post	2		12.0	43.0	2.5	/experiments/knapen_aot/videos/R_S_yt-l_ioasf6yHg_44.mp4	0.0	397.86682510375977	0.09999799728393555
46	158.38222813606262	fix_pre	0		136.0	44.0	2.5	/experiments/knapen_aot/videos/R_S_yt-AOP7QYQntPI_28.mp4	0.0	397.9668231010437	1.1332948207855225
46	159.50731992721558	response	0	2		44.0	2.5	/experiments/knapen_aot/videos/R_S_yt-AOP7QYQntPI_28.mp4	0.0	399.09191489219666	
46	159.51552295684814	movie	1		299.0	44.0	2.5	/experiments/knapen_aot/videos/R_S_yt-AOP7QYQntPI_28.mp4	0.0	399.1001179218292	2.50833797454834
46	162.02386093139648	fix_post	2		12.0	44.0	2.5	/experiments/knapen_aot/videos/R_S_yt-AOP7QYQntPI_28.mp4	0.0	401.60845589637756	0.09996914863586426
47	162.12383008003235	fix_pre	0		103.0	45.0	2.5	/experiments/knapen_aot/videos/S_yt-AOP7QYQntPI_28.mp4	0.0	401.7084250450134	0.858299970626831
47	162.97392296791077	response	0	2		45.0	2.5	/experiments/knapen_aot/videos/S_yt-AOP7QYQntPI_28.mp4	0.0	402.55851793289185	
47	162.98213005065918	movie	1		301.0	45.0	2.5	/experiments/knapen_aot/videos/S_yt-AOP7QYQntPI_28.mp4	0.0	402.56672501564026	2.5083389282226562
47	165.49046897888184	fix_post	2		12.0	45.0	2.5	/experiments/knapen_aot/videos/S_yt-AOP7QYQntPI_28.mp4	0.0	405.0750639438629	0.0999150276184082
48	165.59038400650024	fix_pre	0		58.0	46.0	2.5	/experiments/knapen_aot/videos/R_S_yt-j-ifVbxZePQ_70.mp4	0.0	405.1749789714813	0.48338794708251953
48	166.0657410621643	response	0	2		46.0	2.5	/experiments/knapen_aot/videos/R_S_yt-j-ifVbxZePQ_70.mp4	0.0	405.6503360271454	
48	166.07377195358276	movie	1		301.0	46.0	2.5	/experiments/knapen_aot/videos/R_S_yt-j-ifVbxZePQ_70.mp4	0.0	405.65836691856384	2.5083401203155518
48	168.58211207389832	fix_post	2		12.0	46.0	2.5	/experiments/knapen_aot/videos/R_S_yt-j-ifVbxZePQ_70.mp4	0.0	408.1667070388794	0.10003995895385742
49	168.68215203285217	fix_pre	0		108.0	47.0	2.5	/experiments/knapen_aot/videos/S_yt-FhnT_42bV7M_11.mp4	0.0	408.26674699783325	0.8999440670013428
49	169.57397413253784	response	0	2		47.0	2.5	/experiments/knapen_aot/videos/S_yt-FhnT_42bV7M_11.mp4	0.0	409.1585690975189	
49	169.58209609985352	movie	1		301.0	47.0	2.5	/experiments/knapen_aot/videos/S_yt-FhnT_42bV7M_11.mp4	0.0	409.1666910648346	2.5084168910980225
49	172.09051299095154	fix_post	2		12.0	47.0	2.5	/experiments/knapen_aot/videos/S_yt-FhnT_42bV7M_11.mp4	0.0	411.6751079559326	0.09998011589050293
50	172.19049310684204	fix_pre	0		127.0	48.0	2.5	blank	1.0	411.7750880718231	1.0582709312438965
50	173.2406370639801	response	0	2		48.0	2.5	blank	1.0	412.8252320289612	
50	173.24876403808594	movie	1		301.0	48.0	2.5	blank	1.0	412.833359003067	2.5083730220794678
50	175.7571370601654	fix_post	2		12.0	48.0	2.5	blank	1.0	415.3417320251465	0.10003089904785156
51	175.85716795921326	fix_pre	0		41.0	49.0	2.5	/experiments/knapen_aot/videos/R_S_yt-uWeU2s6JYyk_10.mp4	0.0	415.44176292419434	0.34156012535095215
51	176.19076108932495	response	0	2		49.0	2.5	/experiments/knapen_aot/videos/R_S_yt-uWeU2s6JYyk_10.mp4	0.0	415.77535605430603	
51	176.1987280845642	movie	1		297.0	49.0	2.5	/experiments/knapen_aot/videos/R_S_yt-uWeU2s6JYyk_10.mp4	0.0	415.7833230495453	2.5083439350128174
51	178.70707201957703	fix_post	2		12.0	49.0	2.5	/experiments/knapen_aot/videos/R_S_yt-uWeU2s6JYyk_10.mp4	0.0	418.2916669845581	0.10001111030578613
52	178.8070831298828	fix_pre	0		167.0	50.0	2.5	/experiments/knapen_aot/videos/R_S_yt-_6j2NXrB-zE_28.mp4	0.0	418.3916780948639	1.391638994216919
52	180.19056701660156	response	0	2		50.0	2.5	/experiments/knapen_aot/videos/R_S_yt-_6j2NXrB-zE_28.mp4	0.0	419.77516198158264	
52	180.19872212409973	movie	1		301.0	50.0	2.5	/experiments/knapen_aot/videos/R_S_yt-_6j2NXrB-zE_28.mp4	0.0	419.7833170890808	2.508314847946167
52	182.7070369720459	fix_post	2		12.0	50.0	2.5	/experiments/knapen_aot/videos/R_S_yt-_6j2NXrB-zE_28.mp4	0.0	422.291631937027	0.10005307197570801
53	182.8070900440216	fix_pre	0		103.0	51.0	2.5	/experiments/knapen_aot/videos/R_S_comp_A351_C001_v06_SDR_PS_20180725_SDR_2K_AVC.mp4	0.0	422.3916850090027	0.8583419322967529
53	183.6572389602661	response	0	2		51.0	2.5	/experiments/knapen_aot/videos/R_S_comp_A351_C001_v06_SDR_PS_20180725_SDR_2K_AVC.mp4	0.0	423.2418339252472	
53	183.66543197631836	movie	1		163.0	51.0	2.5	/experiments/knapen_aot/videos/R_S_comp_A351_C001_v06_SDR_PS_20180725_SDR_2K_AVC.mp4	0.0	423.25002694129944	2.5082809925079346
53	186.1737129688263	fix_post	2		12.0	51.0	2.5	/experiments/knapen_aot/videos/R_S_comp_A351_C001_v06_SDR_PS_20180725_SDR_2K_AVC.mp4	0.0	425.7583079338074	0.09992003440856934
54	186.27363300323486	fix_pre	0		115.0	52.0	2.5	/experiments/knapen_aot/videos/S_production_ID_4101242.mp4	0.0	425.85822796821594	0.959542989730835
54	187.2238531112671	response	0	2		52.0	2.5	/experiments/knapen_aot/videos/S_production_ID_4101242.mp4	0.0	426.80844807624817	
54	187.2331759929657	movie	1		195.0	52.0	2.5	/experiments/knapen_aot/videos/S_production_ID_4101242.mp4	0.0	426.8177709579468	2.507159948348999
54	189.7403359413147	fix_post	2		12.0	52.0	2.5	/experiments/knapen_aot/videos/S_production_ID_4101242.mp4	0.0	429.3249309062958	0.10005712509155273
55	189.84039306640625	fix_pre	0		203.0	53.0	2.5	/experiments/knapen_aot/videos/R_S_yt-xqHrTtvFFIs_3.mp4	0.0	429.42498803138733	1.691645860671997
55	191.52387595176697	response	0	2		53.0	2.5	/experiments/knapen_aot/videos/R_S_yt-xqHrTtvFFIs_3.mp4	0.0	431.10847091674805	
55	191.53203892707825	movie	1		301.0	53.0	2.5	/experiments/knapen_aot/videos/R_S_yt-xqHrTtvFFIs_3.mp4	0.0	431.1166338920593	2.5083370208740234
55	194.04037594795227	fix_post	2		12.0	53.0	2.5	/experiments/knapen_aot/videos/R_S_yt-xqHrTtvFFIs_3.mp4	0.0	433.62497091293335	0.09997797012329102
56	194.14035391807556	fix_pre	0		64.0	54.0	2.5	blank	1.0	433.72494888305664	0.5333142280578613
56	194.66554307937622	response	0	2		54.0	2.5	blank	1.0	434.2501380443573	
56	194.67366814613342	movie	1		301.0	54.0	2.5	blank	1.0	434.2582631111145	2.508319854736328
56	196.9320991039276	response	1	2		54.0	2.5	blank	1.0	436.5166940689087	
56	197.18198800086975	fix_post	2		12.0	54.0	2.5	blank	1.0	436.76658296585083	0.09997701644897461
57	197.28196501731873	fix_pre	0		91.0	55.0	2.5	/experiments/knapen_aot/videos/R_S_pexels-rodnae-productions-5544703.mp4	0.0	436.8665599822998	0.7583589553833008
57	198.02457094192505	response	0	2		55.0	2.5	/experiments/knapen_aot/videos/R_S_pexels-rodnae-productions-5544703.mp4	0.0	437.6091659069061	
57	198.04032397270203	movie	1		185.0	55.0	2.5	/experiments/knapen_aot/videos/R_S_pexels-rodnae-productions-5544703.mp4	0.0	437.6249189376831	2.508273124694824
57	200.54859709739685	fix_post	2		12.0	55.0	2.5	/experiments/knapen_aot/videos/R_S_pexels-rodnae-productions-5544703.mp4	0.0	440.13319206237793	0.1000518798828125
58	200.64864897727966	fix_pre	0		261.0	56.0	2.5	/experiments/knapen_aot/videos/S_yt-OFnDCbW9Ebo_31.mp4	0.0	440.23324394226074	2.1749751567840576
58	202.80804800987244	response	0	2		56.0	2.5	/experiments/knapen_aot/videos/S_yt-OFnDCbW9Ebo_31.mp4	0.0	442.3926429748535	
58	202.82362413406372	movie	1		299.0	56.0	2.5	/experiments/knapen_aot/videos/S_yt-OFnDCbW9Ebo_31.mp4	0.0	442.4082190990448	2.5082619190216064
58	205.33188605308533	fix_post	2		12.0	56.0	2.5	/experiments/knapen_aot/videos/S_yt-OFnDCbW9Ebo_31.mp4	0.0	444.9164810180664	0.10010004043579102
59	205.43198609352112	fix_pre	0		189.0	57.0	2.5	/experiments/knapen_aot/videos/S_yt-T7RmOAme5dU_213.mp4	0.0	445.0165810585022	1.5749619007110596
59	206.9987370967865	response	0	2		57.0	2.5	/experiments/knapen_aot/videos/S_yt-T7RmOAme5dU_213.mp4	0.0	446.5833320617676	
59	207.00694799423218	movie	1		301.0	57.0	2.5	/experiments/knapen_aot/videos/S_yt-T7RmOAme5dU_213.mp4	0.0	446.59154295921326	2.508384943008423
59	209.5153329372406	fix_post	2		12.0	57.0	2.5	/experiments/knapen_aot/videos/S_yt-T7RmOAme5dU_213.mp4	0.0	449.0999279022217	0.09996914863586426
60	209.61530208587646	fix_pre	0		130.0	58.0	2.5	/experiments/knapen_aot/videos/R_S_production_ID_5119260.mp4	0.0	449.19989705085754	1.0832560062408447
60	210.68299198150635	response	0	2		58.0	2.5	/experiments/knapen_aot/videos/R_S_production_ID_5119260.mp4	0.0	450.2675869464874	
60	210.6985580921173	movie	1		163.0	58.0	2.5	/experiments/knapen_aot/videos/R_S_production_ID_5119260.mp4	0.0	450.2831530570984	2.5083959102630615
60	213.20695400238037	fix_post	2		12.0	58.0	2.5	/experiments/knapen_aot/videos/R_S_production_ID_5119260.mp4	0.0	452.79154896736145	0.09997797012329102
61	213.30693197250366	fix_pre	0		142.0	59.0	2.5	/experiments/knapen_aot/videos/R_S_yt-6vkiJedss6g_5.mp4	0.0	452.89152693748474	1.1833250522613525
61	214.48207998275757	response	0	2		59.0	2.5	/experiments/knapen_aot/videos/R_S_yt-6vkiJedss6g_5.mp4	0.0	454.06667494773865	
61	214.49025702476501	movie	1		301.0	59.0	2.5	/experiments/knapen_aot/videos/R_S_yt-6vkiJedss6g_5.mp4	0.0	454.0748519897461	2.5083200931549072
61	216.99857711791992	fix_post	2		12.0	59.0	2.5	/experiments/knapen_aot/videos/R_S_yt-6vkiJedss6g_5.mp4	0.0	456.583172082901	0.0999448299407959
62	217.09852194786072	fix_pre	0		124.0	60.0	2.5	/experiments/knapen_aot/videos/R_S_production_ID_5144823.mp4	0.0	456.6831169128418	1.0333521366119385
62	218.1237051486969	response	0	2		60.0	2.5	/experiments/knapen_aot/videos/R_S_production_ID_5144823.mp4	0.0	457.708300113678	
62	218.13187408447266	movie	1		164.0	60.0	2.5	/experiments/knapen_aot/videos/R_S_production_ID_5144823.mp4	0.0	457.71646904945374	2.508370876312256
62	220.6402449607849	fix_post	2		12.0	60.0	2.5	/experiments/knapen_aot/videos/R_S_production_ID_5144823.mp4	0.0	460.224839925766	0.09999799728393555
63	220.74024295806885	fix_pre	0		104.0	61.0	2.5	blank	1.0	460.3248379230499	0.866685152053833
63	221.59111404418945	response	0	2		61.0	2.5	blank	1.0	461.17570900917053	
63	221.60692811012268	movie	1		301.0	61.0	2.5	blank	1.0	461.19152307510376	2.5083110332489014
63	224.11523914337158	fix_post	2		12.0	61.0	2.5	blank	1.0	463.69983410835266	0.10002398490905762
64	224.21526312828064	fix_pre	0		64.0	62.0	2.5	/experiments/knapen_aot/videos/R_S_yt-4r-oovk9JWg_85.mp4	0.0	463.7998580932617	0.5333089828491211
64	224.74034309387207	response	0	2		62.0	2.5	/experiments/knapen_aot/videos/R_S_yt-4r-oovk9JWg_85.mp4	0.0	464.32493805885315	
64	224.74857211112976	movie	1		301.0	62.0	2.5	/experiments/knapen_aot/videos/R_S_yt-4r-oovk9JWg_85.mp4	0.0	464.33316707611084	2.5083518028259277
64	227.2569239139557	fix_post	2		12.0	62.0	2.5	/experiments/knapen_aot/videos/R_S_yt-4r-oovk9JWg_85.mp4	0.0	466.84151887893677	0.09996223449707031
65	227.35688614845276	fix_pre	0		89.0	63.0	2.5	/experiments/knapen_aot/videos/R_S_ILSVRC2015_train_00654000.mp4	0.0	466.94148111343384	0.7416508197784424
65	228.0902669429779	response	0	2		63.0	2.5	/experiments/knapen_aot/videos/R_S_ILSVRC2015_train_00654000.mp4	0.0	467.674861907959	
65	228.0985369682312	movie	1		300.0	63.0	2.5	/experiments/knapen_aot/videos/R_S_ILSVRC2015_train_00654000.mp4	0.0	467.6831319332123	2.5083370208740234
65	230.60687398910522	fix_post	2		12.0	63.0	2.5	/experiments/knapen_aot/videos/R_S_ILSVRC2015_train_00654000.mp4	0.0	470.1914689540863	0.10001111030578613
66	230.706885099411	fix_pre	0		78.0	64.0	2.5	/experiments/knapen_aot/videos/S_yt-WrwPgZYBXlA_34.mp4	0.0	470.2914800643921	0.6508069038391113
66	231.3486909866333	response	0	2		64.0	2.5	/experiments/knapen_aot/videos/S_yt-WrwPgZYBXlA_34.mp4	0.0	470.9332859516144	
66	231.35769200325012	movie	1		301.0	64.0	2.5	/experiments/knapen_aot/videos/S_yt-WrwPgZYBXlA_34.mp4	0.0	470.9422869682312	2.507441997528076
66	233.8651340007782	fix_post	2		12.0	64.0	2.5	/experiments/knapen_aot/videos/S_yt-WrwPgZYBXlA_34.mp4	0.0	473.4497289657593	0.10005903244018555
67	233.96519303321838	fix_pre	0		93.0	65.0	2.5	/experiments/knapen_aot/videos/R_S_yt-SgiTZNjCPCo_19.mp4	0.0	473.54978799819946	0.7833170890808105
67	234.73200702667236	response	0	2		65.0	2.5	/experiments/knapen_aot/videos/R_S_yt-SgiTZNjCPCo_19.mp4	0.0	474.31660199165344	
67	234.7485101222992	movie	1		300.0	65.0	2.5	/experiments/knapen_aot/videos/R_S_yt-SgiTZNjCPCo_19.mp4	0.0	474.3331050872803	2.499976873397827
67	237.24848699569702	fix_post	2		12.0	65.0	2.5	/experiments/knapen_aot/videos/R_S_yt-SgiTZNjCPCo_19.mp4	0.0	476.8330819606781	0.09999799728393555
68	237.34848499298096	fix_pre	0		112.0	66.0	2.5	/experiments/knapen_aot/videos/R_S_Pexels_Videos_278654_1.mp4	0.0	476.93307995796204	0.9333019256591797
68	238.26607298851013	response	0	2		66.0	2.5	/experiments/knapen_aot/videos/R_S_Pexels_Videos_278654_1.mp4	0.0	477.8506679534912	
68	238.28178691864014	movie	1		164.0	66.0	2.5	/experiments/knapen_aot/videos/R_S_Pexels_Videos_278654_1.mp4	0.0	477.8663818836212	2.508301019668579
68	240.79008793830872	fix_post	2		12.0	66.0	2.5	/experiments/knapen_aot/videos/R_S_Pexels_Videos_278654_1.mp4	0.0	480.3746829032898	0.10008502006530762
69	240.89017295837402	fix_pre	0		118.0	67.0	2.5	/experiments/knapen_aot/videos/S_yt-BQixB0mumIk_169.mp4	0.0	480.4747679233551	0.9832630157470703
69	241.86527705192566	response	0	2		67.0	2.5	/experiments/knapen_aot/videos/S_yt-BQixB0mumIk_169.mp4	0.0	481.44987201690674	
69	241.8734359741211	movie	1		301.0	67.0	2.5	/experiments/knapen_aot/videos/S_yt-BQixB0mumIk_169.mp4	0.0	481.4580309391022	2.50829815864563
69	244.38173413276672	fix_post	2		12.0	67.0	2.5	/experiments/knapen_aot/videos/S_yt-BQixB0mumIk_169.mp4	0.0	483.9663290977478	0.10005593299865723
70	244.48179006576538	fix_pre	0		56.0	68.0	2.5	blank	1.0	484.06638503074646	0.46660590171813965
70	244.9326570034027	response	0	2		68.0	2.5	blank	1.0	484.5172519683838	
70	244.94839596748352	movie	1		301.0	68.0	2.5	blank	1.0	484.5329909324646	2.5083980560302734
70	247.4567940235138	fix_post	2		12.0	68.0	2.5	blank	1.0	487.0413889884949	0.10001206398010254
71	247.5568060874939	fix_pre	0		145.0	69.0	2.5	/experiments/knapen_aot/videos/S_yt-Xegmd8whqBs_230.mp4	0.0	487.141401052475	1.2083349227905273
71	248.7569329738617	response	0	2		69.0	2.5	/experiments/knapen_aot/videos/S_yt-Xegmd8whqBs_230.mp4	0.0	488.3415279388428	
71	248.76514101028442	movie	1		301.0	69.0	2.5	/experiments/knapen_aot/videos/S_yt-Xegmd8whqBs_230.mp4	0.0	488.3497359752655	2.5083250999450684
71	251.2734661102295	fix_post	2		12.0	69.0	2.5	/experiments/knapen_aot/videos/S_yt-Xegmd8whqBs_230.mp4	0.0	490.85806107521057	0.09999203681945801
72	251.37345814704895	fix_pre	0		110.0	70.0	2.5	/experiments/knapen_aot/videos/S_yt-SgiTZNjCPCo_19.mp4	0.0	490.95805311203003	0.9166369438171387
72	252.27435207366943	response	0	2		70.0	2.5	/experiments/knapen_aot/videos/S_yt-SgiTZNjCPCo_19.mp4	0.0	491.8589470386505	
72	252.2900950908661	movie	1		300.0	70.0	2.5	/experiments/knapen_aot/videos/S_yt-SgiTZNjCPCo_19.mp4	0.0	491.87469005584717	2.5083248615264893
72	254.79841995239258	fix_post	2		12.0	70.0	2.5	/experiments/knapen_aot/videos/S_yt-SgiTZNjCPCo_19.mp4	0.0	494.38301491737366	0.09998011589050293
73	254.89840006828308	fix_pre	0		96.0	71.0	2.5	/experiments/knapen_aot/videos/S_yt-IXMtF998XFY_547.mp4	0.0	494.48299503326416	0.8001060485839844
73	255.69021701812744	response	0	2		71.0	2.5	/experiments/knapen_aot/videos/S_yt-IXMtF998XFY_547.mp4	0.0	495.2748119831085	
73	255.69850611686707	movie	1		301.0	71.0	2.5	/experiments/knapen_aot/videos/S_yt-IXMtF998XFY_547.mp4	0.0	495.28310108184814	2.508297920227051
73	258.2068040370941	fix_post	2		12.0	71.0	2.5	/experiments/knapen_aot/videos/S_yt-IXMtF998XFY_547.mp4	0.0	497.7913990020752	0.0999300479888916
74	258.306734085083	fix_pre	0		91.0	72.0	2.5	/experiments/knapen_aot/videos/S_yt-FhnT_42bV7M_11.mp4	0.0	497.8913290500641	0.7589869499206543
74	259.0568220615387	response	0	2		72.0	2.5	/experiments/knapen_aot/videos/S_yt-FhnT_42bV7M_11.mp4	0.0	498.6414170265198	
74	259.06572103500366	movie	1		301.0	72.0	2.5	/experiments/knapen_aot/videos/S_yt-FhnT_42bV7M_11.mp4	0.0	498.65031599998474	2.507697105407715
74	261.5734181404114	fix_post	2		12.0	72.0	2.5	/experiments/knapen_aot/videos/S_yt-FhnT_42bV7M_11.mp4	0.0	501.15801310539246	0.09993195533752441
75	261.6733500957489	fix_pre	0		86.0	73.0	2.5	/experiments/knapen_aot/videos/R_S_Pz_NXxhQCJc_70.mp4	0.0	501.25794506073	0.7166759967803955
75	262.3818440437317	response	0	2		73.0	2.5	/experiments/knapen_aot/videos/R_S_Pz_NXxhQCJc_70.mp4	0.0	501.96643900871277	
75	262.3900260925293	movie	1		301.0	73.0	2.5	/experiments/knapen_aot/videos/R_S_Pz_NXxhQCJc_70.mp4	0.0	501.9746210575104	2.508328914642334
75	264.89835500717163	fix_post	2		12.0	73.0	2.5	/experiments/knapen_aot/videos/R_S_Pz_NXxhQCJc_70.mp4	0.0	504.4829499721527	0.10005497932434082
76	264.998409986496	fix_pre	0		119.0	74.0	2.5	/experiments/knapen_aot/videos/S_yt-FzMLLmcD1mE_19.mp4	0.0	504.58300495147705	0.9915909767150879
76	265.9818561077118	response	0	2		74.0	2.5	/experiments/knapen_aot/videos/S_yt-FzMLLmcD1mE_19.mp4	0.0	505.56645107269287	
76	265.99000096321106	movie	1		301.0	74.0	2.5	/experiments/knapen_aot/videos/S_yt-FzMLLmcD1mE_19.mp4	0.0	505.57459592819214	2.5083701610565186
76	268.4983711242676	fix_post	2		12.0	74.0	2.5	/experiments/knapen_aot/videos/S_yt-FzMLLmcD1mE_19.mp4	0.0	508.08296608924866	0.09997296333312988
77	268.5983440876007	fix_pre	0		191.0	75.0	2.5	blank	1.0	508.1829390525818	1.5923659801483154
77	270.18182706832886	response	0	2		75.0	2.5	blank	1.0	509.76642203330994	
77	270.190710067749	movie	1		301.0	75.0	2.5	blank	1.0	509.7753050327301	2.507627010345459
77	272.6983370780945	fix_post	2		12.0	75.0	2.5	blank	1.0	512.2829320430756	0.09999203681945801
78	272.79832911491394	fix_pre	0		30.0	76.0	2.5	/experiments/knapen_aot/videos/S_yt-kXarkCFJLeg_46.mp4	0.0	512.382924079895	0.24991083145141602
78	273.0401430130005	response	0	2		76.0	2.5	/experiments/knapen_aot/videos/S_yt-kXarkCFJLeg_46.mp4	0.0	512.6247379779816	
78	273.04823994636536	movie	1		301.0	76.0	2.5	/experiments/knapen_aot/videos/S_yt-kXarkCFJLeg_46.mp4	0.0	512.6328349113464	2.508350133895874
78	275.55659008026123	fix_post	2		12.0	76.0	2.5	/experiments/knapen_aot/videos/S_yt-kXarkCFJLeg_46.mp4	0.0	515.1411850452423	0.10007286071777344
79	275.656662940979	fix_pre	0		128.0	77.0	2.5	/experiments/knapen_aot/videos/R_S_yt-w5lh_rKyKtE_21.mp4	0.0	515.2412579059601	1.0666310787200928
79	276.71515798568726	response	0	2		77.0	2.5	/experiments/knapen_aot/videos/R_S_yt-w5lh_rKyKtE_21.mp4	0.0	516.2997529506683	
79	276.7232940196991	movie	1		299.0	77.0	2.5	/experiments/knapen_aot/videos/R_S_yt-w5lh_rKyKtE_21.mp4	0.0	516.3078889846802	2.5083301067352295
79	279.2316241264343	fix_post	2		12.0	77.0	2.5	/experiments/knapen_aot/videos/R_S_yt-w5lh_rKyKtE_21.mp4	0.0	518.8162190914154	0.10001087188720703
80	279.33163499832153	fix_pre	0		131.0	78.0	2.5	/experiments/knapen_aot/videos/R_S_yt-FsylDeYfcxU_24.mp4	0.0	518.9162299633026	1.0918021202087402
80	280.4150550365448	response	0	2		78.0	2.5	/experiments/knapen_aot/videos/R_S_yt-FsylDeYfcxU_24.mp4	0.0	519.9996500015259	
80	280.4234371185303	movie	1		301.0	78.0	2.5	/experiments/knapen_aot/videos/R_S_yt-FsylDeYfcxU_24.mp4	0.0	520.0080320835114	2.5081419944763184
80	282.9315791130066	fix_post	2		12.0	78.0	2.5	/experiments/knapen_aot/videos/R_S_yt-FsylDeYfcxU_24.mp4	0.0	522.5161740779877	0.0999758243560791
81	283.03155493736267	fix_pre	0		130.0	79.0	2.5	/experiments/knapen_aot/videos/R_S_yt-9t5-3Qe_t9A_591.mp4	0.0	522.6161499023438	1.0833511352539062
81	284.10677909851074	response	0	2		79.0	2.5	/experiments/knapen_aot/videos/R_S_yt-9t5-3Qe_t9A_591.mp4	0.0	523.6913740634918	
81	284.1149060726166	movie	1		301.0	79.0	2.5	/experiments/knapen_aot/videos/R_S_yt-9t5-3Qe_t9A_591.mp4	0.0	523.6995010375977	2.5083999633789062
81	286.6233060359955	fix_post	2		12.0	79.0	2.5	/experiments/knapen_aot/videos/R_S_yt-9t5-3Qe_t9A_591.mp4	0.0	526.2079010009766	0.09996700286865234
82	286.72327303886414	fix_pre	0		136.0	80.0	2.5	/experiments/knapen_aot/videos/S_G010_C026_UHD_SDR_v02_2K_AVC.mp4	0.0	526.3078680038452	1.1338400840759277
82	287.8483691215515	response	0	2		80.0	2.5	/experiments/knapen_aot/videos/S_G010_C026_UHD_SDR_v02_2K_AVC.mp4	0.0	527.4329640865326	
82	287.85711312294006	movie	1		168.0	80.0	2.5	/experiments/knapen_aot/videos/S_G010_C026_UHD_SDR_v02_2K_AVC.mp4	0.0	527.4417080879211	2.5078330039978027
82	290.36494612693787	fix_post	2		12.0	80.0	2.5	/experiments/knapen_aot/videos/S_G010_C026_UHD_SDR_v02_2K_AVC.mp4	0.0	529.949541091919	0.09996294975280762
83	290.4649090766907	fix_pre	0		105.0	81.0	2.5	/experiments/knapen_aot/videos/R_S_yt-YOLaQ53ooks_195.mp4	0.0	530.0495040416718	0.8750860691070557
83	291.3317439556122	response	0	2		81.0	2.5	/experiments/knapen_aot/videos/R_S_yt-YOLaQ53ooks_195.mp4	0.0	530.9163389205933	
83	291.33999514579773	movie	1		301.0	81.0	2.5	/experiments/knapen_aot/videos/R_S_yt-YOLaQ53ooks_195.mp4	0.0	530.9245901107788	2.5082108974456787
83	293.8482060432434	fix_post	2		12.0	81.0	2.5	/experiments/knapen_aot/videos/R_S_yt-YOLaQ53ooks_195.mp4	0.0	533.4328010082245	0.10002398490905762
84	293.94823002815247	fix_pre	0		109.0	82.0	2.5	/experiments/knapen_aot/videos/S_ILSVRC2015_train_00601000.mp4	0.0	533.5328249931335	0.9088249206542969
84	294.848356962204	response	0	2		82.0	2.5	/experiments/knapen_aot/videos/S_ILSVRC2015_train_00601000.mp4	0.0	534.4329519271851	
84	294.85705494880676	movie	1		301.0	82.0	2.5	/experiments/knapen_aot/videos/S_ILSVRC2015_train_00601000.mp4	0.0	534.4416499137878	2.5079150199890137
84	297.3649699687958	fix_post	2		12.0	82.0	2.5	/experiments/knapen_aot/videos/S_ILSVRC2015_train_00601000.mp4	0.0	536.9495649337769	0.0999600887298584
85	297.46493005752563	fix_pre	0		102.0	83.0	2.5	blank	1.0	537.0495250225067	0.8505430221557617
85	298.29931592941284	response	0	2		83.0	2.5	blank	1.0	537.8839108943939	
85	298.3154730796814	movie	1		301.0	83.0	2.5	blank	1.0	537.9000680446625	2.507838010787964
85	300.82331109046936	fix_post	2		12.0	83.0	2.5	blank	1.0	540.4079060554504	0.10009384155273438
87	300.9234049320221	stim	0		585.0					540.5079998970032	4.874726057052612
87	305.7911229133606	response	0	space						545.3757178783417	
