trial_nr	onset	event_type	phase	response	nr_frames	movie_index	movie_duration	movie_file	blank	onset_abs	duration
0	0.12610197067260742	stim	0		70.0					52.85094690322876	0.5821809768676758
0	0.6992130279541016	response	0	space						53.424057960510254	
1	0.7082829475402832	stim	0		121.0					53.433127880096436	1.007446050643921
1	1.307516098022461	response	0	space						54.03236103057861	
1	1.624122142791748	response	0	space						54.3489670753479	
1	1.715728998184204	stim	1		120.0					54.440573930740356	0.9998271465301514
1	1.9905920028686523	response	1	space						54.715436935424805	
1	2.423861026763916	response	1	space						55.14870595932007	
2	2.7155561447143555	fix_pre	0		14.0	0.0	2.5	/experiments/knapen_aot/videos/S_yt-W4Shvmb1JYs_258.mp4	0.0	55.44040107727051	0.11743497848510742
2	2.8239359855651855	response	0	space		0.0	2.5	/experiments/knapen_aot/videos/S_yt-W4Shvmb1JYs_258.mp4	0.0	55.54878091812134	
2	2.832991123199463	movie	1		301.0	0.0	2.5	/experiments/knapen_aot/videos/S_yt-W4Shvmb1JYs_258.mp4	0.0	55.557836055755615	2.5073699951171875
2	5.34036111831665	fix_post	2		12.0	0.0	2.5	/experiments/knapen_aot/videos/S_yt-W4Shvmb1JYs_258.mp4	0.0	58.0652060508728	0.10003304481506348
3	5.440394163131714	fix_pre	0		75.0	1.0	2.5	/experiments/knapen_aot/videos/R_S_yt-4r-oovk9JWg_85.mp4	0.0	58.165239095687866	0.6250858306884766
3	6.059193134307861	response	0	2		1.0	2.5	/experiments/knapen_aot/videos/R_S_yt-4r-oovk9JWg_85.mp4	0.0	58.784038066864014	
3	6.06547999382019	movie	1		301.0	1.0	2.5	/experiments/knapen_aot/videos/R_S_yt-4r-oovk9JWg_85.mp4	0.0	58.79032492637634	2.5082290172576904
3	8.57370901107788	fix_post	2		12.0	1.0	2.5	/experiments/knapen_aot/videos/R_S_yt-4r-oovk9JWg_85.mp4	0.0	61.29855394363403	0.0999460220336914
4	8.673655033111572	fix_pre	0		57.0	2.0	2.5	/experiments/knapen_aot/videos/R_S_ILSVRC2015_train_00323000.mp4	0.0	61.398499965667725	0.47501707077026367
4	9.140536069869995	response	0	2		2.0	2.5	/experiments/knapen_aot/videos/R_S_ILSVRC2015_train_00323000.mp4	0.0	61.86538100242615	
4	9.148672103881836	movie	1		301.0	2.0	2.5	/experiments/knapen_aot/videos/R_S_ILSVRC2015_train_00323000.mp4	0.0	61.87351703643799	2.508314847946167
4	11.656986951828003	fix_post	2		12.0	2.0	2.5	/experiments/knapen_aot/videos/R_S_ILSVRC2015_train_00323000.mp4	0.0	64.38183188438416	0.10004711151123047
5	11.757034063339233	fix_pre	0		49.0	3.0	2.5	/experiments/knapen_aot/videos/R_S_yt-Rqwi-Fk9IJQ_114.mp4	0.0	64.48187899589539	0.4091479778289795
5	12.157190084457397	response	0	2		3.0	2.5	/experiments/knapen_aot/videos/R_S_yt-Rqwi-Fk9IJQ_114.mp4	0.0	64.88203501701355	
5	12.166182041168213	movie	1		301.0	3.0	2.5	/experiments/knapen_aot/videos/R_S_yt-Rqwi-Fk9IJQ_114.mp4	0.0	64.89102697372437	2.507460117340088
5	14.6736421585083	fix_post	2		12.0	3.0	2.5	/experiments/knapen_aot/videos/R_S_yt-Rqwi-Fk9IJQ_114.mp4	0.0	67.39848709106445	0.09999990463256836
6	14.77364206314087	fix_pre	0		29.0	4.0	2.5	/experiments/knapen_aot/videos/S_ILSVRC2015_train_00303008.mp4	0.0	67.49848699569702	0.24168610572814941
6	15.007136106491089	response	0	2		4.0	2.5	/experiments/knapen_aot/videos/S_ILSVRC2015_train_00303008.mp4	0.0	67.73198103904724	
6	15.015328168869019	movie	1		301.0	4.0	2.5	/experiments/knapen_aot/videos/S_ILSVRC2015_train_00303008.mp4	0.0	67.74017310142517	2.5084128379821777
6	17.523741006851196	fix_post	2		12.0	4.0	2.5	/experiments/knapen_aot/videos/S_ILSVRC2015_train_00303008.mp4	0.0	70.24858593940735	0.09993600845336914
7	17.623677015304565	fix_pre	0		20.0	5.0	2.5	/experiments/knapen_aot/videos/S_yt-GyMWMiWvuiA_237.mp4	0.0	70.34852194786072	0.16745400428771973
7	17.782114028930664	response	0	2		5.0	2.5	/experiments/knapen_aot/videos/S_yt-GyMWMiWvuiA_237.mp4	0.0	70.50695896148682	
7	17.791131019592285	movie	1		301.0	5.0	2.5	/experiments/knapen_aot/videos/S_yt-GyMWMiWvuiA_237.mp4	0.0	70.51597595214844	2.5075631141662598
7	20.298694133758545	fix_post	2		12.0	5.0	2.5	/experiments/knapen_aot/videos/S_yt-GyMWMiWvuiA_237.mp4	0.0	73.0235390663147	0.0999908447265625
8	20.398684978485107	fix_pre	0		37.0	6.0	2.5	blank	1.0	73.12352991104126	0.309110164642334
8	20.698864936828613	response	0	2		6.0	2.5	blank	1.0	73.42370986938477	
8	20.70779514312744	movie	1		301.0	6.0	2.5	blank	1.0	73.4326400756836	2.5075559616088867
8	23.215351104736328	fix_post	2		12.0	6.0	2.5	blank	1.0	75.94019603729248	0.09999203681945801
9	23.315343141555786	fix_pre	0		25.0	7.0	2.5	/experiments/knapen_aot/videos/R_S_ILSVRC2015_train_00324001.mp4	0.0	76.04018807411194	0.20821595191955566
9	23.515428066253662	response	0	2		7.0	2.5	/experiments/knapen_aot/videos/R_S_ILSVRC2015_train_00324001.mp4	0.0	76.24027299880981	
9	23.523559093475342	movie	1		301.0	7.0	2.5	/experiments/knapen_aot/videos/R_S_ILSVRC2015_train_00324001.mp4	0.0	76.2484040260315	2.5084168910980225
9	26.031975984573364	fix_post	2		12.0	7.0	2.5	/experiments/knapen_aot/videos/R_S_ILSVRC2015_train_00324001.mp4	0.0	78.75682091712952	0.10004496574401855
10	26.132020950317383	fix_pre	0		17.0	8.0	2.5	/experiments/knapen_aot/videos/S_yt-Id-f63kUHsE_20.mp4	0.0	78.85686588287354	0.14164113998413086
10	26.265536069869995	response	0	2		8.0	2.5	/experiments/knapen_aot/videos/S_yt-Id-f63kUHsE_20.mp4	0.0	78.99038100242615	
10	26.273662090301514	movie	1		301.0	8.0	2.5	/experiments/knapen_aot/videos/S_yt-Id-f63kUHsE_20.mp4	0.0	78.99850702285767	2.5083420276641846
10	28.7820041179657	fix_post	2		12.0	8.0	2.5	/experiments/knapen_aot/videos/S_yt-Id-f63kUHsE_20.mp4	0.0	81.50684905052185	0.10005688667297363
11	28.882061004638672	fix_pre	0		69.0	9.0	2.5	/experiments/knapen_aot/videos/S_yt-sIXdPhfS67U_203.mp4	0.0	81.60690593719482	0.5755870342254639
11	29.448791027069092	response	0	2		9.0	2.5	/experiments/knapen_aot/videos/S_yt-sIXdPhfS67U_203.mp4	0.0	82.17363595962524	
11	29.457648038864136	movie	1		301.0	9.0	2.5	/experiments/knapen_aot/videos/S_yt-sIXdPhfS67U_203.mp4	0.0	82.18249297142029	2.5076589584350586
11	31.965306997299194	fix_post	2		12.0	9.0	2.5	/experiments/knapen_aot/videos/S_yt-sIXdPhfS67U_203.mp4	0.0	84.69015192985535	0.09995913505554199
12	32.065266132354736	fix_pre	0		46.0	10.0	2.5	/experiments/knapen_aot/videos/R_S_yt-yAtHuDsadu8_102.mp4	0.0	84.79011106491089	0.3833158016204834
12	32.44040608406067	response	0	2		10.0	2.5	/experiments/knapen_aot/videos/R_S_yt-yAtHuDsadu8_102.mp4	0.0	85.16525101661682	
12	32.44858193397522	movie	1		301.0	10.0	2.5	/experiments/knapen_aot/videos/R_S_yt-yAtHuDsadu8_102.mp4	0.0	85.17342686653137	2.5083651542663574
12	34.95694708824158	fix_post	2		12.0	10.0	2.5	/experiments/knapen_aot/videos/R_S_yt-yAtHuDsadu8_102.mp4	0.0	87.68179202079773	0.10002303123474121
13	35.05697011947632	fix_pre	0		50.0	11.0	2.5	/experiments/knapen_aot/videos/R_S_yt-a9bnYU0Gnxg_59.mp4	0.0	87.78181505203247	0.4166100025177002
13	35.46534514427185	response	0	2		11.0	2.5	/experiments/knapen_aot/videos/R_S_yt-a9bnYU0Gnxg_59.mp4	0.0	88.190190076828	
13	35.47358012199402	movie	1		301.0	11.0	2.5	/experiments/knapen_aot/videos/R_S_yt-a9bnYU0Gnxg_59.mp4	0.0	88.19842505455017	2.5083398818969727
13	37.98192000389099	fix_post	2		12.0	11.0	2.5	/experiments/knapen_aot/videos/R_S_yt-a9bnYU0Gnxg_59.mp4	0.0	90.70676493644714	0.10010099411010742
14	38.0820209980011	fix_pre	0		25.0	12.0	2.5	/experiments/knapen_aot/videos/S_flickr-hapanine-31880782705_22.mp4	0.0	90.80686593055725	0.2088789939880371
14	38.282037019729614	response	0	2		12.0	2.5	/experiments/knapen_aot/videos/S_flickr-hapanine-31880782705_22.mp4	0.0	91.00688195228577	
14	38.290899991989136	movie	1		163.0	12.0	2.5	/experiments/knapen_aot/videos/S_flickr-hapanine-31880782705_22.mp4	0.0	91.01574492454529	2.507573127746582
14	40.79847311973572	fix_post	2		12.0	12.0	2.5	/experiments/knapen_aot/videos/S_flickr-hapanine-31880782705_22.mp4	0.0	93.52331805229187	0.10006284713745117
15	40.89853596687317	fix_pre	0		19.0	13.0	2.5	blank	1.0	93.62338089942932	0.15829801559448242
15	41.048702001571655	response	0	2		13.0	2.5	blank	1.0	93.77354693412781	
15	41.05683398246765	movie	1		301.0	13.0	2.5	blank	1.0	93.7816789150238	2.5084240436553955
15	43.56525802612305	fix_post	2		12.0	13.0	2.5	blank	1.0	96.2901029586792	0.09999203681945801
16	43.665250062942505	fix_pre	0		18.0	14.0	2.5	/experiments/knapen_aot/videos/S_yt-4x2eUikn9rw_212.mp4	0.0	96.39009499549866	0.14993691444396973
16	43.806955099105835	response	0	2		14.0	2.5	/experiments/knapen_aot/videos/S_yt-4x2eUikn9rw_212.mp4	0.0	96.53180003166199	
16	43.815186977386475	movie	1		301.0	14.0	2.5	/experiments/knapen_aot/videos/S_yt-4x2eUikn9rw_212.mp4	0.0	96.54003190994263	2.5083470344543457
16	46.32353401184082	fix_post	2		12.0	14.0	2.5	/experiments/knapen_aot/videos/S_yt-4x2eUikn9rw_212.mp4	0.0	99.04837894439697	0.09990215301513672
17	46.42343616485596	fix_pre	0		52.0	15.0	2.5	/experiments/knapen_aot/videos/S_yt-hQ5pge893b4_6.mp4	0.0	99.14828109741211	0.4333968162536621
17	46.84869408607483	response	0	2		15.0	2.5	/experiments/knapen_aot/videos/S_yt-hQ5pge893b4_6.mp4	0.0	99.57353901863098	
17	46.85683298110962	movie	1		301.0	15.0	2.5	/experiments/knapen_aot/videos/S_yt-hQ5pge893b4_6.mp4	0.0	99.58167791366577	2.5084121227264404
17	49.36524510383606	fix_post	2		12.0	15.0	2.5	/experiments/knapen_aot/videos/S_yt-hQ5pge893b4_6.mp4	0.0	102.09009003639221	0.09997200965881348
17	49.41617798805237	response	2	2		15.0	2.5	/experiments/knapen_aot/videos/S_yt-hQ5pge893b4_6.mp4	0.0	102.14102292060852	
18	49.46521711349487	fix_pre	0		93.0	16.0	2.5	/experiments/knapen_aot/videos/S_yt-a9bnYU0Gnxg_59.mp4	0.0	102.19006204605103	0.7749898433685303
18	50.231894969940186	response	0	2		16.0	2.5	/experiments/knapen_aot/videos/S_yt-a9bnYU0Gnxg_59.mp4	0.0	102.95673990249634	
18	50.2402069568634	movie	1		301.0	16.0	2.5	/experiments/knapen_aot/videos/S_yt-a9bnYU0Gnxg_59.mp4	0.0	102.96505188941956	2.508369207382202
18	52.748576164245605	fix_post	2		12.0	16.0	2.5	/experiments/knapen_aot/videos/S_yt-a9bnYU0Gnxg_59.mp4	0.0	105.47342109680176	0.09986591339111328
19	52.84844207763672	fix_pre	0		31.0	17.0	2.5	/experiments/knapen_aot/videos/R_S_comp_A103_C002_0205DG_v12_SDR_FINAL_20180706_SDR_2K_AVC.mp4	0.0	105.57328701019287	0.25830602645874023
19	53.09866213798523	response	0	2		17.0	2.5	/experiments/knapen_aot/videos/R_S_comp_A103_C002_0205DG_v12_SDR_FINAL_20180706_SDR_2K_AVC.mp4	0.0	105.82350707054138	
19	53.10674810409546	movie	1		167.0	17.0	2.5	/experiments/knapen_aot/videos/R_S_comp_A103_C002_0205DG_v12_SDR_FINAL_20180706_SDR_2K_AVC.mp4	0.0	105.83159303665161	2.5085110664367676
19	55.61525917053223	fix_post	2		12.0	17.0	2.5	/experiments/knapen_aot/videos/R_S_comp_A103_C002_0205DG_v12_SDR_FINAL_20180706_SDR_2K_AVC.mp4	0.0	108.34010410308838	0.09994292259216309
20	55.71520209312439	fix_pre	0		2.0	18.0	2.5	/experiments/knapen_aot/videos/S_b5-3.mp4	0.0	108.44004702568054	0.016649961471557617
20	55.72366714477539	response	0	2		18.0	2.5	/experiments/knapen_aot/videos/S_b5-3.mp4	0.0	108.44851207733154	
20	55.73185205459595	movie	1		163.0	18.0	2.5	/experiments/knapen_aot/videos/S_b5-3.mp4	0.0	108.4566969871521	2.508315086364746
20	58.24016714096069	fix_post	2		12.0	18.0	2.5	/experiments/knapen_aot/videos/S_b5-3.mp4	0.0	110.96501207351685	0.10000181198120117
21	58.340168952941895	fix_pre	0		69.0	19.0	2.5	blank	1.0	111.06501388549805	0.5755631923675537
21	58.9069709777832	response	0	2		19.0	2.5	blank	1.0	111.63181591033936	
21	58.91573214530945	movie	1		301.0	19.0	2.5	blank	1.0	111.6405770778656	2.5076498985290527
21	61.4233820438385	fix_post	2		12.0	19.0	2.5	blank	1.0	114.14822697639465	0.10005402565002441
22	61.523436069488525	fix_pre	0		74.0	20.0	2.5	/experiments/knapen_aot/videos/S_ILSVRC2015_test_00001002.mp4	0.0	114.24828100204468	0.6166858673095703
22	62.131935119628906	response	0	2		20.0	2.5	/experiments/knapen_aot/videos/S_ILSVRC2015_test_00001002.mp4	0.0	114.85678005218506	
22	62.140121936798096	movie	1		301.0	20.0	2.5	/experiments/knapen_aot/videos/S_ILSVRC2015_test_00001002.mp4	0.0	114.86496686935425	2.508362054824829
22	64.64848399162292	fix_post	2		12.0	20.0	2.5	/experiments/knapen_aot/videos/S_ILSVRC2015_test_00001002.mp4	0.0	117.37332892417908	0.10004115104675293
23	64.74852514266968	fix_pre	0		26.0	21.0	2.5	/experiments/knapen_aot/videos/R_S_yt-O_6CyqHeJig_132.mp4	0.0	117.47337007522583	0.21656084060668945
23	64.95690202713013	response	0	2		21.0	2.5	/experiments/knapen_aot/videos/R_S_yt-O_6CyqHeJig_132.mp4	0.0	117.68174695968628	
23	64.96508598327637	movie	1		301.0	21.0	2.5	/experiments/knapen_aot/videos/R_S_yt-O_6CyqHeJig_132.mp4	0.0	117.68993091583252	2.508397102355957
23	67.47348308563232	fix_post	2		12.0	21.0	2.5	/experiments/knapen_aot/videos/R_S_yt-O_6CyqHeJig_132.mp4	0.0	120.19832801818848	0.10004687309265137
24	67.57352995872498	fix_pre	0		16.0	22.0	2.5	/experiments/knapen_aot/videos/R_S_yt-kYMffy4hTMo_107.mp4	0.0	120.29837489128113	0.13379812240600586
24	67.698646068573	response	0	2		22.0	2.5	/experiments/knapen_aot/videos/R_S_yt-kYMffy4hTMo_107.mp4	0.0	120.42349100112915	
24	67.70732808113098	movie	1		300.0	22.0	2.5	/experiments/knapen_aot/videos/R_S_yt-kYMffy4hTMo_107.mp4	0.0	120.43217301368713	2.507828950881958
24	70.21515703201294	fix_post	2		12.0	22.0	2.5	/experiments/knapen_aot/videos/R_S_yt-kYMffy4hTMo_107.mp4	0.0	122.94000196456909	0.0999901294708252
25	70.31514716148376	fix_pre	0		67.0	23.0	2.5	/experiments/knapen_aot/videos/S_ILSVRC2015_train_00743000.mp4	0.0	123.03999209403992	0.5588200092315674
25	70.8652720451355	response	0	2		23.0	2.5	/experiments/knapen_aot/videos/S_ILSVRC2015_train_00743000.mp4	0.0	123.59011697769165	
25	70.87396717071533	movie	1		301.0	23.0	2.5	/experiments/knapen_aot/videos/S_ILSVRC2015_train_00743000.mp4	0.0	123.59881210327148	2.507938861846924
25	73.38190603256226	fix_post	2		12.0	23.0	2.5	/experiments/knapen_aot/videos/S_ILSVRC2015_train_00743000.mp4	0.0	126.10675096511841	0.09984493255615234
26	73.48175096511841	fix_pre	0		103.0	24.0	2.5	/experiments/knapen_aot/videos/S_yt-mmvWYAttrIw_2.mp4	0.0	126.20659589767456	0.8582460880279541
26	74.33188009262085	response	0	2		24.0	2.5	/experiments/knapen_aot/videos/S_yt-mmvWYAttrIw_2.mp4	0.0	127.056725025177	
26	74.33999705314636	movie	1		301.0	24.0	2.5	/experiments/knapen_aot/videos/S_yt-mmvWYAttrIw_2.mp4	0.0	127.06484198570251	2.5084149837493896
26	76.84841203689575	fix_post	2		12.0	24.0	2.5	/experiments/knapen_aot/videos/S_yt-mmvWYAttrIw_2.mp4	0.0	129.5732569694519	0.10003089904785156
27	76.9484429359436	fix_pre	0		36.0	25.0	2.5	/experiments/knapen_aot/videos/R_S_yt-9EnchawJ3pA_90.mp4	0.0	129.67328786849976	0.3004601001739502
27	77.24024796485901	response	0	2		25.0	2.5	/experiments/knapen_aot/videos/R_S_yt-9EnchawJ3pA_90.mp4	0.0	129.96509289741516	
27	77.24890303611755	movie	1		301.0	25.0	2.5	/experiments/knapen_aot/videos/R_S_yt-9EnchawJ3pA_90.mp4	0.0	129.9737479686737	2.5078749656677246
27	79.75677800178528	fix_post	2		12.0	25.0	2.5	/experiments/knapen_aot/videos/R_S_yt-9EnchawJ3pA_90.mp4	0.0	132.48162293434143	0.10001516342163086
28	79.85679316520691	fix_pre	0		37.0	26.0	2.5	blank	1.0	132.58163809776306	0.308682918548584
28	80.15683197975159	response	0	2		26.0	2.5	blank	1.0	132.88167691230774	
28	80.1654760837555	movie	1		301.0	26.0	2.5	blank	1.0	132.89032101631165	2.507896900177002
28	82.6733729839325	fix_post	2		12.0	26.0	2.5	blank	1.0	135.39821791648865	0.10002303123474121
29	82.77339601516724	fix_pre	0		24.0	27.0	2.5	/experiments/knapen_aot/videos/S_yt-Pinnv3-3GFU_452.mp4	0.0	135.4982409477234	0.19999194145202637
29	82.96520709991455	response	0	2		27.0	2.5	/experiments/knapen_aot/videos/S_yt-Pinnv3-3GFU_452.mp4	0.0	135.6900520324707	
29	82.97338795661926	movie	1		301.0	27.0	2.5	/experiments/knapen_aot/videos/S_yt-Pinnv3-3GFU_452.mp4	0.0	135.69823288917542	2.5083200931549072
29	85.48170804977417	fix_post	2		12.0	27.0	2.5	/experiments/knapen_aot/videos/S_yt-Pinnv3-3GFU_452.mp4	0.0	138.20655298233032	0.10047197341918945
30	85.58218002319336	fix_pre	0		43.0	28.0	2.5	/experiments/knapen_aot/videos/S_yt-c6kLumgTX54_7.mp4	0.0	138.3070249557495	0.3578159809112549
30	85.93182516098022	response	0	2		28.0	2.5	/experiments/knapen_aot/videos/S_yt-c6kLumgTX54_7.mp4	0.0	138.65667009353638	
30	85.93999600410461	movie	1		299.0	28.0	2.5	/experiments/knapen_aot/videos/S_yt-c6kLumgTX54_7.mp4	0.0	138.66484093666077	2.50832200050354
30	88.44831800460815	fix_post	2		12.0	28.0	2.5	/experiments/knapen_aot/videos/S_yt-c6kLumgTX54_7.mp4	0.0	141.1731629371643	0.10001707077026367
31	88.54833507537842	fix_pre	0		59.0	29.0	2.5	/experiments/knapen_aot/videos/S_yt-Y7-umyL036c_507.mp4	0.0	141.27318000793457	0.4920790195465088
31	89.03186202049255	response	0	2		29.0	2.5	/experiments/knapen_aot/videos/S_yt-Y7-umyL036c_507.mp4	0.0	141.7567069530487	
31	89.04041409492493	movie	1		301.0	29.0	2.5	/experiments/knapen_aot/videos/S_yt-Y7-umyL036c_507.mp4	0.0	141.76525902748108	2.5079710483551025
31	91.54838514328003	fix_post	2		12.0	29.0	2.5	/experiments/knapen_aot/videos/S_yt-Y7-umyL036c_507.mp4	0.0	144.27323007583618	0.10003900527954102
32	91.64842414855957	fix_pre	0		39.0	30.0	2.5	/experiments/knapen_aot/videos/R_S_b4-3.mp4	0.0	144.37326908111572	0.32494187355041504
32	91.96516299247742	response	0	2		30.0	2.5	/experiments/knapen_aot/videos/R_S_b4-3.mp4	0.0	144.69000792503357	
32	91.97336602210999	movie	1		161.0	30.0	2.5	/experiments/knapen_aot/videos/R_S_b4-3.mp4	0.0	144.69821095466614	2.5082919597625732
32	94.48165798187256	fix_post	2		12.0	30.0	2.5	/experiments/knapen_aot/videos/R_S_b4-3.mp4	0.0	147.2065029144287	0.1003880500793457
33	94.5820460319519	fix_pre	0		35.0	31.0	2.5	/experiments/knapen_aot/videos/S_yt-FsylDeYfcxU_24.mp4	0.0	147.30689096450806	0.29168009757995605
33	94.86513900756836	response	0	2		31.0	2.5	/experiments/knapen_aot/videos/S_yt-FsylDeYfcxU_24.mp4	0.0	147.5899839401245	
33	94.87372612953186	movie	1		301.0	31.0	2.5	/experiments/knapen_aot/videos/S_yt-FsylDeYfcxU_24.mp4	0.0	147.598571062088	2.507874011993408
33	97.38160014152527	fix_post	2		12.0	31.0	2.5	/experiments/knapen_aot/videos/S_yt-FsylDeYfcxU_24.mp4	0.0	150.10644507408142	0.09999585151672363
34	97.48159599304199	fix_pre	0		30.0	32.0	2.5	/experiments/knapen_aot/videos/R_S_yt-8RmEimCI80g_35.mp4	0.0	150.20644092559814	0.24998998641967773
34	97.72347402572632	response	0	2		32.0	2.5	/experiments/knapen_aot/videos/R_S_yt-8RmEimCI80g_35.mp4	0.0	150.44831895828247	
34	97.73158597946167	movie	1		301.0	32.0	2.5	/experiments/knapen_aot/videos/R_S_yt-8RmEimCI80g_35.mp4	0.0	150.45643091201782	2.5084030628204346
34	100.08208513259888	response	1	2		32.0	2.5	/experiments/knapen_aot/videos/R_S_yt-8RmEimCI80g_35.mp4	0.0	152.80693006515503	
34	100.2399890422821	fix_post	2		12.0	32.0	2.5	/experiments/knapen_aot/videos/R_S_yt-8RmEimCI80g_35.mp4	0.0	152.96483397483826	0.09998202323913574
35	100.33997106552124	fix_pre	0		47.0	33.0	2.5	/experiments/knapen_aot/videos/R_S_yt-6vkiJedss6g_5.mp4	0.0	153.0648159980774	0.39160990715026855
35	100.72340106964111	response	0	2		33.0	2.5	/experiments/knapen_aot/videos/R_S_yt-6vkiJedss6g_5.mp4	0.0	153.44824600219727	
35	100.73158097267151	movie	1		301.0	33.0	2.5	/experiments/knapen_aot/videos/R_S_yt-6vkiJedss6g_5.mp4	0.0	153.45642590522766	2.5083770751953125
35	103.23995804786682	fix_post	2		12.0	33.0	2.5	/experiments/knapen_aot/videos/R_S_yt-6vkiJedss6g_5.mp4	0.0	155.96480298042297	0.09994792938232422
36	103.33990597724915	fix_pre	0		37.0	34.0	2.5	blank	1.0	156.0647509098053	0.30828404426574707
36	103.6401219367981	response	0	2		34.0	2.5	blank	1.0	156.36496686935425	
36	103.64819002151489	movie	1		301.0	34.0	2.5	blank	1.0	156.37303495407104	2.5083911418914795
36	106.15658116340637	fix_post	2		12.0	34.0	2.5	blank	1.0	158.88142609596252	0.09997797012329102
37	106.25655913352966	fix_pre	0		83.0	35.0	2.5	/experiments/knapen_aot/videos/S_ILSVRC2015_train_00689000.mp4	0.0	158.98140406608582	0.6917109489440918
37	106.93255710601807	response	0	2		35.0	2.5	/experiments/knapen_aot/videos/S_ILSVRC2015_train_00689000.mp4	0.0	159.65740203857422	
37	106.94827008247375	movie	1		300.0	35.0	2.5	/experiments/knapen_aot/videos/S_ILSVRC2015_train_00689000.mp4	0.0	159.6731150150299	2.5082240104675293
37	109.45649409294128	fix_post	2		12.0	35.0	2.5	/experiments/knapen_aot/videos/S_ILSVRC2015_train_00689000.mp4	0.0	162.18133902549744	0.10004806518554688
38	109.55654215812683	fix_pre	0		125.0	36.0	2.5	/experiments/knapen_aot/videos/R_S_yt-4x2eUikn9rw_212.mp4	0.0	162.28138709068298	1.0416619777679443
38	110.59002614021301	response	0	2		36.0	2.5	/experiments/knapen_aot/videos/R_S_yt-4x2eUikn9rw_212.mp4	0.0	163.31487107276917	
38	110.59820413589478	movie	1		300.0	36.0	2.5	/experiments/knapen_aot/videos/R_S_yt-4x2eUikn9rw_212.mp4	0.0	163.32304906845093	2.5083329677581787
38	113.10653710365295	fix_post	2		12.0	36.0	2.5	/experiments/knapen_aot/videos/R_S_yt-4x2eUikn9rw_212.mp4	0.0	165.8313820362091	0.1004788875579834
39	113.20701599121094	fix_pre	0		42.0	37.0	2.5	/experiments/knapen_aot/videos/R_S_yt-RNPFV7lgAvE_362.mp4	0.0	165.9318609237671	0.34946298599243164
39	113.54076194763184	response	0	2		37.0	2.5	/experiments/knapen_aot/videos/R_S_yt-RNPFV7lgAvE_362.mp4	0.0	166.265606880188	
39	113.55647897720337	movie	1		301.0	37.0	2.5	/experiments/knapen_aot/videos/R_S_yt-RNPFV7lgAvE_362.mp4	0.0	166.28132390975952	2.5083560943603516
39	116.06483507156372	fix_post	2		12.0	37.0	2.5	/experiments/knapen_aot/videos/R_S_yt-RNPFV7lgAvE_362.mp4	0.0	168.78968000411987	0.10008001327514648
40	116.16491508483887	fix_pre	0		77.0	38.0	2.5	/experiments/knapen_aot/videos/R_S_yt-qsyDLtXcyHc_8.mp4	0.0	168.88976001739502	0.6416468620300293
40	116.79836010932922	response	0	2		38.0	2.5	/experiments/knapen_aot/videos/R_S_yt-qsyDLtXcyHc_8.mp4	0.0	169.52320504188538	
40	116.8065619468689	movie	1		301.0	38.0	2.5	/experiments/knapen_aot/videos/R_S_yt-qsyDLtXcyHc_8.mp4	0.0	169.53140687942505	2.5083460807800293
40	119.31490802764893	fix_post	2		12.0	38.0	2.5	/experiments/knapen_aot/videos/R_S_yt-qsyDLtXcyHc_8.mp4	0.0	172.03975296020508	0.10018396377563477
41	119.41509199142456	fix_pre	0		44.0	39.0	2.5	/experiments/knapen_aot/videos/R_S_yt-zQnaVApUPH0_14.mp4	0.0	172.1399369239807	0.3663511276245117
41	119.77334713935852	response	0	2		39.0	2.5	/experiments/knapen_aot/videos/R_S_yt-zQnaVApUPH0_14.mp4	0.0	172.49819207191467	
41	119.78144311904907	movie	1		301.0	39.0	2.5	/experiments/knapen_aot/videos/R_S_yt-zQnaVApUPH0_14.mp4	0.0	172.50628805160522	2.508713960647583
41	122.29015707969666	fix_post	2		12.0	39.0	2.5	/experiments/knapen_aot/videos/R_S_yt-zQnaVApUPH0_14.mp4	0.0	175.0150020122528	0.09974098205566406
42	122.38989806175232	fix_pre	0		93.0	40.0	2.5	blank	1.0	175.11474299430847	0.7751820087432861
42	123.15666007995605	response	0	2		40.0	2.5	blank	1.0	175.8815050125122	
42	123.1650800704956	movie	1		301.0	40.0	2.5	blank	1.0	175.88992500305176	2.5081279277801514
42	125.67320799827576	fix_post	2		12.0	40.0	2.5	blank	1.0	178.3980529308319	0.09997797012329102
43	125.77318596839905	fix_pre	0		24.0	41.0	2.5	/experiments/knapen_aot/videos/S_video-11.mp4	0.0	178.4980309009552	0.20003509521484375
43	125.96494603157043	response	0	2		41.0	2.5	/experiments/knapen_aot/videos/S_video-11.mp4	0.0	178.6897909641266	
43	125.97322106361389	movie	1		165.0	41.0	2.5	/experiments/knapen_aot/videos/S_video-11.mp4	0.0	178.69806599617004	2.508207082748413
43	128.4814281463623	fix_post	2		12.0	41.0	2.5	/experiments/knapen_aot/videos/S_video-11.mp4	0.0	181.20627307891846	0.10027289390563965
44	128.58170104026794	fix_pre	0		121.0	42.0	2.5	/experiments/knapen_aot/videos/S_wc-dwTccI0TNwps_15.mp4	0.0	181.3065459728241	1.008117914199829
44	129.5741410255432	response	0	2		42.0	2.5	/experiments/knapen_aot/videos/S_wc-dwTccI0TNwps_15.mp4	0.0	182.29898595809937	
44	129.58981895446777	movie	1		301.0	42.0	2.5	/experiments/knapen_aot/videos/S_wc-dwTccI0TNwps_15.mp4	0.0	182.31466388702393	2.5083441734313965
44	132.09816312789917	fix_post	2		12.0	42.0	2.5	/experiments/knapen_aot/videos/S_wc-dwTccI0TNwps_15.mp4	0.0	184.82300806045532	0.1000208854675293
45	132.1981840133667	fix_pre	0		53.0	43.0	2.5	/experiments/knapen_aot/videos/S_yt-Xkx53mjgj2E_30.mp4	0.0	184.92302894592285	0.4415459632873535
45	132.63161396980286	response	0	2		43.0	2.5	/experiments/knapen_aot/videos/S_yt-Xkx53mjgj2E_30.mp4	0.0	185.356458902359	
45	132.63972997665405	movie	1		299.0	43.0	2.5	/experiments/knapen_aot/videos/S_yt-Xkx53mjgj2E_30.mp4	0.0	185.3645749092102	2.5084481239318848
45	135.14817810058594	fix_post	2		12.0	43.0	2.5	/experiments/knapen_aot/videos/S_yt-Xkx53mjgj2E_30.mp4	0.0	187.8730230331421	0.10012698173522949
46	135.24830508232117	fix_pre	0		44.0	44.0	2.5	/experiments/knapen_aot/videos/S_wc-7ugQ0V4lxYkJ_131.mp4	0.0	187.97315001487732	0.3664569854736328
46	135.6066391468048	response	0	2		44.0	2.5	/experiments/knapen_aot/videos/S_wc-7ugQ0V4lxYkJ_131.mp4	0.0	188.33148407936096	
46	135.6147620677948	movie	1		301.0	44.0	2.5	/experiments/knapen_aot/videos/S_wc-7ugQ0V4lxYkJ_131.mp4	0.0	188.33960700035095	2.5085608959198
46	138.1233229637146	fix_post	2		12.0	44.0	2.5	/experiments/knapen_aot/videos/S_wc-7ugQ0V4lxYkJ_131.mp4	0.0	190.84816789627075	0.09981203079223633
47	138.22313499450684	fix_pre	0		39.0	45.0	2.5	/experiments/knapen_aot/videos/R_S_yt-nCNZ87Tio1M_1.mp4	0.0	190.947979927063	0.324951171875
47	138.5398600101471	response	0	2		45.0	2.5	/experiments/knapen_aot/videos/R_S_yt-nCNZ87Tio1M_1.mp4	0.0	191.26470494270325	
47	138.54808616638184	movie	1		301.0	45.0	2.5	/experiments/knapen_aot/videos/R_S_yt-nCNZ87Tio1M_1.mp4	0.0	191.272931098938	2.5083789825439453
47	141.05646514892578	fix_post	2		12.0	45.0	2.5	/experiments/knapen_aot/videos/R_S_yt-nCNZ87Tio1M_1.mp4	0.0	193.78131008148193	0.10002994537353516
48	141.15649509429932	fix_pre	0		55.0	46.0	2.5	/experiments/knapen_aot/videos/S_ILSVRC2015_train_00323000.mp4	0.0	193.88134002685547	0.45828890800476074
48	141.6065890789032	response	0	2		46.0	2.5	/experiments/knapen_aot/videos/S_ILSVRC2015_train_00323000.mp4	0.0	194.33143401145935	
48	141.61478400230408	movie	1		301.0	46.0	2.5	/experiments/knapen_aot/videos/S_ILSVRC2015_train_00323000.mp4	0.0	194.33962893486023	2.508439064025879
48	144.12322306632996	fix_post	2		12.0	46.0	2.5	/experiments/knapen_aot/videos/S_ILSVRC2015_train_00323000.mp4	0.0	196.8480679988861	0.09994387626647949
49	144.22316694259644	fix_pre	0		66.0	47.0	2.5	/experiments/knapen_aot/videos/S_yt-yAtHuDsadu8_102.mp4	0.0	196.9480118751526	0.5498812198638916
49	144.7649381160736	response	0	2		47.0	2.5	/experiments/knapen_aot/videos/S_yt-yAtHuDsadu8_102.mp4	0.0	197.48978304862976	
49	144.77304816246033	movie	1		301.0	47.0	2.5	/experiments/knapen_aot/videos/S_yt-yAtHuDsadu8_102.mp4	0.0	197.49789309501648	2.5083329677581787
49	147.2813811302185	fix_post	2		12.0	47.0	2.5	/experiments/knapen_aot/videos/S_yt-yAtHuDsadu8_102.mp4	0.0	200.00622606277466	0.1000669002532959
50	147.3814480304718	fix_pre	0		53.0	48.0	2.5	/experiments/knapen_aot/videos/S_wc-PsidKmkEV7Km_14.mp4	0.0	200.10629296302795	0.4416029453277588
50	147.81492400169373	response	0	2		48.0	2.5	/experiments/knapen_aot/videos/S_wc-PsidKmkEV7Km_14.mp4	0.0	200.53976893424988	
50	147.82305097579956	movie	1		161.0	48.0	2.5	/experiments/knapen_aot/videos/S_wc-PsidKmkEV7Km_14.mp4	0.0	200.5478959083557	2.5084540843963623
50	150.33150506019592	fix_post	2		12.0	48.0	2.5	/experiments/knapen_aot/videos/S_wc-PsidKmkEV7Km_14.mp4	0.0	203.05634999275208	0.09980392456054688
51	150.43130898475647	fix_pre	0		37.0	49.0	2.5	blank	1.0	203.15615391731262	0.30841708183288574
51	150.73147702217102	response	0	2		49.0	2.5	blank	1.0	203.45632195472717	
51	150.73972606658936	movie	1		301.0	49.0	2.5	blank	1.0	203.4645709991455	2.5084009170532227
51	153.24812698364258	fix_post	2		12.0	49.0	2.5	blank	1.0	205.97297191619873	0.09985613822937012
52	153.34798312187195	fix_pre	0		56.0	50.0	2.5	/experiments/knapen_aot/videos/S_yt-tEzCpMrjOHs_24.mp4	0.0	206.0728280544281	0.4667038917541504
52	153.80643606185913	response	0	2		50.0	2.5	/experiments/knapen_aot/videos/S_yt-tEzCpMrjOHs_24.mp4	0.0	206.53128099441528	
52	153.8146870136261	movie	1		301.0	50.0	2.5	/experiments/knapen_aot/videos/S_yt-tEzCpMrjOHs_24.mp4	0.0	206.53953194618225	2.5084099769592285
52	156.32309699058533	fix_post	2		12.0	50.0	2.5	/experiments/knapen_aot/videos/S_yt-tEzCpMrjOHs_24.mp4	0.0	209.04794192314148	0.09997010231018066
53	156.4230670928955	fix_pre	0		24.0	51.0	2.5	/experiments/knapen_aot/videos/R_S_wc-ZZxbTv7oc5DQ_10.mp4	0.0	209.14791202545166	0.20002198219299316
53	156.61490607261658	response	0	2		51.0	2.5	/experiments/knapen_aot/videos/R_S_wc-ZZxbTv7oc5DQ_10.mp4	0.0	209.33975100517273	
53	156.6230890750885	movie	1		165.0	51.0	2.5	/experiments/knapen_aot/videos/R_S_wc-ZZxbTv7oc5DQ_10.mp4	0.0	209.34793400764465	2.5082828998565674
53	159.13137197494507	fix_post	2		12.0	51.0	2.5	/experiments/knapen_aot/videos/R_S_wc-ZZxbTv7oc5DQ_10.mp4	0.0	211.85621690750122	0.09998512268066406
53	159.14819407463074	response	2	2		51.0	2.5	/experiments/knapen_aot/videos/R_S_wc-ZZxbTv7oc5DQ_10.mp4	0.0	211.8730390071869	
54	159.23135709762573	fix_pre	0		92.0	52.0	2.5	/experiments/knapen_aot/videos/R_S_pexels-koolshooters-7689098.mp4	0.0	211.95620203018188	0.7666549682617188
54	159.98977208137512	response	0	2		52.0	2.5	/experiments/knapen_aot/videos/R_S_pexels-koolshooters-7689098.mp4	0.0	212.71461701393127	
54	159.99801206588745	movie	1		163.0	52.0	2.5	/experiments/knapen_aot/videos/R_S_pexels-koolshooters-7689098.mp4	0.0	212.7228569984436	2.508328914642334
54	162.50634098052979	fix_post	2		12.0	52.0	2.5	/experiments/knapen_aot/videos/R_S_pexels-koolshooters-7689098.mp4	0.0	215.23118591308594	0.10002398490905762
55	162.60636496543884	fix_pre	0		14.0	53.0	2.5	/experiments/knapen_aot/videos/S_yt-Pinnv3-3GFU_452.mp4	0.0	215.331209897995	0.11662411689758301
55	162.71484804153442	response	0	2		53.0	2.5	/experiments/knapen_aot/videos/S_yt-Pinnv3-3GFU_452.mp4	0.0	215.43969297409058	
55	162.72298908233643	movie	1		301.0	53.0	2.5	/experiments/knapen_aot/videos/S_yt-Pinnv3-3GFU_452.mp4	0.0	215.44783401489258	2.5083959102630615
55	165.2313849925995	fix_post	2		12.0	53.0	2.5	/experiments/knapen_aot/videos/S_yt-Pinnv3-3GFU_452.mp4	0.0	217.95622992515564	0.10001015663146973
56	165.33139514923096	fix_pre	0		354.0	54.0	2.5	/experiments/knapen_aot/videos/S_ILSVRC2015_train_00473000.mp4	0.0	218.0562400817871	2.949906826019287
56	168.27317094802856	response	0	2		54.0	2.5	/experiments/knapen_aot/videos/S_ILSVRC2015_train_00473000.mp4	0.0	220.99801588058472	
56	168.28130197525024	movie	1		301.0	54.0	2.5	/experiments/knapen_aot/videos/S_ILSVRC2015_train_00473000.mp4	0.0	221.0061469078064	2.5083870887756348
56	170.78968906402588	fix_post	2		12.0	54.0	2.5	/experiments/knapen_aot/videos/S_ILSVRC2015_train_00473000.mp4	0.0	223.51453399658203	0.10004210472106934
57	170.88973116874695	fix_pre	0		53.0	55.0	2.5	/experiments/knapen_aot/videos/R_S_yt-ejSzwn8tY8g_49.mp4	0.0	223.6145761013031	0.4416179656982422
57	171.32316207885742	response	0	2		55.0	2.5	/experiments/knapen_aot/videos/R_S_yt-ejSzwn8tY8g_49.mp4	0.0	224.04800701141357	
57	171.3313491344452	movie	1		301.0	55.0	2.5	/experiments/knapen_aot/videos/R_S_yt-ejSzwn8tY8g_49.mp4	0.0	224.05619406700134	2.508366823196411
57	173.8397159576416	fix_post	2		12.0	55.0	2.5	/experiments/knapen_aot/videos/R_S_yt-ejSzwn8tY8g_49.mp4	0.0	226.56456089019775	0.09998106956481934
58	173.93969702720642	fix_pre	0		70.0	56.0	2.5	blank	1.0	226.66454195976257	0.5833330154418945
58	174.51479816436768	response	0	2		56.0	2.5	blank	1.0	227.23964309692383	
58	174.52303004264832	movie	1		301.0	56.0	2.5	blank	1.0	227.24787497520447	2.5083200931549072
58	177.03135013580322	fix_post	2		12.0	56.0	2.5	blank	1.0	229.75619506835938	0.09997987747192383
59	177.13133001327515	fix_pre	0		39.0	57.0	2.5	/experiments/knapen_aot/videos/R_S_yt-t23g0U_hAgg_32.mp4	0.0	229.8561749458313	0.3249330520629883
59	177.44052004814148	response	0	2		57.0	2.5	/experiments/knapen_aot/videos/R_S_yt-t23g0U_hAgg_32.mp4	0.0	230.16536498069763	
59	177.45626306533813	movie	1		301.0	57.0	2.5	/experiments/knapen_aot/videos/R_S_yt-t23g0U_hAgg_32.mp4	0.0	230.1811079978943	2.5084619522094727
59	179.9647250175476	fix_post	2		12.0	57.0	2.5	/experiments/knapen_aot/videos/R_S_yt-t23g0U_hAgg_32.mp4	0.0	232.68956995010376	0.0998380184173584
60	180.06456303596497	fix_pre	0		24.0	58.0	2.5	/experiments/knapen_aot/videos/S_yt-PREz5XiiXg0_107.mp4	0.0	232.78940796852112	0.2000119686126709
60	180.25644302368164	response	0	2		58.0	2.5	/experiments/knapen_aot/videos/S_yt-PREz5XiiXg0_107.mp4	0.0	232.9812879562378	
60	180.26457500457764	movie	1		300.0	58.0	2.5	/experiments/knapen_aot/videos/S_yt-PREz5XiiXg0_107.mp4	0.0	232.9894199371338	2.508329153060913
60	182.77290415763855	fix_post	2		12.0	58.0	2.5	/experiments/knapen_aot/videos/S_yt-PREz5XiiXg0_107.mp4	0.0	235.4977490901947	0.10002684593200684
61	182.87293100357056	fix_pre	0		246.0	59.0	2.5	/experiments/knapen_aot/videos/R_S_yt-i4kSCZ8rNC0_11.mp4	0.0	235.5977759361267	2.0499629974365234
61	184.9146659374237	response	0	2		59.0	2.5	/experiments/knapen_aot/videos/R_S_yt-i4kSCZ8rNC0_11.mp4	0.0	237.63951086997986	
61	184.92289400100708	movie	1		301.0	59.0	2.5	/experiments/knapen_aot/videos/R_S_yt-i4kSCZ8rNC0_11.mp4	0.0	237.64773893356323	2.5083861351013184
61	187.4312801361084	fix_post	2		12.0	59.0	2.5	/experiments/knapen_aot/videos/R_S_yt-i4kSCZ8rNC0_11.mp4	0.0	240.15612506866455	0.10001087188720703
62	187.5312910079956	fix_pre	0		68.0	60.0	2.5	/experiments/knapen_aot/videos/R_S_yt-HRuCkU_kBoE_239.mp4	0.0	240.25613594055176	0.5666141510009766
62	188.08233499526978	response	0	2		60.0	2.5	/experiments/knapen_aot/videos/R_S_yt-HRuCkU_kBoE_239.mp4	0.0	240.80717992782593	
62	188.09790515899658	movie	1		298.0	60.0	2.5	/experiments/knapen_aot/videos/R_S_yt-HRuCkU_kBoE_239.mp4	0.0	240.82275009155273	2.5083298683166504
62	190.60623502731323	fix_post	2		12.0	60.0	2.5	/experiments/knapen_aot/videos/R_S_yt-HRuCkU_kBoE_239.mp4	0.0	243.33107995986938	0.10000896453857422
63	190.7062439918518	fix_pre	0		82.0	61.0	2.5	blank	1.0	243.43108892440796	0.6833431720733643
63	191.38139414787292	response	0	2		61.0	2.5	blank	1.0	244.10623908042908	
63	191.38958716392517	movie	1		301.0	61.0	2.5	blank	1.0	244.11443209648132	2.508328914642334
63	193.8979160785675	fix_post	2		12.0	61.0	2.5	blank	1.0	246.62276101112366	0.10000491142272949
64	193.99792098999023	fix_pre	0		66.0	62.0	2.5	/experiments/knapen_aot/videos/S_yt-ejSzwn8tY8g_49.mp4	0.0	246.7227659225464	0.5499711036682129
64	194.53968405723572	response	0	2		62.0	2.5	/experiments/knapen_aot/videos/S_yt-ejSzwn8tY8g_49.mp4	0.0	247.26452898979187	
64	194.54789209365845	movie	1		301.0	62.0	2.5	/experiments/knapen_aot/videos/S_yt-ejSzwn8tY8g_49.mp4	0.0	247.2727370262146	2.508316993713379
64	197.05620908737183	fix_post	2		12.0	62.0	2.5	/experiments/knapen_aot/videos/S_yt-ejSzwn8tY8g_49.mp4	0.0	249.78105401992798	0.10000801086425781
65	197.15621709823608	fix_pre	0		69.0	63.0	2.5	/experiments/knapen_aot/videos/R_S_yt-qsyDLtXcyHc_8.mp4	0.0	249.88106203079224	0.5750229358673096
65	197.72306513786316	response	0	2		63.0	2.5	/experiments/knapen_aot/videos/R_S_yt-qsyDLtXcyHc_8.mp4	0.0	250.4479100704193	
65	197.7312400341034	movie	1		301.0	63.0	2.5	/experiments/knapen_aot/videos/R_S_yt-qsyDLtXcyHc_8.mp4	0.0	250.45608496665955	2.508323907852173
65	200.23956394195557	fix_post	2		12.0	63.0	2.5	/experiments/knapen_aot/videos/R_S_yt-qsyDLtXcyHc_8.mp4	0.0	252.96440887451172	0.1000051498413086
66	200.33956909179688	fix_pre	0		85.0	64.0	2.5	/experiments/knapen_aot/videos/S_yt-nE8YJOhW4e4_171.mp4	0.0	253.06441402435303	0.7082898616790771
66	201.0396671295166	response	0	2		64.0	2.5	/experiments/knapen_aot/videos/S_yt-nE8YJOhW4e4_171.mp4	0.0	253.76451206207275	
66	201.04785895347595	movie	1		301.0	64.0	2.5	/experiments/knapen_aot/videos/S_yt-nE8YJOhW4e4_171.mp4	0.0	253.7727038860321	2.508268117904663
66	203.55612707138062	fix_post	2		12.0	64.0	2.5	/experiments/knapen_aot/videos/S_yt-nE8YJOhW4e4_171.mp4	0.0	256.28097200393677	0.09998106956481934
67	203.65610814094543	fix_pre	0		51.0	65.0	2.5	/experiments/knapen_aot/videos/R_S_yt-25xuzTBhwPk_109.mp4	0.0	256.3809530735016	0.4250500202178955
67	204.07295894622803	response	0	2		65.0	2.5	/experiments/knapen_aot/videos/R_S_yt-25xuzTBhwPk_109.mp4	0.0	256.7978038787842	
67	204.08115816116333	movie	1		301.0	65.0	2.5	/experiments/knapen_aot/videos/R_S_yt-25xuzTBhwPk_109.mp4	0.0	256.8060030937195	2.50832200050354
67	206.58948016166687	fix_post	2		12.0	65.0	2.5	/experiments/knapen_aot/videos/R_S_yt-25xuzTBhwPk_109.mp4	0.0	259.314325094223	0.0999917984008789
68	206.68947196006775	fix_pre	0		29.0	66.0	2.5	/experiments/knapen_aot/videos/R_S_yt-CH4HfNRC1hY_40.mp4	0.0	259.4143168926239	0.24164819717407227
68	206.92294216156006	response	0	2		66.0	2.5	/experiments/knapen_aot/videos/R_S_yt-CH4HfNRC1hY_40.mp4	0.0	259.6477870941162	
68	206.93112015724182	movie	1		301.0	66.0	2.5	/experiments/knapen_aot/videos/R_S_yt-CH4HfNRC1hY_40.mp4	0.0	259.655965089798	2.508366823196411
68	209.43948698043823	fix_post	2		12.0	66.0	2.5	/experiments/knapen_aot/videos/R_S_yt-CH4HfNRC1hY_40.mp4	0.0	262.1643319129944	0.10002398490905762
69	209.5395109653473	fix_pre	0		169.0	67.0	2.5	/experiments/knapen_aot/videos/R_S_Pexels_Videos_2791797.mp4	0.0	262.26435589790344	1.4093921184539795
69	210.93208599090576	response	0	2		67.0	2.5	/experiments/knapen_aot/videos/R_S_Pexels_Videos_2791797.mp4	0.0	263.6569309234619	
69	210.94890308380127	movie	1		166.0	67.0	2.5	/experiments/knapen_aot/videos/R_S_Pexels_Videos_2791797.mp4	0.0	263.6737480163574	2.5072219371795654
69	213.45612502098083	fix_post	2		12.0	67.0	2.5	/experiments/knapen_aot/videos/R_S_Pexels_Videos_2791797.mp4	0.0	266.180969953537	0.09998703002929688
70	213.55611205101013	fix_pre	0		59.0	68.0	2.5	blank	1.0	266.2809569835663	0.49167799949645996
70	214.03964495658875	response	0	2		68.0	2.5	blank	1.0	266.7644898891449	
70	214.0477900505066	movie	1		301.0	68.0	2.5	blank	1.0	266.77263498306274	2.508333921432495
70	216.5561239719391	fix_post	2		12.0	68.0	2.5	blank	1.0	269.28096890449524	0.09999608993530273
71	216.6561200618744	fix_pre	0		83.0	69.0	2.5	/experiments/knapen_aot/videos/R_S_yt-4i1b6NQ9NKs_5.mp4	0.0	269.38096499443054	0.6916210651397705
71	217.33956694602966	response	0	2		69.0	2.5	/experiments/knapen_aot/videos/R_S_yt-4i1b6NQ9NKs_5.mp4	0.0	270.0644118785858	
71	217.34774112701416	movie	1		300.0	69.0	2.5	/experiments/knapen_aot/videos/R_S_yt-4i1b6NQ9NKs_5.mp4	0.0	270.0725860595703	2.508349895477295
71	218.78955602645874	response	1	2		69.0	2.5	/experiments/knapen_aot/videos/R_S_yt-4i1b6NQ9NKs_5.mp4	0.0	271.5144009590149	
71	219.85609102249146	fix_post	2		12.0	69.0	2.5	/experiments/knapen_aot/videos/R_S_yt-4i1b6NQ9NKs_5.mp4	0.0	272.5809359550476	0.10002303123474121
72	219.9561140537262	fix_pre	0		29.0	70.0	2.5	/experiments/knapen_aot/videos/R_S_ILSVRC2015_train_00303008.mp4	0.0	272.68095898628235	0.2427809238433838
72	220.18948912620544	response	0	2		70.0	2.5	/experiments/knapen_aot/videos/R_S_ILSVRC2015_train_00303008.mp4	0.0	272.9143340587616	
72	220.19889497756958	movie	1		301.0	70.0	2.5	/experiments/knapen_aot/videos/R_S_ILSVRC2015_train_00303008.mp4	0.0	272.92373991012573	2.5071821212768555
72	222.70607709884644	fix_post	2		12.0	70.0	2.5	/experiments/knapen_aot/videos/R_S_ILSVRC2015_train_00303008.mp4	0.0	275.4309220314026	0.10003089904785156
73	222.8061079978943	fix_pre	0		35.0	71.0	2.5	/experiments/knapen_aot/videos/S_yt-EuyfT0PuOoQ_91.mp4	0.0	275.53095293045044	0.29162096977233887
73	223.08953309059143	response	0	2		71.0	2.5	/experiments/knapen_aot/videos/S_yt-EuyfT0PuOoQ_91.mp4	0.0	275.8143780231476	
73	223.09772896766663	movie	1		301.0	71.0	2.5	/experiments/knapen_aot/videos/S_yt-EuyfT0PuOoQ_91.mp4	0.0	275.8225739002228	2.5083320140838623
73	225.6060609817505	fix_post	2		12.0	71.0	2.5	/experiments/knapen_aot/videos/S_yt-EuyfT0PuOoQ_91.mp4	0.0	278.33090591430664	0.10007405281066895
74	225.70613503456116	fix_pre	0		41.0	72.0	2.5	/experiments/knapen_aot/videos/S_yt-qsyDLtXcyHc_8.mp4	0.0	278.4309799671173	0.34160900115966797
74	226.0321249961853	response	0	2		72.0	2.5	/experiments/knapen_aot/videos/S_yt-qsyDLtXcyHc_8.mp4	0.0	278.75696992874146	
74	226.04774403572083	movie	1		301.0	72.0	2.5	/experiments/knapen_aot/videos/S_yt-qsyDLtXcyHc_8.mp4	0.0	278.772588968277	2.5082969665527344
74	228.55604100227356	fix_post	2		12.0	72.0	2.5	/experiments/knapen_aot/videos/S_yt-qsyDLtXcyHc_8.mp4	0.0	281.2808859348297	0.100067138671875
75	228.65610814094543	fix_pre	0		35.0	73.0	2.5	/experiments/knapen_aot/videos/R_S_yt-JkKOG9Fxykc_94.mp4	0.0	281.3809530735016	0.29271602630615234
75	228.9395170211792	response	0	2		73.0	2.5	/experiments/knapen_aot/videos/R_S_yt-JkKOG9Fxykc_94.mp4	0.0	281.66436195373535	
75	228.9488241672516	movie	1		301.0	73.0	2.5	/experiments/knapen_aot/videos/R_S_yt-JkKOG9Fxykc_94.mp4	0.0	281.67366909980774	2.5072059631347656
75	231.45603013038635	fix_post	2		12.0	73.0	2.5	/experiments/knapen_aot/videos/R_S_yt-JkKOG9Fxykc_94.mp4	0.0	284.1808750629425	0.09997200965881348
76	231.55600214004517	fix_pre	0		58.0	74.0	2.5	/experiments/knapen_aot/videos/R_S_yt-sIXdPhfS67U_203.mp4	0.0	284.2808470726013	0.4833409786224365
76	232.03121399879456	response	0	2		74.0	2.5	/experiments/knapen_aot/videos/R_S_yt-sIXdPhfS67U_203.mp4	0.0	284.7560589313507	
76	232.0393431186676	movie	1		301.0	74.0	2.5	/experiments/knapen_aot/videos/R_S_yt-sIXdPhfS67U_203.mp4	0.0	284.76418805122375	2.508368968963623
76	234.54771208763123	fix_post	2		12.0	74.0	2.5	/experiments/knapen_aot/videos/R_S_yt-sIXdPhfS67U_203.mp4	0.0	287.2725570201874	0.09998893737792969
77	234.64770102500916	fix_pre	0		56.0	75.0	2.5	/experiments/knapen_aot/videos/S_pexels-yaroslav-shuraev-8091356.mp4	0.0	287.3725459575653	0.46772098541259766
77	235.10620498657227	response	0	2		75.0	2.5	/experiments/knapen_aot/videos/S_pexels-yaroslav-shuraev-8091356.mp4	0.0	287.8310499191284	
77	235.11542201042175	movie	1		195.0	75.0	2.5	/experiments/knapen_aot/videos/S_pexels-yaroslav-shuraev-8091356.mp4	0.0	287.8402669429779	2.5072669982910156
77	237.62268900871277	fix_post	2		12.0	75.0	2.5	/experiments/knapen_aot/videos/S_pexels-yaroslav-shuraev-8091356.mp4	0.0	290.3475339412689	0.10001707077026367
78	237.72270607948303	fix_pre	0		50.0	76.0	2.5	blank	1.0	290.4475510120392	0.416672945022583
78	238.13114404678345	response	0	2		76.0	2.5	blank	1.0	290.8559889793396	
78	238.13937902450562	movie	1		301.0	76.0	2.5	blank	1.0	290.86422395706177	2.5083141326904297
78	240.64769315719604	fix_post	2		12.0	76.0	2.5	blank	1.0	293.3725380897522	0.09999895095825195
79	240.7476921081543	fix_pre	0		32.0	77.0	2.5	/experiments/knapen_aot/videos/R_S_ILSVRC2015_train_00743000.mp4	0.0	293.47253704071045	0.26665592193603516
79	241.00616312026978	response	0	2		77.0	2.5	/experiments/knapen_aot/videos/R_S_ILSVRC2015_train_00743000.mp4	0.0	293.7310080528259	
79	241.01434803009033	movie	1		301.0	77.0	2.5	/experiments/knapen_aot/videos/R_S_ILSVRC2015_train_00743000.mp4	0.0	293.7391929626465	2.508275032043457
79	243.5226230621338	fix_post	2		12.0	77.0	2.5	/experiments/knapen_aot/videos/R_S_ILSVRC2015_train_00743000.mp4	0.0	296.24746799468994	0.10006499290466309
80	243.62268805503845	fix_pre	0		74.0	78.0	2.5	/experiments/knapen_aot/videos/S_yt-zhQ32_OayBQ_39.mp4	0.0	296.3475329875946	0.6176300048828125
80	244.23107504844666	response	0	2		78.0	2.5	/experiments/knapen_aot/videos/S_yt-zhQ32_OayBQ_39.mp4	0.0	296.9559199810028	
80	244.24031805992126	movie	1		298.0	78.0	2.5	/experiments/knapen_aot/videos/S_yt-zhQ32_OayBQ_39.mp4	0.0	296.9651629924774	2.5073230266571045
80	246.74764108657837	fix_post	2		12.0	78.0	2.5	/experiments/knapen_aot/videos/S_yt-zhQ32_OayBQ_39.mp4	0.0	299.4724860191345	0.1000058650970459
81	246.84764695167542	fix_pre	0		13.0	79.0	2.5	/experiments/knapen_aot/videos/S_yt-zlbtESb7Fcw_28.mp4	0.0	299.57249188423157	0.10828304290771484
81	246.94772100448608	response	0	2		79.0	2.5	/experiments/knapen_aot/videos/S_yt-zlbtESb7Fcw_28.mp4	0.0	299.67256593704224	
81	246.95592999458313	movie	1		301.0	79.0	2.5	/experiments/knapen_aot/videos/S_yt-zlbtESb7Fcw_28.mp4	0.0	299.6807749271393	2.508371114730835
81	249.46430110931396	fix_post	2		12.0	79.0	2.5	/experiments/knapen_aot/videos/S_yt-zlbtESb7Fcw_28.mp4	0.0	302.1891460418701	0.09994697570800781
82	249.56424808502197	fix_pre	0		63.0	80.0	2.5	/experiments/knapen_aot/videos/R_S_yt-5doJmCcFL7s_3.mp4	0.0	302.2890930175781	0.5249998569488525
82	250.0810911655426	response	0	2		80.0	2.5	/experiments/knapen_aot/videos/R_S_yt-5doJmCcFL7s_3.mp4	0.0	302.80593609809875	
82	250.08924794197083	movie	1		301.0	80.0	2.5	/experiments/knapen_aot/videos/R_S_yt-5doJmCcFL7s_3.mp4	0.0	302.814092874527	2.508333206176758
82	252.59758114814758	fix_post	2		12.0	80.0	2.5	/experiments/knapen_aot/videos/R_S_yt-5doJmCcFL7s_3.mp4	0.0	305.32242608070374	0.09995698928833008
83	252.6975381374359	fix_pre	0		58.0	81.0	2.5	/experiments/knapen_aot/videos/S_yt-y3tyx6cZjmA_412.mp4	0.0	305.42238306999207	0.4833798408508301
83	253.17275214195251	response	0	2		81.0	2.5	/experiments/knapen_aot/videos/S_yt-y3tyx6cZjmA_412.mp4	0.0	305.89759707450867	
83	253.18091797828674	movie	1		301.0	81.0	2.5	/experiments/knapen_aot/videos/S_yt-y3tyx6cZjmA_412.mp4	0.0	305.9057629108429	2.5083680152893066
83	255.68928599357605	fix_post	2		12.0	81.0	2.5	/experiments/knapen_aot/videos/S_yt-y3tyx6cZjmA_412.mp4	0.0	308.4141309261322	0.09995913505554199
84	255.7892451286316	fix_pre	0		93.0	82.0	2.5	blank	1.0	308.51409006118774	0.7749240398406982
84	256.5560829639435	response	0	2		82.0	2.5	blank	1.0	309.28092789649963	
84	256.5641691684723	movie	1		301.0	82.0	2.5	blank	1.0	309.28901410102844	2.508344888687134
84	259.0725140571594	fix_post	2		12.0	82.0	2.5	blank	1.0	311.7973589897156	0.10010409355163574
85	259.17261815071106	fix_pre	0		24.0	83.0	2.5	/experiments/knapen_aot/videos/R_S_yt-YyKEeu2gLrI_158.mp4	0.0	311.8974630832672	0.19992399215698242
85	259.36430501937866	response	0	2		83.0	2.5	/experiments/knapen_aot/videos/R_S_yt-YyKEeu2gLrI_158.mp4	0.0	312.0891499519348	
85	259.37254214286804	movie	1		301.0	83.0	2.5	/experiments/knapen_aot/videos/R_S_yt-YyKEeu2gLrI_158.mp4	0.0	312.0973870754242	2.508373975753784
85	261.8809161186218	fix_post	2		12.0	83.0	2.5	/experiments/knapen_aot/videos/R_S_yt-YyKEeu2gLrI_158.mp4	0.0	314.605761051178	0.09999203681945801
87	261.9809081554413	stim	0		165.0					314.70575308799744	1.3772969245910645
87	262.0904049873352	response	0	2						314.81524991989136	
87	263.35131216049194	response	0	space						316.0761570930481	
