trial_nr	onset	event_type	phase	response	nr_frames	movie_index	movie_duration	movie_file	blank	onset_abs	duration
0	0.13260293006896973	stim	0		60.0					61.79526710510254	0.49997496604919434
0	0.625356912612915	response	0	space						62.288021087646484	
1	0.6325778961181641	stim	0		121.0					62.29524207115173	1.008239984512329
1	1.6408178806304932	stim	1		120.0					63.30348205566406	0.9997329711914062
1	1.7659809589385986	response	1	space						63.42864513397217	
1	2.1778228282928467	response	1	2						63.840487003326416	
1	2.4160499572753906	response	1	space						64.07871413230896	
2	2.6405508518218994	fix_pre	0		44.0	0.0	2.5	/experiments/knapen_aot/videos/R_S_yt-BJsMGxfjrZk_59.mp4	0.0	64.30321502685547	0.366595983505249
2	2.9989378452301025	response	0	space		0.0	2.5	/experiments/knapen_aot/videos/R_S_yt-BJsMGxfjrZk_59.mp4	0.0	64.66160202026367	
2	3.0071468353271484	movie	1		300.0	0.0	2.5	/experiments/knapen_aot/videos/R_S_yt-BJsMGxfjrZk_59.mp4	0.0	64.66981101036072	2.508378028869629
2	5.515524864196777	fix_post	2		12.0	0.0	2.5	/experiments/knapen_aot/videos/R_S_yt-BJsMGxfjrZk_59.mp4	0.0	67.17818903923035	0.10004210472106934
3	5.615566968917847	fix_pre	0		28.0	1.0	2.5	/experiments/knapen_aot/videos/S_production_ID_4101242.mp4	0.0	67.27823114395142	0.23821091651916504
3	5.845768928527832	response	0	2		1.0	2.5	/experiments/knapen_aot/videos/S_production_ID_4101242.mp4	0.0	67.5084331035614	
3	5.853777885437012	movie	1		187.0	1.0	2.5	/experiments/knapen_aot/videos/S_production_ID_4101242.mp4	0.0	67.51644206047058	2.503453016281128
3	8.35723090171814	fix_post	2		12.0	1.0	2.5	/experiments/knapen_aot/videos/S_production_ID_4101242.mp4	0.0	70.01989507675171	0.0999901294708252
4	8.457221031188965	fix_pre	0		19.0	2.0	2.5	/experiments/knapen_aot/videos/R_S_yt-r2jZ0zZrqzQ_45.mp4	0.0	70.11988520622253	0.15828180313110352
4	8.607403039932251	response	0	2		2.0	2.5	/experiments/knapen_aot/videos/R_S_yt-r2jZ0zZrqzQ_45.mp4	0.0	70.27006721496582	
4	8.615502834320068	movie	1		301.0	2.0	2.5	/experiments/knapen_aot/videos/R_S_yt-r2jZ0zZrqzQ_45.mp4	0.0	70.27816700935364	2.508223056793213
4	11.123725891113281	fix_post	2		12.0	2.0	2.5	/experiments/knapen_aot/videos/R_S_yt-r2jZ0zZrqzQ_45.mp4	0.0	72.78639006614685	0.10012006759643555
5	11.223845958709717	fix_pre	0		35.0	3.0	2.5	/experiments/knapen_aot/videos/S_yt-CeOZeB1LXwE_79.mp4	0.0	72.88651013374329	0.2916419506072998
5	11.50727391242981	response	0	2		3.0	2.5	/experiments/knapen_aot/videos/S_yt-CeOZeB1LXwE_79.mp4	0.0	73.16993808746338	
5	11.515487909317017	movie	1		301.0	3.0	2.5	/experiments/knapen_aot/videos/S_yt-CeOZeB1LXwE_79.mp4	0.0	73.17815208435059	2.508328914642334
5	14.02381682395935	fix_post	2		12.0	3.0	2.5	/experiments/knapen_aot/videos/S_yt-CeOZeB1LXwE_79.mp4	0.0	75.68648099899292	0.10002899169921875
6	14.12384581565857	fix_pre	0		51.0	4.0	2.5	/experiments/knapen_aot/videos/S_yt-LB9LoYfH_EA_15.mp4	0.0	75.78650999069214	0.4249382019042969
6	14.540632963180542	response	0	2		4.0	2.5	/experiments/knapen_aot/videos/S_yt-LB9LoYfH_EA_15.mp4	0.0	76.20329713821411	
6	14.548784017562866	movie	1		301.0	4.0	2.5	/experiments/knapen_aot/videos/S_yt-LB9LoYfH_EA_15.mp4	0.0	76.21144819259644	2.5083158016204834
6	17.05709981918335	fix_post	2		12.0	4.0	2.5	/experiments/knapen_aot/videos/S_yt-LB9LoYfH_EA_15.mp4	0.0	78.71976399421692	0.09997200965881348
7	17.157071828842163	fix_pre	0		128.0	5.0	2.5	/experiments/knapen_aot/videos/S_yt-7NjoFHBdP7c_102.mp4	0.0	78.81973600387573	1.0666851997375488
7	18.215701818466187	response	0	2		5.0	2.5	/experiments/knapen_aot/videos/S_yt-7NjoFHBdP7c_102.mp4	0.0	79.87836599349976	
7	18.223757028579712	movie	1		298.0	5.0	2.5	/experiments/knapen_aot/videos/S_yt-7NjoFHBdP7c_102.mp4	0.0	79.88642120361328	2.5083630084991455
7	20.732120037078857	fix_post	2		12.0	5.0	2.5	/experiments/knapen_aot/videos/S_yt-7NjoFHBdP7c_102.mp4	0.0	82.39478421211243	0.09995889663696289
8	20.83207893371582	fix_pre	0		51.0	6.0	2.5	/experiments/knapen_aot/videos/S_yt-BJsMGxfjrZk_59.mp4	0.0	82.49474310874939	0.42501091957092285
8	21.241355895996094	response	0	2		6.0	2.5	/experiments/knapen_aot/videos/S_yt-BJsMGxfjrZk_59.mp4	0.0	82.90402007102966	
8	21.257089853286743	movie	1		301.0	6.0	2.5	/experiments/knapen_aot/videos/S_yt-BJsMGxfjrZk_59.mp4	0.0	82.91975402832031	2.508362054824829
8	23.765451908111572	fix_post	2		12.0	6.0	2.5	/experiments/knapen_aot/videos/S_yt-BJsMGxfjrZk_59.mp4	0.0	85.42811608314514	0.09997010231018066
9	23.865422010421753	fix_pre	0		42.0	7.0	2.5	blank	1.0	85.52808618545532	0.34998393058776855
9	24.207332849502563	response	0	2		7.0	2.5	blank	1.0	85.86999702453613	
9	24.21540594100952	movie	1		301.0	7.0	2.5	blank	1.0	85.87807011604309	2.508370876312256
9	26.723776817321777	fix_post	2		12.0	7.0	2.5	blank	1.0	88.38644099235535	0.100006103515625
10	26.823782920837402	fix_pre	0		18.0	8.0	2.5	/experiments/knapen_aot/videos/R_S_yt-fA0nOetbOJY_580.mp4	0.0	88.48644709587097	0.1500871181488037
10	26.965577840805054	response	0	2		8.0	2.5	/experiments/knapen_aot/videos/R_S_yt-fA0nOetbOJY_580.mp4	0.0	88.62824201583862	
10	26.973870038986206	movie	1		300.0	8.0	2.5	/experiments/knapen_aot/videos/R_S_yt-fA0nOetbOJY_580.mp4	0.0	88.63653421401978	2.508229970932007
10	29.482100009918213	fix_post	2		12.0	8.0	2.5	/experiments/knapen_aot/videos/R_S_yt-fA0nOetbOJY_580.mp4	0.0	91.14476418495178	0.10000801086425781
11	29.58210802078247	fix_pre	0		9.0	9.0	2.5	/experiments/knapen_aot/videos/R_S_production_ID_4765899.mp4	0.0	91.24477219581604	0.07493782043457031
11	29.648941040039062	response	0	2		9.0	2.5	/experiments/knapen_aot/videos/R_S_production_ID_4765899.mp4	0.0	91.31160521507263	
11	29.65704584121704	movie	1		170.0	9.0	2.5	/experiments/knapen_aot/videos/R_S_production_ID_4765899.mp4	0.0	91.31971001625061	2.508273124694824
11	32.165318965911865	fix_post	2		12.0	9.0	2.5	/experiments/knapen_aot/videos/R_S_production_ID_4765899.mp4	0.0	93.82798314094543	0.1000669002532959
12	32.26538586616516	fix_pre	0		1.0	10.0	2.5	/experiments/knapen_aot/videos/R_S_yt-WhQMF3WM0Ig_29.mp4	0.0	93.92805004119873	0.008270978927612305
12	32.26711893081665	response	0	2		10.0	2.5	/experiments/knapen_aot/videos/R_S_yt-WhQMF3WM0Ig_29.mp4	0.0	93.92978310585022	
12	32.27365684509277	movie	1		300.0	10.0	2.5	/experiments/knapen_aot/videos/R_S_yt-WhQMF3WM0Ig_29.mp4	0.0	93.93632102012634	2.50844407081604
12	34.78210091590881	fix_post	2		12.0	10.0	2.5	/experiments/knapen_aot/videos/R_S_yt-WhQMF3WM0Ig_29.mp4	0.0	96.44476509094238	0.09996199607849121
13	34.882062911987305	fix_pre	0		3.0	11.0	2.5	/experiments/knapen_aot/videos/S_ILSVRC2015_train_00042003.mp4	0.0	96.54472708702087	0.025021076202392578
13	34.89883995056152	response	0	2		11.0	2.5	/experiments/knapen_aot/videos/S_ILSVRC2015_train_00042003.mp4	0.0	96.56150412559509	
13	34.9070839881897	movie	1		301.0	11.0	2.5	/experiments/knapen_aot/videos/S_ILSVRC2015_train_00042003.mp4	0.0	96.56974816322327	2.508296012878418
13	37.415380001068115	fix_post	2		12.0	11.0	2.5	/experiments/knapen_aot/videos/S_ILSVRC2015_train_00042003.mp4	0.0	99.07804417610168	0.10003185272216797
14	37.51541185379028	fix_pre	0		52.0	12.0	2.5	blank	1.0	99.17807602882385	0.43326497077941895
14	37.94046688079834	response	0	2		12.0	2.5	blank	1.0	99.60313105583191	
14	37.9486768245697	movie	1		301.0	12.0	2.5	blank	1.0	99.61134099960327	2.5083930492401123
14	40.457069873809814	fix_post	2		12.0	12.0	2.5	blank	1.0	102.11973404884338	0.09995412826538086
15	40.557024002075195	fix_pre	0		53.0	13.0	2.5	/experiments/knapen_aot/videos/S_ILSVRC2015_train_00575000.mp4	0.0	102.21968817710876	0.4422569274902344
15	40.99052691459656	response	0	2		13.0	2.5	/experiments/knapen_aot/videos/S_ILSVRC2015_train_00575000.mp4	0.0	102.65319108963013	
15	40.99928092956543	movie	1		298.0	13.0	2.5	/experiments/knapen_aot/videos/S_ILSVRC2015_train_00575000.mp4	0.0	102.661945104599	2.507812976837158
15	43.50709390640259	fix_post	2		12.0	13.0	2.5	/experiments/knapen_aot/videos/S_ILSVRC2015_train_00575000.mp4	0.0	105.16975808143616	0.09996700286865234
16	43.60706090927124	fix_pre	0		45.0	14.0	2.5	/experiments/knapen_aot/videos/R_S_yt-aiDGx4AN8J0_9.mp4	0.0	105.26972508430481	0.3749070167541504
16	43.97379803657532	response	0	2		14.0	2.5	/experiments/knapen_aot/videos/R_S_yt-aiDGx4AN8J0_9.mp4	0.0	105.63646221160889	
16	43.98196792602539	movie	1		301.0	14.0	2.5	/experiments/knapen_aot/videos/R_S_yt-aiDGx4AN8J0_9.mp4	0.0	105.64463210105896	2.5084140300750732
16	46.490381956100464	fix_post	2		12.0	14.0	2.5	/experiments/knapen_aot/videos/R_S_yt-aiDGx4AN8J0_9.mp4	0.0	108.15304613113403	0.10000395774841309
17	46.59038591384888	fix_pre	0		30.0	15.0	2.5	/experiments/knapen_aot/videos/S_yt-bwSRV1Vr21s_435.mp4	0.0	108.25305008888245	0.24988794326782227
17	46.832154989242554	response	0	2		15.0	2.5	/experiments/knapen_aot/videos/S_yt-bwSRV1Vr21s_435.mp4	0.0	108.49481916427612	
17	46.8402738571167	movie	1		300.0	15.0	2.5	/experiments/knapen_aot/videos/S_yt-bwSRV1Vr21s_435.mp4	0.0	108.50293803215027	2.508392095565796
17	49.348665952682495	fix_post	2		12.0	15.0	2.5	/experiments/knapen_aot/videos/S_yt-bwSRV1Vr21s_435.mp4	0.0	111.01133012771606	0.10004091262817383
18	49.44870686531067	fix_pre	0		29.0	16.0	2.5	/experiments/knapen_aot/videos/R_S_ILSVRC2015_train_00042003.mp4	0.0	111.11137104034424	0.24163413047790527
18	49.682180881500244	response	0	2		16.0	2.5	/experiments/knapen_aot/videos/R_S_ILSVRC2015_train_00042003.mp4	0.0	111.34484505653381	
18	49.690340995788574	movie	1		301.0	16.0	2.5	/experiments/knapen_aot/videos/R_S_ILSVRC2015_train_00042003.mp4	0.0	111.35300517082214	2.5084500312805176
18	52.19879102706909	fix_post	2		12.0	16.0	2.5	/experiments/knapen_aot/videos/R_S_ILSVRC2015_train_00042003.mp4	0.0	113.86145520210266	0.09989380836486816
19	52.29868483543396	fix_pre	0		42.0	17.0	2.5	/experiments/knapen_aot/videos/S_yt-gPhlnZG-pRY_4.mp4	0.0	113.96134901046753	0.349973201751709
19	52.640509843826294	response	0	2		17.0	2.5	/experiments/knapen_aot/videos/S_yt-gPhlnZG-pRY_4.mp4	0.0	114.30317401885986	
19	52.64865803718567	movie	1		301.0	17.0	2.5	/experiments/knapen_aot/videos/S_yt-gPhlnZG-pRY_4.mp4	0.0	114.31132221221924	2.508328914642334
19	55.156986951828	fix_post	2		12.0	17.0	2.5	/experiments/knapen_aot/videos/S_yt-gPhlnZG-pRY_4.mp4	0.0	116.81965112686157	0.10002803802490234
20	55.257014989852905	fix_pre	0		37.0	18.0	2.5	/experiments/knapen_aot/videos/S_ILSVRC2015_train_00368000.mp4	0.0	116.91967916488647	0.30828285217285156
20	55.557096004486084	response	0	2		18.0	2.5	/experiments/knapen_aot/videos/S_ILSVRC2015_train_00368000.mp4	0.0	117.21976017951965	
20	55.56529784202576	movie	1		301.0	18.0	2.5	/experiments/knapen_aot/videos/S_ILSVRC2015_train_00368000.mp4	0.0	117.22796201705933	2.508368968963623
20	58.07366681098938	fix_post	2		12.0	18.0	2.5	/experiments/knapen_aot/videos/S_ILSVRC2015_train_00368000.mp4	0.0	119.73633098602295	0.09996318817138672
21	58.17362999916077	fix_pre	0		32.0	19.0	2.5	blank	1.0	119.83629417419434	0.26664304733276367
21	58.43206787109375	response	0	2		19.0	2.5	blank	1.0	120.09473204612732	
21	58.44027304649353	movie	1		301.0	19.0	2.5	blank	1.0	120.1029372215271	2.5083258152008057
21	60.948598861694336	fix_post	2		12.0	19.0	2.5	blank	1.0	122.6112630367279	0.10002017021179199
22	61.04861903190613	fix_pre	0		22.0	20.0	2.5	/experiments/knapen_aot/videos/S_pexels-cottonbro-10639398.mp4	0.0	122.7112832069397	0.1833488941192627
22	61.22397804260254	response	0	2		20.0	2.5	/experiments/knapen_aot/videos/S_pexels-cottonbro-10639398.mp4	0.0	122.88664221763611	
22	61.23196792602539	movie	1		182.0	20.0	2.5	/experiments/knapen_aot/videos/S_pexels-cottonbro-10639398.mp4	0.0	122.89463210105896	2.508258104324341
22	63.74022603034973	fix_post	2		12.0	20.0	2.5	/experiments/knapen_aot/videos/S_pexels-cottonbro-10639398.mp4	0.0	125.4028902053833	0.1000359058380127
23	63.840261936187744	fix_pre	0		28.0	21.0	2.5	/experiments/knapen_aot/videos/S_I003_C015_SDR_2K_AVC.mp4	0.0	125.50292611122131	0.23331594467163086
23	64.06533598899841	response	0	2		21.0	2.5	/experiments/knapen_aot/videos/S_I003_C015_SDR_2K_AVC.mp4	0.0	125.72800016403198	
23	64.07357788085938	movie	1		170.0	21.0	2.5	/experiments/knapen_aot/videos/S_I003_C015_SDR_2K_AVC.mp4	0.0	125.73624205589294	2.508419990539551
23	66.58199787139893	fix_post	2		12.0	21.0	2.5	/experiments/knapen_aot/videos/S_I003_C015_SDR_2K_AVC.mp4	0.0	128.2446620464325	0.10002493858337402
24	66.6820228099823	fix_pre	0		19.0	22.0	2.5	/experiments/knapen_aot/videos/S_video_inspire_california_big-sur_landscape_054.1080-h264.mp4	0.0	128.34468698501587	0.158278226852417
24	66.83209586143494	response	0	2		22.0	2.5	/experiments/knapen_aot/videos/S_video_inspire_california_big-sur_landscape_054.1080-h264.mp4	0.0	128.4947600364685	
24	66.84030103683472	movie	1		170.0	22.0	2.5	/experiments/knapen_aot/videos/S_video_inspire_california_big-sur_landscape_054.1080-h264.mp4	0.0	128.5029652118683	2.50834584236145
24	69.34864687919617	fix_post	2		12.0	22.0	2.5	/experiments/knapen_aot/videos/S_video_inspire_california_big-sur_landscape_054.1080-h264.mp4	0.0	131.01131105422974	0.10000801086425781
25	69.44865489006042	fix_pre	0		36.0	23.0	2.5	/experiments/knapen_aot/videos/S_yt-4ouMuGUuPHI_193.mp4	0.0	131.111319065094	0.3083040714263916
25	69.73288893699646	response	0	2		23.0	2.5	/experiments/knapen_aot/videos/S_yt-4ouMuGUuPHI_193.mp4	0.0	131.39555311203003	
25	69.75695896148682	movie	1		300.0	23.0	2.5	/experiments/knapen_aot/videos/S_yt-4ouMuGUuPHI_193.mp4	0.0	131.41962313652039	2.499958038330078
25	72.2569169998169	fix_post	2		12.0	23.0	2.5	/experiments/knapen_aot/videos/S_yt-4ouMuGUuPHI_193.mp4	0.0	133.91958117485046	0.10003304481506348
26	72.35695004463196	fix_pre	0		13.0	24.0	2.5	/experiments/knapen_aot/videos/R_S_yt-wLylWnZs3z0_27.mp4	0.0	134.01961421966553	0.10828781127929688
26	72.4569308757782	response	0	2		24.0	2.5	/experiments/knapen_aot/videos/R_S_yt-wLylWnZs3z0_27.mp4	0.0	134.11959505081177	
26	72.46523785591125	movie	1		301.0	24.0	2.5	/experiments/knapen_aot/videos/R_S_yt-wLylWnZs3z0_27.mp4	0.0	134.12790203094482	2.508380174636841
26	74.9736180305481	fix_post	2		12.0	24.0	2.5	/experiments/knapen_aot/videos/R_S_yt-wLylWnZs3z0_27.mp4	0.0	136.63628220558167	0.10000300407409668
27	75.07362103462219	fix_pre	0		7.0	25.0	2.5	/experiments/knapen_aot/videos/R_S_yt-CeOZeB1LXwE_79.mp4	0.0	136.73628520965576	0.05830693244934082
27	75.1237690448761	response	0	2		25.0	2.5	/experiments/knapen_aot/videos/R_S_yt-CeOZeB1LXwE_79.mp4	0.0	136.78643321990967	
27	75.13192796707153	movie	1		301.0	25.0	2.5	/experiments/knapen_aot/videos/R_S_yt-CeOZeB1LXwE_79.mp4	0.0	136.7945921421051	2.508286952972412
27	77.64021492004395	fix_post	2		12.0	25.0	2.5	/experiments/knapen_aot/videos/R_S_yt-CeOZeB1LXwE_79.mp4	0.0	139.30287909507751	0.10004091262817383
28	77.74025583267212	fix_pre	0		30.0	26.0	2.5	blank	1.0	139.4029200077057	0.24999308586120605
28	77.98202395439148	response	0	2		26.0	2.5	blank	1.0	139.64468812942505	
28	77.99024891853333	movie	1		301.0	26.0	2.5	blank	1.0	139.6529130935669	2.5083470344543457
28	80.49859595298767	fix_post	2		12.0	26.0	2.5	blank	1.0	142.16126012802124	0.09998297691345215
29	80.59857892990112	fix_pre	0		22.0	27.0	2.5	/experiments/knapen_aot/videos/S_yt-OrTpetjDNKs_31.mp4	0.0	142.2612431049347	0.18354010581970215
29	80.77374696731567	response	0	2		27.0	2.5	/experiments/knapen_aot/videos/S_yt-OrTpetjDNKs_31.mp4	0.0	142.43641114234924	
29	80.78211903572083	movie	1		301.0	27.0	2.5	/experiments/knapen_aot/videos/S_yt-OrTpetjDNKs_31.mp4	0.0	142.4447832107544	2.508147954940796
29	83.29026699066162	fix_post	2		12.0	27.0	2.5	/experiments/knapen_aot/videos/S_yt-OrTpetjDNKs_31.mp4	0.0	144.9529311656952	0.09997200965881348
30	83.39023900032043	fix_pre	0		23.0	28.0	2.5	/experiments/knapen_aot/videos/R_S_yt-bwSRV1Vr21s_435.mp4	0.0	145.052903175354	0.19203400611877441
30	83.57366991043091	response	0	2		28.0	2.5	/experiments/knapen_aot/videos/R_S_yt-bwSRV1Vr21s_435.mp4	0.0	145.23633408546448	
30	83.58227300643921	movie	1		301.0	28.0	2.5	/experiments/knapen_aot/videos/R_S_yt-bwSRV1Vr21s_435.mp4	0.0	145.24493718147278	2.507956027984619
30	86.09022903442383	fix_post	2		12.0	28.0	2.5	/experiments/knapen_aot/videos/R_S_yt-bwSRV1Vr21s_435.mp4	0.0	147.7528932094574	0.09998488426208496
31	86.19021391868591	fix_pre	0		32.0	29.0	2.5	/experiments/knapen_aot/videos/S_wc-jujp1kJRHrkJ_54.mp4	0.0	147.85287809371948	0.2670319080352783
31	86.44870591163635	response	0	2		29.0	2.5	/experiments/knapen_aot/videos/S_wc-jujp1kJRHrkJ_54.mp4	0.0	148.11137008666992	
31	86.45724582672119	movie	1		301.0	29.0	2.5	/experiments/knapen_aot/videos/S_wc-jujp1kJRHrkJ_54.mp4	0.0	148.11991000175476	2.5079731941223145
31	88.9652190208435	fix_post	2		12.0	29.0	2.5	/experiments/knapen_aot/videos/S_wc-jujp1kJRHrkJ_54.mp4	0.0	150.62788319587708	0.0999758243560791
32	89.06519484519958	fix_pre	0		22.0	30.0	2.5	/experiments/knapen_aot/videos/R_S_flickr-lamujuri-10653517683_4.mp4	0.0	150.72785902023315	0.1836531162261963
32	89.23280191421509	response	0	2		30.0	2.5	/experiments/knapen_aot/videos/R_S_flickr-lamujuri-10653517683_4.mp4	0.0	150.89546608924866	
32	89.24884796142578	movie	1		172.0	30.0	2.5	/experiments/knapen_aot/videos/R_S_flickr-lamujuri-10653517683_4.mp4	0.0	150.91151213645935	2.5080299377441406
32	91.75687789916992	fix_post	2		12.0	30.0	2.5	/experiments/knapen_aot/videos/R_S_flickr-lamujuri-10653517683_4.mp4	0.0	153.4195420742035	0.10002708435058594
33	91.85690498352051	fix_pre	0		11.0	31.0	2.5	/experiments/knapen_aot/videos/R_S_WCwb-DeQOSg_85.mp4	0.0	153.51956915855408	0.0916140079498291
33	91.94029092788696	response	0	2		31.0	2.5	/experiments/knapen_aot/videos/R_S_WCwb-DeQOSg_85.mp4	0.0	153.60295510292053	
33	91.94851899147034	movie	1		301.0	31.0	2.5	/experiments/knapen_aot/videos/R_S_WCwb-DeQOSg_85.mp4	0.0	153.6111831665039	2.5081849098205566
33	94.4567039012909	fix_post	2		12.0	31.0	2.5	/experiments/knapen_aot/videos/R_S_WCwb-DeQOSg_85.mp4	0.0	156.11936807632446	0.10006594657897949
34	94.55676984786987	fix_pre	0		23.0	32.0	2.5	/experiments/knapen_aot/videos/R_S_yt-M_ApPnq00iE_67.mp4	0.0	156.21943402290344	0.19192814826965332
34	94.74029684066772	response	0	2		32.0	2.5	/experiments/knapen_aot/videos/R_S_yt-M_ApPnq00iE_67.mp4	0.0	156.4029610157013	
34	94.74869799613953	movie	1		301.0	32.0	2.5	/experiments/knapen_aot/videos/R_S_yt-M_ApPnq00iE_67.mp4	0.0	156.4113621711731	2.5080020427703857
34	96.6736388206482	response	1	2		32.0	2.5	/experiments/knapen_aot/videos/R_S_yt-M_ApPnq00iE_67.mp4	0.0	158.33630299568176	
34	97.25670003890991	fix_post	2		12.0	32.0	2.5	/experiments/knapen_aot/videos/R_S_yt-M_ApPnq00iE_67.mp4	0.0	158.91936421394348	0.10010194778442383
35	97.35680198669434	fix_pre	0		14.0	33.0	2.5	/experiments/knapen_aot/videos/R_S_pexels-c-technical-6753390.mp4	0.0	159.0194661617279	0.1166529655456543
35	97.45765900611877	response	0	2		33.0	2.5	/experiments/knapen_aot/videos/R_S_pexels-c-technical-6753390.mp4	0.0	159.12032318115234	
35	97.47345495223999	movie	1		205.0	33.0	2.5	/experiments/knapen_aot/videos/R_S_pexels-c-technical-6753390.mp4	0.0	159.13611912727356	2.508496046066284
35	99.98195099830627	fix_post	2		12.0	33.0	2.5	/experiments/knapen_aot/videos/R_S_pexels-c-technical-6753390.mp4	0.0	161.64461517333984	0.10008597373962402
36	100.0820369720459	fix_pre	0		26.0	34.0	2.5	/experiments/knapen_aot/videos/S_yt-lzXao6Reec4_14.mp4	0.0	161.74470114707947	0.21637392044067383
36	100.29025983810425	response	0	4		34.0	2.5	/experiments/knapen_aot/videos/S_yt-lzXao6Reec4_14.mp4	0.0	161.95292401313782	
36	100.29841089248657	movie	1		301.0	34.0	2.5	/experiments/knapen_aot/videos/S_yt-lzXao6Reec4_14.mp4	0.0	161.96107506752014	2.508319139480591
36	102.80673003196716	fix_post	2		12.0	34.0	2.5	/experiments/knapen_aot/videos/S_yt-lzXao6Reec4_14.mp4	0.0	164.46939420700073	0.10003185272216797
37	102.90676188468933	fix_pre	0		16.0	35.0	2.5	blank	1.0	164.5694260597229	0.13360905647277832
37	103.03189396858215	response	0	2		35.0	2.5	blank	1.0	164.69455814361572	
37	103.04037094116211	movie	1		301.0	35.0	2.5	blank	1.0	164.70303511619568	2.508023977279663
37	105.54839491844177	fix_post	2		12.0	35.0	2.5	blank	1.0	167.21105909347534	0.09997892379760742
38	105.64837384223938	fix_pre	0		13.0	36.0	2.5	/experiments/knapen_aot/videos/R_S_yt-CeOZeB1LXwE_79.mp4	0.0	167.31103801727295	0.10836219787597656
38	105.74103999137878	response	0	2		36.0	2.5	/experiments/knapen_aot/videos/R_S_yt-CeOZeB1LXwE_79.mp4	0.0	167.40370416641235	
38	105.75673604011536	movie	1		301.0	36.0	2.5	/experiments/knapen_aot/videos/R_S_yt-CeOZeB1LXwE_79.mp4	0.0	167.41940021514893	2.508387804031372
38	108.26512384414673	fix_post	2		12.0	36.0	2.5	/experiments/knapen_aot/videos/R_S_yt-CeOZeB1LXwE_79.mp4	0.0	169.9277880191803	0.09995198249816895
39	108.3650758266449	fix_pre	0		49.0	37.0	2.5	/experiments/knapen_aot/videos/S_yt-7Fyu2vr7zbA_31.mp4	0.0	170.02774000167847	0.4083571434020996
39	108.76520204544067	response	0	2		37.0	2.5	/experiments/knapen_aot/videos/S_yt-7Fyu2vr7zbA_31.mp4	0.0	170.42786622047424	
39	108.773432970047	movie	1		301.0	37.0	2.5	/experiments/knapen_aot/videos/S_yt-7Fyu2vr7zbA_31.mp4	0.0	170.43609714508057	2.508280038833618
39	111.28171300888062	fix_post	2		12.0	37.0	2.5	/experiments/knapen_aot/videos/S_yt-7Fyu2vr7zbA_31.mp4	0.0	172.94437718391418	0.09996795654296875
40	111.38168096542358	fix_pre	0		17.0	38.0	2.5	/experiments/knapen_aot/videos/S_pexels-marcus-aurelius-6785014.mp4	0.0	173.04434514045715	0.14170503616333008
40	111.51519393920898	response	0	2		38.0	2.5	/experiments/knapen_aot/videos/S_pexels-marcus-aurelius-6785014.mp4	0.0	173.17785811424255	
40	111.52338600158691	movie	1		166.0	38.0	2.5	/experiments/knapen_aot/videos/S_pexels-marcus-aurelius-6785014.mp4	0.0	173.18605017662048	2.5083298683166504
40	114.03171586990356	fix_post	2		12.0	38.0	2.5	/experiments/knapen_aot/videos/S_pexels-marcus-aurelius-6785014.mp4	0.0	175.69438004493713	0.09997415542602539
41	114.13169002532959	fix_pre	0		18.0	39.0	2.5	/experiments/knapen_aot/videos/R_S_yt-GWOOQZ19-oU_331.mp4	0.0	175.79435420036316	0.14994096755981445
41	114.27353596687317	response	0	2		39.0	2.5	/experiments/knapen_aot/videos/R_S_yt-GWOOQZ19-oU_331.mp4	0.0	175.93620014190674	
41	114.2816309928894	movie	1		301.0	39.0	2.5	/experiments/knapen_aot/videos/R_S_yt-GWOOQZ19-oU_331.mp4	0.0	175.94429516792297	2.508544921875
41	116.7901759147644	fix_post	2		12.0	39.0	2.5	/experiments/knapen_aot/videos/R_S_yt-GWOOQZ19-oU_331.mp4	0.0	178.45284008979797	0.09994101524353027
42	116.89011693000793	fix_pre	0		20.0	40.0	2.5	/experiments/knapen_aot/videos/S_yt--jzScB82vKI_90.mp4	0.0	178.5527811050415	0.16660404205322266
42	117.04849481582642	response	0	2		40.0	2.5	/experiments/knapen_aot/videos/S_yt--jzScB82vKI_90.mp4	0.0	178.71115899085999	
42	117.05672097206116	movie	1		300.0	40.0	2.5	/experiments/knapen_aot/videos/S_yt--jzScB82vKI_90.mp4	0.0	178.71938514709473	2.50834584236145
42	119.56506681442261	fix_post	2		12.0	40.0	2.5	/experiments/knapen_aot/videos/S_yt--jzScB82vKI_90.mp4	0.0	181.22773098945618	0.10012102127075195
43	119.66518783569336	fix_pre	0		26.0	41.0	2.5	/experiments/knapen_aot/videos/R_S_yt-_6j2NXrB-zE_28.mp4	0.0	181.32785201072693	0.2164630889892578
43	119.87352204322815	response	0	2		41.0	2.5	/experiments/knapen_aot/videos/R_S_yt-_6j2NXrB-zE_28.mp4	0.0	181.53618621826172	
43	119.88165092468262	movie	1		301.0	41.0	2.5	/experiments/knapen_aot/videos/R_S_yt-_6j2NXrB-zE_28.mp4	0.0	181.5443150997162	2.5083839893341064
43	122.39003491401672	fix_post	2		12.0	41.0	2.5	/experiments/knapen_aot/videos/R_S_yt-_6j2NXrB-zE_28.mp4	0.0	184.0526990890503	0.09992098808288574
44	122.48995590209961	fix_pre	0		9.0	42.0	2.5	blank	1.0	184.15262007713318	0.07512593269348145
44	122.55684304237366	response	0	2		42.0	2.5	blank	1.0	184.21950721740723	
44	122.56508183479309	movie	1		301.0	42.0	2.5	blank	1.0	184.22774600982666	2.5082521438598633
44	125.07333397865295	fix_post	2		12.0	42.0	2.5	blank	1.0	186.73599815368652	0.09999990463256836
45	125.17333388328552	fix_pre	0		18.0	43.0	2.5	/experiments/knapen_aot/videos/S_ILSVRC2015_train_00042003.mp4	0.0	186.8359980583191	0.1499650478363037
45	125.31509399414062	response	0	2		43.0	2.5	/experiments/knapen_aot/videos/S_ILSVRC2015_train_00042003.mp4	0.0	186.9777581691742	
45	125.32329893112183	movie	1		301.0	43.0	2.5	/experiments/knapen_aot/videos/S_ILSVRC2015_train_00042003.mp4	0.0	186.9859631061554	2.50846791267395
45	127.83176684379578	fix_post	2		12.0	43.0	2.5	/experiments/knapen_aot/videos/S_ILSVRC2015_train_00042003.mp4	0.0	189.49443101882935	0.09990119934082031
46	127.9316680431366	fix_pre	0		24.0	44.0	2.5	/experiments/knapen_aot/videos/S_video.mp4	0.0	189.59433221817017	0.1999988555908203
46	128.1234369277954	response	0	2		44.0	2.5	/experiments/knapen_aot/videos/S_video.mp4	0.0	189.78610110282898	
46	128.13166689872742	movie	1		168.0	44.0	2.5	/experiments/knapen_aot/videos/S_video.mp4	0.0	189.794331073761	2.508341073989868
46	130.64000797271729	fix_post	2		12.0	44.0	2.5	/experiments/knapen_aot/videos/S_video.mp4	0.0	192.30267214775085	0.10003089904785156
47	130.74003887176514	fix_pre	0		3.0	45.0	2.5	/experiments/knapen_aot/videos/R_S_production_ID_4820325.mp4	0.0	192.4027030467987	0.025036096572875977
47	130.75686287879944	response	0	2		45.0	2.5	/experiments/knapen_aot/videos/R_S_production_ID_4820325.mp4	0.0	192.419527053833	
47	130.765074968338	movie	1		173.0	45.0	2.5	/experiments/knapen_aot/videos/R_S_production_ID_4820325.mp4	0.0	192.42773914337158	2.5082969665527344
47	133.27337193489075	fix_post	2		12.0	45.0	2.5	/experiments/knapen_aot/videos/R_S_production_ID_4820325.mp4	0.0	194.93603610992432	0.10002803802490234
47	133.3652229309082	response	2	2		45.0	2.5	/experiments/knapen_aot/videos/R_S_production_ID_4820325.mp4	0.0	195.02788710594177	
48	133.37339997291565	fix_pre	0		101.0	46.0	2.5	/experiments/knapen_aot/videos/S_yt-mQESmS4uqRU_208.mp4	0.0	195.03606414794922	0.8414888381958008
48	134.19911003112793	response	0	2		46.0	2.5	/experiments/knapen_aot/videos/S_yt-mQESmS4uqRU_208.mp4	0.0	195.8617742061615	
48	134.21488881111145	movie	1		301.0	46.0	2.5	/experiments/knapen_aot/videos/S_yt-mQESmS4uqRU_208.mp4	0.0	195.87755298614502	2.50846004486084
48	136.7233488559723	fix_post	2		12.0	46.0	2.5	/experiments/knapen_aot/videos/S_yt-mQESmS4uqRU_208.mp4	0.0	198.38601303100586	0.09999513626098633
49	136.82334399223328	fix_pre	0		50.0	47.0	2.5	/experiments/knapen_aot/videos/S_yt-b7JAHOeiTqU_44.mp4	0.0	198.48600816726685	0.4180018901824951
49	137.23174285888672	response	0	2		47.0	2.5	/experiments/knapen_aot/videos/S_yt-b7JAHOeiTqU_44.mp4	0.0	198.8944070339203	
49	137.24134588241577	movie	1		301.0	47.0	2.5	/experiments/knapen_aot/videos/S_yt-b7JAHOeiTqU_44.mp4	0.0	198.90401005744934	2.506981134414673
49	139.74832701683044	fix_post	2		12.0	47.0	2.5	/experiments/knapen_aot/videos/S_yt-b7JAHOeiTqU_44.mp4	0.0	201.410991191864	0.09993290901184082
50	139.84825992584229	fix_pre	0		23.0	48.0	2.5	/experiments/knapen_aot/videos/S_yt-s73Xqkcq9Js_285.mp4	0.0	201.51092410087585	0.19171690940856934
50	140.03171396255493	response	0	2		48.0	2.5	/experiments/knapen_aot/videos/S_yt-s73Xqkcq9Js_285.mp4	0.0	201.6943781375885	
50	140.03997683525085	movie	1		301.0	48.0	2.5	/experiments/knapen_aot/videos/S_yt-s73Xqkcq9Js_285.mp4	0.0	201.70264101028442	2.508310079574585
50	142.54828691482544	fix_post	2		12.0	48.0	2.5	/experiments/knapen_aot/videos/S_yt-s73Xqkcq9Js_285.mp4	0.0	204.210951089859	0.09996795654296875
51	142.6482548713684	fix_pre	0		60.0	49.0	2.5	blank	1.0	204.31091904640198	0.499967098236084
51	143.1400179862976	response	0	2		49.0	2.5	blank	1.0	204.80268216133118	
51	143.1482219696045	movie	1		301.0	49.0	2.5	blank	1.0	204.81088614463806	2.508358955383301
51	145.6565809249878	fix_post	2		12.0	49.0	2.5	blank	1.0	207.31924510002136	0.10004901885986328
52	145.75662994384766	fix_pre	0		17.0	50.0	2.5	/experiments/knapen_aot/videos/R_S_comp_DB_D011_C010_PSNK_DENOISE_v19_SDR_PS_20180914_SDR_2K_AVC.mp4	0.0	207.41929411888123	0.14166688919067383
52	145.88995790481567	response	0	2		50.0	2.5	/experiments/knapen_aot/videos/R_S_comp_DB_D011_C010_PSNK_DENOISE_v19_SDR_PS_20180914_SDR_2K_AVC.mp4	0.0	207.55262207984924	
52	145.89829683303833	movie	1		168.0	50.0	2.5	/experiments/knapen_aot/videos/R_S_comp_DB_D011_C010_PSNK_DENOISE_v19_SDR_PS_20180914_SDR_2K_AVC.mp4	0.0	207.5609610080719	2.5083000659942627
52	148.4065968990326	fix_post	2		12.0	50.0	2.5	/experiments/knapen_aot/videos/R_S_comp_DB_D011_C010_PSNK_DENOISE_v19_SDR_PS_20180914_SDR_2K_AVC.mp4	0.0	210.06926107406616	0.09997105598449707
53	148.5065679550171	fix_pre	0		11.0	51.0	2.5	/experiments/knapen_aot/videos/S_yt-GWOOQZ19-oU_331.mp4	0.0	210.16923213005066	0.09165406227111816
53	148.5899920463562	response	0	2		51.0	2.5	/experiments/knapen_aot/videos/S_yt-GWOOQZ19-oU_331.mp4	0.0	210.25265622138977	
53	148.5982220172882	movie	1		301.0	51.0	2.5	/experiments/knapen_aot/videos/S_yt-GWOOQZ19-oU_331.mp4	0.0	210.26088619232178	2.508396863937378
53	151.1066188812256	fix_post	2		12.0	51.0	2.5	/experiments/knapen_aot/videos/S_yt-GWOOQZ19-oU_331.mp4	0.0	212.76928305625916	0.0999290943145752
54	151.20654797554016	fix_pre	0		44.0	52.0	2.5	/experiments/knapen_aot/videos/R_S_yt-e_eOzV7qMZo_374.mp4	0.0	212.86921215057373	0.3680729866027832
54	151.56509494781494	response	0	2		52.0	2.5	/experiments/knapen_aot/videos/R_S_yt-e_eOzV7qMZo_374.mp4	0.0	213.2277591228485	
54	151.57462096214294	movie	1		301.0	52.0	2.5	/experiments/knapen_aot/videos/R_S_yt-e_eOzV7qMZo_374.mp4	0.0	213.2372851371765	2.506945848464966
54	154.0815668106079	fix_post	2		12.0	52.0	2.5	/experiments/knapen_aot/videos/R_S_yt-e_eOzV7qMZo_374.mp4	0.0	215.74423098564148	0.1000070571899414
55	154.18157386779785	fix_pre	0		24.0	53.0	2.5	/experiments/knapen_aot/videos/S_yt-pbFpqAQJCJo_149.mp4	0.0	215.84423804283142	0.19997096061706543
55	154.37332582473755	response	0	2		53.0	2.5	/experiments/knapen_aot/videos/S_yt-pbFpqAQJCJo_149.mp4	0.0	216.03598999977112	
55	154.38154482841492	movie	1		301.0	53.0	2.5	/experiments/knapen_aot/videos/S_yt-pbFpqAQJCJo_149.mp4	0.0	216.0442090034485	2.508362054824829
55	156.88990688323975	fix_post	2		12.0	53.0	2.5	/experiments/knapen_aot/videos/S_yt-pbFpqAQJCJo_149.mp4	0.0	218.55257105827332	0.100067138671875
56	156.98997402191162	fix_pre	0		60.0	54.0	2.5	blank	1.0	218.6526381969452	0.4999208450317383
56	157.48168683052063	response	0	2		54.0	2.5	blank	1.0	219.1443510055542	
56	157.48989486694336	movie	1		301.0	54.0	2.5	blank	1.0	219.15255904197693	2.508286952972412
56	159.99818181991577	fix_post	2		12.0	54.0	2.5	blank	1.0	221.66084599494934	0.10002899169921875
57	160.098210811615	fix_pre	0		29.0	55.0	2.5	/experiments/knapen_aot/videos/S_ILSVRC2015_train_00632002.mp4	0.0	221.76087498664856	0.24165821075439453
57	160.33164882659912	response	0	2		55.0	2.5	/experiments/knapen_aot/videos/S_ILSVRC2015_train_00632002.mp4	0.0	221.9943130016327	
57	160.33986902236938	movie	1		299.0	55.0	2.5	/experiments/knapen_aot/videos/S_ILSVRC2015_train_00632002.mp4	0.0	222.00253319740295	2.508363962173462
57	162.84823298454285	fix_post	2		12.0	55.0	2.5	/experiments/knapen_aot/videos/S_ILSVRC2015_train_00632002.mp4	0.0	224.51089715957642	0.09995102882385254
58	162.9481840133667	fix_pre	0		9.0	56.0	2.5	/experiments/knapen_aot/videos/R_S_yt-aiDGx4AN8J0_9.mp4	0.0	224.61084818840027	0.0749509334564209
58	163.01490187644958	response	0	2		56.0	2.5	/experiments/knapen_aot/videos/R_S_yt-aiDGx4AN8J0_9.mp4	0.0	224.67756605148315	
58	163.02313494682312	movie	1		301.0	56.0	2.5	/experiments/knapen_aot/videos/R_S_yt-aiDGx4AN8J0_9.mp4	0.0	224.6857991218567	2.508401870727539
58	165.53153681755066	fix_post	2		12.0	56.0	2.5	/experiments/knapen_aot/videos/R_S_yt-aiDGx4AN8J0_9.mp4	0.0	227.19420099258423	0.09999704360961914
59	165.63153386116028	fix_pre	0		23.0	57.0	2.5	/experiments/knapen_aot/videos/R_S_yt-yAtHuDsadu8_102.mp4	0.0	227.29419803619385	0.19163107872009277
59	165.81496787071228	response	0	2		57.0	2.5	/experiments/knapen_aot/videos/R_S_yt-yAtHuDsadu8_102.mp4	0.0	227.47763204574585	
59	165.82316493988037	movie	1		301.0	57.0	2.5	/experiments/knapen_aot/videos/R_S_yt-yAtHuDsadu8_102.mp4	0.0	227.48582911491394	2.508291006088257
59	168.33145594596863	fix_post	2		12.0	57.0	2.5	/experiments/knapen_aot/videos/R_S_yt-yAtHuDsadu8_102.mp4	0.0	229.9941201210022	0.1000518798828125
60	168.43150782585144	fix_pre	0		27.0	58.0	2.5	/experiments/knapen_aot/videos/S_yt-H611SOb1T78_189.mp4	0.0	230.094172000885	0.22498798370361328
60	168.64078497886658	response	0	2		58.0	2.5	/experiments/knapen_aot/videos/S_yt-H611SOb1T78_189.mp4	0.0	230.30344915390015	
60	168.65649580955505	movie	1		301.0	58.0	2.5	/experiments/knapen_aot/videos/S_yt-H611SOb1T78_189.mp4	0.0	230.31915998458862	2.5083701610565186
60	171.16486597061157	fix_post	2		12.0	58.0	2.5	/experiments/knapen_aot/videos/S_yt-H611SOb1T78_189.mp4	0.0	232.82753014564514	0.09997296333312988
61	171.2648389339447	fix_pre	0		15.0	59.0	2.5	/experiments/knapen_aot/videos/S_yt-CeOZeB1LXwE_79.mp4	0.0	232.92750310897827	0.12500500679016113
61	171.38161993026733	response	0	2		59.0	2.5	/experiments/knapen_aot/videos/S_yt-CeOZeB1LXwE_79.mp4	0.0	233.0442841053009	
61	171.38984394073486	movie	1		301.0	59.0	2.5	/experiments/knapen_aot/videos/S_yt-CeOZeB1LXwE_79.mp4	0.0	233.05250811576843	2.5083320140838623
61	173.89817595481873	fix_post	2		12.0	59.0	2.5	/experiments/knapen_aot/videos/S_yt-CeOZeB1LXwE_79.mp4	0.0	235.5608401298523	0.10000991821289062
62	173.99818587303162	fix_pre	0		39.0	60.0	2.5	/experiments/knapen_aot/videos/S_yt-1RVw8p6Dw2Q_20.mp4	0.0	235.66085004806519	0.32618212699890137
62	174.31498789787292	response	0	2		60.0	2.5	/experiments/knapen_aot/videos/S_yt-1RVw8p6Dw2Q_20.mp4	0.0	235.9776520729065	
62	174.32436800003052	movie	1		298.0	60.0	2.5	/experiments/knapen_aot/videos/S_yt-1RVw8p6Dw2Q_20.mp4	0.0	235.9870321750641	2.5070579051971436
62	176.83142590522766	fix_post	2		12.0	60.0	2.5	/experiments/knapen_aot/videos/S_yt-1RVw8p6Dw2Q_20.mp4	0.0	238.49409008026123	0.10003209114074707
63	176.9314579963684	fix_pre	0		28.0	61.0	2.5	blank	1.0	238.59412217140198	0.23332691192626953
63	177.15660881996155	response	0	2		61.0	2.5	blank	1.0	238.81927299499512	
63	177.16478490829468	movie	1		301.0	61.0	2.5	blank	1.0	238.82744908332825	2.5082781314849854
63	179.67306303977966	fix_post	2		12.0	61.0	2.5	blank	1.0	241.33572721481323	0.1000068187713623
64	179.77306985855103	fix_pre	0		40.0	62.0	2.5	/experiments/knapen_aot/videos/S_yt-25xuzTBhwPk_109.mp4	0.0	241.4357340335846	0.33333706855773926
64	180.09821796417236	response	0	2		62.0	2.5	/experiments/knapen_aot/videos/S_yt-25xuzTBhwPk_109.mp4	0.0	241.76088213920593	
64	180.10640692710876	movie	1		301.0	62.0	2.5	/experiments/knapen_aot/videos/S_yt-25xuzTBhwPk_109.mp4	0.0	241.76907110214233	2.508341073989868
64	182.61474800109863	fix_post	2		12.0	62.0	2.5	/experiments/knapen_aot/videos/S_yt-25xuzTBhwPk_109.mp4	0.0	244.2774121761322	0.09999895095825195
65	182.71474695205688	fix_pre	0		8.0	63.0	2.5	/experiments/knapen_aot/videos/S_PA_A004_C003_SDR_20190719_SDR_2K_AVC.mp4	0.0	244.37741112709045	0.06789994239807129
65	182.77326703071594	response	0	2		63.0	2.5	/experiments/knapen_aot/videos/S_PA_A004_C003_SDR_20190719_SDR_2K_AVC.mp4	0.0	244.4359312057495	
65	182.78264689445496	movie	1		170.0	63.0	2.5	/experiments/knapen_aot/videos/S_PA_A004_C003_SDR_20190719_SDR_2K_AVC.mp4	0.0	244.44531106948853	2.507193088531494
65	185.28983998298645	fix_post	2		12.0	63.0	2.5	/experiments/knapen_aot/videos/S_PA_A004_C003_SDR_20190719_SDR_2K_AVC.mp4	0.0	246.95250415802002	0.09994387626647949
66	185.38978385925293	fix_pre	0		35.0	64.0	2.5	/experiments/knapen_aot/videos/S_pexels-polina-tankilevitch-8203088.mp4	0.0	247.0524480342865	0.29164695739746094
66	185.66569781303406	response	0	2		64.0	2.5	/experiments/knapen_aot/videos/S_pexels-polina-tankilevitch-8203088.mp4	0.0	247.32836198806763	
66	185.6814308166504	movie	1		167.0	64.0	2.5	/experiments/knapen_aot/videos/S_pexels-polina-tankilevitch-8203088.mp4	0.0	247.34409499168396	2.508261203765869
66	188.18969202041626	fix_post	2		12.0	64.0	2.5	/experiments/knapen_aot/videos/S_pexels-polina-tankilevitch-8203088.mp4	0.0	249.85235619544983	0.1000518798828125
67	188.28974390029907	fix_pre	0		12.0	65.0	2.5	/experiments/knapen_aot/videos/S_yt-VjTiMtjdjTw_103.mp4	0.0	249.95240807533264	0.09993600845336914
67	188.38151288032532	response	0	2		65.0	2.5	/experiments/knapen_aot/videos/S_yt-VjTiMtjdjTw_103.mp4	0.0	250.0441770553589	
67	188.38967990875244	movie	1		300.0	65.0	2.5	/experiments/knapen_aot/videos/S_yt-VjTiMtjdjTw_103.mp4	0.0	250.052344083786	2.508362054824829
67	190.89804196357727	fix_post	2		12.0	65.0	2.5	/experiments/knapen_aot/videos/S_yt-VjTiMtjdjTw_103.mp4	0.0	252.56070613861084	0.10002803802490234
68	190.99807000160217	fix_pre	0		28.0	66.0	2.5	/experiments/knapen_aot/videos/R_S_production_ID_3761571.mp4	0.0	252.66073417663574	0.2332170009613037
68	191.223210811615	response	0	2		66.0	2.5	/experiments/knapen_aot/videos/R_S_production_ID_3761571.mp4	0.0	252.88587498664856	
68	191.23128700256348	movie	1		165.0	66.0	2.5	/experiments/knapen_aot/videos/R_S_production_ID_3761571.mp4	0.0	252.89395117759705	2.5083959102630615
68	193.73968291282654	fix_post	2		12.0	66.0	2.5	/experiments/knapen_aot/videos/R_S_production_ID_3761571.mp4	0.0	255.4023470878601	0.09992599487304688
69	193.83960890769958	fix_pre	0		57.0	67.0	2.5	/experiments/knapen_aot/videos/S_yt-Ol4xuEA8xQc_776.mp4	0.0	255.50227308273315	0.4750230312347412
69	194.3065140247345	response	0	2		67.0	2.5	/experiments/knapen_aot/videos/S_yt-Ol4xuEA8xQc_776.mp4	0.0	255.96917819976807	
69	194.31463193893433	movie	1		301.0	67.0	2.5	/experiments/knapen_aot/videos/S_yt-Ol4xuEA8xQc_776.mp4	0.0	255.9772961139679	2.5083088874816895
69	196.82294082641602	fix_post	2		12.0	67.0	2.5	/experiments/knapen_aot/videos/S_yt-Ol4xuEA8xQc_776.mp4	0.0	258.4856050014496	0.10005807876586914
70	196.92299890518188	fix_pre	0		21.0	68.0	2.5	/experiments/knapen_aot/videos/S_yt-9NV8zv2Sdq4_30.mp4	0.0	258.58566308021545	0.17494511604309082
70	197.08982300758362	response	0	2		68.0	2.5	/experiments/knapen_aot/videos/S_yt-9NV8zv2Sdq4_30.mp4	0.0	258.7524871826172	
70	197.09794402122498	movie	1		301.0	68.0	2.5	/experiments/knapen_aot/videos/S_yt-9NV8zv2Sdq4_30.mp4	0.0	258.76060819625854	2.508435010910034
70	199.606379032135	fix_post	2		12.0	68.0	2.5	/experiments/knapen_aot/videos/S_yt-9NV8zv2Sdq4_30.mp4	0.0	261.2690432071686	0.09999895095825195
71	199.70637798309326	fix_pre	0		157.0	69.0	2.5	/experiments/knapen_aot/videos/R_S_ILSVRC2015_train_00549000.mp4	0.0	261.36904215812683	1.308258056640625
71	201.00652599334717	response	0	2		69.0	2.5	/experiments/knapen_aot/videos/R_S_ILSVRC2015_train_00549000.mp4	0.0	262.66919016838074	
71	201.0146360397339	movie	1		301.0	69.0	2.5	/experiments/knapen_aot/videos/R_S_ILSVRC2015_train_00549000.mp4	0.0	262.67730021476746	2.5083987712860107
71	203.5230348110199	fix_post	2		12.0	69.0	2.5	/experiments/knapen_aot/videos/R_S_ILSVRC2015_train_00549000.mp4	0.0	265.18569898605347	0.09998106956481934
72	203.62301588058472	fix_pre	0		33.0	70.0	2.5	blank	1.0	265.2856800556183	0.2748899459838867
72	203.88973999023438	response	0	2		70.0	2.5	blank	1.0	265.55240416526794	
72	203.8979058265686	movie	1		301.0	70.0	2.5	blank	1.0	265.5605700016022	2.5083870887756348
72	206.40629291534424	fix_post	2		12.0	70.0	2.5	blank	1.0	268.0689570903778	0.10005307197570801
73	206.50634598731995	fix_pre	0		92.0	71.0	2.5	/experiments/knapen_aot/videos/R_S_yt-NLfzvAJgyJ4_120.mp4	0.0	268.1690101623535	0.7665979862213135
73	207.264741897583	response	0	2		71.0	2.5	/experiments/knapen_aot/videos/R_S_yt-NLfzvAJgyJ4_120.mp4	0.0	268.9274060726166	
73	207.27294397354126	movie	1		301.0	71.0	2.5	/experiments/knapen_aot/videos/R_S_yt-NLfzvAJgyJ4_120.mp4	0.0	268.93560814857483	2.5083818435668945
73	209.78132581710815	fix_post	2		12.0	71.0	2.5	/experiments/knapen_aot/videos/R_S_yt-NLfzvAJgyJ4_120.mp4	0.0	271.4439899921417	0.10002517700195312
74	209.8813509941101	fix_pre	0		9.0	72.0	2.5	/experiments/knapen_aot/videos/S_production_ID_4765899.mp4	0.0	271.5440151691437	0.07494091987609863
74	209.94811296463013	response	0	2		72.0	2.5	/experiments/knapen_aot/videos/S_production_ID_4765899.mp4	0.0	271.6107771396637	
74	209.9562919139862	movie	1		168.0	72.0	2.5	/experiments/knapen_aot/videos/S_production_ID_4765899.mp4	0.0	271.6189560890198	2.5084049701690674
74	212.46469688415527	fix_post	2		12.0	72.0	2.5	/experiments/knapen_aot/videos/S_production_ID_4765899.mp4	0.0	274.12736105918884	0.10003805160522461
75	212.5647349357605	fix_pre	0		26.0	73.0	2.5	/experiments/knapen_aot/videos/R_S_yt-14tjqjjjAEI_15.mp4	0.0	274.22739911079407	0.21765494346618652
75	212.77314400672913	response	0	2		73.0	2.5	/experiments/knapen_aot/videos/R_S_yt-14tjqjjjAEI_15.mp4	0.0	274.4358081817627	
75	212.78238987922668	movie	1		301.0	73.0	2.5	/experiments/knapen_aot/videos/R_S_yt-14tjqjjjAEI_15.mp4	0.0	274.44505405426025	2.5072760581970215
75	215.2896659374237	fix_post	2		12.0	73.0	2.5	/experiments/knapen_aot/videos/R_S_yt-14tjqjjjAEI_15.mp4	0.0	276.9523301124573	0.10001802444458008
76	215.3896839618683	fix_pre	0		29.0	74.0	2.5	/experiments/knapen_aot/videos/R_S_TYs22gin-EU_57.mp4	0.0	277.05234813690186	0.24170589447021484
76	215.62313389778137	response	0	2		74.0	2.5	/experiments/knapen_aot/videos/R_S_TYs22gin-EU_57.mp4	0.0	277.28579807281494	
76	215.6313898563385	movie	1		301.0	74.0	2.5	/experiments/knapen_aot/videos/R_S_TYs22gin-EU_57.mp4	0.0	277.29405403137207	2.50823712348938
76	218.13962697982788	fix_post	2		12.0	74.0	2.5	/experiments/knapen_aot/videos/R_S_TYs22gin-EU_57.mp4	0.0	279.80229115486145	0.09995889663696289
77	218.23958587646484	fix_pre	0		19.0	75.0	2.5	blank	1.0	279.9022500514984	0.15831494331359863
77	218.38970804214478	response	0	2		75.0	2.5	blank	1.0	280.05237221717834	
77	218.39790081977844	movie	1		301.0	75.0	2.5	blank	1.0	280.060564994812	2.5083510875701904
77	220.90625190734863	fix_post	2		12.0	75.0	2.5	blank	1.0	282.5689160823822	0.09999608993530273
78	221.00624799728394	fix_pre	0		44.0	76.0	2.5	/experiments/knapen_aot/videos/R_S_ILSVRC2015_train_00042003.mp4	0.0	282.6689121723175	0.3666818141937256
78	221.36486887931824	response	0	2		76.0	2.5	/experiments/knapen_aot/videos/R_S_ILSVRC2015_train_00042003.mp4	0.0	283.0275330543518	
78	221.37292981147766	movie	1		301.0	76.0	2.5	/experiments/knapen_aot/videos/R_S_ILSVRC2015_train_00042003.mp4	0.0	283.03559398651123	2.508261203765869
78	223.88119101524353	fix_post	2		12.0	76.0	2.5	/experiments/knapen_aot/videos/R_S_ILSVRC2015_train_00042003.mp4	0.0	285.5438551902771	0.10001802444458008
79	223.9812090396881	fix_pre	0		7.0	77.0	2.5	/experiments/knapen_aot/videos/R_S_yt-rPYBHkUEwwc_10.mp4	0.0	285.6438732147217	0.05835080146789551
79	224.0313458442688	response	0	2		77.0	2.5	/experiments/knapen_aot/videos/R_S_yt-rPYBHkUEwwc_10.mp4	0.0	285.69401001930237	
79	224.039559841156	movie	1		300.0	77.0	2.5	/experiments/knapen_aot/videos/R_S_yt-rPYBHkUEwwc_10.mp4	0.0	285.7022240161896	2.508345127105713
79	226.54790496826172	fix_post	2		12.0	77.0	2.5	/experiments/knapen_aot/videos/R_S_yt-rPYBHkUEwwc_10.mp4	0.0	288.2105691432953	0.09993290901184082
80	226.64783787727356	fix_pre	0		38.0	78.0	2.5	/experiments/knapen_aot/videos/S_video-6.mp4	0.0	288.31050205230713	0.3167130947113037
80	226.9563648700714	response	0	2		78.0	2.5	/experiments/knapen_aot/videos/S_video-6.mp4	0.0	288.619029045105	
80	226.96455097198486	movie	1		169.0	78.0	2.5	/experiments/knapen_aot/videos/S_video-6.mp4	0.0	288.62721514701843	2.508347988128662
80	229.47289896011353	fix_post	2		12.0	78.0	2.5	/experiments/knapen_aot/videos/S_video-6.mp4	0.0	291.1355631351471	0.10000395774841309
81	229.57290291786194	fix_pre	0		26.0	79.0	2.5	/experiments/knapen_aot/videos/R_S_pexels-rodnae-productions-5993671.mp4	0.0	291.2355670928955	0.21662211418151855
81	229.78141498565674	response	0	2		79.0	2.5	/experiments/knapen_aot/videos/R_S_pexels-rodnae-productions-5993671.mp4	0.0	291.4440791606903	
81	229.78952503204346	movie	1		165.0	79.0	2.5	/experiments/knapen_aot/videos/R_S_pexels-rodnae-productions-5993671.mp4	0.0	291.452189207077	2.5083489418029785
81	232.29787397384644	fix_post	2		12.0	79.0	2.5	/experiments/knapen_aot/videos/R_S_pexels-rodnae-productions-5993671.mp4	0.0	293.96053814888	0.10004401206970215
82	232.39791798591614	fix_pre	0		34.0	80.0	2.5	/experiments/knapen_aot/videos/S_yt-4BAsE47kJNk_88.mp4	0.0	294.0605821609497	0.28328394889831543
82	232.67307090759277	response	0	2		80.0	2.5	/experiments/knapen_aot/videos/S_yt-4BAsE47kJNk_88.mp4	0.0	294.33573508262634	
82	232.68120193481445	movie	1		301.0	80.0	2.5	/experiments/knapen_aot/videos/S_yt-4BAsE47kJNk_88.mp4	0.0	294.343866109848	2.508413076400757
82	235.1896150112152	fix_post	2		12.0	80.0	2.5	/experiments/knapen_aot/videos/S_yt-4BAsE47kJNk_88.mp4	0.0	296.8522791862488	0.09997296333312988
83	235.28958797454834	fix_pre	0		32.0	81.0	2.5	/experiments/knapen_aot/videos/R_S_pexels-c-technical-6753390.mp4	0.0	296.9522521495819	0.2666149139404297
83	235.54803586006165	response	0	2		81.0	2.5	/experiments/knapen_aot/videos/R_S_pexels-c-technical-6753390.mp4	0.0	297.2107000350952	
83	235.55620288848877	movie	1		181.0	81.0	2.5	/experiments/knapen_aot/videos/R_S_pexels-c-technical-6753390.mp4	0.0	297.21886706352234	2.508384943008423
83	238.0645878314972	fix_post	2		12.0	81.0	2.5	/experiments/knapen_aot/videos/R_S_pexels-c-technical-6753390.mp4	0.0	299.72725200653076	0.09997415542602539
84	238.16456198692322	fix_pre	0		25.0	82.0	2.5	blank	1.0	299.8272261619568	0.20833182334899902
84	238.3646810054779	response	0	2		82.0	2.5	blank	1.0	300.0273451805115	
84	238.37289381027222	movie	1		301.0	82.0	2.5	blank	1.0	300.0355579853058	2.5082311630249023
84	240.88112497329712	fix_post	2		12.0	82.0	2.5	blank	1.0	302.5437891483307	0.10010290145874023
85	240.98122787475586	fix_pre	0		49.0	83.0	2.5	/experiments/knapen_aot/videos/R_S_bing-vimeo_com_161378598_22.mp4	0.0	302.64389204978943	0.408297061920166
85	241.38135600090027	response	0	2		83.0	2.5	/experiments/knapen_aot/videos/R_S_bing-vimeo_com_161378598_22.mp4	0.0	303.04402017593384	
85	241.38952493667603	movie	1		169.0	83.0	2.5	/experiments/knapen_aot/videos/R_S_bing-vimeo_com_161378598_22.mp4	0.0	303.0521891117096	2.5083119869232178
85	243.89783692359924	fix_post	2		12.0	83.0	2.5	/experiments/knapen_aot/videos/R_S_bing-vimeo_com_161378598_22.mp4	0.0	305.5605010986328	0.10006904602050781
85	243.9647159576416	response	2	2		83.0	2.5	/experiments/knapen_aot/videos/R_S_bing-vimeo_com_161378598_22.mp4	0.0	305.62738013267517	
87	243.99790596961975	stim	0		443.0					305.6605701446533	3.6938869953155518
87	247.6834180355072	response	0	space						309.34608221054077	
