trial_nr	onset	event_type	phase	response	nr_frames	movie_index	movie_duration	movie_file	blank	onset_abs	duration
0	0.12509608268737793	stim	0		92.0					87.88107109069824	0.7646138668060303
0	0.8821160793304443	response	0	space						88.63809108734131	
1	0.8897099494934082	stim	0		121.0					88.64568495750427	1.0079259872436523
1	1.8976359367370605	stim	1		120.0					89.65361094474792	1.0000109672546387
2	2.897646903991699	fix_pre	0		67.0	0.0	2.5	/experiments/knapen_aot/videos/R_S_yt-r2jZ0zZrqzQ_45.mp4	0.0	90.65362191200256	0.5582561492919922
2	3.4478280544281006	response	0	space		0.0	2.5	/experiments/knapen_aot/videos/R_S_yt-r2jZ0zZrqzQ_45.mp4	0.0	91.20380306243896	
2	3.4559030532836914	movie	1		300.0	0.0	2.5	/experiments/knapen_aot/videos/R_S_yt-r2jZ0zZrqzQ_45.mp4	0.0	91.21187806129456	2.508409023284912
2	5.9643120765686035	fix_post	2		12.0	0.0	2.5	/experiments/knapen_aot/videos/R_S_yt-r2jZ0zZrqzQ_45.mp4	0.0	93.72028708457947	0.10001587867736816
3	6.064327955245972	fix_pre	0		16.0	1.0	2.5	/experiments/knapen_aot/videos/R_S_ux8Mvi8P16k_168.mp4	0.0	93.82030296325684	0.1366739273071289
3	6.193428039550781	response	0	2		1.0	2.5	/experiments/knapen_aot/videos/R_S_ux8Mvi8P16k_168.mp4	0.0	93.94940304756165	
3	6.201001882553101	movie	1		300.0	1.0	2.5	/experiments/knapen_aot/videos/R_S_ux8Mvi8P16k_168.mp4	0.0	93.95697689056396	2.5050032138824463
3	8.706005096435547	fix_post	2		12.0	1.0	2.5	/experiments/knapen_aot/videos/R_S_ux8Mvi8P16k_168.mp4	0.0	96.46198010444641	0.09989690780639648
4	8.805902004241943	fix_pre	0		15.0	2.0	2.5	/experiments/knapen_aot/videos/R_S_ILSVRC2015_train_00524006.mp4	0.0	96.56187701225281	0.12506699562072754
4	8.915185928344727	response	0	2		2.0	2.5	/experiments/knapen_aot/videos/R_S_ILSVRC2015_train_00524006.mp4	0.0	96.67116093635559	
4	8.930968999862671	movie	1		301.0	2.0	2.5	/experiments/knapen_aot/videos/R_S_ILSVRC2015_train_00524006.mp4	0.0	96.68694400787354	2.5083420276641846
4	11.439311027526855	fix_post	2		12.0	2.0	2.5	/experiments/knapen_aot/videos/R_S_ILSVRC2015_train_00524006.mp4	0.0	99.19528603553772	0.10000300407409668
5	11.539314031600952	fix_pre	0		15.0	3.0	2.5	/experiments/knapen_aot/videos/R_S_ILSVRC2015_train_00587000.mp4	0.0	99.29528903961182	0.12494993209838867
5	11.656061887741089	response	0	2		3.0	2.5	/experiments/knapen_aot/videos/R_S_ILSVRC2015_train_00587000.mp4	0.0	99.41203689575195	
5	11.66426396369934	movie	1		301.0	3.0	2.5	/experiments/knapen_aot/videos/R_S_ILSVRC2015_train_00587000.mp4	0.0	99.4202389717102	2.508341073989868
5	14.172605037689209	fix_post	2		12.0	3.0	2.5	/experiments/knapen_aot/videos/R_S_ILSVRC2015_train_00587000.mp4	0.0	101.92858004570007	0.10006594657897949
6	14.272670984268188	fix_pre	0		27.0	4.0	2.5	/experiments/knapen_aot/videos/S_yt-tMP5WhHMtWE_55.mp4	0.0	102.02864599227905	0.22498512268066406
6	14.489425897598267	response	0	2		4.0	2.5	/experiments/knapen_aot/videos/S_yt-tMP5WhHMtWE_55.mp4	0.0	102.24540090560913	
6	14.497656106948853	movie	1		301.0	4.0	2.5	/experiments/knapen_aot/videos/S_yt-tMP5WhHMtWE_55.mp4	0.0	102.25363111495972	2.5082569122314453
6	17.005913019180298	fix_post	2		12.0	4.0	2.5	/experiments/knapen_aot/videos/S_yt-tMP5WhHMtWE_55.mp4	0.0	104.76188802719116	0.10003209114074707
7	17.105945110321045	fix_pre	0		26.0	5.0	2.5	/experiments/knapen_aot/videos/R_S_yt-r2jZ0zZrqzQ_45.mp4	0.0	104.86192011833191	0.21664977073669434
7	17.31439709663391	response	0	2		5.0	2.5	/experiments/knapen_aot/videos/R_S_yt-r2jZ0zZrqzQ_45.mp4	0.0	105.07037210464478	
7	17.32259488105774	movie	1		301.0	5.0	2.5	/experiments/knapen_aot/videos/R_S_yt-r2jZ0zZrqzQ_45.mp4	0.0	105.0785698890686	2.508315086364746
7	19.830909967422485	fix_post	2		12.0	5.0	2.5	/experiments/knapen_aot/videos/R_S_yt-r2jZ0zZrqzQ_45.mp4	0.0	107.58688497543335	0.09997797012329102
8	19.930887937545776	fix_pre	0		3.0	6.0	2.5	/experiments/knapen_aot/videos/R_S_yt-_7HJhRPVmHw_255.mp4	0.0	107.68686294555664	0.027178049087524414
8	19.947834968566895	response	0	2		6.0	2.5	/experiments/knapen_aot/videos/R_S_yt-_7HJhRPVmHw_255.mp4	0.0	107.70380997657776	
8	19.9580659866333	movie	1		301.0	6.0	2.5	/experiments/knapen_aot/videos/R_S_yt-_7HJhRPVmHw_255.mp4	0.0	107.71404099464417	2.50620698928833
8	22.46427297592163	fix_post	2		12.0	6.0	2.5	/experiments/knapen_aot/videos/R_S_yt-_7HJhRPVmHw_255.mp4	0.0	110.2202479839325	0.09993600845336914
9	22.564208984375	fix_pre	0		2.0	7.0	2.5	blank	1.0	110.32018399238586	0.016655921936035156
9	22.572717905044556	response	0	2		7.0	2.5	blank	1.0	110.32869291305542	
9	22.580864906311035	movie	1		301.0	7.0	2.5	blank	1.0	110.3368399143219	2.508395195007324
9	25.08926010131836	fix_post	2		12.0	7.0	2.5	blank	1.0	112.84523510932922	0.09997081756591797
10	25.189230918884277	fix_pre	0		36.0	8.0	2.5	/experiments/knapen_aot/videos/S_comp_A114_C001_0305OT_v10_SDR_FINAL_22062018_SDR_2K_AVC.mp4	0.0	112.94520592689514	0.30001211166381836
10	25.48099708557129	response	0	2		8.0	2.5	/experiments/knapen_aot/videos/S_comp_A114_C001_0305OT_v10_SDR_FINAL_22062018_SDR_2K_AVC.mp4	0.0	113.23697209358215	
10	25.489243030548096	movie	1		167.0	8.0	2.5	/experiments/knapen_aot/videos/S_comp_A114_C001_0305OT_v10_SDR_FINAL_22062018_SDR_2K_AVC.mp4	0.0	113.24521803855896	2.5082650184631348
10	27.99750804901123	fix_post	2		12.0	8.0	2.5	/experiments/knapen_aot/videos/S_comp_A114_C001_0305OT_v10_SDR_FINAL_22062018_SDR_2K_AVC.mp4	0.0	115.7534830570221	0.09999394416809082
11	28.09750199317932	fix_pre	0		19.0	9.0	2.5	/experiments/knapen_aot/videos/R_S_yt-hMyqUMAbFAk_303.mp4	0.0	115.85347700119019	0.15885400772094727
11	28.247584104537964	response	0	2		9.0	2.5	/experiments/knapen_aot/videos/R_S_yt-hMyqUMAbFAk_303.mp4	0.0	116.00355911254883	
11	28.25635600090027	movie	1		301.0	9.0	2.5	/experiments/knapen_aot/videos/R_S_yt-hMyqUMAbFAk_303.mp4	0.0	116.01233100891113	2.5078420639038086
11	30.764198064804077	fix_post	2		12.0	9.0	2.5	/experiments/knapen_aot/videos/R_S_yt-hMyqUMAbFAk_303.mp4	0.0	118.52017307281494	0.09997797012329102
12	30.864176034927368	fix_pre	0		43.0	10.0	2.5	/experiments/knapen_aot/videos/R_S_ILSVRC2015_train_00725000.mp4	0.0	118.62015104293823	0.35837507247924805
12	31.214345932006836	response	0	2		10.0	2.5	/experiments/knapen_aot/videos/R_S_ILSVRC2015_train_00725000.mp4	0.0	118.9703209400177	
12	31.222551107406616	movie	1		301.0	10.0	2.5	/experiments/knapen_aot/videos/R_S_ILSVRC2015_train_00725000.mp4	0.0	118.97852611541748	2.5083258152008057
12	33.73087692260742	fix_post	2		12.0	10.0	2.5	/experiments/knapen_aot/videos/R_S_ILSVRC2015_train_00725000.mp4	0.0	121.48685193061829	0.0999910831451416
13	33.83086800575256	fix_pre	0		25.0	11.0	2.5	/experiments/knapen_aot/videos/S_comp_A114_C001_0305OT_v10_SDR_FINAL_22062018_SDR_2K_AVC.mp4	0.0	121.58684301376343	0.20824098587036133
13	34.031047105789185	response	0	2		11.0	2.5	/experiments/knapen_aot/videos/S_comp_A114_C001_0305OT_v10_SDR_FINAL_22062018_SDR_2K_AVC.mp4	0.0	121.78702211380005	
13	34.039108991622925	movie	1		165.0	11.0	2.5	/experiments/knapen_aot/videos/S_comp_A114_C001_0305OT_v10_SDR_FINAL_22062018_SDR_2K_AVC.mp4	0.0	121.79508399963379	2.5084340572357178
13	36.54754304885864	fix_post	2		12.0	11.0	2.5	/experiments/knapen_aot/videos/S_comp_A114_C001_0305OT_v10_SDR_FINAL_22062018_SDR_2K_AVC.mp4	0.0	124.3035180568695	0.10001587867736816
14	36.64755892753601	fix_pre	0		70.0	12.0	2.5	/experiments/knapen_aot/videos/R_S_yt-qBPDvSQD0XY_5.mp4	0.0	124.40353393554688	0.5832791328430176
14	37.22264909744263	response	0	2		12.0	2.5	/experiments/knapen_aot/videos/R_S_yt-qBPDvSQD0XY_5.mp4	0.0	124.97862410545349	
14	37.23083806037903	movie	1		301.0	12.0	2.5	/experiments/knapen_aot/videos/R_S_yt-qBPDvSQD0XY_5.mp4	0.0	124.98681306838989	2.50832200050354
14	39.73916006088257	fix_post	2		12.0	12.0	2.5	/experiments/knapen_aot/videos/R_S_yt-qBPDvSQD0XY_5.mp4	0.0	127.49513506889343	0.10042095184326172
15	39.83958101272583	fix_pre	0		220.0	13.0	2.5	blank	1.0	127.5955560207367	1.8333470821380615
15	41.664278984069824	response	0	2		13.0	2.5	blank	1.0	129.4202539920807	
15	41.67292809486389	movie	1		301.0	13.0	2.5	blank	1.0	129.42890310287476	2.5079128742218018
15	44.18084096908569	fix_post	2		12.0	13.0	2.5	blank	1.0	131.93681597709656	0.09994006156921387
16	44.28078103065491	fix_pre	0		225.0	14.0	2.5	/experiments/knapen_aot/videos/S_yt-XF0fyyFEgWo_280.mp4	0.0	132.03675603866577	1.875020980834961
16	46.14756894111633	response	0	2		14.0	2.5	/experiments/knapen_aot/videos/S_yt-XF0fyyFEgWo_280.mp4	0.0	133.9035439491272	
16	46.15580201148987	movie	1		301.0	14.0	2.5	/experiments/knapen_aot/videos/S_yt-XF0fyyFEgWo_280.mp4	0.0	133.91177701950073	2.5083529949188232
16	48.66415500640869	fix_post	2		12.0	14.0	2.5	/experiments/knapen_aot/videos/S_yt-XF0fyyFEgWo_280.mp4	0.0	136.42013001441956	0.09996795654296875
17	48.76412296295166	fix_pre	0		2112.0	15.0	2.5	/experiments/knapen_aot/videos/S_Y011_C001_SDR_2K_AVC.mp4	0.0	136.52009797096252	17.599892139434814
17	66.35582709312439	response	0	2		15.0	2.5	/experiments/knapen_aot/videos/S_Y011_C001_SDR_2K_AVC.mp4	0.0	154.11180210113525	
17	66.36401510238647	movie	1		172.0	15.0	2.5	/experiments/knapen_aot/videos/S_Y011_C001_SDR_2K_AVC.mp4	0.0	154.11999011039734	2.508356809616089
17	68.87237191200256	fix_post	2		12.0	15.0	2.5	/experiments/knapen_aot/videos/S_Y011_C001_SDR_2K_AVC.mp4	0.0	156.62834692001343	0.10008502006530762
18	68.97245693206787	fix_pre	0		114.0	16.0	2.5	/experiments/knapen_aot/videos/R_S_yt-YTQXM5ZjRgg_116.mp4	0.0	156.72843194007874	0.9501941204071045
18	69.91427087783813	response	0	2		16.0	2.5	/experiments/knapen_aot/videos/R_S_yt-YTQXM5ZjRgg_116.mp4	0.0	157.670245885849	
18	69.92265105247498	movie	1		301.0	16.0	2.5	/experiments/knapen_aot/videos/R_S_yt-YTQXM5ZjRgg_116.mp4	0.0	157.67862606048584	2.5080790519714355
18	72.43073010444641	fix_post	2		12.0	16.0	2.5	/experiments/knapen_aot/videos/R_S_yt-YTQXM5ZjRgg_116.mp4	0.0	160.18670511245728	0.09994292259216309
19	72.53067302703857	fix_pre	0		26.0	17.0	2.5	/experiments/knapen_aot/videos/S_ILSVRC2015_train_00743006.mp4	0.0	160.28664803504944	0.21669888496398926
19	72.7391529083252	response	0	2		17.0	2.5	/experiments/knapen_aot/videos/S_ILSVRC2015_train_00743006.mp4	0.0	160.49512791633606	
19	72.74737191200256	movie	1		301.0	17.0	2.5	/experiments/knapen_aot/videos/S_ILSVRC2015_train_00743006.mp4	0.0	160.50334692001343	2.508342981338501
19	75.25571489334106	fix_post	2		12.0	17.0	2.5	/experiments/knapen_aot/videos/S_ILSVRC2015_train_00743006.mp4	0.0	163.01168990135193	0.09999418258666992
20	75.35570907592773	fix_pre	0		54.0	18.0	2.5	/experiments/knapen_aot/videos/S_production_ID_5119260.mp4	0.0	163.1116840839386	0.44997501373291016
20	75.79750800132751	response	0	2		18.0	2.5	/experiments/knapen_aot/videos/S_production_ID_5119260.mp4	0.0	163.55348300933838	
20	75.80568408966064	movie	1		163.0	18.0	2.5	/experiments/knapen_aot/videos/S_production_ID_5119260.mp4	0.0	163.5616590976715	2.5082738399505615
20	78.3139579296112	fix_post	2		12.0	18.0	2.5	/experiments/knapen_aot/videos/S_production_ID_5119260.mp4	0.0	166.06993293762207	0.10006213188171387
21	78.41402006149292	fix_pre	0		46.0	19.0	2.5	blank	1.0	166.16999506950378	0.3835270404815674
21	78.78916907310486	response	0	2		19.0	2.5	blank	1.0	166.54514408111572	
21	78.79754710197449	movie	1		301.0	19.0	2.5	blank	1.0	166.55352210998535	2.5081307888031006
21	81.30567789077759	fix_post	2		12.0	19.0	2.5	blank	1.0	169.06165289878845	0.09998202323913574
22	81.40565991401672	fix_pre	0		29.0	20.0	2.5	/experiments/knapen_aot/videos/R_S_yt-ujdFTAUE8rc_34.mp4	0.0	169.1616349220276	0.24163007736206055
22	81.63911199569702	response	0	2		20.0	2.5	/experiments/knapen_aot/videos/R_S_yt-ujdFTAUE8rc_34.mp4	0.0	169.39508700370789	
22	81.64728999137878	movie	1		301.0	20.0	2.5	/experiments/knapen_aot/videos/R_S_yt-ujdFTAUE8rc_34.mp4	0.0	169.40326499938965	2.508388042449951
22	84.15567803382874	fix_post	2		12.0	20.0	2.5	/experiments/knapen_aot/videos/R_S_yt-ujdFTAUE8rc_34.mp4	0.0	171.9116530418396	0.1001739501953125
23	84.25585198402405	fix_pre	0		31.0	21.0	2.5	/experiments/knapen_aot/videos/S_production_ID_5199636.mp4	0.0	172.0118269920349	0.25812196731567383
23	84.50581407546997	response	0	2		21.0	2.5	/experiments/knapen_aot/videos/S_production_ID_5199636.mp4	0.0	172.26178908348083	
23	84.51397395133972	movie	1		166.0	21.0	2.5	/experiments/knapen_aot/videos/S_production_ID_5199636.mp4	0.0	172.2699489593506	2.5083749294281006
23	87.02234888076782	fix_post	2		12.0	21.0	2.5	/experiments/knapen_aot/videos/S_production_ID_5199636.mp4	0.0	174.7783238887787	0.10001301765441895
24	87.12236189842224	fix_pre	0		18.0	22.0	2.5	/experiments/knapen_aot/videos/R_S_yt-JpOBXV46TLE_124.mp4	0.0	174.8783369064331	0.14997601509094238
24	87.26421308517456	response	0	2		22.0	2.5	/experiments/knapen_aot/videos/R_S_yt-JpOBXV46TLE_124.mp4	0.0	175.02018809318542	
24	87.27233791351318	movie	1		301.0	22.0	2.5	/experiments/knapen_aot/videos/R_S_yt-JpOBXV46TLE_124.mp4	0.0	175.02831292152405	2.5083160400390625
24	89.78065395355225	fix_post	2		12.0	22.0	2.5	/experiments/knapen_aot/videos/R_S_yt-JpOBXV46TLE_124.mp4	0.0	177.5366289615631	0.10017514228820801
25	89.88082909584045	fix_pre	0		34.0	23.0	2.5	/experiments/knapen_aot/videos/R_S_production_ID_4720614.mp4	0.0	177.63680410385132	0.2831118106842041
25	90.15584993362427	response	0	2		23.0	2.5	/experiments/knapen_aot/videos/R_S_production_ID_4720614.mp4	0.0	177.91182494163513	
25	90.16394090652466	movie	1		196.0	23.0	2.5	/experiments/knapen_aot/videos/R_S_production_ID_4720614.mp4	0.0	177.91991591453552	2.5084919929504395
25	92.6724328994751	fix_post	2		12.0	23.0	2.5	/experiments/knapen_aot/videos/R_S_production_ID_4720614.mp4	0.0	180.42840790748596	0.09985709190368652
26	92.77228999137878	fix_pre	0		23.0	24.0	2.5	/experiments/knapen_aot/videos/S_8amznWxLS04_212.mp4	0.0	180.52826499938965	0.19178104400634766
26	92.95576190948486	response	0	2		24.0	2.5	/experiments/knapen_aot/videos/S_8amznWxLS04_212.mp4	0.0	180.71173691749573	
26	92.96407103538513	movie	1		301.0	24.0	2.5	/experiments/knapen_aot/videos/S_8amznWxLS04_212.mp4	0.0	180.720046043396	2.5082030296325684
26	95.4722740650177	fix_post	2		12.0	24.0	2.5	/experiments/knapen_aot/videos/S_8amznWxLS04_212.mp4	0.0	183.22824907302856	0.09998703002929688
27	95.572261095047	fix_pre	0		35.0	25.0	2.5	/experiments/knapen_aot/videos/R_S_production_ID_5119260.mp4	0.0	183.32823610305786	0.2916138172149658
27	95.84811806678772	response	0	2		25.0	2.5	/experiments/knapen_aot/videos/R_S_production_ID_5119260.mp4	0.0	183.60409307479858	
27	95.86387491226196	movie	1		165.0	25.0	2.5	/experiments/knapen_aot/videos/R_S_production_ID_5119260.mp4	0.0	183.61984992027283	2.5084099769592285
27	98.37228488922119	fix_post	2		12.0	25.0	2.5	/experiments/knapen_aot/videos/R_S_production_ID_5119260.mp4	0.0	186.12825989723206	0.09999608993530273
28	98.4722809791565	fix_pre	0		8.0	26.0	2.5	/experiments/knapen_aot/videos/R_S_production_ID_5119260.mp4	0.0	186.22825598716736	0.06823492050170898
28	98.53088593482971	response	0	2		26.0	2.5	/experiments/knapen_aot/videos/R_S_production_ID_5119260.mp4	0.0	186.28686094284058	
28	98.5405158996582	movie	1		166.0	26.0	2.5	/experiments/knapen_aot/videos/R_S_production_ID_5119260.mp4	0.0	186.29649090766907	2.5068631172180176
28	101.04737901687622	fix_post	2		12.0	26.0	2.5	/experiments/knapen_aot/videos/R_S_production_ID_5119260.mp4	0.0	188.80335402488708	0.09987902641296387
28	101.10577201843262	response	2	2		26.0	2.5	/experiments/knapen_aot/videos/R_S_production_ID_5119260.mp4	0.0	188.86174702644348	
29	101.14725804328918	fix_pre	0		42.0	27.0	2.5	blank	1.0	188.90323305130005	0.3499269485473633
29	101.48899793624878	response	0	2		27.0	2.5	blank	1.0	189.24497294425964	
29	101.49718499183655	movie	1		301.0	27.0	2.5	blank	1.0	189.2531599998474	2.508430004119873
29	104.00561499595642	fix_post	2		12.0	27.0	2.5	blank	1.0	191.76159000396729	0.09997987747192383
30	104.10559487342834	fix_pre	0		49.0	28.0	2.5	/experiments/knapen_aot/videos/S_yt-8fQ9LaF8U10_382.mp4	0.0	191.8615698814392	0.40825510025024414
30	104.50575494766235	response	0	2		28.0	2.5	/experiments/knapen_aot/videos/S_yt-8fQ9LaF8U10_382.mp4	0.0	192.26172995567322	
30	104.51384997367859	movie	1		301.0	28.0	2.5	/experiments/knapen_aot/videos/S_yt-8fQ9LaF8U10_382.mp4	0.0	192.26982498168945	2.5083611011505127
30	107.0222110748291	fix_post	2		12.0	28.0	2.5	/experiments/knapen_aot/videos/S_yt-8fQ9LaF8U10_382.mp4	0.0	194.77818608283997	0.09992003440856934
31	107.12213110923767	fix_pre	0		18.0	29.0	2.5	/experiments/knapen_aot/videos/S_yt-utYnOeoj2Rw_3.mp4	0.0	194.87810611724854	0.15009284019470215
31	107.26401805877686	response	0	2		29.0	2.5	/experiments/knapen_aot/videos/S_yt-utYnOeoj2Rw_3.mp4	0.0	195.01999306678772	
31	107.27222394943237	movie	1		300.0	29.0	2.5	/experiments/knapen_aot/videos/S_yt-utYnOeoj2Rw_3.mp4	0.0	195.02819895744324	2.5082759857177734
31	109.78049993515015	fix_post	2		12.0	29.0	2.5	/experiments/knapen_aot/videos/S_yt-utYnOeoj2Rw_3.mp4	0.0	197.536474943161	0.10011005401611328
32	109.88060998916626	fix_pre	0		21.0	30.0	2.5	/experiments/knapen_aot/videos/R_S_yt-2IN85w8ptmM_51.mp4	0.0	197.63658499717712	0.17495489120483398
32	110.04737591743469	response	0	2		30.0	2.5	/experiments/knapen_aot/videos/R_S_yt-2IN85w8ptmM_51.mp4	0.0	197.80335092544556	
32	110.0555648803711	movie	1		301.0	30.0	2.5	/experiments/knapen_aot/videos/R_S_yt-2IN85w8ptmM_51.mp4	0.0	197.81153988838196	2.5082101821899414
32	112.56377506256104	fix_post	2		12.0	30.0	2.5	/experiments/knapen_aot/videos/R_S_yt-2IN85w8ptmM_51.mp4	0.0	200.3197500705719	0.10010099411010742
33	112.66387605667114	fix_pre	0		5.0	31.0	2.5	/experiments/knapen_aot/videos/R_S_yt-8fQ9LaF8U10_382.mp4	0.0	200.419851064682	0.04316401481628418
33	112.69749689102173	response	0	2		31.0	2.5	/experiments/knapen_aot/videos/R_S_yt-8fQ9LaF8U10_382.mp4	0.0	200.4534718990326	
33	112.70704007148743	movie	1		301.0	31.0	2.5	/experiments/knapen_aot/videos/R_S_yt-8fQ9LaF8U10_382.mp4	0.0	200.4630150794983	2.5068438053131104
33	115.21388387680054	fix_post	2		12.0	31.0	2.5	/experiments/knapen_aot/videos/R_S_yt-8fQ9LaF8U10_382.mp4	0.0	202.9698588848114	0.09990119934082031
34	115.31378507614136	fix_pre	0		28.0	32.0	2.5	/experiments/knapen_aot/videos/R_S_yt-ThT8utBaywI_68.mp4	0.0	203.06976008415222	0.2333979606628418
34	115.53901195526123	response	0	2		32.0	2.5	/experiments/knapen_aot/videos/R_S_yt-ThT8utBaywI_68.mp4	0.0	203.2949869632721	
34	115.5471830368042	movie	1		301.0	32.0	2.5	/experiments/knapen_aot/videos/R_S_yt-ThT8utBaywI_68.mp4	0.0	203.30315804481506	2.508309841156006
34	118.0554928779602	fix_post	2		12.0	32.0	2.5	/experiments/knapen_aot/videos/R_S_yt-ThT8utBaywI_68.mp4	0.0	205.81146788597107	0.09999418258666992
35	118.15548706054688	fix_pre	0		20.0	33.0	2.5	blank	1.0	205.91146206855774	0.1666419506072998
35	118.31398701667786	response	0	2		33.0	2.5	blank	1.0	206.06996202468872	
35	118.32212901115417	movie	1		301.0	33.0	2.5	blank	1.0	206.07810401916504	2.5084030628204346
35	120.83053207397461	fix_post	2		12.0	33.0	2.5	blank	1.0	208.58650708198547	0.09997987747192383
36	120.93051195144653	fix_pre	0		28.0	34.0	2.5	/experiments/knapen_aot/videos/S_wc-ZZxbTv7oc5DQ_10.mp4	0.0	208.6864869594574	0.23334503173828125
36	121.15556287765503	response	0	2		34.0	2.5	/experiments/knapen_aot/videos/S_wc-ZZxbTv7oc5DQ_10.mp4	0.0	208.9115378856659	
36	121.16385698318481	movie	1		164.0	34.0	2.5	/experiments/knapen_aot/videos/S_wc-ZZxbTv7oc5DQ_10.mp4	0.0	208.91983199119568	2.508323907852173
36	123.67218089103699	fix_post	2		12.0	34.0	2.5	/experiments/knapen_aot/videos/S_wc-ZZxbTv7oc5DQ_10.mp4	0.0	211.42815589904785	0.0999290943145752
37	123.77210998535156	fix_pre	0		10.0	35.0	2.5	/experiments/knapen_aot/videos/R_S_yt-ybH6uAiFbjc_273.mp4	0.0	211.52808499336243	0.0833590030670166
37	123.84725189208984	response	0	2		35.0	2.5	/experiments/knapen_aot/videos/R_S_yt-ybH6uAiFbjc_273.mp4	0.0	211.6032269001007	
37	123.85546898841858	movie	1		301.0	35.0	2.5	/experiments/knapen_aot/videos/R_S_yt-ybH6uAiFbjc_273.mp4	0.0	211.61144399642944	2.508307933807373
37	126.36377692222595	fix_post	2		12.0	35.0	2.5	/experiments/knapen_aot/videos/R_S_yt-ybH6uAiFbjc_273.mp4	0.0	214.11975193023682	0.10004210472106934
38	126.46381902694702	fix_pre	0		10.0	36.0	2.5	/experiments/knapen_aot/videos/S_yt-P001x88adE4_427.mp4	0.0	214.21979403495789	0.08330798149108887
38	126.5389289855957	response	0	2		36.0	2.5	/experiments/knapen_aot/videos/S_yt-P001x88adE4_427.mp4	0.0	214.29490399360657	
38	126.54712700843811	movie	1		301.0	36.0	2.5	/experiments/knapen_aot/videos/S_yt-P001x88adE4_427.mp4	0.0	214.30310201644897	2.5083789825439453
38	129.05550599098206	fix_post	2		12.0	36.0	2.5	/experiments/knapen_aot/videos/S_yt-P001x88adE4_427.mp4	0.0	216.81148099899292	0.10001492500305176
39	129.1555209159851	fix_pre	0		16.0	37.0	2.5	/experiments/knapen_aot/videos/R_S_yt--Ra34zJ69AU_68.mp4	0.0	216.91149592399597	0.13329100608825684
39	129.28057408332825	response	0	2		37.0	2.5	/experiments/knapen_aot/videos/R_S_yt--Ra34zJ69AU_68.mp4	0.0	217.0365490913391	
39	129.28881192207336	movie	1		300.0	37.0	2.5	/experiments/knapen_aot/videos/R_S_yt--Ra34zJ69AU_68.mp4	0.0	217.04478693008423	2.508291006088257
39	131.79710292816162	fix_post	2		12.0	37.0	2.5	/experiments/knapen_aot/videos/R_S_yt--Ra34zJ69AU_68.mp4	0.0	219.55307793617249	0.09996414184570312
40	131.89706707000732	fix_pre	0		21.0	38.0	2.5	/experiments/knapen_aot/videos/S_ILSVRC2015_train_00715000.mp4	0.0	219.6530420780182	0.17510080337524414
40	132.06384992599487	response	0	2		38.0	2.5	/experiments/knapen_aot/videos/S_ILSVRC2015_train_00715000.mp4	0.0	219.81982493400574	
40	132.07216787338257	movie	1		301.0	38.0	2.5	/experiments/knapen_aot/videos/S_ILSVRC2015_train_00715000.mp4	0.0	219.82814288139343	2.5082671642303467
40	134.58043503761292	fix_post	2		12.0	38.0	2.5	/experiments/knapen_aot/videos/S_ILSVRC2015_train_00715000.mp4	0.0	222.33641004562378	0.09998106956481934
41	134.68041610717773	fix_pre	0		77.0	39.0	2.5	/experiments/knapen_aot/videos/S_bing-vimeo_com_161378598_22.mp4	0.0	222.4363911151886	0.6416327953338623
41	135.3139259815216	response	0	2		39.0	2.5	/experiments/knapen_aot/videos/S_bing-vimeo_com_161378598_22.mp4	0.0	223.06990098953247	
41	135.3220489025116	movie	1		166.0	39.0	2.5	/experiments/knapen_aot/videos/S_bing-vimeo_com_161378598_22.mp4	0.0	223.07802391052246	2.5083861351013184
41	137.83043503761292	fix_post	2		12.0	39.0	2.5	/experiments/knapen_aot/videos/S_bing-vimeo_com_161378598_22.mp4	0.0	225.58641004562378	0.10005998611450195
42	137.93049502372742	fix_pre	0		7.0	40.0	2.5	/experiments/knapen_aot/videos/S_yt-tMP5WhHMtWE_55.mp4	0.0	225.68647003173828	0.058279991149902344
42	137.9805600643158	response	0	2		40.0	2.5	/experiments/knapen_aot/videos/S_yt-tMP5WhHMtWE_55.mp4	0.0	225.73653507232666	
42	137.98877501487732	movie	1		301.0	40.0	2.5	/experiments/knapen_aot/videos/S_yt-tMP5WhHMtWE_55.mp4	0.0	225.74475002288818	2.5083909034729004
42	140.49716591835022	fix_post	2		12.0	40.0	2.5	/experiments/knapen_aot/videos/S_yt-tMP5WhHMtWE_55.mp4	0.0	228.25314092636108	0.10002803802490234
43	140.59719395637512	fix_pre	0		17.0	41.0	2.5	blank	1.0	228.353168964386	0.1416339874267578
43	140.7305679321289	response	0	2		41.0	2.5	blank	1.0	228.48654294013977	
43	140.73882794380188	movie	1		301.0	41.0	2.5	blank	1.0	228.49480295181274	2.508202075958252
43	142.79719996452332	response	1	2		41.0	2.5	blank	1.0	230.55317497253418	
43	143.24703001976013	fix_post	2		12.0	41.0	2.5	blank	1.0	231.003005027771	0.09999299049377441
44	143.3470230102539	fix_pre	0		21.0	42.0	2.5	/experiments/knapen_aot/videos/R_S_production_ID_5199636.mp4	0.0	231.10299801826477	0.1750168800354004
44	143.5138030052185	response	0	2		42.0	2.5	/experiments/knapen_aot/videos/R_S_production_ID_5199636.mp4	0.0	231.26977801322937	
44	143.5220398902893	movie	1		166.0	42.0	2.5	/experiments/knapen_aot/videos/R_S_production_ID_5199636.mp4	0.0	231.27801489830017	2.508355140686035
44	146.03039503097534	fix_post	2		11.0	42.0	2.5	/experiments/knapen_aot/videos/R_S_production_ID_5199636.mp4	0.0	233.7863700389862	0.09290099143981934
44	146.11385297775269	response	2	2		42.0	2.5	/experiments/knapen_aot/videos/R_S_production_ID_5199636.mp4	0.0	233.86982798576355	
45	146.12329602241516	fix_pre	0		42.0	43.0	2.5	/experiments/knapen_aot/videos/S_yt-LUIvP_NDWAs_45.mp4	0.0	233.87927103042603	0.3487720489501953
45	146.46390795707703	response	0	2		43.0	2.5	/experiments/knapen_aot/videos/S_yt-LUIvP_NDWAs_45.mp4	0.0	234.2198829650879	
45	146.47206807136536	movie	1		301.0	43.0	2.5	/experiments/knapen_aot/videos/S_yt-LUIvP_NDWAs_45.mp4	0.0	234.22804307937622	2.50832200050354
45	148.9803900718689	fix_post	2		12.0	43.0	2.5	/experiments/knapen_aot/videos/S_yt-LUIvP_NDWAs_45.mp4	0.0	236.73636507987976	0.09999895095825195
46	149.08038902282715	fix_pre	0		21.0	44.0	2.5	/experiments/knapen_aot/videos/R_S_yt-etF_WUW5D68_3.mp4	0.0	236.836364030838	0.1749880313873291
46	149.24721002578735	response	0	2		44.0	2.5	/experiments/knapen_aot/videos/R_S_yt-etF_WUW5D68_3.mp4	0.0	237.00318503379822	
46	149.25537705421448	movie	1		299.0	44.0	2.5	/experiments/knapen_aot/videos/R_S_yt-etF_WUW5D68_3.mp4	0.0	237.01135206222534	2.508349895477295
46	151.76372694969177	fix_post	2		12.0	44.0	2.5	/experiments/knapen_aot/videos/R_S_yt-etF_WUW5D68_3.mp4	0.0	239.51970195770264	0.09998202323913574
47	151.8637089729309	fix_pre	0		17.0	45.0	2.5	/experiments/knapen_aot/videos/R_S_yt-SkIJvj6KNOo_33.mp4	0.0	239.61968398094177	0.1416759490966797
47	151.99716091156006	response	0	2		45.0	2.5	/experiments/knapen_aot/videos/R_S_yt-SkIJvj6KNOo_33.mp4	0.0	239.75313591957092	
47	152.0053849220276	movie	1		301.0	45.0	2.5	/experiments/knapen_aot/videos/R_S_yt-SkIJvj6KNOo_33.mp4	0.0	239.76135993003845	2.5083019733428955
47	154.51368689537048	fix_post	2		12.0	45.0	2.5	/experiments/knapen_aot/videos/R_S_yt-SkIJvj6KNOo_33.mp4	0.0	242.26966190338135	0.100006103515625
48	154.6136929988861	fix_pre	0		15.0	46.0	2.5	/experiments/knapen_aot/videos/S_comp_1223LV_FLARE_v21_SDR_PS_FINAL_20180709_F0F5700_SDR_2K_AVC.mp4	0.0	242.36966800689697	0.12496590614318848
48	154.73037004470825	response	0	2		46.0	2.5	/experiments/knapen_aot/videos/S_comp_1223LV_FLARE_v21_SDR_PS_FINAL_20180709_F0F5700_SDR_2K_AVC.mp4	0.0	242.48634505271912	
48	154.7386589050293	movie	1		167.0	46.0	2.5	/experiments/knapen_aot/videos/S_comp_1223LV_FLARE_v21_SDR_PS_FINAL_20180709_F0F5700_SDR_2K_AVC.mp4	0.0	242.49463391304016	2.5083460807800293
48	157.24700498580933	fix_post	2		12.0	46.0	2.5	/experiments/knapen_aot/videos/S_comp_1223LV_FLARE_v21_SDR_PS_FINAL_20180709_F0F5700_SDR_2K_AVC.mp4	0.0	245.0029799938202	0.09996795654296875
49	157.3469729423523	fix_pre	0		8.0	47.0	2.5	blank	1.0	245.10294795036316	0.06673097610473633
49	157.4054410457611	response	0	2		47.0	2.5	blank	1.0	245.16141605377197	
49	157.41370391845703	movie	1		301.0	47.0	2.5	blank	1.0	245.1696789264679	2.508291006088257
49	159.9219949245453	fix_post	2		12.0	47.0	2.5	blank	1.0	247.67796993255615	0.09995603561401367
50	160.0219509601593	fix_pre	0		19.0	48.0	2.5	/experiments/knapen_aot/videos/R_S_yt-UKrWbJEs7pw_74.mp4	0.0	247.77792596817017	0.15833806991577148
50	160.17207193374634	response	0	2		48.0	2.5	/experiments/knapen_aot/videos/R_S_yt-UKrWbJEs7pw_74.mp4	0.0	247.9280469417572	
50	160.18028903007507	movie	1		301.0	48.0	2.5	/experiments/knapen_aot/videos/R_S_yt-UKrWbJEs7pw_74.mp4	0.0	247.93626403808594	2.5083940029144287
50	162.6886830329895	fix_post	2		12.0	48.0	2.5	/experiments/knapen_aot/videos/R_S_yt-UKrWbJEs7pw_74.mp4	0.0	250.44465804100037	0.09999990463256836
51	162.78868293762207	fix_pre	0		43.0	49.0	2.5	/experiments/knapen_aot/videos/R_S_yt-fryIS5Itzig_124.mp4	0.0	250.54465794563293	0.35827016830444336
51	163.13134503364563	response	0	2		49.0	2.5	/experiments/knapen_aot/videos/R_S_yt-fryIS5Itzig_124.mp4	0.0	250.8873200416565	
51	163.1469531059265	movie	1		301.0	49.0	2.5	/experiments/knapen_aot/videos/R_S_yt-fryIS5Itzig_124.mp4	0.0	250.90292811393738	2.5083858966827393
51	165.65533900260925	fix_post	2		12.0	49.0	2.5	/experiments/knapen_aot/videos/R_S_yt-fryIS5Itzig_124.mp4	0.0	253.41131401062012	0.09997987747192383
52	165.75531888008118	fix_pre	0		21.0	50.0	2.5	/experiments/knapen_aot/videos/R_S_yt-Ud9uqaeHtY4_302.mp4	0.0	253.51129388809204	0.17498207092285156
52	165.92213010787964	response	0	2		50.0	2.5	/experiments/knapen_aot/videos/R_S_yt-Ud9uqaeHtY4_302.mp4	0.0	253.6781051158905	
52	165.93030095100403	movie	1		301.0	50.0	2.5	/experiments/knapen_aot/videos/R_S_yt-Ud9uqaeHtY4_302.mp4	0.0	253.6862759590149	2.5083789825439453
52	168.43867993354797	fix_post	2		12.0	50.0	2.5	/experiments/knapen_aot/videos/R_S_yt-Ud9uqaeHtY4_302.mp4	0.0	256.19465494155884	0.09991717338562012
53	168.5385971069336	fix_pre	0		23.0	51.0	2.5	/experiments/knapen_aot/videos/R_S_ILSVRC2015_train_00524006.mp4	0.0	256.29457211494446	0.19168996810913086
53	168.72207498550415	response	0	2		51.0	2.5	/experiments/knapen_aot/videos/R_S_ILSVRC2015_train_00524006.mp4	0.0	256.478049993515	
53	168.73028707504272	movie	1		301.0	51.0	2.5	/experiments/knapen_aot/videos/R_S_ILSVRC2015_train_00524006.mp4	0.0	256.4862620830536	2.5083439350128174
53	171.23863101005554	fix_post	2		12.0	51.0	2.5	/experiments/knapen_aot/videos/R_S_ILSVRC2015_train_00524006.mp4	0.0	258.9946060180664	0.10004496574401855
54	171.33867597579956	fix_pre	0		30.0	52.0	2.5	/experiments/knapen_aot/videos/R_S_pexels-mikhail-nilov-8410084.mp4	0.0	259.0946509838104	0.2499561309814453
54	171.58047604560852	response	0	2		52.0	2.5	/experiments/knapen_aot/videos/R_S_pexels-mikhail-nilov-8410084.mp4	0.0	259.3364510536194	
54	171.588632106781	movie	1		167.0	52.0	2.5	/experiments/knapen_aot/videos/R_S_pexels-mikhail-nilov-8410084.mp4	0.0	259.34460711479187	2.50822377204895
54	174.09685587882996	fix_post	2		12.0	52.0	2.5	/experiments/knapen_aot/videos/R_S_pexels-mikhail-nilov-8410084.mp4	0.0	261.8528308868408	0.10008907318115234
55	174.1969449520111	fix_pre	0		10.0	53.0	2.5	/experiments/knapen_aot/videos/R_S_yt-6MwA-jx56AQ_612.mp4	0.0	261.952919960022	0.08332109451293945
55	174.272136926651	response	0	2		53.0	2.5	/experiments/knapen_aot/videos/R_S_yt-6MwA-jx56AQ_612.mp4	0.0	262.02811193466187	
55	174.28026604652405	movie	1		301.0	53.0	2.5	/experiments/knapen_aot/videos/R_S_yt-6MwA-jx56AQ_612.mp4	0.0	262.0362410545349	2.5082900524139404
55	176.788556098938	fix_post	2		12.0	53.0	2.5	/experiments/knapen_aot/videos/R_S_yt-6MwA-jx56AQ_612.mp4	0.0	264.54453110694885	0.1000678539276123
56	176.8886239528656	fix_pre	0		23.0	54.0	2.5	/experiments/knapen_aot/videos/R_S_yt-RO4mhuXBVrY_67.mp4	0.0	264.64459896087646	0.192734956741333
56	177.07206010818481	response	0	2		54.0	2.5	/experiments/knapen_aot/videos/R_S_yt-RO4mhuXBVrY_67.mp4	0.0	264.8280351161957	
56	177.08135890960693	movie	1		299.0	54.0	2.5	/experiments/knapen_aot/videos/R_S_yt-RO4mhuXBVrY_67.mp4	0.0	264.8373339176178	2.5072810649871826
56	179.58863997459412	fix_post	2		12.0	54.0	2.5	/experiments/knapen_aot/videos/R_S_yt-RO4mhuXBVrY_67.mp4	0.0	267.344614982605	0.09995007514953613
57	179.68859004974365	fix_pre	0		110.0	55.0	2.5	blank	1.0	267.4445650577545	0.9166178703308105
57	180.59703707695007	response	0	2		55.0	2.5	blank	1.0	268.35301208496094	
57	180.60520792007446	movie	1		301.0	55.0	2.5	blank	1.0	268.3611829280853	2.508368968963623
57	183.1135768890381	fix_post	2		12.0	55.0	2.5	blank	1.0	270.86955189704895	0.10007214546203613
58	183.21364903450012	fix_pre	0		101.0	56.0	2.5	/experiments/knapen_aot/videos/R_S_yt-ieA3XwoSko4_98.mp4	0.0	270.969624042511	0.8415560722351074
58	184.04706406593323	response	0	2		56.0	2.5	/experiments/knapen_aot/videos/R_S_yt-ieA3XwoSko4_98.mp4	0.0	271.8030390739441	
58	184.05520510673523	movie	1		300.0	56.0	2.5	/experiments/knapen_aot/videos/R_S_yt-ieA3XwoSko4_98.mp4	0.0	271.8111801147461	2.5083789825439453
58	186.56358408927917	fix_post	2		12.0	56.0	2.5	/experiments/knapen_aot/videos/R_S_yt-ieA3XwoSko4_98.mp4	0.0	274.31955909729004	0.09992384910583496
59	186.663507938385	fix_pre	0		7.0	57.0	2.5	/experiments/knapen_aot/videos/S_yt-ZE8Af60eNsI_15.mp4	0.0	274.4194829463959	0.058341026306152344
59	186.71367406845093	response	0	2		57.0	2.5	/experiments/knapen_aot/videos/S_yt-ZE8Af60eNsI_15.mp4	0.0	274.4696490764618	
59	186.72184896469116	movie	1		301.0	57.0	2.5	/experiments/knapen_aot/videos/S_yt-ZE8Af60eNsI_15.mp4	0.0	274.477823972702	2.5083019733428955
59	189.23015093803406	fix_post	2		12.0	57.0	2.5	/experiments/knapen_aot/videos/S_yt-ZE8Af60eNsI_15.mp4	0.0	276.9861259460449	0.10004997253417969
60	189.33020091056824	fix_pre	0		19.0	58.0	2.5	/experiments/knapen_aot/videos/S_yt-gPhlnZG-pRY_4.mp4	0.0	277.0861759185791	0.15831708908081055
60	189.48043203353882	response	0	2		58.0	2.5	/experiments/knapen_aot/videos/S_yt-gPhlnZG-pRY_4.mp4	0.0	277.2364070415497	
60	189.48851799964905	movie	1		301.0	58.0	2.5	/experiments/knapen_aot/videos/S_yt-gPhlnZG-pRY_4.mp4	0.0	277.2444930076599	2.508280038833618
60	191.99679803848267	fix_post	2		12.0	58.0	2.5	/experiments/knapen_aot/videos/S_yt-gPhlnZG-pRY_4.mp4	0.0	279.75277304649353	0.10008502006530762
61	192.09688305854797	fix_pre	0		22.0	59.0	2.5	/experiments/knapen_aot/videos/S_ILSVRC2015_train_00460000.mp4	0.0	279.85285806655884	0.18334698677062988
61	192.27194809913635	response	0	2		59.0	2.5	/experiments/knapen_aot/videos/S_ILSVRC2015_train_00460000.mp4	0.0	280.0279231071472	
61	192.2802300453186	movie	1		300.0	59.0	2.5	/experiments/knapen_aot/videos/S_ILSVRC2015_train_00460000.mp4	0.0	280.03620505332947	2.5083110332489014
61	194.7885410785675	fix_post	2		12.0	59.0	2.5	/experiments/knapen_aot/videos/S_ILSVRC2015_train_00460000.mp4	0.0	282.54451608657837	0.09999394416809082
62	194.8885350227356	fix_pre	0		23.0	60.0	2.5	/experiments/knapen_aot/videos/S_ILSVRC2015_train_00538001.mp4	0.0	282.64451003074646	0.19265389442443848
62	195.06444692611694	response	0	2		60.0	2.5	/experiments/knapen_aot/videos/S_ILSVRC2015_train_00538001.mp4	0.0	282.8204219341278	
62	195.08118891716003	movie	1		301.0	60.0	2.5	/experiments/knapen_aot/videos/S_ILSVRC2015_train_00538001.mp4	0.0	282.8371639251709	2.507296085357666
62	197.5884850025177	fix_post	2		12.0	60.0	2.5	/experiments/knapen_aot/videos/S_ILSVRC2015_train_00538001.mp4	0.0	285.34446001052856	0.1000669002532959
63	197.688551902771	fix_pre	0		57.0	61.0	2.5	/experiments/knapen_aot/videos/S_yt-_68FWLGgPYE_25.mp4	0.0	285.44452691078186	0.4759180545806885
63	198.15534210205078	response	0	2		61.0	2.5	/experiments/knapen_aot/videos/S_yt-_68FWLGgPYE_25.mp4	0.0	285.91131711006165	
63	198.16446995735168	movie	1		301.0	61.0	2.5	/experiments/knapen_aot/videos/S_yt-_68FWLGgPYE_25.mp4	0.0	285.92044496536255	2.5073771476745605
63	200.67184710502625	fix_post	2		12.0	61.0	2.5	/experiments/knapen_aot/videos/S_yt-_68FWLGgPYE_25.mp4	0.0	288.4278221130371	0.1000208854675293
64	200.77186799049377	fix_pre	0		18.0	62.0	2.5	/experiments/knapen_aot/videos/S_yt-z68VLDDCFdw_93.mp4	0.0	288.52784299850464	0.14996695518493652
64	200.91360187530518	response	0	2		62.0	2.5	/experiments/knapen_aot/videos/S_yt-z68VLDDCFdw_93.mp4	0.0	288.66957688331604	
64	200.9218349456787	movie	1		301.0	62.0	2.5	/experiments/knapen_aot/videos/S_yt-z68VLDDCFdw_93.mp4	0.0	288.6778099536896	2.508296012878418
64	203.43013095855713	fix_post	2		12.0	62.0	2.5	/experiments/knapen_aot/videos/S_yt-z68VLDDCFdw_93.mp4	0.0	291.186105966568	0.0999910831451416
65	203.53012204170227	fix_pre	0		26.0	63.0	2.5	blank	1.0	291.28609704971313	0.21788692474365234
65	203.738676071167	response	0	2		63.0	2.5	blank	1.0	291.49465107917786	
65	203.74800896644592	movie	1		301.0	63.0	2.5	blank	1.0	291.5039839744568	2.50716495513916
65	206.25517392158508	fix_post	2		12.0	63.0	2.5	blank	1.0	294.01114892959595	0.10004115104675293
66	206.35521507263184	fix_pre	0		49.0	64.0	2.5	/experiments/knapen_aot/videos/S_yt-Ja7d2a6e5xE_279.mp4	0.0	294.1111900806427	0.40827298164367676
66	206.7552580833435	response	0	2		64.0	2.5	/experiments/knapen_aot/videos/S_yt-Ja7d2a6e5xE_279.mp4	0.0	294.51123309135437	
66	206.7634880542755	movie	1		301.0	64.0	2.5	/experiments/knapen_aot/videos/S_yt-Ja7d2a6e5xE_279.mp4	0.0	294.5194630622864	2.508298873901367
66	209.27178692817688	fix_post	2		12.0	64.0	2.5	/experiments/knapen_aot/videos/S_yt-Ja7d2a6e5xE_279.mp4	0.0	297.02776193618774	0.10016012191772461
67	209.3719470500946	fix_pre	0		9.0	65.0	2.5	/experiments/knapen_aot/videos/S_yt-Ja7d2a6e5xE_279.mp4	0.0	297.12792205810547	0.07481884956359863
67	209.43857407569885	response	0	2		65.0	2.5	/experiments/knapen_aot/videos/S_yt-Ja7d2a6e5xE_279.mp4	0.0	297.1945490837097	
67	209.4467658996582	movie	1		300.0	65.0	2.5	/experiments/knapen_aot/videos/S_yt-Ja7d2a6e5xE_279.mp4	0.0	297.20274090766907	2.508409023284912
67	211.95517492294312	fix_post	2		12.0	65.0	2.5	/experiments/knapen_aot/videos/S_yt-Ja7d2a6e5xE_279.mp4	0.0	299.711149930954	0.09989309310913086
68	212.05506801605225	fix_pre	0		8.0	66.0	2.5	/experiments/knapen_aot/videos/R_S_yt-uXDyvrm0Tw0_17.mp4	0.0	299.8110430240631	0.0676259994506836
68	212.11359906196594	response	0	2		66.0	2.5	/experiments/knapen_aot/videos/R_S_yt-uXDyvrm0Tw0_17.mp4	0.0	299.8695740699768	
68	212.12269401550293	movie	1		301.0	66.0	2.5	/experiments/knapen_aot/videos/R_S_yt-uXDyvrm0Tw0_17.mp4	0.0	299.8786690235138	2.5074479579925537
68	214.63014197349548	fix_post	2		12.0	66.0	2.5	/experiments/knapen_aot/videos/R_S_yt-uXDyvrm0Tw0_17.mp4	0.0	302.38611698150635	0.0999460220336914
69	214.73008799552917	fix_pre	0		11.0	67.0	2.5	/experiments/knapen_aot/videos/R_S_yt-Dwgpjoikt84_122.mp4	0.0	302.48606300354004	0.09167790412902832
69	214.81357192993164	response	0	2		67.0	2.5	/experiments/knapen_aot/videos/R_S_yt-Dwgpjoikt84_122.mp4	0.0	302.5695469379425	
69	214.8217658996582	movie	1		301.0	67.0	2.5	/experiments/knapen_aot/videos/R_S_yt-Dwgpjoikt84_122.mp4	0.0	302.57774090766907	2.508263111114502
69	217.3300290107727	fix_post	2		12.0	67.0	2.5	/experiments/knapen_aot/videos/R_S_yt-Dwgpjoikt84_122.mp4	0.0	305.08600401878357	0.10005998611450195
70	217.4300889968872	fix_pre	0		19.0	68.0	2.5	blank	1.0	305.18606400489807	0.15828704833984375
70	217.58018589019775	response	0	2		68.0	2.5	blank	1.0	305.3361608982086	
70	217.58837604522705	movie	1		301.0	68.0	2.5	blank	1.0	305.3443510532379	2.508283853530884
70	220.09665989875793	fix_post	2		12.0	68.0	2.5	blank	1.0	307.8526349067688	0.10010004043579102
71	220.19675993919373	fix_pre	0		23.0	69.0	2.5	/experiments/knapen_aot/videos/R_S_g201_CA_A016_C002_SDR_20191114_SDR_2K_AVC.mp4	0.0	307.9527349472046	0.1915740966796875
71	220.38041591644287	response	0	2		69.0	2.5	/experiments/knapen_aot/videos/R_S_g201_CA_A016_C002_SDR_20191114_SDR_2K_AVC.mp4	0.0	308.13639092445374	
71	220.3883340358734	movie	1		168.0	69.0	2.5	/experiments/knapen_aot/videos/R_S_g201_CA_A016_C002_SDR_20191114_SDR_2K_AVC.mp4	0.0	308.1443090438843	2.5084760189056396
71	222.89681005477905	fix_post	2		12.0	69.0	2.5	/experiments/knapen_aot/videos/R_S_g201_CA_A016_C002_SDR_20191114_SDR_2K_AVC.mp4	0.0	310.6527850627899	0.0999898910522461
72	222.9967999458313	fix_pre	0		10.0	70.0	2.5	/experiments/knapen_aot/videos/R_S_yt-osdlC1buTaM_4.mp4	0.0	310.75277495384216	0.08417510986328125
72	223.0718810558319	response	0	4		70.0	2.5	/experiments/knapen_aot/videos/R_S_yt-osdlC1buTaM_4.mp4	0.0	310.8278560638428	
72	223.08097505569458	movie	1		301.0	70.0	2.5	/experiments/knapen_aot/videos/R_S_yt-osdlC1buTaM_4.mp4	0.0	310.83695006370544	2.507424831390381
72	224.98367190361023	response	1	2		70.0	2.5	/experiments/knapen_aot/videos/R_S_yt-osdlC1buTaM_4.mp4	0.0	312.7396469116211	
72	225.58839988708496	fix_post	2		12.0	70.0	2.5	/experiments/knapen_aot/videos/R_S_yt-osdlC1buTaM_4.mp4	0.0	313.3443748950958	0.0999901294708252
73	225.6883900165558	fix_pre	0		20.0	71.0	2.5	/experiments/knapen_aot/videos/R_S_yt-28ODBE9bVh0_44.mp4	0.0	313.44436502456665	0.1666569709777832
73	225.83934903144836	response	0	2		71.0	2.5	/experiments/knapen_aot/videos/R_S_yt-28ODBE9bVh0_44.mp4	0.0	313.59532403945923	
73	225.85504698753357	movie	1		301.0	71.0	2.5	/experiments/knapen_aot/videos/R_S_yt-28ODBE9bVh0_44.mp4	0.0	313.61102199554443	2.508362054824829
73	228.3634090423584	fix_post	2		12.0	71.0	2.5	/experiments/knapen_aot/videos/R_S_yt-28ODBE9bVh0_44.mp4	0.0	316.11938405036926	0.09996795654296875
74	228.46337699890137	fix_pre	0		12.0	72.0	2.5	/experiments/knapen_aot/videos/S_ILSVRC2015_train_00324000.mp4	0.0	316.21935200691223	0.09993910789489746
74	228.55518507957458	response	0	4		72.0	2.5	/experiments/knapen_aot/videos/S_ILSVRC2015_train_00324000.mp4	0.0	316.31116008758545	
74	228.56331610679626	movie	1		301.0	72.0	2.5	/experiments/knapen_aot/videos/S_ILSVRC2015_train_00324000.mp4	0.0	316.31929111480713	2.5084238052368164
74	231.07173991203308	fix_post	2		12.0	72.0	2.5	/experiments/knapen_aot/videos/S_ILSVRC2015_train_00324000.mp4	0.0	318.82771492004395	0.09998106956481934
75	231.1717209815979	fix_pre	0		5.0	73.0	2.5	/experiments/knapen_aot/videos/R_S_yt-yyIimWrvRyI_246.mp4	0.0	318.92769598960876	0.041671037673950195
75	231.2051820755005	response	0	2		73.0	2.5	/experiments/knapen_aot/videos/R_S_yt-yyIimWrvRyI_246.mp4	0.0	318.96115708351135	
75	231.21339201927185	movie	1		299.0	73.0	2.5	/experiments/knapen_aot/videos/R_S_yt-yyIimWrvRyI_246.mp4	0.0	318.9693670272827	2.5083069801330566
75	233.7216989994049	fix_post	2		12.0	73.0	2.5	/experiments/knapen_aot/videos/R_S_yt-yyIimWrvRyI_246.mp4	0.0	321.47767400741577	0.09994888305664062
76	233.82164788246155	fix_pre	0		30.0	74.0	2.5	/experiments/knapen_aot/videos/R_S_yt-5MyvZYFlc9g_125.mp4	0.0	321.5776228904724	0.2501389980316162
76	234.06350302696228	response	0	4		74.0	2.5	/experiments/knapen_aot/videos/R_S_yt-5MyvZYFlc9g_125.mp4	0.0	321.81947803497314	
76	234.07178688049316	movie	1		301.0	74.0	2.5	/experiments/knapen_aot/videos/R_S_yt-5MyvZYFlc9g_125.mp4	0.0	321.827761888504	2.508270025253296
76	236.58005690574646	fix_post	2		12.0	74.0	2.5	/experiments/knapen_aot/videos/R_S_yt-5MyvZYFlc9g_125.mp4	0.0	324.3360319137573	0.1000070571899414
77	236.6800639629364	fix_pre	0		2.0	75.0	2.5	blank	1.0	324.43603897094727	0.01660609245300293
77	236.6885049343109	response	0	2		75.0	2.5	blank	1.0	324.4444799423218	
77	236.6966700553894	movie	1		301.0	75.0	2.5	blank	1.0	324.45264506340027	2.5082669258117676
77	238.95511603355408	response	1	4		75.0	2.5	blank	1.0	326.71109104156494	
77	239.20493698120117	fix_post	2		12.0	75.0	2.5	blank	1.0	326.96091198921204	0.10005497932434082
78	239.3049919605255	fix_pre	0		23.0	76.0	2.5	/experiments/knapen_aot/videos/S_yt-RlHmMGUjT9E_130.mp4	0.0	327.0609669685364	0.19241595268249512
78	239.48843693733215	response	0	4		76.0	2.5	/experiments/knapen_aot/videos/S_yt-RlHmMGUjT9E_130.mp4	0.0	327.244411945343	
78	239.497407913208	movie	1		301.0	76.0	2.5	/experiments/knapen_aot/videos/S_yt-RlHmMGUjT9E_130.mp4	0.0	327.2533829212189	2.507629156112671
78	242.00503706932068	fix_post	2		12.0	76.0	2.5	/experiments/knapen_aot/videos/S_yt-RlHmMGUjT9E_130.mp4	0.0	329.76101207733154	0.09994888305664062
79	242.10498595237732	fix_pre	0		29.0	77.0	2.5	/experiments/knapen_aot/videos/R_S_pexels-mikhail-nilov-8410084.mp4	0.0	329.8609609603882	0.2416839599609375
79	242.33837509155273	response	0	2		77.0	2.5	/experiments/knapen_aot/videos/R_S_pexels-mikhail-nilov-8410084.mp4	0.0	330.0943500995636	
79	242.34666991233826	movie	1		171.0	77.0	2.5	/experiments/knapen_aot/videos/R_S_pexels-mikhail-nilov-8410084.mp4	0.0	330.1026449203491	2.508289098739624
79	244.85495901107788	fix_post	2		12.0	77.0	2.5	/experiments/knapen_aot/videos/R_S_pexels-mikhail-nilov-8410084.mp4	0.0	332.61093401908875	0.09999895095825195
80	244.95495796203613	fix_pre	0		6.0	78.0	2.5	/experiments/knapen_aot/videos/S_ILSVRC2015_train_00569006.mp4	0.0	332.710932970047	0.050065040588378906
80	244.99775409698486	response	0	4		78.0	2.5	/experiments/knapen_aot/videos/S_ILSVRC2015_train_00569006.mp4	0.0	332.7537291049957	
80	245.0050230026245	movie	1		301.0	78.0	2.5	/experiments/knapen_aot/videos/S_ILSVRC2015_train_00569006.mp4	0.0	332.7609980106354	2.508284091949463
80	247.51330709457397	fix_post	2		12.0	78.0	2.5	/experiments/knapen_aot/videos/S_ILSVRC2015_train_00569006.mp4	0.0	335.26928210258484	0.10002994537353516
81	247.6133370399475	fix_pre	0		13.0	79.0	2.5	/experiments/knapen_aot/videos/S_yt-ibDaDIEazxg_3.mp4	0.0	335.3693120479584	0.10828900337219238
81	247.7134199142456	response	0	2		79.0	2.5	/experiments/knapen_aot/videos/S_yt-ibDaDIEazxg_3.mp4	0.0	335.46939492225647	
81	247.7216260433197	movie	1		301.0	79.0	2.5	/experiments/knapen_aot/videos/S_yt-ibDaDIEazxg_3.mp4	0.0	335.47760105133057	2.5083119869232178
81	250.22993803024292	fix_post	2		12.0	79.0	2.5	/experiments/knapen_aot/videos/S_yt-ibDaDIEazxg_3.mp4	0.0	337.9859130382538	0.09998488426208496
82	250.329922914505	fix_pre	0		5.0	80.0	2.5	/experiments/knapen_aot/videos/R_S_yt-6vkiJedss6g_5.mp4	0.0	338.08589792251587	0.04244804382324219
82	250.36363792419434	response	0	4		80.0	2.5	/experiments/knapen_aot/videos/R_S_yt-6vkiJedss6g_5.mp4	0.0	338.1196129322052	
82	250.37237095832825	movie	1		301.0	80.0	2.5	/experiments/knapen_aot/videos/R_S_yt-6vkiJedss6g_5.mp4	0.0	338.1283459663391	2.507568120956421
82	252.87993907928467	fix_post	2		12.0	80.0	2.5	/experiments/knapen_aot/videos/R_S_yt-6vkiJedss6g_5.mp4	0.0	340.63591408729553	0.10001587867736816
83	252.97995495796204	fix_pre	0		23.0	81.0	2.5	/experiments/knapen_aot/videos/S_yt-szXWk_X_67Q_10.mp4	0.0	340.7359299659729	0.19166898727416992
83	253.163409948349	response	0	2		81.0	2.5	/experiments/knapen_aot/videos/S_yt-szXWk_X_67Q_10.mp4	0.0	340.91938495635986	
83	253.1716239452362	movie	1		301.0	81.0	2.5	/experiments/knapen_aot/videos/S_yt-szXWk_X_67Q_10.mp4	0.0	340.92759895324707	2.5083320140838623
83	255.67995595932007	fix_post	2		12.0	81.0	2.5	/experiments/knapen_aot/videos/S_yt-szXWk_X_67Q_10.mp4	0.0	343.43593096733093	0.09999704360961914
84	255.7799530029297	fix_pre	0		69.0	82.0	2.5	/experiments/knapen_aot/videos/R_S_yt-R5wOWRtRmrI_36.mp4	0.0	343.53592801094055	0.5749480724334717
84	256.33919310569763	response	0	4		82.0	2.5	/experiments/knapen_aot/videos/R_S_yt-R5wOWRtRmrI_36.mp4	0.0	344.0951681137085	
84	256.35490107536316	movie	1		301.0	82.0	2.5	/experiments/knapen_aot/videos/R_S_yt-R5wOWRtRmrI_36.mp4	0.0	344.110876083374	2.5083608627319336
84	258.8632619380951	fix_post	2		12.0	82.0	2.5	/experiments/knapen_aot/videos/R_S_yt-R5wOWRtRmrI_36.mp4	0.0	346.61923694610596	0.10001897811889648
85	258.963280916214	fix_pre	0		16.0	83.0	2.5	blank	1.0	346.71925592422485	0.1333451271057129
85	259.0884659290314	response	0	4		83.0	2.5	blank	1.0	346.84444093704224	
85	259.0966260433197	movie	1		301.0	83.0	2.5	blank	1.0	346.85260105133057	2.508344888687134
85	261.60497093200684	fix_post	2		12.0	83.0	2.5	blank	1.0	349.3609459400177	0.10064411163330078
87	261.70561504364014	stim	0		295.0					349.461590051651	2.4582529067993164
87	261.83000206947327	response	0	2						349.58597707748413	
87	264.1600749492645	response	0	space						351.9160499572754	
