trial_nr	onset	event_type	phase	response	nr_frames	movie_index	movie_duration	movie_file	blank	onset_abs	duration
0	0.13364815711975098	stim	0		82.0					64.73787307739258	0.6816267967224121
0	0.8071520328521729	response	0	space						65.411376953125	
1	0.8152749538421631	stim	0		121.0					65.41949987411499	1.0079641342163086
1	1.8232390880584717	stim	1		120.0					66.4274640083313	1.0000710487365723
1	2.181777000427246	response	1	space						66.78600192070007	
2	2.823310136795044	fix_pre	0		64.0	0.0	2.5	/experiments/knapen_aot/videos/R_S_g201_CA_A016_C002_SDR_20191114_SDR_2K_AVC.mp4	0.0	67.42753505706787	0.5332918167114258
2	3.3484139442443848	response	0	space		0.0	2.5	/experiments/knapen_aot/videos/R_S_g201_CA_A016_C002_SDR_20191114_SDR_2K_AVC.mp4	0.0	67.95263886451721	
2	3.3566019535064697	movie	1		164.0	0.0	2.5	/experiments/knapen_aot/videos/R_S_g201_CA_A016_C002_SDR_20191114_SDR_2K_AVC.mp4	0.0	67.9608268737793	2.5083281993865967
2	5.864930152893066	fix_post	2		12.0	0.0	2.5	/experiments/knapen_aot/videos/R_S_g201_CA_A016_C002_SDR_20191114_SDR_2K_AVC.mp4	0.0	70.4691550731659	0.10001897811889648
3	5.964949131011963	fix_pre	0		8.0	1.0	2.5	/experiments/knapen_aot/videos/S_yt-t-wpKypNysg_27.mp4	0.0	70.56917405128479	0.06946897506713867
3	6.024815082550049	response	0	2		1.0	2.5	/experiments/knapen_aot/videos/S_yt-t-wpKypNysg_27.mp4	0.0	70.62904000282288	
3	6.034418106079102	movie	1		301.0	1.0	2.5	/experiments/knapen_aot/videos/S_yt-t-wpKypNysg_27.mp4	0.0	70.63864302635193	2.5055248737335205
3	8.539942979812622	fix_post	2		12.0	1.0	2.5	/experiments/knapen_aot/videos/S_yt-t-wpKypNysg_27.mp4	0.0	73.14416790008545	0.09995603561401367
4	8.639899015426636	fix_pre	0		13.0	2.0	2.5	/experiments/knapen_aot/videos/S_yt-2CWrK9nbhTk_211.mp4	0.0	73.24412393569946	0.10967803001403809
4	8.740072965621948	response	0	2		2.0	2.5	/experiments/knapen_aot/videos/S_yt-2CWrK9nbhTk_211.mp4	0.0	73.34429788589478	
4	8.749577045440674	movie	1		301.0	2.0	2.5	/experiments/knapen_aot/videos/S_yt-2CWrK9nbhTk_211.mp4	0.0	73.3538019657135	2.507071018218994
4	11.256648063659668	fix_post	2		12.0	2.0	2.5	/experiments/knapen_aot/videos/S_yt-2CWrK9nbhTk_211.mp4	0.0	75.8608729839325	0.09995388984680176
5	11.35660195350647	fix_pre	0		35.0	3.0	2.5	/experiments/knapen_aot/videos/R_S_yt-lCb_efvJcdE_5.mp4	0.0	75.9608268737793	0.29164814949035645
5	11.63258409500122	response	0	2		3.0	2.5	/experiments/knapen_aot/videos/R_S_yt-lCb_efvJcdE_5.mp4	0.0	76.23680901527405	
5	11.648250102996826	movie	1		301.0	3.0	2.5	/experiments/knapen_aot/videos/R_S_yt-lCb_efvJcdE_5.mp4	0.0	76.25247502326965	2.5083818435668945
5	14.15663194656372	fix_post	2		12.0	3.0	2.5	/experiments/knapen_aot/videos/R_S_yt-lCb_efvJcdE_5.mp4	0.0	78.76085686683655	0.09999608993530273
6	14.256628036499023	fix_pre	0		10.0	4.0	2.5	/experiments/knapen_aot/videos/R_S_ILnEDG_aP1A_35.mp4	0.0	78.86085295677185	0.08325505256652832
6	14.331846952438354	response	0	4		4.0	2.5	/experiments/knapen_aot/videos/R_S_ILnEDG_aP1A_35.mp4	0.0	78.93607187271118	
6	14.339883089065552	movie	1		301.0	4.0	2.5	/experiments/knapen_aot/videos/R_S_ILnEDG_aP1A_35.mp4	0.0	78.94410800933838	2.5083889961242676
6	16.84827208518982	fix_post	2		12.0	4.0	2.5	/experiments/knapen_aot/videos/R_S_ILnEDG_aP1A_35.mp4	0.0	81.45249700546265	0.09999990463256836
7	16.948271989822388	fix_pre	0		37.0	5.0	2.5	/experiments/knapen_aot/videos/S_g201_CA_A016_C002_SDR_20191114_SDR_2K_AVC.mp4	0.0	81.55249691009521	0.30832695960998535
7	17.24826717376709	response	0	2		5.0	2.5	/experiments/knapen_aot/videos/S_g201_CA_A016_C002_SDR_20191114_SDR_2K_AVC.mp4	0.0	81.85249209403992	
7	17.256598949432373	movie	1		163.0	5.0	2.5	/experiments/knapen_aot/videos/S_g201_CA_A016_C002_SDR_20191114_SDR_2K_AVC.mp4	0.0	81.8608238697052	2.5083842277526855
7	19.76498317718506	fix_post	2		12.0	5.0	2.5	/experiments/knapen_aot/videos/S_g201_CA_A016_C002_SDR_20191114_SDR_2K_AVC.mp4	0.0	84.36920809745789	0.10001397132873535
8	19.864997148513794	fix_pre	0		30.0	6.0	2.5	/experiments/knapen_aot/videos/S_yt-RXqc3JAmmPM_72.mp4	0.0	84.46922206878662	0.24996685981750488
8	20.10670304298401	response	0	2		6.0	2.5	/experiments/knapen_aot/videos/S_yt-RXqc3JAmmPM_72.mp4	0.0	84.71092796325684	
8	20.1149640083313	movie	1		301.0	6.0	2.5	/experiments/knapen_aot/videos/S_yt-RXqc3JAmmPM_72.mp4	0.0	84.71918892860413	2.5083210468292236
8	22.623285055160522	fix_post	2		12.0	6.0	2.5	/experiments/knapen_aot/videos/S_yt-RXqc3JAmmPM_72.mp4	0.0	87.22750997543335	0.09998703002929688
9	22.72327208518982	fix_pre	0		100.0	7.0	2.5	blank	1.0	87.32749700546265	0.8333249092102051
9	23.548423051834106	response	0	2		7.0	2.5	blank	1.0	88.15264797210693	
9	23.556596994400024	movie	1		301.0	7.0	2.5	blank	1.0	88.16082191467285	2.5082101821899414
9	26.064807176589966	fix_post	2		12.0	7.0	2.5	blank	1.0	90.6690320968628	0.10013198852539062
10	26.164939165115356	fix_pre	0		37.0	8.0	2.5	/experiments/knapen_aot/videos/R_S_production_ID_4510883.mp4	0.0	90.76916408538818	0.3083198070526123
10	26.457540035247803	response	0	2		8.0	2.5	/experiments/knapen_aot/videos/R_S_production_ID_4510883.mp4	0.0	91.06176495552063	
10	26.47325897216797	movie	1		166.0	8.0	2.5	/experiments/knapen_aot/videos/R_S_production_ID_4510883.mp4	0.0	91.0774838924408	2.5083260536193848
10	28.981585025787354	fix_post	2		12.0	8.0	2.5	/experiments/knapen_aot/videos/R_S_production_ID_4510883.mp4	0.0	93.58580994606018	0.100006103515625
11	29.08159112930298	fix_pre	0		16.0	9.0	2.5	/experiments/knapen_aot/videos/R_S_yt-XHYYkaHcEtM_72.mp4	0.0	93.6858160495758	0.13330388069152832
11	29.206858158111572	response	0	2		9.0	2.5	/experiments/knapen_aot/videos/R_S_yt-XHYYkaHcEtM_72.mp4	0.0	93.8110830783844	
11	29.214895009994507	movie	1		301.0	9.0	2.5	/experiments/knapen_aot/videos/R_S_yt-XHYYkaHcEtM_72.mp4	0.0	93.81911993026733	2.508402109146118
11	31.723297119140625	fix_post	2		12.0	9.0	2.5	/experiments/knapen_aot/videos/R_S_yt-XHYYkaHcEtM_72.mp4	0.0	96.32752203941345	0.0999300479888916
12	31.823227167129517	fix_pre	0		16.0	10.0	2.5	/experiments/knapen_aot/videos/S_yt-3DM_SqT4RII_10.mp4	0.0	96.42745208740234	0.134537935256958
12	31.9483380317688	response	0	2		10.0	2.5	/experiments/knapen_aot/videos/S_yt-3DM_SqT4RII_10.mp4	0.0	96.55256295204163	
12	31.957765102386475	movie	1		300.0	10.0	2.5	/experiments/knapen_aot/videos/S_yt-3DM_SqT4RII_10.mp4	0.0	96.5619900226593	2.507128953933716
12	34.46489405632019	fix_post	2		12.0	10.0	2.5	/experiments/knapen_aot/videos/S_yt-3DM_SqT4RII_10.mp4	0.0	99.06911897659302	0.09995603561401367
13	34.564850091934204	fix_pre	0		44.0	11.0	2.5	/experiments/knapen_aot/videos/S_yt-kiEFK7bDssE_14.mp4	0.0	99.16907501220703	0.3665769100189209
13	34.923325061798096	response	0	2		11.0	2.5	/experiments/knapen_aot/videos/S_yt-kiEFK7bDssE_14.mp4	0.0	99.52754998207092	
13	34.931427001953125	movie	1		301.0	11.0	2.5	/experiments/knapen_aot/videos/S_yt-kiEFK7bDssE_14.mp4	0.0	99.53565192222595	2.5083560943603516
13	37.43978309631348	fix_post	2		12.0	11.0	2.5	/experiments/knapen_aot/videos/S_yt-kiEFK7bDssE_14.mp4	0.0	102.0440080165863	0.10001397132873535
14	37.53979706764221	fix_pre	0		34.0	12.0	2.5	/experiments/knapen_aot/videos/S_yt-BqJHT4K7Qf8_127.mp4	0.0	102.14402198791504	0.28329896926879883
14	37.81499409675598	response	0	2		12.0	2.5	/experiments/knapen_aot/videos/S_yt-BqJHT4K7Qf8_127.mp4	0.0	102.41921901702881	
14	37.82309603691101	movie	1		301.0	12.0	2.5	/experiments/knapen_aot/videos/S_yt-BqJHT4K7Qf8_127.mp4	0.0	102.42732095718384	2.5084540843963623
14	40.33155012130737	fix_post	2		12.0	12.0	2.5	/experiments/knapen_aot/videos/S_yt-BqJHT4K7Qf8_127.mp4	0.0	104.9357750415802	0.09995794296264648
15	40.43150806427002	fix_pre	0		95.0	13.0	2.5	blank	1.0	105.03573298454285	0.791632890701294
15	41.21490406990051	response	0	2		13.0	2.5	blank	1.0	105.81912899017334	
15	41.22314095497131	movie	1		301.0	13.0	2.5	blank	1.0	105.82736587524414	2.5083889961242676
15	43.73152995109558	fix_post	2		12.0	13.0	2.5	blank	1.0	108.33575487136841	0.09997415542602539
16	43.831504106521606	fix_pre	0		29.0	14.0	2.5	/experiments/knapen_aot/videos/R_S_wc-8bTJmWfuVyJ4_8.mp4	0.0	108.43572902679443	0.24164700508117676
16	44.06488394737244	response	0	2		14.0	2.5	/experiments/knapen_aot/videos/R_S_wc-8bTJmWfuVyJ4_8.mp4	0.0	108.66910886764526	
16	44.07315111160278	movie	1		164.0	14.0	2.5	/experiments/knapen_aot/videos/R_S_wc-8bTJmWfuVyJ4_8.mp4	0.0	108.67737603187561	2.5084049701690674
16	46.58155608177185	fix_post	2		12.0	14.0	2.5	/experiments/knapen_aot/videos/R_S_wc-8bTJmWfuVyJ4_8.mp4	0.0	111.18578100204468	0.09992599487304688
17	46.6814820766449	fix_pre	0		36.0	15.0	2.5	/experiments/knapen_aot/videos/S_ILSVRC2015_train_00369004.mp4	0.0	111.28570699691772	0.29996299743652344
17	46.97318410873413	response	0	2		15.0	2.5	/experiments/knapen_aot/videos/S_ILSVRC2015_train_00369004.mp4	0.0	111.57740902900696	
17	46.98144507408142	movie	1		301.0	15.0	2.5	/experiments/knapen_aot/videos/S_ILSVRC2015_train_00369004.mp4	0.0	111.58566999435425	2.508302927017212
17	49.48974800109863	fix_post	2		12.0	15.0	2.5	/experiments/knapen_aot/videos/S_ILSVRC2015_train_00369004.mp4	0.0	114.09397292137146	0.10001611709594727
18	49.58976411819458	fix_pre	0		48.0	16.0	2.5	/experiments/knapen_aot/videos/R_S_yt-FR_Y1Mm8BwQ_53.mp4	0.0	114.19398903846741	0.399979829788208
18	49.981595039367676	response	0	2		16.0	2.5	/experiments/knapen_aot/videos/R_S_yt-FR_Y1Mm8BwQ_53.mp4	0.0	114.5858199596405	
18	49.98974394798279	movie	1		301.0	16.0	2.5	/experiments/knapen_aot/videos/R_S_yt-FR_Y1Mm8BwQ_53.mp4	0.0	114.59396886825562	2.5083200931549072
18	52.498064041137695	fix_post	2		12.0	16.0	2.5	/experiments/knapen_aot/videos/R_S_yt-FR_Y1Mm8BwQ_53.mp4	0.0	117.10228896141052	0.10003805160522461
19	52.59810209274292	fix_pre	0		171.0	17.0	2.5	/experiments/knapen_aot/videos/S_yt-SCzpSxzt0TA_46.mp4	0.0	117.20232701301575	1.4249870777130127
19	54.01489806175232	response	0	2		17.0	2.5	/experiments/knapen_aot/videos/S_yt-SCzpSxzt0TA_46.mp4	0.0	118.61912298202515	
19	54.02308917045593	movie	1		301.0	17.0	2.5	/experiments/knapen_aot/videos/S_yt-SCzpSxzt0TA_46.mp4	0.0	118.62731409072876	2.5083518028259277
19	56.53144097328186	fix_post	2		12.0	17.0	2.5	/experiments/knapen_aot/videos/S_yt-SCzpSxzt0TA_46.mp4	0.0	121.13566589355469	0.09996914863586426
20	56.631410121917725	fix_pre	0		41.0	18.0	2.5	/experiments/knapen_aot/videos/S_ILSVRC2015_train_00473000.mp4	0.0	121.23563504219055	0.341641902923584
20	56.964869022369385	response	0	2		18.0	2.5	/experiments/knapen_aot/videos/S_ILSVRC2015_train_00473000.mp4	0.0	121.56909394264221	
20	56.97305202484131	movie	1		301.0	18.0	2.5	/experiments/knapen_aot/videos/S_ILSVRC2015_train_00473000.mp4	0.0	121.57727694511414	2.5083019733428955
20	59.481353998184204	fix_post	2		12.0	18.0	2.5	/experiments/knapen_aot/videos/S_ILSVRC2015_train_00473000.mp4	0.0	124.08557891845703	0.10008907318115234
21	59.581443071365356	fix_pre	0		70.0	19.0	2.5	/experiments/knapen_aot/videos/S_ILSVRC2015_train_00001011.mp4	0.0	124.18566799163818	0.5843079090118408
21	60.15655016899109	response	0	2		19.0	2.5	/experiments/knapen_aot/videos/S_ILSVRC2015_train_00001011.mp4	0.0	124.76077508926392	
21	60.1657509803772	movie	1		301.0	19.0	2.5	/experiments/knapen_aot/videos/S_ILSVRC2015_train_00001011.mp4	0.0	124.76997590065002	2.5073091983795166
21	62.673060178756714	fix_post	2		12.0	19.0	2.5	/experiments/knapen_aot/videos/S_ILSVRC2015_train_00001011.mp4	0.0	127.27728509902954	0.10000085830688477
22	62.7730610370636	fix_pre	0		90.0	20.0	2.5	blank	1.0	127.37728595733643	0.7499909400939941
22	63.5148561000824	response	0	2		20.0	2.5	blank	1.0	128.11908102035522	
22	63.52305197715759	movie	1		301.0	20.0	2.5	blank	1.0	128.12727689743042	2.5083329677581787
22	66.03138494491577	fix_post	2		12.0	20.0	2.5	blank	1.0	130.6356098651886	0.10003900527954102
23	66.13142395019531	fix_pre	0		16.0	21.0	2.5	/experiments/knapen_aot/videos/S_pexels-laker-5793000.mp4	0.0	130.73564887046814	0.13324213027954102
23	66.25647115707397	response	0	2		21.0	2.5	/experiments/knapen_aot/videos/S_pexels-laker-5793000.mp4	0.0	130.8606960773468	
23	66.26466608047485	movie	1		164.0	21.0	2.5	/experiments/knapen_aot/videos/S_pexels-laker-5793000.mp4	0.0	130.86889100074768	2.508415937423706
23	68.77308201789856	fix_post	2		12.0	21.0	2.5	/experiments/knapen_aot/videos/S_pexels-laker-5793000.mp4	0.0	133.3773069381714	0.0999910831451416
24	68.8730731010437	fix_pre	0		22.0	22.0	2.5	/experiments/knapen_aot/videos/S_bing-www_msn_com_en-us_video_news_tommy-lasorda-salutes-national-league-champs_vp-AAtLThQ_4.mp4	0.0	133.47729802131653	0.1833178997039795
24	69.04822206497192	response	0	2		22.0	2.5	/experiments/knapen_aot/videos/S_bing-www_msn_com_en-us_video_news_tommy-lasorda-salutes-national-league-champs_vp-AAtLThQ_4.mp4	0.0	133.65244698524475	
24	69.05639100074768	movie	1		163.0	22.0	2.5	/experiments/knapen_aot/videos/S_bing-www_msn_com_en-us_video_news_tommy-lasorda-salutes-national-league-champs_vp-AAtLThQ_4.mp4	0.0	133.6606159210205	2.508331060409546
24	71.56472206115723	fix_post	2		12.0	22.0	2.5	/experiments/knapen_aot/videos/S_bing-www_msn_com_en-us_video_news_tommy-lasorda-salutes-national-league-champs_vp-AAtLThQ_4.mp4	0.0	136.16894698143005	0.10000395774841309
25	71.66472601890564	fix_pre	0		69.0	23.0	2.5	/experiments/knapen_aot/videos/S_yt-2y6A9DJPsDU_65.mp4	0.0	136.26895093917847	0.575005054473877
25	72.22402906417847	response	0	2		23.0	2.5	/experiments/knapen_aot/videos/S_yt-2y6A9DJPsDU_65.mp4	0.0	136.8282539844513	
25	72.23973107337952	movie	1		301.0	23.0	2.5	/experiments/knapen_aot/videos/S_yt-2y6A9DJPsDU_65.mp4	0.0	136.84395599365234	2.508312940597534
25	74.74804401397705	fix_post	2		12.0	23.0	2.5	/experiments/knapen_aot/videos/S_yt-2y6A9DJPsDU_65.mp4	0.0	139.35226893424988	0.10000205039978027
26	74.84804606437683	fix_pre	0		29.0	24.0	2.5	/experiments/knapen_aot/videos/R_S_yt-lCb_efvJcdE_5.mp4	0.0	139.45227098464966	0.2416839599609375
26	75.07389116287231	response	0	2		24.0	2.5	/experiments/knapen_aot/videos/R_S_yt-lCb_efvJcdE_5.mp4	0.0	139.67811608314514	
26	75.08973002433777	movie	1		301.0	24.0	2.5	/experiments/knapen_aot/videos/R_S_yt-lCb_efvJcdE_5.mp4	0.0	139.6939549446106	2.5083401203155518
26	77.59807014465332	fix_post	2		12.0	24.0	2.5	/experiments/knapen_aot/videos/R_S_yt-lCb_efvJcdE_5.mp4	0.0	142.20229506492615	0.09996294975280762
27	77.69803309440613	fix_pre	0		14.0	25.0	2.5	/experiments/knapen_aot/videos/R_S_yt-GytLOB9Qjro_76.mp4	0.0	142.30225801467896	0.11662507057189941
27	77.7989890575409	response	0	2		25.0	2.5	/experiments/knapen_aot/videos/R_S_yt-GytLOB9Qjro_76.mp4	0.0	142.40321397781372	
27	77.81465816497803	movie	1		297.0	25.0	2.5	/experiments/knapen_aot/videos/R_S_yt-GytLOB9Qjro_76.mp4	0.0	142.41888308525085	2.5084028244018555
27	80.32306098937988	fix_post	2		12.0	25.0	2.5	/experiments/knapen_aot/videos/R_S_yt-GytLOB9Qjro_76.mp4	0.0	144.9272859096527	0.09992408752441406
28	80.4229850769043	fix_pre	0		129.0	26.0	2.5	blank	1.0	145.02720999717712	1.0750219821929932
28	81.48238706588745	response	0	2		26.0	2.5	blank	1.0	146.08661198616028	
28	81.49800705909729	movie	1		301.0	26.0	2.5	blank	1.0	146.10223197937012	2.5083119869232178
28	84.00631904602051	fix_post	2		12.0	26.0	2.5	blank	1.0	148.61054396629333	0.0999760627746582
29	84.10629510879517	fix_pre	0		2.0	27.0	2.5	/experiments/knapen_aot/videos/R_S_production_ID_3943334.mp4	0.0	148.710520029068	0.018035888671875
29	84.11477208137512	response	0	2		27.0	2.5	/experiments/knapen_aot/videos/R_S_production_ID_3943334.mp4	0.0	148.71899700164795	
29	84.12433099746704	movie	1		186.0	27.0	2.5	/experiments/knapen_aot/videos/R_S_production_ID_3943334.mp4	0.0	148.72855591773987	2.5069429874420166
29	86.63127398490906	fix_post	2		12.0	27.0	2.5	/experiments/knapen_aot/videos/R_S_production_ID_3943334.mp4	0.0	151.23549890518188	0.10004115104675293
30	86.73131513595581	fix_pre	0		18.0	28.0	2.5	/experiments/knapen_aot/videos/R_S_yt-NQSCGMpo-p8_118.mp4	0.0	151.33554005622864	0.15001487731933594
30	86.87304210662842	response	0	2		28.0	2.5	/experiments/knapen_aot/videos/R_S_yt-NQSCGMpo-p8_118.mp4	0.0	151.47726702690125	
30	86.88133001327515	movie	1		301.0	28.0	2.5	/experiments/knapen_aot/videos/R_S_yt-NQSCGMpo-p8_118.mp4	0.0	151.48555493354797	2.508312940597534
30	89.38964295387268	fix_post	2		12.0	28.0	2.5	/experiments/knapen_aot/videos/R_S_yt-NQSCGMpo-p8_118.mp4	0.0	153.9938678741455	0.09997916221618652
31	89.48962211608887	fix_pre	0		47.0	29.0	2.5	/experiments/knapen_aot/videos/R_S_yt-KLInd-KrK_w_19.mp4	0.0	154.0938470363617	0.3916819095611572
31	89.87308716773987	response	0	2		29.0	2.5	/experiments/knapen_aot/videos/R_S_yt-KLInd-KrK_w_19.mp4	0.0	154.4773120880127	
31	89.88130402565002	movie	1		301.0	29.0	2.5	/experiments/knapen_aot/videos/R_S_yt-KLInd-KrK_w_19.mp4	0.0	154.48552894592285	2.508324146270752
31	92.38962817192078	fix_post	2		12.0	29.0	2.5	/experiments/knapen_aot/videos/R_S_yt-KLInd-KrK_w_19.mp4	0.0	156.9938530921936	0.10006499290466309
32	92.48969316482544	fix_pre	0		30.0	30.0	2.5	/experiments/knapen_aot/videos/R_S_wc-TAGpcap1KdAS_212.mp4	0.0	157.09391808509827	0.24988985061645508
32	92.73135995864868	response	0	2		30.0	2.5	/experiments/knapen_aot/videos/R_S_wc-TAGpcap1KdAS_212.mp4	0.0	157.3355848789215	
32	92.7395830154419	movie	1		298.0	30.0	2.5	/experiments/knapen_aot/videos/R_S_wc-TAGpcap1KdAS_212.mp4	0.0	157.34380793571472	2.5083630084991455
32	95.24794602394104	fix_post	2		12.0	30.0	2.5	/experiments/knapen_aot/videos/R_S_wc-TAGpcap1KdAS_212.mp4	0.0	159.85217094421387	0.09991002082824707
33	95.34785604476929	fix_pre	0		24.0	31.0	2.5	/experiments/knapen_aot/videos/R_S_yt-_6j2NXrB-zE_28.mp4	0.0	159.95208096504211	0.2000110149383545
33	95.53977012634277	response	0	2		31.0	2.5	/experiments/knapen_aot/videos/R_S_yt-_6j2NXrB-zE_28.mp4	0.0	160.1439950466156	
33	95.54786705970764	movie	1		301.0	31.0	2.5	/experiments/knapen_aot/videos/R_S_yt-_6j2NXrB-zE_28.mp4	0.0	160.15209197998047	2.508316993713379
33	98.05618405342102	fix_post	2		12.0	31.0	2.5	/experiments/knapen_aot/videos/R_S_yt-_6j2NXrB-zE_28.mp4	0.0	162.66040897369385	0.10007405281066895
34	98.15625810623169	fix_pre	0		30.0	32.0	2.5	/experiments/knapen_aot/videos/S_yt-wUqpCtBOFBA_89.mp4	0.0	162.76048302650452	0.24993300437927246
34	98.39053416252136	response	0	2		32.0	2.5	/experiments/knapen_aot/videos/S_yt-wUqpCtBOFBA_89.mp4	0.0	162.9947590827942	
34	98.40619111061096	movie	1		301.0	32.0	2.5	/experiments/knapen_aot/videos/S_yt-wUqpCtBOFBA_89.mp4	0.0	163.0104160308838	2.5083558559417725
34	100.91454696655273	fix_post	2		12.0	32.0	2.5	/experiments/knapen_aot/videos/S_yt-wUqpCtBOFBA_89.mp4	0.0	165.51877188682556	0.1000211238861084
35	101.01456809043884	fix_pre	0		23.0	33.0	2.5	blank	1.0	165.61879301071167	0.19252800941467285
35	101.19802498817444	response	0	2		33.0	2.5	blank	1.0	165.80224990844727	
35	101.20709609985352	movie	1		301.0	33.0	2.5	blank	1.0	165.81132102012634	2.5074260234832764
35	103.71452212333679	fix_post	2		12.0	33.0	2.5	blank	1.0	168.31874704360962	0.10002899169921875
36	103.81455111503601	fix_pre	0		32.0	34.0	2.5	/experiments/knapen_aot/videos/R_S_ILSVRC2015_train_00515000.mp4	0.0	168.41877603530884	0.2674589157104492
36	104.07300400733948	response	0	2		34.0	2.5	/experiments/knapen_aot/videos/R_S_ILSVRC2015_train_00515000.mp4	0.0	168.6772289276123	
36	104.08201003074646	movie	1		301.0	34.0	2.5	/experiments/knapen_aot/videos/R_S_ILSVRC2015_train_00515000.mp4	0.0	168.6862349510193	2.5075619220733643
36	106.58957195281982	fix_post	2		12.0	34.0	2.5	/experiments/knapen_aot/videos/R_S_ILSVRC2015_train_00515000.mp4	0.0	171.19379687309265	0.09993219375610352
37	106.68950414657593	fix_pre	0		36.0	35.0	2.5	/experiments/knapen_aot/videos/R_S_ILSVRC2015_train_00324001.mp4	0.0	171.29372906684875	0.2999880313873291
37	106.98129200935364	response	0	2		35.0	2.5	/experiments/knapen_aot/videos/R_S_ILSVRC2015_train_00324001.mp4	0.0	171.58551692962646	
37	106.98949217796326	movie	1		301.0	35.0	2.5	/experiments/knapen_aot/videos/R_S_ILSVRC2015_train_00324001.mp4	0.0	171.59371709823608	2.5083417892456055
37	109.49783396720886	fix_post	2		12.0	35.0	2.5	/experiments/knapen_aot/videos/R_S_ILSVRC2015_train_00324001.mp4	0.0	174.1020588874817	0.09998297691345215
38	109.59781694412231	fix_pre	0		19.0	36.0	2.5	/experiments/knapen_aot/videos/R_S_ILSVRC2015_train_00369004.mp4	0.0	174.20204186439514	0.1583271026611328
38	109.74048900604248	response	0	2		36.0	2.5	/experiments/knapen_aot/videos/R_S_ILSVRC2015_train_00369004.mp4	0.0	174.3447139263153	
38	109.75614404678345	movie	1		301.0	36.0	2.5	/experiments/knapen_aot/videos/R_S_ILSVRC2015_train_00369004.mp4	0.0	174.36036896705627	2.508394956588745
38	112.26453900337219	fix_post	2		12.0	36.0	2.5	/experiments/knapen_aot/videos/R_S_ILSVRC2015_train_00369004.mp4	0.0	176.86876392364502	0.09994912147521973
39	112.36448812484741	fix_pre	0		40.0	37.0	2.5	/experiments/knapen_aot/videos/R_S_comp_A012_C014_1223PT_v53_SDR_PS_FINAL_20180709_F0F8700_SDR_2K_AVC.mp4	0.0	176.96871304512024	0.33326101303100586
39	112.68963503837585	response	0	2		37.0	2.5	/experiments/knapen_aot/videos/R_S_comp_A012_C014_1223PT_v53_SDR_PS_FINAL_20180709_F0F8700_SDR_2K_AVC.mp4	0.0	177.29385995864868	
39	112.69774913787842	movie	1		166.0	37.0	2.5	/experiments/knapen_aot/videos/R_S_comp_A012_C014_1223PT_v53_SDR_PS_FINAL_20180709_F0F8700_SDR_2K_AVC.mp4	0.0	177.30197405815125	2.5084729194641113
39	115.20622205734253	fix_post	2		12.0	37.0	2.5	/experiments/knapen_aot/videos/R_S_comp_A012_C014_1223PT_v53_SDR_PS_FINAL_20180709_F0F8700_SDR_2K_AVC.mp4	0.0	179.81044697761536	0.09997391700744629
40	115.30619597434998	fix_pre	0		10.0	38.0	2.5	/experiments/knapen_aot/videos/R_S_production_ID_4269182.mp4	0.0	179.9104208946228	0.08334112167358398
40	115.38132500648499	response	0	2		38.0	2.5	/experiments/knapen_aot/videos/R_S_production_ID_4269182.mp4	0.0	179.9855499267578	
40	115.38953709602356	movie	1		191.0	38.0	2.5	/experiments/knapen_aot/videos/R_S_production_ID_4269182.mp4	0.0	179.9937620162964	2.5083110332489014
40	117.89784812927246	fix_post	2		12.0	38.0	2.5	/experiments/knapen_aot/videos/R_S_production_ID_4269182.mp4	0.0	182.5020730495453	0.10000085830688477
41	117.99784898757935	fix_pre	0		137.0	39.0	2.5	/experiments/knapen_aot/videos/R_S_ILSVRC2015_train_00323000.mp4	0.0	182.60207390785217	1.1416800022125244
41	119.12375211715698	response	0	2		39.0	2.5	/experiments/knapen_aot/videos/R_S_ILSVRC2015_train_00323000.mp4	0.0	183.7279770374298	
41	119.13952898979187	movie	1		300.0	39.0	2.5	/experiments/knapen_aot/videos/R_S_ILSVRC2015_train_00323000.mp4	0.0	183.7437539100647	2.5083141326904297
41	121.6478431224823	fix_post	2		12.0	39.0	2.5	/experiments/knapen_aot/videos/R_S_ILSVRC2015_train_00323000.mp4	0.0	186.25206804275513	0.09999394416809082
42	121.74783706665039	fix_pre	0		11.0	40.0	2.5	/experiments/knapen_aot/videos/R_S_yt-yB7mPODPTVw_74.mp4	0.0	186.35206198692322	0.09167098999023438
42	121.83129501342773	response	0	2		40.0	2.5	/experiments/knapen_aot/videos/R_S_yt-yB7mPODPTVw_74.mp4	0.0	186.43551993370056	
42	121.83950805664062	movie	1		301.0	40.0	2.5	/experiments/knapen_aot/videos/R_S_yt-yB7mPODPTVw_74.mp4	0.0	186.44373297691345	2.508294105529785
42	124.34780216217041	fix_post	2		12.0	40.0	2.5	/experiments/knapen_aot/videos/R_S_yt-yB7mPODPTVw_74.mp4	0.0	188.95202708244324	0.10001778602600098
43	124.44781994819641	fix_pre	0		27.0	41.0	2.5	blank	1.0	189.05204486846924	0.225053071975708
43	124.66466617584229	response	0	2		41.0	2.5	blank	1.0	189.2688910961151	
43	124.67287302017212	movie	1		301.0	41.0	2.5	blank	1.0	189.27709794044495	2.5082881450653076
43	127.18116116523743	fix_post	2		12.0	41.0	2.5	blank	1.0	191.78538608551025	0.0999748706817627
44	127.28113603591919	fix_pre	0		48.0	42.0	2.5	/experiments/knapen_aot/videos/R_S_ILSVRC2015_train_00689000.mp4	0.0	191.88536095619202	0.39997196197509766
44	127.67291116714478	response	0	2		42.0	2.5	/experiments/knapen_aot/videos/R_S_ILSVRC2015_train_00689000.mp4	0.0	192.2771360874176	
44	127.68110799789429	movie	1		301.0	42.0	2.5	/experiments/knapen_aot/videos/R_S_ILSVRC2015_train_00689000.mp4	0.0	192.28533291816711	2.5083200931549072
44	130.1894280910492	fix_post	2		12.0	42.0	2.5	/experiments/knapen_aot/videos/R_S_ILSVRC2015_train_00689000.mp4	0.0	194.79365301132202	0.10006093978881836
45	130.289489030838	fix_pre	0		25.0	43.0	2.5	/experiments/knapen_aot/videos/S_production_ID_3943334.mp4	0.0	194.89371395111084	0.2089989185333252
45	130.48967504501343	response	0	2		43.0	2.5	/experiments/knapen_aot/videos/S_production_ID_3943334.mp4	0.0	195.09389996528625	
45	130.49848794937134	movie	1		184.0	43.0	2.5	/experiments/knapen_aot/videos/S_production_ID_3943334.mp4	0.0	195.10271286964417	2.5077481269836426
45	133.00623607635498	fix_post	2		12.0	43.0	2.5	/experiments/knapen_aot/videos/S_production_ID_3943334.mp4	0.0	197.6104609966278	0.09988903999328613
46	133.10612511634827	fix_pre	0		15.0	44.0	2.5	/experiments/knapen_aot/videos/R_S_comp_CH_C007_C011_PSNK_v02_SDR_PS_FINAL_20180709_SDR_2K_AVC.mp4	0.0	197.7103500366211	0.12494397163391113
46	133.222913980484	response	0	2		44.0	2.5	/experiments/knapen_aot/videos/R_S_comp_CH_C007_C011_PSNK_v02_SDR_PS_FINAL_20180709_SDR_2K_AVC.mp4	0.0	197.82713890075684	
46	133.23106908798218	movie	1		172.0	44.0	2.5	/experiments/knapen_aot/videos/R_S_comp_CH_C007_C011_PSNK_v02_SDR_PS_FINAL_20180709_SDR_2K_AVC.mp4	0.0	197.835294008255	2.5084218978881836
46	135.73949098587036	fix_post	2		12.0	44.0	2.5	/experiments/knapen_aot/videos/R_S_comp_CH_C007_C011_PSNK_v02_SDR_PS_FINAL_20180709_SDR_2K_AVC.mp4	0.0	200.3437159061432	0.09998703002929688
47	135.83947801589966	fix_pre	0		3.0	45.0	2.5	/experiments/knapen_aot/videos/S_yt-zlbtESb7Fcw_28.mp4	0.0	200.44370293617249	0.024966955184936523
47	135.85620307922363	response	0	2		45.0	2.5	/experiments/knapen_aot/videos/S_yt-zlbtESb7Fcw_28.mp4	0.0	200.46042799949646	
47	135.8644449710846	movie	1		301.0	45.0	2.5	/experiments/knapen_aot/videos/S_yt-zlbtESb7Fcw_28.mp4	0.0	200.46866989135742	2.5083401203155518
47	138.37278509140015	fix_post	2		12.0	45.0	2.5	/experiments/knapen_aot/videos/S_yt-zlbtESb7Fcw_28.mp4	0.0	202.97701001167297	0.09994292259216309
48	138.4727280139923	fix_pre	0		7.0	46.0	2.5	/experiments/knapen_aot/videos/S_video.mp4	0.0	203.07695293426514	0.058380126953125
48	138.52294516563416	response	0	2		46.0	2.5	/experiments/knapen_aot/videos/S_video.mp4	0.0	203.12717008590698	
48	138.53110814094543	movie	1		167.0	46.0	2.5	/experiments/knapen_aot/videos/S_video.mp4	0.0	203.13533306121826	2.508323907852173
48	141.0394320487976	fix_post	2		12.0	46.0	2.5	/experiments/knapen_aot/videos/S_video.mp4	0.0	205.64365696907043	0.0999751091003418
49	141.13940715789795	fix_pre	0		6.0	47.0	2.5	/experiments/knapen_aot/videos/S_yt-Ozx_f0a0ZDI_32.mp4	0.0	205.74363207817078	0.050061941146850586
49	141.1744019985199	response	0	2		47.0	2.5	/experiments/knapen_aot/videos/S_yt-Ozx_f0a0ZDI_32.mp4	0.0	205.77862691879272	
49	141.1894690990448	movie	1		301.0	47.0	2.5	/experiments/knapen_aot/videos/S_yt-Ozx_f0a0ZDI_32.mp4	0.0	205.79369401931763	2.508229970932007
49	143.6976990699768	fix_post	2		12.0	47.0	2.5	/experiments/knapen_aot/videos/S_yt-Ozx_f0a0ZDI_32.mp4	0.0	208.30192399024963	0.10007905960083008
50	143.79777812957764	fix_pre	0		27.0	48.0	2.5	/experiments/knapen_aot/videos/R_S_production_ID_4325509.mp4	0.0	208.40200304985046	0.22494101524353027
50	144.01456212997437	response	0	2		48.0	2.5	/experiments/knapen_aot/videos/R_S_production_ID_4325509.mp4	0.0	208.6187870502472	
50	144.02271914482117	movie	1		202.0	48.0	2.5	/experiments/knapen_aot/videos/R_S_production_ID_4325509.mp4	0.0	208.626944065094	2.5083398818969727
50	146.53105902671814	fix_post	2		12.0	48.0	2.5	/experiments/knapen_aot/videos/R_S_production_ID_4325509.mp4	0.0	211.13528394699097	0.10004210472106934
51	146.6311011314392	fix_pre	0		25.0	49.0	2.5	blank	1.0	211.23532605171204	0.20831894874572754
51	146.8311710357666	response	0	2		49.0	2.5	blank	1.0	211.43539595603943	
51	146.83942008018494	movie	1		301.0	49.0	2.5	blank	1.0	211.44364500045776	2.5082130432128906
51	149.1144299507141	response	1	2		49.0	2.5	blank	1.0	213.71865487098694	
51	149.34763312339783	fix_post	2		12.0	49.0	2.5	blank	1.0	213.95185804367065	0.1000359058380127
52	149.44766902923584	fix_pre	0		18.0	50.0	2.5	/experiments/knapen_aot/videos/R_S_production_ID_4765899.mp4	0.0	214.05189394950867	0.15004611015319824
52	149.58948302268982	response	0	2		50.0	2.5	/experiments/knapen_aot/videos/R_S_production_ID_4765899.mp4	0.0	214.19370794296265	
52	149.59771513938904	movie	1		172.0	50.0	2.5	/experiments/knapen_aot/videos/R_S_production_ID_4765899.mp4	0.0	214.20194005966187	2.508232831954956
52	152.105947971344	fix_post	2		12.0	50.0	2.5	/experiments/knapen_aot/videos/R_S_production_ID_4765899.mp4	0.0	216.71017289161682	0.10007309913635254
53	152.20602107048035	fix_pre	0		20.0	51.0	2.5	/experiments/knapen_aot/videos/S_yt-HMAa2QbfFPI_216.mp4	0.0	216.81024599075317	0.16719388961791992
53	152.3644061088562	response	0	2		51.0	2.5	/experiments/knapen_aot/videos/S_yt-HMAa2QbfFPI_216.mp4	0.0	216.96863102912903	
53	152.37321496009827	movie	1		301.0	51.0	2.5	/experiments/knapen_aot/videos/S_yt-HMAa2QbfFPI_216.mp4	0.0	216.9774398803711	2.5077261924743652
53	154.88094115257263	fix_post	2		12.0	51.0	2.5	/experiments/knapen_aot/videos/S_yt-HMAa2QbfFPI_216.mp4	0.0	219.48516607284546	0.1000969409942627
54	154.9810380935669	fix_pre	0		13.0	52.0	2.5	/experiments/knapen_aot/videos/S_comp_CH_C007_C011_PSNK_v02_SDR_PS_FINAL_20180709_SDR_2K_AVC.mp4	0.0	219.58526301383972	0.10825490951538086
54	155.08104515075684	response	0	2		52.0	2.5	/experiments/knapen_aot/videos/S_comp_CH_C007_C011_PSNK_v02_SDR_PS_FINAL_20180709_SDR_2K_AVC.mp4	0.0	219.68527007102966	
54	155.08929300308228	movie	1		171.0	52.0	2.5	/experiments/knapen_aot/videos/S_comp_CH_C007_C011_PSNK_v02_SDR_PS_FINAL_20180709_SDR_2K_AVC.mp4	0.0	219.6935179233551	2.5083160400390625
54	157.59760904312134	fix_post	2		12.0	52.0	2.5	/experiments/knapen_aot/videos/S_comp_CH_C007_C011_PSNK_v02_SDR_PS_FINAL_20180709_SDR_2K_AVC.mp4	0.0	222.20183396339417	0.09995603561401367
55	157.69756507873535	fix_pre	0		47.0	53.0	2.5	/experiments/knapen_aot/videos/S_yt-XpM1Jtwlvvk_42.mp4	0.0	222.30178999900818	0.3917410373687744
55	158.08103799819946	response	0	2		53.0	2.5	/experiments/knapen_aot/videos/S_yt-XpM1Jtwlvvk_42.mp4	0.0	222.6852629184723	
55	158.08930611610413	movie	1		300.0	53.0	2.5	/experiments/knapen_aot/videos/S_yt-XpM1Jtwlvvk_42.mp4	0.0	222.69353103637695	2.5082950592041016
55	160.59760117530823	fix_post	2		12.0	53.0	2.5	/experiments/knapen_aot/videos/S_yt-XpM1Jtwlvvk_42.mp4	0.0	225.20182609558105	0.09998488426208496
56	160.6975860595703	fix_pre	0		70.0	54.0	2.5	/experiments/knapen_aot/videos/R_S_comp_CH_C002_C005_PSNK_v05_SDR_PS_FINAL_20180709_SDR_2K_AVC.mp4	0.0	225.30181097984314	0.5833539962768555
56	161.27282309532166	response	0	2		54.0	2.5	/experiments/knapen_aot/videos/R_S_comp_CH_C002_C005_PSNK_v05_SDR_PS_FINAL_20180709_SDR_2K_AVC.mp4	0.0	225.87704801559448	
56	161.28094005584717	movie	1		174.0	54.0	2.5	/experiments/knapen_aot/videos/R_S_comp_CH_C002_C005_PSNK_v05_SDR_PS_FINAL_20180709_SDR_2K_AVC.mp4	0.0	225.88516497612	2.5084071159362793
56	163.78934717178345	fix_post	2		12.0	54.0	2.5	/experiments/knapen_aot/videos/R_S_comp_CH_C002_C005_PSNK_v05_SDR_PS_FINAL_20180709_SDR_2K_AVC.mp4	0.0	228.39357209205627	0.09997892379760742
57	163.88932609558105	fix_pre	0		54.0	55.0	2.5	blank	1.0	228.49355101585388	0.44999003410339355
57	164.3316581249237	response	0	2		55.0	2.5	blank	1.0	228.93588304519653	
57	164.33931612968445	movie	1		301.0	55.0	2.5	blank	1.0	228.94354104995728	2.508363962173462
57	166.8476800918579	fix_post	2		12.0	55.0	2.5	blank	1.0	231.45190501213074	0.09996390342712402
58	166.94764399528503	fix_pre	0		16.0	56.0	2.5	/experiments/knapen_aot/videos/S_yt-JQOHHL30Y54_101.mp4	0.0	231.55186891555786	0.13380813598632812
58	167.07270908355713	response	0	2		56.0	2.5	/experiments/knapen_aot/videos/S_yt-JQOHHL30Y54_101.mp4	0.0	231.67693400382996	
58	167.08145213127136	movie	1		301.0	56.0	2.5	/experiments/knapen_aot/videos/S_yt-JQOHHL30Y54_101.mp4	0.0	231.6856770515442	2.5078518390655518
58	169.5893039703369	fix_post	2		12.0	56.0	2.5	/experiments/knapen_aot/videos/S_yt-JQOHHL30Y54_101.mp4	0.0	234.19352889060974	0.09995508193969727
59	169.6892590522766	fix_pre	0		22.0	57.0	2.5	/experiments/knapen_aot/videos/R_S_ILSVRC2015_train_00324001.mp4	0.0	234.29348397254944	0.1837749481201172
59	169.8569140434265	response	0	2		57.0	2.5	/experiments/knapen_aot/videos/R_S_ILSVRC2015_train_00324001.mp4	0.0	234.46113896369934	
59	169.87303400039673	movie	1		301.0	57.0	2.5	/experiments/knapen_aot/videos/R_S_ILSVRC2015_train_00324001.mp4	0.0	234.47725892066956	2.507845163345337
59	172.38087916374207	fix_post	2		12.0	57.0	2.5	/experiments/knapen_aot/videos/R_S_ILSVRC2015_train_00324001.mp4	0.0	236.9851040840149	0.10011696815490723
60	172.48099613189697	fix_pre	0		22.0	58.0	2.5	/experiments/knapen_aot/videos/S_ILSVRC2015_train_00515000.mp4	0.0	237.0852210521698	0.1837449073791504
60	172.6560640335083	response	0	2		58.0	2.5	/experiments/knapen_aot/videos/S_ILSVRC2015_train_00515000.mp4	0.0	237.26028895378113	
60	172.66474103927612	movie	1		301.0	58.0	2.5	/experiments/knapen_aot/videos/S_ILSVRC2015_train_00515000.mp4	0.0	237.26896595954895	2.507823944091797
60	175.17256498336792	fix_post	2		12.0	58.0	2.5	/experiments/knapen_aot/videos/S_ILSVRC2015_train_00515000.mp4	0.0	239.77678990364075	0.09995412826538086
61	175.2725191116333	fix_pre	0		34.0	59.0	2.5	/experiments/knapen_aot/videos/S_comp_CH_C007_C011_PSNK_v02_SDR_PS_FINAL_20180709_SDR_2K_AVC.mp4	0.0	239.87674403190613	0.28336501121520996
61	175.5475959777832	response	0	2		59.0	2.5	/experiments/knapen_aot/videos/S_comp_CH_C007_C011_PSNK_v02_SDR_PS_FINAL_20180709_SDR_2K_AVC.mp4	0.0	240.15182089805603	
61	175.5558841228485	movie	1		169.0	59.0	2.5	/experiments/knapen_aot/videos/S_comp_CH_C007_C011_PSNK_v02_SDR_PS_FINAL_20180709_SDR_2K_AVC.mp4	0.0	240.16010904312134	2.508401870727539
61	178.06428599357605	fix_post	2		12.0	59.0	2.5	/experiments/knapen_aot/videos/S_comp_CH_C007_C011_PSNK_v02_SDR_PS_FINAL_20180709_SDR_2K_AVC.mp4	0.0	242.66851091384888	0.09998416900634766
62	178.1642701625824	fix_pre	0		4.0	60.0	2.5	/experiments/knapen_aot/videos/R_S_ILSVRC2015_train_00601000.mp4	0.0	242.76849508285522	0.03337693214416504
62	178.18941402435303	response	0	2		60.0	2.5	/experiments/knapen_aot/videos/R_S_ILSVRC2015_train_00601000.mp4	0.0	242.79363894462585	
62	178.19764709472656	movie	1		301.0	60.0	2.5	/experiments/knapen_aot/videos/R_S_ILSVRC2015_train_00601000.mp4	0.0	242.8018720149994	2.5082759857177734
62	180.70592308044434	fix_post	2		12.0	60.0	2.5	/experiments/knapen_aot/videos/R_S_ILSVRC2015_train_00601000.mp4	0.0	245.31014800071716	0.10002899169921875
63	180.80595207214355	fix_pre	0		35.0	61.0	2.5	/experiments/knapen_aot/videos/R_S_yt-EApB0DJ3ECg_66.mp4	0.0	245.41017699241638	0.2915840148925781
63	181.0893521308899	response	0	2		61.0	2.5	/experiments/knapen_aot/videos/R_S_yt-EApB0DJ3ECg_66.mp4	0.0	245.69357705116272	
63	181.09753608703613	movie	1		301.0	61.0	2.5	/experiments/knapen_aot/videos/R_S_yt-EApB0DJ3ECg_66.mp4	0.0	245.70176100730896	2.508370876312256
63	183.6059069633484	fix_post	2		12.0	61.0	2.5	/experiments/knapen_aot/videos/R_S_yt-EApB0DJ3ECg_66.mp4	0.0	248.21013188362122	0.10000419616699219
64	183.70591115951538	fix_pre	0		29.0	62.0	2.5	blank	1.0	248.3101360797882	0.24166083335876465
64	183.93934297561646	response	0	2		62.0	2.5	blank	1.0	248.54356789588928	
64	183.94757199287415	movie	1		301.0	62.0	2.5	blank	1.0	248.55179691314697	2.508341073989868
64	186.455913066864	fix_post	2		12.0	62.0	2.5	blank	1.0	251.06013798713684	0.09993195533752441
64	186.53106999397278	response	2	2		62.0	2.5	blank	1.0	251.1352949142456	
65	186.55584502220154	fix_pre	0		53.0	63.0	2.5	/experiments/knapen_aot/videos/R_S_Pexels_Videos_278654_1.mp4	0.0	251.16006994247437	0.44208693504333496
65	186.9893569946289	response	0	2		63.0	2.5	/experiments/knapen_aot/videos/R_S_Pexels_Videos_278654_1.mp4	0.0	251.59358191490173	
65	186.99793195724487	movie	1		165.0	63.0	2.5	/experiments/knapen_aot/videos/R_S_Pexels_Videos_278654_1.mp4	0.0	251.6021568775177	2.507904052734375
65	189.50583600997925	fix_post	2		12.0	63.0	2.5	/experiments/knapen_aot/videos/R_S_Pexels_Videos_278654_1.mp4	0.0	254.11006093025208	0.10004901885986328
66	189.6058850288391	fix_pre	0		26.0	64.0	2.5	/experiments/knapen_aot/videos/R_S_bing-www_break_com_video_like-a-cat-catching-a-fly-3131008_12.mp4	0.0	254.21010994911194	0.2166590690612793
66	189.81433701515198	response	0	2		64.0	2.5	/experiments/knapen_aot/videos/R_S_bing-www_break_com_video_like-a-cat-catching-a-fly-3131008_12.mp4	0.0	254.4185619354248	
66	189.8225440979004	movie	1		301.0	64.0	2.5	/experiments/knapen_aot/videos/R_S_bing-www_break_com_video_like-a-cat-catching-a-fly-3131008_12.mp4	0.0	254.42676901817322	2.508341073989868
66	192.33088517189026	fix_post	2		12.0	64.0	2.5	/experiments/knapen_aot/videos/R_S_bing-www_break_com_video_like-a-cat-catching-a-fly-3131008_12.mp4	0.0	256.9351100921631	0.09999585151672363
67	192.43088102340698	fix_pre	0		27.0	65.0	2.5	/experiments/knapen_aot/videos/S_ILSVRC2015_train_00067005.mp4	0.0	257.0351059436798	0.22495293617248535
67	192.64773297309875	response	0	2		65.0	2.5	/experiments/knapen_aot/videos/S_ILSVRC2015_train_00067005.mp4	0.0	257.2519578933716	
67	192.65583395957947	movie	1		301.0	65.0	2.5	/experiments/knapen_aot/videos/S_ILSVRC2015_train_00067005.mp4	0.0	257.2600588798523	2.508327007293701
67	195.16416096687317	fix_post	2		12.0	65.0	2.5	/experiments/knapen_aot/videos/S_ILSVRC2015_train_00067005.mp4	0.0	259.768385887146	0.10004210472106934
68	195.26420307159424	fix_pre	0		24.0	66.0	2.5	/experiments/knapen_aot/videos/R_S_yt-28ODBE9bVh0_44.mp4	0.0	259.86842799186707	0.19998598098754883
68	195.45586800575256	response	0	2		66.0	2.5	/experiments/knapen_aot/videos/R_S_yt-28ODBE9bVh0_44.mp4	0.0	260.0600929260254	
68	195.4641890525818	movie	1		301.0	66.0	2.5	/experiments/knapen_aot/videos/R_S_yt-28ODBE9bVh0_44.mp4	0.0	260.0684139728546	2.508280038833618
68	197.9724690914154	fix_post	2		12.0	66.0	2.5	/experiments/knapen_aot/videos/R_S_yt-28ODBE9bVh0_44.mp4	0.0	262.57669401168823	0.10000085830688477
69	198.0724699497223	fix_pre	0		25.0	67.0	2.5	/experiments/knapen_aot/videos/S_ILSVRC2015_train_00587000.mp4	0.0	262.6766948699951	0.20830321311950684
69	198.2726330757141	response	0	2		67.0	2.5	/experiments/knapen_aot/videos/S_ILSVRC2015_train_00587000.mp4	0.0	262.87685799598694	
69	198.2807731628418	movie	1		301.0	67.0	2.5	/experiments/knapen_aot/videos/S_ILSVRC2015_train_00587000.mp4	0.0	262.8849980831146	2.508354902267456
69	200.78912806510925	fix_post	2		12.0	67.0	2.5	/experiments/knapen_aot/videos/S_ILSVRC2015_train_00587000.mp4	0.0	265.3933529853821	0.10000896453857422
70	200.88913702964783	fix_pre	0		18.0	68.0	2.5	blank	1.0	265.49336194992065	0.15025901794433594
70	201.03088402748108	response	0	2		68.0	2.5	blank	1.0	265.6351089477539	
70	201.03939604759216	movie	1		301.0	68.0	2.5	blank	1.0	265.643620967865	2.5079801082611084
70	203.54737615585327	fix_post	2		12.0	68.0	2.5	blank	1.0	268.1516010761261	0.10006999969482422
71	203.6474461555481	fix_pre	0		66.0	69.0	2.5	/experiments/knapen_aot/videos/R_S_yt-iT6jsSikmGM_4.mp4	0.0	268.2516710758209	0.5499999523162842
71	204.18919897079468	response	0	2		69.0	2.5	/experiments/knapen_aot/videos/R_S_yt-iT6jsSikmGM_4.mp4	0.0	268.7934238910675	
71	204.19744610786438	movie	1		301.0	69.0	2.5	/experiments/knapen_aot/videos/R_S_yt-iT6jsSikmGM_4.mp4	0.0	268.8016710281372	2.508275032043457
71	204.88930296897888	response	1	2		69.0	2.5	/experiments/knapen_aot/videos/R_S_yt-iT6jsSikmGM_4.mp4	0.0	269.4935278892517	
71	206.70572113990784	fix_post	2		12.0	69.0	2.5	/experiments/knapen_aot/videos/R_S_yt-iT6jsSikmGM_4.mp4	0.0	271.30994606018066	0.09994292259216309
72	206.8056640625	fix_pre	0		21.0	70.0	2.5	/experiments/knapen_aot/videos/R_S_yt-ZTAaH5XbtfE_3.mp4	0.0	271.4098889827728	0.17506694793701172
72	206.9724841117859	response	0	2		70.0	2.5	/experiments/knapen_aot/videos/R_S_yt-ZTAaH5XbtfE_3.mp4	0.0	271.5767090320587	
72	206.980731010437	movie	1		300.0	70.0	2.5	/experiments/knapen_aot/videos/R_S_yt-ZTAaH5XbtfE_3.mp4	0.0	271.58495593070984	2.508371114730835
72	209.48910212516785	fix_post	2		12.0	70.0	2.5	/experiments/knapen_aot/videos/R_S_yt-ZTAaH5XbtfE_3.mp4	0.0	274.0933270454407	0.09996795654296875
73	209.58907008171082	fix_pre	0		17.0	71.0	2.5	/experiments/knapen_aot/videos/S_yt-dQRqGgpS9mE_288.mp4	0.0	274.19329500198364	0.14164090156555176
73	209.7225410938263	response	0	2		71.0	2.5	/experiments/knapen_aot/videos/S_yt-dQRqGgpS9mE_288.mp4	0.0	274.3267660140991	
73	209.73071098327637	movie	1		301.0	71.0	2.5	/experiments/knapen_aot/videos/S_yt-dQRqGgpS9mE_288.mp4	0.0	274.3349359035492	2.508357048034668
73	212.23906803131104	fix_post	2		12.0	71.0	2.5	/experiments/knapen_aot/videos/S_yt-dQRqGgpS9mE_288.mp4	0.0	276.84329295158386	0.09996414184570312
74	212.33903217315674	fix_pre	0		22.0	72.0	2.5	/experiments/knapen_aot/videos/R_S_yt-NQSCGMpo-p8_118.mp4	0.0	276.94325709342957	0.18328380584716797
74	212.51423001289368	response	0	2		72.0	2.5	/experiments/knapen_aot/videos/R_S_yt-NQSCGMpo-p8_118.mp4	0.0	277.1184549331665	
74	212.5223159790039	movie	1		301.0	72.0	2.5	/experiments/knapen_aot/videos/R_S_yt-NQSCGMpo-p8_118.mp4	0.0	277.12654089927673	2.508450984954834
74	215.03076696395874	fix_post	2		12.0	72.0	2.5	/experiments/knapen_aot/videos/R_S_yt-NQSCGMpo-p8_118.mp4	0.0	279.63499188423157	0.09992504119873047
75	215.13069200515747	fix_pre	0		15.0	73.0	2.5	/experiments/knapen_aot/videos/S_yt-yB7mPODPTVw_74.mp4	0.0	279.7349169254303	0.12499809265136719
75	215.24751996994019	response	0	2		73.0	2.5	/experiments/knapen_aot/videos/S_yt-yB7mPODPTVw_74.mp4	0.0	279.851744890213	
75	215.25569009780884	movie	1		301.0	73.0	2.5	/experiments/knapen_aot/videos/S_yt-yB7mPODPTVw_74.mp4	0.0	279.85991501808167	2.508357048034668
75	217.7640471458435	fix_post	2		12.0	73.0	2.5	/experiments/knapen_aot/videos/S_yt-yB7mPODPTVw_74.mp4	0.0	282.36827206611633	0.10000491142272949
76	217.86405205726624	fix_pre	0		32.0	74.0	2.5	/experiments/knapen_aot/videos/R_S_flickr-evananderica-2662125519_8.mp4	0.0	282.46827697753906	0.26672792434692383
76	218.122652053833	response	0	2		74.0	2.5	/experiments/knapen_aot/videos/R_S_flickr-evananderica-2662125519_8.mp4	0.0	282.72687697410583	
76	218.13077998161316	movie	1		301.0	74.0	2.5	/experiments/knapen_aot/videos/R_S_flickr-evananderica-2662125519_8.mp4	0.0	282.735004901886	2.5082850456237793
76	220.63906502723694	fix_post	2		12.0	74.0	2.5	/experiments/knapen_aot/videos/R_S_flickr-evananderica-2662125519_8.mp4	0.0	285.24328994750977	0.1000370979309082
77	220.73910212516785	fix_pre	0		57.0	75.0	2.5	blank	1.0	285.3433270454407	0.4748868942260742
77	221.2058229446411	response	0	2		75.0	2.5	blank	1.0	285.81004786491394	
77	221.21398901939392	movie	1		301.0	75.0	2.5	blank	1.0	285.81821393966675	2.508362054824829
77	223.72235107421875	fix_post	2		12.0	75.0	2.5	blank	1.0	288.3265759944916	0.09990310668945312
78	223.8222541809082	fix_pre	0		32.0	76.0	2.5	/experiments/knapen_aot/videos/R_S_yt-9NV8zv2Sdq4_30.mp4	0.0	288.42647910118103	0.266751766204834
78	224.08079600334167	response	0	2		76.0	2.5	/experiments/knapen_aot/videos/R_S_yt-9NV8zv2Sdq4_30.mp4	0.0	288.6850209236145	
78	224.08900594711304	movie	1		301.0	76.0	2.5	/experiments/knapen_aot/videos/R_S_yt-9NV8zv2Sdq4_30.mp4	0.0	288.69323086738586	2.5083701610565186
78	226.59737610816956	fix_post	2		12.0	76.0	2.5	/experiments/knapen_aot/videos/R_S_yt-9NV8zv2Sdq4_30.mp4	0.0	291.2016010284424	0.09989190101623535
79	226.6972680091858	fix_pre	0		14.0	77.0	2.5	/experiments/knapen_aot/videos/S_Pexels_Videos_278654_1.mp4	0.0	291.3014929294586	0.11672616004943848
79	226.80587100982666	response	0	2		77.0	2.5	/experiments/knapen_aot/videos/S_Pexels_Videos_278654_1.mp4	0.0	291.4100959300995	
79	226.81399416923523	movie	1		163.0	77.0	2.5	/experiments/knapen_aot/videos/S_Pexels_Videos_278654_1.mp4	0.0	291.41821908950806	2.508305788040161
79	229.3222999572754	fix_post	2		12.0	77.0	2.5	/experiments/knapen_aot/videos/S_Pexels_Videos_278654_1.mp4	0.0	293.9265248775482	0.1000220775604248
80	229.42232203483582	fix_pre	0		2.0	78.0	2.5	/experiments/knapen_aot/videos/S_ILSVRC2015_train_00251004.mp4	0.0	294.02654695510864	0.016727924346923828
80	229.43075394630432	response	0	2		78.0	2.5	/experiments/knapen_aot/videos/S_ILSVRC2015_train_00251004.mp4	0.0	294.03497886657715	
80	229.43904995918274	movie	1		301.0	78.0	2.5	/experiments/knapen_aot/videos/S_ILSVRC2015_train_00251004.mp4	0.0	294.04327487945557	2.508275032043457
80	231.9473249912262	fix_post	2		12.0	78.0	2.5	/experiments/knapen_aot/videos/S_ILSVRC2015_train_00251004.mp4	0.0	296.551549911499	0.10002517700195312
80	232.0224530696869	response	2	2		78.0	2.5	/experiments/knapen_aot/videos/S_ILSVRC2015_train_00251004.mp4	0.0	296.6266779899597	
81	232.04735016822815	fix_pre	0		38.0	79.0	2.5	/experiments/knapen_aot/videos/S_ILSVRC2015_train_00689000.mp4	0.0	296.651575088501	0.3166007995605469
81	232.35575413703918	response	0	2		79.0	2.5	/experiments/knapen_aot/videos/S_ILSVRC2015_train_00689000.mp4	0.0	296.959979057312	
81	232.3639509677887	movie	1		301.0	79.0	2.5	/experiments/knapen_aot/videos/S_ILSVRC2015_train_00689000.mp4	0.0	296.9681758880615	2.5085229873657227
81	234.87247395515442	fix_post	2		12.0	79.0	2.5	/experiments/knapen_aot/videos/S_ILSVRC2015_train_00689000.mp4	0.0	299.47669887542725	0.09985518455505371
82	234.97232913970947	fix_pre	0		17.0	80.0	2.5	/experiments/knapen_aot/videos/S_yt-XHYYkaHcEtM_72.mp4	0.0	299.5765540599823	0.1416490077972412
82	235.10580706596375	response	0	2		80.0	2.5	/experiments/knapen_aot/videos/S_yt-XHYYkaHcEtM_72.mp4	0.0	299.7100319862366	
82	235.1139781475067	movie	1		301.0	80.0	2.5	/experiments/knapen_aot/videos/S_yt-XHYYkaHcEtM_72.mp4	0.0	299.71820306777954	2.508462905883789
82	237.6224410533905	fix_post	2		12.0	80.0	2.5	/experiments/knapen_aot/videos/S_yt-XHYYkaHcEtM_72.mp4	0.0	302.22666597366333	0.09983396530151367
83	237.72227501869202	fix_pre	0		27.0	81.0	2.5	/experiments/knapen_aot/videos/R_S_yt-XUnZ7FbBtvk_162.mp4	0.0	302.32649993896484	0.22495508193969727
83	237.9391050338745	response	0	2		81.0	2.5	/experiments/knapen_aot/videos/R_S_yt-XUnZ7FbBtvk_162.mp4	0.0	302.54332995414734	
83	237.9472301006317	movie	1		301.0	81.0	2.5	/experiments/knapen_aot/videos/R_S_yt-XUnZ7FbBtvk_162.mp4	0.0	302.55145502090454	2.50846004486084
83	240.45569014549255	fix_post	2		12.0	81.0	2.5	/experiments/knapen_aot/videos/R_S_yt-XUnZ7FbBtvk_162.mp4	0.0	305.0599150657654	0.09991884231567383
84	240.55560898780823	fix_pre	0		44.0	82.0	2.5	/experiments/knapen_aot/videos/R_S_bing-www_dailymotion_com_video_x64hzm7_8.mp4	0.0	305.15983390808105	0.36667513847351074
84	240.91401314735413	response	0	2		82.0	2.5	/experiments/knapen_aot/videos/R_S_bing-www_dailymotion_com_video_x64hzm7_8.mp4	0.0	305.51823806762695	
84	240.92228412628174	movie	1		166.0	82.0	2.5	/experiments/knapen_aot/videos/R_S_bing-www_dailymotion_com_video_x64hzm7_8.mp4	0.0	305.52650904655457	2.50833797454834
84	243.43062210083008	fix_post	2		12.0	82.0	2.5	/experiments/knapen_aot/videos/R_S_bing-www_dailymotion_com_video_x64hzm7_8.mp4	0.0	308.0348470211029	0.09997200965881348
85	243.5305941104889	fix_pre	0		23.0	83.0	2.5	blank	1.0	308.1348190307617	0.19162988662719727
85	243.7140851020813	response	0	2		83.0	2.5	blank	1.0	308.3183100223541	
85	243.7222239971161	movie	1		301.0	83.0	2.5	blank	1.0	308.3264489173889	2.5082969665527344
85	246.23052096366882	fix_post	2		12.0	83.0	2.5	blank	1.0	310.83474588394165	0.10018205642700195
87	246.33070302009583	stim	0		119.0					310.93492794036865	0.9930300712585449
87	247.31654405593872	response	0	space						311.92076897621155	
