trial_nr	onset	event_type	phase	response	nr_frames	movie_index	movie_duration	movie_file	blank	onset_abs	duration
0	0.1566460132598877	stim	0		41.0					57.36401009559631	0.3433711528778076
0	0.4900929927825928	response	0	space						57.69745707511902	
1	0.5000171661376953	stim	0		121.0					57.70738124847412	1.0068719387054443
1	0.9735569953918457	response	0	space						58.18092107772827	
1	1.4984781742095947	response	0	space						58.70584225654602	
1	1.5068891048431396	stim	1		120.0					58.714253187179565	0.9997248649597168
1	1.9315431118011475	response	1	space						59.13890719413757	
1	2.32316517829895	response	1	space						59.530529260635376	
2	2.5066139698028564	fix_pre	0		46.0	0.0	2.5	/experiments/knapen_aot/oldvideos/R_S_yt-V35ubrbe8gA_86.mp4	0.0	59.71397805213928	0.38309621810913086
2	2.8815701007843018	response	0	space		0.0	2.5	/experiments/knapen_aot/oldvideos/R_S_yt-V35ubrbe8gA_86.mp4	0.0	60.08893418312073	
2	2.8897101879119873	movie	1		298.0	0.0	2.5	/experiments/knapen_aot/oldvideos/R_S_yt-V35ubrbe8gA_86.mp4	0.0	60.09707427024841	2.50834584236145
2	4.992838144302368	response	1	2		0.0	2.5	/experiments/knapen_aot/oldvideos/R_S_yt-V35ubrbe8gA_86.mp4	0.0	62.200202226638794	
2	5.176554203033447	response	1	2		0.0	2.5	/experiments/knapen_aot/oldvideos/R_S_yt-V35ubrbe8gA_86.mp4	0.0	62.38391828536987	
2	5.364850044250488	response	1	2		0.0	2.5	/experiments/knapen_aot/oldvideos/R_S_yt-V35ubrbe8gA_86.mp4	0.0	62.572214126586914	
2	5.3980560302734375	fix_post	2		12.0	0.0	2.5	/experiments/knapen_aot/oldvideos/R_S_yt-V35ubrbe8gA_86.mp4	0.0	62.60542011260986	0.09995794296264648
3	5.498013973236084	fix_pre	0		8.0	1.0	2.5	/experiments/knapen_aot/oldvideos/S_yt-V35ubrbe8gA_86.mp4	0.0	62.70537805557251	0.06669402122497559
3	5.556477069854736	response	0	2		1.0	2.5	/experiments/knapen_aot/oldvideos/S_yt-V35ubrbe8gA_86.mp4	0.0	62.76384115219116	
3	5.56470799446106	movie	1		301.0	1.0	2.5	/experiments/knapen_aot/oldvideos/S_yt-V35ubrbe8gA_86.mp4	0.0	62.772072076797485	2.5083320140838623
3	8.073040008544922	fix_post	2		12.0	1.0	2.5	/experiments/knapen_aot/oldvideos/S_yt-V35ubrbe8gA_86.mp4	0.0	65.28040409088135	0.10018610954284668
4	8.173226118087769	fix_pre	0		10.0	2.0	2.5	/experiments/knapen_aot/oldvideos/R_S_yt-11VGDAOVEag_8.mp4	0.0	65.3805902004242	0.08330297470092773
4	8.248131036758423	response	0	2		2.0	2.5	/experiments/knapen_aot/oldvideos/R_S_yt-11VGDAOVEag_8.mp4	0.0	65.45549511909485	
4	8.256529092788696	movie	1		301.0	2.0	2.5	/experiments/knapen_aot/oldvideos/R_S_yt-11VGDAOVEag_8.mp4	0.0	65.46389317512512	2.50817608833313
4	10.764705181121826	fix_post	2		12.0	2.0	2.5	/experiments/knapen_aot/oldvideos/R_S_yt-11VGDAOVEag_8.mp4	0.0	67.97206926345825	0.09999489784240723
5	10.864700078964233	fix_pre	0		11.0	3.0	2.5	/experiments/knapen_aot/oldvideos/R_S_3dzza09VbXY_235.mp4	0.0	68.07206416130066	0.0916750431060791
5	10.94814419746399	response	0	2		3.0	2.5	/experiments/knapen_aot/oldvideos/R_S_3dzza09VbXY_235.mp4	0.0	68.15550827980042	
5	10.956375122070312	movie	1		301.0	3.0	2.5	/experiments/knapen_aot/oldvideos/R_S_3dzza09VbXY_235.mp4	0.0	68.16373920440674	2.508584976196289
5	13.166283130645752	response	1	2		3.0	2.5	/experiments/knapen_aot/oldvideos/R_S_3dzza09VbXY_235.mp4	0.0	70.37364721298218	
5	13.456438064575195	response	1	2		3.0	2.5	/experiments/knapen_aot/oldvideos/R_S_3dzza09VbXY_235.mp4	0.0	70.66380214691162	
5	13.464960098266602	fix_post	2		12.0	3.0	2.5	/experiments/knapen_aot/oldvideos/R_S_3dzza09VbXY_235.mp4	0.0	70.67232418060303	0.09972500801086426
6	13.564685106277466	fix_pre	0		26.0	4.0	2.5	/experiments/knapen_aot/oldvideos/R_S_pexels-cottonbro-9063801.mp4	0.0	70.77204918861389	0.21654701232910156
6	13.77306604385376	response	0	2		4.0	2.5	/experiments/knapen_aot/oldvideos/R_S_pexels-cottonbro-9063801.mp4	0.0	70.98043012619019	
6	13.781232118606567	movie	1		211.0	4.0	2.5	/experiments/knapen_aot/oldvideos/R_S_pexels-cottonbro-9063801.mp4	0.0	70.988596200943	2.5085129737854004
6	16.289745092391968	fix_post	2		12.0	4.0	2.5	/experiments/knapen_aot/oldvideos/R_S_pexels-cottonbro-9063801.mp4	0.0	73.4971091747284	0.09991693496704102
7	16.38966202735901	fix_pre	0		1.0	5.0	2.5	/experiments/knapen_aot/oldvideos/S_yt-4NjyKFnwHBo_13.mp4	0.0	73.59702610969543	0.008285999298095703
7	16.39146900177002	response	0	2		5.0	2.5	/experiments/knapen_aot/oldvideos/S_yt-4NjyKFnwHBo_13.mp4	0.0	73.59883308410645	
7	16.397948026657104	movie	1		301.0	5.0	2.5	/experiments/knapen_aot/oldvideos/S_yt-4NjyKFnwHBo_13.mp4	0.0	73.60531210899353	2.5083470344543457
7	18.90629506111145	fix_post	2		12.0	5.0	2.5	/experiments/knapen_aot/oldvideos/S_yt-4NjyKFnwHBo_13.mp4	0.0	76.11365914344788	0.10008406639099121
8	19.00637912750244	fix_pre	0		1.0	6.0	2.5	blank	1.0	76.21374320983887	0.008306026458740234
8	19.00803303718567	response	0	2		6.0	2.5	blank	1.0	76.2153971195221	
8	19.01468515396118	movie	1		301.0	6.0	2.5	blank	1.0	76.22204923629761	2.508401870727539
8	21.52308702468872	fix_post	2		12.0	6.0	2.5	blank	1.0	78.73045110702515	0.0998239517211914
9	21.622910976409912	fix_pre	0		4.0	7.0	2.5	/experiments/knapen_aot/oldvideos/S_ILSVRC2015_train_00569004.mp4	0.0	78.83027505874634	0.03342700004577637
9	21.64809012413025	response	0	2		7.0	2.5	/experiments/knapen_aot/oldvideos/S_ILSVRC2015_train_00569004.mp4	0.0	78.85545420646667	
9	21.65633797645569	movie	1		301.0	7.0	2.5	/experiments/knapen_aot/oldvideos/S_ILSVRC2015_train_00569004.mp4	0.0	78.86370205879211	2.5083510875701904
9	24.00646710395813	response	1	2		7.0	2.5	/experiments/knapen_aot/oldvideos/S_ILSVRC2015_train_00569004.mp4	0.0	81.21383118629456	
9	24.16468906402588	fix_post	2		12.0	7.0	2.5	/experiments/knapen_aot/oldvideos/S_ILSVRC2015_train_00569004.mp4	0.0	81.3720531463623	0.09994006156921387
10	24.264629125595093	fix_pre	0		3.0	8.0	2.5	/experiments/knapen_aot/oldvideos/S_pexels-pavel-danilyuk-8626652.mp4	0.0	81.47199320793152	0.0264129638671875
10	24.281424045562744	response	0	2		8.0	2.5	/experiments/knapen_aot/oldvideos/S_pexels-pavel-danilyuk-8626652.mp4	0.0	81.48878812789917	
10	24.29104208946228	movie	1		162.0	8.0	2.5	/experiments/knapen_aot/oldvideos/S_pexels-pavel-danilyuk-8626652.mp4	0.0	81.4984061717987	2.507056951522827
10	26.65916109085083	response	1	2		8.0	2.5	/experiments/knapen_aot/oldvideos/S_pexels-pavel-danilyuk-8626652.mp4	0.0	83.86652517318726	
10	26.798099040985107	fix_post	2		12.0	8.0	2.5	/experiments/knapen_aot/oldvideos/S_pexels-pavel-danilyuk-8626652.mp4	0.0	84.00546312332153	0.09988903999328613
11	26.897988080978394	fix_pre	0		6.0	9.0	2.5	/experiments/knapen_aot/oldvideos/S_yt-gOoDjhfSPj0_162.mp4	0.0	84.10535216331482	0.04995989799499512
11	26.93976402282715	response	0	2		9.0	2.5	/experiments/knapen_aot/oldvideos/S_yt-gOoDjhfSPj0_162.mp4	0.0	84.14712810516357	
11	26.94794797897339	movie	1		301.0	9.0	2.5	/experiments/knapen_aot/oldvideos/S_yt-gOoDjhfSPj0_162.mp4	0.0	84.15531206130981	2.5083470344543457
11	29.456295013427734	fix_post	2		12.0	9.0	2.5	/experiments/knapen_aot/oldvideos/S_yt-gOoDjhfSPj0_162.mp4	0.0	86.66365909576416	0.09995508193969727
12	29.55625009536743	fix_pre	0		6.0	10.0	2.5	/experiments/knapen_aot/oldvideos/S_yt-nfDPFHUDq8g_136.mp4	0.0	86.76361417770386	0.050004005432128906
12	29.598100185394287	response	0	2		10.0	2.5	/experiments/knapen_aot/oldvideos/S_yt-nfDPFHUDq8g_136.mp4	0.0	86.80546426773071	
12	29.60625410079956	movie	1		301.0	10.0	2.5	/experiments/knapen_aot/oldvideos/S_yt-nfDPFHUDq8g_136.mp4	0.0	86.81361818313599	2.508275032043457
12	32.11452913284302	fix_post	2		12.0	10.0	2.5	/experiments/knapen_aot/oldvideos/S_yt-nfDPFHUDq8g_136.mp4	0.0	89.32189321517944	0.10011792182922363
13	32.21464705467224	fix_pre	0		7.0	11.0	2.5	/experiments/knapen_aot/oldvideos/S_ILSVRC2015_train_00538001.mp4	0.0	89.42201113700867	0.05826902389526367
13	32.264655113220215	response	0	2		11.0	2.5	/experiments/knapen_aot/oldvideos/S_ILSVRC2015_train_00538001.mp4	0.0	89.47201919555664	
13	32.272916078567505	movie	1		301.0	11.0	2.5	/experiments/knapen_aot/oldvideos/S_ILSVRC2015_train_00538001.mp4	0.0	89.48028016090393	2.5084121227264404
13	34.781328201293945	fix_post	2		12.0	11.0	2.5	/experiments/knapen_aot/oldvideos/S_ILSVRC2015_train_00538001.mp4	0.0	91.98869228363037	0.0999898910522461
14	34.88131809234619	fix_pre	0		4.0	12.0	2.5	blank	1.0	92.08868217468262	0.03329205513000488
14	34.89896512031555	response	0	2		12.0	2.5	blank	1.0	92.10632920265198	
14	34.914610147476196	movie	1		301.0	12.0	2.5	blank	1.0	92.12197422981262	2.508314847946167
14	37.42292499542236	fix_post	2		12.0	12.0	2.5	blank	1.0	94.63028907775879	0.09997916221618652
15	37.52290415763855	fix_pre	0		20.0	13.0	2.5	/experiments/knapen_aot/oldvideos/S_yt-8LO59eN9om4_16.mp4	0.0	94.73026823997498	0.16660785675048828
15	37.68146204948425	response	0	2		13.0	2.5	/experiments/knapen_aot/oldvideos/S_yt-8LO59eN9om4_16.mp4	0.0	94.88882613182068	
15	37.68951201438904	movie	1		301.0	13.0	2.5	/experiments/knapen_aot/oldvideos/S_yt-8LO59eN9om4_16.mp4	0.0	94.89687609672546	2.508329153060913
15	40.19784116744995	fix_post	2		12.0	13.0	2.5	/experiments/knapen_aot/oldvideos/S_yt-8LO59eN9om4_16.mp4	0.0	97.40520524978638	0.10027599334716797
16	40.29811716079712	fix_pre	0		10.0	14.0	2.5	/experiments/knapen_aot/oldvideos/S_yt-LdHRVIb4nIE_6.mp4	0.0	97.50548124313354	0.08307003974914551
16	40.373006105422974	response	0	2		14.0	2.5	/experiments/knapen_aot/oldvideos/S_yt-LdHRVIb4nIE_6.mp4	0.0	97.5803701877594	
16	40.381187200546265	movie	1		301.0	14.0	2.5	/experiments/knapen_aot/oldvideos/S_yt-LdHRVIb4nIE_6.mp4	0.0	97.58855128288269	2.5083558559417725
16	42.88954305648804	fix_post	2		12.0	14.0	2.5	/experiments/knapen_aot/oldvideos/S_yt-LdHRVIb4nIE_6.mp4	0.0	100.09690713882446	0.10009598731994629
17	42.98963904380798	fix_pre	0		21.0	15.0	2.5	/experiments/knapen_aot/oldvideos/R_S_yt-cokedWwwYYs_136.mp4	0.0	100.19700312614441	0.1748521327972412
17	43.156315088272095	response	0	2		15.0	2.5	/experiments/knapen_aot/oldvideos/R_S_yt-cokedWwwYYs_136.mp4	0.0	100.36367917060852	
17	43.164491176605225	movie	1		301.0	15.0	2.5	/experiments/knapen_aot/oldvideos/R_S_yt-cokedWwwYYs_136.mp4	0.0	100.37185525894165	2.508413791656494
17	45.67290496826172	fix_post	2		12.0	15.0	2.5	/experiments/knapen_aot/oldvideos/R_S_yt-cokedWwwYYs_136.mp4	0.0	102.88026905059814	0.0999441146850586
18	45.77284908294678	fix_pre	0		19.0	16.0	2.5	/experiments/knapen_aot/oldvideos/R_S_production_ID_4057155.mp4	0.0	102.9802131652832	0.15834403038024902
18	45.915425062179565	response	0	2		16.0	2.5	/experiments/knapen_aot/oldvideos/R_S_production_ID_4057155.mp4	0.0	103.12278914451599	
18	45.931193113327026	movie	1		208.0	16.0	2.5	/experiments/knapen_aot/oldvideos/R_S_production_ID_4057155.mp4	0.0	103.13855719566345	2.508327007293701
18	48.43952012062073	fix_post	2		11.0	16.0	2.5	/experiments/knapen_aot/oldvideos/R_S_production_ID_4057155.mp4	0.0	105.64688420295715	0.09163594245910645
18	48.522937059402466	response	2	2		16.0	2.5	/experiments/knapen_aot/oldvideos/R_S_production_ID_4057155.mp4	0.0	105.73030114173889	
19	48.531156063079834	fix_pre	0		73.0	17.0	2.5	/experiments/knapen_aot/oldvideos/R_S_yt-ycfVJyrFgB4_15.mp4	0.0	105.73852014541626	0.6083340644836426
19	49.13130807876587	response	0	2		17.0	2.5	/experiments/knapen_aot/oldvideos/R_S_yt-ycfVJyrFgB4_15.mp4	0.0	106.3386721611023	
19	49.13949012756348	movie	1		301.0	17.0	2.5	/experiments/knapen_aot/oldvideos/R_S_yt-ycfVJyrFgB4_15.mp4	0.0	106.3468542098999	2.5083658695220947
19	51.64785599708557	fix_post	2		12.0	17.0	2.5	/experiments/knapen_aot/oldvideos/R_S_yt-ycfVJyrFgB4_15.mp4	0.0	108.855220079422	0.09995603561401367
20	51.747812032699585	fix_pre	0		20.0	18.0	2.5	/experiments/knapen_aot/oldvideos/S_yt-PYHK810V_n8_1375.mp4	0.0	108.95517611503601	0.1666851043701172
20	51.90628099441528	response	0	2		18.0	2.5	/experiments/knapen_aot/oldvideos/S_yt-PYHK810V_n8_1375.mp4	0.0	109.11364507675171	
20	51.9144971370697	movie	1		301.0	18.0	2.5	/experiments/knapen_aot/oldvideos/S_yt-PYHK810V_n8_1375.mp4	0.0	109.12186121940613	2.5083580017089844
20	54.42285513877869	fix_post	2		12.0	18.0	2.5	/experiments/knapen_aot/oldvideos/S_yt-PYHK810V_n8_1375.mp4	0.0	111.63021922111511	0.09993886947631836
21	54.522794008255005	fix_pre	0		22.0	19.0	2.5	blank	1.0	111.73015809059143	0.18333816528320312
21	54.69790601730347	response	0	2		19.0	2.5	blank	1.0	111.90527009963989	
21	54.70613217353821	movie	1		301.0	19.0	2.5	blank	1.0	111.91349625587463	2.508466958999634
21	57.21459913253784	fix_post	2		12.0	19.0	2.5	blank	1.0	114.42196321487427	0.09992384910583496
22	57.31452298164368	fix_pre	0		24.0	20.0	2.5	/experiments/knapen_aot/oldvideos/R_S_ILSVRC2015_train_00697001.mp4	0.0	114.5218870639801	0.19997215270996094
22	57.506242990493774	response	0	2		20.0	2.5	/experiments/knapen_aot/oldvideos/R_S_ILSVRC2015_train_00697001.mp4	0.0	114.7136070728302	
22	57.51449513435364	movie	1		301.0	20.0	2.5	/experiments/knapen_aot/oldvideos/R_S_ILSVRC2015_train_00697001.mp4	0.0	114.72185921669006	2.508336067199707
22	60.022831201553345	fix_post	2		12.0	20.0	2.5	/experiments/knapen_aot/oldvideos/R_S_ILSVRC2015_train_00697001.mp4	0.0	117.23019528388977	0.09997296333312988
22	60.056244134902954	response	2	4		20.0	2.5	/experiments/knapen_aot/oldvideos/R_S_ILSVRC2015_train_00697001.mp4	0.0	117.26360821723938	
23	60.122804164886475	fix_pre	0		38.0	21.0	2.5	/experiments/knapen_aot/oldvideos/R_S_yt-R5wOWRtRmrI_36.mp4	0.0	117.3301682472229	0.31662487983703613
23	60.431344985961914	response	0	4		21.0	2.5	/experiments/knapen_aot/oldvideos/R_S_yt-R5wOWRtRmrI_36.mp4	0.0	117.63870906829834	
23	60.43942904472351	movie	1		301.0	21.0	2.5	/experiments/knapen_aot/oldvideos/R_S_yt-R5wOWRtRmrI_36.mp4	0.0	117.64679312705994	2.508389949798584
23	62.947818994522095	fix_post	2		12.0	21.0	2.5	/experiments/knapen_aot/oldvideos/R_S_yt-R5wOWRtRmrI_36.mp4	0.0	120.15518307685852	0.09998011589050293
24	63.0477991104126	fix_pre	0		18.0	22.0	2.5	/experiments/knapen_aot/oldvideos/R_S_pexels-roman-odintsov-8232443.mp4	0.0	120.25516319274902	0.14997196197509766
24	63.1895489692688	response	0	4		22.0	2.5	/experiments/knapen_aot/oldvideos/R_S_pexels-roman-odintsov-8232443.mp4	0.0	120.39691305160522	
24	63.197771072387695	movie	1		201.0	22.0	2.5	/experiments/knapen_aot/oldvideos/R_S_pexels-roman-odintsov-8232443.mp4	0.0	120.40513515472412	2.508333921432495
24	65.70610499382019	fix_post	2		12.0	22.0	2.5	/experiments/knapen_aot/oldvideos/R_S_pexels-roman-odintsov-8232443.mp4	0.0	122.91346907615662	0.09993600845336914
24	65.79789304733276	response	2	2		22.0	2.5	/experiments/knapen_aot/oldvideos/R_S_pexels-roman-odintsov-8232443.mp4	0.0	123.00525712966919	
25	65.80604100227356	fix_pre	0		58.0	23.0	2.5	/experiments/knapen_aot/oldvideos/R_S_yt-W00vtWnXgIk_73.mp4	0.0	123.01340508460999	0.4846169948577881
25	66.28123211860657	response	0	2		23.0	2.5	/experiments/knapen_aot/oldvideos/R_S_yt-W00vtWnXgIk_73.mp4	0.0	123.488596200943	
25	66.29065799713135	movie	1		301.0	23.0	2.5	/experiments/knapen_aot/oldvideos/R_S_yt-W00vtWnXgIk_73.mp4	0.0	123.49802207946777	2.507115125656128
25	68.79777312278748	fix_post	2		12.0	23.0	2.5	/experiments/knapen_aot/oldvideos/R_S_yt-W00vtWnXgIk_73.mp4	0.0	126.0051372051239	0.09997296333312988
25	68.88952302932739	response	2	2		23.0	2.5	/experiments/knapen_aot/oldvideos/R_S_yt-W00vtWnXgIk_73.mp4	0.0	126.09688711166382	
25	68.88960099220276	response	2	4		23.0	2.5	/experiments/knapen_aot/oldvideos/R_S_yt-W00vtWnXgIk_73.mp4	0.0	126.09696507453918	
26	68.8977460861206	fix_pre	0		98.0	24.0	2.5	/experiments/knapen_aot/oldvideos/S_ILSVRC2015_train_00411001.mp4	0.0	126.10511016845703	0.8166730403900146
26	69.70614004135132	response	0	4		24.0	2.5	/experiments/knapen_aot/oldvideos/S_ILSVRC2015_train_00411001.mp4	0.0	126.91350412368774	
26	69.71441912651062	movie	1		301.0	24.0	2.5	/experiments/knapen_aot/oldvideos/S_ILSVRC2015_train_00411001.mp4	0.0	126.92178320884705	2.508305072784424
26	72.22272419929504	fix_post	2		12.0	24.0	2.5	/experiments/knapen_aot/oldvideos/S_ILSVRC2015_train_00411001.mp4	0.0	129.43008828163147	0.10004782676696777
27	72.32277202606201	fix_pre	0		141.0	25.0	2.5	/experiments/knapen_aot/oldvideos/S_yt-uWeU2s6JYyk_10.mp4	0.0	129.53013610839844	1.1750409603118896
27	73.48196411132812	response	0	2		25.0	2.5	/experiments/knapen_aot/oldvideos/S_yt-uWeU2s6JYyk_10.mp4	0.0	130.68932819366455	
27	73.4978129863739	movie	1		301.0	25.0	2.5	/experiments/knapen_aot/oldvideos/S_yt-uWeU2s6JYyk_10.mp4	0.0	130.70517706871033	2.508315086364746
27	76.00612807273865	fix_post	2		12.0	25.0	2.5	/experiments/knapen_aot/oldvideos/S_yt-uWeU2s6JYyk_10.mp4	0.0	133.21349215507507	0.09996294975280762
28	76.10609102249146	fix_pre	0		11.0	26.0	2.5	/experiments/knapen_aot/oldvideos/S_yt--vHa85DHvLU_31.mp4	0.0	133.31345510482788	0.09158706665039062
28	76.1896162033081	response	0	2		26.0	2.5	/experiments/knapen_aot/oldvideos/S_yt--vHa85DHvLU_31.mp4	0.0	133.39698028564453	
28	76.19767808914185	movie	1		301.0	26.0	2.5	/experiments/knapen_aot/oldvideos/S_yt--vHa85DHvLU_31.mp4	0.0	133.40504217147827	2.5085930824279785
28	78.70627117156982	fix_post	2		12.0	26.0	2.5	/experiments/knapen_aot/oldvideos/S_yt--vHa85DHvLU_31.mp4	0.0	135.91363525390625	0.09979891777038574
29	78.80607008934021	fix_pre	0		14.0	27.0	2.5	blank	1.0	136.01343417167664	0.11663699150085449
29	78.9144639968872	response	0	2		27.0	2.5	blank	1.0	136.12182807922363	
29	78.92270708084106	movie	1		301.0	27.0	2.5	blank	1.0	136.1300711631775	2.50838303565979
29	81.43109011650085	fix_post	2		12.0	27.0	2.5	blank	1.0	138.63845419883728	0.1000678539276123
30	81.53115797042847	fix_pre	0		18.0	28.0	2.5	/experiments/knapen_aot/oldvideos/R_S_ILSVRC2015_train_00405000.mp4	0.0	138.7385220527649	0.14986109733581543
30	81.67279314994812	response	0	2		28.0	2.5	/experiments/knapen_aot/oldvideos/R_S_ILSVRC2015_train_00405000.mp4	0.0	138.88015723228455	
30	81.68101906776428	movie	1		301.0	28.0	2.5	/experiments/knapen_aot/oldvideos/R_S_ILSVRC2015_train_00405000.mp4	0.0	138.8883831501007	2.5083560943603516
30	84.18937516212463	fix_post	2		12.0	28.0	2.5	/experiments/knapen_aot/oldvideos/R_S_ILSVRC2015_train_00405000.mp4	0.0	141.39673924446106	0.1000068187713623
31	84.289381980896	fix_pre	0		13.0	29.0	2.5	/experiments/knapen_aot/oldvideos/R_S_wc-zkO_omg3nTvg_5.mp4	0.0	141.49674606323242	0.10829520225524902
31	84.38948011398315	response	0	2		29.0	2.5	/experiments/knapen_aot/oldvideos/R_S_wc-zkO_omg3nTvg_5.mp4	0.0	141.59684419631958	
31	84.39767718315125	movie	1		164.0	29.0	2.5	/experiments/knapen_aot/oldvideos/R_S_wc-zkO_omg3nTvg_5.mp4	0.0	141.60504126548767	2.5083179473876953
31	86.90599513053894	fix_post	2		12.0	29.0	2.5	/experiments/knapen_aot/oldvideos/R_S_wc-zkO_omg3nTvg_5.mp4	0.0	144.11335921287537	0.10004901885986328
32	87.0060441493988	fix_pre	0		2.0	30.0	2.5	/experiments/knapen_aot/oldvideos/S_yt-Ozx_f0a0ZDI_32.mp4	0.0	144.21340823173523	0.016628026962280273
32	87.0145411491394	response	0	2		30.0	2.5	/experiments/knapen_aot/oldvideos/S_yt-Ozx_f0a0ZDI_32.mp4	0.0	144.22190523147583	
32	87.02267217636108	movie	1		301.0	30.0	2.5	/experiments/knapen_aot/oldvideos/S_yt-Ozx_f0a0ZDI_32.mp4	0.0	144.2300362586975	2.5082998275756836
32	89.456130027771	response	1	2		30.0	2.5	/experiments/knapen_aot/oldvideos/S_yt-Ozx_f0a0ZDI_32.mp4	0.0	146.66349411010742	
32	89.53097200393677	fix_post	2		12.0	30.0	2.5	/experiments/knapen_aot/oldvideos/S_yt-Ozx_f0a0ZDI_32.mp4	0.0	146.7383360862732	0.10010218620300293
33	89.63107419013977	fix_pre	0		8.0	31.0	2.5	/experiments/knapen_aot/oldvideos/S_production_ID_5199636.mp4	0.0	146.8384382724762	0.06658291816711426
33	89.6894211769104	response	0	2		31.0	2.5	/experiments/knapen_aot/oldvideos/S_production_ID_5199636.mp4	0.0	146.89678525924683	
33	89.69765710830688	movie	1		164.0	31.0	2.5	/experiments/knapen_aot/oldvideos/S_production_ID_5199636.mp4	0.0	146.9050211906433	2.5084218978881836
33	91.87162518501282	response	1	2		31.0	2.5	/experiments/knapen_aot/oldvideos/S_production_ID_5199636.mp4	0.0	149.07898926734924	
33	92.15610098838806	response	1	2		31.0	2.5	/experiments/knapen_aot/oldvideos/S_production_ID_5199636.mp4	0.0	149.3634650707245	
33	92.20607900619507	fix_post	2		12.0	31.0	2.5	/experiments/knapen_aot/oldvideos/S_production_ID_5199636.mp4	0.0	149.4134430885315	0.09996914863586426
34	92.30604815483093	fix_pre	0		29.0	32.0	2.5	/experiments/knapen_aot/oldvideos/R_S_ILSVRC2015_train_00405001.mp4	0.0	149.51341223716736	0.2416079044342041
34	92.53946113586426	response	0	2		32.0	2.5	/experiments/knapen_aot/oldvideos/R_S_ILSVRC2015_train_00405001.mp4	0.0	149.74682521820068	
34	92.54765605926514	movie	1		301.0	32.0	2.5	/experiments/knapen_aot/oldvideos/R_S_ILSVRC2015_train_00405001.mp4	0.0	149.75502014160156	2.508352041244507
34	95.05600810050964	fix_post	2		12.0	32.0	2.5	/experiments/knapen_aot/oldvideos/R_S_ILSVRC2015_train_00405001.mp4	0.0	152.26337218284607	0.10001707077026367
35	95.15602517127991	fix_pre	0		1.0	33.0	2.5	blank	1.0	152.36338925361633	0.009476900100708008
35	95.15794897079468	response	0	2		33.0	2.5	blank	1.0	152.3653130531311	
35	95.16550207138062	movie	1		301.0	33.0	2.5	blank	1.0	152.37286615371704	2.5071871280670166
35	97.67268919944763	fix_post	2		12.0	33.0	2.5	blank	1.0	154.88005328178406	0.09998679161071777
35	97.67503499984741	response	2	2		33.0	2.5	blank	1.0	154.88239908218384	
36	97.77267599105835	fix_pre	0		28.0	34.0	2.5	/experiments/knapen_aot/oldvideos/R_S_yt-LB9LoYfH_EA_15.mp4	0.0	154.98004007339478	0.2332630157470703
36	97.99777698516846	response	0	2		34.0	2.5	/experiments/knapen_aot/oldvideos/R_S_yt-LB9LoYfH_EA_15.mp4	0.0	155.20514106750488	
36	98.00593900680542	movie	1		301.0	34.0	2.5	/experiments/knapen_aot/oldvideos/R_S_yt-LB9LoYfH_EA_15.mp4	0.0	155.21330308914185	2.508439064025879
36	100.5143780708313	fix_post	2		12.0	34.0	2.5	/experiments/knapen_aot/oldvideos/R_S_yt-LB9LoYfH_EA_15.mp4	0.0	157.72174215316772	0.100006103515625
37	100.61438417434692	fix_pre	0		9.0	35.0	2.5	/experiments/knapen_aot/oldvideos/R_S_g201_AK_A003_C014_SDR_20191113_SDR_2K_AVC.mp4	0.0	157.82174825668335	0.07492685317993164
37	100.68104600906372	response	0	2		35.0	2.5	/experiments/knapen_aot/oldvideos/R_S_g201_AK_A003_C014_SDR_20191113_SDR_2K_AVC.mp4	0.0	157.88841009140015	
37	100.68931102752686	movie	1		167.0	35.0	2.5	/experiments/knapen_aot/oldvideos/R_S_g201_AK_A003_C014_SDR_20191113_SDR_2K_AVC.mp4	0.0	157.89667510986328	2.5084259510040283
37	103.19773697853088	fix_post	2		12.0	35.0	2.5	/experiments/knapen_aot/oldvideos/R_S_g201_AK_A003_C014_SDR_20191113_SDR_2K_AVC.mp4	0.0	160.4051010608673	0.09995508193969727
37	103.26444506645203	response	2	2		35.0	2.5	/experiments/knapen_aot/oldvideos/R_S_g201_AK_A003_C014_SDR_20191113_SDR_2K_AVC.mp4	0.0	160.47180914878845	
38	103.29769206047058	fix_pre	0		52.0	36.0	2.5	/experiments/knapen_aot/oldvideos/R_S_yt-XY1n_Oze1kQ_9.mp4	0.0	160.505056142807	0.4332609176635742
38	103.71514916419983	response	0	2		36.0	2.5	/experiments/knapen_aot/oldvideos/R_S_yt-XY1n_Oze1kQ_9.mp4	0.0	160.92251324653625	
38	103.73095297813416	movie	1		301.0	36.0	2.5	/experiments/knapen_aot/oldvideos/R_S_yt-XY1n_Oze1kQ_9.mp4	0.0	160.93831706047058	2.508327007293701
38	106.23927998542786	fix_post	2		12.0	36.0	2.5	/experiments/knapen_aot/oldvideos/R_S_yt-XY1n_Oze1kQ_9.mp4	0.0	163.44664406776428	0.1000831127166748
39	106.33936309814453	fix_pre	0		4.0	37.0	2.5	/experiments/knapen_aot/oldvideos/R_S_yt-rqYMMAU_GJs_91.mp4	0.0	163.54672718048096	0.03437304496765137
39	106.36456418037415	response	0	2		37.0	2.5	/experiments/knapen_aot/oldvideos/R_S_yt-rqYMMAU_GJs_91.mp4	0.0	163.57192826271057	
39	106.37373614311218	movie	1		301.0	37.0	2.5	/experiments/knapen_aot/oldvideos/R_S_yt-rqYMMAU_GJs_91.mp4	0.0	163.5811002254486	2.5072498321533203
39	108.8809859752655	fix_post	2		12.0	37.0	2.5	/experiments/knapen_aot/oldvideos/R_S_yt-rqYMMAU_GJs_91.mp4	0.0	166.08835005760193	0.09998416900634766
40	108.98097014427185	fix_pre	0		16.0	38.0	2.5	/experiments/knapen_aot/oldvideos/R_S_ILSVRC2015_train_00001011.mp4	0.0	166.18833422660828	0.1332719326019287
40	109.10606002807617	response	0	2		38.0	2.5	/experiments/knapen_aot/oldvideos/R_S_ILSVRC2015_train_00001011.mp4	0.0	166.3134241104126	
40	109.11424207687378	movie	1		301.0	38.0	2.5	/experiments/knapen_aot/oldvideos/R_S_ILSVRC2015_train_00001011.mp4	0.0	166.3216061592102	2.5083420276641846
40	111.62258410453796	fix_post	2		12.0	38.0	2.5	/experiments/knapen_aot/oldvideos/R_S_ILSVRC2015_train_00001011.mp4	0.0	168.8299481868744	0.10004305839538574
41	111.72262716293335	fix_pre	0		8.0	39.0	2.5	/experiments/knapen_aot/oldvideos/R_S_yt-WTxvvlP8xnw_113.mp4	0.0	168.92999124526978	0.0676279067993164
41	111.78108811378479	response	0	2		39.0	2.5	/experiments/knapen_aot/oldvideos/R_S_yt-WTxvvlP8xnw_113.mp4	0.0	168.98845219612122	
41	111.79025506973267	movie	1		301.0	39.0	2.5	/experiments/knapen_aot/oldvideos/R_S_yt-WTxvvlP8xnw_113.mp4	0.0	168.9976191520691	2.507331132888794
41	114.29758620262146	fix_post	2		12.0	39.0	2.5	/experiments/knapen_aot/oldvideos/R_S_yt-WTxvvlP8xnw_113.mp4	0.0	171.50495028495789	0.1002359390258789
42	114.39782214164734	fix_pre	0		22.0	40.0	2.5	/experiments/knapen_aot/oldvideos/S_bing-www_yahoo_com_entertainment_anastasia-karanikolaou-chantel-jeffries-discuss-182400502_html_9.mp4	0.0	171.60518622398376	0.18414092063903809
42	114.57267618179321	response	0	2		40.0	2.5	/experiments/knapen_aot/oldvideos/S_bing-www_yahoo_com_entertainment_anastasia-karanikolaou-chantel-jeffries-discuss-182400502_html_9.mp4	0.0	171.78004026412964	
42	114.58196306228638	movie	1		164.0	40.0	2.5	/experiments/knapen_aot/oldvideos/S_bing-www_yahoo_com_entertainment_anastasia-karanikolaou-chantel-jeffries-discuss-182400502_html_9.mp4	0.0	171.7893271446228	2.50730299949646
42	117.08926606178284	fix_post	2		12.0	40.0	2.5	/experiments/knapen_aot/oldvideos/S_bing-www_yahoo_com_entertainment_anastasia-karanikolaou-chantel-jeffries-discuss-182400502_html_9.mp4	0.0	174.29663014411926	0.09999799728393555
43	117.18926405906677	fix_pre	0		20.0	41.0	2.5	/experiments/knapen_aot/oldvideos/S_PA_A001_C007_SDR_20190717_SDR_2K_AVC.mp4	0.0	174.3966281414032	0.16663408279418945
43	117.34767818450928	response	0	2		41.0	2.5	/experiments/knapen_aot/oldvideos/S_PA_A001_C007_SDR_20190717_SDR_2K_AVC.mp4	0.0	174.5550422668457	
43	117.35589814186096	movie	1		165.0	41.0	2.5	/experiments/knapen_aot/oldvideos/S_PA_A001_C007_SDR_20190717_SDR_2K_AVC.mp4	0.0	174.5632622241974	2.508380889892578
43	119.86427903175354	fix_post	2		12.0	41.0	2.5	/experiments/knapen_aot/oldvideos/S_PA_A001_C007_SDR_20190717_SDR_2K_AVC.mp4	0.0	177.07164311408997	0.10001516342163086
44	119.96429419517517	fix_pre	0		24.0	42.0	2.5	blank	1.0	177.1716582775116	0.19997596740722656
44	120.1560411453247	response	0	2		42.0	2.5	blank	1.0	177.36340522766113	
44	120.1642701625824	movie	1		301.0	42.0	2.5	blank	1.0	177.37163424491882	2.508309841156006
44	122.6725800037384	fix_post	2		12.0	42.0	2.5	blank	1.0	179.87994408607483	0.09999299049377441
45	122.77257299423218	fix_pre	0		22.0	43.0	2.5	/experiments/knapen_aot/oldvideos/S_yt-BiBS8EO5GPc_4.mp4	0.0	179.9799370765686	0.1843411922454834
45	122.94760417938232	response	0	2		43.0	2.5	/experiments/knapen_aot/oldvideos/S_yt-BiBS8EO5GPc_4.mp4	0.0	180.15496826171875	
45	122.95691418647766	movie	1		301.0	43.0	2.5	/experiments/knapen_aot/oldvideos/S_yt-BiBS8EO5GPc_4.mp4	0.0	180.1642782688141	2.5073068141937256
45	125.46422100067139	fix_post	2		12.0	43.0	2.5	/experiments/knapen_aot/oldvideos/S_yt-BiBS8EO5GPc_4.mp4	0.0	182.6715850830078	0.10002899169921875
46	125.5642499923706	fix_pre	0		16.0	44.0	2.5	/experiments/knapen_aot/oldvideos/S_yt-savE5_jePKQ_25.mp4	0.0	182.77161407470703	0.13324904441833496
46	125.68179297447205	response	0	2		44.0	2.5	/experiments/knapen_aot/oldvideos/S_yt-savE5_jePKQ_25.mp4	0.0	182.88915705680847	
46	125.69749903678894	movie	1		301.0	44.0	2.5	/experiments/knapen_aot/oldvideos/S_yt-savE5_jePKQ_25.mp4	0.0	182.90486311912537	2.50844407081604
46	128.20594310760498	fix_post	2		12.0	44.0	2.5	/experiments/knapen_aot/oldvideos/S_yt-savE5_jePKQ_25.mp4	0.0	185.4133071899414	0.09994888305664062
47	128.30589199066162	fix_pre	0		20.0	45.0	2.5	/experiments/knapen_aot/oldvideos/S_yt-XY1n_Oze1kQ_9.mp4	0.0	185.51325607299805	0.16663503646850586
47	128.46428608894348	response	0	2		45.0	2.5	/experiments/knapen_aot/oldvideos/S_yt-XY1n_Oze1kQ_9.mp4	0.0	185.6716501712799	
47	128.47252702713013	movie	1		301.0	45.0	2.5	/experiments/knapen_aot/oldvideos/S_yt-XY1n_Oze1kQ_9.mp4	0.0	185.67989110946655	2.508357048034668
47	130.9808840751648	fix_post	2		12.0	45.0	2.5	/experiments/knapen_aot/oldvideos/S_yt-XY1n_Oze1kQ_9.mp4	0.0	188.18824815750122	0.09998202323913574
48	131.08086609840393	fix_pre	0		13.0	46.0	2.5	/experiments/knapen_aot/oldvideos/R_S_yt-HwEfWfFJhRo_73.mp4	0.0	188.28823018074036	0.108306884765625
48	131.1810781955719	response	0	2		46.0	2.5	/experiments/knapen_aot/oldvideos/R_S_yt-HwEfWfFJhRo_73.mp4	0.0	188.38844227790833	
48	131.18917298316956	movie	1		301.0	46.0	2.5	/experiments/knapen_aot/oldvideos/R_S_yt-HwEfWfFJhRo_73.mp4	0.0	188.39653706550598	2.5084800720214844
48	133.69765305519104	fix_post	2		12.0	46.0	2.5	/experiments/knapen_aot/oldvideos/R_S_yt-HwEfWfFJhRo_73.mp4	0.0	190.90501713752747	0.09990310668945312
49	133.7975561618805	fix_pre	0		11.0	47.0	2.5	blank	1.0	191.00492024421692	0.09162497520446777
49	133.88097405433655	response	0	2		47.0	2.5	blank	1.0	191.08833813667297	
49	133.88918113708496	movie	1		301.0	47.0	2.5	blank	1.0	191.0965452194214	2.508183002471924
49	136.39736413955688	fix_post	2		12.0	47.0	2.5	blank	1.0	193.6047282218933	0.10018086433410645
50	136.497545003891	fix_pre	0		17.0	48.0	2.5	/experiments/knapen_aot/oldvideos/S_Y011_C001_SDR_2K_AVC.mp4	0.0	193.70490908622742	0.1415860652923584
50	136.63088297843933	response	0	2		48.0	2.5	/experiments/knapen_aot/oldvideos/S_Y011_C001_SDR_2K_AVC.mp4	0.0	193.83824706077576	
50	136.63913106918335	movie	1		170.0	48.0	2.5	/experiments/knapen_aot/oldvideos/S_Y011_C001_SDR_2K_AVC.mp4	0.0	193.84649515151978	2.5082690715789795
50	139.14740014076233	fix_post	2		12.0	48.0	2.5	/experiments/knapen_aot/oldvideos/S_Y011_C001_SDR_2K_AVC.mp4	0.0	196.35476422309875	0.10007786750793457
50	139.1491551399231	response	2	2		48.0	2.5	/experiments/knapen_aot/oldvideos/S_Y011_C001_SDR_2K_AVC.mp4	0.0	196.35651922225952	
51	139.24747800827026	fix_pre	0		28.0	49.0	2.5	/experiments/knapen_aot/oldvideos/S_yt-TNtO8RPd3iE_25.mp4	0.0	196.4548420906067	0.23333501815795898
51	139.4725661277771	response	0	2		49.0	2.5	/experiments/knapen_aot/oldvideos/S_yt-TNtO8RPd3iE_25.mp4	0.0	196.67993021011353	
51	139.48081302642822	movie	1		301.0	49.0	2.5	/experiments/knapen_aot/oldvideos/S_yt-TNtO8RPd3iE_25.mp4	0.0	196.68817710876465	2.5083391666412354
51	141.98915219306946	fix_post	2		12.0	49.0	2.5	/experiments/knapen_aot/oldvideos/S_yt-TNtO8RPd3iE_25.mp4	0.0	199.19651627540588	0.10000181198120117
52	142.08915400505066	fix_pre	0		4.0	50.0	2.5	/experiments/knapen_aot/oldvideos/S_yt-hvuC_2YXsTQ_159.mp4	0.0	199.29651808738708	0.03423619270324707
52	142.11421418190002	response	0	2		50.0	2.5	/experiments/knapen_aot/oldvideos/S_yt-hvuC_2YXsTQ_159.mp4	0.0	199.32157826423645	
52	142.1233901977539	movie	1		301.0	50.0	2.5	/experiments/knapen_aot/oldvideos/S_yt-hvuC_2YXsTQ_159.mp4	0.0	199.33075428009033	2.507401943206787
52	144.6307921409607	fix_post	2		12.0	50.0	2.5	/experiments/knapen_aot/oldvideos/S_yt-hvuC_2YXsTQ_159.mp4	0.0	201.83815622329712	0.10000991821289062
53	144.73080205917358	fix_pre	0		5.0	51.0	2.5	/experiments/knapen_aot/oldvideos/S_video_inspire_sanfrancisco_castro_005.1080-h264.mp4	0.0	201.93816614151	0.04157900810241699
53	144.76432418823242	response	0	2		51.0	2.5	/experiments/knapen_aot/oldvideos/S_video_inspire_sanfrancisco_castro_005.1080-h264.mp4	0.0	201.97168827056885	
53	144.772381067276	movie	1		167.0	51.0	2.5	/experiments/knapen_aot/oldvideos/S_video_inspire_sanfrancisco_castro_005.1080-h264.mp4	0.0	201.97974514961243	2.5084309577941895
53	147.2808120250702	fix_post	2		12.0	51.0	2.5	/experiments/knapen_aot/oldvideos/S_video_inspire_sanfrancisco_castro_005.1080-h264.mp4	0.0	204.48817610740662	0.09998106956481934
53	147.33908605575562	response	2	2		51.0	2.5	/experiments/knapen_aot/oldvideos/S_video_inspire_sanfrancisco_castro_005.1080-h264.mp4	0.0	204.54645013809204	
54	147.380793094635	fix_pre	0		34.0	52.0	2.5	/experiments/knapen_aot/oldvideos/S_yt-7VVzNnp36DM_62.mp4	0.0	204.58815717697144	0.2841949462890625
54	147.64837098121643	response	0	2		52.0	2.5	/experiments/knapen_aot/oldvideos/S_yt-7VVzNnp36DM_62.mp4	0.0	204.85573506355286	
54	147.66498804092407	movie	1		301.0	52.0	2.5	/experiments/knapen_aot/oldvideos/S_yt-7VVzNnp36DM_62.mp4	0.0	204.8723521232605	2.5074970722198486
54	150.17248511314392	fix_post	2		12.0	52.0	2.5	/experiments/knapen_aot/oldvideos/S_yt-7VVzNnp36DM_62.mp4	0.0	207.37984919548035	0.09995508193969727
55	150.27244019508362	fix_pre	0		34.0	53.0	2.5	/experiments/knapen_aot/oldvideos/R_S_yt-bD1U6bo-6bE_465.mp4	0.0	207.47980427742004	0.2832779884338379
55	150.54752206802368	response	0	2		53.0	2.5	/experiments/knapen_aot/oldvideos/R_S_yt-bD1U6bo-6bE_465.mp4	0.0	207.7548861503601	
55	150.55571818351746	movie	1		301.0	53.0	2.5	/experiments/knapen_aot/oldvideos/R_S_yt-bD1U6bo-6bE_465.mp4	0.0	207.76308226585388	2.5083580017089844
55	153.06407618522644	fix_post	2		12.0	53.0	2.5	/experiments/knapen_aot/oldvideos/R_S_yt-bD1U6bo-6bE_465.mp4	0.0	210.27144026756287	0.09997797012329102
56	153.16405415534973	fix_pre	0		18.0	54.0	2.5	blank	1.0	210.37141823768616	0.149993896484375
56	153.30587220191956	response	0	2		54.0	2.5	blank	1.0	210.51323628425598	
56	153.3140480518341	movie	1		301.0	54.0	2.5	blank	1.0	210.52141213417053	2.5082931518554688
56	155.82234120368958	fix_post	2		12.0	54.0	2.5	blank	1.0	213.029705286026	0.1000528335571289
57	155.9223940372467	fix_pre	0		21.0	55.0	2.5	/experiments/knapen_aot/oldvideos/R_S_production_ID_4325516.mp4	0.0	213.12975811958313	0.17491912841796875
57	156.0891501903534	response	0	2		55.0	2.5	/experiments/knapen_aot/oldvideos/R_S_production_ID_4325516.mp4	0.0	213.29651427268982	
57	156.09731316566467	movie	1		198.0	55.0	2.5	/experiments/knapen_aot/oldvideos/R_S_production_ID_4325516.mp4	0.0	213.3046772480011	2.508435010910034
57	158.6057481765747	fix_post	2		12.0	55.0	2.5	/experiments/knapen_aot/oldvideos/R_S_production_ID_4325516.mp4	0.0	215.81311225891113	0.10001492500305176
58	158.70576310157776	fix_pre	0		12.0	56.0	2.5	/experiments/knapen_aot/oldvideos/R_S_ILSVRC2015_train_00572001.mp4	0.0	215.91312718391418	0.09995388984680176
58	158.797523021698	response	0	2		56.0	2.5	/experiments/knapen_aot/oldvideos/R_S_ILSVRC2015_train_00572001.mp4	0.0	216.00488710403442	
58	158.80571699142456	movie	1		301.0	56.0	2.5	/experiments/knapen_aot/oldvideos/R_S_ILSVRC2015_train_00572001.mp4	0.0	216.013081073761	2.5085160732269287
58	161.3142330646515	fix_post	2		12.0	56.0	2.5	/experiments/knapen_aot/oldvideos/R_S_ILSVRC2015_train_00572001.mp4	0.0	218.52159714698792	0.09980607032775879
59	161.41403913497925	fix_pre	0		16.0	57.0	2.5	/experiments/knapen_aot/oldvideos/R_S_yt-f9iXELY0EJ0_344.mp4	0.0	218.62140321731567	0.13328790664672852
59	161.53908610343933	response	0	2		57.0	2.5	/experiments/knapen_aot/oldvideos/R_S_yt-f9iXELY0EJ0_344.mp4	0.0	218.74645018577576	
59	161.54732704162598	movie	1		301.0	57.0	2.5	/experiments/knapen_aot/oldvideos/R_S_yt-f9iXELY0EJ0_344.mp4	0.0	218.7546911239624	2.508392095565796
59	164.05571913719177	fix_post	2		12.0	57.0	2.5	/experiments/knapen_aot/oldvideos/R_S_yt-f9iXELY0EJ0_344.mp4	0.0	221.2630832195282	0.10000085830688477
60	164.15571999549866	fix_pre	0		14.0	58.0	2.5	/experiments/knapen_aot/oldvideos/R_S_yt-OrTpetjDNKs_31.mp4	0.0	221.36308407783508	0.11657404899597168
60	164.26417899131775	response	0	2		58.0	2.5	/experiments/knapen_aot/oldvideos/R_S_yt-OrTpetjDNKs_31.mp4	0.0	221.47154307365417	
60	164.27229404449463	movie	1		301.0	58.0	2.5	/experiments/knapen_aot/oldvideos/R_S_yt-OrTpetjDNKs_31.mp4	0.0	221.47965812683105	2.5084080696105957
60	166.78070211410522	fix_post	2		12.0	58.0	2.5	/experiments/knapen_aot/oldvideos/R_S_yt-OrTpetjDNKs_31.mp4	0.0	223.98806619644165	0.10000491142272949
61	166.88070702552795	fix_pre	0		8.0	59.0	2.5	/experiments/knapen_aot/oldvideos/S_b8-2.mp4	0.0	224.08807110786438	0.06658601760864258
61	166.93909001350403	response	0	2		59.0	2.5	/experiments/knapen_aot/oldvideos/S_b8-2.mp4	0.0	224.14645409584045	
61	166.9472930431366	movie	1		165.0	59.0	2.5	/experiments/knapen_aot/oldvideos/S_b8-2.mp4	0.0	224.15465712547302	2.508371114730835
61	169.45566415786743	fix_post	2		12.0	59.0	2.5	/experiments/knapen_aot/oldvideos/S_b8-2.mp4	0.0	226.66302824020386	0.1000068187713623
62	169.5556709766388	fix_pre	0		6.0	60.0	2.5	/experiments/knapen_aot/oldvideos/R_S_Pz_NXxhQCJc_70.mp4	0.0	226.76303505897522	0.04997706413269043
62	169.59743309020996	response	0	2		60.0	2.5	/experiments/knapen_aot/oldvideos/R_S_Pz_NXxhQCJc_70.mp4	0.0	226.8047971725464	
62	169.60564804077148	movie	1		301.0	60.0	2.5	/experiments/knapen_aot/oldvideos/R_S_Pz_NXxhQCJc_70.mp4	0.0	226.8130121231079	2.5084280967712402
62	172.11407613754272	fix_post	2		12.0	60.0	2.5	/experiments/knapen_aot/oldvideos/R_S_Pz_NXxhQCJc_70.mp4	0.0	229.32144021987915	0.0999150276184082
63	172.21399116516113	fix_pre	0		7.0	61.0	2.5	/experiments/knapen_aot/oldvideos/R_S_MEX_A006_C008_SDR_20190923_SDR_2K_AVC.mp4	0.0	229.42135524749756	0.05830192565917969
63	172.26400017738342	response	0	2		61.0	2.5	/experiments/knapen_aot/oldvideos/R_S_MEX_A006_C008_SDR_20190923_SDR_2K_AVC.mp4	0.0	229.47136425971985	
63	172.2722930908203	movie	1		166.0	61.0	2.5	/experiments/knapen_aot/oldvideos/R_S_MEX_A006_C008_SDR_20190923_SDR_2K_AVC.mp4	0.0	229.47965717315674	2.5083889961242676
63	174.78068208694458	fix_post	2		12.0	61.0	2.5	/experiments/knapen_aot/oldvideos/R_S_MEX_A006_C008_SDR_20190923_SDR_2K_AVC.mp4	0.0	231.988046169281	0.0999600887298584
64	174.88064217567444	fix_pre	0		9.0	62.0	2.5	blank	1.0	232.08800625801086	0.0758519172668457
64	174.94748401641846	response	0	2		62.0	2.5	blank	1.0	232.15484809875488	
64	174.95649409294128	movie	1		301.0	62.0	2.5	blank	1.0	232.1638581752777	2.5074989795684814
64	177.46399307250977	fix_post	2		12.0	62.0	2.5	blank	1.0	234.6713571548462	0.09992504119873047
65	177.5639181137085	fix_pre	0		24.0	63.0	2.5	/experiments/knapen_aot/oldvideos/S_ILSVRC2015_train_00495000.mp4	0.0	234.77128219604492	0.1999368667602539
65	177.74821019172668	response	0	2		63.0	2.5	/experiments/knapen_aot/oldvideos/S_ILSVRC2015_train_00495000.mp4	0.0	234.9555742740631	
65	177.76385498046875	movie	1		301.0	63.0	2.5	/experiments/knapen_aot/oldvideos/S_ILSVRC2015_train_00495000.mp4	0.0	234.97121906280518	2.5084450244903564
65	180.2723000049591	fix_post	2		12.0	63.0	2.5	/experiments/knapen_aot/oldvideos/S_ILSVRC2015_train_00495000.mp4	0.0	237.47966408729553	0.10067915916442871
66	180.37297916412354	fix_pre	0		26.0	64.0	2.5	/experiments/knapen_aot/oldvideos/S_ILSVRC2015_train_00001011.mp4	0.0	237.58034324645996	0.21586203575134277
66	180.5807499885559	response	0	2		64.0	2.5	/experiments/knapen_aot/oldvideos/S_ILSVRC2015_train_00001011.mp4	0.0	237.78811407089233	
66	180.58884119987488	movie	1		301.0	64.0	2.5	/experiments/knapen_aot/oldvideos/S_ILSVRC2015_train_00001011.mp4	0.0	237.7962052822113	2.5083909034729004
66	183.09723210334778	fix_post	2		12.0	64.0	2.5	/experiments/knapen_aot/oldvideos/S_ILSVRC2015_train_00001011.mp4	0.0	240.3045961856842	0.10013604164123535
67	183.197368144989	fix_pre	0		38.0	65.0	2.5	/experiments/knapen_aot/oldvideos/S_yt-aiwDdJm1ek8_90.mp4	0.0	240.40473222732544	0.31652188301086426
67	183.50578618049622	response	0	2		65.0	2.5	/experiments/knapen_aot/oldvideos/S_yt-aiwDdJm1ek8_90.mp4	0.0	240.71315026283264	
67	183.51389002799988	movie	1		301.0	65.0	2.5	/experiments/knapen_aot/oldvideos/S_yt-aiwDdJm1ek8_90.mp4	0.0	240.7212541103363	2.5083751678466797
67	186.02226519584656	fix_post	2		12.0	65.0	2.5	/experiments/knapen_aot/oldvideos/S_yt-aiwDdJm1ek8_90.mp4	0.0	243.22962927818298	0.09995079040527344
68	186.12221598625183	fix_pre	0		12.0	66.0	2.5	/experiments/knapen_aot/oldvideos/S_yt-rqYMMAU_GJs_91.mp4	0.0	243.32958006858826	0.10002708435058594
68	186.21399402618408	response	0	2		66.0	2.5	/experiments/knapen_aot/oldvideos/S_yt-rqYMMAU_GJs_91.mp4	0.0	243.4213581085205	
68	186.22224307060242	movie	1		301.0	66.0	2.5	/experiments/knapen_aot/oldvideos/S_yt-rqYMMAU_GJs_91.mp4	0.0	243.42960715293884	2.50832200050354
68	188.73056507110596	fix_post	2		12.0	66.0	2.5	/experiments/knapen_aot/oldvideos/S_yt-rqYMMAU_GJs_91.mp4	0.0	245.93792915344238	0.10008907318115234
69	188.8306541442871	fix_pre	0		9.0	67.0	2.5	/experiments/knapen_aot/oldvideos/R_S_pexels-kampus-production-5991896.mp4	0.0	246.03801822662354	0.07494688034057617
69	188.89736318588257	response	0	2		67.0	2.5	/experiments/knapen_aot/oldvideos/R_S_pexels-kampus-production-5991896.mp4	0.0	246.104727268219	
69	188.90560102462769	movie	1		162.0	67.0	2.5	/experiments/knapen_aot/oldvideos/R_S_pexels-kampus-production-5991896.mp4	0.0	246.1129651069641	2.5083730220794678
69	191.41397404670715	fix_post	2		12.0	67.0	2.5	/experiments/knapen_aot/oldvideos/R_S_pexels-kampus-production-5991896.mp4	0.0	248.62133812904358	0.09985494613647461
70	191.51382899284363	fix_pre	0		5.0	68.0	2.5	blank	1.0	248.72119307518005	0.04175901412963867
70	191.54736304283142	response	0	2		68.0	2.5	blank	1.0	248.75472712516785	
70	191.55558800697327	movie	1		301.0	68.0	2.5	blank	1.0	248.7629520893097	2.508296012878418
70	194.06388401985168	fix_post	2		12.0	68.0	2.5	blank	1.0	251.2712481021881	0.10002899169921875
71	194.1639130115509	fix_pre	0		9.0	69.0	2.5	/experiments/knapen_aot/oldvideos/S_wc-eJe3wXMgTLRV_20.mp4	0.0	251.37127709388733	0.0750420093536377
71	194.2307071685791	response	0	2		69.0	2.5	/experiments/knapen_aot/oldvideos/S_wc-eJe3wXMgTLRV_20.mp4	0.0	251.43807125091553	
71	194.23895502090454	movie	1		163.0	69.0	2.5	/experiments/knapen_aot/oldvideos/S_wc-eJe3wXMgTLRV_20.mp4	0.0	251.44631910324097	2.5083630084991455
71	196.7473180294037	fix_post	2		12.0	69.0	2.5	/experiments/knapen_aot/oldvideos/S_wc-eJe3wXMgTLRV_20.mp4	0.0	253.9546821117401	0.09989213943481445
72	196.8472101688385	fix_pre	0		3.0	70.0	2.5	/experiments/knapen_aot/oldvideos/S_yt-pO5SVq-9EhU_114.mp4	0.0	254.05457425117493	0.025667905807495117
72	196.86398696899414	response	0	2		70.0	2.5	/experiments/knapen_aot/oldvideos/S_yt-pO5SVq-9EhU_114.mp4	0.0	254.07135105133057	
72	196.872878074646	movie	1		301.0	70.0	2.5	/experiments/knapen_aot/oldvideos/S_yt-pO5SVq-9EhU_114.mp4	0.0	254.08024215698242	2.5076279640197754
72	199.38050603866577	fix_post	2		12.0	70.0	2.5	/experiments/knapen_aot/oldvideos/S_yt-pO5SVq-9EhU_114.mp4	0.0	256.5878701210022	0.10000801086425781
73	199.48051404953003	fix_pre	0		15.0	71.0	2.5	/experiments/knapen_aot/oldvideos/R_S_yt-xrPrnzvWUkY_7.mp4	0.0	256.68787813186646	0.1251230239868164
73	199.59726405143738	response	0	2		71.0	2.5	/experiments/knapen_aot/oldvideos/R_S_yt-xrPrnzvWUkY_7.mp4	0.0	256.8046281337738	
73	199.60563707351685	movie	1		301.0	71.0	2.5	/experiments/knapen_aot/oldvideos/R_S_yt-xrPrnzvWUkY_7.mp4	0.0	256.81300115585327	2.5082919597625732
73	202.11392903327942	fix_post	2		12.0	71.0	2.5	/experiments/knapen_aot/oldvideos/R_S_yt-xrPrnzvWUkY_7.mp4	0.0	259.32129311561584	0.09997105598449707
74	202.21390008926392	fix_pre	0		21.0	72.0	2.5	/experiments/knapen_aot/oldvideos/S_yt-83nimFMNhrM_131.mp4	0.0	259.42126417160034	0.17495203018188477
74	202.38073110580444	response	0	2		72.0	2.5	/experiments/knapen_aot/oldvideos/S_yt-83nimFMNhrM_131.mp4	0.0	259.58809518814087	
74	202.3888521194458	movie	1		301.0	72.0	2.5	/experiments/knapen_aot/oldvideos/S_yt-83nimFMNhrM_131.mp4	0.0	259.5962162017822	2.508424997329712
74	204.8972771167755	fix_post	2		12.0	72.0	2.5	/experiments/knapen_aot/oldvideos/S_yt-83nimFMNhrM_131.mp4	0.0	262.10464119911194	0.10002589225769043
75	204.9973030090332	fix_pre	0		26.0	73.0	2.5	/experiments/knapen_aot/oldvideos/R_S_yt-fja6A_3ys_w_116.mp4	0.0	262.20466709136963	0.2165820598602295
75	205.20568919181824	response	0	2		73.0	2.5	/experiments/knapen_aot/oldvideos/R_S_yt-fja6A_3ys_w_116.mp4	0.0	262.41305327415466	
75	205.21388506889343	movie	1		301.0	73.0	2.5	/experiments/knapen_aot/oldvideos/R_S_yt-fja6A_3ys_w_116.mp4	0.0	262.42124915122986	2.508439064025879
75	207.7223241329193	fix_post	2		12.0	73.0	2.5	/experiments/knapen_aot/oldvideos/R_S_yt-fja6A_3ys_w_116.mp4	0.0	264.92968821525574	0.09988594055175781
76	207.82221007347107	fix_pre	0		7.0	74.0	2.5	/experiments/knapen_aot/oldvideos/R_S_comp_A007_C017_01156B_v02_SDR_PS_20180925_SDR_2K_AVC.mp4	0.0	265.0295741558075	0.0583040714263916
76	207.87234210968018	response	0	2		74.0	2.5	/experiments/knapen_aot/oldvideos/R_S_comp_A007_C017_01156B_v02_SDR_PS_20180925_SDR_2K_AVC.mp4	0.0	265.0797061920166	
76	207.88051414489746	movie	1		166.0	74.0	2.5	/experiments/knapen_aot/oldvideos/R_S_comp_A007_C017_01156B_v02_SDR_PS_20180925_SDR_2K_AVC.mp4	0.0	265.0878782272339	2.5083229541778564
76	210.38883709907532	fix_post	2		12.0	74.0	2.5	/experiments/knapen_aot/oldvideos/R_S_comp_A007_C017_01156B_v02_SDR_PS_20180925_SDR_2K_AVC.mp4	0.0	267.59620118141174	0.09999704360961914
76	210.4056031703949	response	2	2		74.0	2.5	/experiments/knapen_aot/oldvideos/R_S_comp_A007_C017_01156B_v02_SDR_PS_20180925_SDR_2K_AVC.mp4	0.0	267.6129672527313	
77	210.48883414268494	fix_pre	0		32.0	75.0	2.5	blank	1.0	267.69619822502136	0.2666759490966797
77	210.74721097946167	response	0	2		75.0	2.5	blank	1.0	267.9545750617981	
77	210.75551009178162	movie	1		301.0	75.0	2.5	blank	1.0	267.96287417411804	2.5084049701690674
77	213.26391506195068	fix_post	2		12.0	75.0	2.5	blank	1.0	270.4712791442871	0.09993910789489746
78	213.36385416984558	fix_pre	0		29.0	76.0	2.5	/experiments/knapen_aot/oldvideos/S_ILSVRC2015_train_00405000.mp4	0.0	270.571218252182	0.24165892601013184
78	213.59729409217834	response	0	2		76.0	2.5	/experiments/knapen_aot/oldvideos/S_ILSVRC2015_train_00405000.mp4	0.0	270.80465817451477	
78	213.6055130958557	movie	1		301.0	76.0	2.5	/experiments/knapen_aot/oldvideos/S_ILSVRC2015_train_00405000.mp4	0.0	270.81287717819214	2.508275032043457
78	216.11378812789917	fix_post	2		12.0	76.0	2.5	/experiments/knapen_aot/oldvideos/S_ILSVRC2015_train_00405000.mp4	0.0	273.3211522102356	0.10001492500305176
79	216.21380305290222	fix_pre	0		1.0	77.0	2.5	/experiments/knapen_aot/oldvideos/S_comp_N008_C003_PS_v01_SDR_PS_20180925_SDR_2K_AVC.mp4	0.0	273.42116713523865	0.012953996658325195
79	216.2157301902771	response	0	2		77.0	2.5	/experiments/knapen_aot/oldvideos/S_comp_N008_C003_PS_v01_SDR_PS_20180925_SDR_2K_AVC.mp4	0.0	273.4230942726135	
79	216.22675704956055	movie	1		166.0	77.0	2.5	/experiments/knapen_aot/oldvideos/S_comp_N008_C003_PS_v01_SDR_PS_20180925_SDR_2K_AVC.mp4	0.0	273.434121131897	2.5037379264831543
79	218.7304949760437	fix_post	2		12.0	77.0	2.5	/experiments/knapen_aot/oldvideos/S_comp_N008_C003_PS_v01_SDR_PS_20180925_SDR_2K_AVC.mp4	0.0	275.9378590583801	0.10004615783691406
80	218.83054113388062	fix_pre	0		7.0	78.0	2.5	/experiments/knapen_aot/oldvideos/R_S_yt-XYULt48onn4_6.mp4	0.0	276.03790521621704	0.05821990966796875
80	218.87311005592346	response	0	2		78.0	2.5	/experiments/knapen_aot/oldvideos/R_S_yt-XYULt48onn4_6.mp4	0.0	276.0804741382599	
80	218.88876104354858	movie	1		301.0	78.0	2.5	/experiments/knapen_aot/oldvideos/R_S_yt-XYULt48onn4_6.mp4	0.0	276.096125125885	2.5083460807800293
80	221.3971071243286	fix_post	2		12.0	78.0	2.5	/experiments/knapen_aot/oldvideos/R_S_yt-XYULt48onn4_6.mp4	0.0	278.60447120666504	0.10007786750793457
81	221.49718499183655	fix_pre	0		20.0	79.0	2.5	/experiments/knapen_aot/oldvideos/R_S_yt-9pUeQix6EW8_7.mp4	0.0	278.704549074173	0.1669940948486328
81	221.655513048172	response	0	2		79.0	2.5	/experiments/knapen_aot/oldvideos/R_S_yt-9pUeQix6EW8_7.mp4	0.0	278.8628771305084	
81	221.66417908668518	movie	1		301.0	79.0	2.5	/experiments/knapen_aot/oldvideos/R_S_yt-9pUeQix6EW8_7.mp4	0.0	278.8715431690216	2.5080559253692627
81	224.17223501205444	fix_post	2		12.0	79.0	2.5	/experiments/knapen_aot/oldvideos/R_S_yt-9pUeQix6EW8_7.mp4	0.0	281.37959909439087	0.09991717338562012
82	224.27215218544006	fix_pre	0		29.0	80.0	2.5	/experiments/knapen_aot/oldvideos/S_video_inspire_california_catalina_avalon_00053.1080-h264.mp4	0.0	281.4795162677765	0.24173784255981445
82	224.49804496765137	response	0	2		80.0	2.5	/experiments/knapen_aot/oldvideos/S_video_inspire_california_catalina_avalon_00053.1080-h264.mp4	0.0	281.7054090499878	
82	224.51389002799988	movie	1		176.0	80.0	2.5	/experiments/knapen_aot/oldvideos/S_video_inspire_california_catalina_avalon_00053.1080-h264.mp4	0.0	281.7212541103363	2.508254051208496
82	227.02214407920837	fix_post	2		12.0	80.0	2.5	/experiments/knapen_aot/oldvideos/S_video_inspire_california_catalina_avalon_00053.1080-h264.mp4	0.0	284.2295081615448	0.09998297691345215
83	227.12212705612183	fix_pre	0		17.0	81.0	2.5	/experiments/knapen_aot/oldvideos/S_yt-MTo50ReVNmU_2.mp4	0.0	284.32949113845825	0.141632080078125
83	227.25557899475098	response	0	2		81.0	2.5	/experiments/knapen_aot/oldvideos/S_yt-MTo50ReVNmU_2.mp4	0.0	284.4629430770874	
83	227.26375913619995	movie	1		301.0	81.0	2.5	/experiments/knapen_aot/oldvideos/S_yt-MTo50ReVNmU_2.mp4	0.0	284.4711232185364	2.5083160400390625
83	229.772075176239	fix_post	2		12.0	81.0	2.5	/experiments/knapen_aot/oldvideos/S_yt-MTo50ReVNmU_2.mp4	0.0	286.97943925857544	0.10003900527954102
84	229.87211418151855	fix_pre	0		18.0	82.0	2.5	/experiments/knapen_aot/oldvideos/R_S_yt-i3-YlGenYmk_411.mp4	0.0	287.079478263855	0.14997100830078125
84	230.01386713981628	response	0	2		82.0	2.5	/experiments/knapen_aot/oldvideos/R_S_yt-i3-YlGenYmk_411.mp4	0.0	287.2212312221527	
84	230.02208518981934	movie	1		301.0	82.0	2.5	/experiments/knapen_aot/oldvideos/R_S_yt-i3-YlGenYmk_411.mp4	0.0	287.22944927215576	2.508420944213867
84	232.5305061340332	fix_post	2		12.0	82.0	2.5	/experiments/knapen_aot/oldvideos/R_S_yt-i3-YlGenYmk_411.mp4	0.0	289.73787021636963	0.09989285469055176
85	232.63039898872375	fix_pre	0		8.0	83.0	2.5	blank	1.0	289.8377630710602	0.06665420532226562
85	232.68129420280457	response	0	2		83.0	2.5	blank	1.0	289.888658285141	
85	232.69705319404602	movie	1		301.0	83.0	2.5	blank	1.0	289.90441727638245	2.5083189010620117
85	235.20537209510803	fix_post	2		12.0	83.0	2.5	blank	1.0	292.41273617744446	0.10006189346313477
87	235.30543398857117	stim	0		259.0					292.5127980709076	2.158353090286255
87	235.4554500579834	response	0	2						292.6628141403198	
87	237.45704007148743	response	0	space						294.66440415382385	
