trial_nr	onset	event_type	phase	response	nr_frames	movie_index	movie_duration	movie_file	blank	onset_abs	duration
0	0.1307840347290039	stim	0		22.0					97.59224009513855	0.1832590103149414
0	0.3058760166168213	response	0	space						97.76733207702637	
1	0.3140430450439453	stim	0		121.0					97.77549910545349	1.008484125137329
1	1.1890599727630615	response	0	space						98.65051603317261	
1	1.3225271701812744	stim	1		119.0					98.78398323059082	0.9912168979644775
1	1.5725209712982178	response	1	space						99.03397703170776	
1	1.9221160411834717	response	1	space						99.38357210159302	
1	2.306511163711548	response	1	space						99.7679672241211	
2	2.313744068145752	fix_pre	0		39.0	0.0	2.5	/experiments/knapen_aot/videos/R_S_yt-osz-TXlRdXs_2.mp4	0.0	99.7752001285553	0.32497191429138184
2	2.6304681301116943	response	0	space		0.0	2.5	/experiments/knapen_aot/videos/R_S_yt-osz-TXlRdXs_2.mp4	0.0	100.09192419052124	
2	2.638715982437134	movie	1		301.0	0.0	2.5	/experiments/knapen_aot/videos/R_S_yt-osz-TXlRdXs_2.mp4	0.0	100.10017204284668	2.508435010910034
2	5.147150993347168	fix_post	2		12.0	0.0	2.5	/experiments/knapen_aot/videos/R_S_yt-osz-TXlRdXs_2.mp4	0.0	102.60860705375671	0.0998990535736084
3	5.247050046920776	fix_pre	0		12.0	1.0	2.5	/experiments/knapen_aot/videos/S_comp_GMT329_113NC_396B_1105_CHINA_v04_SDR_FINAL_20180706_F900F2700_SDR_2K_AVC.mp4	0.0	102.70850610733032	0.09999799728393555
3	5.343689203262329	response	0	2		1.0	2.5	/experiments/knapen_aot/videos/S_comp_GMT329_113NC_396B_1105_CHINA_v04_SDR_FINAL_20180706_F900F2700_SDR_2K_AVC.mp4	0.0	102.80514526367188	
3	5.347048044204712	movie	1		163.0	1.0	2.5	/experiments/knapen_aot/videos/S_comp_GMT329_113NC_396B_1105_CHINA_v04_SDR_FINAL_20180706_F900F2700_SDR_2K_AVC.mp4	0.0	102.80850410461426	2.5083799362182617
3	7.855427980422974	fix_post	2		12.0	1.0	2.5	/experiments/knapen_aot/videos/S_comp_GMT329_113NC_396B_1105_CHINA_v04_SDR_FINAL_20180706_F900F2700_SDR_2K_AVC.mp4	0.0	105.31688404083252	0.09996509552001953
4	7.955393075942993	fix_pre	0		33.0	2.0	2.5	/experiments/knapen_aot/videos/S_pexels-marcus-aurelius-6785014.mp4	0.0	105.41684913635254	0.2749350070953369
4	8.222171068191528	response	0	2		2.0	2.5	/experiments/knapen_aot/videos/S_pexels-marcus-aurelius-6785014.mp4	0.0	105.68362712860107	
4	8.23032808303833	movie	1		165.0	2.0	2.5	/experiments/knapen_aot/videos/S_pexels-marcus-aurelius-6785014.mp4	0.0	105.69178414344788	2.5083799362182617
4	8.238778114318848	response	1	4		2.0	2.5	/experiments/knapen_aot/videos/S_pexels-marcus-aurelius-6785014.mp4	0.0	105.7002341747284	
4	10.738708019256592	fix_post	2		12.0	2.0	2.5	/experiments/knapen_aot/videos/S_pexels-marcus-aurelius-6785014.mp4	0.0	108.20016407966614	0.09999513626098633
5	10.838703155517578	fix_pre	0		4.0	3.0	2.5	/experiments/knapen_aot/videos/S_yt-r4st6Mt4EE8_85.mp4	0.0	108.30015921592712	0.03333687782287598
5	10.863912105560303	response	0	2		3.0	2.5	/experiments/knapen_aot/videos/S_yt-r4st6Mt4EE8_85.mp4	0.0	108.32536816596985	
5	10.872040033340454	movie	1		301.0	3.0	2.5	/experiments/knapen_aot/videos/S_yt-r4st6Mt4EE8_85.mp4	0.0	108.33349609375	2.5083200931549072
5	11.030554056167603	response	1	2		3.0	2.5	/experiments/knapen_aot/videos/S_yt-r4st6Mt4EE8_85.mp4	0.0	108.49201011657715	
5	13.380360126495361	fix_post	2		12.0	3.0	2.5	/experiments/knapen_aot/videos/S_yt-r4st6Mt4EE8_85.mp4	0.0	110.84181618690491	0.10000085830688477
6	13.480360984802246	fix_pre	0		7.0	4.0	2.5	/experiments/knapen_aot/videos/S_Pexels_Videos_2795731_1.mp4	0.0	110.94181704521179	0.05828118324279785
6	13.530472040176392	response	0	2		4.0	2.5	/experiments/knapen_aot/videos/S_Pexels_Videos_2795731_1.mp4	0.0	110.99192810058594	
6	13.538642168045044	movie	1		162.0	4.0	2.5	/experiments/knapen_aot/videos/S_Pexels_Videos_2795731_1.mp4	0.0	111.00009822845459	2.5093159675598145
6	16.03876304626465	response	1	2		4.0	2.5	/experiments/knapen_aot/videos/S_Pexels_Videos_2795731_1.mp4	0.0	113.5002191066742	
6	16.04795813560486	fix_post	2		12.0	4.0	2.5	/experiments/knapen_aot/videos/S_Pexels_Videos_2795731_1.mp4	0.0	113.5094141960144	0.09910702705383301
7	16.14706516265869	fix_pre	0		21.0	5.0	2.5	blank	1.0	113.60852122306824	0.17497587203979492
7	16.31376814842224	response	0	2		5.0	2.5	blank	1.0	113.77522420883179	
7	16.322041034698486	movie	1		301.0	5.0	2.5	blank	1.0	113.78349709510803	2.508345127105713
7	18.74712300300598	response	1	2		5.0	2.5	blank	1.0	116.20857906341553	
7	18.8303861618042	fix_post	2		12.0	5.0	2.5	blank	1.0	116.29184222221375	0.09995698928833008
8	18.93034315109253	fix_pre	0		18.0	6.0	2.5	/experiments/knapen_aot/videos/S_wc-dwTccI0TNwps_15.mp4	0.0	116.39179921150208	0.149979829788208
8	19.064475059509277	response	0	2		6.0	2.5	/experiments/knapen_aot/videos/S_wc-dwTccI0TNwps_15.mp4	0.0	116.52593111991882	
8	19.080322980880737	movie	1		301.0	6.0	2.5	/experiments/knapen_aot/videos/S_wc-dwTccI0TNwps_15.mp4	0.0	116.54177904129028	2.5087220668792725
8	21.58904504776001	fix_post	2		12.0	6.0	2.5	/experiments/knapen_aot/videos/S_wc-dwTccI0TNwps_15.mp4	0.0	119.05050110816956	0.0996091365814209
9	21.68865418434143	fix_pre	0		17.0	7.0	2.5	/experiments/knapen_aot/videos/R_S_comp_LW_L001_C006_PSNK_DENOISE_v02_SDR_PS_FINAL_20180709_SDR_2K_AVC.mp4	0.0	119.15011024475098	0.1416318416595459
9	21.822107076644897	response	0	2		7.0	2.5	/experiments/knapen_aot/videos/R_S_comp_LW_L001_C006_PSNK_DENOISE_v02_SDR_PS_FINAL_20180709_SDR_2K_AVC.mp4	0.0	119.28356313705444	
9	21.830286026000977	movie	1		164.0	7.0	2.5	/experiments/knapen_aot/videos/R_S_comp_LW_L001_C006_PSNK_DENOISE_v02_SDR_PS_FINAL_20180709_SDR_2K_AVC.mp4	0.0	119.29174208641052	2.508363962173462
9	24.33864998817444	fix_post	2		12.0	7.0	2.5	/experiments/knapen_aot/videos/R_S_comp_LW_L001_C006_PSNK_DENOISE_v02_SDR_PS_FINAL_20180709_SDR_2K_AVC.mp4	0.0	121.80010604858398	0.10011005401611328
10	24.43876004219055	fix_pre	0		8.0	8.0	2.5	/experiments/knapen_aot/videos/R_S_ILSVRC2015_train_00696000.mp4	0.0	121.9002161026001	0.06743812561035156
10	24.48948311805725	response	0	2		8.0	2.5	/experiments/knapen_aot/videos/R_S_ILSVRC2015_train_00696000.mp4	0.0	121.9509391784668	
10	24.506198167800903	movie	1		301.0	8.0	2.5	/experiments/knapen_aot/videos/R_S_ILSVRC2015_train_00696000.mp4	0.0	121.96765422821045	2.50744891166687
10	27.013647079467773	fix_post	2		12.0	8.0	2.5	/experiments/knapen_aot/videos/R_S_ILSVRC2015_train_00696000.mp4	0.0	124.47510313987732	0.10005903244018555
11	27.11370611190796	fix_pre	0		5.0	9.0	2.5	/experiments/knapen_aot/videos/R_S_wc-_W9iefBXz8bi_23.mp4	0.0	124.5751621723175	0.04162192344665527
11	27.147029161453247	response	0	2		9.0	2.5	/experiments/knapen_aot/videos/R_S_wc-_W9iefBXz8bi_23.mp4	0.0	124.6084852218628	
11	27.155328035354614	movie	1		165.0	9.0	2.5	/experiments/knapen_aot/videos/R_S_wc-_W9iefBXz8bi_23.mp4	0.0	124.61678409576416	2.508310079574585
11	29.6636381149292	fix_post	2		12.0	9.0	2.5	/experiments/knapen_aot/videos/R_S_wc-_W9iefBXz8bi_23.mp4	0.0	127.12509417533875	0.09997987747192383
12	29.763617992401123	fix_pre	0		14.0	10.0	2.5	/experiments/knapen_aot/videos/S_yt-kA0ybjmoiMc_284.mp4	0.0	127.22507405281067	0.11757802963256836
12	29.872030019760132	response	0	2		10.0	2.5	/experiments/knapen_aot/videos/S_yt-kA0ybjmoiMc_284.mp4	0.0	127.33348608016968	
12	29.88119602203369	movie	1		301.0	10.0	2.5	/experiments/knapen_aot/videos/S_yt-kA0ybjmoiMc_284.mp4	0.0	127.34265208244324	2.5074169635772705
12	32.38861298561096	fix_post	2		12.0	10.0	2.5	/experiments/knapen_aot/videos/S_yt-kA0ybjmoiMc_284.mp4	0.0	129.8500690460205	0.1000051498413086
13	32.48861813545227	fix_pre	0		17.0	11.0	2.5	/experiments/knapen_aot/videos/S_yt-YMI27rk5qUQ_117.mp4	0.0	129.95007419586182	0.14249396324157715
13	32.614479064941406	response	0	2		11.0	2.5	/experiments/knapen_aot/videos/S_yt-YMI27rk5qUQ_117.mp4	0.0	130.07593512535095	
13	32.63111209869385	movie	1		301.0	11.0	2.5	/experiments/knapen_aot/videos/S_yt-YMI27rk5qUQ_117.mp4	0.0	130.0925681591034	2.50752592086792
13	35.13863801956177	fix_post	2		12.0	11.0	2.5	/experiments/knapen_aot/videos/S_yt-YMI27rk5qUQ_117.mp4	0.0	132.6000940799713	0.10005617141723633
14	35.238694190979004	fix_pre	0		14.0	12.0	2.5	/experiments/knapen_aot/videos/S_yt-y6JsUW0eSW8_32.mp4	0.0	132.70015025138855	0.11656379699707031
14	35.347115993499756	response	0	2		12.0	2.5	/experiments/knapen_aot/videos/S_yt-y6JsUW0eSW8_32.mp4	0.0	132.8085720539093	
14	35.355257987976074	movie	1		301.0	12.0	2.5	/experiments/knapen_aot/videos/S_yt-y6JsUW0eSW8_32.mp4	0.0	132.81671404838562	2.5083742141723633
14	37.86363220214844	fix_post	2		12.0	12.0	2.5	/experiments/knapen_aot/videos/S_yt-y6JsUW0eSW8_32.mp4	0.0	135.32508826255798	0.10002779960632324
15	37.96366000175476	fix_pre	0		22.0	13.0	2.5	/experiments/knapen_aot/videos/S_yt--jzScB82vKI_212.mp4	0.0	135.4251160621643	0.18321013450622559
15	38.1386501789093	response	0	2		13.0	2.5	/experiments/knapen_aot/videos/S_yt--jzScB82vKI_212.mp4	0.0	135.60010623931885	
15	38.146870136260986	movie	1		301.0	13.0	2.5	/experiments/knapen_aot/videos/S_yt--jzScB82vKI_212.mp4	0.0	135.60832619667053	2.5083889961242676
15	40.655259132385254	fix_post	2		12.0	13.0	2.5	/experiments/knapen_aot/videos/S_yt--jzScB82vKI_212.mp4	0.0	138.1167151927948	0.10019207000732422
16	40.75545120239258	fix_pre	0		27.0	14.0	2.5	blank	1.0	138.21690726280212	0.2247028350830078
16	40.96447801589966	response	0	2		14.0	2.5	blank	1.0	138.4259340763092	
16	40.980154037475586	movie	1		301.0	14.0	2.5	blank	1.0	138.44161009788513	2.5083701610565186
16	43.488524198532104	fix_post	2		12.0	14.0	2.5	blank	1.0	140.94998025894165	0.10008478164672852
17	43.58860898017883	fix_pre	0		80.0	15.0	2.5	/experiments/knapen_aot/videos/R_S_BsNCrwV7d8Q_9.mp4	0.0	141.05006504058838	0.6675131320953369
17	44.247042179107666	response	0	2		15.0	2.5	/experiments/knapen_aot/videos/R_S_BsNCrwV7d8Q_9.mp4	0.0	141.7084982395172	
17	44.25612211227417	movie	1		301.0	15.0	2.5	/experiments/knapen_aot/videos/R_S_BsNCrwV7d8Q_9.mp4	0.0	141.71757817268372	2.5074589252471924
17	46.76358103752136	fix_post	2		12.0	15.0	2.5	/experiments/knapen_aot/videos/R_S_BsNCrwV7d8Q_9.mp4	0.0	144.2250370979309	0.10004115104675293
18	46.863622188568115	fix_pre	0		24.0	16.0	2.5	/experiments/knapen_aot/videos/R_S_I003_C004_SDR_2K_AVC.mp4	0.0	144.32507824897766	0.2000138759613037
18	47.04777717590332	response	0	2		16.0	2.5	/experiments/knapen_aot/videos/R_S_I003_C004_SDR_2K_AVC.mp4	0.0	144.50923323631287	
18	47.06363606452942	movie	1		166.0	16.0	2.5	/experiments/knapen_aot/videos/R_S_I003_C004_SDR_2K_AVC.mp4	0.0	144.52509212493896	2.508265972137451
18	49.57190203666687	fix_post	2		12.0	16.0	2.5	/experiments/knapen_aot/videos/R_S_I003_C004_SDR_2K_AVC.mp4	0.0	147.03335809707642	0.09998703002929688
18	49.63865303993225	response	2	2		16.0	2.5	/experiments/knapen_aot/videos/R_S_I003_C004_SDR_2K_AVC.mp4	0.0	147.1001091003418	
19	49.67188906669617	fix_pre	0		45.0	17.0	2.5	/experiments/knapen_aot/videos/R_S_yt-qjg6kRxNXK8_217.mp4	0.0	147.1333451271057	0.37578892707824707
19	50.03862404823303	response	0	2		17.0	2.5	/experiments/knapen_aot/videos/R_S_yt-qjg6kRxNXK8_217.mp4	0.0	147.50008010864258	
19	50.047677993774414	movie	1		301.0	17.0	2.5	/experiments/knapen_aot/videos/R_S_yt-qjg6kRxNXK8_217.mp4	0.0	147.50913405418396	2.50759220123291
19	52.555270195007324	fix_post	2		12.0	17.0	2.5	/experiments/knapen_aot/videos/R_S_yt-qjg6kRxNXK8_217.mp4	0.0	150.01672625541687	0.09988594055175781
20	52.65515613555908	fix_pre	0		15.0	18.0	2.5	/experiments/knapen_aot/videos/R_S_ILSVRC2015_train_00274003.mp4	0.0	150.11661219596863	0.12506699562072754
20	52.7719841003418	response	0	2		18.0	2.5	/experiments/knapen_aot/videos/R_S_ILSVRC2015_train_00274003.mp4	0.0	150.23344016075134	
20	52.78022313117981	movie	1		301.0	18.0	2.5	/experiments/knapen_aot/videos/R_S_ILSVRC2015_train_00274003.mp4	0.0	150.24167919158936	2.5083420276641846
20	55.288565158843994	fix_post	2		12.0	18.0	2.5	/experiments/knapen_aot/videos/R_S_ILSVRC2015_train_00274003.mp4	0.0	152.75002121925354	0.1000218391418457
21	55.38858699798584	fix_pre	0		10.0	19.0	2.5	/experiments/knapen_aot/videos/S_ILSVRC2015_train_00697001.mp4	0.0	152.85004305839539	0.08322405815124512
21	55.46367812156677	response	0	2		19.0	2.5	/experiments/knapen_aot/videos/S_ILSVRC2015_train_00697001.mp4	0.0	152.92513418197632	
21	55.471811056137085	movie	1		301.0	19.0	2.5	/experiments/knapen_aot/videos/S_ILSVRC2015_train_00697001.mp4	0.0	152.93326711654663	2.508458137512207
21	57.98026919364929	fix_post	2		12.0	19.0	2.5	/experiments/knapen_aot/videos/S_ILSVRC2015_train_00697001.mp4	0.0	155.44172525405884	0.09993481636047363
22	58.080204010009766	fix_pre	0		7.0	20.0	2.5	/experiments/knapen_aot/videos/R_S_yt-s-J3C6e5A3Q_18.mp4	0.0	155.5416600704193	0.05828404426574707
22	58.13022303581238	response	0	2		20.0	2.5	/experiments/knapen_aot/videos/R_S_yt-s-J3C6e5A3Q_18.mp4	0.0	155.59167909622192	
22	58.13848805427551	movie	1		301.0	20.0	2.5	/experiments/knapen_aot/videos/R_S_yt-s-J3C6e5A3Q_18.mp4	0.0	155.59994411468506	2.5083630084991455
22	60.64685106277466	fix_post	2		12.0	20.0	2.5	/experiments/knapen_aot/videos/R_S_yt-s-J3C6e5A3Q_18.mp4	0.0	158.1083071231842	0.10003113746643066
23	60.74688220024109	fix_pre	0		16.0	21.0	2.5	blank	1.0	158.20833826065063	0.13400793075561523
23	60.8719961643219	response	0	2		21.0	2.5	blank	1.0	158.33345222473145	
23	60.880890130996704	movie	1		301.0	21.0	2.5	blank	1.0	158.34234619140625	2.50773286819458
23	63.388622999191284	fix_post	2		12.0	21.0	2.5	blank	1.0	160.85007905960083	0.09988999366760254
24	63.48851299285889	fix_pre	0		27.0	22.0	2.5	/experiments/knapen_aot/videos/S_yt-TZ107yBhXoA_1.mp4	0.0	160.94996905326843	0.2257070541381836
24	63.705252170562744	response	0	2		22.0	2.5	/experiments/knapen_aot/videos/S_yt-TZ107yBhXoA_1.mp4	0.0	161.1667082309723	
24	63.71422004699707	movie	1		300.0	22.0	2.5	/experiments/knapen_aot/videos/S_yt-TZ107yBhXoA_1.mp4	0.0	161.17567610740662	2.507596015930176
24	66.22181606292725	fix_post	2		12.0	22.0	2.5	/experiments/knapen_aot/videos/S_yt-TZ107yBhXoA_1.mp4	0.0	163.6832721233368	0.10000109672546387
25	66.32181715965271	fix_pre	0		21.0	23.0	2.5	/experiments/knapen_aot/videos/R_S_yt-lfDIg8kaXhA_169.mp4	0.0	163.78327322006226	0.17499804496765137
25	66.48852515220642	response	0	2		23.0	2.5	/experiments/knapen_aot/videos/R_S_yt-lfDIg8kaXhA_169.mp4	0.0	163.94998121261597	
25	66.49681520462036	movie	1		301.0	23.0	2.5	/experiments/knapen_aot/videos/R_S_yt-lfDIg8kaXhA_169.mp4	0.0	163.9582712650299	2.5084288120269775
25	69.00524401664734	fix_post	2		12.0	23.0	2.5	/experiments/knapen_aot/videos/R_S_yt-lfDIg8kaXhA_169.mp4	0.0	166.46670007705688	0.09994816780090332
26	69.10519218444824	fix_pre	0		19.0	24.0	2.5	/experiments/knapen_aot/videos/S_yt-3roniRu6w58_10.mp4	0.0	166.5666482448578	0.15829801559448242
26	69.25529098510742	response	0	2		24.0	2.5	/experiments/knapen_aot/videos/S_yt-3roniRu6w58_10.mp4	0.0	166.71674704551697	
26	69.26349020004272	movie	1		301.0	24.0	2.5	/experiments/knapen_aot/videos/S_yt-3roniRu6w58_10.mp4	0.0	166.72494626045227	2.5083539485931396
26	71.77184414863586	fix_post	2		12.0	24.0	2.5	/experiments/knapen_aot/videos/S_yt-3roniRu6w58_10.mp4	0.0	169.2333002090454	0.09998488426208496
26	71.8062801361084	response	2	2		24.0	2.5	/experiments/knapen_aot/videos/S_yt-3roniRu6w58_10.mp4	0.0	169.26773619651794	
27	71.87182903289795	fix_pre	0		38.0	25.0	2.5	/experiments/knapen_aot/videos/S_ILSVRC2015_train_00682000.mp4	0.0	169.3332850933075	0.3166511058807373
27	72.18015599250793	response	0	2		25.0	2.5	/experiments/knapen_aot/videos/S_ILSVRC2015_train_00682000.mp4	0.0	169.64161205291748	
27	72.18848013877869	movie	1		301.0	25.0	2.5	/experiments/knapen_aot/videos/S_ILSVRC2015_train_00682000.mp4	0.0	169.64993619918823	2.5082719326019287
27	74.69675207138062	fix_post	2		12.0	25.0	2.5	/experiments/knapen_aot/videos/S_ILSVRC2015_train_00682000.mp4	0.0	172.15820813179016	0.10001993179321289
28	74.79677200317383	fix_pre	0		17.0	26.0	2.5	blank	1.0	172.25822806358337	0.1416630744934082
28	74.93023705482483	response	0	2		26.0	2.5	blank	1.0	172.39169311523438	
28	74.93843507766724	movie	1		301.0	26.0	2.5	blank	1.0	172.39989113807678	2.5083959102630615
28	77.4468309879303	fix_post	2		12.0	26.0	2.5	blank	1.0	174.90828704833984	0.09989619255065918
29	77.54672718048096	fix_pre	0		26.0	27.0	2.5	/experiments/knapen_aot/videos/S_yt-wnQFgNEnHUI_109.mp4	0.0	175.0081832408905	0.21671080589294434
29	77.7551600933075	response	0	2		27.0	2.5	/experiments/knapen_aot/videos/S_yt-wnQFgNEnHUI_109.mp4	0.0	175.21661615371704	
29	77.7634379863739	movie	1		301.0	27.0	2.5	/experiments/knapen_aot/videos/S_yt-wnQFgNEnHUI_109.mp4	0.0	175.22489404678345	2.508310079574585
29	80.15527701377869	response	1	2		27.0	2.5	/experiments/knapen_aot/videos/S_yt-wnQFgNEnHUI_109.mp4	0.0	177.61673307418823	
29	80.27174806594849	fix_post	2		12.0	27.0	2.5	/experiments/knapen_aot/videos/S_yt-wnQFgNEnHUI_109.mp4	0.0	177.73320412635803	0.10006308555603027
30	80.37181115150452	fix_pre	0		14.0	28.0	2.5	/experiments/knapen_aot/videos/S_yt-1iB2ofPY1U8_16.mp4	0.0	177.83326721191406	0.11659097671508789
30	80.47269916534424	response	0	2		28.0	2.5	/experiments/knapen_aot/videos/S_yt-1iB2ofPY1U8_16.mp4	0.0	177.93415522575378	
30	80.4884021282196	movie	1		301.0	28.0	2.5	/experiments/knapen_aot/videos/S_yt-1iB2ofPY1U8_16.mp4	0.0	177.94985818862915	2.5083348751068115
30	82.99673700332642	fix_post	2		12.0	28.0	2.5	/experiments/knapen_aot/videos/S_yt-1iB2ofPY1U8_16.mp4	0.0	180.45819306373596	0.09991216659545898
31	83.09664916992188	fix_pre	0		19.0	29.0	2.5	/experiments/knapen_aot/videos/R_S_m-aeoYPMqfg_185.mp4	0.0	180.55810523033142	0.15894293785095215
31	83.24678111076355	response	0	2		29.0	2.5	/experiments/knapen_aot/videos/R_S_m-aeoYPMqfg_185.mp4	0.0	180.7082371711731	
31	83.25559210777283	movie	1		301.0	29.0	2.5	/experiments/knapen_aot/videos/R_S_m-aeoYPMqfg_185.mp4	0.0	180.71704816818237	2.5079050064086914
31	85.76349711418152	fix_post	2		12.0	29.0	2.5	/experiments/knapen_aot/videos/R_S_m-aeoYPMqfg_185.mp4	0.0	183.22495317459106	0.09989285469055176
32	85.86338996887207	fix_pre	0		12.0	30.0	2.5	/experiments/knapen_aot/videos/S_pexels-mart-production-7698911.mp4	0.0	183.32484602928162	0.10048413276672363
32	85.95514512062073	response	0	2		30.0	2.5	/experiments/knapen_aot/videos/S_pexels-mart-production-7698911.mp4	0.0	183.41660118103027	
32	85.9638741016388	movie	1		192.0	30.0	2.5	/experiments/knapen_aot/videos/S_pexels-mart-production-7698911.mp4	0.0	183.42533016204834	2.5078630447387695
32	88.47173714637756	fix_post	2		12.0	30.0	2.5	/experiments/knapen_aot/videos/S_pexels-mart-production-7698911.mp4	0.0	185.9331932067871	0.09998488426208496
33	88.57172203063965	fix_pre	0		47.0	31.0	2.5	/experiments/knapen_aot/videos/R_S_video_inspire_oregon_lone-ranch-beach_00021.1080-h264.mp4	0.0	186.0331780910492	0.3920860290527344
33	88.9475531578064	response	0	2		31.0	2.5	/experiments/knapen_aot/videos/R_S_video_inspire_oregon_lone-ranch-beach_00021.1080-h264.mp4	0.0	186.40900921821594	
33	88.96380805969238	movie	1		166.0	31.0	2.5	/experiments/knapen_aot/videos/R_S_video_inspire_oregon_lone-ranch-beach_00021.1080-h264.mp4	0.0	186.42526412010193	2.5079360008239746
33	91.47174406051636	fix_post	2		12.0	31.0	2.5	/experiments/knapen_aot/videos/R_S_video_inspire_oregon_lone-ranch-beach_00021.1080-h264.mp4	0.0	188.9332001209259	0.09995698928833008
34	91.57170104980469	fix_pre	0		22.0	32.0	2.5	/experiments/knapen_aot/videos/R_S_yt-lfDIg8kaXhA_169.mp4	0.0	189.03315711021423	0.18392610549926758
34	91.73926401138306	response	0	2		32.0	2.5	/experiments/knapen_aot/videos/R_S_yt-lfDIg8kaXhA_169.mp4	0.0	189.2007200717926	
34	91.75562715530396	movie	1		301.0	32.0	2.5	/experiments/knapen_aot/videos/R_S_yt-lfDIg8kaXhA_169.mp4	0.0	189.2170832157135	2.50785493850708
34	94.26348209381104	fix_post	2		12.0	32.0	2.5	/experiments/knapen_aot/videos/R_S_yt-lfDIg8kaXhA_169.mp4	0.0	191.72493815422058	0.09987688064575195
35	94.36335897445679	fix_pre	0		18.0	33.0	2.5	/experiments/knapen_aot/videos/R_S_yt-zgkJCgcT1s4_300.mp4	0.0	191.82481503486633	0.14999008178710938
35	94.49749398231506	response	0	2		33.0	2.5	/experiments/knapen_aot/videos/R_S_yt-zgkJCgcT1s4_300.mp4	0.0	191.9589500427246	
35	94.5133490562439	movie	1		301.0	33.0	2.5	/experiments/knapen_aot/videos/R_S_yt-zgkJCgcT1s4_300.mp4	0.0	191.97480511665344	2.5084171295166016
35	97.0217661857605	fix_post	2		12.0	33.0	2.5	/experiments/knapen_aot/videos/R_S_yt-zgkJCgcT1s4_300.mp4	0.0	194.48322224617004	0.09993195533752441
36	97.12169814109802	fix_pre	0		48.0	34.0	2.5	/experiments/knapen_aot/videos/S_BsNCrwV7d8Q_9.mp4	0.0	194.58315420150757	0.39998388290405273
36	97.50593304634094	response	0	2		34.0	2.5	/experiments/knapen_aot/videos/S_BsNCrwV7d8Q_9.mp4	0.0	194.9673891067505	
36	97.52168202400208	movie	1		301.0	34.0	2.5	/experiments/knapen_aot/videos/S_BsNCrwV7d8Q_9.mp4	0.0	194.98313808441162	2.5082690715789795
36	97.9500060081482	response	1	2		34.0	2.5	/experiments/knapen_aot/videos/S_BsNCrwV7d8Q_9.mp4	0.0	195.41146206855774	
36	100.02995109558105	fix_post	2		12.0	34.0	2.5	/experiments/knapen_aot/videos/S_BsNCrwV7d8Q_9.mp4	0.0	197.4914071559906	0.10018396377563477
37	100.13013505935669	fix_pre	0		47.0	35.0	2.5	blank	1.0	197.59159111976624	0.39149999618530273
37	100.51347517967224	response	0	2		35.0	2.5	blank	1.0	197.9749312400818	
37	100.52163505554199	movie	1		301.0	35.0	2.5	blank	1.0	197.98309111595154	2.5083789825439453
37	103.03001403808594	fix_post	2		12.0	35.0	2.5	blank	1.0	200.49147009849548	0.10021305084228516
38	103.13022708892822	fix_pre	0		25.0	36.0	2.5	/experiments/knapen_aot/videos/R_S_pexels-laker-5793000.mp4	0.0	200.59168314933777	0.20847702026367188
38	103.33007407188416	response	0	2		36.0	2.5	/experiments/knapen_aot/videos/R_S_pexels-laker-5793000.mp4	0.0	200.7915301322937	
38	103.3387041091919	movie	1		163.0	36.0	2.5	/experiments/knapen_aot/videos/R_S_pexels-laker-5793000.mp4	0.0	200.80016016960144	2.507938861846924
38	105.84664297103882	fix_post	2		12.0	36.0	2.5	/experiments/knapen_aot/videos/R_S_pexels-laker-5793000.mp4	0.0	203.30809903144836	0.10000419616699219
39	105.94664716720581	fix_pre	0		8.0	37.0	2.5	/experiments/knapen_aot/videos/S_yt-IlW1U39Dga4_5.mp4	0.0	203.40810322761536	0.06665897369384766
39	106.00505518913269	response	0	2		37.0	2.5	/experiments/knapen_aot/videos/S_yt-IlW1U39Dga4_5.mp4	0.0	203.46651124954224	
39	106.01330614089966	movie	1		301.0	37.0	2.5	/experiments/knapen_aot/videos/S_yt-IlW1U39Dga4_5.mp4	0.0	203.4747622013092	2.5083138942718506
39	108.52162003517151	fix_post	2		12.0	37.0	2.5	/experiments/knapen_aot/videos/S_yt-IlW1U39Dga4_5.mp4	0.0	205.98307609558105	0.10001516342163086
40	108.62163519859314	fix_pre	0		14.0	38.0	2.5	/experiments/knapen_aot/videos/R_S_yt-wVMhACNFF-M_154.mp4	0.0	206.08309125900269	0.11666679382324219
40	108.73006200790405	response	0	2		38.0	2.5	/experiments/knapen_aot/videos/R_S_yt-wVMhACNFF-M_154.mp4	0.0	206.1915180683136	
40	108.73830199241638	movie	1		301.0	38.0	2.5	/experiments/knapen_aot/videos/R_S_yt-wVMhACNFF-M_154.mp4	0.0	206.19975805282593	2.5082781314849854
40	111.24658012390137	fix_post	2		12.0	38.0	2.5	/experiments/knapen_aot/videos/R_S_yt-wVMhACNFF-M_154.mp4	0.0	208.7080361843109	0.1000669002532959
41	111.34664702415466	fix_pre	0		35.0	39.0	2.5	/experiments/knapen_aot/videos/S_yt-N1DlS9B00G0_23.mp4	0.0	208.8081030845642	0.2915639877319336
41	111.63006520271301	response	0	2		39.0	2.5	/experiments/knapen_aot/videos/S_yt-N1DlS9B00G0_23.mp4	0.0	209.09152126312256	
41	111.6382110118866	movie	1		301.0	39.0	2.5	/experiments/knapen_aot/videos/S_yt-N1DlS9B00G0_23.mp4	0.0	209.09966707229614	2.508409023284912
41	114.14662003517151	fix_post	2		12.0	39.0	2.5	/experiments/knapen_aot/videos/S_yt-N1DlS9B00G0_23.mp4	0.0	211.60807609558105	0.10000205039978027
42	114.24662208557129	fix_pre	0		17.0	40.0	2.5	blank	1.0	211.70807814598083	0.14173102378845215
42	114.37995314598083	response	0	2		40.0	2.5	blank	1.0	211.84140920639038	
42	114.38835310935974	movie	1		301.0	40.0	2.5	blank	1.0	211.8498091697693	2.508251905441284
42	116.89660501480103	fix_post	2		12.0	40.0	2.5	blank	1.0	214.35806107521057	0.10001015663146973
43	116.9966151714325	fix_pre	0		18.0	41.0	2.5	/experiments/knapen_aot/videos/S_yt-fCjjH_4i8Fg_115.mp4	0.0	214.45807123184204	0.14994001388549805
43	117.13830614089966	response	0	2		41.0	2.5	/experiments/knapen_aot/videos/S_yt-fCjjH_4i8Fg_115.mp4	0.0	214.5997622013092	
43	117.146555185318	movie	1		301.0	41.0	2.5	/experiments/knapen_aot/videos/S_yt-fCjjH_4i8Fg_115.mp4	0.0	214.60801124572754	2.508342981338501
43	119.6548981666565	fix_post	2		12.0	41.0	2.5	/experiments/knapen_aot/videos/S_yt-fCjjH_4i8Fg_115.mp4	0.0	217.11635422706604	0.10001993179321289
44	119.7549180984497	fix_pre	0		7.0	42.0	2.5	/experiments/knapen_aot/videos/S_yt-fjOsq03OC2c_188.mp4	0.0	217.21637415885925	0.05828499794006348
44	119.80501818656921	response	0	2		42.0	2.5	/experiments/knapen_aot/videos/S_yt-fjOsq03OC2c_188.mp4	0.0	217.26647424697876	
44	119.81320309638977	movie	1		301.0	42.0	2.5	/experiments/knapen_aot/videos/S_yt-fjOsq03OC2c_188.mp4	0.0	217.27465915679932	2.5084919929504395
44	121.86337804794312	response	1	2		42.0	2.5	/experiments/knapen_aot/videos/S_yt-fjOsq03OC2c_188.mp4	0.0	219.32483410835266	
44	122.32169508934021	fix_post	2		12.0	42.0	2.5	/experiments/knapen_aot/videos/S_yt-fjOsq03OC2c_188.mp4	0.0	219.78315114974976	0.10029196739196777
44	122.37995505332947	response	2	2		42.0	2.5	/experiments/knapen_aot/videos/S_yt-fjOsq03OC2c_188.mp4	0.0	219.841411113739	
45	122.42198705673218	fix_pre	0		25.0	43.0	2.5	/experiments/knapen_aot/videos/R_S_yt-aiWUhl8MCto_71.mp4	0.0	219.88344311714172	0.20827412605285645
45	122.62159419059753	response	0	2		43.0	2.5	/experiments/knapen_aot/videos/R_S_yt-aiWUhl8MCto_71.mp4	0.0	220.08305025100708	
45	122.63026118278503	movie	1		301.0	43.0	2.5	/experiments/knapen_aot/videos/R_S_yt-aiWUhl8MCto_71.mp4	0.0	220.09171724319458	2.507966995239258
45	125.13822817802429	fix_post	2		12.0	43.0	2.5	/experiments/knapen_aot/videos/R_S_yt-aiWUhl8MCto_71.mp4	0.0	222.59968423843384	0.09996581077575684
46	125.23819398880005	fix_pre	0		18.0	44.0	2.5	/experiments/knapen_aot/videos/R_S_ga8dBJH_qK8_765.mp4	0.0	222.6996500492096	0.15003108978271484
46	125.38002109527588	response	0	2		44.0	2.5	/experiments/knapen_aot/videos/R_S_ga8dBJH_qK8_765.mp4	0.0	222.84147715568542	
46	125.38822507858276	movie	1		301.0	44.0	2.5	/experiments/knapen_aot/videos/R_S_ga8dBJH_qK8_765.mp4	0.0	222.8496811389923	2.5083179473876953
46	127.89654302597046	fix_post	2		12.0	44.0	2.5	/experiments/knapen_aot/videos/R_S_ga8dBJH_qK8_765.mp4	0.0	225.35799908638	0.10001206398010254
46	127.96333599090576	response	2	2		44.0	2.5	/experiments/knapen_aot/videos/R_S_ga8dBJH_qK8_765.mp4	0.0	225.4247920513153	
47	127.99655508995056	fix_pre	0		51.0	45.0	2.5	/experiments/knapen_aot/videos/R_S_yt-yPl8LcgSMjo_32.mp4	0.0	225.4580111503601	0.42528700828552246
47	128.41334509849548	response	0	2		45.0	2.5	/experiments/knapen_aot/videos/R_S_yt-yPl8LcgSMjo_32.mp4	0.0	225.87480115890503	
47	128.42184209823608	movie	1		301.0	45.0	2.5	/experiments/knapen_aot/videos/R_S_yt-yPl8LcgSMjo_32.mp4	0.0	225.88329815864563	2.5080060958862305
47	130.92984819412231	fix_post	2		12.0	45.0	2.5	/experiments/knapen_aot/videos/R_S_yt-yPl8LcgSMjo_32.mp4	0.0	228.39130425453186	0.10002994537353516
48	131.02987813949585	fix_pre	0		18.0	46.0	2.5	/experiments/knapen_aot/videos/R_S_pexels-anthony-shkraba-production-8135459.mp4	0.0	228.4913341999054	0.149979829788208
48	131.17158317565918	response	0	2		46.0	2.5	/experiments/knapen_aot/videos/R_S_pexels-anthony-shkraba-production-8135459.mp4	0.0	228.63303923606873	
48	131.17985796928406	movie	1		164.0	46.0	2.5	/experiments/knapen_aot/videos/R_S_pexels-anthony-shkraba-production-8135459.mp4	0.0	228.6413140296936	2.5083770751953125
48	133.68823504447937	fix_post	2		12.0	46.0	2.5	/experiments/knapen_aot/videos/R_S_pexels-anthony-shkraba-production-8135459.mp4	0.0	231.14969110488892	0.09992003440856934
49	133.78815507888794	fix_pre	0		11.0	47.0	2.5	/experiments/knapen_aot/videos/R_S_yt-v8e_DlCsP4w_10.mp4	0.0	231.24961113929749	0.09192109107971191
49	133.8640902042389	response	0	2		47.0	2.5	/experiments/knapen_aot/videos/R_S_yt-v8e_DlCsP4w_10.mp4	0.0	231.32554626464844	
49	133.88007616996765	movie	1		301.0	47.0	2.5	/experiments/knapen_aot/videos/R_S_yt-v8e_DlCsP4w_10.mp4	0.0	231.3415322303772	2.5082108974456787
49	136.38828706741333	fix_post	2		12.0	47.0	2.5	/experiments/knapen_aot/videos/R_S_yt-v8e_DlCsP4w_10.mp4	0.0	233.84974312782288	0.09991097450256348
50	136.4881980419159	fix_pre	0		22.0	48.0	2.5	blank	1.0	233.94965410232544	0.18354010581970215
50	136.66327714920044	response	0	2		48.0	2.5	blank	1.0	234.12473320960999	
50	136.6717381477356	movie	1		301.0	48.0	2.5	blank	1.0	234.13319420814514	2.508086919784546
50	139.17982506752014	fix_post	2		12.0	48.0	2.5	blank	1.0	236.6412811279297	0.10024595260620117
51	139.28007102012634	fix_pre	0		26.0	49.0	2.5	/experiments/knapen_aot/videos/S_yt-R0gFQo85cAE_5.mp4	0.0	236.7415270805359	0.21636605262756348
51	139.48825097084045	response	0	2		49.0	2.5	/experiments/knapen_aot/videos/S_yt-R0gFQo85cAE_5.mp4	0.0	236.94970703125	
51	139.4964370727539	movie	1		301.0	49.0	2.5	/experiments/knapen_aot/videos/S_yt-R0gFQo85cAE_5.mp4	0.0	236.95789313316345	2.508415937423706
51	142.0048530101776	fix_post	2		12.0	49.0	2.5	/experiments/knapen_aot/videos/S_yt-R0gFQo85cAE_5.mp4	0.0	239.46630907058716	0.10002398490905762
52	142.10487699508667	fix_pre	0		13.0	50.0	2.5	/experiments/knapen_aot/videos/R_S_yt-wz2opOBqClo_14.mp4	0.0	239.56633305549622	0.10847020149230957
52	142.20497107505798	response	0	2		50.0	2.5	/experiments/knapen_aot/videos/R_S_yt-wz2opOBqClo_14.mp4	0.0	239.66642713546753	
52	142.21334719657898	movie	1		301.0	50.0	2.5	/experiments/knapen_aot/videos/R_S_yt-wz2opOBqClo_14.mp4	0.0	239.67480325698853	2.5081348419189453
52	144.72148203849792	fix_post	2		12.0	50.0	2.5	/experiments/knapen_aot/videos/R_S_yt-wz2opOBqClo_14.mp4	0.0	242.18293809890747	0.10019397735595703
53	144.82167601585388	fix_pre	0		25.0	51.0	2.5	/experiments/knapen_aot/videos/S_comp_N003_C006_PS_v01_SDR_PS_20180925_SDR_2K_AVC.mp4	0.0	242.28313207626343	0.20801711082458496
53	145.0215790271759	response	0	2		51.0	2.5	/experiments/knapen_aot/videos/S_comp_N003_C006_PS_v01_SDR_PS_20180925_SDR_2K_AVC.mp4	0.0	242.48303508758545	
53	145.02969312667847	movie	1		167.0	51.0	2.5	/experiments/knapen_aot/videos/S_comp_N003_C006_PS_v01_SDR_PS_20180925_SDR_2K_AVC.mp4	0.0	242.491149187088	2.508518934249878
53	147.53821206092834	fix_post	2		12.0	51.0	2.5	/experiments/knapen_aot/videos/S_comp_N003_C006_PS_v01_SDR_PS_20180925_SDR_2K_AVC.mp4	0.0	244.9996681213379	0.09993791580200195
54	147.63814997673035	fix_pre	0		19.0	52.0	2.5	/experiments/knapen_aot/videos/S_pexels-laker-5793000.mp4	0.0	245.0996060371399	0.15856003761291504
54	147.78073906898499	response	0	2		52.0	2.5	/experiments/knapen_aot/videos/S_pexels-laker-5793000.mp4	0.0	245.24219512939453	
54	147.79671001434326	movie	1		163.0	52.0	2.5	/experiments/knapen_aot/videos/S_pexels-laker-5793000.mp4	0.0	245.2581660747528	2.508165121078491
54	150.30487513542175	fix_post	2		12.0	52.0	2.5	/experiments/knapen_aot/videos/S_pexels-laker-5793000.mp4	0.0	247.7663311958313	0.09984397888183594
55	150.4047191143036	fix_pre	0		14.0	53.0	2.5	/experiments/knapen_aot/videos/S_yt-LB9LoYfH_EA_15.mp4	0.0	247.86617517471313	0.11672401428222656
55	150.51337504386902	response	0	2		53.0	2.5	/experiments/knapen_aot/videos/S_yt-LB9LoYfH_EA_15.mp4	0.0	247.97483110427856	
55	150.52144312858582	movie	1		301.0	53.0	2.5	/experiments/knapen_aot/videos/S_yt-LB9LoYfH_EA_15.mp4	0.0	247.98289918899536	2.508312940597534
55	153.02975606918335	fix_post	2		12.0	53.0	2.5	/experiments/knapen_aot/videos/S_yt-LB9LoYfH_EA_15.mp4	0.0	250.4912121295929	0.1002349853515625
56	153.1299910545349	fix_pre	0		21.0	54.0	2.5	/experiments/knapen_aot/videos/S_yt-nQu-PAXBv2g_5.mp4	0.0	250.59144711494446	0.17477893829345703
56	153.29646801948547	response	0	2		54.0	2.5	/experiments/knapen_aot/videos/S_yt-nQu-PAXBv2g_5.mp4	0.0	250.75792407989502	
56	153.30476999282837	movie	1		301.0	54.0	2.5	/experiments/knapen_aot/videos/S_yt-nQu-PAXBv2g_5.mp4	0.0	250.76622605323792	2.508342981338501
56	155.81311297416687	fix_post	2		12.0	54.0	2.5	/experiments/knapen_aot/videos/S_yt-nQu-PAXBv2g_5.mp4	0.0	253.27456903457642	0.0999460220336914
57	155.91305899620056	fix_pre	0		47.0	55.0	2.5	blank	1.0	253.3745150566101	0.39165806770324707
57	156.29653310775757	response	0	2		55.0	2.5	blank	1.0	253.75798916816711	
57	156.3047170639038	movie	1		301.0	55.0	2.5	blank	1.0	253.76617312431335	2.5083670616149902
57	158.8130841255188	fix_post	2		12.0	55.0	2.5	blank	1.0	256.27454018592834	0.10000991821289062
58	158.9130940437317	fix_pre	0		19.0	56.0	2.5	/experiments/knapen_aot/videos/S_yt-BAQ3Xhm_PPE_23.mp4	0.0	256.37455010414124	0.15831208229064941
58	159.06305718421936	response	0	2		56.0	2.5	/experiments/knapen_aot/videos/S_yt-BAQ3Xhm_PPE_23.mp4	0.0	256.5245132446289	
58	159.07140612602234	movie	1		301.0	56.0	2.5	/experiments/knapen_aot/videos/S_yt-BAQ3Xhm_PPE_23.mp4	0.0	256.5328621864319	2.508331060409546
58	161.57973718643188	fix_post	2		12.0	56.0	2.5	/experiments/knapen_aot/videos/S_yt-BAQ3Xhm_PPE_23.mp4	0.0	259.04119324684143	0.10002899169921875
59	161.6797661781311	fix_pre	0		29.0	57.0	2.5	/experiments/knapen_aot/videos/S_yt-PK-Eip9wFr0_24.mp4	0.0	259.14122223854065	0.2416839599609375
59	161.91319608688354	response	0	2		57.0	2.5	/experiments/knapen_aot/videos/S_yt-PK-Eip9wFr0_24.mp4	0.0	259.3746521472931	
59	161.92145013809204	movie	1		301.0	57.0	2.5	/experiments/knapen_aot/videos/S_yt-PK-Eip9wFr0_24.mp4	0.0	259.3829061985016	2.50846791267395
59	164.429918050766	fix_post	2		12.0	57.0	2.5	/experiments/knapen_aot/videos/S_yt-PK-Eip9wFr0_24.mp4	0.0	261.89137411117554	0.09981703758239746
60	164.5297350883484	fix_pre	0		15.0	58.0	2.5	/experiments/knapen_aot/videos/R_S_yt--jzScB82vKI_212.mp4	0.0	261.99119114875793	0.12495899200439453
60	164.64662218093872	response	0	2		58.0	2.5	/experiments/knapen_aot/videos/R_S_yt--jzScB82vKI_212.mp4	0.0	262.10807824134827	
60	164.65469408035278	movie	1		301.0	58.0	2.5	/experiments/knapen_aot/videos/R_S_yt--jzScB82vKI_212.mp4	0.0	262.11615014076233	2.508315086364746
60	167.16300916671753	fix_post	2		12.0	58.0	2.5	/experiments/knapen_aot/videos/R_S_yt--jzScB82vKI_212.mp4	0.0	264.6244652271271	0.10007786750793457
61	167.26308703422546	fix_pre	0		18.0	59.0	2.5	/experiments/knapen_aot/videos/S_yt-v8e_DlCsP4w_10.mp4	0.0	264.724543094635	0.14990711212158203
61	167.4047691822052	response	0	2		59.0	2.5	/experiments/knapen_aot/videos/S_yt-v8e_DlCsP4w_10.mp4	0.0	264.86622524261475	
61	167.41299414634705	movie	1		301.0	59.0	2.5	/experiments/knapen_aot/videos/S_yt-v8e_DlCsP4w_10.mp4	0.0	264.8744502067566	2.508502960205078
61	169.92149710655212	fix_post	2		12.0	59.0	2.5	/experiments/knapen_aot/videos/S_yt-v8e_DlCsP4w_10.mp4	0.0	267.38295316696167	0.09987688064575195
62	170.02137398719788	fix_pre	0		31.0	60.0	2.5	/experiments/knapen_aot/videos/R_S_production_ID_5119260.mp4	0.0	267.4828300476074	0.25834012031555176
62	170.27144408226013	response	0	2		60.0	2.5	/experiments/knapen_aot/videos/R_S_production_ID_5119260.mp4	0.0	267.7329001426697	
62	170.27971410751343	movie	1		164.0	60.0	2.5	/experiments/knapen_aot/videos/R_S_production_ID_5119260.mp4	0.0	267.741170167923	2.5084168910980225
62	172.78813099861145	fix_post	2		12.0	60.0	2.5	/experiments/knapen_aot/videos/R_S_production_ID_5119260.mp4	0.0	270.249587059021	0.09990620613098145
63	172.88803720474243	fix_pre	0		7.0	61.0	2.5	/experiments/knapen_aot/videos/S_yt-N1DlS9B00G0_23.mp4	0.0	270.349493265152	0.058325767517089844
63	172.9381561279297	response	0	2		61.0	2.5	/experiments/knapen_aot/videos/S_yt-N1DlS9B00G0_23.mp4	0.0	270.39961218833923	
63	172.94636297225952	movie	1		301.0	61.0	2.5	/experiments/knapen_aot/videos/S_yt-N1DlS9B00G0_23.mp4	0.0	270.40781903266907	2.508327007293701
63	175.45468997955322	fix_post	2		12.0	61.0	2.5	/experiments/knapen_aot/videos/S_yt-N1DlS9B00G0_23.mp4	0.0	272.91614603996277	0.10000109672546387
64	175.5546910762787	fix_pre	0		4.0	62.0	2.5	/experiments/knapen_aot/videos/S_yt-KLInd-KrK_w_19.mp4	0.0	273.01614713668823	0.033865928649902344
64	175.5797770023346	response	0	2		62.0	2.5	/experiments/knapen_aot/videos/S_yt-KLInd-KrK_w_19.mp4	0.0	273.04123306274414	
64	175.5885570049286	movie	1		301.0	62.0	2.5	/experiments/knapen_aot/videos/S_yt-KLInd-KrK_w_19.mp4	0.0	273.05001306533813	2.5077781677246094
64	178.0963351726532	fix_post	2		12.0	62.0	2.5	/experiments/knapen_aot/videos/S_yt-KLInd-KrK_w_19.mp4	0.0	275.55779123306274	0.09999489784240723
65	178.1963300704956	fix_pre	0		12.0	63.0	2.5	blank	1.0	275.65778613090515	0.1000969409942627
65	178.28813099861145	response	0	2		63.0	2.5	blank	1.0	275.749587059021	
65	178.29642701148987	movie	1		301.0	63.0	2.5	blank	1.0	275.7578830718994	2.50828218460083
65	180.8047091960907	fix_post	2		12.0	63.0	2.5	blank	1.0	278.26616525650024	0.09997296333312988
66	180.90468215942383	fix_pre	0		27.0	64.0	2.5	/experiments/knapen_aot/videos/S_yt-VTNBCfQxnsk_59.mp4	0.0	278.3661382198334	0.2249009609222412
66	181.12137508392334	response	0	2		64.0	2.5	/experiments/knapen_aot/videos/S_yt-VTNBCfQxnsk_59.mp4	0.0	278.5828311443329	
66	181.12958312034607	movie	1		301.0	64.0	2.5	/experiments/knapen_aot/videos/S_yt-VTNBCfQxnsk_59.mp4	0.0	278.5910391807556	2.5087549686431885
66	183.63833808898926	fix_post	2		12.0	64.0	2.5	/experiments/knapen_aot/videos/S_yt-VTNBCfQxnsk_59.mp4	0.0	281.0997941493988	0.09968400001525879
67	183.73802208900452	fix_pre	0		41.0	65.0	2.5	/experiments/knapen_aot/videos/R_S_yt-Ilr77XzakaY_95.mp4	0.0	281.19947814941406	0.3415670394897461
67	184.07142114639282	response	0	2		65.0	2.5	/experiments/knapen_aot/videos/R_S_yt-Ilr77XzakaY_95.mp4	0.0	281.53287720680237	
67	184.07958912849426	movie	1		301.0	65.0	2.5	/experiments/knapen_aot/videos/R_S_yt-Ilr77XzakaY_95.mp4	0.0	281.5410451889038	2.5083858966827393
67	186.587975025177	fix_post	2		12.0	65.0	2.5	/experiments/knapen_aot/videos/R_S_yt-Ilr77XzakaY_95.mp4	0.0	284.04943108558655	0.09999608993530273
68	186.6879711151123	fix_pre	0		27.0	66.0	2.5	/experiments/knapen_aot/videos/S_ILSVRC2015_train_00556000.mp4	0.0	284.14942717552185	0.2249619960784912
68	186.90476298332214	response	0	2		66.0	2.5	/experiments/knapen_aot/videos/S_ILSVRC2015_train_00556000.mp4	0.0	284.3662190437317	
68	186.9129331111908	movie	1		301.0	66.0	2.5	/experiments/knapen_aot/videos/S_ILSVRC2015_train_00556000.mp4	0.0	284.37438917160034	2.508486032485962
68	189.42141914367676	fix_post	2		12.0	66.0	2.5	/experiments/knapen_aot/videos/S_ILSVRC2015_train_00556000.mp4	0.0	286.8828752040863	0.09989500045776367
69	189.52131414413452	fix_pre	0		17.0	67.0	2.5	/experiments/knapen_aot/videos/S_yt-hHdxZ26SImA_17.mp4	0.0	286.98277020454407	0.14172005653381348
69	189.64716601371765	response	0	2		67.0	2.5	/experiments/knapen_aot/videos/S_yt-hHdxZ26SImA_17.mp4	0.0	287.1086220741272	
69	189.66303420066833	movie	1		301.0	67.0	2.5	/experiments/knapen_aot/videos/S_yt-hHdxZ26SImA_17.mp4	0.0	287.1244902610779	2.508861780166626
69	192.17189598083496	fix_post	2		12.0	67.0	2.5	/experiments/knapen_aot/videos/S_yt-hHdxZ26SImA_17.mp4	0.0	289.6333520412445	0.09945416450500488
70	192.27135014533997	fix_pre	0		13.0	68.0	2.5	/experiments/knapen_aot/videos/S_production_ID_3943334.mp4	0.0	289.7328062057495	0.10825991630554199
70	192.37142515182495	response	0	2		68.0	2.5	/experiments/knapen_aot/videos/S_production_ID_3943334.mp4	0.0	289.8328812122345	
70	192.3796100616455	movie	1		197.0	68.0	2.5	/experiments/knapen_aot/videos/S_production_ID_3943334.mp4	0.0	289.84106612205505	2.508263111114502
70	194.88787317276	fix_post	2		12.0	68.0	2.5	/experiments/knapen_aot/videos/S_production_ID_3943334.mp4	0.0	292.34932923316956	0.10013985633850098
71	194.9880130290985	fix_pre	0		19.0	69.0	2.5	blank	1.0	292.44946908950806	0.15829014778137207
71	195.13807606697083	response	0	2		69.0	2.5	blank	1.0	292.59953212738037	
71	195.14630317687988	movie	1		301.0	69.0	2.5	blank	1.0	292.60775923728943	2.5082340240478516
71	197.65453720092773	fix_post	2		12.0	69.0	2.5	blank	1.0	295.1159932613373	0.10005378723144531
72	197.75459098815918	fix_pre	0		43.0	70.0	2.5	/experiments/knapen_aot/videos/S_wc-1MzpHfRq1MUK_32.mp4	0.0	295.2160470485687	0.35826611518859863
72	198.1047019958496	response	0	2		70.0	2.5	/experiments/knapen_aot/videos/S_wc-1MzpHfRq1MUK_32.mp4	0.0	295.56615805625916	
72	198.11285710334778	movie	1		301.0	70.0	2.5	/experiments/knapen_aot/videos/S_wc-1MzpHfRq1MUK_32.mp4	0.0	295.5743131637573	2.5084099769592285
72	200.621267080307	fix_post	2		12.0	70.0	2.5	/experiments/knapen_aot/videos/S_wc-1MzpHfRq1MUK_32.mp4	0.0	298.08272314071655	0.10000491142272949
73	200.72127199172974	fix_pre	0		28.0	71.0	2.5	/experiments/knapen_aot/videos/R_S_yt-mmvWYAttrIw_2.mp4	0.0	298.1827280521393	0.23463106155395508
73	200.9465901851654	response	0	2		71.0	2.5	/experiments/knapen_aot/videos/R_S_yt-mmvWYAttrIw_2.mp4	0.0	298.40804624557495	
73	200.9559030532837	movie	1		301.0	71.0	2.5	/experiments/knapen_aot/videos/R_S_yt-mmvWYAttrIw_2.mp4	0.0	298.41735911369324	2.5069830417633057
73	203.462886095047	fix_post	2		12.0	71.0	2.5	/experiments/knapen_aot/videos/R_S_yt-mmvWYAttrIw_2.mp4	0.0	300.92434215545654	0.1000220775604248
74	203.56290817260742	fix_pre	0		40.0	72.0	2.5	/experiments/knapen_aot/videos/R_S_ILSVRC2015_train_00697001.mp4	0.0	301.02436423301697	0.3334028720855713
74	203.8879771232605	response	0	2		72.0	2.5	/experiments/knapen_aot/videos/R_S_ILSVRC2015_train_00697001.mp4	0.0	301.34943318367004	
74	203.896311044693	movie	1		301.0	72.0	2.5	/experiments/knapen_aot/videos/R_S_ILSVRC2015_train_00697001.mp4	0.0	301.35776710510254	2.5082640647888184
74	205.9296910762787	response	1	2		72.0	2.5	/experiments/knapen_aot/videos/R_S_ILSVRC2015_train_00697001.mp4	0.0	303.39114713668823	
74	206.4045751094818	fix_post	2		12.0	72.0	2.5	/experiments/knapen_aot/videos/R_S_ILSVRC2015_train_00697001.mp4	0.0	303.86603116989136	0.09996986389160156
74	206.41472697257996	response	2	2		72.0	2.5	/experiments/knapen_aot/videos/R_S_ILSVRC2015_train_00697001.mp4	0.0	303.8761830329895	
75	206.5045449733734	fix_pre	0		33.0	73.0	2.5	/experiments/knapen_aot/videos/S_dwi2oPzQ1Wo_48.mp4	0.0	303.96600103378296	0.2749350070953369
75	206.77129316329956	response	0	2		73.0	2.5	/experiments/knapen_aot/videos/S_dwi2oPzQ1Wo_48.mp4	0.0	304.2327492237091	
75	206.77947998046875	movie	1		301.0	73.0	2.5	/experiments/knapen_aot/videos/S_dwi2oPzQ1Wo_48.mp4	0.0	304.2409360408783	2.5085020065307617
75	209.2879819869995	fix_post	2		12.0	73.0	2.5	/experiments/knapen_aot/videos/S_dwi2oPzQ1Wo_48.mp4	0.0	306.74943804740906	0.09989213943481445
76	209.38787412643433	fix_pre	0		13.0	74.0	2.5	/experiments/knapen_aot/videos/S_yt-ZzC953ahaxs_195.mp4	0.0	306.8493301868439	0.10830807685852051
76	209.48782896995544	response	0	2		74.0	2.5	/experiments/knapen_aot/videos/S_yt-ZzC953ahaxs_195.mp4	0.0	306.949285030365	
76	209.49618220329285	movie	1		301.0	74.0	2.5	/experiments/knapen_aot/videos/S_yt-ZzC953ahaxs_195.mp4	0.0	306.9576382637024	2.508314847946167
76	212.004497051239	fix_post	2		12.0	74.0	2.5	/experiments/knapen_aot/videos/S_yt-ZzC953ahaxs_195.mp4	0.0	309.46595311164856	0.10002994537353516
77	212.10452699661255	fix_pre	0		15.0	75.0	2.5	/experiments/knapen_aot/videos/R_S_g201_WH_D004_L014_SDR_20191031_SDR_2K_AVC.mp4	0.0	309.5659830570221	0.12499403953552246
77	212.22118616104126	response	0	2		75.0	2.5	/experiments/knapen_aot/videos/R_S_g201_WH_D004_L014_SDR_20191031_SDR_2K_AVC.mp4	0.0	309.6826422214508	
77	212.22952103614807	movie	1		181.0	75.0	2.5	/experiments/knapen_aot/videos/R_S_g201_WH_D004_L014_SDR_20191031_SDR_2K_AVC.mp4	0.0	309.6909770965576	2.508378028869629
77	214.7378990650177	fix_post	2		12.0	75.0	2.5	/experiments/knapen_aot/videos/R_S_g201_WH_D004_L014_SDR_20191031_SDR_2K_AVC.mp4	0.0	312.19935512542725	0.09999608993530273
78	214.837895154953	fix_pre	0		2.0	76.0	2.5	/experiments/knapen_aot/videos/S_yt-K7viJXt9vX8_143.mp4	0.0	312.29935121536255	0.016626834869384766
78	214.84635519981384	response	0	2		76.0	2.5	/experiments/knapen_aot/videos/S_yt-K7viJXt9vX8_143.mp4	0.0	312.3078112602234	
78	214.8545219898224	movie	1		301.0	76.0	2.5	/experiments/knapen_aot/videos/S_yt-K7viJXt9vX8_143.mp4	0.0	312.31597805023193	2.5083529949188232
78	217.3628749847412	fix_post	2		12.0	76.0	2.5	/experiments/knapen_aot/videos/S_yt-K7viJXt9vX8_143.mp4	0.0	314.82433104515076	0.10007810592651367
79	217.46295309066772	fix_pre	0		11.0	77.0	2.5	blank	1.0	314.92440915107727	0.09170794486999512
79	217.5462830066681	response	0	2		77.0	2.5	blank	1.0	315.00773906707764	
79	217.55466103553772	movie	1		301.0	77.0	2.5	blank	1.0	315.01611709594727	2.508212089538574
79	220.0628731250763	fix_post	2		12.0	77.0	2.5	blank	1.0	317.52432918548584	0.09999203681945801
80	220.16286516189575	fix_pre	0		33.0	78.0	2.5	/experiments/knapen_aot/videos/R_S_yt-AbJBxqEYoMg_27.mp4	0.0	317.6243212223053	0.274899959564209
80	220.42976212501526	response	0	2		78.0	2.5	/experiments/knapen_aot/videos/R_S_yt-AbJBxqEYoMg_27.mp4	0.0	317.8912181854248	
80	220.43776512145996	movie	1		301.0	78.0	2.5	/experiments/knapen_aot/videos/R_S_yt-AbJBxqEYoMg_27.mp4	0.0	317.8992211818695	2.5084660053253174
80	222.94623112678528	fix_post	2		12.0	78.0	2.5	/experiments/knapen_aot/videos/R_S_yt-AbJBxqEYoMg_27.mp4	0.0	320.4076871871948	0.09995889663696289
81	223.04619002342224	fix_pre	0		21.0	79.0	2.5	/experiments/knapen_aot/videos/S_wc-dwTccI0TNwps_15.mp4	0.0	320.5076460838318	0.17492914199829102
81	223.21302008628845	response	0	2		79.0	2.5	/experiments/knapen_aot/videos/S_wc-dwTccI0TNwps_15.mp4	0.0	320.674476146698	
81	223.22111916542053	movie	1		301.0	79.0	2.5	/experiments/knapen_aot/videos/S_wc-dwTccI0TNwps_15.mp4	0.0	320.6825752258301	2.5083048343658447
81	225.72942399978638	fix_post	2		12.0	79.0	2.5	/experiments/knapen_aot/videos/S_wc-dwTccI0TNwps_15.mp4	0.0	323.1908800601959	0.10004711151123047
82	225.8294711112976	fix_pre	0		17.0	80.0	2.5	/experiments/knapen_aot/videos/R_S_dwi2oPzQ1Wo_48.mp4	0.0	323.29092717170715	0.14163804054260254
82	225.95540714263916	response	0	2		80.0	2.5	/experiments/knapen_aot/videos/R_S_dwi2oPzQ1Wo_48.mp4	0.0	323.4168632030487	
82	225.9711091518402	movie	1		301.0	80.0	2.5	/experiments/knapen_aot/videos/R_S_dwi2oPzQ1Wo_48.mp4	0.0	323.43256521224976	2.508328914642334
82	228.47943806648254	fix_post	2		12.0	80.0	2.5	/experiments/knapen_aot/videos/R_S_dwi2oPzQ1Wo_48.mp4	0.0	325.9408941268921	0.10016298294067383
83	228.57960104942322	fix_pre	0		17.0	81.0	2.5	/experiments/knapen_aot/videos/R_S_pexels-marcus-aurelius-6785014.mp4	0.0	326.04105710983276	0.14147210121154785
83	228.71293020248413	response	0	2		81.0	2.5	/experiments/knapen_aot/videos/R_S_pexels-marcus-aurelius-6785014.mp4	0.0	326.1743862628937	
83	228.72107315063477	movie	1		170.0	81.0	2.5	/experiments/knapen_aot/videos/R_S_pexels-marcus-aurelius-6785014.mp4	0.0	326.1825292110443	2.508328914642334
83	231.2294020652771	fix_post	2		12.0	81.0	2.5	/experiments/knapen_aot/videos/R_S_pexels-marcus-aurelius-6785014.mp4	0.0	328.69085812568665	0.1000521183013916
83	231.2878611087799	response	2	2		81.0	2.5	/experiments/knapen_aot/videos/R_S_pexels-marcus-aurelius-6785014.mp4	0.0	328.74931716918945	
84	231.3294541835785	fix_pre	0		36.0	82.0	2.5	/experiments/knapen_aot/videos/R_S_yt-SS7pSyb0_d0_32.mp4	0.0	328.79091024398804	0.29998183250427246
84	231.621178150177	response	0	2		82.0	2.5	/experiments/knapen_aot/videos/R_S_yt-SS7pSyb0_d0_32.mp4	0.0	329.08263421058655	
84	231.62943601608276	movie	1		301.0	82.0	2.5	/experiments/knapen_aot/videos/R_S_yt-SS7pSyb0_d0_32.mp4	0.0	329.0908920764923	2.5083680152893066
84	234.13780403137207	fix_post	2		12.0	82.0	2.5	/experiments/knapen_aot/videos/R_S_yt-SS7pSyb0_d0_32.mp4	0.0	331.5992600917816	0.09996294975280762
85	234.23776698112488	fix_pre	0		6.0	83.0	2.5	blank	1.0	331.6992230415344	0.04996299743652344
85	234.27965998649597	response	0	2		83.0	2.5	blank	1.0	331.7411160469055	
85	234.2877299785614	movie	1		301.0	83.0	2.5	blank	1.0	331.74918603897095	2.5083351135253906
85	236.7960650920868	fix_post	2		12.0	83.0	2.5	blank	1.0	334.25752115249634	0.10004210472106934
87	236.89610719680786	stim	0		264.0					334.3575632572174	2.199908971786499
87	236.93786907196045	response	0	2						334.39932513237	
87	239.090106010437	response	0	space						336.55156207084656	
