trial_nr	onset	event_type	phase	response	nr_frames	movie_index	movie_duration	movie_file	blank	onset_abs	duration
0	0.15854406356811523	stim	0		72.0					200.6210401058197	0.599682092666626
0	0.7502481937408447	response	0	space						201.21274423599243	
1	0.7582261562347412	stim	0		121.0					201.22072219848633	1.0084998607635498
1	1.4251940250396729	response	0	space						201.88769006729126	
1	1.766726016998291	stim	1		120.0					202.22922205924988	0.9996061325073242
1	1.8757171630859375	response	1	space						202.33821320533752	
1	2.5497961044311523	response	1	space						203.01229214668274	
2	2.7663321495056152	fix_pre	0		22.0	0.0	2.5	/experiments/knapen_aot/videos/S_yt-x7TqP8l4lCA_39.mp4	0.0	203.2288281917572	0.18331193923950195
2	2.94150710105896	response	0	space		0.0	2.5	/experiments/knapen_aot/videos/S_yt-x7TqP8l4lCA_39.mp4	0.0	203.40400314331055	
2	2.949644088745117	movie	1		300.0	0.0	2.5	/experiments/knapen_aot/videos/S_yt-x7TqP8l4lCA_39.mp4	0.0	203.4121401309967	2.508389949798584
2	5.458034038543701	fix_post	2		12.0	0.0	2.5	/experiments/knapen_aot/videos/S_yt-x7TqP8l4lCA_39.mp4	0.0	205.9205300807953	0.09999608993530273
3	5.558030128479004	fix_pre	0		17.0	1.0	2.5	/experiments/knapen_aot/videos/R_S_pexels-cottonbro-9063801.mp4	0.0	206.0205261707306	0.1416330337524414
3	5.695577144622803	response	0	2		1.0	2.5	/experiments/knapen_aot/videos/R_S_pexels-cottonbro-9063801.mp4	0.0	206.1580731868744	
3	5.699663162231445	movie	1		209.0	1.0	2.5	/experiments/knapen_aot/videos/R_S_pexels-cottonbro-9063801.mp4	0.0	206.16215920448303	2.5083189010620117
3	8.207982063293457	fix_post	2		12.0	1.0	2.5	/experiments/knapen_aot/videos/R_S_pexels-cottonbro-9063801.mp4	0.0	208.67047810554504	0.09999704360961914
3	8.274754047393799	response	2	2		1.0	2.5	/experiments/knapen_aot/videos/R_S_pexels-cottonbro-9063801.mp4	0.0	208.73725008964539	
4	8.307979106903076	fix_pre	0		34.0	2.0	2.5	/experiments/knapen_aot/videos/R_S_yt-_zDYi2P-QxY_128.mp4	0.0	208.77047514915466	0.28324198722839355
4	8.583086013793945	response	0	2		2.0	2.5	/experiments/knapen_aot/videos/R_S_yt-_zDYi2P-QxY_128.mp4	0.0	209.04558205604553	
4	8.59122109413147	movie	1		301.0	2.0	2.5	/experiments/knapen_aot/videos/R_S_yt-_zDYi2P-QxY_128.mp4	0.0	209.05371713638306	2.508430004119873
4	11.099651098251343	fix_post	2		12.0	2.0	2.5	/experiments/knapen_aot/videos/R_S_yt-_zDYi2P-QxY_128.mp4	0.0	211.56214714050293	0.10001397132873535
4	11.15040898323059	response	2	2		2.0	2.5	/experiments/knapen_aot/videos/R_S_yt-_zDYi2P-QxY_128.mp4	0.0	211.61290502548218	
5	11.199665069580078	fix_pre	0		31.0	3.0	2.5	/experiments/knapen_aot/videos/R_S_yt-QFGyhhr1KSQ_9.mp4	0.0	211.66216111183167	0.25832295417785645
5	11.449773073196411	response	0	2		3.0	2.5	/experiments/knapen_aot/videos/R_S_yt-QFGyhhr1KSQ_9.mp4	0.0	211.912269115448	
5	11.457988023757935	movie	1		301.0	3.0	2.5	/experiments/knapen_aot/videos/R_S_yt-QFGyhhr1KSQ_9.mp4	0.0	211.92048406600952	2.50828218460083
5	13.966270208358765	fix_post	2		12.0	3.0	2.5	/experiments/knapen_aot/videos/R_S_yt-QFGyhhr1KSQ_9.mp4	0.0	214.42876625061035	0.1000359058380127
5	14.04141616821289	response	2	2		3.0	2.5	/experiments/knapen_aot/videos/R_S_yt-QFGyhhr1KSQ_9.mp4	0.0	214.50391221046448	
6	14.066306114196777	fix_pre	0		31.0	4.0	2.5	/experiments/knapen_aot/videos/S_yt-9EnchawJ3pA_90.mp4	0.0	214.52880215644836	0.25832104682922363
6	14.308911085128784	response	0	2		4.0	2.5	/experiments/knapen_aot/videos/S_yt-9EnchawJ3pA_90.mp4	0.0	214.77140712738037	
6	14.324627161026001	movie	1		301.0	4.0	2.5	/experiments/knapen_aot/videos/S_yt-9EnchawJ3pA_90.mp4	0.0	214.7871232032776	2.508280038833618
6	16.83290719985962	fix_post	2		12.0	4.0	2.5	/experiments/knapen_aot/videos/S_yt-9EnchawJ3pA_90.mp4	0.0	217.2954032421112	0.09998083114624023
7	16.93288803100586	fix_pre	0		10.0	5.0	2.5	blank	1.0	217.39538407325745	0.0921180248260498
7	17.016560077667236	response	0	2		5.0	2.5	blank	1.0	217.47905611991882	
7	17.02500605583191	movie	1		301.0	5.0	2.5	blank	1.0	217.4875020980835	2.507936954498291
7	19.5329430103302	fix_post	2		12.0	5.0	2.5	blank	1.0	219.9954390525818	0.09994316101074219
8	19.632886171340942	fix_pre	0		17.0	6.0	2.5	/experiments/knapen_aot/videos/S_production_ID_4820325.mp4	0.0	220.09538221359253	0.14202499389648438
8	19.76641297340393	response	0	2		6.0	2.5	/experiments/knapen_aot/videos/S_production_ID_4820325.mp4	0.0	220.22890901565552	
8	19.774911165237427	movie	1		180.0	6.0	2.5	/experiments/knapen_aot/videos/S_production_ID_4820325.mp4	0.0	220.237407207489	2.507985830307007
8	22.282896995544434	fix_post	2		12.0	6.0	2.5	/experiments/knapen_aot/videos/S_production_ID_4820325.mp4	0.0	222.74539303779602	0.10003519058227539
9	22.38293218612671	fix_pre	0		1.0	7.0	2.5	/experiments/knapen_aot/videos/R_S_yt-uX7qYKQm_pg_277.mp4	0.0	222.8454282283783	0.010135889053344727
9	22.384705066680908	response	0	2		7.0	2.5	/experiments/knapen_aot/videos/R_S_yt-uX7qYKQm_pg_277.mp4	0.0	222.8472011089325	
9	22.393068075180054	movie	1		301.0	7.0	2.5	/experiments/knapen_aot/videos/R_S_yt-uX7qYKQm_pg_277.mp4	0.0	222.85556411743164	2.5064809322357178
9	24.89954900741577	fix_post	2		12.0	7.0	2.5	/experiments/knapen_aot/videos/R_S_yt-uX7qYKQm_pg_277.mp4	0.0	225.36204504966736	0.09996199607849121
10	24.999511003494263	fix_pre	0		11.0	8.0	2.5	/experiments/knapen_aot/videos/R_S_EFR8AteY59I_15.mp4	0.0	225.46200704574585	0.09177303314208984
10	25.083036184310913	response	0	2		8.0	2.5	/experiments/knapen_aot/videos/R_S_EFR8AteY59I_15.mp4	0.0	225.5455322265625	
10	25.091284036636353	movie	1		301.0	8.0	2.5	/experiments/knapen_aot/videos/R_S_EFR8AteY59I_15.mp4	0.0	225.55378007888794	2.508368968963623
10	27.599653005599976	fix_post	2		12.0	8.0	2.5	/experiments/knapen_aot/videos/R_S_EFR8AteY59I_15.mp4	0.0	228.06214904785156	0.09994697570800781
11	27.699599981307983	fix_pre	0		14.0	9.0	2.5	/experiments/knapen_aot/videos/S_yt-kAUL5o7i5mo_116.mp4	0.0	228.16209602355957	0.11696720123291016
11	27.808025121688843	response	0	2		9.0	2.5	/experiments/knapen_aot/videos/S_yt-kAUL5o7i5mo_116.mp4	0.0	228.27052116394043	
11	27.816567182540894	movie	1		301.0	9.0	2.5	/experiments/knapen_aot/videos/S_yt-kAUL5o7i5mo_116.mp4	0.0	228.27906322479248	2.5080068111419678
11	30.32457399368286	fix_post	2		12.0	9.0	2.5	/experiments/knapen_aot/videos/S_yt-kAUL5o7i5mo_116.mp4	0.0	230.78707003593445	0.10000205039978027
12	30.42457604408264	fix_pre	0		21.0	10.0	2.5	/experiments/knapen_aot/videos/S_P001_C005_UHD_SDR_2K_AVC.mp4	0.0	230.88707208633423	0.17498993873596191
12	30.583763122558594	response	0	2		10.0	2.5	/experiments/knapen_aot/videos/S_P001_C005_UHD_SDR_2K_AVC.mp4	0.0	231.04625916481018	
12	30.599565982818604	movie	1		168.0	10.0	2.5	/experiments/knapen_aot/videos/S_P001_C005_UHD_SDR_2K_AVC.mp4	0.0	231.0620620250702	2.5082461833953857
12	33.10781216621399	fix_post	2		12.0	10.0	2.5	/experiments/knapen_aot/videos/S_P001_C005_UHD_SDR_2K_AVC.mp4	0.0	233.57030820846558	0.10001182556152344
12	33.199604988098145	response	2	2		10.0	2.5	/experiments/knapen_aot/videos/S_P001_C005_UHD_SDR_2K_AVC.mp4	0.0	233.66210103034973	
13	33.20782399177551	fix_pre	0		39.0	11.0	2.5	/experiments/knapen_aot/videos/R_S_yt-gMqeZkpA_1Q_61.mp4	0.0	233.6703200340271	0.3249990940093994
13	33.524630069732666	response	0	2		11.0	2.5	/experiments/knapen_aot/videos/R_S_yt-gMqeZkpA_1Q_61.mp4	0.0	233.98712611198425	
13	33.53282308578491	movie	1		301.0	11.0	2.5	/experiments/knapen_aot/videos/R_S_yt-gMqeZkpA_1Q_61.mp4	0.0	233.9953191280365	2.508328914642334
13	36.041152000427246	fix_post	2		12.0	11.0	2.5	/experiments/knapen_aot/videos/R_S_yt-gMqeZkpA_1Q_61.mp4	0.0	236.50364804267883	0.10003399848937988
14	36.141185998916626	fix_pre	0		16.0	12.0	2.5	blank	1.0	236.6036820411682	0.13361716270446777
14	36.26636719703674	response	0	2		12.0	2.5	blank	1.0	236.72886323928833	
14	36.274803161621094	movie	1		301.0	12.0	2.5	blank	1.0	236.73729920387268	2.508082866668701
14	38.782886028289795	fix_post	2		12.0	12.0	2.5	blank	1.0	239.24538207054138	0.1000220775604248
15	38.88290810585022	fix_pre	0		28.0	13.0	2.5	/experiments/knapen_aot/videos/S_yt-pPIHiIYSjW8_653.mp4	0.0	239.3454041481018	0.2332460880279541
15	39.108036041259766	response	0	2		13.0	2.5	/experiments/knapen_aot/videos/S_yt-pPIHiIYSjW8_653.mp4	0.0	239.57053208351135	
15	39.116154193878174	movie	1		301.0	13.0	2.5	/experiments/knapen_aot/videos/S_yt-pPIHiIYSjW8_653.mp4	0.0	239.57865023612976	2.508380889892578
15	41.62453508377075	fix_post	2		12.0	13.0	2.5	/experiments/knapen_aot/videos/S_yt-pPIHiIYSjW8_653.mp4	0.0	242.08703112602234	0.09995102882385254
16	41.724486112594604	fix_pre	0		15.0	14.0	2.5	/experiments/knapen_aot/videos/R_S_yt-M5qZo3CUXYE_27.mp4	0.0	242.1869821548462	0.12498903274536133
16	41.841325998306274	response	0	2		14.0	2.5	/experiments/knapen_aot/videos/R_S_yt-M5qZo3CUXYE_27.mp4	0.0	242.30382204055786	
16	41.849475145339966	movie	1		301.0	14.0	2.5	/experiments/knapen_aot/videos/R_S_yt-M5qZo3CUXYE_27.mp4	0.0	242.31197118759155	2.508604049682617
16	44.35807919502258	fix_post	2		12.0	14.0	2.5	/experiments/knapen_aot/videos/R_S_yt-M5qZo3CUXYE_27.mp4	0.0	244.82057523727417	0.0997629165649414
17	44.457842111587524	fix_pre	0		11.0	15.0	2.5	/experiments/knapen_aot/videos/R_S_yt-SRozDkhwx28_1463.mp4	0.0	244.9203381538391	0.09160399436950684
17	44.54125714302063	response	0	2		15.0	2.5	/experiments/knapen_aot/videos/R_S_yt-SRozDkhwx28_1463.mp4	0.0	245.00375318527222	
17	44.54944610595703	movie	1		301.0	15.0	2.5	/experiments/knapen_aot/videos/R_S_yt-SRozDkhwx28_1463.mp4	0.0	245.01194214820862	2.5083420276641846
17	47.057788133621216	fix_post	2		12.0	15.0	2.5	/experiments/knapen_aot/videos/R_S_yt-SRozDkhwx28_1463.mp4	0.0	247.5202841758728	0.09996986389160156
18	47.15775799751282	fix_pre	0		2.0	16.0	2.5	/experiments/knapen_aot/videos/S_ILSVRC2015_train_00251004.mp4	0.0	247.6202540397644	0.016756057739257812
18	47.16634511947632	response	0	2		16.0	2.5	/experiments/knapen_aot/videos/S_ILSVRC2015_train_00251004.mp4	0.0	247.6288411617279	
18	47.174514055252075	movie	1		301.0	16.0	2.5	/experiments/knapen_aot/videos/S_ILSVRC2015_train_00251004.mp4	0.0	247.63701009750366	2.508247137069702
18	49.68276119232178	fix_post	2		12.0	16.0	2.5	/experiments/knapen_aot/videos/S_ILSVRC2015_train_00251004.mp4	0.0	250.14525723457336	0.09992289543151855
19	49.782684087753296	fix_pre	0		2.0	17.0	2.5	/experiments/knapen_aot/videos/S_ILSVRC2015_train_00761000.mp4	0.0	250.24518013000488	0.0167849063873291
19	49.79129910469055	response	0	2		17.0	2.5	/experiments/knapen_aot/videos/S_ILSVRC2015_train_00761000.mp4	0.0	250.25379514694214	
19	49.799468994140625	movie	1		301.0	17.0	2.5	/experiments/knapen_aot/videos/S_ILSVRC2015_train_00761000.mp4	0.0	250.2619650363922	2.50828218460083
19	52.307751178741455	fix_post	2		12.0	17.0	2.5	/experiments/knapen_aot/videos/S_ILSVRC2015_train_00761000.mp4	0.0	252.77024722099304	0.10003280639648438
20	52.40778398513794	fix_pre	0		3.0	18.0	2.5	/experiments/knapen_aot/videos/R_S_yt-AbJBxqEYoMg_105.mp4	0.0	252.87028002738953	0.026604175567626953
20	52.42456102371216	response	0	2		18.0	2.5	/experiments/knapen_aot/videos/R_S_yt-AbJBxqEYoMg_105.mp4	0.0	252.88705706596375	
20	52.434388160705566	movie	1		299.0	18.0	2.5	/experiments/knapen_aot/videos/R_S_yt-AbJBxqEYoMg_105.mp4	0.0	252.89688420295715	2.506922960281372
20	54.94131112098694	fix_post	2		12.0	18.0	2.5	/experiments/knapen_aot/videos/R_S_yt-AbJBxqEYoMg_105.mp4	0.0	255.40380716323853	0.09983086585998535
21	55.041141986846924	fix_pre	0		19.0	19.0	2.5	blank	1.0	255.5036380290985	0.15827417373657227
21	55.1912100315094	response	0	2		19.0	2.5	blank	1.0	255.653706073761	
21	55.199416160583496	movie	1		301.0	19.0	2.5	blank	1.0	255.66191220283508	2.5083470344543457
21	57.70776319503784	fix_post	2		12.0	19.0	2.5	blank	1.0	258.17025923728943	0.10003781318664551
22	57.80780100822449	fix_pre	0		16.0	20.0	2.5	/experiments/knapen_aot/videos/R_S_yt-uWeU2s6JYyk_10.mp4	0.0	258.2702970504761	0.13337016105651855
22	57.932921171188354	response	0	2		20.0	2.5	/experiments/knapen_aot/videos/R_S_yt-uWeU2s6JYyk_10.mp4	0.0	258.39541721343994	
22	57.941171169281006	movie	1		301.0	20.0	2.5	/experiments/knapen_aot/videos/R_S_yt-uWeU2s6JYyk_10.mp4	0.0	258.4036672115326	2.508176803588867
22	60.44934797286987	fix_post	2		12.0	20.0	2.5	/experiments/knapen_aot/videos/R_S_yt-uWeU2s6JYyk_10.mp4	0.0	260.91184401512146	0.1000661849975586
23	60.54941415786743	fix_pre	0		1.0	21.0	2.5	/experiments/knapen_aot/videos/S_yt-yQrDeFlFmfM_138.mp4	0.0	261.011910200119	0.010009050369262695
23	60.55112814903259	response	0	2		21.0	2.5	/experiments/knapen_aot/videos/S_yt-yQrDeFlFmfM_138.mp4	0.0	261.0136241912842	
23	60.559423208236694	movie	1		300.0	21.0	2.5	/experiments/knapen_aot/videos/S_yt-yQrDeFlFmfM_138.mp4	0.0	261.0219192504883	2.5068178176879883
23	63.06624102592468	fix_post	2		12.0	21.0	2.5	/experiments/knapen_aot/videos/S_yt-yQrDeFlFmfM_138.mp4	0.0	263.52873706817627	0.0998220443725586
23	63.14957618713379	response	2	2		21.0	2.5	/experiments/knapen_aot/videos/S_yt-yQrDeFlFmfM_138.mp4	0.0	263.6120722293854	
24	63.16606307029724	fix_pre	0		37.0	22.0	2.5	/experiments/knapen_aot/videos/R_S_yt-ak01CHYgEOs_1383.mp4	0.0	263.6285591125488	0.30828404426574707
24	63.46616220474243	response	0	2		22.0	2.5	/experiments/knapen_aot/videos/R_S_yt-ak01CHYgEOs_1383.mp4	0.0	263.928658246994	
24	63.47434711456299	movie	1		301.0	22.0	2.5	/experiments/knapen_aot/videos/R_S_yt-ak01CHYgEOs_1383.mp4	0.0	263.9368431568146	2.5085480213165283
24	65.98289513587952	fix_post	2		12.0	22.0	2.5	/experiments/knapen_aot/videos/R_S_yt-ak01CHYgEOs_1383.mp4	0.0	266.4453911781311	0.09986591339111328
25	66.08276104927063	fix_pre	0		4.0	23.0	2.5	/experiments/knapen_aot/videos/S_yt-26009GpQuUg_3.mp4	0.0	266.5452570915222	0.033312082290649414
25	66.10852813720703	response	0	2		23.0	2.5	/experiments/knapen_aot/videos/S_yt-26009GpQuUg_3.mp4	0.0	266.5710241794586	
25	66.11607313156128	movie	1		301.0	23.0	2.5	/experiments/knapen_aot/videos/S_yt-26009GpQuUg_3.mp4	0.0	266.57856917381287	2.5082409381866455
25	68.62431406974792	fix_post	2		12.0	23.0	2.5	/experiments/knapen_aot/videos/S_yt-26009GpQuUg_3.mp4	0.0	269.0868101119995	0.10004591941833496
26	68.72435998916626	fix_pre	0		26.0	24.0	2.5	/experiments/knapen_aot/videos/R_S_yt-FE5srhxadno_73.mp4	0.0	269.18685603141785	0.21674299240112305
26	68.93289113044739	response	0	2		24.0	2.5	/experiments/knapen_aot/videos/R_S_yt-FE5srhxadno_73.mp4	0.0	269.395387172699	
26	68.94110298156738	movie	1		301.0	24.0	2.5	/experiments/knapen_aot/videos/R_S_yt-FE5srhxadno_73.mp4	0.0	269.40359902381897	2.508242130279541
26	71.44934511184692	fix_post	2		12.0	24.0	2.5	/experiments/knapen_aot/videos/R_S_yt-FE5srhxadno_73.mp4	0.0	271.9118411540985	0.10000205039978027
27	71.5493471622467	fix_pre	0		28.0	25.0	2.5	/experiments/knapen_aot/videos/R_S_bing-www_break_com_video_like-a-cat-catching-a-fly-3131008_12.mp4	0.0	272.0118432044983	0.233367919921875
27	71.77448916435242	response	0	2		25.0	2.5	/experiments/knapen_aot/videos/R_S_bing-www_break_com_video_like-a-cat-catching-a-fly-3131008_12.mp4	0.0	272.236985206604	
27	71.78271508216858	movie	1		301.0	25.0	2.5	/experiments/knapen_aot/videos/R_S_bing-www_break_com_video_like-a-cat-catching-a-fly-3131008_12.mp4	0.0	272.24521112442017	2.508270025253296
27	74.29098510742188	fix_post	2		12.0	25.0	2.5	/experiments/knapen_aot/videos/R_S_bing-www_break_com_video_like-a-cat-catching-a-fly-3131008_12.mp4	0.0	274.75348114967346	0.10001993179321289
28	74.39100503921509	fix_pre	0		19.0	26.0	2.5	blank	1.0	274.8535010814667	0.1582331657409668
28	74.54115414619446	response	0	2		26.0	2.5	blank	1.0	275.00365018844604	
28	74.54923820495605	movie	1		301.0	26.0	2.5	blank	1.0	275.01173424720764	2.508511781692505
28	77.05774998664856	fix_post	2		12.0	26.0	2.5	blank	1.0	277.52024602890015	0.09993314743041992
29	77.15768313407898	fix_pre	0		18.0	27.0	2.5	/experiments/knapen_aot/videos/S_yt-h8wy6x6oytA_25.mp4	0.0	277.62017917633057	0.14994597434997559
29	77.29941415786743	response	0	2		27.0	2.5	/experiments/knapen_aot/videos/S_yt-h8wy6x6oytA_25.mp4	0.0	277.761910200119	
29	77.30762910842896	movie	1		301.0	27.0	2.5	/experiments/knapen_aot/videos/S_yt-h8wy6x6oytA_25.mp4	0.0	277.77012515068054	2.5084469318389893
29	79.81607604026794	fix_post	2		12.0	27.0	2.5	/experiments/knapen_aot/videos/S_yt-h8wy6x6oytA_25.mp4	0.0	280.27857208251953	0.09999203681945801
30	79.9160680770874	fix_pre	0		15.0	28.0	2.5	/experiments/knapen_aot/videos/S_yt-PP93D7b7Ni4_10.mp4	0.0	280.378564119339	0.12491297721862793
30	80.03281807899475	response	0	2		28.0	2.5	/experiments/knapen_aot/videos/S_yt-PP93D7b7Ni4_10.mp4	0.0	280.49531412124634	
30	80.04098105430603	movie	1		301.0	28.0	2.5	/experiments/knapen_aot/videos/S_yt-PP93D7b7Ni4_10.mp4	0.0	280.5034770965576	2.5085201263427734
30	82.5495011806488	fix_post	2		12.0	28.0	2.5	/experiments/knapen_aot/videos/S_yt-PP93D7b7Ni4_10.mp4	0.0	283.0119972229004	0.09988784790039062
31	82.6493890285492	fix_pre	0		2.0	29.0	2.5	/experiments/knapen_aot/videos/R_S_yt-RXqc3JAmmPM_72.mp4	0.0	283.1118850708008	0.017210960388183594
31	82.6578860282898	response	0	2		29.0	2.5	/experiments/knapen_aot/videos/R_S_yt-RXqc3JAmmPM_72.mp4	0.0	283.1203820705414	
31	82.66659998893738	movie	1		300.0	29.0	2.5	/experiments/knapen_aot/videos/R_S_yt-RXqc3JAmmPM_72.mp4	0.0	283.12909603118896	2.5076980590820312
31	85.17429804801941	fix_post	2		12.0	29.0	2.5	/experiments/knapen_aot/videos/R_S_yt-RXqc3JAmmPM_72.mp4	0.0	285.636794090271	0.10001206398010254
32	85.27431011199951	fix_pre	0		7.0	30.0	2.5	/experiments/knapen_aot/videos/S_yt-fIEGqReekCM_10.mp4	0.0	285.7368061542511	0.05831408500671387
32	85.32444906234741	response	0	2		30.0	2.5	/experiments/knapen_aot/videos/S_yt-fIEGqReekCM_10.mp4	0.0	285.786945104599	
32	85.33262419700623	movie	1		301.0	30.0	2.5	/experiments/knapen_aot/videos/S_yt-fIEGqReekCM_10.mp4	0.0	285.7951202392578	2.508307933807373
32	87.8409321308136	fix_post	2		12.0	30.0	2.5	/experiments/knapen_aot/videos/S_yt-fIEGqReekCM_10.mp4	0.0	288.3034281730652	0.10000801086425781
33	87.94094014167786	fix_pre	0		17.0	31.0	2.5	/experiments/knapen_aot/videos/S_yt--jzScB82vKI_90.mp4	0.0	288.40343618392944	0.1416778564453125
33	88.07447099685669	response	0	2		31.0	2.5	/experiments/knapen_aot/videos/S_yt--jzScB82vKI_90.mp4	0.0	288.5369670391083	
33	88.08261799812317	movie	1		301.0	31.0	2.5	/experiments/knapen_aot/videos/S_yt--jzScB82vKI_90.mp4	0.0	288.54511404037476	2.5083491802215576
33	90.59096717834473	fix_post	2		12.0	31.0	2.5	/experiments/knapen_aot/videos/S_yt--jzScB82vKI_90.mp4	0.0	291.0534632205963	0.09995198249816895
34	90.6909191608429	fix_pre	0		17.0	32.0	2.5	/experiments/knapen_aot/videos/S_flickr-53807584@N00-5565833509_7.mp4	0.0	291.1534152030945	0.1416938304901123
34	90.82441520690918	response	0	2		32.0	2.5	/experiments/knapen_aot/videos/S_flickr-53807584@N00-5565833509_7.mp4	0.0	291.28691124916077	
34	90.83261299133301	movie	1		301.0	32.0	2.5	/experiments/knapen_aot/videos/S_flickr-53807584@N00-5565833509_7.mp4	0.0	291.2951090335846	2.508342981338501
34	93.34095597267151	fix_post	2		12.0	32.0	2.5	/experiments/knapen_aot/videos/S_flickr-53807584@N00-5565833509_7.mp4	0.0	293.8034520149231	0.09996700286865234
35	93.44092297554016	fix_pre	0		3.0	33.0	2.5	blank	1.0	293.90341901779175	0.025103092193603516
35	93.4577260017395	response	0	2		33.0	2.5	blank	1.0	293.9202220439911	
35	93.46602606773376	movie	1		301.0	33.0	2.5	blank	1.0	293.92852210998535	2.50821590423584
35	95.9742419719696	fix_post	2		12.0	33.0	2.5	blank	1.0	296.4367380142212	0.10011410713195801
36	96.07435607910156	fix_pre	0		21.0	34.0	2.5	/experiments/knapen_aot/videos/S_ILSVRC2015_train_00441000.mp4	0.0	296.53685212135315	0.17485904693603516
36	96.23358607292175	response	0	2		34.0	2.5	/experiments/knapen_aot/videos/S_ILSVRC2015_train_00441000.mp4	0.0	296.69608211517334	
36	96.2492151260376	movie	1		301.0	34.0	2.5	/experiments/knapen_aot/videos/S_ILSVRC2015_train_00441000.mp4	0.0	296.7117111682892	2.5083858966827393
36	98.75760102272034	fix_post	2		12.0	34.0	2.5	/experiments/knapen_aot/videos/S_ILSVRC2015_train_00441000.mp4	0.0	299.2200970649719	0.10000300407409668
37	98.85760402679443	fix_pre	0		5.0	35.0	2.5	/experiments/knapen_aot/videos/S_ILSVRC2015_train_00762000.mp4	0.0	299.320100069046	0.04163503646850586
37	98.8911190032959	response	0	2		35.0	2.5	/experiments/knapen_aot/videos/S_ILSVRC2015_train_00762000.mp4	0.0	299.3536150455475	
37	98.89923906326294	movie	1		301.0	35.0	2.5	/experiments/knapen_aot/videos/S_ILSVRC2015_train_00762000.mp4	0.0	299.3617351055145	2.5083141326904297
37	101.40755319595337	fix_post	2		12.0	35.0	2.5	/experiments/knapen_aot/videos/S_ILSVRC2015_train_00762000.mp4	0.0	301.87004923820496	0.10000085830688477
38	101.50755405426025	fix_pre	0		16.0	36.0	2.5	/experiments/knapen_aot/videos/R_S_ILSVRC2015_train_00654000.mp4	0.0	301.97005009651184	0.13467812538146973
38	101.63279318809509	response	0	2		36.0	2.5	/experiments/knapen_aot/videos/R_S_ILSVRC2015_train_00654000.mp4	0.0	302.0952892303467	
38	101.64223217964172	movie	1		301.0	36.0	2.5	/experiments/knapen_aot/videos/R_S_ILSVRC2015_train_00654000.mp4	0.0	302.1047282218933	2.5069990158081055
38	104.14923119544983	fix_post	2		12.0	36.0	2.5	/experiments/knapen_aot/videos/R_S_ILSVRC2015_train_00654000.mp4	0.0	304.6117272377014	0.09993290901184082
39	104.24916410446167	fix_pre	0		9.0	37.0	2.5	/experiments/knapen_aot/videos/R_S_xq822dX6DDM_1.mp4	0.0	304.71166014671326	0.07504987716674805
39	104.31601810455322	response	0	2		37.0	2.5	/experiments/knapen_aot/videos/R_S_xq822dX6DDM_1.mp4	0.0	304.7785141468048	
39	104.32421398162842	movie	1		301.0	37.0	2.5	/experiments/knapen_aot/videos/R_S_xq822dX6DDM_1.mp4	0.0	304.78671002388	2.5082921981811523
39	106.83250617980957	fix_post	2		12.0	37.0	2.5	/experiments/knapen_aot/videos/R_S_xq822dX6DDM_1.mp4	0.0	307.29500222206116	0.10009288787841797
40	106.93259906768799	fix_pre	0		5.0	38.0	2.5	/experiments/knapen_aot/videos/R_S_ILSVRC2015_train_00165013.mp4	0.0	307.3950951099396	0.04300498962402344
40	106.96606516838074	response	0	2		38.0	2.5	/experiments/knapen_aot/videos/R_S_ILSVRC2015_train_00165013.mp4	0.0	307.4285612106323	
40	106.97560405731201	movie	1		301.0	38.0	2.5	/experiments/knapen_aot/videos/R_S_ILSVRC2015_train_00165013.mp4	0.0	307.4381000995636	2.506932020187378
40	109.48253607749939	fix_post	2		12.0	38.0	2.5	/experiments/knapen_aot/videos/R_S_ILSVRC2015_train_00165013.mp4	0.0	309.945032119751	0.09994292259216309
41	109.58247900009155	fix_pre	0		1.0	39.0	2.5	/experiments/knapen_aot/videos/S_ILSVRC2015_train_00594001.mp4	0.0	310.04497504234314	0.008378982543945312
41	109.58408713340759	response	0	2		39.0	2.5	/experiments/knapen_aot/videos/S_ILSVRC2015_train_00594001.mp4	0.0	310.0465831756592	
41	109.5908579826355	movie	1		301.0	39.0	2.5	/experiments/knapen_aot/videos/S_ILSVRC2015_train_00594001.mp4	0.0	310.0533540248871	2.5083281993865967
41	112.0991861820221	fix_post	2		12.0	39.0	2.5	/experiments/knapen_aot/videos/S_ILSVRC2015_train_00594001.mp4	0.0	312.5616822242737	0.10003495216369629
42	112.19922113418579	fix_pre	0		11.0	40.0	2.5	blank	1.0	312.6617171764374	0.09157490730285645
42	112.27528715133667	response	0	2		40.0	2.5	blank	1.0	312.73778319358826	
42	112.29079604148865	movie	1		301.0	40.0	2.5	blank	1.0	312.75329208374023	2.5085020065307617
42	114.79929804801941	fix_post	2		12.0	40.0	2.5	blank	1.0	315.261794090271	0.09992098808288574
43	114.8992190361023	fix_pre	0		16.0	41.0	2.5	/experiments/knapen_aot/videos/R_S_bing-www_break_com_video_like-a-cat-catching-a-fly-3131008_12.mp4	0.0	315.3617150783539	0.1333150863647461
43	115.0242850780487	response	0	2		41.0	2.5	/experiments/knapen_aot/videos/R_S_bing-www_break_com_video_like-a-cat-catching-a-fly-3131008_12.mp4	0.0	315.4867811203003	
43	115.03253412246704	movie	1		301.0	41.0	2.5	/experiments/knapen_aot/videos/R_S_bing-www_break_com_video_like-a-cat-catching-a-fly-3131008_12.mp4	0.0	315.4950301647186	2.5083298683166504
43	117.54086399078369	fix_post	2		12.0	41.0	2.5	/experiments/knapen_aot/videos/R_S_bing-www_break_com_video_like-a-cat-catching-a-fly-3131008_12.mp4	0.0	318.0033600330353	0.09993815422058105
44	117.64080214500427	fix_pre	0		3.0	42.0	2.5	/experiments/knapen_aot/videos/R_S_yt-etF_WUW5D68_3.mp4	0.0	318.10329818725586	0.025044918060302734
44	117.65761518478394	response	0	2		42.0	2.5	/experiments/knapen_aot/videos/R_S_yt-etF_WUW5D68_3.mp4	0.0	318.1201112270355	
44	117.66584706306458	movie	1		301.0	42.0	2.5	/experiments/knapen_aot/videos/R_S_yt-etF_WUW5D68_3.mp4	0.0	318.12834310531616	2.50833797454834
44	120.17418503761292	fix_post	2		11.0	42.0	2.5	/experiments/knapen_aot/videos/R_S_yt-etF_WUW5D68_3.mp4	0.0	320.6366810798645	0.09285306930541992
44	120.24960708618164	response	2	2		42.0	2.5	/experiments/knapen_aot/videos/R_S_yt-etF_WUW5D68_3.mp4	0.0	320.7121031284332	
45	120.26703810691833	fix_pre	0		32.0	43.0	2.5	/experiments/knapen_aot/videos/R_S_ILSVRC2015_train_00473001.mp4	0.0	320.7295341491699	0.2653770446777344
45	120.52423906326294	response	0	2		43.0	2.5	/experiments/knapen_aot/videos/R_S_ILSVRC2015_train_00473001.mp4	0.0	320.9867351055145	
45	120.53241515159607	movie	1		301.0	43.0	2.5	/experiments/knapen_aot/videos/R_S_ILSVRC2015_train_00473001.mp4	0.0	320.99491119384766	2.5083508491516113
45	123.04076600074768	fix_post	2		12.0	43.0	2.5	/experiments/knapen_aot/videos/R_S_ILSVRC2015_train_00473001.mp4	0.0	323.50326204299927	0.1000220775604248
46	123.1407880783081	fix_pre	0		42.0	44.0	2.5	/experiments/knapen_aot/videos/R_S_pexels-roman-odintsov-8231493.mp4	0.0	323.6032841205597	0.35006093978881836
46	123.475093126297	response	0	2		44.0	2.5	/experiments/knapen_aot/videos/R_S_pexels-roman-odintsov-8231493.mp4	0.0	323.9375891685486	
46	123.49084901809692	movie	1		201.0	44.0	2.5	/experiments/knapen_aot/videos/R_S_pexels-roman-odintsov-8231493.mp4	0.0	323.9533450603485	2.50822114944458
46	125.9990701675415	fix_post	2		12.0	44.0	2.5	/experiments/knapen_aot/videos/R_S_pexels-roman-odintsov-8231493.mp4	0.0	326.4615662097931	0.1000509262084961
47	126.09912109375	fix_pre	0		12.0	45.0	2.5	/experiments/knapen_aot/videos/R_S_yt-sxZ_ONShI7U_75.mp4	0.0	326.5616171360016	0.10002589225769043
47	126.19092011451721	response	0	2		45.0	2.5	/experiments/knapen_aot/videos/R_S_yt-sxZ_ONShI7U_75.mp4	0.0	326.6534161567688	
47	126.19914698600769	movie	1		301.0	45.0	2.5	/experiments/knapen_aot/videos/R_S_yt-sxZ_ONShI7U_75.mp4	0.0	326.6616430282593	2.508347988128662
47	128.70749497413635	fix_post	2		12.0	45.0	2.5	/experiments/knapen_aot/videos/R_S_yt-sxZ_ONShI7U_75.mp4	0.0	329.16999101638794	0.0999600887298584
48	128.8074550628662	fix_pre	0		4.0	46.0	2.5	/experiments/knapen_aot/videos/S_yt-UojTppgtyCE_121.mp4	0.0	329.2699511051178	0.03336310386657715
48	128.8326539993286	response	0	2		46.0	2.5	/experiments/knapen_aot/videos/S_yt-UojTppgtyCE_121.mp4	0.0	329.2951500415802	
48	128.8408181667328	movie	1		301.0	46.0	2.5	/experiments/knapen_aot/videos/S_yt-UojTppgtyCE_121.mp4	0.0	329.3033142089844	2.5083398818969727
48	131.34915804862976	fix_post	2		12.0	46.0	2.5	/experiments/knapen_aot/videos/S_yt-UojTppgtyCE_121.mp4	0.0	331.81165409088135	0.10001397132873535
49	131.4491720199585	fix_pre	0		20.0	47.0	2.5	blank	1.0	331.9116680622101	0.16658997535705566
49	131.60760807991028	response	0	2		47.0	2.5	blank	1.0	332.07010412216187	
49	131.61576199531555	movie	1		301.0	47.0	2.5	blank	1.0	332.07825803756714	2.5083470344543457
49	134.1241090297699	fix_post	2		12.0	47.0	2.5	blank	1.0	334.5866050720215	0.09999299049377441
50	134.22410202026367	fix_pre	0		24.0	48.0	2.5	/experiments/knapen_aot/videos/R_S_yt-l_pvPAznG1A_20.mp4	0.0	334.68659806251526	0.1999950408935547
50	134.4157521724701	response	0	2		48.0	2.5	/experiments/knapen_aot/videos/R_S_yt-l_pvPAznG1A_20.mp4	0.0	334.8782482147217	
50	134.42409706115723	movie	1		301.0	48.0	2.5	/experiments/knapen_aot/videos/R_S_yt-l_pvPAznG1A_20.mp4	0.0	334.8865931034088	2.508307933807373
50	136.9324049949646	fix_post	2		12.0	48.0	2.5	/experiments/knapen_aot/videos/R_S_yt-l_pvPAznG1A_20.mp4	0.0	337.3949010372162	0.10007309913635254
50	136.9994010925293	response	2	2		48.0	2.5	/experiments/knapen_aot/videos/R_S_yt-l_pvPAznG1A_20.mp4	0.0	337.4618971347809	
51	137.03247809410095	fix_pre	0		44.0	49.0	2.5	/experiments/knapen_aot/videos/S_yt-kAUL5o7i5mo_116.mp4	0.0	337.49497413635254	0.36661505699157715
51	137.3908851146698	response	0	2		49.0	2.5	/experiments/knapen_aot/videos/S_yt-kAUL5o7i5mo_116.mp4	0.0	337.8533811569214	
51	137.39909315109253	movie	1		301.0	49.0	2.5	/experiments/knapen_aot/videos/S_yt-kAUL5o7i5mo_116.mp4	0.0	337.8615891933441	2.5084099769592285
51	139.90750312805176	fix_post	2		12.0	49.0	2.5	/experiments/knapen_aot/videos/S_yt-kAUL5o7i5mo_116.mp4	0.0	340.36999917030334	0.09995889663696289
52	140.00746202468872	fix_pre	0		33.0	50.0	2.5	/experiments/knapen_aot/videos/R_S_yt-qsyDLtXcyHc_8.mp4	0.0	340.4699580669403	0.2749300003051758
52	140.2742211818695	response	0	2		50.0	2.5	/experiments/knapen_aot/videos/R_S_yt-qsyDLtXcyHc_8.mp4	0.0	340.7367172241211	
52	140.2823920249939	movie	1		301.0	50.0	2.5	/experiments/knapen_aot/videos/R_S_yt-qsyDLtXcyHc_8.mp4	0.0	340.7448880672455	2.508284091949463
52	142.79067611694336	fix_post	2		12.0	50.0	2.5	/experiments/knapen_aot/videos/R_S_yt-qsyDLtXcyHc_8.mp4	0.0	343.25317215919495	0.1000509262084961
53	142.89072704315186	fix_pre	0		14.0	51.0	2.5	/experiments/knapen_aot/videos/R_S_yt-qsyDLtXcyHc_8.mp4	0.0	343.35322308540344	0.11667013168334961
53	142.9916009902954	response	0	2		51.0	2.5	/experiments/knapen_aot/videos/R_S_yt-qsyDLtXcyHc_8.mp4	0.0	343.454097032547	
53	143.0073971748352	movie	1		301.0	51.0	2.5	/experiments/knapen_aot/videos/R_S_yt-qsyDLtXcyHc_8.mp4	0.0	343.4698932170868	2.5083189010620117
53	145.51571607589722	fix_post	2		12.0	51.0	2.5	/experiments/knapen_aot/videos/R_S_yt-qsyDLtXcyHc_8.mp4	0.0	345.9782121181488	0.0999901294708252
54	145.61570620536804	fix_pre	0		17.0	52.0	2.5	/experiments/knapen_aot/videos/R_S_yt-RWN5qOIgqec_25.mp4	0.0	346.07820224761963	0.14162683486938477
54	145.7492380142212	response	0	2		52.0	2.5	/experiments/knapen_aot/videos/R_S_yt-RWN5qOIgqec_25.mp4	0.0	346.2117340564728	
54	145.75733304023743	movie	1		301.0	52.0	2.5	/experiments/knapen_aot/videos/R_S_yt-RWN5qOIgqec_25.mp4	0.0	346.219829082489	2.5083279609680176
54	148.26566100120544	fix_post	2		12.0	52.0	2.5	/experiments/knapen_aot/videos/R_S_yt-RWN5qOIgqec_25.mp4	0.0	348.72815704345703	0.10000109672546387
55	148.3656620979309	fix_pre	0		4.0	53.0	2.5	/experiments/knapen_aot/videos/R_S_pexels-cottonbro-9063801_1.mp4	0.0	348.8281581401825	0.03335905075073242
55	148.3907971382141	response	0	2		53.0	2.5	/experiments/knapen_aot/videos/R_S_pexels-cottonbro-9063801_1.mp4	0.0	348.8532931804657	
55	148.39902114868164	movie	1		198.0	53.0	2.5	/experiments/knapen_aot/videos/R_S_pexels-cottonbro-9063801_1.mp4	0.0	348.8615171909332	2.5083749294281006
55	150.90739607810974	fix_post	2		12.0	53.0	2.5	/experiments/knapen_aot/videos/R_S_pexels-cottonbro-9063801_1.mp4	0.0	351.3698921203613	0.09992599487304688
55	150.99916911125183	response	2	2		53.0	2.5	/experiments/knapen_aot/videos/R_S_pexels-cottonbro-9063801_1.mp4	0.0	351.4616651535034	
56	151.0073220729828	fix_pre	0		48.0	54.0	2.5	blank	1.0	351.4698181152344	0.3999309539794922
56	151.39915919303894	response	0	2		54.0	2.5	blank	1.0	351.8616552352905	
56	151.40725302696228	movie	1		301.0	54.0	2.5	blank	1.0	351.86974906921387	2.5085389614105225
56	153.9157919883728	fix_post	2		12.0	54.0	2.5	blank	1.0	354.3782880306244	0.0999290943145752
57	154.01572108268738	fix_pre	0		19.0	55.0	2.5	/experiments/knapen_aot/videos/R_S_pexels-sora-shimazaki-5925295.mp4	0.0	354.47821712493896	0.1582319736480713
57	154.1581790447235	response	0	2		55.0	2.5	/experiments/knapen_aot/videos/R_S_pexels-sora-shimazaki-5925295.mp4	0.0	354.6206750869751	
57	154.17395305633545	movie	1		165.0	55.0	2.5	/experiments/knapen_aot/videos/R_S_pexels-sora-shimazaki-5925295.mp4	0.0	354.63644909858704	2.508455991744995
57	156.68240904808044	fix_post	2		12.0	55.0	2.5	/experiments/knapen_aot/videos/R_S_pexels-sora-shimazaki-5925295.mp4	0.0	357.14490509033203	0.09996604919433594
58	156.78237509727478	fix_pre	0		2.0	56.0	2.5	/experiments/knapen_aot/videos/S_yt-ak01CHYgEOs_1383.mp4	0.0	357.24487113952637	0.01668405532836914
58	156.79083013534546	response	0	2		56.0	2.5	/experiments/knapen_aot/videos/S_yt-ak01CHYgEOs_1383.mp4	0.0	357.25332617759705	
58	156.79905915260315	movie	1		301.0	56.0	2.5	/experiments/knapen_aot/videos/S_yt-ak01CHYgEOs_1383.mp4	0.0	357.26155519485474	2.5082080364227295
58	159.30726718902588	fix_post	2		12.0	56.0	2.5	/experiments/knapen_aot/videos/S_yt-ak01CHYgEOs_1383.mp4	0.0	359.76976323127747	0.10004496574401855
59	159.4073121547699	fix_pre	0		8.0	57.0	2.5	/experiments/knapen_aot/videos/S_yt-N1EsjM9gD5Q_21.mp4	0.0	359.8698081970215	0.06771302223205566
59	159.46583700180054	response	0	2		57.0	2.5	/experiments/knapen_aot/videos/S_yt-N1EsjM9gD5Q_21.mp4	0.0	359.9283330440521	
59	159.47502517700195	movie	1		301.0	57.0	2.5	/experiments/knapen_aot/videos/S_yt-N1EsjM9gD5Q_21.mp4	0.0	359.93752121925354	2.507187843322754
59	161.9822130203247	fix_post	2		12.0	57.0	2.5	/experiments/knapen_aot/videos/S_yt-N1EsjM9gD5Q_21.mp4	0.0	362.4447090625763	0.1000370979309082
60	162.08225011825562	fix_pre	0		10.0	58.0	2.5	/experiments/knapen_aot/videos/R_S_yt-JkKOG9Fxykc_94.mp4	0.0	362.5447461605072	0.08333086967468262
60	162.15742897987366	response	0	2		58.0	2.5	/experiments/knapen_aot/videos/R_S_yt-JkKOG9Fxykc_94.mp4	0.0	362.61992502212524	
60	162.1655809879303	movie	1		301.0	58.0	2.5	/experiments/knapen_aot/videos/R_S_yt-JkKOG9Fxykc_94.mp4	0.0	362.6280770301819	2.508439064025879
60	164.67402005195618	fix_post	2		12.0	58.0	2.5	/experiments/knapen_aot/videos/R_S_yt-JkKOG9Fxykc_94.mp4	0.0	365.13651609420776	0.09999704360961914
61	164.7740170955658	fix_pre	0		12.0	59.0	2.5	/experiments/knapen_aot/videos/R_S_yt-xBwq6sHHF5M_21.mp4	0.0	365.2365131378174	0.09990596771240234
61	164.86581897735596	response	0	2		59.0	2.5	/experiments/knapen_aot/videos/R_S_yt-xBwq6sHHF5M_21.mp4	0.0	365.32831501960754	
61	164.8739230632782	movie	1		300.0	59.0	2.5	/experiments/knapen_aot/videos/R_S_yt-xBwq6sHHF5M_21.mp4	0.0	365.3364191055298	2.508347988128662
61	167.38227105140686	fix_post	2		12.0	59.0	2.5	/experiments/knapen_aot/videos/R_S_yt-xBwq6sHHF5M_21.mp4	0.0	367.84476709365845	0.09995794296264648
62	167.4822289943695	fix_pre	0		8.0	60.0	2.5	/experiments/knapen_aot/videos/R_S_ILSVRC2015_train_00569002.mp4	0.0	367.9447250366211	0.06674599647521973
62	167.54078197479248	response	0	2		60.0	2.5	/experiments/knapen_aot/videos/R_S_ILSVRC2015_train_00569002.mp4	0.0	368.00327801704407	
62	167.54897499084473	movie	1		301.0	60.0	2.5	/experiments/knapen_aot/videos/R_S_ILSVRC2015_train_00569002.mp4	0.0	368.0114710330963	2.5083119869232178
62	170.05728697776794	fix_post	2		12.0	60.0	2.5	/experiments/knapen_aot/videos/R_S_ILSVRC2015_train_00569002.mp4	0.0	370.51978302001953	0.09992814064025879
63	170.1572151184082	fix_pre	0		18.0	61.0	2.5	/experiments/knapen_aot/videos/S_yt-EApB0DJ3ECg_119.mp4	0.0	370.6197111606598	0.1510159969329834
63	170.29908299446106	response	0	2		61.0	2.5	/experiments/knapen_aot/videos/S_yt-EApB0DJ3ECg_119.mp4	0.0	370.76157903671265	
63	170.3082311153412	movie	1		301.0	61.0	2.5	/experiments/knapen_aot/videos/S_yt-EApB0DJ3ECg_119.mp4	0.0	370.7707271575928	2.507391929626465
63	172.81562304496765	fix_post	2		12.0	61.0	2.5	/experiments/knapen_aot/videos/S_yt-EApB0DJ3ECg_119.mp4	0.0	373.27811908721924	0.09996914863586426
64	172.91559219360352	fix_pre	0		16.0	62.0	2.5	/experiments/knapen_aot/videos/R_S_yt-yQrDeFlFmfM_138.mp4	0.0	373.3780882358551	0.13329291343688965
64	173.04076218605042	response	0	2		62.0	2.5	/experiments/knapen_aot/videos/R_S_yt-yQrDeFlFmfM_138.mp4	0.0	373.503258228302	
64	173.0488851070404	movie	1		301.0	62.0	2.5	/experiments/knapen_aot/videos/R_S_yt-yQrDeFlFmfM_138.mp4	0.0	373.511381149292	2.5083889961242676
64	175.55727410316467	fix_post	2		12.0	62.0	2.5	/experiments/knapen_aot/videos/R_S_yt-yQrDeFlFmfM_138.mp4	0.0	376.01977014541626	0.09991598129272461
65	175.6571900844574	fix_pre	0		13.0	63.0	2.5	blank	1.0	376.119686126709	0.1094059944152832
65	175.75734901428223	response	0	2		63.0	2.5	blank	1.0	376.2198450565338	
65	175.76659607887268	movie	1		301.0	63.0	2.5	blank	1.0	376.22909212112427	2.5073349475860596
65	178.27393102645874	fix_post	2		12.0	63.0	2.5	blank	1.0	378.7364270687103	0.09997296333312988
66	178.37390398979187	fix_pre	0		23.0	64.0	2.5	/experiments/knapen_aot/videos/R_S_yt-Fm97IY0Z2LU_79.mp4	0.0	378.83640003204346	0.1917099952697754
66	178.55732607841492	response	0	2		64.0	2.5	/experiments/knapen_aot/videos/R_S_yt-Fm97IY0Z2LU_79.mp4	0.0	379.0198221206665	
66	178.56561398506165	movie	1		300.0	64.0	2.5	/experiments/knapen_aot/videos/R_S_yt-Fm97IY0Z2LU_79.mp4	0.0	379.02811002731323	2.5082859992980957
66	181.07389998435974	fix_post	2		12.0	64.0	2.5	/experiments/knapen_aot/videos/R_S_yt-Fm97IY0Z2LU_79.mp4	0.0	381.5363960266113	0.09999418258666992
67	181.1738941669464	fix_pre	0		7.0	65.0	2.5	/experiments/knapen_aot/videos/R_S_yt-Q4edV5qiqu0_578.mp4	0.0	381.636390209198	0.05833888053894043
67	181.22409510612488	response	0	2		65.0	2.5	/experiments/knapen_aot/videos/R_S_yt-Q4edV5qiqu0_578.mp4	0.0	381.68659114837646	
67	181.23223304748535	movie	1		301.0	65.0	2.5	/experiments/knapen_aot/videos/R_S_yt-Q4edV5qiqu0_578.mp4	0.0	381.69472908973694	2.508310079574585
67	183.74054312705994	fix_post	2		12.0	65.0	2.5	/experiments/knapen_aot/videos/R_S_yt-Q4edV5qiqu0_578.mp4	0.0	384.2030391693115	0.10005593299865723
68	183.8405990600586	fix_pre	0		21.0	66.0	2.5	/experiments/knapen_aot/videos/S_pexels-cottonbro-9063801_1.mp4	0.0	384.3030951023102	0.17580914497375488
68	184.00735998153687	response	0	2		66.0	2.5	/experiments/knapen_aot/videos/S_pexels-cottonbro-9063801_1.mp4	0.0	384.46985602378845	
68	184.01640820503235	movie	1		206.0	66.0	2.5	/experiments/knapen_aot/videos/S_pexels-cottonbro-9063801_1.mp4	0.0	384.47890424728394	2.507413864135742
68	186.5238220691681	fix_post	2		12.0	66.0	2.5	/experiments/knapen_aot/videos/S_pexels-cottonbro-9063801_1.mp4	0.0	386.9863181114197	0.10007596015930176
69	186.6238980293274	fix_pre	0		2.0	67.0	2.5	/experiments/knapen_aot/videos/R_S_yt-xnqqB-leeaQ_128.mp4	0.0	387.086394071579	0.017548084259033203
69	186.63241314888	response	0	2		67.0	2.5	/experiments/knapen_aot/videos/R_S_yt-xnqqB-leeaQ_128.mp4	0.0	387.0949091911316	
69	186.64144611358643	movie	1		300.0	67.0	2.5	/experiments/knapen_aot/videos/R_S_yt-xnqqB-leeaQ_128.mp4	0.0	387.103942155838	2.507446050643921
69	189.14889216423035	fix_post	2		12.0	67.0	2.5	/experiments/knapen_aot/videos/R_S_yt-xnqqB-leeaQ_128.mp4	0.0	389.61138820648193	0.1000068187713623
70	189.2488989830017	fix_pre	0		1.0	68.0	2.5	/experiments/knapen_aot/videos/S_yt-x7TqP8l4lCA_39.mp4	0.0	389.7113950252533	0.010596036911010742
70	189.24179005622864	response	0	2		68.0	2.5	/experiments/knapen_aot/videos/S_yt-x7TqP8l4lCA_39.mp4	0.0	389.7042860984802	
70	189.25949501991272	movie	1		301.0	68.0	2.5	/experiments/knapen_aot/videos/S_yt-x7TqP8l4lCA_39.mp4	0.0	389.7219910621643	2.5060579776763916
70	191.7655529975891	fix_post	2		12.0	68.0	2.5	/experiments/knapen_aot/videos/S_yt-x7TqP8l4lCA_39.mp4	0.0	392.2280490398407	0.09998202323913574
71	191.86553502082825	fix_pre	0		15.0	69.0	2.5	/experiments/knapen_aot/videos/R_S_yt-kuzdrmHa-W0_39.mp4	0.0	392.32803106307983	0.12499117851257324
71	191.98225116729736	response	0	2		69.0	2.5	/experiments/knapen_aot/videos/R_S_yt-kuzdrmHa-W0_39.mp4	0.0	392.44474720954895	
71	191.99052619934082	movie	1		301.0	69.0	2.5	/experiments/knapen_aot/videos/R_S_yt-kuzdrmHa-W0_39.mp4	0.0	392.4530222415924	2.508227825164795
71	194.49875402450562	fix_post	2		12.0	69.0	2.5	/experiments/knapen_aot/videos/R_S_yt-kuzdrmHa-W0_39.mp4	0.0	394.9612500667572	0.10010409355163574
72	194.59885811805725	fix_pre	0		19.0	70.0	2.5	blank	1.0	395.06135416030884	0.1582810878753662
72	194.74901008605957	response	0	2		70.0	2.5	blank	1.0	395.21150612831116	
72	194.75713920593262	movie	1		301.0	70.0	2.5	blank	1.0	395.2196352481842	2.5082828998565674
72	197.26542210578918	fix_post	2		12.0	70.0	2.5	blank	1.0	397.72791814804077	0.10002899169921875
73	197.3654510974884	fix_pre	0		37.0	71.0	2.5	/experiments/knapen_aot/videos/R_S_yt-ebylvieB_4g_16.mp4	0.0	397.82794713974	0.3083610534667969
73	197.65808820724487	response	0	2		71.0	2.5	/experiments/knapen_aot/videos/R_S_yt-ebylvieB_4g_16.mp4	0.0	398.12058424949646	
73	197.6738121509552	movie	1		301.0	71.0	2.5	/experiments/knapen_aot/videos/R_S_yt-ebylvieB_4g_16.mp4	0.0	398.1363081932068	2.508389949798584
73	200.18220210075378	fix_post	2		12.0	71.0	2.5	/experiments/knapen_aot/videos/R_S_yt-ebylvieB_4g_16.mp4	0.0	400.64469814300537	0.09999299049377441
74	200.28219509124756	fix_pre	0		1.0	72.0	2.5	/experiments/knapen_aot/videos/R_S_P001_C005_UHD_SDR_2K_AVC.mp4	0.0	400.74469113349915	0.011928081512451172
74	200.27524518966675	response	0	2		72.0	2.5	/experiments/knapen_aot/videos/R_S_P001_C005_UHD_SDR_2K_AVC.mp4	0.0	400.73774123191833	
74	200.29412317276	movie	1		184.0	72.0	2.5	/experiments/knapen_aot/videos/R_S_P001_C005_UHD_SDR_2K_AVC.mp4	0.0	400.7566192150116	2.504664897918701
74	202.7987880706787	fix_post	2		12.0	72.0	2.5	/experiments/knapen_aot/videos/R_S_P001_C005_UHD_SDR_2K_AVC.mp4	0.0	403.2612841129303	0.10002493858337402
75	202.89881300926208	fix_pre	0		16.0	73.0	2.5	/experiments/knapen_aot/videos/S_Pexels_Videos_278654_1.mp4	0.0	403.3613090515137	0.13332200050354004
75	203.02387118339539	response	0	2		73.0	2.5	/experiments/knapen_aot/videos/S_Pexels_Videos_278654_1.mp4	0.0	403.486367225647	
75	203.03213500976562	movie	1		165.0	73.0	2.5	/experiments/knapen_aot/videos/S_Pexels_Videos_278654_1.mp4	0.0	403.4946310520172	2.508308172225952
75	205.54044318199158	fix_post	2		12.0	73.0	2.5	/experiments/knapen_aot/videos/S_Pexels_Videos_278654_1.mp4	0.0	406.00293922424316	0.10002994537353516
76	205.6404731273651	fix_pre	0		6.0	74.0	2.5	/experiments/knapen_aot/videos/R_S_yt-fryIS5Itzig_124.mp4	0.0	406.1029691696167	0.05002593994140625
76	205.68267607688904	response	0	2		74.0	2.5	/experiments/knapen_aot/videos/R_S_yt-fryIS5Itzig_124.mp4	0.0	406.1451721191406	
76	205.69049906730652	movie	1		301.0	74.0	2.5	/experiments/knapen_aot/videos/R_S_yt-fryIS5Itzig_124.mp4	0.0	406.1529951095581	2.5082859992980957
76	208.19878506660461	fix_post	2		12.0	74.0	2.5	/experiments/knapen_aot/videos/R_S_yt-fryIS5Itzig_124.mp4	0.0	408.6612811088562	0.09999704360961914
77	208.29878211021423	fix_pre	0		4.0	75.0	2.5	/experiments/knapen_aot/videos/S_ILSVRC2015_train_00411000.mp4	0.0	408.7612781524658	0.03337597846984863
77	208.32390999794006	response	0	2		75.0	2.5	/experiments/knapen_aot/videos/S_ILSVRC2015_train_00411000.mp4	0.0	408.78640604019165	
77	208.33215808868408	movie	1		300.0	75.0	2.5	/experiments/knapen_aot/videos/S_ILSVRC2015_train_00411000.mp4	0.0	408.79465413093567	2.5082550048828125
77	210.8404130935669	fix_post	2		12.0	75.0	2.5	/experiments/knapen_aot/videos/S_ILSVRC2015_train_00411000.mp4	0.0	411.3029091358185	0.10008096694946289
78	210.94049406051636	fix_pre	0		134.0	76.0	2.5	/experiments/knapen_aot/videos/R_S_yt-wrfAMDCg93Y_8.mp4	0.0	411.40299010276794	1.1173720359802246
78	212.04892015457153	response	0	2		76.0	2.5	/experiments/knapen_aot/videos/R_S_yt-wrfAMDCg93Y_8.mp4	0.0	412.5114161968231	
78	212.05786609649658	movie	1		301.0	76.0	2.5	/experiments/knapen_aot/videos/R_S_yt-wrfAMDCg93Y_8.mp4	0.0	412.52036213874817	2.507564067840576
78	214.56543016433716	fix_post	2		12.0	76.0	2.5	/experiments/knapen_aot/videos/R_S_yt-wrfAMDCg93Y_8.mp4	0.0	415.02792620658875	0.09996581077575684
79	214.66539597511292	fix_pre	0		7.0	77.0	2.5	blank	1.0	415.1278920173645	0.05911111831665039
79	214.71555614471436	response	0	2		77.0	2.5	blank	1.0	415.17805218696594	
79	214.72450709342957	movie	1		301.0	77.0	2.5	blank	1.0	415.18700313568115	2.507601022720337
79	217.2321081161499	fix_post	2		12.0	77.0	2.5	blank	1.0	417.6946041584015	0.10002708435058594
80	217.3321352005005	fix_pre	0		27.0	78.0	2.5	/experiments/knapen_aot/videos/R_S_ILSVRC2015_train_00551000.mp4	0.0	417.7946312427521	0.22566890716552734
80	217.54887104034424	response	0	2		78.0	2.5	/experiments/knapen_aot/videos/R_S_ILSVRC2015_train_00551000.mp4	0.0	418.0113670825958	
80	217.55780410766602	movie	1		298.0	78.0	2.5	/experiments/knapen_aot/videos/R_S_ILSVRC2015_train_00551000.mp4	0.0	418.0203001499176	2.507534980773926
80	220.06533908843994	fix_post	2		12.0	78.0	2.5	/experiments/knapen_aot/videos/R_S_ILSVRC2015_train_00551000.mp4	0.0	420.5278351306915	0.10000801086425781
81	220.1653470993042	fix_pre	0		11.0	79.0	2.5	/experiments/knapen_aot/videos/R_S_yt-EApB0DJ3ECg_119.mp4	0.0	420.6278431415558	0.09168696403503418
81	220.248929977417	response	0	2		79.0	2.5	/experiments/knapen_aot/videos/R_S_yt-EApB0DJ3ECg_119.mp4	0.0	420.7114260196686	
81	220.25703406333923	movie	1		301.0	79.0	2.5	/experiments/knapen_aot/videos/R_S_yt-EApB0DJ3ECg_119.mp4	0.0	420.7195301055908	2.5083580017089844
81	222.76539206504822	fix_post	2		12.0	79.0	2.5	/experiments/knapen_aot/videos/R_S_yt-EApB0DJ3ECg_119.mp4	0.0	423.2278881072998	0.10003209114074707
82	222.86542415618896	fix_pre	0		6.0	80.0	2.5	/experiments/knapen_aot/videos/R_S_yt-oVS_k_9upmo_205.mp4	0.0	423.32792019844055	0.049945831298828125
82	222.89975810050964	response	0	2		80.0	2.5	/experiments/knapen_aot/videos/R_S_yt-oVS_k_9upmo_205.mp4	0.0	423.36225414276123	
82	222.9153699874878	movie	1		301.0	80.0	2.5	/experiments/knapen_aot/videos/R_S_yt-oVS_k_9upmo_205.mp4	0.0	423.3778660297394	2.5083131790161133
82	225.4236831665039	fix_post	2		12.0	80.0	2.5	/experiments/knapen_aot/videos/R_S_yt-oVS_k_9upmo_205.mp4	0.0	425.8861792087555	0.10004591941833496
83	225.52372908592224	fix_pre	0		5.0	81.0	2.5	/experiments/knapen_aot/videos/S_yt-HwGg4-zeWi8_364.mp4	0.0	425.9862251281738	0.04168510437011719
83	225.55841612815857	response	0	2		81.0	2.5	/experiments/knapen_aot/videos/S_yt-HwGg4-zeWi8_364.mp4	0.0	426.02091217041016	
83	225.56541419029236	movie	1		301.0	81.0	2.5	/experiments/knapen_aot/videos/S_yt-HwGg4-zeWi8_364.mp4	0.0	426.02791023254395	2.508298873901367
83	228.07371306419373	fix_post	2		12.0	81.0	2.5	/experiments/knapen_aot/videos/S_yt-HwGg4-zeWi8_364.mp4	0.0	428.5362091064453	0.09991908073425293
84	228.17363214492798	fix_pre	0		19.0	82.0	2.5	/experiments/knapen_aot/videos/R_S_yt-pPIHiIYSjW8_653.mp4	0.0	428.63612818717957	0.15836787223815918
84	228.32384705543518	response	0	2		82.0	2.5	/experiments/knapen_aot/videos/R_S_yt-pPIHiIYSjW8_653.mp4	0.0	428.78634309768677	
84	228.33200001716614	movie	1		301.0	82.0	2.5	/experiments/knapen_aot/videos/R_S_yt-pPIHiIYSjW8_653.mp4	0.0	428.7944960594177	2.5083811283111572
84	230.8403811454773	fix_post	2		12.0	82.0	2.5	/experiments/knapen_aot/videos/R_S_yt-pPIHiIYSjW8_653.mp4	0.0	431.3028771877289	0.0999460220336914
85	230.940327167511	fix_pre	0		10.0	83.0	2.5	blank	1.0	431.4028232097626	0.0834348201751709
85	231.0155041217804	response	0	2		83.0	2.5	blank	1.0	431.478000164032	
85	231.02376198768616	movie	1		301.0	83.0	2.5	blank	1.0	431.48625802993774	2.50823712348938
85	233.53199911117554	fix_post	2		12.0	83.0	2.5	blank	1.0	433.9944951534271	0.09995508193969727
87	233.63195419311523	stim	0		179.0					434.0944502353668	1.4916949272155762
87	233.8070731163025	response	0	2						434.2695691585541	
87	235.1157100200653	response	0	space						435.5782060623169	
