trial_nr	onset	event_type	phase	response	nr_frames	movie_index	movie_duration	movie_file	blank	onset_abs	duration
0	0.1484692096710205	stim	0		186.0					61.463054180145264	1.5519587993621826
0	0.9236621856689453	response	0	escape						62.23824715614319	
0	1.689986228942871	response	0	space						63.004571199417114	
1	1.7004280090332031	stim	0		121.0					63.015012979507446	1.0060920715332031
1	2.7065200805664062	stim	1		120.0					64.02110505104065	0.9998929500579834
2	3.7064130306243896	fix_pre	0		70.0	0.0	2.5	/experiments/knapen_aot/videos/R_S_ILSVRC2015_train_00274003.mp4	0.0	65.02099800109863	0.5843009948730469
2	4.2815821170806885	response	0	space		0.0	2.5	/experiments/knapen_aot/videos/R_S_ILSVRC2015_train_00274003.mp4	0.0	65.59616708755493	
2	4.2907140254974365	movie	1		300.0	0.0	2.5	/experiments/knapen_aot/videos/R_S_ILSVRC2015_train_00274003.mp4	0.0	65.60529899597168	2.507467031478882
2	6.798181056976318	fix_post	2		12.0	0.0	2.5	/experiments/knapen_aot/videos/R_S_ILSVRC2015_train_00274003.mp4	0.0	68.11276602745056	0.09998607635498047
3	6.898167133331299	fix_pre	0		7.0	1.0	2.5	/experiments/knapen_aot/videos/R_S_production_ID_4154238.mp4	0.0	68.21275210380554	0.0590970516204834
3	6.951070070266724	response	0	2		1.0	2.5	/experiments/knapen_aot/videos/R_S_production_ID_4154238.mp4	0.0	68.26565504074097	
3	6.957264184951782	movie	1		207.0	1.0	2.5	/experiments/knapen_aot/videos/R_S_production_ID_4154238.mp4	0.0	68.27184915542603	2.5075159072875977
3	9.46478009223938	fix_post	2		12.0	1.0	2.5	/experiments/knapen_aot/videos/R_S_production_ID_4154238.mp4	0.0	70.77936506271362	0.10010600090026855
4	9.564886093139648	fix_pre	0		8.0	2.0	2.5	/experiments/knapen_aot/videos/S_b6-4.mp4	0.0	70.87947106361389	0.06659698486328125
4	9.623300075531006	response	0	2		2.0	2.5	/experiments/knapen_aot/videos/S_b6-4.mp4	0.0	70.93788504600525	
4	9.63148307800293	movie	1		167.0	2.0	2.5	/experiments/knapen_aot/videos/S_b6-4.mp4	0.0	70.94606804847717	2.508284091949463
4	12.139767169952393	fix_post	2		12.0	2.0	2.5	/experiments/knapen_aot/videos/S_b6-4.mp4	0.0	73.45435214042664	0.1000678539276123
4	12.223242998123169	response	2	2		2.0	2.5	/experiments/knapen_aot/videos/S_b6-4.mp4	0.0	73.53782796859741	
5	12.239835023880005	fix_pre	0		46.0	3.0	2.5	/experiments/knapen_aot/videos/S_yt-TqVe93JCGmM_12.mp4	0.0	73.55441999435425	0.3840951919555664
5	12.614808082580566	response	0	2		3.0	2.5	/experiments/knapen_aot/videos/S_yt-TqVe93JCGmM_12.mp4	0.0	73.92939305305481	
5	12.623930215835571	movie	1		301.0	3.0	2.5	/experiments/knapen_aot/videos/S_yt-TqVe93JCGmM_12.mp4	0.0	73.93851518630981	2.5075199604034424
5	15.131450176239014	fix_post	2		12.0	3.0	2.5	/experiments/knapen_aot/videos/S_yt-TqVe93JCGmM_12.mp4	0.0	76.44603514671326	0.10001683235168457
6	15.231467008590698	fix_pre	0		14.0	4.0	2.5	/experiments/knapen_aot/videos/S_yt-FMIevUic_XY_50.mp4	0.0	76.54605197906494	0.1166541576385498
6	15.33996319770813	response	0	2		4.0	2.5	/experiments/knapen_aot/videos/S_yt-FMIevUic_XY_50.mp4	0.0	76.65454816818237	
6	15.348121166229248	movie	1		301.0	4.0	2.5	/experiments/knapen_aot/videos/S_yt-FMIevUic_XY_50.mp4	0.0	76.66270613670349	2.5083320140838623
6	17.85645318031311	fix_post	2		12.0	4.0	2.5	/experiments/knapen_aot/videos/S_yt-FMIevUic_XY_50.mp4	0.0	79.17103815078735	0.10001802444458008
7	17.95647120475769	fix_pre	0		24.0	5.0	2.5	blank	1.0	79.27105617523193	0.19994592666625977
7	18.148256063461304	response	0	2		5.0	2.5	blank	1.0	79.46284103393555	
7	18.15641713142395	movie	1		301.0	5.0	2.5	blank	1.0	79.4710021018982	2.508328914642334
7	20.664746046066284	fix_post	2		12.0	5.0	2.5	blank	1.0	81.97933101654053	0.1000051498413086
8	20.764751195907593	fix_pre	0		24.0	6.0	2.5	/experiments/knapen_aot/videos/R_S_yt-mdLT282PVbE_6.mp4	0.0	82.07933616638184	0.19997000694274902
8	20.956528186798096	response	0	2		6.0	2.5	/experiments/knapen_aot/videos/R_S_yt-mdLT282PVbE_6.mp4	0.0	82.27111315727234	
8	20.964721202850342	movie	1		301.0	6.0	2.5	/experiments/knapen_aot/videos/R_S_yt-mdLT282PVbE_6.mp4	0.0	82.27930617332458	2.5083730220794678
8	23.47309422492981	fix_post	2		12.0	6.0	2.5	/experiments/knapen_aot/videos/R_S_yt-mdLT282PVbE_6.mp4	0.0	84.78767919540405	0.09997081756591797
9	23.573065042495728	fix_pre	0		9.0	7.0	2.5	/experiments/knapen_aot/videos/S_b6-4.mp4	0.0	84.88765001296997	0.07499909400939941
9	23.63983416557312	response	0	2		7.0	2.5	/experiments/knapen_aot/videos/S_b6-4.mp4	0.0	84.95441913604736	
9	23.648064136505127	movie	1		166.0	7.0	2.5	/experiments/knapen_aot/videos/S_b6-4.mp4	0.0	84.96264910697937	2.5083320140838623
9	26.15639615058899	fix_post	2		12.0	7.0	2.5	/experiments/knapen_aot/videos/S_b6-4.mp4	0.0	87.47098112106323	0.10001301765441895
10	26.256409168243408	fix_pre	0		3.0	8.0	2.5	/experiments/knapen_aot/videos/S_yt--WPE_4bqQXc_26.mp4	0.0	87.57099413871765	0.024997949600219727
10	26.273268222808838	response	0	2		8.0	2.5	/experiments/knapen_aot/videos/S_yt--WPE_4bqQXc_26.mp4	0.0	87.58785319328308	
10	26.281407117843628	movie	1		301.0	8.0	2.5	/experiments/knapen_aot/videos/S_yt--WPE_4bqQXc_26.mp4	0.0	87.59599208831787	2.5083138942718506
10	28.78972101211548	fix_post	2		12.0	8.0	2.5	/experiments/knapen_aot/videos/S_yt--WPE_4bqQXc_26.mp4	0.0	90.10430598258972	0.10000300407409668
11	28.889724016189575	fix_pre	0		27.0	9.0	2.5	/experiments/knapen_aot/videos/R_S_yt-O6FS0xnF0CU_106.mp4	0.0	90.20430898666382	0.2249901294708252
11	29.106523036956787	response	0	2		9.0	2.5	/experiments/knapen_aot/videos/R_S_yt-O6FS0xnF0CU_106.mp4	0.0	90.42110800743103	
11	29.1147141456604	movie	1		301.0	9.0	2.5	/experiments/knapen_aot/videos/R_S_yt-O6FS0xnF0CU_106.mp4	0.0	90.42929911613464	2.5083649158477783
11	31.62307906150818	fix_post	2		12.0	9.0	2.5	/experiments/knapen_aot/videos/R_S_yt-O6FS0xnF0CU_106.mp4	0.0	92.93766403198242	0.10001707077026367
12	31.723096132278442	fix_pre	0		7.0	10.0	2.5	/experiments/knapen_aot/videos/S_ILSVRC2015_test_00012005.mp4	0.0	93.03768110275269	0.05826091766357422
12	31.773295164108276	response	0	2		10.0	2.5	/experiments/knapen_aot/videos/S_ILSVRC2015_test_00012005.mp4	0.0	93.08788013458252	
12	31.781357049942017	movie	1		300.0	10.0	2.5	/experiments/knapen_aot/videos/S_ILSVRC2015_test_00012005.mp4	0.0	93.09594202041626	2.5084011554718018
12	34.28975820541382	fix_post	2		12.0	10.0	2.5	/experiments/knapen_aot/videos/S_ILSVRC2015_test_00012005.mp4	0.0	95.60434317588806	0.09999585151672363
13	34.38975405693054	fix_pre	0		19.0	11.0	2.5	/experiments/knapen_aot/videos/S_video_inspire_sanfrancisco_castro_005.1080-h264.mp4	0.0	95.70433902740479	0.1583549976348877
13	34.539900064468384	response	0	2		11.0	2.5	/experiments/knapen_aot/videos/S_video_inspire_sanfrancisco_castro_005.1080-h264.mp4	0.0	95.85448503494263	
13	34.54810905456543	movie	1		170.0	11.0	2.5	/experiments/knapen_aot/videos/S_video_inspire_sanfrancisco_castro_005.1080-h264.mp4	0.0	95.86269402503967	2.5081870555877686
13	37.0562961101532	fix_post	2		12.0	11.0	2.5	/experiments/knapen_aot/videos/S_video_inspire_sanfrancisco_castro_005.1080-h264.mp4	0.0	98.37088108062744	0.10007691383361816
14	37.156373023986816	fix_pre	0		2.0	12.0	2.5	/experiments/knapen_aot/videos/R_S_yt-mdLT282PVbE_6.mp4	0.0	98.47095799446106	0.016714096069335938
14	37.16548204421997	response	0	2		12.0	2.5	/experiments/knapen_aot/videos/R_S_yt-mdLT282PVbE_6.mp4	0.0	98.48006701469421	
14	37.17308712005615	movie	1		301.0	12.0	2.5	/experiments/knapen_aot/videos/R_S_yt-mdLT282PVbE_6.mp4	0.0	98.4876720905304	2.5083279609680176
14	39.68141508102417	fix_post	2		12.0	12.0	2.5	/experiments/knapen_aot/videos/R_S_yt-mdLT282PVbE_6.mp4	0.0	100.99600005149841	0.09989404678344727
15	39.78130912780762	fix_pre	0		16.0	13.0	2.5	blank	1.0	101.09589409828186	0.13400602340698242
15	39.90649104118347	response	0	2		13.0	2.5	blank	1.0	101.22107601165771	
15	39.9153151512146	movie	1		301.0	13.0	2.5	blank	1.0	101.22990012168884	2.5076169967651367
15	42.422932147979736	fix_post	2		12.0	13.0	2.5	blank	1.0	103.73751711845398	0.10005807876586914
16	42.522990226745605	fix_pre	0		25.0	14.0	2.5	/experiments/knapen_aot/videos/R_S_video_inspire_sanfrancisco_castro_005.1080-h264.mp4	0.0	103.83757519721985	0.2083418369293213
16	42.72311806678772	response	0	2		14.0	2.5	/experiments/knapen_aot/videos/R_S_video_inspire_sanfrancisco_castro_005.1080-h264.mp4	0.0	104.03770303726196	
16	42.73133206367493	movie	1		173.0	14.0	2.5	/experiments/knapen_aot/videos/R_S_video_inspire_sanfrancisco_castro_005.1080-h264.mp4	0.0	104.04591703414917	2.5083751678466797
16	45.239707231521606	fix_post	2		12.0	14.0	2.5	/experiments/knapen_aot/videos/R_S_video_inspire_sanfrancisco_castro_005.1080-h264.mp4	0.0	106.55429220199585	0.09992289543151855
16	45.31481719017029	response	2	2		14.0	2.5	/experiments/knapen_aot/videos/R_S_video_inspire_sanfrancisco_castro_005.1080-h264.mp4	0.0	106.62940216064453	
17	45.339630126953125	fix_pre	0		37.0	15.0	2.5	/experiments/knapen_aot/videos/S_yt-28ODBE9bVh0_44.mp4	0.0	106.65421509742737	0.3084139823913574
17	45.63974118232727	response	0	2		15.0	2.5	/experiments/knapen_aot/videos/S_yt-28ODBE9bVh0_44.mp4	0.0	106.95432615280151	
17	45.64804410934448	movie	1		301.0	15.0	2.5	/experiments/knapen_aot/videos/S_yt-28ODBE9bVh0_44.mp4	0.0	106.96262907981873	2.508301019668579
17	48.15634512901306	fix_post	2		12.0	15.0	2.5	/experiments/knapen_aot/videos/S_yt-28ODBE9bVh0_44.mp4	0.0	109.4709300994873	0.10002708435058594
18	48.25637221336365	fix_pre	0		11.0	16.0	2.5	/experiments/knapen_aot/videos/S_yt-Q6BFO3Yz0zY_363.mp4	0.0	109.57095718383789	0.09166193008422852
18	48.33975100517273	response	0	2		16.0	2.5	/experiments/knapen_aot/videos/S_yt-Q6BFO3Yz0zY_363.mp4	0.0	109.65433597564697	
18	48.348034143447876	movie	1		301.0	16.0	2.5	/experiments/knapen_aot/videos/S_yt-Q6BFO3Yz0zY_363.mp4	0.0	109.66261911392212	2.508341073989868
18	50.856375217437744	fix_post	2		12.0	16.0	2.5	/experiments/knapen_aot/videos/S_yt-Q6BFO3Yz0zY_363.mp4	0.0	112.17096018791199	0.10000181198120117
19	50.956377029418945	fix_pre	0		11.0	17.0	2.5	/experiments/knapen_aot/videos/S_wc-lItGMdwvEd_l_7.mp4	0.0	112.27096199989319	0.09166502952575684
19	51.04061222076416	response	0	2		17.0	2.5	/experiments/knapen_aot/videos/S_wc-lItGMdwvEd_l_7.mp4	0.0	112.3551971912384	
19	51.0480420589447	movie	1		165.0	17.0	2.5	/experiments/knapen_aot/videos/S_wc-lItGMdwvEd_l_7.mp4	0.0	112.36262702941895	2.508233070373535
19	53.55627512931824	fix_post	2		12.0	17.0	2.5	/experiments/knapen_aot/videos/S_wc-lItGMdwvEd_l_7.mp4	0.0	114.87086009979248	0.09994792938232422
20	53.65622305870056	fix_pre	0		15.0	18.0	2.5	/experiments/knapen_aot/videos/S_yt-zam74qlzGtQ_122.mp4	0.0	114.9708080291748	0.12506413459777832
20	53.77313303947449	response	0	2		18.0	2.5	/experiments/knapen_aot/videos/S_yt-zam74qlzGtQ_122.mp4	0.0	115.08771800994873	
20	53.78128719329834	movie	1		301.0	18.0	2.5	/experiments/knapen_aot/videos/S_yt-zam74qlzGtQ_122.mp4	0.0	115.09587216377258	2.5083649158477783
20	56.28965210914612	fix_post	2		12.0	18.0	2.5	/experiments/knapen_aot/videos/S_yt-zam74qlzGtQ_122.mp4	0.0	117.60423707962036	0.10002303123474121
21	56.38967514038086	fix_pre	0		16.0	19.0	2.5	/experiments/knapen_aot/videos/R_S_yt--WPE_4bqQXc_26.mp4	0.0	117.7042601108551	0.13328886032104492
21	56.50719404220581	response	0	2		19.0	2.5	/experiments/knapen_aot/videos/R_S_yt--WPE_4bqQXc_26.mp4	0.0	117.82177901268005	
21	56.522964000701904	movie	1		301.0	19.0	2.5	/experiments/knapen_aot/videos/R_S_yt--WPE_4bqQXc_26.mp4	0.0	117.83754897117615	2.508324146270752
21	59.031288146972656	fix_post	2		12.0	19.0	2.5	/experiments/knapen_aot/videos/R_S_yt--WPE_4bqQXc_26.mp4	0.0	120.3458731174469	0.0999600887298584
22	59.131248235702515	fix_pre	0		19.0	20.0	2.5	blank	1.0	120.44583320617676	0.15895581245422363
22	59.28135108947754	response	0	2		20.0	2.5	blank	1.0	120.59593605995178	
22	59.29020404815674	movie	1		301.0	20.0	2.5	blank	1.0	120.60478901863098	2.5077831745147705
22	61.79798722267151	fix_post	2		12.0	20.0	2.5	blank	1.0	123.11257219314575	0.0999898910522461
23	61.897977113723755	fix_pre	0		26.0	21.0	2.5	/experiments/knapen_aot/videos/S_yt-BCFGCganiuE_8.mp4	0.0	123.212562084198	0.22549796104431152
23	62.1071400642395	response	0	2		21.0	2.5	/experiments/knapen_aot/videos/S_yt-BCFGCganiuE_8.mp4	0.0	123.42172503471375	
23	62.123475074768066	movie	1		301.0	21.0	2.5	/experiments/knapen_aot/videos/S_yt-BCFGCganiuE_8.mp4	0.0	123.43806004524231	2.507765054702759
23	64.63124012947083	fix_post	2		12.0	21.0	2.5	/experiments/knapen_aot/videos/S_yt-BCFGCganiuE_8.mp4	0.0	125.94582509994507	0.10007309913635254
24	64.73131322860718	fix_pre	0		17.0	22.0	2.5	/experiments/knapen_aot/videos/R_S_pexels-ron-lach-8259631.mp4	0.0	126.04589819908142	0.14215087890625
24	64.86478400230408	response	0	2		22.0	2.5	/experiments/knapen_aot/videos/R_S_pexels-ron-lach-8259631.mp4	0.0	126.17936897277832	
24	64.87346410751343	movie	1		200.0	22.0	2.5	/experiments/knapen_aot/videos/R_S_pexels-ron-lach-8259631.mp4	0.0	126.18804907798767	2.5077550411224365
24	67.38121914863586	fix_post	2		12.0	22.0	2.5	/experiments/knapen_aot/videos/R_S_pexels-ron-lach-8259631.mp4	0.0	128.6958041191101	0.10013389587402344
25	67.48135304450989	fix_pre	0		6.0	23.0	2.5	/experiments/knapen_aot/videos/S_wc-ZGCMbPfXQ71L_31.mp4	0.0	128.79593801498413	0.0499420166015625
25	67.52330303192139	response	0	2		23.0	2.5	/experiments/knapen_aot/videos/S_wc-ZGCMbPfXQ71L_31.mp4	0.0	128.83788800239563	
25	67.53129506111145	movie	1		163.0	23.0	2.5	/experiments/knapen_aot/videos/S_wc-ZGCMbPfXQ71L_31.mp4	0.0	128.8458800315857	2.508413076400757
25	70.0397081375122	fix_post	2		12.0	23.0	2.5	/experiments/knapen_aot/videos/S_wc-ZGCMbPfXQ71L_31.mp4	0.0	131.35429310798645	0.09986495971679688
26	70.139573097229	fix_pre	0		17.0	24.0	2.5	/experiments/knapen_aot/videos/R_S_yt-bhiGMKSAz2g_370.mp4	0.0	131.45415806770325	0.1416950225830078
26	70.26544618606567	response	0	2		24.0	2.5	/experiments/knapen_aot/videos/R_S_yt-bhiGMKSAz2g_370.mp4	0.0	131.58003115653992	
26	70.28126811981201	movie	1		300.0	24.0	2.5	/experiments/knapen_aot/videos/R_S_yt-bhiGMKSAz2g_370.mp4	0.0	131.59585309028625	2.5082459449768066
26	72.78951406478882	fix_post	2		12.0	24.0	2.5	/experiments/knapen_aot/videos/R_S_yt-bhiGMKSAz2g_370.mp4	0.0	134.10409903526306	0.10004806518554688
27	72.88956212997437	fix_pre	0		24.0	25.0	2.5	/experiments/knapen_aot/videos/R_S_yt-11VGDAOVEag_8.mp4	0.0	134.2041471004486	0.20000886917114258
27	73.0813422203064	response	0	2		25.0	2.5	/experiments/knapen_aot/videos/R_S_yt-11VGDAOVEag_8.mp4	0.0	134.39592719078064	
27	73.08957099914551	movie	1		301.0	25.0	2.5	/experiments/knapen_aot/videos/R_S_yt-11VGDAOVEag_8.mp4	0.0	134.40415596961975	2.508350133895874
27	75.59792113304138	fix_post	2		12.0	25.0	2.5	/experiments/knapen_aot/videos/R_S_yt-11VGDAOVEag_8.mp4	0.0	136.91250610351562	0.09999608993530273
28	75.69791722297668	fix_pre	0		25.0	26.0	2.5	blank	1.0	137.01250219345093	0.20836877822875977
28	75.89808702468872	response	0	2		26.0	2.5	blank	1.0	137.21267199516296	
28	75.90628600120544	movie	1		301.0	26.0	2.5	blank	1.0	137.2208709716797	2.508273124694824
28	78.41455912590027	fix_post	2		12.0	26.0	2.5	blank	1.0	139.7291440963745	0.10008502006530762
29	78.51464414596558	fix_pre	0		13.0	27.0	2.5	/experiments/knapen_aot/videos/S_yt-ybH6uAiFbjc_273.mp4	0.0	139.82922911643982	0.10866904258728027
29	78.61463809013367	response	0	2		27.0	2.5	/experiments/knapen_aot/videos/S_yt-ybH6uAiFbjc_273.mp4	0.0	139.9292230606079	
29	78.62331318855286	movie	1		301.0	27.0	2.5	/experiments/knapen_aot/videos/S_yt-ybH6uAiFbjc_273.mp4	0.0	139.9378981590271	2.5079588890075684
29	81.13127207756042	fix_post	2		12.0	27.0	2.5	/experiments/knapen_aot/videos/S_yt-ybH6uAiFbjc_273.mp4	0.0	142.44585704803467	0.10001206398010254
30	81.23128414154053	fix_pre	0		18.0	28.0	2.5	/experiments/knapen_aot/videos/S_yt-D_f3_HIXG2g_87.mp4	0.0	142.54586911201477	0.14994192123413086
30	81.37307214736938	response	0	2		28.0	2.5	/experiments/knapen_aot/videos/S_yt-D_f3_HIXG2g_87.mp4	0.0	142.68765711784363	
30	81.38122606277466	movie	1		301.0	28.0	2.5	/experiments/knapen_aot/videos/S_yt-D_f3_HIXG2g_87.mp4	0.0	142.6958110332489	2.508289098739624
30	83.88951516151428	fix_post	2		12.0	28.0	2.5	/experiments/knapen_aot/videos/S_yt-D_f3_HIXG2g_87.mp4	0.0	145.20410013198853	0.10005903244018555
31	83.98957419395447	fix_pre	0		12.0	29.0	2.5	/experiments/knapen_aot/videos/S_yt-O6FS0xnF0CU_106.mp4	0.0	145.3041591644287	0.0999908447265625
31	84.08140301704407	response	0	2		29.0	2.5	/experiments/knapen_aot/videos/S_yt-O6FS0xnF0CU_106.mp4	0.0	145.3959879875183	
31	84.08956503868103	movie	1		300.0	29.0	2.5	/experiments/knapen_aot/videos/S_yt-O6FS0xnF0CU_106.mp4	0.0	145.40415000915527	2.508315086364746
31	86.59788012504578	fix_post	2		12.0	29.0	2.5	/experiments/knapen_aot/videos/S_yt-O6FS0xnF0CU_106.mp4	0.0	147.91246509552002	0.09997296333312988
32	86.6978530883789	fix_pre	0		26.0	30.0	2.5	/experiments/knapen_aot/videos/R_S_yt-OdTWn1U1mO4_68.mp4	0.0	148.01243805885315	0.21708393096923828
32	86.9064040184021	response	0	2		30.0	2.5	/experiments/knapen_aot/videos/R_S_yt-OdTWn1U1mO4_68.mp4	0.0	148.22098898887634	
32	86.91493701934814	movie	1		301.0	30.0	2.5	/experiments/knapen_aot/videos/R_S_yt-OdTWn1U1mO4_68.mp4	0.0	148.2295219898224	2.5079140663146973
32	89.42285108566284	fix_post	2		12.0	30.0	2.5	/experiments/knapen_aot/videos/R_S_yt-OdTWn1U1mO4_68.mp4	0.0	150.73743605613708	0.09998106956481934
33	89.52283215522766	fix_pre	0		18.0	31.0	2.5	/experiments/knapen_aot/videos/R_S_wc-ZGCMbPfXQ71L_31.mp4	0.0	150.8374171257019	0.15005087852478027
33	89.66463303565979	response	0	2		31.0	2.5	/experiments/knapen_aot/videos/R_S_wc-ZGCMbPfXQ71L_31.mp4	0.0	150.97921800613403	
33	89.67288303375244	movie	1		161.0	31.0	2.5	/experiments/knapen_aot/videos/R_S_wc-ZGCMbPfXQ71L_31.mp4	0.0	150.98746800422668	2.5083720684051514
33	92.18125510215759	fix_post	2		12.0	31.0	2.5	/experiments/knapen_aot/videos/R_S_wc-ZGCMbPfXQ71L_31.mp4	0.0	153.49584007263184	0.1017160415649414
34	92.28297114372253	fix_pre	0		11.0	32.0	2.5	/experiments/knapen_aot/videos/S_ILSVRC2015_train_00574004.mp4	0.0	153.59755611419678	0.0902550220489502
34	92.3570511341095	response	0	2		32.0	2.5	/experiments/knapen_aot/videos/S_ILSVRC2015_train_00574004.mp4	0.0	153.67163610458374	
34	92.37322616577148	movie	1		301.0	32.0	2.5	/experiments/knapen_aot/videos/S_ILSVRC2015_train_00574004.mp4	0.0	153.68781113624573	2.5079739093780518
34	94.88120007514954	fix_post	2		12.0	32.0	2.5	/experiments/knapen_aot/videos/S_ILSVRC2015_train_00574004.mp4	0.0	156.19578504562378	0.1000361442565918
34	94.95635318756104	response	2	2		32.0	2.5	/experiments/knapen_aot/videos/S_ILSVRC2015_train_00574004.mp4	0.0	156.27093815803528	
35	94.98123621940613	fix_pre	0		43.0	33.0	2.5	/experiments/knapen_aot/videos/R_S_yt-bQRBtP9zkms_111.mp4	0.0	156.29582118988037	0.3581998348236084
35	95.33131814002991	response	0	2		33.0	2.5	/experiments/knapen_aot/videos/R_S_yt-bQRBtP9zkms_111.mp4	0.0	156.64590311050415	
35	95.33943605422974	movie	1		301.0	33.0	2.5	/experiments/knapen_aot/videos/R_S_yt-bQRBtP9zkms_111.mp4	0.0	156.65402102470398	2.508449077606201
35	97.84788513183594	fix_post	2		12.0	33.0	2.5	/experiments/knapen_aot/videos/R_S_yt-bQRBtP9zkms_111.mp4	0.0	159.16247010231018	0.10001206398010254
36	97.94789719581604	fix_pre	0		2.0	34.0	2.5	/experiments/knapen_aot/videos/R_S_yt-kuzdrmHa-W0_39.mp4	0.0	159.26248216629028	0.016685009002685547
36	97.95671319961548	response	0	2		34.0	2.5	/experiments/knapen_aot/videos/R_S_yt-kuzdrmHa-W0_39.mp4	0.0	159.27129817008972	
36	97.96458220481873	movie	1		301.0	34.0	2.5	/experiments/knapen_aot/videos/R_S_yt-kuzdrmHa-W0_39.mp4	0.0	159.27916717529297	2.508283853530884
36	100.47286605834961	fix_post	2		12.0	34.0	2.5	/experiments/knapen_aot/videos/R_S_yt-kuzdrmHa-W0_39.mp4	0.0	161.78745102882385	0.10001397132873535
37	100.57288002967834	fix_pre	0		12.0	35.0	2.5	blank	1.0	161.8874650001526	0.09998607635498047
37	100.66472005844116	response	0	2		35.0	2.5	blank	1.0	161.9793050289154	
37	100.67286610603333	movie	1		301.0	35.0	2.5	blank	1.0	161.98745107650757	2.5083060264587402
37	103.18117213249207	fix_post	2		12.0	35.0	2.5	blank	1.0	164.4957571029663	0.10003089904785156
38	103.28120303153992	fix_pre	0		20.0	36.0	2.5	/experiments/knapen_aot/videos/S_ILSVRC2015_train_00411000.mp4	0.0	164.59578800201416	0.1666851043701172
38	103.43211007118225	response	0	2		36.0	2.5	/experiments/knapen_aot/videos/S_ILSVRC2015_train_00411000.mp4	0.0	164.7466950416565	
38	103.44788813591003	movie	1		301.0	36.0	2.5	/experiments/knapen_aot/videos/S_ILSVRC2015_train_00411000.mp4	0.0	164.76247310638428	2.508312940597534
38	105.95620107650757	fix_post	2		11.0	36.0	2.5	/experiments/knapen_aot/videos/S_ILSVRC2015_train_00411000.mp4	0.0	167.2707860469818	0.09166598320007324
38	106.03961420059204	response	2	2		36.0	2.5	/experiments/knapen_aot/videos/S_ILSVRC2015_train_00411000.mp4	0.0	167.35419917106628	
39	106.04786705970764	fix_pre	0		40.0	37.0	2.5	/experiments/knapen_aot/videos/R_S_ILSVRC2015_train_00434000.mp4	0.0	167.36245203018188	0.333449125289917
39	106.37294721603394	response	0	2		37.0	2.5	/experiments/knapen_aot/videos/R_S_ILSVRC2015_train_00434000.mp4	0.0	167.68753218650818	
39	106.38131618499756	movie	1		301.0	37.0	2.5	/experiments/knapen_aot/videos/R_S_ILSVRC2015_train_00434000.mp4	0.0	167.6959011554718	2.508208990097046
39	108.8895251750946	fix_post	2		12.0	37.0	2.5	/experiments/knapen_aot/videos/R_S_ILSVRC2015_train_00434000.mp4	0.0	170.20411014556885	0.09985804557800293
40	108.98938322067261	fix_pre	0		18.0	38.0	2.5	/experiments/knapen_aot/videos/S_bing-www_dailymotion_com_video_x4kcklg_53.mp4	0.0	170.30396819114685	0.15007686614990234
40	109.13130807876587	response	0	2		38.0	2.5	/experiments/knapen_aot/videos/S_bing-www_dailymotion_com_video_x4kcklg_53.mp4	0.0	170.4458930492401	
40	109.13946008682251	movie	1		168.0	38.0	2.5	/experiments/knapen_aot/videos/S_bing-www_dailymotion_com_video_x4kcklg_53.mp4	0.0	170.45404505729675	2.5083351135253906
40	111.6477952003479	fix_post	2		12.0	38.0	2.5	/experiments/knapen_aot/videos/S_bing-www_dailymotion_com_video_x4kcklg_53.mp4	0.0	172.96238017082214	0.10002684593200684
41	111.74782204627991	fix_pre	0		12.0	39.0	2.5	/experiments/knapen_aot/videos/S_production_ID_3943965.mp4	0.0	173.06240701675415	0.0999460220336914
41	111.83218502998352	response	0	2		39.0	2.5	/experiments/knapen_aot/videos/S_production_ID_3943965.mp4	0.0	173.14677000045776	
41	111.8477680683136	movie	1		207.0	39.0	2.5	/experiments/knapen_aot/videos/S_production_ID_3943965.mp4	0.0	173.16235303878784	2.5083751678466797
41	114.35614323616028	fix_post	2		12.0	39.0	2.5	/experiments/knapen_aot/videos/S_production_ID_3943965.mp4	0.0	175.67072820663452	0.10027480125427246
42	114.45641803741455	fix_pre	0		3.0	40.0	2.5	blank	1.0	175.7710030078888	0.024732112884521484
42	114.47300505638123	response	0	2		40.0	2.5	blank	1.0	175.78759002685547	
42	114.48115015029907	movie	1		301.0	40.0	2.5	blank	1.0	175.79573512077332	2.508280038833618
42	116.98943018913269	fix_post	2		12.0	40.0	2.5	blank	1.0	178.30401515960693	0.09993481636047363
43	117.08936500549316	fix_pre	0		10.0	41.0	2.5	/experiments/knapen_aot/videos/R_S_production_ID_3709168.mp4	0.0	178.4039499759674	0.08346104621887207
43	117.16451621055603	response	0	2		41.0	2.5	/experiments/knapen_aot/videos/R_S_production_ID_3709168.mp4	0.0	178.47910118103027	
43	117.17282605171204	movie	1		200.0	41.0	2.5	/experiments/knapen_aot/videos/R_S_production_ID_3709168.mp4	0.0	178.48741102218628	2.508331060409546
43	119.68115711212158	fix_post	2		12.0	41.0	2.5	/experiments/knapen_aot/videos/R_S_production_ID_3709168.mp4	0.0	180.99574208259583	0.09990811347961426
44	119.7810652256012	fix_pre	0		24.0	42.0	2.5	/experiments/knapen_aot/videos/R_S_comp_GMT329_113NC_396B_1105_CHINA_v04_SDR_FINAL_20180706_F900F2700_SDR_2K_AVC.mp4	0.0	181.09565019607544	0.20006299018859863
44	119.97291016578674	response	0	2		42.0	2.5	/experiments/knapen_aot/videos/R_S_comp_GMT329_113NC_396B_1105_CHINA_v04_SDR_FINAL_20180706_F900F2700_SDR_2K_AVC.mp4	0.0	181.287495136261	
44	119.9811282157898	movie	1		167.0	42.0	2.5	/experiments/knapen_aot/videos/R_S_comp_GMT329_113NC_396B_1105_CHINA_v04_SDR_FINAL_20180706_F900F2700_SDR_2K_AVC.mp4	0.0	181.29571318626404	2.5083069801330566
44	122.48943519592285	fix_post	2		12.0	42.0	2.5	/experiments/knapen_aot/videos/R_S_comp_GMT329_113NC_396B_1105_CHINA_v04_SDR_FINAL_20180706_F900F2700_SDR_2K_AVC.mp4	0.0	183.8040201663971	0.09994196891784668
45	122.5893771648407	fix_pre	0		1.0	43.0	2.5	/experiments/knapen_aot/videos/R_S_wc-lItGMdwvEd_l_7.mp4	0.0	183.90396213531494	0.008400917053222656
45	122.59100914001465	response	0	2		43.0	2.5	/experiments/knapen_aot/videos/R_S_wc-lItGMdwvEd_l_7.mp4	0.0	183.9055941104889	
45	122.59777808189392	movie	1		164.0	43.0	2.5	/experiments/knapen_aot/videos/R_S_wc-lItGMdwvEd_l_7.mp4	0.0	183.91236305236816	2.508327007293701
45	125.10610508918762	fix_post	2		12.0	43.0	2.5	/experiments/knapen_aot/videos/R_S_wc-lItGMdwvEd_l_7.mp4	0.0	186.42069005966187	0.10020303726196289
46	125.20630812644958	fix_pre	0		8.0	44.0	2.5	/experiments/knapen_aot/videos/R_S_yt-T9Vwt7wFvPk_100.mp4	0.0	186.52089309692383	0.06643891334533691
46	125.26461720466614	response	0	2		44.0	2.5	/experiments/knapen_aot/videos/R_S_yt-T9Vwt7wFvPk_100.mp4	0.0	186.57920217514038	
46	125.27274703979492	movie	1		301.0	44.0	2.5	/experiments/knapen_aot/videos/R_S_yt-T9Vwt7wFvPk_100.mp4	0.0	186.58733201026917	2.508395195007324
46	127.78114223480225	fix_post	2		12.0	44.0	2.5	/experiments/knapen_aot/videos/R_S_yt-T9Vwt7wFvPk_100.mp4	0.0	189.0957272052765	0.09999799728393555
47	127.88114023208618	fix_pre	0		6.0	45.0	2.5	/experiments/knapen_aot/videos/R_S_yt-utYnOeoj2Rw_3.mp4	0.0	189.19572520256042	0.0583348274230957
47	127.93132305145264	response	0	2		45.0	2.5	/experiments/knapen_aot/videos/R_S_yt-utYnOeoj2Rw_3.mp4	0.0	189.24590802192688	
47	127.93947505950928	movie	1		301.0	45.0	2.5	/experiments/knapen_aot/videos/R_S_yt-utYnOeoj2Rw_3.mp4	0.0	189.25406002998352	2.5083301067352295
47	130.4478051662445	fix_post	2		12.0	45.0	2.5	/experiments/knapen_aot/videos/R_S_yt-utYnOeoj2Rw_3.mp4	0.0	191.76239013671875	0.09998893737792969
48	130.54779410362244	fix_pre	0		8.0	46.0	2.5	/experiments/knapen_aot/videos/S_yt-OdTWn1U1mO4_68.mp4	0.0	191.86237907409668	0.06663107872009277
48	130.60630702972412	response	0	2		46.0	2.5	/experiments/knapen_aot/videos/S_yt-OdTWn1U1mO4_68.mp4	0.0	191.92089200019836	
48	130.61442518234253	movie	1		301.0	46.0	2.5	/experiments/knapen_aot/videos/S_yt-OdTWn1U1mO4_68.mp4	0.0	191.92901015281677	2.5084729194641113
48	133.12289810180664	fix_post	2		12.0	46.0	2.5	/experiments/knapen_aot/videos/S_yt-OdTWn1U1mO4_68.mp4	0.0	194.43748307228088	0.09976911544799805
49	133.22266721725464	fix_pre	0		43.0	47.0	2.5	blank	1.0	194.53725218772888	0.3585999011993408
49	133.57280015945435	response	0	2		47.0	2.5	blank	1.0	194.8873851299286	
49	133.58126711845398	movie	1		301.0	47.0	2.5	blank	1.0	194.89585208892822	2.508080005645752
49	136.08934712409973	fix_post	2		12.0	47.0	2.5	blank	1.0	197.40393209457397	0.10010790824890137
50	136.18945503234863	fix_pre	0		45.0	48.0	2.5	/experiments/knapen_aot/videos/R_S_ILSVRC2015_train_00274003.mp4	0.0	197.50404000282288	0.3748970031738281
50	136.55609822273254	response	0	2		48.0	2.5	/experiments/knapen_aot/videos/R_S_ILSVRC2015_train_00274003.mp4	0.0	197.8706831932068	
50	136.56435203552246	movie	1		301.0	48.0	2.5	/experiments/knapen_aot/videos/R_S_ILSVRC2015_train_00274003.mp4	0.0	197.8789370059967	2.508352041244507
50	139.07270407676697	fix_post	2		12.0	48.0	2.5	/experiments/knapen_aot/videos/R_S_ILSVRC2015_train_00274003.mp4	0.0	200.3872890472412	0.10003805160522461
51	139.1727421283722	fix_pre	0		7.0	49.0	2.5	/experiments/knapen_aot/videos/S_yt-v8e_DlCsP4w_10.mp4	0.0	200.48732709884644	0.05823802947998047
51	139.22289299964905	response	0	2		49.0	2.5	/experiments/knapen_aot/videos/S_yt-v8e_DlCsP4w_10.mp4	0.0	200.5374779701233	
51	139.23098015785217	movie	1		301.0	49.0	2.5	/experiments/knapen_aot/videos/S_yt-v8e_DlCsP4w_10.mp4	0.0	200.54556512832642	2.5083038806915283
51	141.7392840385437	fix_post	2		12.0	49.0	2.5	/experiments/knapen_aot/videos/S_yt-v8e_DlCsP4w_10.mp4	0.0	203.05386900901794	0.10010600090026855
52	141.83939003944397	fix_pre	0		1.0	50.0	2.5	/experiments/knapen_aot/videos/S_yt-xSGPe0KemD4_384.mp4	0.0	203.1539750099182	0.008249044418334961
52	141.8411350250244	response	0	2		50.0	2.5	/experiments/knapen_aot/videos/S_yt-xSGPe0KemD4_384.mp4	0.0	203.15571999549866	
52	141.8476390838623	movie	1		301.0	50.0	2.5	/experiments/knapen_aot/videos/S_yt-xSGPe0KemD4_384.mp4	0.0	203.16222405433655	2.508362054824829
52	144.35600113868713	fix_post	2		12.0	50.0	2.5	/experiments/knapen_aot/videos/S_yt-xSGPe0KemD4_384.mp4	0.0	205.67058610916138	0.10016202926635742
53	144.4561631679535	fix_pre	0		16.0	51.0	2.5	/experiments/knapen_aot/videos/S_flickr-southeasternstar-3464778323_10.mp4	0.0	205.77074813842773	0.13321995735168457
53	144.58117008209229	response	0	2		51.0	2.5	/experiments/knapen_aot/videos/S_flickr-southeasternstar-3464778323_10.mp4	0.0	205.89575505256653	
53	144.58938312530518	movie	1		301.0	51.0	2.5	/experiments/knapen_aot/videos/S_flickr-southeasternstar-3464778323_10.mp4	0.0	205.90396809577942	2.508312940597534
53	147.0976960659027	fix_post	2		12.0	51.0	2.5	/experiments/knapen_aot/videos/S_flickr-southeasternstar-3464778323_10.mp4	0.0	208.41228103637695	0.09994196891784668
54	147.19763803482056	fix_pre	0		12.0	52.0	2.5	/experiments/knapen_aot/videos/S_pexels-roman-odintsov-8232443_1.mp4	0.0	208.5122230052948	0.1000680923461914
54	147.28942704200745	response	0	2		52.0	2.5	/experiments/knapen_aot/videos/S_pexels-roman-odintsov-8232443_1.mp4	0.0	208.6040120124817	
54	147.29770612716675	movie	1		201.0	52.0	2.5	/experiments/knapen_aot/videos/S_pexels-roman-odintsov-8232443_1.mp4	0.0	208.612291097641	2.5083038806915283
54	149.80601000785828	fix_post	2		12.0	52.0	2.5	/experiments/knapen_aot/videos/S_pexels-roman-odintsov-8232443_1.mp4	0.0	211.12059497833252	0.09996414184570312
55	149.90597414970398	fix_pre	0		13.0	53.0	2.5	/experiments/knapen_aot/videos/R_S_yt-7e6Z9QQieAk_183.mp4	0.0	211.22055912017822	0.10836100578308105
55	150.00612115859985	response	0	2		53.0	2.5	/experiments/knapen_aot/videos/R_S_yt-7e6Z9QQieAk_183.mp4	0.0	211.3207061290741	
55	150.01433515548706	movie	1		301.0	53.0	2.5	/experiments/knapen_aot/videos/R_S_yt-7e6Z9QQieAk_183.mp4	0.0	211.3289201259613	2.508388042449951
55	152.522723197937	fix_post	2		12.0	53.0	2.5	/experiments/knapen_aot/videos/R_S_yt-7e6Z9QQieAk_183.mp4	0.0	213.83730816841125	0.10008382797241211
56	152.62280702590942	fix_pre	0		26.0	54.0	2.5	/experiments/knapen_aot/videos/S_yt-rPYBHkUEwwc_10.mp4	0.0	213.93739199638367	0.21655511856079102
56	152.82354712486267	response	0	2		54.0	2.5	/experiments/knapen_aot/videos/S_yt-rPYBHkUEwwc_10.mp4	0.0	214.1381320953369	
56	152.83936214447021	movie	1		301.0	54.0	2.5	/experiments/knapen_aot/videos/S_yt-rPYBHkUEwwc_10.mp4	0.0	214.15394711494446	2.5083110332489014
56	155.34767317771912	fix_post	2		12.0	54.0	2.5	/experiments/knapen_aot/videos/S_yt-rPYBHkUEwwc_10.mp4	0.0	216.66225814819336	0.09996485710144043
57	155.44763803482056	fix_pre	0		17.0	55.0	2.5	blank	1.0	216.7622230052948	0.14167308807373047
57	155.58110117912292	response	0	2		55.0	2.5	blank	1.0	216.89568614959717	
57	155.5893111228943	movie	1		301.0	55.0	2.5	blank	1.0	216.90389609336853	2.508378028869629
57	158.09768915176392	fix_post	2		12.0	55.0	2.5	blank	1.0	219.41227412223816	0.10001087188720703
58	158.19770002365112	fix_pre	0		35.0	56.0	2.5	/experiments/knapen_aot/videos/S_comp_N003_C006_PS_v01_SDR_PS_20180925_SDR_2K_AVC.mp4	0.0	219.51228499412537	0.2930440902709961
58	158.48128819465637	response	0	2		56.0	2.5	/experiments/knapen_aot/videos/S_comp_N003_C006_PS_v01_SDR_PS_20180925_SDR_2K_AVC.mp4	0.0	219.79587316513062	
58	158.49074411392212	movie	1		168.0	56.0	2.5	/experiments/knapen_aot/videos/S_comp_N003_C006_PS_v01_SDR_PS_20180925_SDR_2K_AVC.mp4	0.0	219.80532908439636	2.5069260597229004
58	160.99767017364502	fix_post	2		12.0	56.0	2.5	/experiments/knapen_aot/videos/S_comp_N003_C006_PS_v01_SDR_PS_20180925_SDR_2K_AVC.mp4	0.0	222.31225514411926	0.09997987747192383
59	161.09765005111694	fix_pre	0		1.0	57.0	2.5	/experiments/knapen_aot/videos/S_wc-PqINyFk_ku4u_18.mp4	0.0	222.4122350215912	0.008442163467407227
59	161.09928107261658	response	0	2		57.0	2.5	/experiments/knapen_aot/videos/S_wc-PqINyFk_ku4u_18.mp4	0.0	222.41386604309082	
59	161.10609221458435	movie	1		162.0	57.0	2.5	/experiments/knapen_aot/videos/S_wc-PqINyFk_ku4u_18.mp4	0.0	222.4206771850586	2.508162021636963
59	163.6142542362213	fix_post	2		12.0	57.0	2.5	/experiments/knapen_aot/videos/S_wc-PqINyFk_ku4u_18.mp4	0.0	224.92883920669556	0.09995484352111816
60	163.71420907974243	fix_pre	0		9.0	58.0	2.5	/experiments/knapen_aot/videos/S_video-9.mp4	0.0	225.02879405021667	0.07505607604980469
60	163.78116917610168	response	0	2		58.0	2.5	/experiments/knapen_aot/videos/S_video-9.mp4	0.0	225.09575414657593	
60	163.78926515579224	movie	1		201.0	58.0	2.5	/experiments/knapen_aot/videos/S_video-9.mp4	0.0	225.10385012626648	2.5083348751068115
60	166.29760003089905	fix_post	2		12.0	58.0	2.5	/experiments/knapen_aot/videos/S_video-9.mp4	0.0	227.6121850013733	0.10004115104675293
61	166.3976411819458	fix_pre	0		10.0	59.0	2.5	/experiments/knapen_aot/videos/S_yt-TqVe93JCGmM_12.mp4	0.0	227.71222615242004	0.08330082893371582
61	166.47275400161743	response	0	2		59.0	2.5	/experiments/knapen_aot/videos/S_yt-TqVe93JCGmM_12.mp4	0.0	227.78733897209167	
61	166.48094201087952	movie	1		301.0	59.0	2.5	/experiments/knapen_aot/videos/S_yt-TqVe93JCGmM_12.mp4	0.0	227.79552698135376	2.50829815864563
61	168.98924016952515	fix_post	2		12.0	59.0	2.5	/experiments/knapen_aot/videos/S_yt-TqVe93JCGmM_12.mp4	0.0	230.3038251399994	0.09999585151672363
62	169.08923602104187	fix_pre	0		9.0	60.0	2.5	/experiments/knapen_aot/videos/S_I005_C008_CROP_SDR_2K_AVC.mp4	0.0	230.4038209915161	0.07500910758972168
62	169.15606212615967	response	0	2		60.0	2.5	/experiments/knapen_aot/videos/S_I005_C008_CROP_SDR_2K_AVC.mp4	0.0	230.4706470966339	
62	169.1642451286316	movie	1		171.0	60.0	2.5	/experiments/knapen_aot/videos/S_I005_C008_CROP_SDR_2K_AVC.mp4	0.0	230.47883009910583	2.508362054824829
62	171.67260718345642	fix_post	2		12.0	60.0	2.5	/experiments/knapen_aot/videos/S_I005_C008_CROP_SDR_2K_AVC.mp4	0.0	232.98719215393066	0.10001993179321289
62	171.7144091129303	response	2	2		60.0	2.5	/experiments/knapen_aot/videos/S_I005_C008_CROP_SDR_2K_AVC.mp4	0.0	233.02899408340454	
63	171.77262711524963	fix_pre	0		35.0	61.0	2.5	/experiments/knapen_aot/videos/S_ILSVRC2015_train_00434000.mp4	0.0	233.08721208572388	0.29164910316467285
63	172.04865312576294	response	0	2		61.0	2.5	/experiments/knapen_aot/videos/S_ILSVRC2015_train_00434000.mp4	0.0	233.36323809623718	
63	172.0642762184143	movie	1		301.0	61.0	2.5	/experiments/knapen_aot/videos/S_ILSVRC2015_train_00434000.mp4	0.0	233.37886118888855	2.508328914642334
63	174.57260513305664	fix_post	2		12.0	61.0	2.5	/experiments/knapen_aot/videos/S_ILSVRC2015_train_00434000.mp4	0.0	235.88719010353088	0.09991097450256348
64	174.6725161075592	fix_pre	0		2.0	62.0	2.5	blank	1.0	235.98710107803345	0.016817092895507812
64	174.68108415603638	response	0	2		62.0	2.5	blank	1.0	235.99566912651062	
64	174.6893332004547	movie	1		301.0	62.0	2.5	blank	1.0	236.00391817092896	2.5082788467407227
64	177.19761204719543	fix_post	2		12.0	62.0	2.5	blank	1.0	238.51219701766968	0.09999418258666992
65	177.2976062297821	fix_pre	0		103.0	63.0	2.5	/experiments/knapen_aot/videos/S_comp_DB_D011_D009_SIGNCMP_v15_6Mbps.mp4	0.0	238.61219120025635	0.8595738410949707
65	178.1477541923523	response	0	2		63.0	2.5	/experiments/knapen_aot/videos/S_comp_DB_D011_D009_SIGNCMP_v15_6Mbps.mp4	0.0	239.46233916282654	
65	178.15718007087708	movie	1		168.0	63.0	2.5	/experiments/knapen_aot/videos/S_comp_DB_D011_D009_SIGNCMP_v15_6Mbps.mp4	0.0	239.47176504135132	2.5070979595184326
65	180.6642780303955	fix_post	2		12.0	63.0	2.5	/experiments/knapen_aot/videos/S_comp_DB_D011_D009_SIGNCMP_v15_6Mbps.mp4	0.0	241.97886300086975	0.09998703002929688
65	180.68108201026917	response	2	2		63.0	2.5	/experiments/knapen_aot/videos/S_comp_DB_D011_D009_SIGNCMP_v15_6Mbps.mp4	0.0	241.9956669807434	
66	180.7642650604248	fix_pre	0		31.0	64.0	2.5	/experiments/knapen_aot/videos/S_ILSVRC2015_train_00693000.mp4	0.0	242.07885003089905	0.2583351135253906
66	181.0144021511078	response	0	2		64.0	2.5	/experiments/knapen_aot/videos/S_ILSVRC2015_train_00693000.mp4	0.0	242.32898712158203	
66	181.0226001739502	movie	1		300.0	64.0	2.5	/experiments/knapen_aot/videos/S_ILSVRC2015_train_00693000.mp4	0.0	242.33718514442444	2.5082809925079346
66	183.53088116645813	fix_post	2		11.0	64.0	2.5	/experiments/knapen_aot/videos/S_ILSVRC2015_train_00693000.mp4	0.0	244.84546613693237	0.09170103073120117
66	183.61444520950317	response	2	2		64.0	2.5	/experiments/knapen_aot/videos/S_ILSVRC2015_train_00693000.mp4	0.0	244.92903017997742	
67	183.62258219718933	fix_pre	0		37.0	65.0	2.5	/experiments/knapen_aot/videos/R_S_yt-zpoIiHGRm5k_296.mp4	0.0	244.93716716766357	0.3083508014678955
67	183.9151530265808	response	0	2		65.0	2.5	/experiments/knapen_aot/videos/R_S_yt-zpoIiHGRm5k_296.mp4	0.0	245.22973799705505	
67	183.93093299865723	movie	1		301.0	65.0	2.5	/experiments/knapen_aot/videos/R_S_yt-zpoIiHGRm5k_296.mp4	0.0	245.24551796913147	2.508303165435791
67	186.43923616409302	fix_post	2		12.0	65.0	2.5	/experiments/knapen_aot/videos/R_S_yt-zpoIiHGRm5k_296.mp4	0.0	247.75382113456726	0.10003495216369629
68	186.5392711162567	fix_pre	0		10.0	66.0	2.5	/experiments/knapen_aot/videos/R_S_bing-www_dailymotion_com_video_x4kcklg_53.mp4	0.0	247.85385608673096	0.08335590362548828
68	186.61473107337952	response	0	2		66.0	2.5	/experiments/knapen_aot/videos/R_S_bing-www_dailymotion_com_video_x4kcklg_53.mp4	0.0	247.92931604385376	
68	186.6226270198822	movie	1		165.0	66.0	2.5	/experiments/knapen_aot/videos/R_S_bing-www_dailymotion_com_video_x4kcklg_53.mp4	0.0	247.93721199035645	2.5084002017974854
68	189.1310272216797	fix_post	2		12.0	66.0	2.5	/experiments/knapen_aot/videos/R_S_bing-www_dailymotion_com_video_x4kcklg_53.mp4	0.0	250.44561219215393	0.09985780715942383
68	189.1726541519165	response	2	2		66.0	2.5	/experiments/knapen_aot/videos/R_S_bing-www_dailymotion_com_video_x4kcklg_53.mp4	0.0	250.48723912239075	
69	189.2308850288391	fix_pre	0		34.0	67.0	2.5	/experiments/knapen_aot/videos/R_S_ILSVRC2015_train_00324002.mp4	0.0	250.54546999931335	0.28334903717041016
69	189.50609517097473	response	0	2		67.0	2.5	/experiments/knapen_aot/videos/R_S_ILSVRC2015_train_00324002.mp4	0.0	250.82068014144897	
69	189.51423406600952	movie	1		300.0	67.0	2.5	/experiments/knapen_aot/videos/R_S_ILSVRC2015_train_00324002.mp4	0.0	250.82881903648376	2.5083351135253906
69	192.0225691795349	fix_post	2		12.0	67.0	2.5	/experiments/knapen_aot/videos/R_S_ILSVRC2015_train_00324002.mp4	0.0	253.33715415000916	0.09993195533752441
70	192.12250113487244	fix_pre	0		3.0	68.0	2.5	/experiments/knapen_aot/videos/S_yt-zgimmOcW5Mc_127.mp4	0.0	253.43708610534668	0.025089025497436523
70	192.13936805725098	response	0	2		68.0	2.5	/experiments/knapen_aot/videos/S_yt-zgimmOcW5Mc_127.mp4	0.0	253.45395302772522	
70	192.14759016036987	movie	1		298.0	68.0	2.5	/experiments/knapen_aot/videos/S_yt-zgimmOcW5Mc_127.mp4	0.0	253.46217513084412	2.508251905441284
70	194.65584206581116	fix_post	2		12.0	68.0	2.5	/experiments/knapen_aot/videos/S_yt-zgimmOcW5Mc_127.mp4	0.0	255.9704270362854	0.10008907318115234
71	194.7559311389923	fix_pre	0		4.0	69.0	2.5	blank	1.0	256.07051610946655	0.03329205513000488
71	194.7810661792755	response	0	2		69.0	2.5	blank	1.0	256.09565114974976	
71	194.78922319412231	movie	1		301.0	69.0	2.5	blank	1.0	256.10380816459656	2.5083138942718506
71	197.29753708839417	fix_post	2		12.0	69.0	2.5	blank	1.0	258.6121220588684	0.09998798370361328
72	197.39752507209778	fix_pre	0		25.0	70.0	2.5	/experiments/knapen_aot/videos/S_yt-O4wUEZwHLyI_114.mp4	0.0	258.712110042572	0.20829415321350098
72	197.597718000412	response	0	2		70.0	2.5	/experiments/knapen_aot/videos/S_yt-O4wUEZwHLyI_114.mp4	0.0	258.91230297088623	
72	197.60581922531128	movie	1		301.0	70.0	2.5	/experiments/knapen_aot/videos/S_yt-O4wUEZwHLyI_114.mp4	0.0	258.9204041957855	2.5083889961242676
72	200.11420822143555	fix_post	2		12.0	70.0	2.5	/experiments/knapen_aot/videos/S_yt-O4wUEZwHLyI_114.mp4	0.0	261.4287931919098	0.1000068187713623
73	200.2142150402069	fix_pre	0		2.0	71.0	2.5	/experiments/knapen_aot/videos/S_yt-ZTAaH5XbtfE_3.mp4	0.0	261.52880001068115	0.01665210723876953
73	200.2226061820984	response	0	2		71.0	2.5	/experiments/knapen_aot/videos/S_yt-ZTAaH5XbtfE_3.mp4	0.0	261.53719115257263	
73	200.23086714744568	movie	1		301.0	71.0	2.5	/experiments/knapen_aot/videos/S_yt-ZTAaH5XbtfE_3.mp4	0.0	261.5454521179199	2.508328914642334
73	202.739196062088	fix_post	2		12.0	71.0	2.5	/experiments/knapen_aot/videos/S_yt-ZTAaH5XbtfE_3.mp4	0.0	264.05378103256226	0.09989714622497559
74	202.839093208313	fix_pre	0		17.0	72.0	2.5	/experiments/knapen_aot/videos/R_S_yt-rPYBHkUEwwc_10.mp4	0.0	264.15367817878723	0.1417388916015625
74	202.96512913703918	response	0	2		72.0	2.5	/experiments/knapen_aot/videos/R_S_yt-rPYBHkUEwwc_10.mp4	0.0	264.2797141075134	
74	202.98083209991455	movie	1		301.0	72.0	2.5	/experiments/knapen_aot/videos/R_S_yt-rPYBHkUEwwc_10.mp4	0.0	264.2954170703888	2.508307933807373
74	205.48914003372192	fix_post	2		12.0	72.0	2.5	/experiments/knapen_aot/videos/R_S_yt-rPYBHkUEwwc_10.mp4	0.0	266.80372500419617	0.10001111030578613
75	205.5891511440277	fix_pre	0		13.0	73.0	2.5	/experiments/knapen_aot/videos/R_S_ILSVRC2015_train_00324002.mp4	0.0	266.90373611450195	0.10950899124145508
75	205.68953204154968	response	0	2		73.0	2.5	/experiments/knapen_aot/videos/R_S_ILSVRC2015_train_00324002.mp4	0.0	267.0041170120239	
75	205.69866013526917	movie	1		301.0	73.0	2.5	/experiments/knapen_aot/videos/R_S_ILSVRC2015_train_00324002.mp4	0.0	267.0132451057434	2.5071499347686768
75	208.20581007003784	fix_post	2		12.0	73.0	2.5	/experiments/knapen_aot/videos/R_S_ILSVRC2015_train_00324002.mp4	0.0	269.5203950405121	0.10004615783691406
76	208.30585622787476	fix_pre	0		2.0	74.0	2.5	/experiments/knapen_aot/videos/S_ILSVRC2015_train_00067005.mp4	0.0	269.620441198349	0.01788496971130371
76	208.31429719924927	response	0	2		74.0	2.5	/experiments/knapen_aot/videos/S_ILSVRC2015_train_00067005.mp4	0.0	269.6288821697235	
76	208.32374119758606	movie	1		301.0	74.0	2.5	/experiments/knapen_aot/videos/S_ILSVRC2015_train_00067005.mp4	0.0	269.6383261680603	2.507107973098755
76	210.83084917068481	fix_post	2		12.0	74.0	2.5	/experiments/knapen_aot/videos/S_ILSVRC2015_train_00067005.mp4	0.0	272.14543414115906	0.09994101524353027
77	210.93079018592834	fix_pre	0		22.0	75.0	2.5	blank	1.0	272.2453751564026	0.18337297439575195
77	211.10600519180298	response	0	2		75.0	2.5	blank	1.0	272.4205901622772	
77	211.1141631603241	movie	1		301.0	75.0	2.5	blank	1.0	272.42874813079834	2.5085160732269287
77	213.62267923355103	fix_post	2		12.0	75.0	2.5	blank	1.0	274.93726420402527	0.09977078437805176
78	213.72245001792908	fix_pre	0		27.0	76.0	2.5	/experiments/knapen_aot/videos/R_S_b4-3.mp4	0.0	275.0370349884033	0.22615718841552734
78	213.9391851425171	response	0	2		76.0	2.5	/experiments/knapen_aot/videos/R_S_b4-3.mp4	0.0	275.25377011299133	
78	213.9486072063446	movie	1		166.0	76.0	2.5	/experiments/knapen_aot/videos/R_S_b4-3.mp4	0.0	275.26319217681885	2.5072169303894043
78	216.455824136734	fix_post	2		12.0	76.0	2.5	/experiments/knapen_aot/videos/R_S_b4-3.mp4	0.0	277.77040910720825	0.10004305839538574
79	216.5558671951294	fix_pre	0		11.0	77.0	2.5	/experiments/knapen_aot/videos/R_S_yt-T9Vwt7wFvPk_100.mp4	0.0	277.87045216560364	0.0915670394897461
79	216.6392650604248	response	0	2		77.0	2.5	/experiments/knapen_aot/videos/R_S_yt-T9Vwt7wFvPk_100.mp4	0.0	277.95385003089905	
79	216.64743423461914	movie	1		301.0	77.0	2.5	/experiments/knapen_aot/videos/R_S_yt-T9Vwt7wFvPk_100.mp4	0.0	277.9620192050934	2.508358955383301
79	219.15579319000244	fix_post	2		12.0	77.0	2.5	/experiments/knapen_aot/videos/R_S_yt-T9Vwt7wFvPk_100.mp4	0.0	280.4703781604767	0.09997987747192383
80	219.25577306747437	fix_pre	0		28.0	78.0	2.5	/experiments/knapen_aot/videos/R_S_yt-foGMTdxewBI_43.mp4	0.0	280.5703580379486	0.23461604118347168
80	219.47341513633728	response	0	2		78.0	2.5	/experiments/knapen_aot/videos/R_S_yt-foGMTdxewBI_43.mp4	0.0	280.7880001068115	
80	219.49038910865784	movie	1		301.0	78.0	2.5	/experiments/knapen_aot/videos/R_S_yt-foGMTdxewBI_43.mp4	0.0	280.8049740791321	2.507046937942505
80	221.99743604660034	fix_post	2		12.0	78.0	2.5	/experiments/knapen_aot/videos/R_S_yt-foGMTdxewBI_43.mp4	0.0	283.3120210170746	0.0999910831451416
81	222.09742712974548	fix_pre	0		18.0	79.0	2.5	/experiments/knapen_aot/videos/S_b3TCugtX0h0_108.mp4	0.0	283.4120121002197	0.149993896484375
81	222.23929119110107	response	0	2		79.0	2.5	/experiments/knapen_aot/videos/S_b3TCugtX0h0_108.mp4	0.0	283.5538761615753	
81	222.24742102622986	movie	1		300.0	79.0	2.5	/experiments/knapen_aot/videos/S_b3TCugtX0h0_108.mp4	0.0	283.5620059967041	2.5083701610565186
81	224.75579118728638	fix_post	2		12.0	79.0	2.5	/experiments/knapen_aot/videos/S_b3TCugtX0h0_108.mp4	0.0	286.0703761577606	0.09998083114624023
82	224.85577201843262	fix_pre	0		1.0	80.0	2.5	/experiments/knapen_aot/videos/S_yt-zpoIiHGRm5k_296.mp4	0.0	286.17035698890686	0.009457111358642578
82	224.85744404792786	response	0	2		80.0	2.5	/experiments/knapen_aot/videos/S_yt-zpoIiHGRm5k_296.mp4	0.0	286.1720290184021	
82	224.86522912979126	movie	1		301.0	80.0	2.5	/experiments/knapen_aot/videos/S_yt-zpoIiHGRm5k_296.mp4	0.0	286.1798141002655	2.5071699619293213
82	227.37239909172058	fix_post	2		12.0	80.0	2.5	/experiments/knapen_aot/videos/S_yt-zpoIiHGRm5k_296.mp4	0.0	288.6869840621948	0.10000801086425781
83	227.47240710258484	fix_pre	0		19.0	81.0	2.5	/experiments/knapen_aot/videos/S_yt-ZzC953ahaxs_195.mp4	0.0	288.7869920730591	0.1583399772644043
83	227.62252712249756	response	0	2		81.0	2.5	/experiments/knapen_aot/videos/S_yt-ZzC953ahaxs_195.mp4	0.0	288.9371120929718	
83	227.63074707984924	movie	1		300.0	81.0	2.5	/experiments/knapen_aot/videos/S_yt-ZzC953ahaxs_195.mp4	0.0	288.9453320503235	2.5084011554718018
83	230.13914823532104	fix_post	2		12.0	81.0	2.5	/experiments/knapen_aot/videos/S_yt-ZzC953ahaxs_195.mp4	0.0	291.4537332057953	0.10000395774841309
84	230.23915219306946	fix_pre	0		4.0	82.0	2.5	blank	1.0	291.5537371635437	0.03337597846984863
84	230.26425409317017	response	0	2		82.0	2.5	blank	1.0	291.5788390636444	
84	230.2725281715393	movie	1		301.0	82.0	2.5	blank	1.0	291.58711314201355	2.5081939697265625
84	232.78072214126587	fix_post	2		12.0	82.0	2.5	blank	1.0	294.0953071117401	0.10009288787841797
85	232.8808150291443	fix_pre	0		23.0	83.0	2.5	/experiments/knapen_aot/videos/S_yt-FsXOl6JjzSY_15.mp4	0.0	294.19539999961853	0.19267606735229492
85	233.06425213813782	response	0	2		83.0	2.5	/experiments/knapen_aot/videos/S_yt-FsXOl6JjzSY_15.mp4	0.0	294.37883710861206	
85	233.07349109649658	movie	1		301.0	83.0	2.5	/experiments/knapen_aot/videos/S_yt-FsXOl6JjzSY_15.mp4	0.0	294.3880760669708	2.5072970390319824
85	235.58078813552856	fix_post	2		12.0	83.0	2.5	/experiments/knapen_aot/videos/S_yt-FsXOl6JjzSY_15.mp4	0.0	296.8953731060028	0.09999608993530273
87	235.68078422546387	stim	0		95.0					296.9953691959381	0.7916769981384277
87	235.78087210655212	response	0	2						297.09545707702637	
87	236.4647490978241	response	0	space						297.77933406829834	
