trial_nr	onset	event_type	phase	response	nr_frames	movie_index	movie_duration	movie_file	blank	onset_abs	duration
0	0.12790918350219727	stim	0		189.0					66.34186601638794	1.5718259811401367
0	1.6915919780731201	response	0	space						67.90554881095886	
1	1.699735164642334	stim	0		121.0					67.91369199752808	1.0082459449768066
1	2.7079811096191406	stim	1		120.0					68.92193794250488	1.0000550746917725
1	2.9673380851745605	response	1	space						69.1812949180603	
2	3.708036184310913	fix_pre	0		265.0	0.0	2.5	/experiments/knapen_aot/videos/R_S_ILSVRC2015_train_00066005.mp4	0.0	69.92199301719666	2.2082438468933105
2	4.083168983459473	response	0	return		0.0	2.5	/experiments/knapen_aot/videos/R_S_ILSVRC2015_train_00066005.mp4	0.0	70.29712581634521	
2	5.908082008361816	response	0	space		0.0	2.5	/experiments/knapen_aot/videos/R_S_ILSVRC2015_train_00066005.mp4	0.0	72.12203884124756	
2	5.916280031204224	movie	1		301.0	0.0	2.5	/experiments/knapen_aot/videos/R_S_ILSVRC2015_train_00066005.mp4	0.0	72.13023686408997	2.508409023284912
2	8.424689054489136	fix_post	2		12.0	0.0	2.5	/experiments/knapen_aot/videos/R_S_ILSVRC2015_train_00066005.mp4	0.0	74.63864588737488	0.09997391700744629
3	8.524662971496582	fix_pre	0		57.0	1.0	2.5	/experiments/knapen_aot/videos/R_S_ILSVRC2015_train_00743001.mp4	0.0	74.73861980438232	0.4777250289916992
3	8.996029138565063	response	0	2		1.0	2.5	/experiments/knapen_aot/videos/R_S_ILSVRC2015_train_00743001.mp4	0.0	75.2099859714508	
3	9.002388000488281	movie	1		294.0	1.0	2.5	/experiments/knapen_aot/videos/R_S_ILSVRC2015_train_00743001.mp4	0.0	75.21634483337402	2.5056240558624268
3	11.508012056350708	fix_post	2		12.0	1.0	2.5	/experiments/knapen_aot/videos/R_S_ILSVRC2015_train_00743001.mp4	0.0	77.72196888923645	0.09997105598449707
4	11.607983112335205	fix_pre	0		57.0	2.0	2.5	/experiments/knapen_aot/videos/R_S_yt-mmvWYAttrIw_2.mp4	0.0	77.82193994522095	0.4749429225921631
4	12.074815034866333	response	0	2		2.0	2.5	/experiments/knapen_aot/videos/R_S_yt-mmvWYAttrIw_2.mp4	0.0	78.28877186775208	
4	12.082926034927368	movie	1		301.0	2.0	2.5	/experiments/knapen_aot/videos/R_S_yt-mmvWYAttrIw_2.mp4	0.0	78.29688286781311	2.5083611011505127
4	14.59128713607788	fix_post	2		12.0	2.0	2.5	/experiments/knapen_aot/videos/R_S_yt-mmvWYAttrIw_2.mp4	0.0	80.80524396896362	0.09993386268615723
5	14.691220998764038	fix_pre	0		36.0	3.0	2.5	/experiments/knapen_aot/videos/S_ILSVRC2015_train_00689000.mp4	0.0	80.90517783164978	0.3000221252441406
5	14.97559118270874	response	0	2		3.0	2.5	/experiments/knapen_aot/videos/S_ILSVRC2015_train_00689000.mp4	0.0	81.18954801559448	
5	14.991243124008179	movie	1		301.0	3.0	2.5	/experiments/knapen_aot/videos/S_ILSVRC2015_train_00689000.mp4	0.0	81.20519995689392	2.508417844772339
5	17.499660968780518	fix_post	2		12.0	3.0	2.5	/experiments/knapen_aot/videos/S_ILSVRC2015_train_00689000.mp4	0.0	83.71361780166626	0.09996700286865234
6	17.59962797164917	fix_pre	0		39.0	4.0	2.5	/experiments/knapen_aot/videos/S_yt-w5lh_rKyKtE_21.mp4	0.0	83.81358480453491	0.3262522220611572
6	17.916471004486084	response	0	2		4.0	2.5	/experiments/knapen_aot/videos/S_yt-w5lh_rKyKtE_21.mp4	0.0	84.13042783737183	
6	17.925880193710327	movie	1		300.0	4.0	2.5	/experiments/knapen_aot/videos/S_yt-w5lh_rKyKtE_21.mp4	0.0	84.13983702659607	2.5071048736572266
6	20.432985067367554	fix_post	2		12.0	4.0	2.5	/experiments/knapen_aot/videos/S_yt-w5lh_rKyKtE_21.mp4	0.0	86.6469419002533	0.10002398490905762
7	20.53300905227661	fix_pre	0		54.0	5.0	2.5	/experiments/knapen_aot/videos/R_S_pexels-roman-odintsov-8233166.mp4	0.0	86.74696588516235	0.44995999336242676
7	20.97477912902832	response	0	2		5.0	2.5	/experiments/knapen_aot/videos/R_S_pexels-roman-odintsov-8233166.mp4	0.0	87.18873596191406	
7	20.982969045639038	movie	1		202.0	5.0	2.5	/experiments/knapen_aot/videos/R_S_pexels-roman-odintsov-8233166.mp4	0.0	87.19692587852478	2.5083370208740234
7	23.49130606651306	fix_post	2		12.0	5.0	2.5	/experiments/knapen_aot/videos/R_S_pexels-roman-odintsov-8233166.mp4	0.0	89.7052628993988	0.09993696212768555
8	23.591243028640747	fix_pre	0		36.0	6.0	2.5	blank	1.0	89.80519986152649	0.30004405975341797
8	23.883074045181274	response	0	2		6.0	2.5	blank	1.0	90.09703087806702	
8	23.891287088394165	movie	1		301.0	6.0	2.5	blank	1.0	90.10524392127991	2.5083260536193848
8	25.608038187026978	response	1	2		6.0	2.5	blank	1.0	91.82199501991272	
8	26.39961314201355	fix_post	2		12.0	6.0	2.5	blank	1.0	92.61356997489929	0.10003185272216797
9	26.499644994735718	fix_pre	0		34.0	7.0	2.5	/experiments/knapen_aot/videos/S_yt-BJsMGxfjrZk_59.mp4	0.0	92.71360182762146	0.28328704833984375
9	26.767232179641724	response	0	2		7.0	2.5	/experiments/knapen_aot/videos/S_yt-BJsMGxfjrZk_59.mp4	0.0	92.98118901252747	
9	26.78293204307556	movie	1		300.0	7.0	2.5	/experiments/knapen_aot/videos/S_yt-BJsMGxfjrZk_59.mp4	0.0	92.9968888759613	2.508341073989868
9	29.29127311706543	fix_post	2		12.0	7.0	2.5	/experiments/knapen_aot/videos/S_yt-BJsMGxfjrZk_59.mp4	0.0	95.50522994995117	0.09995603561401367
10	29.391229152679443	fix_pre	0		40.0	8.0	2.5	/experiments/knapen_aot/videos/R_S_DV6V38rplag_215.mp4	0.0	95.60518598556519	0.3332798480987549
10	29.71652913093567	response	0	2		8.0	2.5	/experiments/knapen_aot/videos/R_S_DV6V38rplag_215.mp4	0.0	95.93048596382141	
10	29.7245090007782	movie	1		301.0	8.0	2.5	/experiments/knapen_aot/videos/R_S_DV6V38rplag_215.mp4	0.0	95.93846583366394	2.5084290504455566
10	32.232938051223755	fix_post	2		12.0	8.0	2.5	/experiments/knapen_aot/videos/R_S_DV6V38rplag_215.mp4	0.0	98.4468948841095	0.09998607635498047
11	32.332924127578735	fix_pre	0		51.0	9.0	2.5	/experiments/knapen_aot/videos/R_S_ILSVRC2015_train_00572001.mp4	0.0	98.54688096046448	0.426163911819458
11	32.74957203865051	response	0	2		9.0	2.5	/experiments/knapen_aot/videos/R_S_ILSVRC2015_train_00572001.mp4	0.0	98.96352887153625	
11	32.75908803939819	movie	1		301.0	9.0	2.5	/experiments/knapen_aot/videos/R_S_ILSVRC2015_train_00572001.mp4	0.0	98.97304487228394	2.507127046585083
11	35.266215085983276	fix_post	2		12.0	9.0	2.5	/experiments/knapen_aot/videos/R_S_ILSVRC2015_train_00572001.mp4	0.0	101.48017191886902	0.0999910831451416
12	35.36620616912842	fix_pre	0		48.0	10.0	2.5	/experiments/knapen_aot/videos/R_S_comp_GMT110_112NC_364D_1054_AURORA_ANTARTICA__COMP_FINAL_v34_PS_SDR_20181107_SDR_2K_AVC.mp4	0.0	101.58016300201416	0.3999629020690918
12	35.758031129837036	response	0	2		10.0	2.5	/experiments/knapen_aot/videos/R_S_comp_GMT110_112NC_364D_1054_AURORA_ANTARTICA__COMP_FINAL_v34_PS_SDR_20181107_SDR_2K_AVC.mp4	0.0	101.97198796272278	
12	35.76616907119751	movie	1		161.0	10.0	2.5	/experiments/knapen_aot/videos/R_S_comp_GMT110_112NC_364D_1054_AURORA_ANTARTICA__COMP_FINAL_v34_PS_SDR_20181107_SDR_2K_AVC.mp4	0.0	101.98012590408325	2.508373975753784
12	38.274543046951294	fix_post	2		12.0	10.0	2.5	/experiments/knapen_aot/videos/R_S_comp_GMT110_112NC_364D_1054_AURORA_ANTARTICA__COMP_FINAL_v34_PS_SDR_20181107_SDR_2K_AVC.mp4	0.0	104.48849987983704	0.0999910831451416
13	38.374534130096436	fix_pre	0		33.0	11.0	2.5	/experiments/knapen_aot/videos/R_S_ILSVRC2015_train_00411001.mp4	0.0	104.58849096298218	0.27496886253356934
13	38.64135003089905	response	0	2		11.0	2.5	/experiments/knapen_aot/videos/R_S_ILSVRC2015_train_00411001.mp4	0.0	104.85530686378479	
13	38.649502992630005	movie	1		301.0	11.0	2.5	/experiments/knapen_aot/videos/R_S_ILSVRC2015_train_00411001.mp4	0.0	104.86345982551575	2.508329153060913
13	41.15783214569092	fix_post	2		12.0	11.0	2.5	/experiments/knapen_aot/videos/R_S_ILSVRC2015_train_00411001.mp4	0.0	107.37178897857666	0.09999799728393555
14	41.25783014297485	fix_pre	0		34.0	12.0	2.5	blank	1.0	107.4717869758606	0.28335094451904297
14	41.532999992370605	response	0	2		12.0	2.5	blank	1.0	107.74695682525635	
14	41.5411810874939	movie	1		301.0	12.0	2.5	blank	1.0	107.75513792037964	2.508297920227051
14	43.641271114349365	response	1	2		12.0	2.5	blank	1.0	109.85522794723511	
14	44.04947900772095	fix_post	2		12.0	12.0	2.5	blank	1.0	110.26343584060669	0.10002899169921875
15	44.149507999420166	fix_pre	0		38.0	13.0	2.5	/experiments/knapen_aot/videos/R_S_wc-zkO_omg3nTvg_5.mp4	0.0	110.36346483230591	0.3177759647369385
15	44.457919120788574	response	0	2		13.0	2.5	/experiments/knapen_aot/videos/R_S_wc-zkO_omg3nTvg_5.mp4	0.0	110.67187595367432	
15	44.467283964157104	movie	1		167.0	13.0	2.5	/experiments/knapen_aot/videos/R_S_wc-zkO_omg3nTvg_5.mp4	0.0	110.68124079704285	2.5072131156921387
15	46.97449707984924	fix_post	2		12.0	13.0	2.5	/experiments/knapen_aot/videos/R_S_wc-zkO_omg3nTvg_5.mp4	0.0	113.18845391273499	0.10010099411010742
16	47.07459807395935	fix_pre	0		47.0	14.0	2.5	/experiments/knapen_aot/videos/S_pexels-roman-odintsov-8233166.mp4	0.0	113.28855490684509	0.3926548957824707
16	47.45793604850769	response	0	2		14.0	2.5	/experiments/knapen_aot/videos/S_pexels-roman-odintsov-8233166.mp4	0.0	113.67189288139343	
16	47.46725296974182	movie	1		203.0	14.0	2.5	/experiments/knapen_aot/videos/S_pexels-roman-odintsov-8233166.mp4	0.0	113.68120980262756	2.5072410106658936
16	49.974493980407715	fix_post	2		12.0	14.0	2.5	/experiments/knapen_aot/videos/S_pexels-roman-odintsov-8233166.mp4	0.0	116.18845081329346	0.09998512268066406
17	50.07447910308838	fix_pre	0		59.0	15.0	2.5	/experiments/knapen_aot/videos/R_S_wc-16LozRfhUGea_49.mp4	0.0	116.28843593597412	0.49163389205932617
17	50.55795907974243	response	0	2		15.0	2.5	/experiments/knapen_aot/videos/R_S_wc-16LozRfhUGea_49.mp4	0.0	116.77191591262817	
17	50.566112995147705	movie	1		299.0	15.0	2.5	/experiments/knapen_aot/videos/R_S_wc-16LozRfhUGea_49.mp4	0.0	116.78006982803345	2.5083961486816406
17	53.074509143829346	fix_post	2		12.0	15.0	2.5	/experiments/knapen_aot/videos/R_S_wc-16LozRfhUGea_49.mp4	0.0	119.28846597671509	0.09999704360961914
18	53.174506187438965	fix_pre	0		51.0	16.0	2.5	/experiments/knapen_aot/videos/R_S_yt-SyePE8wOlxs_321.mp4	0.0	119.3884630203247	0.4249567985534668
18	53.59131717681885	response	0	2		16.0	2.5	/experiments/knapen_aot/videos/R_S_yt-SyePE8wOlxs_321.mp4	0.0	119.80527400970459	
18	53.59946298599243	movie	1		301.0	16.0	2.5	/experiments/knapen_aot/videos/R_S_yt-SyePE8wOlxs_321.mp4	0.0	119.81341981887817	2.508287191390991
18	56.10775017738342	fix_post	2		12.0	16.0	2.5	/experiments/knapen_aot/videos/R_S_yt-SyePE8wOlxs_321.mp4	0.0	122.32170701026917	0.1000218391418457
19	56.20777201652527	fix_pre	0		33.0	17.0	2.5	/experiments/knapen_aot/videos/S_yt-RHPOCG1mII0_138.mp4	0.0	122.42172884941101	0.2749781608581543
19	56.474605083465576	response	0	2		17.0	2.5	/experiments/knapen_aot/videos/S_yt-RHPOCG1mII0_138.mp4	0.0	122.68856191635132	
19	56.48275017738342	movie	1		299.0	17.0	2.5	/experiments/knapen_aot/videos/S_yt-RHPOCG1mII0_138.mp4	0.0	122.69670701026917	2.5083558559417725
19	58.991106033325195	fix_post	2		12.0	17.0	2.5	/experiments/knapen_aot/videos/S_yt-RHPOCG1mII0_138.mp4	0.0	125.20506286621094	0.09997296333312988
20	59.091078996658325	fix_pre	0		70.0	18.0	2.5	/experiments/knapen_aot/videos/S_yt--koo4FOfZE0_86.mp4	0.0	125.30503582954407	0.5844011306762695
20	59.66615104675293	response	0	2		18.0	2.5	/experiments/knapen_aot/videos/S_yt--koo4FOfZE0_86.mp4	0.0	125.88010787963867	
20	59.675480127334595	movie	1		301.0	18.0	2.5	/experiments/knapen_aot/videos/S_yt--koo4FOfZE0_86.mp4	0.0	125.88943696022034	2.507251024246216
20	62.18273115158081	fix_post	2		12.0	18.0	2.5	/experiments/knapen_aot/videos/S_yt--koo4FOfZE0_86.mp4	0.0	128.39668798446655	0.10004496574401855
21	62.28277611732483	fix_pre	0		53.0	19.0	2.5	/experiments/knapen_aot/videos/S_yt-w5lh_rKyKtE_21.mp4	0.0	128.49673295021057	0.4415550231933594
21	62.71623396873474	response	0	2		19.0	2.5	/experiments/knapen_aot/videos/S_yt-w5lh_rKyKtE_21.mp4	0.0	128.93019080162048	
21	62.72433114051819	movie	1		301.0	19.0	2.5	/experiments/knapen_aot/videos/S_yt-w5lh_rKyKtE_21.mp4	0.0	128.93828797340393	2.508391857147217
21	65.2327229976654	fix_post	2		12.0	19.0	2.5	/experiments/knapen_aot/videos/S_yt-w5lh_rKyKtE_21.mp4	0.0	131.44667983055115	0.09998917579650879
22	65.33271217346191	fix_pre	0		37.0	20.0	2.5	/experiments/knapen_aot/videos/S_OdxWh1oU8e8_1.mp4	0.0	131.54666900634766	0.30835986137390137
22	65.63285708427429	response	0	2		20.0	2.5	/experiments/knapen_aot/videos/S_OdxWh1oU8e8_1.mp4	0.0	131.84681391716003	
22	65.64107203483582	movie	1		300.0	20.0	2.5	/experiments/knapen_aot/videos/S_OdxWh1oU8e8_1.mp4	0.0	131.85502886772156	2.5082781314849854
22	68.1493501663208	fix_post	2		12.0	20.0	2.5	/experiments/knapen_aot/videos/S_OdxWh1oU8e8_1.mp4	0.0	134.36330699920654	0.1000509262084961
23	68.2494010925293	fix_pre	0		50.0	21.0	2.5	blank	1.0	134.46335792541504	0.41662001609802246
23	68.6579020023346	response	0	2		21.0	2.5	blank	1.0	134.87185883522034	
23	68.66602110862732	movie	1		301.0	21.0	2.5	blank	1.0	134.87997794151306	2.508373975753784
23	70.79949903488159	response	1	2		21.0	2.5	blank	1.0	137.01345586776733	
23	71.1743950843811	fix_post	2		12.0	21.0	2.5	blank	1.0	137.38835191726685	0.09997296333312988
24	71.27436804771423	fix_pre	0		43.0	22.0	2.5	/experiments/knapen_aot/videos/S_yt-bmGWhOCsvJo_128.mp4	0.0	137.48832488059998	0.35933899879455566
24	71.62454319000244	response	0	2		22.0	2.5	/experiments/knapen_aot/videos/S_yt-bmGWhOCsvJo_128.mp4	0.0	137.83850002288818	
24	71.63370704650879	movie	1		297.0	22.0	2.5	/experiments/knapen_aot/videos/S_yt-bmGWhOCsvJo_128.mp4	0.0	137.84766387939453	2.5073459148406982
24	74.14105296134949	fix_post	2		12.0	22.0	2.5	/experiments/knapen_aot/videos/S_yt-bmGWhOCsvJo_128.mp4	0.0	140.35500979423523	0.09999418258666992
25	74.24104714393616	fix_pre	0		77.0	23.0	2.5	/experiments/knapen_aot/videos/R_S_yt-gDZnJCR2uXI_18.mp4	0.0	140.4550039768219	0.6426279544830322
25	74.87449717521667	response	0	2		23.0	2.5	/experiments/knapen_aot/videos/R_S_yt-gDZnJCR2uXI_18.mp4	0.0	141.08845400810242	
25	74.88367509841919	movie	1		301.0	23.0	2.5	/experiments/knapen_aot/videos/R_S_yt-gDZnJCR2uXI_18.mp4	0.0	141.09763193130493	2.507356882095337
25	77.39103198051453	fix_post	2		12.0	23.0	2.5	/experiments/knapen_aot/videos/R_S_yt-gDZnJCR2uXI_18.mp4	0.0	143.60498881340027	0.10002708435058594
26	77.49105906486511	fix_pre	0		55.0	24.0	2.5	/experiments/knapen_aot/videos/R_S_comp_A001_C004_1207W5_v23_SDR_FINAL_20180706_SDR_2K_AVC.mp4	0.0	143.70501589775085	0.45827198028564453
26	77.94117999076843	response	0	2		24.0	2.5	/experiments/knapen_aot/videos/R_S_comp_A001_C004_1207W5_v23_SDR_FINAL_20180706_SDR_2K_AVC.mp4	0.0	144.15513682365417	
26	77.94933104515076	movie	1		165.0	24.0	2.5	/experiments/knapen_aot/videos/R_S_comp_A001_C004_1207W5_v23_SDR_FINAL_20180706_SDR_2K_AVC.mp4	0.0	144.1632878780365	2.508347988128662
26	80.45767903327942	fix_post	2		12.0	24.0	2.5	/experiments/knapen_aot/videos/R_S_comp_A001_C004_1207W5_v23_SDR_FINAL_20180706_SDR_2K_AVC.mp4	0.0	146.67163586616516	0.09992003440856934
27	80.55759906768799	fix_pre	0		56.0	25.0	2.5	/experiments/knapen_aot/videos/R_S_yt-M8wvzt_BMXM_173.mp4	0.0	146.77155590057373	0.4667351245880127
27	81.01618003845215	response	0	2		25.0	2.5	/experiments/knapen_aot/videos/R_S_yt-M8wvzt_BMXM_173.mp4	0.0	147.2301368713379	
27	81.024334192276	movie	1		299.0	25.0	2.5	/experiments/knapen_aot/videos/R_S_yt-M8wvzt_BMXM_173.mp4	0.0	147.23829102516174	2.508340835571289
27	83.53267502784729	fix_post	2		12.0	25.0	2.5	/experiments/knapen_aot/videos/R_S_yt-M8wvzt_BMXM_173.mp4	0.0	149.74663186073303	0.09989595413208008
28	83.63257098197937	fix_pre	0		47.0	26.0	2.5	/experiments/knapen_aot/videos/R_S_yt-jcuaf9iSEkI_169.mp4	0.0	149.8465278148651	0.39171814918518066
28	84.0161120891571	response	0	2		26.0	2.5	/experiments/knapen_aot/videos/R_S_yt-jcuaf9iSEkI_169.mp4	0.0	150.23006892204285	
28	84.02428913116455	movie	1		301.0	26.0	2.5	/experiments/knapen_aot/videos/R_S_yt-jcuaf9iSEkI_169.mp4	0.0	150.2382459640503	2.5084078311920166
28	86.53269696235657	fix_post	2		12.0	26.0	2.5	/experiments/knapen_aot/videos/R_S_yt-jcuaf9iSEkI_169.mp4	0.0	152.7466537952423	0.09994316101074219
29	86.63264012336731	fix_pre	0		43.0	27.0	2.5	/experiments/knapen_aot/videos/S_ILSVRC2015_train_00396000.mp4	0.0	152.84659695625305	0.35835790634155273
29	86.98270416259766	response	0	2		27.0	2.5	/experiments/knapen_aot/videos/S_ILSVRC2015_train_00396000.mp4	0.0	153.1966609954834	
29	86.99099802970886	movie	1		301.0	27.0	2.5	/experiments/knapen_aot/videos/S_ILSVRC2015_train_00396000.mp4	0.0	153.2049548625946	2.5083119869232178
29	89.49931001663208	fix_post	2		12.0	27.0	2.5	/experiments/knapen_aot/videos/S_ILSVRC2015_train_00396000.mp4	0.0	155.71326684951782	0.10002398490905762
30	89.59933400154114	fix_pre	0		233.0	28.0	2.5	blank	1.0	155.81329083442688	1.941634178161621
30	91.53277015686035	response	0	2		28.0	2.5	blank	1.0	157.7467269897461	
30	91.54096817970276	movie	1		301.0	28.0	2.5	blank	1.0	157.7549250125885	2.508335828781128
30	94.04930400848389	fix_post	2		12.0	28.0	2.5	blank	1.0	160.26326084136963	0.09999203681945801
31	94.14929604530334	fix_pre	0		274.0	29.0	2.5	/experiments/knapen_aot/videos/R_S_yt-_zDYi2P-QxY_128.mp4	0.0	160.3632528781891	2.2832369804382324
31	96.4244110584259	response	0	2		29.0	2.5	/experiments/knapen_aot/videos/R_S_yt-_zDYi2P-QxY_128.mp4	0.0	162.63836789131165	
31	96.43253302574158	movie	1		301.0	29.0	2.5	/experiments/knapen_aot/videos/R_S_yt-_zDYi2P-QxY_128.mp4	0.0	162.64648985862732	2.5084710121154785
31	98.94100403785706	fix_post	2		12.0	29.0	2.5	/experiments/knapen_aot/videos/R_S_yt-_zDYi2P-QxY_128.mp4	0.0	165.1549608707428	0.09997701644897461
32	99.04098105430603	fix_pre	0		43.0	30.0	2.5	/experiments/knapen_aot/videos/S_yt-jQrMcUCmAaM_44.mp4	0.0	165.25493788719177	0.35819506645202637
32	99.39110898971558	response	0	2		30.0	2.5	/experiments/knapen_aot/videos/S_yt-jQrMcUCmAaM_44.mp4	0.0	165.60506582260132	
32	99.39917612075806	movie	1		301.0	30.0	2.5	/experiments/knapen_aot/videos/S_yt-jQrMcUCmAaM_44.mp4	0.0	165.6131329536438	2.5084588527679443
32	101.907634973526	fix_post	2		12.0	30.0	2.5	/experiments/knapen_aot/videos/S_yt-jQrMcUCmAaM_44.mp4	0.0	168.12159180641174	0.09995818138122559
33	102.00759315490723	fix_pre	0		29.0	31.0	2.5	/experiments/knapen_aot/videos/S_yt-Id-f63kUHsE_20.mp4	0.0	168.22154998779297	0.24167895317077637
33	102.24099612236023	response	0	2		31.0	2.5	/experiments/knapen_aot/videos/S_yt-Id-f63kUHsE_20.mp4	0.0	168.45495295524597	
33	102.249272108078	movie	1		301.0	31.0	2.5	/experiments/knapen_aot/videos/S_yt-Id-f63kUHsE_20.mp4	0.0	168.46322894096375	2.508328914642334
33	104.75760102272034	fix_post	2		12.0	31.0	2.5	/experiments/knapen_aot/videos/S_yt-Id-f63kUHsE_20.mp4	0.0	170.97155785560608	0.10011005401611328
34	104.85771107673645	fix_pre	0		38.0	32.0	2.5	/experiments/knapen_aot/videos/S_pexels-roman-odintsov-8232443_1.mp4	0.0	171.0716679096222	0.31733107566833496
34	105.16609811782837	response	0	2		32.0	2.5	/experiments/knapen_aot/videos/S_pexels-roman-odintsov-8232443_1.mp4	0.0	171.3800549507141	
34	105.17504215240479	movie	1		203.0	32.0	2.5	/experiments/knapen_aot/videos/S_pexels-roman-odintsov-8232443_1.mp4	0.0	171.38899898529053	2.5074989795684814
34	107.68254113197327	fix_post	2		12.0	32.0	2.5	/experiments/knapen_aot/videos/S_pexels-roman-odintsov-8232443_1.mp4	0.0	173.896497964859	0.10000395774841309
35	107.78254508972168	fix_pre	0		45.0	33.0	2.5	blank	1.0	173.99650192260742	0.3749990463256836
35	108.14181399345398	response	0	2		33.0	2.5	blank	1.0	174.35577082633972	
35	108.15754413604736	movie	1		301.0	33.0	2.5	blank	1.0	174.3715009689331	2.508342981338501
35	110.66588711738586	fix_post	2		12.0	33.0	2.5	blank	1.0	176.8798439502716	0.09997987747192383
36	110.76586699485779	fix_pre	0		39.0	34.0	2.5	/experiments/knapen_aot/videos/S_yt-jzDaQD-g168_103.mp4	0.0	176.97982382774353	0.3258180618286133
36	111.08266615867615	response	0	2		34.0	2.5	/experiments/knapen_aot/videos/S_yt-jzDaQD-g168_103.mp4	0.0	177.2966229915619	
36	111.0916850566864	movie	1		301.0	34.0	2.5	/experiments/knapen_aot/videos/S_yt-jzDaQD-g168_103.mp4	0.0	177.30564188957214	2.5074360370635986
36	113.59912109375	fix_post	2		12.0	34.0	2.5	/experiments/knapen_aot/videos/S_yt-jzDaQD-g168_103.mp4	0.0	179.81307792663574	0.10004806518554688
37	113.69916915893555	fix_pre	0		47.0	35.0	2.5	/experiments/knapen_aot/videos/R_S_wc-NzEeGIXLxvwp_19.mp4	0.0	179.9131259918213	0.39246582984924316
37	114.08268404006958	response	0	2		35.0	2.5	/experiments/knapen_aot/videos/R_S_wc-NzEeGIXLxvwp_19.mp4	0.0	180.29664087295532	
37	114.09163498878479	movie	1		164.0	35.0	2.5	/experiments/knapen_aot/videos/R_S_wc-NzEeGIXLxvwp_19.mp4	0.0	180.30559182167053	2.5075972080230713
37	116.59923219680786	fix_post	2		12.0	35.0	2.5	/experiments/knapen_aot/videos/R_S_wc-NzEeGIXLxvwp_19.mp4	0.0	182.8131890296936	0.0999748706817627
38	116.69920706748962	fix_pre	0		34.0	36.0	2.5	/experiments/knapen_aot/videos/R_S_ILSVRC2015_train_00517000.mp4	0.0	182.91316390037537	0.28336310386657715
38	116.97434997558594	response	0	2		36.0	2.5	/experiments/knapen_aot/videos/R_S_ILSVRC2015_train_00517000.mp4	0.0	183.18830680847168	
38	116.9825701713562	movie	1		300.0	36.0	2.5	/experiments/knapen_aot/videos/R_S_ILSVRC2015_train_00517000.mp4	0.0	183.19652700424194	2.50827693939209
38	119.49084711074829	fix_post	2		12.0	36.0	2.5	/experiments/knapen_aot/videos/R_S_ILSVRC2015_train_00517000.mp4	0.0	185.70480394363403	0.09995102882385254
39	119.59079813957214	fix_pre	0		101.0	37.0	2.5	/experiments/knapen_aot/videos/R_S_ILSVRC2015_train_00556000.mp4	0.0	185.80475497245789	0.8416378498077393
39	120.42433714866638	response	0	2		37.0	2.5	/experiments/knapen_aot/videos/R_S_ILSVRC2015_train_00556000.mp4	0.0	186.63829398155212	
39	120.43243598937988	movie	1		301.0	37.0	2.5	/experiments/knapen_aot/videos/R_S_ILSVRC2015_train_00556000.mp4	0.0	186.64639282226562	2.508450984954834
39	122.94088697433472	fix_post	2		12.0	37.0	2.5	/experiments/knapen_aot/videos/R_S_ILSVRC2015_train_00556000.mp4	0.0	189.15484380722046	0.1000070571899414
40	123.04089403152466	fix_pre	0		51.0	38.0	2.5	/experiments/knapen_aot/videos/R_S_flickr-csgzs-8144064966_10.mp4	0.0	189.2548508644104	0.42571496963500977
40	123.45772099494934	response	0	2		38.0	2.5	/experiments/knapen_aot/videos/R_S_flickr-csgzs-8144064966_10.mp4	0.0	189.67167782783508	
40	123.46660900115967	movie	1		301.0	38.0	2.5	/experiments/knapen_aot/videos/R_S_flickr-csgzs-8144064966_10.mp4	0.0	189.6805658340454	2.5076019763946533
40	125.97421097755432	fix_post	2		12.0	38.0	2.5	/experiments/knapen_aot/videos/R_S_flickr-csgzs-8144064966_10.mp4	0.0	192.18816781044006	0.09998703002929688
41	126.07419800758362	fix_pre	0		45.0	39.0	2.5	/experiments/knapen_aot/videos/R_S_pexels-koolshooters-7691440.mp4	0.0	192.28815484046936	0.37499213218688965
41	126.44100403785706	response	0	2		39.0	2.5	/experiments/knapen_aot/videos/R_S_pexels-koolshooters-7691440.mp4	0.0	192.6549608707428	
41	126.44919013977051	movie	1		168.0	39.0	2.5	/experiments/knapen_aot/videos/R_S_pexels-koolshooters-7691440.mp4	0.0	192.66314697265625	2.508288860321045
41	128.95747900009155	fix_post	2		12.0	39.0	2.5	/experiments/knapen_aot/videos/R_S_pexels-koolshooters-7691440.mp4	0.0	195.1714358329773	0.1000521183013916
42	129.05753111839294	fix_pre	0		35.0	40.0	2.5	/experiments/knapen_aot/videos/R_S_video_inspire_california_vineyard_sierra-mar_sunrise_110.1080-h264.mp4	0.0	195.2714879512787	0.2916450500488281
42	129.3409960269928	response	0	2		40.0	2.5	/experiments/knapen_aot/videos/R_S_video_inspire_california_vineyard_sierra-mar_sunrise_110.1080-h264.mp4	0.0	195.55495285987854	
42	129.34917616844177	movie	1		176.0	40.0	2.5	/experiments/knapen_aot/videos/R_S_video_inspire_california_vineyard_sierra-mar_sunrise_110.1080-h264.mp4	0.0	195.56313300132751	2.5083258152008057
42	131.85750198364258	fix_post	2		12.0	40.0	2.5	/experiments/knapen_aot/videos/R_S_video_inspire_california_vineyard_sierra-mar_sunrise_110.1080-h264.mp4	0.0	198.07145881652832	0.10000300407409668
43	131.95750498771667	fix_pre	0		51.0	41.0	2.5	/experiments/knapen_aot/videos/S_yt-_zDYi2P-QxY_128.mp4	0.0	198.17146182060242	0.4256150722503662
43	132.37427306175232	response	0	2		41.0	2.5	/experiments/knapen_aot/videos/S_yt-_zDYi2P-QxY_128.mp4	0.0	198.58822989463806	
43	132.38312005996704	movie	1		301.0	41.0	2.5	/experiments/knapen_aot/videos/S_yt-_zDYi2P-QxY_128.mp4	0.0	198.59707689285278	2.5076661109924316
43	134.89078617095947	fix_post	2		12.0	41.0	2.5	/experiments/knapen_aot/videos/S_yt-_zDYi2P-QxY_128.mp4	0.0	201.10474300384521	0.10002398490905762
44	134.99081015586853	fix_pre	0		28.0	42.0	2.5	blank	1.0	201.20476698875427	0.2333078384399414
44	135.2157940864563	response	0	2		42.0	2.5	blank	1.0	201.42975091934204	
44	135.22411799430847	movie	1		301.0	42.0	2.5	blank	1.0	201.4380748271942	2.5083611011505127
44	137.73247909545898	fix_post	2		12.0	42.0	2.5	blank	1.0	203.94643592834473	0.09995603561401367
45	137.832435131073	fix_pre	0		34.0	43.0	2.5	/experiments/knapen_aot/videos/S_yt-ayx4rU9bJrU_179.mp4	0.0	204.04639196395874	0.2832930088043213
45	138.10755705833435	response	0	2		43.0	2.5	/experiments/knapen_aot/videos/S_yt-ayx4rU9bJrU_179.mp4	0.0	204.3215138912201	
45	138.11572813987732	movie	1		301.0	43.0	2.5	/experiments/knapen_aot/videos/S_yt-ayx4rU9bJrU_179.mp4	0.0	204.32968497276306	2.508342981338501
45	140.62407112121582	fix_post	2		12.0	43.0	2.5	/experiments/knapen_aot/videos/S_yt-ayx4rU9bJrU_179.mp4	0.0	206.83802795410156	0.10007905960083008
46	140.72415018081665	fix_pre	0		109.0	44.0	2.5	/experiments/knapen_aot/videos/S_yt-11S5tcT2Tm0_254.mp4	0.0	206.9381070137024	0.9089198112487793
46	141.62424206733704	response	0	2		44.0	2.5	/experiments/knapen_aot/videos/S_yt-11S5tcT2Tm0_254.mp4	0.0	207.83819890022278	
46	141.63306999206543	movie	1		301.0	44.0	2.5	/experiments/knapen_aot/videos/S_yt-11S5tcT2Tm0_254.mp4	0.0	207.84702682495117	2.5076780319213867
46	144.14074802398682	fix_post	2		12.0	44.0	2.5	/experiments/knapen_aot/videos/S_yt-11S5tcT2Tm0_254.mp4	0.0	210.35470485687256	0.10000014305114746
47	144.24074816703796	fix_pre	0		47.0	45.0	2.5	/experiments/knapen_aot/videos/S_yt-Z0nfPTEEOLo_85.mp4	0.0	210.4547049999237	0.3922560214996338
47	144.62422800064087	response	0	2		45.0	2.5	/experiments/knapen_aot/videos/S_yt-Z0nfPTEEOLo_85.mp4	0.0	210.8381848335266	
47	144.6330041885376	movie	1		300.0	45.0	2.5	/experiments/knapen_aot/videos/S_yt-Z0nfPTEEOLo_85.mp4	0.0	210.84696102142334	2.507718801498413
47	147.140722990036	fix_post	2		12.0	45.0	2.5	/experiments/knapen_aot/videos/S_yt-Z0nfPTEEOLo_85.mp4	0.0	213.35467982292175	0.10003805160522461
48	147.24076104164124	fix_pre	0		60.0	46.0	2.5	/experiments/knapen_aot/videos/S_yt-2SVpSaBAxsw_78.mp4	0.0	213.45471787452698	0.4999420642852783
48	147.73259806632996	response	0	2		46.0	2.5	/experiments/knapen_aot/videos/S_yt-2SVpSaBAxsw_78.mp4	0.0	213.9465548992157	
48	147.7407031059265	movie	1		301.0	46.0	2.5	/experiments/knapen_aot/videos/S_yt-2SVpSaBAxsw_78.mp4	0.0	213.95465993881226	2.5084099769592285
48	150.24911308288574	fix_post	2		12.0	46.0	2.5	/experiments/knapen_aot/videos/S_yt-2SVpSaBAxsw_78.mp4	0.0	216.46306991577148	0.09994697570800781
49	150.34906005859375	fix_pre	0		35.0	47.0	2.5	blank	1.0	216.5630168914795	0.2916839122772217
49	150.63262915611267	response	0	2		47.0	2.5	blank	1.0	216.8465859889984	
49	150.64074397087097	movie	1		301.0	47.0	2.5	blank	1.0	216.8547008037567	2.5082850456237793
49	153.14902901649475	fix_post	2		12.0	47.0	2.5	blank	1.0	219.3629858493805	0.10006403923034668
50	153.2490930557251	fix_pre	0		49.0	48.0	2.5	/experiments/knapen_aot/videos/S_pexels-polina-tankilevitch-8203088.mp4	0.0	219.46304988861084	0.4083690643310547
50	153.64918303489685	response	0	2		48.0	2.5	/experiments/knapen_aot/videos/S_pexels-polina-tankilevitch-8203088.mp4	0.0	219.8631398677826	
50	153.65746212005615	movie	1		167.0	48.0	2.5	/experiments/knapen_aot/videos/S_pexels-polina-tankilevitch-8203088.mp4	0.0	219.8714189529419	2.5082359313964844
50	156.16569805145264	fix_post	2		12.0	48.0	2.5	/experiments/knapen_aot/videos/S_pexels-polina-tankilevitch-8203088.mp4	0.0	222.37965488433838	0.10006308555603027
51	156.26576113700867	fix_pre	0		29.0	49.0	2.5	/experiments/knapen_aot/videos/S_yt-tqxZlasEvZA_43.mp4	0.0	222.4797179698944	0.24218988418579102
51	156.49934315681458	response	0	2		49.0	2.5	/experiments/knapen_aot/videos/S_yt-tqxZlasEvZA_43.mp4	0.0	222.71329998970032	
51	156.50795102119446	movie	1		301.0	49.0	2.5	/experiments/knapen_aot/videos/S_yt-tqxZlasEvZA_43.mp4	0.0	222.7219078540802	2.507758140563965
51	159.01570916175842	fix_post	2		12.0	49.0	2.5	/experiments/knapen_aot/videos/S_yt-tqxZlasEvZA_43.mp4	0.0	225.22966599464417	0.10005402565002441
52	159.11576318740845	fix_pre	0		61.0	50.0	2.5	/experiments/knapen_aot/videos/R_S_wc-16LozRfhUGea_49.mp4	0.0	225.3297200202942	0.5083119869232178
52	159.61586213111877	response	0	2		50.0	2.5	/experiments/knapen_aot/videos/R_S_wc-16LozRfhUGea_49.mp4	0.0	225.82981896400452	
52	159.62407517433167	movie	1		301.0	50.0	2.5	/experiments/knapen_aot/videos/R_S_wc-16LozRfhUGea_49.mp4	0.0	225.8380320072174	2.5082638263702393
52	162.1323390007019	fix_post	2		12.0	50.0	2.5	/experiments/knapen_aot/videos/R_S_wc-16LozRfhUGea_49.mp4	0.0	228.34629583358765	0.10001897811889648
53	162.2323579788208	fix_pre	0		44.0	51.0	2.5	/experiments/knapen_aot/videos/R_S_wc-zkO_omg3nTvg_5.mp4	0.0	228.44631481170654	0.36661720275878906
53	162.5908350944519	response	0	2		51.0	2.5	/experiments/knapen_aot/videos/R_S_wc-zkO_omg3nTvg_5.mp4	0.0	228.80479192733765	
53	162.5989751815796	movie	1		166.0	51.0	2.5	/experiments/knapen_aot/videos/R_S_wc-zkO_omg3nTvg_5.mp4	0.0	228.81293201446533	2.5084118843078613
53	165.10738706588745	fix_post	2		12.0	51.0	2.5	/experiments/knapen_aot/videos/R_S_wc-zkO_omg3nTvg_5.mp4	0.0	231.3213438987732	0.09996509552001953
54	165.20735216140747	fix_pre	0		31.0	52.0	2.5	/experiments/knapen_aot/videos/S_yt-2XRGfGc0q44_37.mp4	0.0	231.4213089942932	0.2587778568267822
54	165.4574739933014	response	0	2		52.0	2.5	/experiments/knapen_aot/videos/S_yt-2XRGfGc0q44_37.mp4	0.0	231.67143082618713	
54	165.46613001823425	movie	1		301.0	52.0	2.5	/experiments/knapen_aot/videos/S_yt-2XRGfGc0q44_37.mp4	0.0	231.68008685112	2.5078840255737305
54	167.97401404380798	fix_post	2		12.0	52.0	2.5	/experiments/knapen_aot/videos/S_yt-2XRGfGc0q44_37.mp4	0.0	234.18797087669373	0.09993791580200195
55	168.07395195960999	fix_pre	0		22.0	53.0	2.5	/experiments/knapen_aot/videos/R_S_bing-www_msn_com_en-us_video_news_tommy-lasorda-salutes-national-league-champs_vp-AAtLThQ_4.mp4	0.0	234.28790879249573	0.18382811546325684
55	168.2491011619568	response	0	2		53.0	2.5	/experiments/knapen_aot/videos/R_S_bing-www_msn_com_en-us_video_news_tommy-lasorda-salutes-national-league-champs_vp-AAtLThQ_4.mp4	0.0	234.46305799484253	
55	168.25778007507324	movie	1		167.0	53.0	2.5	/experiments/knapen_aot/videos/R_S_bing-www_msn_com_en-us_video_news_tommy-lasorda-salutes-national-league-champs_vp-AAtLThQ_4.mp4	0.0	234.47173690795898	2.507812023162842
55	170.76559209823608	fix_post	2		12.0	53.0	2.5	/experiments/knapen_aot/videos/R_S_bing-www_msn_com_en-us_video_news_tommy-lasorda-salutes-national-league-champs_vp-AAtLThQ_4.mp4	0.0	236.97954893112183	0.10009407997131348
56	170.8656861782074	fix_pre	0		19.0	54.0	2.5	/experiments/knapen_aot/videos/R_S_flickr-southeasternstar-3464778323_10.mp4	0.0	237.07964301109314	0.15825295448303223
56	171.01577711105347	response	0	2		54.0	2.5	/experiments/knapen_aot/videos/R_S_flickr-southeasternstar-3464778323_10.mp4	0.0	237.2297339439392	
56	171.02393913269043	movie	1		301.0	54.0	2.5	/experiments/knapen_aot/videos/R_S_flickr-southeasternstar-3464778323_10.mp4	0.0	237.23789596557617	2.5082950592041016
56	173.53223419189453	fix_post	2		12.0	54.0	2.5	/experiments/knapen_aot/videos/R_S_flickr-southeasternstar-3464778323_10.mp4	0.0	239.74619102478027	0.10059785842895508
57	173.6328320503235	fix_pre	0		54.0	55.0	2.5	/experiments/knapen_aot/videos/R_S_yt-8gCfc-o3pyk_85.mp4	0.0	239.84678888320923	0.4494619369506836
57	174.07412600517273	response	0	2		55.0	2.5	/experiments/knapen_aot/videos/R_S_yt-8gCfc-o3pyk_85.mp4	0.0	240.28808283805847	
57	174.08229398727417	movie	1		301.0	55.0	2.5	/experiments/knapen_aot/videos/R_S_yt-8gCfc-o3pyk_85.mp4	0.0	240.2962508201599	2.508350133895874
57	176.59064412117004	fix_post	2		12.0	55.0	2.5	/experiments/knapen_aot/videos/R_S_yt-8gCfc-o3pyk_85.mp4	0.0	242.8046009540558	0.09999704360961914
58	176.69064116477966	fix_pre	0		51.0	56.0	2.5	blank	1.0	242.9045979976654	0.42502379417419434
58	177.10741806030273	response	0	2		56.0	2.5	blank	1.0	243.32137489318848	
58	177.11566495895386	movie	1		301.0	56.0	2.5	blank	1.0	243.3296217918396	2.508303165435791
58	179.62396812438965	fix_post	2		12.0	56.0	2.5	blank	1.0	245.8379249572754	0.09990096092224121
59	179.7238690853119	fix_pre	0		62.0	57.0	2.5	/experiments/knapen_aot/videos/S_ILSVRC2015_train_00517000.mp4	0.0	245.93782591819763	0.5167310237884521
59	180.232360124588	response	0	2		57.0	2.5	/experiments/knapen_aot/videos/S_ILSVRC2015_train_00517000.mp4	0.0	246.44631695747375	
59	180.24060010910034	movie	1		301.0	57.0	2.5	/experiments/knapen_aot/videos/S_ILSVRC2015_train_00517000.mp4	0.0	246.45455694198608	2.5082690715789795
59	182.74886918067932	fix_post	2		12.0	57.0	2.5	/experiments/knapen_aot/videos/S_ILSVRC2015_train_00517000.mp4	0.0	248.96282601356506	0.10014700889587402
60	182.8490161895752	fix_pre	0		46.0	58.0	2.5	/experiments/knapen_aot/videos/R_S_yt-_HuBzj8EPBc_62.mp4	0.0	249.06297302246094	0.38323187828063965
60	183.224112033844	response	0	2		58.0	2.5	/experiments/knapen_aot/videos/R_S_yt-_HuBzj8EPBc_62.mp4	0.0	249.43806886672974	
60	183.23224806785583	movie	1		299.0	58.0	2.5	/experiments/knapen_aot/videos/R_S_yt-_HuBzj8EPBc_62.mp4	0.0	249.44620490074158	2.5083649158477783
60	185.7406129837036	fix_post	2		12.0	58.0	2.5	/experiments/knapen_aot/videos/R_S_yt-_HuBzj8EPBc_62.mp4	0.0	251.95456981658936	0.10006213188171387
61	185.84067511558533	fix_pre	0		68.0	59.0	2.5	/experiments/knapen_aot/videos/S_yt-mHLTJkMrkZI_143.mp4	0.0	252.05463194847107	0.5665919780731201
61	186.39905619621277	response	0	2		59.0	2.5	/experiments/knapen_aot/videos/S_yt-mHLTJkMrkZI_143.mp4	0.0	252.6130130290985	
61	186.40726709365845	movie	1		301.0	59.0	2.5	/experiments/knapen_aot/videos/S_yt-mHLTJkMrkZI_143.mp4	0.0	252.6212239265442	2.5083658695220947
61	188.91563296318054	fix_post	2		12.0	59.0	2.5	/experiments/knapen_aot/videos/S_yt-mHLTJkMrkZI_143.mp4	0.0	255.12958979606628	0.09995007514953613
62	189.01558303833008	fix_pre	0		56.0	60.0	2.5	/experiments/knapen_aot/videos/R_S_yt-2cwARrUMj40_67.mp4	0.0	255.22953987121582	0.4666249752044678
62	189.47404503822327	response	0	2		60.0	2.5	/experiments/knapen_aot/videos/R_S_yt-2cwARrUMj40_67.mp4	0.0	255.688001871109	
62	189.48220801353455	movie	1		301.0	60.0	2.5	/experiments/knapen_aot/videos/R_S_yt-2cwARrUMj40_67.mp4	0.0	255.6961648464203	2.5084071159362793
62	191.99061512947083	fix_post	2		12.0	60.0	2.5	/experiments/knapen_aot/videos/R_S_yt-2cwARrUMj40_67.mp4	0.0	258.20457196235657	0.09996199607849121
63	192.09057712554932	fix_pre	0		49.0	61.0	2.5	/experiments/knapen_aot/videos/S_ILSVRC2015_train_00066005.mp4	0.0	258.30453395843506	0.4082779884338379
63	192.4906611442566	response	0	2		61.0	2.5	/experiments/knapen_aot/videos/S_ILSVRC2015_train_00066005.mp4	0.0	258.70461797714233	
63	192.49885511398315	movie	1		300.0	61.0	2.5	/experiments/knapen_aot/videos/S_ILSVRC2015_train_00066005.mp4	0.0	258.7128119468689	2.508394956588745
63	195.0072500705719	fix_post	2		12.0	61.0	2.5	/experiments/knapen_aot/videos/S_ILSVRC2015_train_00066005.mp4	0.0	261.22120690345764	0.09987592697143555
64	195.10712599754333	fix_pre	0		38.0	62.0	2.5	blank	1.0	261.3210828304291	0.3171350955963135
64	195.41571617126465	response	0	2		62.0	2.5	blank	1.0	261.6296730041504	
64	195.42426109313965	movie	1		301.0	62.0	2.5	blank	1.0	261.6382179260254	2.507966995239258
64	197.9322280883789	fix_post	2		12.0	62.0	2.5	blank	1.0	264.14618492126465	0.10001397132873535
65	198.03224205970764	fix_pre	0		521.0	63.0	2.5	/experiments/knapen_aot/videos/S_yt-lADkWM79teI_18.mp4	0.0	264.2461988925934	4.341572046279907
65	202.3655881881714	response	0	2		63.0	2.5	/experiments/knapen_aot/videos/S_yt-lADkWM79teI_18.mp4	0.0	268.57954502105713	
65	202.37381410598755	movie	1		301.0	63.0	2.5	/experiments/knapen_aot/videos/S_yt-lADkWM79teI_18.mp4	0.0	268.5877709388733	2.5083279609680176
65	204.88214206695557	fix_post	2		12.0	63.0	2.5	/experiments/knapen_aot/videos/S_yt-lADkWM79teI_18.mp4	0.0	271.0960988998413	0.09999203681945801
66	204.98213410377502	fix_pre	0		49.0	64.0	2.5	/experiments/knapen_aot/videos/R_S_yt-11S5tcT2Tm0_254.mp4	0.0	271.19609093666077	0.40834808349609375
66	205.38232612609863	response	0	2		64.0	2.5	/experiments/knapen_aot/videos/R_S_yt-11S5tcT2Tm0_254.mp4	0.0	271.5962829589844	
66	205.39048218727112	movie	1		301.0	64.0	2.5	/experiments/knapen_aot/videos/R_S_yt-11S5tcT2Tm0_254.mp4	0.0	271.60443902015686	2.508293867111206
66	207.89877605438232	fix_post	2		12.0	64.0	2.5	/experiments/knapen_aot/videos/R_S_yt-11S5tcT2Tm0_254.mp4	0.0	274.11273288726807	0.10003900527954102
67	207.99881505966187	fix_pre	0		38.0	65.0	2.5	/experiments/knapen_aot/videos/R_S_yt-9qXwehMoX7o_50.mp4	0.0	274.2127718925476	0.3167381286621094
67	208.30727410316467	response	0	2		65.0	2.5	/experiments/knapen_aot/videos/R_S_yt-9qXwehMoX7o_50.mp4	0.0	274.5212309360504	
67	208.31555318832397	movie	1		301.0	65.0	2.5	/experiments/knapen_aot/videos/R_S_yt-9qXwehMoX7o_50.mp4	0.0	274.5295100212097	2.508297920227051
67	210.82385110855103	fix_post	2		12.0	65.0	2.5	/experiments/knapen_aot/videos/R_S_yt-9qXwehMoX7o_50.mp4	0.0	277.03780794143677	0.10027003288269043
68	210.92412114143372	fix_pre	0		29.0	66.0	2.5	/experiments/knapen_aot/videos/S_bing-www_nytimes_com_video_dining_1247468118505_grilled-chicken-breasts-with-herb-butter_html_132.mp4	0.0	277.13807797431946	0.24136090278625488
68	211.15728998184204	response	0	2		66.0	2.5	/experiments/knapen_aot/videos/S_bing-www_nytimes_com_video_dining_1247468118505_grilled-chicken-breasts-with-herb-butter_html_132.mp4	0.0	277.3712468147278	
68	211.16548204421997	movie	1		166.0	66.0	2.5	/experiments/knapen_aot/videos/S_bing-www_nytimes_com_video_dining_1247468118505_grilled-chicken-breasts-with-herb-butter_html_132.mp4	0.0	277.3794388771057	2.508336067199707
68	213.67381811141968	fix_post	2		12.0	66.0	2.5	/experiments/knapen_aot/videos/S_bing-www_nytimes_com_video_dining_1247468118505_grilled-chicken-breasts-with-herb-butter_html_132.mp4	0.0	279.8877749443054	0.0999748706817627
69	213.77379298210144	fix_pre	0		68.0	67.0	2.5	/experiments/knapen_aot/videos/R_S_yt-_zDYi2P-QxY_128.mp4	0.0	279.9877498149872	0.566910982131958
69	214.33224511146545	response	0	2		67.0	2.5	/experiments/knapen_aot/videos/R_S_yt-_zDYi2P-QxY_128.mp4	0.0	280.5462019443512	
69	214.3407039642334	movie	1		301.0	67.0	2.5	/experiments/knapen_aot/videos/R_S_yt-_zDYi2P-QxY_128.mp4	0.0	280.55466079711914	2.5080912113189697
69	216.84879517555237	fix_post	2		12.0	67.0	2.5	/experiments/knapen_aot/videos/R_S_yt-_zDYi2P-QxY_128.mp4	0.0	283.0627520084381	0.10003995895385742
70	216.94883513450623	fix_pre	0		37.0	68.0	2.5	/experiments/knapen_aot/videos/R_S_yt-Uv0dt_-fWJU_40.mp4	0.0	283.16279196739197	0.3085620403289795
70	217.24164009094238	response	0	2		68.0	2.5	/experiments/knapen_aot/videos/R_S_yt-Uv0dt_-fWJU_40.mp4	0.0	283.4555969238281	
70	217.2573971748352	movie	1		301.0	68.0	2.5	/experiments/knapen_aot/videos/R_S_yt-Uv0dt_-fWJU_40.mp4	0.0	283.47135400772095	2.508070945739746
70	219.76546812057495	fix_post	2		12.0	68.0	2.5	/experiments/knapen_aot/videos/R_S_yt-Uv0dt_-fWJU_40.mp4	0.0	285.9794249534607	0.09996795654296875
71	219.86543607711792	fix_pre	0		44.0	69.0	2.5	/experiments/knapen_aot/videos/R_S_yt-8gCfc-o3pyk_85.mp4	0.0	286.07939291000366	0.3666510581970215
71	220.2239100933075	response	0	2		69.0	2.5	/experiments/knapen_aot/videos/R_S_yt-8gCfc-o3pyk_85.mp4	0.0	286.43786692619324	
71	220.23208713531494	movie	1		299.0	69.0	2.5	/experiments/knapen_aot/videos/R_S_yt-8gCfc-o3pyk_85.mp4	0.0	286.4460439682007	2.5083060264587402
71	222.74039316177368	fix_post	2		12.0	69.0	2.5	/experiments/knapen_aot/videos/R_S_yt-8gCfc-o3pyk_85.mp4	0.0	288.9543499946594	0.1002810001373291
72	222.840674161911	fix_pre	0		49.0	70.0	2.5	blank	1.0	289.05463099479675	0.40805697441101074
72	223.2406041622162	response	0	2		70.0	2.5	blank	1.0	289.45456099510193	
72	223.24873113632202	movie	1		301.0	70.0	2.5	blank	1.0	289.46268796920776	2.508441925048828
72	225.75717306137085	fix_post	2		12.0	70.0	2.5	blank	1.0	291.9711298942566	0.09989809989929199
73	225.85707116127014	fix_pre	0		37.0	71.0	2.5	/experiments/knapen_aot/videos/R_S_yt-WhQMF3WM0Ig_29.mp4	0.0	292.0710279941559	0.3082900047302246
73	226.15724515914917	response	0	2		71.0	2.5	/experiments/knapen_aot/videos/R_S_yt-WhQMF3WM0Ig_29.mp4	0.0	292.3712019920349	
73	226.16536116600037	movie	1		301.0	71.0	2.5	/experiments/knapen_aot/videos/R_S_yt-WhQMF3WM0Ig_29.mp4	0.0	292.3793179988861	2.5085229873657227
73	228.6738841533661	fix_post	2		12.0	71.0	2.5	/experiments/knapen_aot/videos/R_S_yt-WhQMF3WM0Ig_29.mp4	0.0	294.88784098625183	0.09984898567199707
74	228.7737331390381	fix_pre	0		30.0	72.0	2.5	/experiments/knapen_aot/videos/R_S_pexels-rodnae-productions-5993237.mp4	0.0	294.9876899719238	0.2499709129333496
74	229.0155529975891	response	0	2		72.0	2.5	/experiments/knapen_aot/videos/R_S_pexels-rodnae-productions-5993237.mp4	0.0	295.22950983047485	
74	229.02370405197144	movie	1		168.0	72.0	2.5	/experiments/knapen_aot/videos/R_S_pexels-rodnae-productions-5993237.mp4	0.0	295.2376608848572	2.5083680152893066
74	231.53207206726074	fix_post	2		12.0	72.0	2.5	/experiments/knapen_aot/videos/R_S_pexels-rodnae-productions-5993237.mp4	0.0	297.7460289001465	0.10015106201171875
75	231.63222312927246	fix_pre	0		24.0	73.0	2.5	/experiments/knapen_aot/videos/S_yt-Z0nfPTEEOLo_85.mp4	0.0	297.8461799621582	0.1997969150543213
75	231.8238730430603	response	0	2		73.0	2.5	/experiments/knapen_aot/videos/S_yt-Z0nfPTEEOLo_85.mp4	0.0	298.03782987594604	
75	231.83202004432678	movie	1		301.0	73.0	2.5	/experiments/knapen_aot/videos/S_yt-Z0nfPTEEOLo_85.mp4	0.0	298.0459768772125	2.5083789825439453
75	234.34039902687073	fix_post	2		12.0	73.0	2.5	/experiments/knapen_aot/videos/S_yt-Z0nfPTEEOLo_85.mp4	0.0	300.55435585975647	0.09998416900634766
76	234.44038319587708	fix_pre	0		89.0	74.0	2.5	/experiments/knapen_aot/videos/S_yt-r7PeFd-hIp0_378.mp4	0.0	300.6543400287628	0.7416927814483643
76	235.17385816574097	response	0	2		74.0	2.5	/experiments/knapen_aot/videos/S_yt-r7PeFd-hIp0_378.mp4	0.0	301.3878149986267	
76	235.18207597732544	movie	1		301.0	74.0	2.5	/experiments/knapen_aot/videos/S_yt-r7PeFd-hIp0_378.mp4	0.0	301.3960328102112	2.5081870555877686
76	237.6902630329132	fix_post	2		12.0	74.0	2.5	/experiments/knapen_aot/videos/S_yt-r7PeFd-hIp0_378.mp4	0.0	303.90421986579895	0.10011911392211914
77	237.79038214683533	fix_pre	0		62.0	75.0	2.5	/experiments/knapen_aot/videos/S_yt-Xs7TCzdnUJQ_79.mp4	0.0	304.00433897972107	0.5166430473327637
77	238.29885911941528	response	0	2		75.0	2.5	/experiments/knapen_aot/videos/S_yt-Xs7TCzdnUJQ_79.mp4	0.0	304.512815952301	
77	238.3070251941681	movie	1		301.0	75.0	2.5	/experiments/knapen_aot/videos/S_yt-Xs7TCzdnUJQ_79.mp4	0.0	304.52098202705383	2.508319854736328
77	240.81534504890442	fix_post	2		12.0	75.0	2.5	/experiments/knapen_aot/videos/S_yt-Xs7TCzdnUJQ_79.mp4	0.0	307.02930188179016	0.09994101524353027
78	240.91528606414795	fix_pre	0		249.0	76.0	2.5	/experiments/knapen_aot/videos/R_S_yt-QTGIhecBZjc_19.mp4	0.0	307.1292428970337	2.0750679969787598
78	242.9821650981903	response	0	2		76.0	2.5	/experiments/knapen_aot/videos/R_S_yt-QTGIhecBZjc_19.mp4	0.0	309.19612193107605	
78	242.9903540611267	movie	1		301.0	76.0	2.5	/experiments/knapen_aot/videos/R_S_yt-QTGIhecBZjc_19.mp4	0.0	309.20431089401245	2.508301019668579
78	245.4986550807953	fix_post	2		12.0	76.0	2.5	/experiments/knapen_aot/videos/R_S_yt-QTGIhecBZjc_19.mp4	0.0	311.71261191368103	0.10003304481506348
79	245.59868812561035	fix_pre	0		44.0	77.0	2.5	blank	1.0	311.8126449584961	0.36682701110839844
79	245.94963097572327	response	0	2		77.0	2.5	blank	1.0	312.163587808609	
79	245.96551513671875	movie	1		301.0	77.0	2.5	blank	1.0	312.1794719696045	2.5081639289855957
79	248.47367906570435	fix_post	2		12.0	77.0	2.5	blank	1.0	314.6876358985901	0.09993696212768555
80	248.57361602783203	fix_pre	0		30.0	78.0	2.5	/experiments/knapen_aot/videos/R_S_yt-1uk2k3PnTNw_37.0.mp4	0.0	314.7875728607178	0.250014066696167
80	248.8154649734497	response	0	2		78.0	2.5	/experiments/knapen_aot/videos/R_S_yt-1uk2k3PnTNw_37.0.mp4	0.0	315.02942180633545	
80	248.8236300945282	movie	1		300.0	78.0	2.5	/experiments/knapen_aot/videos/R_S_yt-1uk2k3PnTNw_37.0.mp4	0.0	315.03758692741394	2.508359909057617
80	251.33199000358582	fix_post	2		12.0	78.0	2.5	/experiments/knapen_aot/videos/R_S_yt-1uk2k3PnTNw_37.0.mp4	0.0	317.54594683647156	0.09997415542602539
81	251.43196415901184	fix_pre	0		46.0	79.0	2.5	/experiments/knapen_aot/videos/S_video_inspire_california_big-sur_bixby_005.1080-h264.mp4	0.0	317.6459209918976	0.38327503204345703
81	251.80707907676697	response	0	2		79.0	2.5	/experiments/knapen_aot/videos/S_video_inspire_california_big-sur_bixby_005.1080-h264.mp4	0.0	318.0210359096527	
81	251.8152391910553	movie	1		168.0	79.0	2.5	/experiments/knapen_aot/videos/S_video_inspire_california_big-sur_bixby_005.1080-h264.mp4	0.0	318.02919602394104	2.508436918258667
81	254.32367610931396	fix_post	2		12.0	79.0	2.5	/experiments/knapen_aot/videos/S_video_inspire_california_big-sur_bixby_005.1080-h264.mp4	0.0	320.5376329421997	0.10002708435058594
82	254.42370319366455	fix_pre	0		34.0	80.0	2.5	/experiments/knapen_aot/videos/R_S_yt-tqxZlasEvZA_43.mp4	0.0	320.6376600265503	0.2832329273223877
82	254.69877004623413	response	0	2		80.0	2.5	/experiments/knapen_aot/videos/R_S_yt-tqxZlasEvZA_43.mp4	0.0	320.9127268791199	
82	254.70693612098694	movie	1		301.0	80.0	2.5	/experiments/knapen_aot/videos/R_S_yt-tqxZlasEvZA_43.mp4	0.0	320.9208929538727	2.5084190368652344
82	257.2153551578522	fix_post	2		12.0	80.0	2.5	/experiments/knapen_aot/videos/R_S_yt-tqxZlasEvZA_43.mp4	0.0	323.4293119907379	0.09989786148071289
83	257.3152530193329	fix_pre	0		23.0	81.0	2.5	/experiments/knapen_aot/videos/R_S_yt-pO5SVq-9EhU_114.mp4	0.0	323.5292098522186	0.1917731761932373
83	257.49870896339417	response	0	2		81.0	2.5	/experiments/knapen_aot/videos/R_S_yt-pO5SVq-9EhU_114.mp4	0.0	323.7126657962799	
83	257.5070261955261	movie	1		299.0	81.0	2.5	/experiments/knapen_aot/videos/R_S_yt-pO5SVq-9EhU_114.mp4	0.0	323.72098302841187	2.508258819580078
83	260.0152850151062	fix_post	2		12.0	81.0	2.5	/experiments/knapen_aot/videos/R_S_yt-pO5SVq-9EhU_114.mp4	0.0	326.22924184799194	0.10000801086425781
84	260.11529302597046	fix_pre	0		35.0	82.0	2.5	blank	1.0	326.3292498588562	0.29162001609802246
84	260.3988091945648	response	0	2		82.0	2.5	blank	1.0	326.61276602745056	
84	260.4069130420685	movie	1		301.0	82.0	2.5	blank	1.0	326.6208698749542	2.50838303565979
84	262.91529607772827	fix_post	2		12.0	82.0	2.5	blank	1.0	329.129252910614	0.09999299049377441
85	263.01528906822205	fix_pre	0		63.0	83.0	2.5	/experiments/knapen_aot/videos/S_yt-s-J3C6e5A3Q_18.mp4	0.0	329.2292459011078	0.5248920917510986
85	263.53203797340393	response	0	2		83.0	2.5	/experiments/knapen_aot/videos/S_yt-s-J3C6e5A3Q_18.mp4	0.0	329.7459948062897	
85	263.54018115997314	movie	1		301.0	83.0	2.5	/experiments/knapen_aot/videos/S_yt-s-J3C6e5A3Q_18.mp4	0.0	329.7541379928589	2.508415937423706
85	266.04859709739685	fix_post	2		12.0	83.0	2.5	/experiments/knapen_aot/videos/S_yt-s-J3C6e5A3Q_18.mp4	0.0	332.2625539302826	0.10003995895385742
87	266.1486370563507	stim	0		520.0					332.36259388923645	4.337431907653809
87	266.5154011249542	response	0	2						332.72935795783997	
87	270.47758197784424	response	0	space						336.69153881073	
