trial_nr	onset	event_type	phase	response	nr_frames	movie_index	movie_duration	movie_file	blank	onset_abs	duration
0	0.13332295417785645	stim	0		13.0					111.1483428478241	0.10830497741699219
0	0.2262439727783203	response	0	space						111.24126386642456	
1	0.24162793159484863	stim	0		121.0					111.25664782524109	1.0082740783691406
1	1.2499020099639893	stim	1		120.0					112.26492190361023	0.9996960163116455
1	1.3917059898376465	response	1	space						112.40672588348389	
1	2.1830830574035645	response	1	space						113.1981029510498	
2	2.2495980262756348	fix_pre	0		31.0	0.0	2.5	/experiments/knapen_aot/videos/R_S_yt-ZBhTpmrAlUY_70.mp4	0.0	113.26461791992188	0.2583780288696289
2	2.4997611045837402	response	0	space		0.0	2.5	/experiments/knapen_aot/videos/R_S_yt-ZBhTpmrAlUY_70.mp4	0.0	113.51478099822998	
2	2.5079760551452637	movie	1		301.0	0.0	2.5	/experiments/knapen_aot/videos/R_S_yt-ZBhTpmrAlUY_70.mp4	0.0	113.5229959487915	2.5083539485931396
2	5.016330003738403	fix_post	2		12.0	0.0	2.5	/experiments/knapen_aot/videos/R_S_yt-ZBhTpmrAlUY_70.mp4	0.0	116.03134989738464	0.10000109672546387
3	5.116331100463867	fix_pre	0		36.0	1.0	2.5	/experiments/knapen_aot/videos/R_S_yt--_ZMybcaUOw_254.mp4	0.0	116.13135099411011	0.3036658763885498
3	5.4112629890441895	response	0	2		1.0	2.5	/experiments/knapen_aot/videos/R_S_yt--_ZMybcaUOw_254.mp4	0.0	116.42628288269043	
3	5.419996976852417	movie	1		301.0	1.0	2.5	/experiments/knapen_aot/videos/R_S_yt--_ZMybcaUOw_254.mp4	0.0	116.43501687049866	2.5047390460968018
3	7.924736022949219	fix_post	2		12.0	1.0	2.5	/experiments/knapen_aot/videos/R_S_yt--_ZMybcaUOw_254.mp4	0.0	118.93975591659546	0.09993195533752441
4	8.024667978286743	fix_pre	0		138.0	2.0	2.5	/experiments/knapen_aot/videos/S_yt-mdLT282PVbE_6.mp4	0.0	119.03968787193298	1.1499180793762207
4	9.166428089141846	response	0	2		2.0	2.5	/experiments/knapen_aot/videos/S_yt-mdLT282PVbE_6.mp4	0.0	120.18144798278809	
4	9.174586057662964	movie	1		301.0	2.0	2.5	/experiments/knapen_aot/videos/S_yt-mdLT282PVbE_6.mp4	0.0	120.1896059513092	2.508478879928589
4	11.683064937591553	fix_post	2		12.0	2.0	2.5	/experiments/knapen_aot/videos/S_yt-mdLT282PVbE_6.mp4	0.0	122.6980848312378	0.09990119934082031
5	11.782966136932373	fix_pre	0		31.0	3.0	2.5	/experiments/knapen_aot/videos/R_S_ILSVRC2015_train_00219003.mp4	0.0	122.79798603057861	0.25835084915161133
5	12.03302001953125	response	0	2		3.0	2.5	/experiments/knapen_aot/videos/R_S_ILSVRC2015_train_00219003.mp4	0.0	123.04803991317749	
5	12.041316986083984	movie	1		301.0	3.0	2.5	/experiments/knapen_aot/videos/R_S_ILSVRC2015_train_00219003.mp4	0.0	123.05633687973022	2.508358955383301
5	14.549675941467285	fix_post	2		12.0	3.0	2.5	/experiments/knapen_aot/videos/R_S_ILSVRC2015_train_00219003.mp4	0.0	125.56469583511353	0.09994220733642578
6	14.649618148803711	fix_pre	0		39.0	4.0	2.5	/experiments/knapen_aot/videos/R_S_yt-deiWoIfK6vg_44.mp4	0.0	125.66463804244995	0.3259708881378174
6	14.966437101364136	response	0	2		4.0	2.5	/experiments/knapen_aot/videos/R_S_yt-deiWoIfK6vg_44.mp4	0.0	125.98145699501038	
6	14.975589036941528	movie	1		301.0	4.0	2.5	/experiments/knapen_aot/videos/R_S_yt-deiWoIfK6vg_44.mp4	0.0	125.99060893058777	2.507427930831909
6	17.483016967773438	fix_post	2		12.0	4.0	2.5	/experiments/knapen_aot/videos/R_S_yt-deiWoIfK6vg_44.mp4	0.0	128.49803686141968	0.1000370979309082
7	17.583054065704346	fix_pre	0		30.0	5.0	2.5	/experiments/knapen_aot/videos/S_I004_C014_SDR_2K_AVC.mp4	0.0	128.5980739593506	0.24992990493774414
7	17.824788093566895	response	0	2		5.0	2.5	/experiments/knapen_aot/videos/S_I004_C014_SDR_2K_AVC.mp4	0.0	128.83980798721313	
7	17.83298397064209	movie	1		167.0	5.0	2.5	/experiments/knapen_aot/videos/S_I004_C014_SDR_2K_AVC.mp4	0.0	128.84800386428833	2.5082640647888184
7	20.341248035430908	fix_post	2		12.0	5.0	2.5	/experiments/knapen_aot/videos/S_I004_C014_SDR_2K_AVC.mp4	0.0	131.35626792907715	0.10003399848937988
8	20.441282033920288	fix_pre	0		19.0	6.0	2.5	/experiments/knapen_aot/videos/S_yt-kxWtOXNIsRA_329.mp4	0.0	131.45630192756653	0.15910911560058594
8	20.591283082962036	response	0	2		6.0	2.5	/experiments/knapen_aot/videos/S_yt-kxWtOXNIsRA_329.mp4	0.0	131.60630297660828	
8	20.600391149520874	movie	1		301.0	6.0	2.5	/experiments/knapen_aot/videos/S_yt-kxWtOXNIsRA_329.mp4	0.0	131.61541104316711	2.5076208114624023
8	23.108011960983276	fix_post	2		12.0	6.0	2.5	/experiments/knapen_aot/videos/S_yt-kxWtOXNIsRA_329.mp4	0.0	134.12303185462952	0.09994316101074219
9	23.20795512199402	fix_pre	0		24.0	7.0	2.5	blank	1.0	134.22297501564026	0.1999800205230713
9	23.399758100509644	response	0	2		7.0	2.5	blank	1.0	134.41477799415588	
9	23.40793514251709	movie	1		301.0	7.0	2.5	blank	1.0	134.42295503616333	2.508328914642334
9	25.916264057159424	fix_post	2		12.0	7.0	2.5	blank	1.0	136.93128395080566	0.1000208854675293
10	26.016284942626953	fix_pre	0		47.0	8.0	2.5	/experiments/knapen_aot/videos/R_S_yt-nfDPFHUDq8g_136.mp4	0.0	137.0313048362732	0.3915719985961914
10	26.39223313331604	response	0	2		8.0	2.5	/experiments/knapen_aot/videos/R_S_yt-nfDPFHUDq8g_136.mp4	0.0	137.40725302696228	
10	26.407856941223145	movie	1		301.0	8.0	2.5	/experiments/knapen_aot/videos/R_S_yt-nfDPFHUDq8g_136.mp4	0.0	137.42287683486938	2.5084290504455566
10	28.9162859916687	fix_post	2		12.0	8.0	2.5	/experiments/knapen_aot/videos/R_S_yt-nfDPFHUDq8g_136.mp4	0.0	139.93130588531494	0.10094094276428223
11	29.017226934432983	fix_pre	0		19.0	9.0	2.5	/experiments/knapen_aot/videos/R_S_yt-IC62JSYpq9w_71.mp4	0.0	140.03224682807922	0.15733718872070312
11	29.166351079940796	response	0	2		9.0	2.5	/experiments/knapen_aot/videos/R_S_yt-IC62JSYpq9w_71.mp4	0.0	140.18137097358704	
11	29.174564123153687	movie	1		301.0	9.0	2.5	/experiments/knapen_aot/videos/R_S_yt-IC62JSYpq9w_71.mp4	0.0	140.18958401679993	2.5085408687591553
11	31.683104991912842	fix_post	2		12.0	9.0	2.5	/experiments/knapen_aot/videos/R_S_yt-IC62JSYpq9w_71.mp4	0.0	142.69812488555908	0.09979796409606934
12	31.78290295600891	fix_pre	0		80.0	10.0	2.5	/experiments/knapen_aot/videos/R_S_yt-fryIS5Itzig_124.mp4	0.0	142.79792284965515	0.6666669845581055
12	32.44136595726013	response	0	2		10.0	2.5	/experiments/knapen_aot/videos/R_S_yt-fryIS5Itzig_124.mp4	0.0	143.45638585090637	
12	32.44956994056702	movie	1		301.0	10.0	2.5	/experiments/knapen_aot/videos/R_S_yt-fryIS5Itzig_124.mp4	0.0	143.46458983421326	2.508380174636841
12	34.95795011520386	fix_post	2		12.0	10.0	2.5	/experiments/knapen_aot/videos/R_S_yt-fryIS5Itzig_124.mp4	0.0	145.9729700088501	0.09988689422607422
13	35.05783700942993	fix_pre	0		27.0	11.0	2.5	/experiments/knapen_aot/videos/S_yt-IXMtF998XFY_547.mp4	0.0	146.07285690307617	0.2249751091003418
13	35.27470397949219	response	0	2		11.0	2.5	/experiments/knapen_aot/videos/S_yt-IXMtF998XFY_547.mp4	0.0	146.28972387313843	
13	35.28281211853027	movie	1		301.0	11.0	2.5	/experiments/knapen_aot/videos/S_yt-IXMtF998XFY_547.mp4	0.0	146.2978320121765	2.508464813232422
13	37.791276931762695	fix_post	2		12.0	11.0	2.5	/experiments/knapen_aot/videos/S_yt-IXMtF998XFY_547.mp4	0.0	148.80629682540894	0.0999150276184082
14	37.8911919593811	fix_pre	0		55.0	12.0	2.5	/experiments/knapen_aot/videos/S_yt-Dj42sI_Z-kQ_38.mp4	0.0	148.90621185302734	0.4589881896972656
14	38.341331005096436	response	0	2		12.0	2.5	/experiments/knapen_aot/videos/S_yt-Dj42sI_Z-kQ_38.mp4	0.0	149.35635089874268	
14	38.35018014907837	movie	1		301.0	12.0	2.5	/experiments/knapen_aot/videos/S_yt-Dj42sI_Z-kQ_38.mp4	0.0	149.3652000427246	2.5077128410339355
14	40.857892990112305	fix_post	2		12.0	12.0	2.5	/experiments/knapen_aot/videos/S_yt-Dj42sI_Z-kQ_38.mp4	0.0	151.87291288375854	0.0999760627746582
15	40.95786905288696	fix_pre	0		30.0	13.0	2.5	blank	1.0	151.9728889465332	0.2499558925628662
15	41.199586153030396	response	0	2		13.0	2.5	blank	1.0	152.21460604667664	
15	41.20782494544983	movie	1		301.0	13.0	2.5	blank	1.0	152.22284483909607	2.5084002017974854
15	43.716225147247314	fix_post	2		12.0	13.0	2.5	blank	1.0	154.73124504089355	0.0999138355255127
16	43.81613898277283	fix_pre	0		42.0	14.0	2.5	/experiments/knapen_aot/videos/S_yt-BlWfK4MkjWA_469.mp4	0.0	154.83115887641907	0.3499901294708252
16	44.150397062301636	response	0	2		14.0	2.5	/experiments/knapen_aot/videos/S_yt-BlWfK4MkjWA_469.mp4	0.0	155.16541695594788	
16	44.16612911224365	movie	1		301.0	14.0	2.5	/experiments/knapen_aot/videos/S_yt-BlWfK4MkjWA_469.mp4	0.0	155.1811490058899	2.50832200050354
16	46.67445111274719	fix_post	2		12.0	14.0	2.5	/experiments/knapen_aot/videos/S_yt-BlWfK4MkjWA_469.mp4	0.0	157.68947100639343	0.10006284713745117
17	46.774513959884644	fix_pre	0		49.0	15.0	2.5	/experiments/knapen_aot/videos/S_ILSVRC2015_train_00411001.mp4	0.0	157.78953385353088	0.40895700454711914
17	47.17458415031433	response	0	2		15.0	2.5	/experiments/knapen_aot/videos/S_ILSVRC2015_train_00411001.mp4	0.0	158.18960404396057	
17	47.18347096443176	movie	1		301.0	15.0	2.5	/experiments/knapen_aot/videos/S_ILSVRC2015_train_00411001.mp4	0.0	158.198490858078	2.5078020095825195
17	49.69127297401428	fix_post	2		12.0	15.0	2.5	/experiments/knapen_aot/videos/S_ILSVRC2015_train_00411001.mp4	0.0	160.70629286766052	0.09984612464904785
18	49.79111909866333	fix_pre	0		48.0	16.0	2.5	/experiments/knapen_aot/videos/R_S_DV6V38rplag_215.mp4	0.0	160.80613899230957	0.3999049663543701
18	50.182868003845215	response	0	2		16.0	2.5	/experiments/knapen_aot/videos/R_S_DV6V38rplag_215.mp4	0.0	161.19788789749146	
18	50.1910240650177	movie	1		301.0	16.0	2.5	/experiments/knapen_aot/videos/R_S_DV6V38rplag_215.mp4	0.0	161.20604395866394	2.50838303565979
18	52.69940710067749	fix_post	2		12.0	16.0	2.5	/experiments/knapen_aot/videos/R_S_DV6V38rplag_215.mp4	0.0	163.71442699432373	0.10026288032531738
19	52.79966998100281	fix_pre	0		43.0	17.0	2.5	/experiments/knapen_aot/videos/R_S_yt-nfDPFHUDq8g_136.mp4	0.0	163.81468987464905	0.35804104804992676
19	53.14962196350098	response	0	2		17.0	2.5	/experiments/knapen_aot/videos/R_S_yt-nfDPFHUDq8g_136.mp4	0.0	164.16464185714722	
19	53.157711029052734	movie	1		301.0	17.0	2.5	/experiments/knapen_aot/videos/R_S_yt-nfDPFHUDq8g_136.mp4	0.0	164.17273092269897	2.5084099769592285
19	55.66612100601196	fix_post	2		12.0	17.0	2.5	/experiments/knapen_aot/videos/R_S_yt-nfDPFHUDq8g_136.mp4	0.0	166.6811408996582	0.10000395774841309
20	55.766124963760376	fix_pre	0		45.0	18.0	2.5	/experiments/knapen_aot/videos/R_S_yt-zlbtESb7Fcw_28.mp4	0.0	166.78114485740662	0.37571096420288086
20	56.125422954559326	response	0	2		18.0	2.5	/experiments/knapen_aot/videos/R_S_yt-zlbtESb7Fcw_28.mp4	0.0	167.14044284820557	
20	56.14183592796326	movie	1		301.0	18.0	2.5	/experiments/knapen_aot/videos/R_S_yt-zlbtESb7Fcw_28.mp4	0.0	167.1568558216095	2.507552146911621
20	58.64938807487488	fix_post	2		12.0	18.0	2.5	/experiments/knapen_aot/videos/R_S_yt-zlbtESb7Fcw_28.mp4	0.0	169.66440796852112	0.10002589225769043
21	58.74941396713257	fix_pre	0		41.0	19.0	2.5	blank	1.0	169.7644338607788	0.3416101932525635
21	59.08289194107056	response	0	2		19.0	2.5	blank	1.0	170.0979118347168	
21	59.09102416038513	movie	1		301.0	19.0	2.5	blank	1.0	170.10604405403137	2.5084497928619385
21	61.59947395324707	fix_post	2		12.0	19.0	2.5	blank	1.0	172.6144938468933	0.0999140739440918
22	61.69938802719116	fix_pre	0		21.0	20.0	2.5	/experiments/knapen_aot/videos/S_yt-8RmEimCI80g_35.mp4	0.0	172.7144079208374	0.1749730110168457
22	61.86624193191528	response	0	2		20.0	2.5	/experiments/knapen_aot/videos/S_yt-8RmEimCI80g_35.mp4	0.0	172.88126182556152	
22	61.87436103820801	movie	1		301.0	20.0	2.5	/experiments/knapen_aot/videos/S_yt-8RmEimCI80g_35.mp4	0.0	172.88938093185425	2.5083749294281006
22	64.38273596763611	fix_post	2		12.0	20.0	2.5	/experiments/knapen_aot/videos/S_yt-8RmEimCI80g_35.mp4	0.0	175.39775586128235	0.10007119178771973
23	64.48280715942383	fix_pre	0		32.0	21.0	2.5	/experiments/knapen_aot/videos/R_S_yt-SCzpSxzt0TA_46.mp4	0.0	175.49782705307007	0.2665557861328125
23	64.73364996910095	response	0	2		21.0	2.5	/experiments/knapen_aot/videos/R_S_yt-SCzpSxzt0TA_46.mp4	0.0	175.7486698627472	
23	64.74936294555664	movie	1		301.0	21.0	2.5	/experiments/knapen_aot/videos/R_S_yt-SCzpSxzt0TA_46.mp4	0.0	175.76438283920288	2.50835919380188
23	67.25772213935852	fix_post	2		12.0	21.0	2.5	/experiments/knapen_aot/videos/R_S_yt-SCzpSxzt0TA_46.mp4	0.0	178.27274203300476	0.09991002082824707
24	67.35763216018677	fix_pre	0		37.0	22.0	2.5	/experiments/knapen_aot/videos/S_yt-N7ztk2fa3Ls_137.mp4	0.0	178.372652053833	0.3084559440612793
24	67.65781807899475	response	0	2		22.0	2.5	/experiments/knapen_aot/videos/S_yt-N7ztk2fa3Ls_137.mp4	0.0	178.672837972641	
24	67.66608810424805	movie	1		301.0	22.0	2.5	/experiments/knapen_aot/videos/S_yt-N7ztk2fa3Ls_137.mp4	0.0	178.6811079978943	2.508327007293701
24	70.17441511154175	fix_post	2		12.0	22.0	2.5	/experiments/knapen_aot/videos/S_yt-N7ztk2fa3Ls_137.mp4	0.0	181.189435005188	0.09994697570800781
25	70.27436208724976	fix_pre	0		60.0	23.0	2.5	/experiments/knapen_aot/videos/S_yt-Y7-umyL036c_507.mp4	0.0	181.289381980896	0.4999868869781494
25	70.76606798171997	response	0	2		23.0	2.5	/experiments/knapen_aot/videos/S_yt-Y7-umyL036c_507.mp4	0.0	181.7810878753662	
25	70.7743489742279	movie	1		301.0	23.0	2.5	/experiments/knapen_aot/videos/S_yt-Y7-umyL036c_507.mp4	0.0	181.78936886787415	2.508331060409546
25	73.28268003463745	fix_post	2		12.0	23.0	2.5	/experiments/knapen_aot/videos/S_yt-Y7-umyL036c_507.mp4	0.0	184.2976999282837	0.09999895095825195
26	73.3826789855957	fix_pre	0		35.0	24.0	2.5	/experiments/knapen_aot/videos/S_pexels-artem-podrez-5457692.mp4	0.0	184.39769887924194	0.29165005683898926
26	73.66613793373108	response	0	2		24.0	2.5	/experiments/knapen_aot/videos/S_pexels-artem-podrez-5457692.mp4	0.0	184.68115782737732	
26	73.67432904243469	movie	1		165.0	24.0	2.5	/experiments/knapen_aot/videos/S_pexels-artem-podrez-5457692.mp4	0.0	184.68934893608093	2.5084280967712402
26	76.14109015464783	response	1	2		24.0	2.5	/experiments/knapen_aot/videos/S_pexels-artem-podrez-5457692.mp4	0.0	187.15611004829407	
26	76.18275713920593	fix_post	2		12.0	24.0	2.5	/experiments/knapen_aot/videos/S_pexels-artem-podrez-5457692.mp4	0.0	187.19777703285217	0.09986996650695801
27	76.28262710571289	fix_pre	0		279.0	25.0	2.5	/experiments/knapen_aot/videos/S_ILSVRC2015_train_00549001.mp4	0.0	187.29764699935913	2.3250198364257812
27	78.59944415092468	response	0	2		25.0	2.5	/experiments/knapen_aot/videos/S_ILSVRC2015_train_00549001.mp4	0.0	189.61446404457092	
27	78.60764694213867	movie	1		301.0	25.0	2.5	/experiments/knapen_aot/videos/S_ILSVRC2015_train_00549001.mp4	0.0	189.6226668357849	2.508333206176758
27	81.11598014831543	fix_post	2		12.0	25.0	2.5	/experiments/knapen_aot/videos/S_ILSVRC2015_train_00549001.mp4	0.0	192.13100004196167	0.09995579719543457
28	81.21593594551086	fix_pre	0		154.0	26.0	2.5	blank	1.0	192.2309558391571	1.2833690643310547
28	82.49109411239624	response	0	2		26.0	2.5	blank	1.0	193.50611400604248	
28	82.49930500984192	movie	1		301.0	26.0	2.5	blank	1.0	193.51432490348816	2.508362054824829
28	85.00766706466675	fix_post	2		12.0	26.0	2.5	blank	1.0	196.022686958313	0.10001492500305176
29	85.1076819896698	fix_pre	0		38.0	27.0	2.5	/experiments/knapen_aot/videos/R_S_yt-N7ztk2fa3Ls_137.mp4	0.0	196.12270188331604	0.31648993492126465
29	85.41611194610596	response	0	2		27.0	2.5	/experiments/knapen_aot/videos/R_S_yt-N7ztk2fa3Ls_137.mp4	0.0	196.4311318397522	
29	85.42417192459106	movie	1		301.0	27.0	2.5	/experiments/knapen_aot/videos/R_S_yt-N7ztk2fa3Ls_137.mp4	0.0	196.4391918182373	2.508413076400757
29	87.93258500099182	fix_post	2		12.0	27.0	2.5	/experiments/knapen_aot/videos/R_S_yt-N7ztk2fa3Ls_137.mp4	0.0	198.94760489463806	0.10004997253417969
30	88.032634973526	fix_pre	0		34.0	28.0	2.5	/experiments/knapen_aot/videos/R_S_yt-IXMtF998XFY_547.mp4	0.0	199.04765486717224	0.28336310386657715
30	88.30768394470215	response	0	2		28.0	2.5	/experiments/knapen_aot/videos/R_S_yt-IXMtF998XFY_547.mp4	0.0	199.3227038383484	
30	88.31599807739258	movie	1		301.0	28.0	2.5	/experiments/knapen_aot/videos/R_S_yt-IXMtF998XFY_547.mp4	0.0	199.33101797103882	2.5082719326019287
30	90.8242700099945	fix_post	2		12.0	28.0	2.5	/experiments/knapen_aot/videos/R_S_yt-IXMtF998XFY_547.mp4	0.0	201.83928990364075	0.0999760627746582
31	90.92424607276917	fix_pre	0		38.0	29.0	2.5	/experiments/knapen_aot/videos/R_S_yt-hDYtYKUsVE4_120.mp4	0.0	201.9392659664154	0.3166189193725586
31	91.22516012191772	response	0	2		29.0	2.5	/experiments/knapen_aot/videos/R_S_yt-hDYtYKUsVE4_120.mp4	0.0	202.24018001556396	
31	91.24086499214172	movie	1		301.0	29.0	2.5	/experiments/knapen_aot/videos/R_S_yt-hDYtYKUsVE4_120.mp4	0.0	202.25588488578796	2.5083839893341064
31	93.74924898147583	fix_post	2		12.0	29.0	2.5	/experiments/knapen_aot/videos/R_S_yt-hDYtYKUsVE4_120.mp4	0.0	204.76426887512207	0.10000801086425781
32	93.84925699234009	fix_pre	0		46.0	30.0	2.5	/experiments/knapen_aot/videos/R_S_yt-OLDm2slgfA4_3.mp4	0.0	204.86427688598633	0.3833019733428955
32	94.22444200515747	response	0	2		30.0	2.5	/experiments/knapen_aot/videos/R_S_yt-OLDm2slgfA4_3.mp4	0.0	205.2394618988037	
32	94.23255896568298	movie	1		301.0	30.0	2.5	/experiments/knapen_aot/videos/R_S_yt-OLDm2slgfA4_3.mp4	0.0	205.24757885932922	2.508373975753784
32	96.74093294143677	fix_post	2		12.0	30.0	2.5	/experiments/knapen_aot/videos/R_S_yt-OLDm2slgfA4_3.mp4	0.0	207.755952835083	0.09993910789489746
33	96.84087204933167	fix_pre	0		51.0	31.0	2.5	/experiments/knapen_aot/videos/S_ILSVRC2015_train_00574000.mp4	0.0	207.8558919429779	0.4254310131072998
33	97.2577919960022	response	0	2		31.0	2.5	/experiments/knapen_aot/videos/S_ILSVRC2015_train_00574000.mp4	0.0	208.27281188964844	
33	97.26630306243896	movie	1		301.0	31.0	2.5	/experiments/knapen_aot/videos/S_ILSVRC2015_train_00574000.mp4	0.0	208.2813229560852	2.507863998413086
33	99.77416706085205	fix_post	2		12.0	31.0	2.5	/experiments/knapen_aot/videos/S_ILSVRC2015_train_00574000.mp4	0.0	210.7891869544983	0.10006308555603027
34	99.87423014640808	fix_pre	0		32.0	32.0	2.5	/experiments/knapen_aot/videos/S_yt_R-lST38EdfMMQ_5.mp4	0.0	210.88925004005432	0.26723289489746094
34	100.13269996643066	response	0	2		32.0	2.5	/experiments/knapen_aot/videos/S_yt_R-lST38EdfMMQ_5.mp4	0.0	211.1477198600769	
34	100.14146304130554	movie	1		301.0	32.0	2.5	/experiments/knapen_aot/videos/S_yt_R-lST38EdfMMQ_5.mp4	0.0	211.15648293495178	2.5077009201049805
34	102.64916396141052	fix_post	2		12.0	32.0	2.5	/experiments/knapen_aot/videos/S_yt_R-lST38EdfMMQ_5.mp4	0.0	213.66418385505676	0.10025596618652344
35	102.74941992759705	fix_pre	0		91.0	33.0	2.5	/experiments/knapen_aot/videos/R_S_yt-xQPKYWDRy2A_491.mp4	0.0	213.7644398212433	0.758101224899292
35	103.49932098388672	response	0	2		33.0	2.5	/experiments/knapen_aot/videos/R_S_yt-xQPKYWDRy2A_491.mp4	0.0	214.51434087753296	
35	103.50752115249634	movie	1		301.0	33.0	2.5	/experiments/knapen_aot/videos/R_S_yt-xQPKYWDRy2A_491.mp4	0.0	214.52254104614258	2.5083940029144287
35	106.01591515541077	fix_post	2		12.0	33.0	2.5	/experiments/knapen_aot/videos/R_S_yt-xQPKYWDRy2A_491.mp4	0.0	217.030935049057	0.10000181198120117
36	106.11591696739197	fix_pre	0		65.0	34.0	2.5	/experiments/knapen_aot/videos/R_S_yt-146gReE6xKw_379.mp4	0.0	217.1309368610382	0.5416121482849121
36	106.64934802055359	response	0	2		34.0	2.5	/experiments/knapen_aot/videos/R_S_yt-146gReE6xKw_379.mp4	0.0	217.66436791419983	
36	106.65752911567688	movie	1		301.0	34.0	2.5	/experiments/knapen_aot/videos/R_S_yt-146gReE6xKw_379.mp4	0.0	217.67254900932312	2.508312940597534
36	109.16584205627441	fix_post	2		12.0	34.0	2.5	/experiments/knapen_aot/videos/R_S_yt-146gReE6xKw_379.mp4	0.0	220.18086194992065	0.10065388679504395
37	109.26649594306946	fix_pre	0		156.0	35.0	2.5	blank	1.0	220.2815158367157	1.2993321418762207
37	110.55767512321472	response	0	2		35.0	2.5	blank	1.0	221.57269501686096	
37	110.56582808494568	movie	1		301.0	35.0	2.5	blank	1.0	221.58084797859192	2.508281946182251
37	113.07411003112793	fix_post	2		12.0	35.0	2.5	blank	1.0	224.08912992477417	0.10004806518554688
38	113.17415809631348	fix_pre	0		17.0	36.0	2.5	/experiments/knapen_aot/videos/S_ILSVRC2015_train_00768000.mp4	0.0	224.18917798995972	0.14166784286499023
38	113.30754208564758	response	0	2		36.0	2.5	/experiments/knapen_aot/videos/S_ILSVRC2015_train_00768000.mp4	0.0	224.32256197929382	
38	113.31582593917847	movie	1		301.0	36.0	2.5	/experiments/knapen_aot/videos/S_ILSVRC2015_train_00768000.mp4	0.0	224.3308458328247	2.5083301067352295
38	115.8241560459137	fix_post	2		12.0	36.0	2.5	/experiments/knapen_aot/videos/S_ILSVRC2015_train_00768000.mp4	0.0	226.83917593955994	0.10002398490905762
39	115.92418003082275	fix_pre	0		36.0	37.0	2.5	/experiments/knapen_aot/videos/S_comp_A013_C012_0122D6_CC_v01_SDR_PS_FINAL_20180709_SDR_2K_AVC.mp4	0.0	226.939199924469	0.3002591133117676
39	116.21595311164856	response	0	2		37.0	2.5	/experiments/knapen_aot/videos/S_comp_A013_C012_0122D6_CC_v01_SDR_PS_FINAL_20180709_SDR_2K_AVC.mp4	0.0	227.2309730052948	
39	116.22443914413452	movie	1		165.0	37.0	2.5	/experiments/knapen_aot/videos/S_comp_A013_C012_0122D6_CC_v01_SDR_PS_FINAL_20180709_SDR_2K_AVC.mp4	0.0	227.23945903778076	2.508267879486084
39	118.7327070236206	fix_post	2		12.0	37.0	2.5	/experiments/knapen_aot/videos/S_comp_A013_C012_0122D6_CC_v01_SDR_PS_FINAL_20180709_SDR_2K_AVC.mp4	0.0	229.74772691726685	0.09975409507751465
40	118.83246111869812	fix_pre	0		27.0	38.0	2.5	/experiments/knapen_aot/videos/R_S_yt-Y7-umyL036c_507.mp4	0.0	229.84748101234436	0.22529888153076172
40	119.04913997650146	response	0	2		38.0	2.5	/experiments/knapen_aot/videos/R_S_yt-Y7-umyL036c_507.mp4	0.0	230.0641598701477	
40	119.05776000022888	movie	1		301.0	38.0	2.5	/experiments/knapen_aot/videos/R_S_yt-Y7-umyL036c_507.mp4	0.0	230.07277989387512	2.5080389976501465
40	121.56579899787903	fix_post	2		12.0	38.0	2.5	/experiments/knapen_aot/videos/R_S_yt-Y7-umyL036c_507.mp4	0.0	232.58081889152527	0.0999910831451416
41	121.66579008102417	fix_pre	0		26.0	39.0	2.5	/experiments/knapen_aot/videos/R_S_video-2.mp4	0.0	232.6808099746704	0.2166750431060791
41	121.87422299385071	response	0	2		39.0	2.5	/experiments/knapen_aot/videos/R_S_video-2.mp4	0.0	232.88924288749695	
41	121.88246512413025	movie	1		165.0	39.0	2.5	/experiments/knapen_aot/videos/R_S_video-2.mp4	0.0	232.8974850177765	2.5082848072052
41	124.39074993133545	fix_post	2		12.0	39.0	2.5	/experiments/knapen_aot/videos/R_S_video-2.mp4	0.0	235.4057698249817	0.10001111030578613
42	124.49076104164124	fix_pre	0		15.0	40.0	2.5	blank	1.0	235.50578093528748	0.12505292892456055
42	124.6075439453125	response	0	2		40.0	2.5	blank	1.0	235.62256383895874	
42	124.6158139705658	movie	1		301.0	40.0	2.5	blank	1.0	235.63083386421204	2.508234977722168
42	126.1241180896759	response	1	2		40.0	2.5	blank	1.0	237.13913798332214	
42	127.12404894828796	fix_post	2		12.0	40.0	2.5	blank	1.0	238.1390688419342	0.10028219223022461
43	127.22433114051819	fix_pre	0		84.0	41.0	2.5	/experiments/knapen_aot/videos/R_S_pexels-anthony-shkraba-production-8135459.mp4	0.0	238.23935103416443	0.699774980545044
43	127.91584515571594	response	0	2		41.0	2.5	/experiments/knapen_aot/videos/R_S_pexels-anthony-shkraba-production-8135459.mp4	0.0	238.93086504936218	
43	127.92410612106323	movie	1		168.0	41.0	2.5	/experiments/knapen_aot/videos/R_S_pexels-anthony-shkraba-production-8135459.mp4	0.0	238.93912601470947	2.508253812789917
43	130.43235993385315	fix_post	2		12.0	41.0	2.5	/experiments/knapen_aot/videos/R_S_pexels-anthony-shkraba-production-8135459.mp4	0.0	241.4473798274994	0.10007309913635254
44	130.5324330329895	fix_pre	0		85.0	42.0	2.5	/experiments/knapen_aot/videos/R_S_yt-Ojy5TMPX8_Q_165.mp4	0.0	241.54745292663574	0.7083101272583008
44	131.22499203681946	response	0	2		42.0	2.5	/experiments/knapen_aot/videos/R_S_yt-Ojy5TMPX8_Q_165.mp4	0.0	242.2400119304657	
44	131.2407431602478	movie	1		301.0	42.0	2.5	/experiments/knapen_aot/videos/R_S_yt-Ojy5TMPX8_Q_165.mp4	0.0	242.25576305389404	2.508281946182251
44	133.74902510643005	fix_post	2		12.0	42.0	2.5	/experiments/knapen_aot/videos/R_S_yt-Ojy5TMPX8_Q_165.mp4	0.0	244.7640450000763	0.10004997253417969
45	133.84907507896423	fix_pre	0		262.0	43.0	2.5	/experiments/knapen_aot/videos/R_S_I004_C014_SDR_2K_AVC.mp4	0.0	244.86409497261047	2.1832659244537354
45	136.02420210838318	response	0	2		43.0	2.5	/experiments/knapen_aot/videos/R_S_I004_C014_SDR_2K_AVC.mp4	0.0	247.03922200202942	
45	136.03234100341797	movie	1		172.0	43.0	2.5	/experiments/knapen_aot/videos/R_S_I004_C014_SDR_2K_AVC.mp4	0.0	247.0473608970642	2.5084400177001953
45	138.54078102111816	fix_post	2		12.0	43.0	2.5	/experiments/knapen_aot/videos/R_S_I004_C014_SDR_2K_AVC.mp4	0.0	249.5558009147644	0.10029196739196777
46	138.64107298851013	fix_pre	0		37.0	44.0	2.5	/experiments/knapen_aot/videos/R_S_pexels-roman-odintsov-8232443.mp4	0.0	249.65609288215637	0.30809712409973145
46	138.94084811210632	response	0	2		44.0	2.5	/experiments/knapen_aot/videos/R_S_pexels-roman-odintsov-8232443.mp4	0.0	249.95586800575256	
46	138.94917011260986	movie	1		214.0	44.0	2.5	/experiments/knapen_aot/videos/R_S_pexels-roman-odintsov-8232443.mp4	0.0	249.9641900062561	2.5082008838653564
46	141.45737099647522	fix_post	2		12.0	44.0	2.5	/experiments/knapen_aot/videos/R_S_pexels-roman-odintsov-8232443.mp4	0.0	252.47239089012146	0.10015201568603516
47	141.55752301216125	fix_pre	0		30.0	45.0	2.5	/experiments/knapen_aot/videos/S_ILSVRC2015_train_00339001.mp4	0.0	252.5725429058075	0.25011706352233887
47	141.79910802841187	response	0	2		45.0	2.5	/experiments/knapen_aot/videos/S_ILSVRC2015_train_00339001.mp4	0.0	252.8141279220581	
47	141.8076400756836	movie	1		301.0	45.0	2.5	/experiments/knapen_aot/videos/S_ILSVRC2015_train_00339001.mp4	0.0	252.82265996932983	2.508147954940796
47	144.3157880306244	fix_post	2		12.0	45.0	2.5	/experiments/knapen_aot/videos/S_ILSVRC2015_train_00339001.mp4	0.0	255.33080792427063	0.0999000072479248
48	144.41568803787231	fix_pre	0		321.0	46.0	2.5	/experiments/knapen_aot/videos/R_S_yt-K0CzoUy_uIA_22.mp4	0.0	255.43070793151855	2.6749460697174072
48	147.08246493339539	response	0	2		46.0	2.5	/experiments/knapen_aot/videos/R_S_yt-K0CzoUy_uIA_22.mp4	0.0	258.0974848270416	
48	147.09063410758972	movie	1		301.0	46.0	2.5	/experiments/knapen_aot/videos/R_S_yt-K0CzoUy_uIA_22.mp4	0.0	258.10565400123596	2.5085949897766113
48	149.59922909736633	fix_post	2		12.0	46.0	2.5	/experiments/knapen_aot/videos/R_S_yt-K0CzoUy_uIA_22.mp4	0.0	260.6142489910126	0.09978294372558594
49	149.69901204109192	fix_pre	0		33.0	47.0	2.5	blank	1.0	260.71403193473816	0.2751328945159912
49	149.96573615074158	response	0	2		47.0	2.5	blank	1.0	260.9807560443878	
49	149.9741449356079	movie	1		301.0	47.0	2.5	blank	1.0	260.98916482925415	2.5081260204315186
49	151.6991090774536	response	1	2		47.0	2.5	blank	1.0	262.71412897109985	
49	152.48227095603943	fix_post	2		12.0	47.0	2.5	blank	1.0	263.49729084968567	0.10005903244018555
50	152.58232998847961	fix_pre	0		33.0	48.0	2.5	/experiments/knapen_aot/videos/R_S_pexels-cottonbro-9063801.mp4	0.0	263.59734988212585	0.27498507499694824
50	152.8415310382843	response	0	2		48.0	2.5	/experiments/knapen_aot/videos/R_S_pexels-cottonbro-9063801.mp4	0.0	263.85655093193054	
50	152.85731506347656	movie	1		209.0	48.0	2.5	/experiments/knapen_aot/videos/R_S_pexels-cottonbro-9063801.mp4	0.0	263.8723349571228	2.5084280967712402
50	155.3657431602478	fix_post	2		12.0	48.0	2.5	/experiments/knapen_aot/videos/R_S_pexels-cottonbro-9063801.mp4	0.0	266.38076305389404	0.09998893737792969
51	155.46573209762573	fix_pre	0		65.0	49.0	2.5	/experiments/knapen_aot/videos/S_yt-uX7qYKQm_pg_277.mp4	0.0	266.480751991272	0.5415658950805664
51	155.99156403541565	response	0	2		49.0	2.5	/experiments/knapen_aot/videos/S_yt-uX7qYKQm_pg_277.mp4	0.0	267.0065839290619	
51	156.0072979927063	movie	1		301.0	49.0	2.5	/experiments/knapen_aot/videos/S_yt-uX7qYKQm_pg_277.mp4	0.0	267.02231788635254	2.5084991455078125
51	158.5157971382141	fix_post	2		12.0	49.0	2.5	/experiments/knapen_aot/videos/S_yt-uX7qYKQm_pg_277.mp4	0.0	269.53081703186035	0.09983181953430176
52	158.6156289577484	fix_pre	0		30.0	50.0	2.5	/experiments/knapen_aot/videos/R_S_Y011_C001_SDR_2K_AVC.mp4	0.0	269.63064885139465	0.24996614456176758
52	158.8574240207672	response	0	2		50.0	2.5	/experiments/knapen_aot/videos/R_S_Y011_C001_SDR_2K_AVC.mp4	0.0	269.87244391441345	
52	158.86559510231018	movie	1		172.0	50.0	2.5	/experiments/knapen_aot/videos/R_S_Y011_C001_SDR_2K_AVC.mp4	0.0	269.8806149959564	2.5083858966827393
52	161.37398099899292	fix_post	2		12.0	50.0	2.5	/experiments/knapen_aot/videos/R_S_Y011_C001_SDR_2K_AVC.mp4	0.0	272.38900089263916	0.10012602806091309
53	161.47410702705383	fix_pre	0		36.0	51.0	2.5	/experiments/knapen_aot/videos/S_yt-kINZMjys3O4_112.mp4	0.0	272.4891269207001	0.2997760772705078
53	161.76572108268738	response	0	2		51.0	2.5	/experiments/knapen_aot/videos/S_yt-kINZMjys3O4_112.mp4	0.0	272.7807409763336	
53	161.77388310432434	movie	1		301.0	51.0	2.5	/experiments/knapen_aot/videos/S_yt-kINZMjys3O4_112.mp4	0.0	272.7889029979706	2.5083839893341064
53	164.28226709365845	fix_post	2		12.0	51.0	2.5	/experiments/knapen_aot/videos/S_yt-kINZMjys3O4_112.mp4	0.0	275.2972869873047	0.1000058650970459
54	164.3822729587555	fix_pre	0		30.0	52.0	2.5	/experiments/knapen_aot/videos/S_yt-bH4nJibL4Jo_164.mp4	0.0	275.39729285240173	0.24997806549072266
54	164.62408208847046	response	0	2		52.0	2.5	/experiments/knapen_aot/videos/S_yt-bH4nJibL4Jo_164.mp4	0.0	275.6391019821167	
54	164.63225102424622	movie	1		301.0	52.0	2.5	/experiments/knapen_aot/videos/S_yt-bH4nJibL4Jo_164.mp4	0.0	275.64727091789246	2.508871078491211
54	167.14112210273743	fix_post	2		12.0	52.0	2.5	/experiments/knapen_aot/videos/S_yt-bH4nJibL4Jo_164.mp4	0.0	278.15614199638367	0.09950804710388184
55	167.2406301498413	fix_pre	0		31.0	53.0	2.5	/experiments/knapen_aot/videos/R_S_yt-8RmEimCI80g_35.mp4	0.0	278.25565004348755	0.2582378387451172
55	167.49068307876587	response	0	2		53.0	2.5	/experiments/knapen_aot/videos/R_S_yt-8RmEimCI80g_35.mp4	0.0	278.5057029724121	
55	167.49886798858643	movie	1		301.0	53.0	2.5	/experiments/knapen_aot/videos/R_S_yt-8RmEimCI80g_35.mp4	0.0	278.51388788223267	2.5087180137634277
55	170.00758600234985	fix_post	2		12.0	53.0	2.5	/experiments/knapen_aot/videos/R_S_yt-8RmEimCI80g_35.mp4	0.0	281.0226058959961	0.0997319221496582
56	170.1073179244995	fix_pre	0		30.0	54.0	2.5	/experiments/knapen_aot/videos/S_wc-PsidKmkEV7Km_14.mp4	0.0	281.12233781814575	0.24988722801208496
56	170.34901595115662	response	0	2		54.0	2.5	/experiments/knapen_aot/videos/S_wc-PsidKmkEV7Km_14.mp4	0.0	281.36403584480286	
56	170.3572051525116	movie	1		164.0	54.0	2.5	/experiments/knapen_aot/videos/S_wc-PsidKmkEV7Km_14.mp4	0.0	281.37222504615784	2.508384943008423
56	172.86559009552002	fix_post	2		12.0	54.0	2.5	/experiments/knapen_aot/videos/S_wc-PsidKmkEV7Km_14.mp4	0.0	283.88060998916626	0.09999394416809082
57	172.9655840396881	fix_pre	0		74.0	55.0	2.5	/experiments/knapen_aot/videos/R_S_yt_R-lST38EdfMMQ_5.mp4	0.0	283.98060393333435	0.6166110038757324
57	173.5740261077881	response	0	2		55.0	2.5	/experiments/knapen_aot/videos/R_S_yt_R-lST38EdfMMQ_5.mp4	0.0	284.5890460014343	
57	173.58219504356384	movie	1		301.0	55.0	2.5	/experiments/knapen_aot/videos/R_S_yt_R-lST38EdfMMQ_5.mp4	0.0	284.5972149372101	2.5084259510040283
57	176.09062099456787	fix_post	2		12.0	55.0	2.5	/experiments/knapen_aot/videos/R_S_yt_R-lST38EdfMMQ_5.mp4	0.0	287.1056408882141	0.09996294975280762
58	176.19058394432068	fix_pre	0		28.0	56.0	2.5	blank	1.0	287.2056038379669	0.2332451343536377
58	176.40807914733887	response	0	2		56.0	2.5	blank	1.0	287.4230990409851	
58	176.42382907867432	movie	1		301.0	56.0	2.5	blank	1.0	287.43884897232056	2.50844407081604
58	178.93227314949036	fix_post	2		12.0	56.0	2.5	blank	1.0	289.9472930431366	0.09995484352111816
59	179.03222799301147	fix_pre	0		58.0	57.0	2.5	/experiments/knapen_aot/videos/S_yt-nlfwzxlwRfk_12.mp4	0.0	290.0472478866577	0.48328399658203125
59	179.50733399391174	response	0	2		57.0	2.5	/experiments/knapen_aot/videos/S_yt-nlfwzxlwRfk_12.mp4	0.0	290.522353887558	
59	179.5155119895935	movie	1		301.0	57.0	2.5	/experiments/knapen_aot/videos/S_yt-nlfwzxlwRfk_12.mp4	0.0	290.53053188323975	2.5084750652313232
59	182.02398705482483	fix_post	2		12.0	57.0	2.5	/experiments/knapen_aot/videos/S_yt-nlfwzxlwRfk_12.mp4	0.0	293.03900694847107	0.09988093376159668
60	182.12386798858643	fix_pre	0		24.0	58.0	2.5	/experiments/knapen_aot/videos/R_S_comp_HK_B005_C011_PSNK_v16_SDR_PS_20180914_SDR_2K_AVC.mp4	0.0	293.13888788223267	0.19997811317443848
60	182.30817008018494	response	0	2		58.0	2.5	/experiments/knapen_aot/videos/R_S_comp_HK_B005_C011_PSNK_v16_SDR_PS_20180914_SDR_2K_AVC.mp4	0.0	293.3231899738312	
60	182.32384610176086	movie	1		166.0	58.0	2.5	/experiments/knapen_aot/videos/R_S_comp_HK_B005_C011_PSNK_v16_SDR_PS_20180914_SDR_2K_AVC.mp4	0.0	293.3388659954071	2.5082688331604004
60	184.83211493492126	fix_post	2		12.0	58.0	2.5	/experiments/knapen_aot/videos/R_S_comp_HK_B005_C011_PSNK_v16_SDR_PS_20180914_SDR_2K_AVC.mp4	0.0	295.8471348285675	0.10010099411010742
61	184.93221592903137	fix_pre	0		19.0	59.0	2.5	/experiments/knapen_aot/videos/S_yt-OLDm2slgfA4_3.mp4	0.0	295.9472358226776	0.15825510025024414
61	185.0746989250183	response	0	2		59.0	2.5	/experiments/knapen_aot/videos/S_yt-OLDm2slgfA4_3.mp4	0.0	296.08971881866455	
61	185.09047102928162	movie	1		301.0	59.0	2.5	/experiments/knapen_aot/videos/S_yt-OLDm2slgfA4_3.mp4	0.0	296.10549092292786	2.508376121520996
61	187.5988471508026	fix_post	2		12.0	59.0	2.5	/experiments/knapen_aot/videos/S_yt-OLDm2slgfA4_3.mp4	0.0	298.61386704444885	0.10007095336914062
62	187.69891810417175	fix_pre	0		177.0	60.0	2.5	/experiments/knapen_aot/videos/S_yt-HMAa2QbfFPI_216.mp4	0.0	298.713937997818	1.476280927658081
62	189.16572093963623	response	0	2		60.0	2.5	/experiments/knapen_aot/videos/S_yt-HMAa2QbfFPI_216.mp4	0.0	300.18074083328247	
62	189.17519903182983	movie	1		301.0	60.0	2.5	/experiments/knapen_aot/videos/S_yt-HMAa2QbfFPI_216.mp4	0.0	300.1902189254761	2.507004976272583
62	191.68220400810242	fix_post	2		12.0	60.0	2.5	/experiments/knapen_aot/videos/S_yt-HMAa2QbfFPI_216.mp4	0.0	302.69722390174866	0.09997892379760742
63	191.78218293190002	fix_pre	0		52.0	61.0	2.5	blank	1.0	302.79720282554626	0.4332561492919922
63	192.19969296455383	response	0	2		61.0	2.5	blank	1.0	303.2147128582001	
63	192.21543908119202	movie	1		301.0	61.0	2.5	blank	1.0	303.23045897483826	2.5084478855133057
63	194.72388696670532	fix_post	2		12.0	61.0	2.5	blank	1.0	305.73890686035156	0.09999799728393555
64	194.82388496398926	fix_pre	0		39.0	62.0	2.5	/experiments/knapen_aot/videos/R_S_comp_A103_C002_0205DG_v12_SDR_FINAL_20180706_SDR_2K_AVC.mp4	0.0	305.8389048576355	0.3249690532684326
64	195.14063501358032	response	0	2		62.0	2.5	/experiments/knapen_aot/videos/R_S_comp_A103_C002_0205DG_v12_SDR_FINAL_20180706_SDR_2K_AVC.mp4	0.0	306.15565490722656	
64	195.1488540172577	movie	1		173.0	62.0	2.5	/experiments/knapen_aot/videos/R_S_comp_A103_C002_0205DG_v12_SDR_FINAL_20180706_SDR_2K_AVC.mp4	0.0	306.16387391090393	2.5082969665527344
64	197.65715098381042	fix_post	2		12.0	62.0	2.5	/experiments/knapen_aot/videos/R_S_comp_A103_C002_0205DG_v12_SDR_FINAL_20180706_SDR_2K_AVC.mp4	0.0	308.67217087745667	0.10003995895385742
65	197.75719094276428	fix_pre	0		86.0	63.0	2.5	/experiments/knapen_aot/videos/R_S_yt-_WFwhcmbXXY_51.mp4	0.0	308.7722108364105	0.7165780067443848
65	198.4655361175537	response	0	2		63.0	2.5	/experiments/knapen_aot/videos/R_S_yt-_WFwhcmbXXY_51.mp4	0.0	309.48055601119995	
65	198.47376894950867	movie	1		301.0	63.0	2.5	/experiments/knapen_aot/videos/R_S_yt-_WFwhcmbXXY_51.mp4	0.0	309.4887888431549	2.5084002017974854
65	200.98216915130615	fix_post	2		12.0	63.0	2.5	/experiments/knapen_aot/videos/R_S_yt-_WFwhcmbXXY_51.mp4	0.0	311.9971890449524	0.10001397132873535
66	201.0821831226349	fix_pre	0		219.0	64.0	2.5	/experiments/knapen_aot/videos/S_I003_C004_SDR_2K_AVC.mp4	0.0	312.0972030162811	1.8249309062957764
66	202.89892101287842	response	0	2		64.0	2.5	/experiments/knapen_aot/videos/S_I003_C004_SDR_2K_AVC.mp4	0.0	313.91394090652466	
66	202.90711402893066	movie	1		167.0	64.0	2.5	/experiments/knapen_aot/videos/S_I003_C004_SDR_2K_AVC.mp4	0.0	313.9221339225769	2.5083699226379395
66	205.4154839515686	fix_post	2		12.0	64.0	2.5	/experiments/knapen_aot/videos/S_I003_C004_SDR_2K_AVC.mp4	0.0	316.43050384521484	0.1000211238861084
67	205.5155050754547	fix_pre	0		205.0	65.0	2.5	/experiments/knapen_aot/videos/S_pexels-ron-lach-8071987.mp4	0.0	316.53052496910095	1.708204984664917
67	207.21559810638428	response	0	2		65.0	2.5	/experiments/knapen_aot/videos/S_pexels-ron-lach-8071987.mp4	0.0	318.2306180000305	
67	207.22371006011963	movie	1		190.0	65.0	2.5	/experiments/knapen_aot/videos/S_pexels-ron-lach-8071987.mp4	0.0	318.23872995376587	2.5083680152893066
67	209.73207807540894	fix_post	2		12.0	65.0	2.5	/experiments/knapen_aot/videos/S_pexels-ron-lach-8071987.mp4	0.0	320.7470979690552	0.10002303123474121
68	209.83210110664368	fix_pre	0		28.0	66.0	2.5	/experiments/knapen_aot/videos/R_S_yt-kINZMjys3O4_112.mp4	0.0	320.8471210002899	0.23327398300170898
68	210.05724692344666	response	0	2		66.0	2.5	/experiments/knapen_aot/videos/R_S_yt-kINZMjys3O4_112.mp4	0.0	321.0722668170929	
68	210.06537508964539	movie	1		301.0	66.0	2.5	/experiments/knapen_aot/videos/R_S_yt-kINZMjys3O4_112.mp4	0.0	321.0803949832916	2.5084009170532227
68	212.5737760066986	fix_post	2		12.0	66.0	2.5	/experiments/knapen_aot/videos/R_S_yt-kINZMjys3O4_112.mp4	0.0	323.58879590034485	0.09993505477905273
69	212.67371106147766	fix_pre	0		185.0	67.0	2.5	/experiments/knapen_aot/videos/S_wc-b4Oquu3WQPRz_45.mp4	0.0	323.6887309551239	1.542936086654663
69	214.20719408988953	response	0	2		67.0	2.5	/experiments/knapen_aot/videos/S_wc-b4Oquu3WQPRz_45.mp4	0.0	325.22221398353577	
69	214.21664714813232	movie	1		170.0	67.0	2.5	/experiments/knapen_aot/videos/S_wc-b4Oquu3WQPRz_45.mp4	0.0	325.23166704177856	2.507194995880127
69	216.72384214401245	fix_post	2		12.0	67.0	2.5	/experiments/knapen_aot/videos/S_wc-b4Oquu3WQPRz_45.mp4	0.0	327.7388620376587	0.09986090660095215
70	216.8237030506134	fix_pre	0		159.0	68.0	2.5	blank	1.0	327.83872294425964	1.3250560760498047
70	218.14050912857056	response	0	2		68.0	2.5	blank	1.0	329.1555290222168	
70	218.1487591266632	movie	1		301.0	68.0	2.5	blank	1.0	329.16377902030945	2.5082619190216064
70	220.65702104568481	fix_post	2		12.0	68.0	2.5	blank	1.0	331.67204093933105	0.09995293617248535
71	220.7569739818573	fix_pre	0		40.0	69.0	2.5	/experiments/knapen_aot/videos/S_comp_HK_B005_C011_PSNK_v16_SDR_PS_20180914_SDR_2K_AVC.mp4	0.0	331.77199387550354	0.3334081172943115
71	221.0821521282196	response	0	2		69.0	2.5	/experiments/knapen_aot/videos/S_comp_HK_B005_C011_PSNK_v16_SDR_PS_20180914_SDR_2K_AVC.mp4	0.0	332.09717202186584	
71	221.0903820991516	movie	1		164.0	69.0	2.5	/experiments/knapen_aot/videos/S_comp_HK_B005_C011_PSNK_v16_SDR_PS_20180914_SDR_2K_AVC.mp4	0.0	332.10540199279785	2.5084168910980225
71	223.59879899024963	fix_post	2		12.0	69.0	2.5	/experiments/knapen_aot/videos/S_comp_HK_B005_C011_PSNK_v16_SDR_PS_20180914_SDR_2K_AVC.mp4	0.0	334.6138188838959	0.09986710548400879
72	223.69866609573364	fix_pre	0		29.0	70.0	2.5	/experiments/knapen_aot/videos/S_ILSVRC2015_train_00371006.mp4	0.0	334.7136859893799	0.24171805381774902
72	223.93210697174072	response	0	2		70.0	2.5	/experiments/knapen_aot/videos/S_ILSVRC2015_train_00371006.mp4	0.0	334.94712686538696	
72	223.9403841495514	movie	1		301.0	70.0	2.5	/experiments/knapen_aot/videos/S_ILSVRC2015_train_00371006.mp4	0.0	334.95540404319763	2.508687973022461
72	226.44907212257385	fix_post	2		12.0	70.0	2.5	/experiments/knapen_aot/videos/S_ILSVRC2015_train_00371006.mp4	0.0	337.4640920162201	0.09956097602844238
73	226.5486330986023	fix_pre	0		44.0	71.0	2.5	/experiments/knapen_aot/videos/S_ILSVRC2015_train_00538001.mp4	0.0	337.56365299224854	0.36664700508117676
73	226.90712809562683	response	0	2		71.0	2.5	/experiments/knapen_aot/videos/S_ILSVRC2015_train_00538001.mp4	0.0	337.92214798927307	
73	226.91528010368347	movie	1		301.0	71.0	2.5	/experiments/knapen_aot/videos/S_ILSVRC2015_train_00538001.mp4	0.0	337.9302999973297	2.508327007293701
73	229.42360711097717	fix_post	2		12.0	71.0	2.5	/experiments/knapen_aot/videos/S_ILSVRC2015_train_00538001.mp4	0.0	340.4386270046234	0.10024595260620117
74	229.52385306358337	fix_pre	0		26.0	72.0	2.5	/experiments/knapen_aot/videos/S_yt-mdLT282PVbE_6.mp4	0.0	340.5388729572296	0.2164609432220459
74	229.73207592964172	response	0	2		72.0	2.5	/experiments/knapen_aot/videos/S_yt-mdLT282PVbE_6.mp4	0.0	340.74709582328796	
74	229.74031400680542	movie	1		301.0	72.0	2.5	/experiments/knapen_aot/videos/S_yt-mdLT282PVbE_6.mp4	0.0	340.75533390045166	2.5084149837493896
74	232.2487289905548	fix_post	2		12.0	72.0	2.5	/experiments/knapen_aot/videos/S_yt-mdLT282PVbE_6.mp4	0.0	343.26374888420105	0.09996604919433594
75	232.34869503974915	fix_pre	0		16.0	73.0	2.5	/experiments/knapen_aot/videos/S_yt-OEY9O2MglQM_7.mp4	0.0	343.3637149333954	0.13316798210144043
75	232.47379207611084	response	0	2		73.0	2.5	/experiments/knapen_aot/videos/S_yt-OEY9O2MglQM_7.mp4	0.0	343.4888119697571	
75	232.4818630218506	movie	1		301.0	73.0	2.5	/experiments/knapen_aot/videos/S_yt-OEY9O2MglQM_7.mp4	0.0	343.4968829154968	2.508439064025879
75	234.99030208587646	fix_post	2		12.0	73.0	2.5	/experiments/knapen_aot/videos/S_yt-OEY9O2MglQM_7.mp4	0.0	346.0053219795227	0.10009002685546875
76	235.09039211273193	fix_pre	0		23.0	74.0	2.5	/experiments/knapen_aot/videos/S_bing-www_dailymotion_com_video_x4kcklg_53.mp4	0.0	346.1054120063782	0.19156289100646973
76	235.27369093894958	response	0	2		74.0	2.5	/experiments/knapen_aot/videos/S_bing-www_dailymotion_com_video_x4kcklg_53.mp4	0.0	346.2887108325958	
76	235.2819550037384	movie	1		166.0	74.0	2.5	/experiments/knapen_aot/videos/S_bing-www_dailymotion_com_video_x4kcklg_53.mp4	0.0	346.29697489738464	2.5083601474761963
76	237.7903151512146	fix_post	2		12.0	74.0	2.5	/experiments/knapen_aot/videos/S_bing-www_dailymotion_com_video_x4kcklg_53.mp4	0.0	348.80533504486084	0.10016798973083496
77	237.89048314094543	fix_pre	0		37.0	75.0	2.5	/experiments/knapen_aot/videos/S_yt-uX7qYKQm_pg_277.mp4	0.0	348.9055030345917	0.3081059455871582
77	238.19040513038635	response	0	2		75.0	2.5	/experiments/knapen_aot/videos/S_yt-uX7qYKQm_pg_277.mp4	0.0	349.2054250240326	
77	238.1985890865326	movie	1		301.0	75.0	2.5	/experiments/knapen_aot/videos/S_yt-uX7qYKQm_pg_277.mp4	0.0	349.21360898017883	2.508470058441162
77	240.70705914497375	fix_post	2		12.0	75.0	2.5	/experiments/knapen_aot/videos/S_yt-uX7qYKQm_pg_277.mp4	0.0	351.72207903862	0.10006284713745117
78	240.8071219921112	fix_pre	0		32.0	76.0	2.5	blank	1.0	351.82214188575745	0.26650404930114746
78	241.06538796424866	response	0	2		76.0	2.5	blank	1.0	352.0804078578949	
78	241.07362604141235	movie	1		301.0	76.0	2.5	blank	1.0	352.0886459350586	2.508333921432495
78	243.58195996284485	fix_post	2		12.0	76.0	2.5	blank	1.0	354.5969798564911	0.09990715980529785
79	243.68186712265015	fix_pre	0		45.0	77.0	2.5	/experiments/knapen_aot/videos/S_yt-IigHVUksnw8_7.mp4	0.0	354.6968870162964	0.3750448226928711
79	244.04873299598694	response	0	2		77.0	2.5	/experiments/knapen_aot/videos/S_yt-IigHVUksnw8_7.mp4	0.0	355.0637528896332	
79	244.05691194534302	movie	1		301.0	77.0	2.5	/experiments/knapen_aot/videos/S_yt-IigHVUksnw8_7.mp4	0.0	355.07193183898926	2.5083420276641846
79	246.5652539730072	fix_post	2		12.0	77.0	2.5	/experiments/knapen_aot/videos/S_yt-IigHVUksnw8_7.mp4	0.0	357.58027386665344	0.09991312026977539
80	246.66516709327698	fix_pre	0		53.0	78.0	2.5	/experiments/knapen_aot/videos/R_S_yt-kxWtOXNIsRA_329.mp4	0.0	357.6801869869232	0.4416780471801758
80	247.09875011444092	response	0	2		78.0	2.5	/experiments/knapen_aot/videos/R_S_yt-kxWtOXNIsRA_329.mp4	0.0	358.11377000808716	
80	247.10684514045715	movie	1		301.0	78.0	2.5	/experiments/knapen_aot/videos/R_S_yt-kxWtOXNIsRA_329.mp4	0.0	358.1218650341034	2.5085108280181885
80	249.61535596847534	fix_post	2		12.0	78.0	2.5	/experiments/knapen_aot/videos/R_S_yt-kxWtOXNIsRA_329.mp4	0.0	360.6303758621216	0.0999150276184082
81	249.71527099609375	fix_pre	0		28.0	79.0	2.5	/experiments/knapen_aot/videos/S_yt-_WFwhcmbXXY_51.mp4	0.0	360.73029088974	0.23326706886291504
81	249.94037008285522	response	0	2		79.0	2.5	/experiments/knapen_aot/videos/S_yt-_WFwhcmbXXY_51.mp4	0.0	360.95538997650146	
81	249.94853806495667	movie	1		301.0	79.0	2.5	/experiments/knapen_aot/videos/S_yt-_WFwhcmbXXY_51.mp4	0.0	360.9635579586029	2.5083038806915283
81	252.4568419456482	fix_post	2		12.0	79.0	2.5	/experiments/knapen_aot/videos/S_yt-_WFwhcmbXXY_51.mp4	0.0	363.47186183929443	0.09999203681945801
82	252.55683398246765	fix_pre	0		38.0	80.0	2.5	/experiments/knapen_aot/videos/S_ILSVRC2015_train_00369002.mp4	0.0	363.5718538761139	0.31672215461730957
82	252.8578040599823	response	0	2		80.0	2.5	/experiments/knapen_aot/videos/S_ILSVRC2015_train_00369002.mp4	0.0	363.87282395362854	
82	252.87355613708496	movie	1		300.0	80.0	2.5	/experiments/knapen_aot/videos/S_ILSVRC2015_train_00369002.mp4	0.0	363.8885760307312	2.5083019733428955
82	255.38185811042786	fix_post	2		12.0	80.0	2.5	/experiments/knapen_aot/videos/S_ILSVRC2015_train_00369002.mp4	0.0	366.3968780040741	0.10019803047180176
83	255.48205614089966	fix_pre	0		13.0	81.0	2.5	/experiments/knapen_aot/videos/R_S_yt-AjyR9--Mx3A_44.mp4	0.0	366.4970760345459	0.10917782783508301
83	255.58190512657166	response	0	2		81.0	2.5	/experiments/knapen_aot/videos/R_S_yt-AjyR9--Mx3A_44.mp4	0.0	366.5969250202179	
83	255.59123396873474	movie	1		301.0	81.0	2.5	/experiments/knapen_aot/videos/R_S_yt-AjyR9--Mx3A_44.mp4	0.0	366.606253862381	2.507560968399048
83	258.0987949371338	fix_post	2		12.0	81.0	2.5	/experiments/knapen_aot/videos/R_S_yt-AjyR9--Mx3A_44.mp4	0.0	369.11381483078003	0.09979820251464844
83	258.16536593437195	response	2	2		81.0	2.5	/experiments/knapen_aot/videos/R_S_yt-AjyR9--Mx3A_44.mp4	0.0	369.1803858280182	
84	258.19859313964844	fix_pre	0		83.0	82.0	2.5	/experiments/knapen_aot/videos/R_S_yt-RXqc3JAmmPM_72.mp4	0.0	369.2136130332947	0.6916019916534424
84	258.881942987442	response	0	2		82.0	2.5	/experiments/knapen_aot/videos/R_S_yt-RXqc3JAmmPM_72.mp4	0.0	369.89696288108826	
84	258.8901951313019	movie	1		301.0	82.0	2.5	/experiments/knapen_aot/videos/R_S_yt-RXqc3JAmmPM_72.mp4	0.0	369.9052150249481	2.508363962173462
84	261.39855909347534	fix_post	2		12.0	82.0	2.5	/experiments/knapen_aot/videos/R_S_yt-RXqc3JAmmPM_72.mp4	0.0	372.4135789871216	0.09996795654296875
85	261.4985270500183	fix_pre	0		34.0	83.0	2.5	blank	1.0	372.51354694366455	0.2833399772644043
85	261.7737090587616	response	0	2		83.0	2.5	blank	1.0	372.78872895240784	
85	261.7818670272827	movie	1		301.0	83.0	2.5	blank	1.0	372.79688692092896	2.508347988128662
85	264.2902150154114	fix_post	2		12.0	83.0	2.5	blank	1.0	375.3052349090576	0.10006403923034668
87	264.3902790546417	stim	0		233.0					375.40529894828796	1.9438989162445068
87	264.5736379623413	response	0	2						375.58865785598755	
87	266.3272910118103	response	0	space						377.34231090545654	
