trial_nr	onset	event_type	phase	response	nr_frames	movie_index	movie_duration	movie_file	blank	onset_abs	duration
0	0.12489199638366699	stim	0		51.0					59.623631954193115	0.42504096031188965
0	0.5344610214233398	response	0	space						60.03320097923279	
1	0.5499329566955566	stim	0		121.0					60.048672914505005	1.0082690715789795
1	1.4750299453735352	response	0	space						60.97376990318298	
1	1.5582020282745361	stim	1		120.0					61.056941986083984	0.9997749328613281
1	1.9337379932403564	response	1	space						61.432477951049805	
2	2.5579769611358643	fix_pre	0		35.0	0.0	2.5	/experiments/knapen_aot/videos/R_S_ILSVRC2015_train_00495000.mp4	0.0	62.05671691894531	0.29149508476257324
2	2.8413169384002686	response	0	space		0.0	2.5	/experiments/knapen_aot/videos/R_S_ILSVRC2015_train_00495000.mp4	0.0	62.34005689620972	
2	2.8494720458984375	movie	1		301.0	0.0	2.5	/experiments/knapen_aot/videos/R_S_ILSVRC2015_train_00495000.mp4	0.0	62.348212003707886	2.5084030628204346
2	5.357875108718872	fix_post	2		12.0	0.0	2.5	/experiments/knapen_aot/videos/R_S_ILSVRC2015_train_00495000.mp4	0.0	64.85661506652832	0.10008883476257324
3	5.457963943481445	fix_pre	0		17.0	1.0	2.5	/experiments/knapen_aot/videos/S_yt-tfHCqgH1guY_235.mp4	0.0	64.9567039012909	0.14572620391845703
3	5.594253063201904	response	0	2		1.0	2.5	/experiments/knapen_aot/videos/S_yt-tfHCqgH1guY_235.mp4	0.0	65.09299302101135	
3	5.603690147399902	movie	1		300.0	1.0	2.5	/experiments/knapen_aot/videos/S_yt-tfHCqgH1guY_235.mp4	0.0	65.10243010520935	2.5041959285736084
3	8.10788607597351	fix_post	2		12.0	1.0	2.5	/experiments/knapen_aot/videos/S_yt-tfHCqgH1guY_235.mp4	0.0	67.60662603378296	0.09999394416809082
4	8.207880020141602	fix_pre	0		41.0	2.0	2.5	/experiments/knapen_aot/videos/R_S_yt-e_eOzV7qMZo_374.mp4	0.0	67.70661997795105	0.34167909622192383
4	8.541285991668701	response	0	2		2.0	2.5	/experiments/knapen_aot/videos/R_S_yt-e_eOzV7qMZo_374.mp4	0.0	68.04002594947815	
4	8.549559116363525	movie	1		301.0	2.0	2.5	/experiments/knapen_aot/videos/R_S_yt-e_eOzV7qMZo_374.mp4	0.0	68.04829907417297	2.508328914642334
4	11.05788803100586	fix_post	2		12.0	2.0	2.5	/experiments/knapen_aot/videos/R_S_yt-e_eOzV7qMZo_374.mp4	0.0	70.55662798881531	0.09990692138671875
5	11.157794952392578	fix_pre	0		36.0	3.0	2.5	/experiments/knapen_aot/videos/S_ILSVRC2015_train_00495000.mp4	0.0	70.65653491020203	0.30002307891845703
5	11.449594020843506	response	0	2		3.0	2.5	/experiments/knapen_aot/videos/S_ILSVRC2015_train_00495000.mp4	0.0	70.94833397865295	
5	11.457818031311035	movie	1		301.0	3.0	2.5	/experiments/knapen_aot/videos/S_ILSVRC2015_train_00495000.mp4	0.0	70.95655798912048	2.508573055267334
5	13.96639108657837	fix_post	2		12.0	3.0	2.5	/experiments/knapen_aot/videos/S_ILSVRC2015_train_00495000.mp4	0.0	73.46513104438782	0.09977483749389648
6	14.066165924072266	fix_pre	0		17.0	4.0	2.5	/experiments/knapen_aot/videos/R_S_yt-HwEfWfFJhRo_126.mp4	0.0	73.56490588188171	0.14164018630981445
6	14.199651956558228	response	0	2		4.0	2.5	/experiments/knapen_aot/videos/R_S_yt-HwEfWfFJhRo_126.mp4	0.0	73.69839191436768	
6	14.20780611038208	movie	1		301.0	4.0	2.5	/experiments/knapen_aot/videos/R_S_yt-HwEfWfFJhRo_126.mp4	0.0	73.70654606819153	2.5083749294281006
6	16.71618103981018	fix_post	2		12.0	4.0	2.5	/experiments/knapen_aot/videos/R_S_yt-HwEfWfFJhRo_126.mp4	0.0	76.21492099761963	0.09999394416809082
7	16.81617498397827	fix_pre	0		19.0	5.0	2.5	/experiments/knapen_aot/videos/S_yt-KM_SJx8CMGc_10.mp4	0.0	76.31491494178772	0.15828204154968262
7	16.966246128082275	response	0	2		5.0	2.5	/experiments/knapen_aot/videos/S_yt-KM_SJx8CMGc_10.mp4	0.0	76.46498608589172	
7	16.974457025527954	movie	1		301.0	5.0	2.5	/experiments/knapen_aot/videos/S_yt-KM_SJx8CMGc_10.mp4	0.0	76.4731969833374	2.5083489418029785
7	19.482805967330933	fix_post	2		12.0	5.0	2.5	/experiments/knapen_aot/videos/S_yt-KM_SJx8CMGc_10.mp4	0.0	78.98154592514038	0.10004401206970215
8	19.582849979400635	fix_pre	0		2.0	6.0	2.5	blank	1.0	79.08158993721008	0.01661396026611328
8	19.591223001480103	response	0	2		6.0	2.5	blank	1.0	79.08996295928955	
8	19.599463939666748	movie	1		301.0	6.0	2.5	blank	1.0	79.0982038974762	2.5083231925964355
8	22.107787132263184	fix_post	2		12.0	6.0	2.5	blank	1.0	81.60652709007263	0.09998583793640137
9	22.207772970199585	fix_pre	0		36.0	7.0	2.5	/experiments/knapen_aot/videos/S_yt-8QCcmqaEMPI_16.mp4	0.0	81.70651292800903	0.3000309467315674
9	22.49201798439026	response	0	2		7.0	2.5	/experiments/knapen_aot/videos/S_yt-8QCcmqaEMPI_16.mp4	0.0	81.9907579421997	
9	22.507803916931152	movie	1		301.0	7.0	2.5	/experiments/knapen_aot/videos/S_yt-8QCcmqaEMPI_16.mp4	0.0	82.0065438747406	2.5082881450653076
9	25.01609206199646	fix_post	2		12.0	7.0	2.5	/experiments/knapen_aot/videos/S_yt-8QCcmqaEMPI_16.mp4	0.0	84.51483201980591	0.10002303123474121
10	25.1161150932312	fix_pre	0		40.0	8.0	2.5	/experiments/knapen_aot/videos/R_S_yt-EKPrSw5xF7k_112.mp4	0.0	84.61485505104065	0.3332839012145996
10	25.441229104995728	response	0	2		8.0	2.5	/experiments/knapen_aot/videos/R_S_yt-EKPrSw5xF7k_112.mp4	0.0	84.93996906280518	
10	25.4493989944458	movie	1		301.0	8.0	2.5	/experiments/knapen_aot/videos/R_S_yt-EKPrSw5xF7k_112.mp4	0.0	84.94813895225525	2.5086090564727783
10	27.95800805091858	fix_post	2		12.0	8.0	2.5	/experiments/knapen_aot/videos/R_S_yt-EKPrSw5xF7k_112.mp4	0.0	87.45674800872803	0.09977507591247559
11	28.057783126831055	fix_pre	0		37.0	9.0	2.5	/experiments/knapen_aot/videos/S_pexels-c-technical-6753390_2.mp4	0.0	87.5565230846405	0.3082578182220459
11	28.357919931411743	response	0	2		9.0	2.5	/experiments/knapen_aot/videos/S_pexels-c-technical-6753390_2.mp4	0.0	87.85665988922119	
11	28.3660409450531	movie	1		208.0	9.0	2.5	/experiments/knapen_aot/videos/S_pexels-c-technical-6753390_2.mp4	0.0	87.86478090286255	2.5084381103515625
11	30.874479055404663	fix_post	2		12.0	9.0	2.5	/experiments/knapen_aot/videos/S_pexels-c-technical-6753390_2.mp4	0.0	90.37321901321411	0.09992599487304688
12	30.97440505027771	fix_pre	0		29.0	10.0	2.5	/experiments/knapen_aot/videos/S_yt-2ftSsLqRQnA_84.mp4	0.0	90.47314500808716	0.24161791801452637
12	31.207911014556885	response	0	2		10.0	2.5	/experiments/knapen_aot/videos/S_yt-2ftSsLqRQnA_84.mp4	0.0	90.70665097236633	
12	31.216022968292236	movie	1		301.0	10.0	2.5	/experiments/knapen_aot/videos/S_yt-2ftSsLqRQnA_84.mp4	0.0	90.71476292610168	2.5085041522979736
12	33.72452712059021	fix_post	2		12.0	10.0	2.5	/experiments/knapen_aot/videos/S_yt-2ftSsLqRQnA_84.mp4	0.0	93.22326707839966	0.09988689422607422
13	33.824414014816284	fix_pre	0		38.0	11.0	2.5	/experiments/knapen_aot/videos/R_S_yt-bOgChEHiroI_20.mp4	0.0	93.32315397262573	0.3165919780731201
13	34.132848024368286	response	0	2		11.0	2.5	/experiments/knapen_aot/videos/R_S_yt-bOgChEHiroI_20.mp4	0.0	93.63158798217773	
13	34.141005992889404	movie	1		301.0	11.0	2.5	/experiments/knapen_aot/videos/R_S_yt-bOgChEHiroI_20.mp4	0.0	93.63974595069885	2.508378028869629
13	36.64938402175903	fix_post	2		12.0	11.0	2.5	/experiments/knapen_aot/videos/R_S_yt-bOgChEHiroI_20.mp4	0.0	96.14812397956848	0.10003495216369629
14	36.74941897392273	fix_pre	0		13.0	12.0	2.5	/experiments/knapen_aot/videos/R_S_pexels-c-technical-6754008.mp4	0.0	96.24815893173218	0.10832595825195312
14	36.84942412376404	response	0	2		12.0	2.5	/experiments/knapen_aot/videos/R_S_pexels-c-technical-6754008.mp4	0.0	96.34816408157349	
14	36.85774493217468	movie	1		200.0	12.0	2.5	/experiments/knapen_aot/videos/R_S_pexels-c-technical-6754008.mp4	0.0	96.35648488998413	2.5083181858062744
14	39.36606311798096	fix_post	2		12.0	12.0	2.5	/experiments/knapen_aot/videos/R_S_pexels-c-technical-6754008.mp4	0.0	98.8648030757904	0.1000208854675293
15	39.466084003448486	fix_pre	0		20.0	13.0	2.5	blank	1.0	98.96482396125793	0.16660714149475098
15	39.624510049819946	response	0	2		13.0	2.5	blank	1.0	99.1232500076294	
15	39.63269114494324	movie	1		301.0	13.0	2.5	blank	1.0	99.13143110275269	2.508469820022583
15	42.14116096496582	fix_post	2		12.0	13.0	2.5	blank	1.0	101.63990092277527	0.09992098808288574
16	42.241081953048706	fix_pre	0		34.0	14.0	2.5	/experiments/knapen_aot/videos/S_yt-iO0efV_PV-k_102.mp4	0.0	101.73982191085815	0.28324317932128906
16	42.51612305641174	response	0	2		14.0	2.5	/experiments/knapen_aot/videos/S_yt-iO0efV_PV-k_102.mp4	0.0	102.01486301422119	
16	42.524325132369995	movie	1		301.0	14.0	2.5	/experiments/knapen_aot/videos/S_yt-iO0efV_PV-k_102.mp4	0.0	102.02306509017944	2.5084688663482666
16	45.03279399871826	fix_post	2		12.0	14.0	2.5	/experiments/knapen_aot/videos/S_yt-iO0efV_PV-k_102.mp4	0.0	104.53153395652771	0.09996199607849121
17	45.13275599479675	fix_pre	0		28.0	15.0	2.5	/experiments/knapen_aot/videos/S_yt-YCjbGOPBQHw_131.mp4	0.0	104.6314959526062	0.23445796966552734
17	45.35781693458557	response	0	2		15.0	2.5	/experiments/knapen_aot/videos/S_yt-YCjbGOPBQHw_131.mp4	0.0	104.85655689239502	
17	45.36721396446228	movie	1		301.0	15.0	2.5	/experiments/knapen_aot/videos/S_yt-YCjbGOPBQHw_131.mp4	0.0	104.86595392227173	2.507272958755493
17	47.87448692321777	fix_post	2		12.0	15.0	2.5	/experiments/knapen_aot/videos/S_yt-YCjbGOPBQHw_131.mp4	0.0	107.37322688102722	0.09987521171569824
18	47.97436213493347	fix_pre	0		42.0	16.0	2.5	/experiments/knapen_aot/videos/S_comp_LA_A006_C004_v01_SDR_FINAL_PS_20180730_SDR_2K_AVC.mp4	0.0	107.47310209274292	0.3511819839477539
18	48.316144943237305	response	0	2		16.0	2.5	/experiments/knapen_aot/videos/S_comp_LA_A006_C004_v01_SDR_FINAL_PS_20180730_SDR_2K_AVC.mp4	0.0	107.81488490104675	
18	48.325544118881226	movie	1		165.0	16.0	2.5	/experiments/knapen_aot/videos/S_comp_LA_A006_C004_v01_SDR_FINAL_PS_20180730_SDR_2K_AVC.mp4	0.0	107.82428407669067	2.507352828979492
18	50.83289694786072	fix_post	2		12.0	16.0	2.5	/experiments/knapen_aot/videos/S_comp_LA_A006_C004_v01_SDR_FINAL_PS_20180730_SDR_2K_AVC.mp4	0.0	110.33163690567017	0.09979510307312012
19	50.93269205093384	fix_pre	0		35.0	17.0	2.5	/experiments/knapen_aot/videos/R_S_yt-8QCcmqaEMPI_16.mp4	0.0	110.43143200874329	0.2915670871734619
19	51.216017961502075	response	0	2		17.0	2.5	/experiments/knapen_aot/videos/R_S_yt-8QCcmqaEMPI_16.mp4	0.0	110.71475791931152	
19	51.2242591381073	movie	1		301.0	17.0	2.5	/experiments/knapen_aot/videos/R_S_yt-8QCcmqaEMPI_16.mp4	0.0	110.72299909591675	2.5084269046783447
19	53.732686042785645	fix_post	2		12.0	17.0	2.5	/experiments/knapen_aot/videos/R_S_yt-8QCcmqaEMPI_16.mp4	0.0	113.23142600059509	0.10004901885986328
20	53.83273506164551	fix_pre	0		25.0	18.0	2.5	/experiments/knapen_aot/videos/R_S_yt-0lfSyC79n14_7.mp4	0.0	113.33147501945496	0.20817995071411133
20	54.025126934051514	response	0	2		18.0	2.5	/experiments/knapen_aot/videos/R_S_yt-0lfSyC79n14_7.mp4	0.0	113.52386689186096	
20	54.04091501235962	movie	1		301.0	18.0	2.5	/experiments/knapen_aot/videos/R_S_yt-0lfSyC79n14_7.mp4	0.0	113.53965497016907	2.5086140632629395
20	56.54952907562256	fix_post	2		12.0	18.0	2.5	/experiments/knapen_aot/videos/R_S_yt-0lfSyC79n14_7.mp4	0.0	116.048269033432	0.09977102279663086
21	56.64930009841919	fix_pre	0		59.0	19.0	2.5	/experiments/knapen_aot/videos/R_S_yt-kAUL5o7i5mo_116.mp4	0.0	116.14804005622864	0.4916269779205322
21	57.13273596763611	response	0	2		19.0	2.5	/experiments/knapen_aot/videos/R_S_yt-kAUL5o7i5mo_116.mp4	0.0	116.63147592544556	
21	57.14092707633972	movie	1		301.0	19.0	2.5	/experiments/knapen_aot/videos/R_S_yt-kAUL5o7i5mo_116.mp4	0.0	116.63966703414917	2.5083298683166504
21	59.64925694465637	fix_post	2		12.0	19.0	2.5	/experiments/knapen_aot/videos/R_S_yt-kAUL5o7i5mo_116.mp4	0.0	119.14799690246582	0.10003399848937988
22	59.74929094314575	fix_pre	0		46.0	20.0	2.5	/experiments/knapen_aot/videos/S_yt-GBt59U0KUR0_6.mp4	0.0	119.2480309009552	0.38330507278442383
22	60.12443208694458	response	0	2		20.0	2.5	/experiments/knapen_aot/videos/S_yt-GBt59U0KUR0_6.mp4	0.0	119.62317204475403	
22	60.132596015930176	movie	1		301.0	20.0	2.5	/experiments/knapen_aot/videos/S_yt-GBt59U0KUR0_6.mp4	0.0	119.63133597373962	2.5083649158477783
22	62.640960931777954	fix_post	2		12.0	20.0	2.5	/experiments/knapen_aot/videos/S_yt-GBt59U0KUR0_6.mp4	0.0	122.1397008895874	0.09998512268066406
23	62.74094605445862	fix_pre	0		37.0	21.0	2.5	blank	1.0	122.23968601226807	0.3084449768066406
23	63.04105496406555	response	0	2		21.0	2.5	blank	1.0	122.539794921875	
23	63.04939103126526	movie	1		301.0	21.0	2.5	blank	1.0	122.5481309890747	2.508394956588745
23	65.557785987854	fix_post	2		12.0	21.0	2.5	blank	1.0	125.05652594566345	0.0998380184173584
24	65.65762400627136	fix_pre	0		53.0	22.0	2.5	/experiments/knapen_aot/videos/R_S_bing-www_dailymotion_com_video_x64c56w_164.mp4	0.0	125.15636396408081	0.4416310787200928
24	66.09101891517639	response	0	2		22.0	2.5	/experiments/knapen_aot/videos/R_S_bing-www_dailymotion_com_video_x64c56w_164.mp4	0.0	125.58975887298584	
24	66.09925508499146	movie	1		165.0	22.0	2.5	/experiments/knapen_aot/videos/R_S_bing-www_dailymotion_com_video_x64c56w_164.mp4	0.0	125.5979950428009	2.5083529949188232
24	68.60760807991028	fix_post	2		12.0	22.0	2.5	/experiments/knapen_aot/videos/R_S_bing-www_dailymotion_com_video_x64c56w_164.mp4	0.0	128.10634803771973	0.10000991821289062
25	68.70761799812317	fix_pre	0		15.0	23.0	2.5	/experiments/knapen_aot/videos/S_yt-sTBOjPxix5c_1072.mp4	0.0	128.20635795593262	0.12489199638366699
25	68.8243579864502	response	0	2		23.0	2.5	/experiments/knapen_aot/videos/S_yt-sTBOjPxix5c_1072.mp4	0.0	128.32309794425964	
25	68.83250999450684	movie	1		301.0	23.0	2.5	/experiments/knapen_aot/videos/S_yt-sTBOjPxix5c_1072.mp4	0.0	128.33124995231628	2.5083911418914795
25	71.34090113639832	fix_post	2		12.0	23.0	2.5	/experiments/knapen_aot/videos/S_yt-sTBOjPxix5c_1072.mp4	0.0	130.83964109420776	0.10001492500305176
26	71.44091606140137	fix_pre	0		28.0	24.0	2.5	/experiments/knapen_aot/videos/R_S_yt-n2PnABmSpxI_115.mp4	0.0	130.93965601921082	0.23326706886291504
26	71.66614007949829	response	0	2		24.0	2.5	/experiments/knapen_aot/videos/R_S_yt-n2PnABmSpxI_115.mp4	0.0	131.16488003730774	
26	71.67418313026428	movie	1		301.0	24.0	2.5	/experiments/knapen_aot/videos/R_S_yt-n2PnABmSpxI_115.mp4	0.0	131.17292308807373	2.5083179473876953
26	74.18250107765198	fix_post	2		12.0	24.0	2.5	/experiments/knapen_aot/videos/R_S_yt-n2PnABmSpxI_115.mp4	0.0	133.68124103546143	0.10006189346313477
27	74.28256297111511	fix_pre	0		24.0	25.0	2.5	/experiments/knapen_aot/videos/R_S_wc-TAGpcap1KdAS_212.mp4	0.0	133.78130292892456	0.19997715950012207
27	74.47422003746033	response	0	2		25.0	2.5	/experiments/knapen_aot/videos/R_S_wc-TAGpcap1KdAS_212.mp4	0.0	133.97295999526978	
27	74.48254013061523	movie	1		301.0	25.0	2.5	/experiments/knapen_aot/videos/R_S_wc-TAGpcap1KdAS_212.mp4	0.0	133.98128008842468	2.50834584236145
27	76.99088597297668	fix_post	2		12.0	25.0	2.5	/experiments/knapen_aot/videos/R_S_wc-TAGpcap1KdAS_212.mp4	0.0	136.48962593078613	0.10001707077026367
28	77.09090304374695	fix_pre	0		32.0	26.0	2.5	/experiments/knapen_aot/videos/R_S_yt-H5LQq4MPIao_660.mp4	0.0	136.5896430015564	0.26659703254699707
28	77.34930300712585	response	0	2		26.0	2.5	/experiments/knapen_aot/videos/R_S_yt-H5LQq4MPIao_660.mp4	0.0	136.8480429649353	
28	77.35750007629395	movie	1		301.0	26.0	2.5	/experiments/knapen_aot/videos/R_S_yt-H5LQq4MPIao_660.mp4	0.0	136.8562400341034	2.5084240436553955
28	79.86592411994934	fix_post	2		12.0	26.0	2.5	/experiments/knapen_aot/videos/R_S_yt-H5LQq4MPIao_660.mp4	0.0	139.3646640777588	0.0999917984008789
29	79.96591591835022	fix_pre	0		48.0	27.0	2.5	blank	1.0	139.46465587615967	0.39995503425598145
29	80.35759496688843	response	0	2		27.0	2.5	blank	1.0	139.85633492469788	
29	80.3658709526062	movie	1		301.0	27.0	2.5	blank	1.0	139.86461091041565	2.5083069801330566
29	82.87417793273926	fix_post	2		12.0	27.0	2.5	blank	1.0	142.3729178905487	0.10001111030578613
30	82.97418904304504	fix_pre	0		60.0	28.0	2.5	/experiments/knapen_aot/videos/R_S_ILSVRC2015_train_00373000.mp4	0.0	142.4729290008545	0.49993205070495605
30	83.4659149646759	response	0	2		28.0	2.5	/experiments/knapen_aot/videos/R_S_ILSVRC2015_train_00373000.mp4	0.0	142.96465492248535	
30	83.47412109375	movie	1		301.0	28.0	2.5	/experiments/knapen_aot/videos/R_S_ILSVRC2015_train_00373000.mp4	0.0	142.97286105155945	2.508389949798584
30	85.98251104354858	fix_post	2		12.0	28.0	2.5	/experiments/knapen_aot/videos/R_S_ILSVRC2015_train_00373000.mp4	0.0	145.48125100135803	0.10001397132873535
31	86.08252501487732	fix_pre	0		14.0	29.0	2.5	/experiments/knapen_aot/videos/R_S_bing-www_nytimes_com_video_dining_1247468118505_grilled-chicken-breasts-with-herb-butter_html_132.mp4	0.0	145.58126497268677	0.1175529956817627
31	86.183434009552	response	0	2		29.0	2.5	/experiments/knapen_aot/videos/R_S_bing-www_nytimes_com_video_dining_1247468118505_grilled-chicken-breasts-with-herb-butter_html_132.mp4	0.0	145.68217396736145	
31	86.20007801055908	movie	1		164.0	29.0	2.5	/experiments/knapen_aot/videos/R_S_bing-www_nytimes_com_video_dining_1247468118505_grilled-chicken-breasts-with-herb-butter_html_132.mp4	0.0	145.69881796836853	2.507452964782715
31	88.7075309753418	fix_post	2		12.0	29.0	2.5	/experiments/knapen_aot/videos/R_S_bing-www_nytimes_com_video_dining_1247468118505_grilled-chicken-breasts-with-herb-butter_html_132.mp4	0.0	148.20627093315125	0.09998011589050293
32	88.8075110912323	fix_pre	0		33.0	30.0	2.5	/experiments/knapen_aot/videos/R_S_gHYomsO1dSU_5.mp4	0.0	148.30625104904175	0.27499985694885254
32	89.07423710823059	response	0	2		30.0	2.5	/experiments/knapen_aot/videos/R_S_gHYomsO1dSU_5.mp4	0.0	148.57297706604004	
32	89.08251094818115	movie	1		301.0	30.0	2.5	/experiments/knapen_aot/videos/R_S_gHYomsO1dSU_5.mp4	0.0	148.5812509059906	2.508347988128662
32	91.59085893630981	fix_post	2		12.0	30.0	2.5	/experiments/knapen_aot/videos/R_S_gHYomsO1dSU_5.mp4	0.0	151.08959889411926	0.09998416900634766
33	91.69084310531616	fix_pre	0		37.0	31.0	2.5	/experiments/knapen_aot/videos/R_S_G008_C015_UHD_SDR_2K_AVC.mp4	0.0	151.1895830631256	0.3083188533782959
33	91.99090814590454	response	0	2		31.0	2.5	/experiments/knapen_aot/videos/R_S_G008_C015_UHD_SDR_2K_AVC.mp4	0.0	151.489648103714	
33	91.99916195869446	movie	1		187.0	31.0	2.5	/experiments/knapen_aot/videos/R_S_G008_C015_UHD_SDR_2K_AVC.mp4	0.0	151.4979019165039	2.508357048034668
33	94.50751900672913	fix_post	2		12.0	31.0	2.5	/experiments/knapen_aot/videos/R_S_G008_C015_UHD_SDR_2K_AVC.mp4	0.0	154.00625896453857	0.09993100166320801
34	94.60745000839233	fix_pre	0		33.0	32.0	2.5	/experiments/knapen_aot/videos/S_yt-K_gHa2x2OQA_319.mp4	0.0	154.10618996620178	0.274960994720459
34	94.87419700622559	response	0	2		32.0	2.5	/experiments/knapen_aot/videos/S_yt-K_gHa2x2OQA_319.mp4	0.0	154.37293696403503	
34	94.8824110031128	movie	1		301.0	32.0	2.5	/experiments/knapen_aot/videos/S_yt-K_gHa2x2OQA_319.mp4	0.0	154.38115096092224	2.508474111557007
34	97.3908851146698	fix_post	2		12.0	32.0	2.5	/experiments/knapen_aot/videos/S_yt-K_gHa2x2OQA_319.mp4	0.0	156.88962507247925	0.09998083114624023
35	97.49086594581604	fix_pre	0		33.0	33.0	2.5	/experiments/knapen_aot/videos/R_S_yt-GBt59U0KUR0_6.mp4	0.0	156.9896059036255	0.27491307258605957
35	97.75754499435425	response	0	2		33.0	2.5	/experiments/knapen_aot/videos/R_S_yt-GBt59U0KUR0_6.mp4	0.0	157.2562849521637	
35	97.7657790184021	movie	1		301.0	33.0	2.5	/experiments/knapen_aot/videos/R_S_yt-GBt59U0KUR0_6.mp4	0.0	157.26451897621155	2.5083351135253906
35	100.27411413192749	fix_post	2		12.0	33.0	2.5	/experiments/knapen_aot/videos/R_S_yt-GBt59U0KUR0_6.mp4	0.0	159.77285408973694	0.09999585151672363
36	100.37410998344421	fix_pre	0		51.0	34.0	2.5	blank	1.0	159.87284994125366	0.4248790740966797
36	100.7909369468689	response	0	2		34.0	2.5	blank	1.0	160.28967690467834	
36	100.7989890575409	movie	1		301.0	34.0	2.5	blank	1.0	160.29772901535034	2.5084729194641113
36	103.307461977005	fix_post	2		12.0	34.0	2.5	blank	1.0	162.80620193481445	0.09998297691345215
37	103.40744495391846	fix_pre	0		44.0	35.0	2.5	/experiments/knapen_aot/videos/S_yt-2OoHcgS8sss_7.mp4	0.0	162.9061849117279	0.3666510581970215
37	103.7658360004425	response	0	2		35.0	2.5	/experiments/knapen_aot/videos/S_yt-2OoHcgS8sss_7.mp4	0.0	163.26457595825195	
37	103.77409601211548	movie	1		301.0	35.0	2.5	/experiments/knapen_aot/videos/S_yt-2OoHcgS8sss_7.mp4	0.0	163.27283596992493	2.508327007293701
37	106.28242301940918	fix_post	2		12.0	35.0	2.5	/experiments/knapen_aot/videos/S_yt-2OoHcgS8sss_7.mp4	0.0	165.78116297721863	0.10000300407409668
38	106.38242602348328	fix_pre	0		49.0	36.0	2.5	/experiments/knapen_aot/videos/S_ILSVRC2015_train_00373000.mp4	0.0	165.88116598129272	0.4083259105682373
38	106.78248691558838	response	0	2		36.0	2.5	/experiments/knapen_aot/videos/S_ILSVRC2015_train_00373000.mp4	0.0	166.28122687339783	
38	106.79075193405151	movie	1		301.0	36.0	2.5	/experiments/knapen_aot/videos/S_ILSVRC2015_train_00373000.mp4	0.0	166.28949189186096	2.508289098739624
38	109.29904103279114	fix_post	2		12.0	36.0	2.5	/experiments/knapen_aot/videos/S_ILSVRC2015_train_00373000.mp4	0.0	168.7977809906006	0.10004591941833496
39	109.39908695220947	fix_pre	0		34.0	37.0	2.5	/experiments/knapen_aot/videos/S_wc-eJe3wXMgTLRV_20.mp4	0.0	168.89782691001892	0.2832651138305664
39	109.67421412467957	response	0	2		37.0	2.5	/experiments/knapen_aot/videos/S_wc-eJe3wXMgTLRV_20.mp4	0.0	169.172954082489	
39	109.68235206604004	movie	1		163.0	37.0	2.5	/experiments/knapen_aot/videos/S_wc-eJe3wXMgTLRV_20.mp4	0.0	169.1810920238495	2.5083770751953125
39	112.19072914123535	fix_post	2		12.0	37.0	2.5	/experiments/knapen_aot/videos/S_wc-eJe3wXMgTLRV_20.mp4	0.0	171.6894690990448	0.0999448299407959
40	112.29067397117615	fix_pre	0		33.0	38.0	2.5	/experiments/knapen_aot/videos/S_yt-IXMtF998XFY_547.mp4	0.0	171.7894139289856	0.27501702308654785
40	112.55752992630005	response	0	2		38.0	2.5	/experiments/knapen_aot/videos/S_yt-IXMtF998XFY_547.mp4	0.0	172.0562698841095	
40	112.5656909942627	movie	1		301.0	38.0	2.5	/experiments/knapen_aot/videos/S_yt-IXMtF998XFY_547.mp4	0.0	172.06443095207214	2.5083789825439453
40	115.07406997680664	fix_post	2		12.0	38.0	2.5	/experiments/knapen_aot/videos/S_yt-IXMtF998XFY_547.mp4	0.0	174.5728099346161	0.10002613067626953
41	115.17409610748291	fix_pre	0		41.0	39.0	2.5	/experiments/knapen_aot/videos/R_S_wc-eJe3wXMgTLRV_20.mp4	0.0	174.67283606529236	0.3415799140930176
41	115.50751614570618	response	0	2		39.0	2.5	/experiments/knapen_aot/videos/R_S_wc-eJe3wXMgTLRV_20.mp4	0.0	175.00625610351562	
41	115.51567602157593	movie	1		167.0	39.0	2.5	/experiments/knapen_aot/videos/R_S_wc-eJe3wXMgTLRV_20.mp4	0.0	175.01441597938538	2.5084431171417236
41	118.02411913871765	fix_post	2		12.0	39.0	2.5	/experiments/knapen_aot/videos/R_S_wc-eJe3wXMgTLRV_20.mp4	0.0	177.5228590965271	0.0999000072479248
42	118.12401914596558	fix_pre	0		39.0	40.0	2.5	blank	1.0	177.62275910377502	0.32576799392700195
42	118.44078707695007	response	0	2		40.0	2.5	blank	1.0	177.93952703475952	
42	118.44978713989258	movie	1		301.0	40.0	2.5	blank	1.0	177.94852709770203	2.507513999938965
42	120.95730113983154	fix_post	2		12.0	40.0	2.5	blank	1.0	180.456041097641	0.10003995895385742
43	121.0573410987854	fix_pre	0		29.0	41.0	2.5	/experiments/knapen_aot/videos/R_S_yt-4RKOPaRF42o_124.mp4	0.0	180.55608105659485	0.2417159080505371
43	121.29073405265808	response	0	2		41.0	2.5	/experiments/knapen_aot/videos/R_S_yt-4RKOPaRF42o_124.mp4	0.0	180.78947401046753	
43	121.29905700683594	movie	1		301.0	41.0	2.5	/experiments/knapen_aot/videos/R_S_yt-4RKOPaRF42o_124.mp4	0.0	180.79779696464539	2.508359909057617
43	123.80741691589355	fix_post	2		12.0	41.0	2.5	/experiments/knapen_aot/videos/R_S_yt-4RKOPaRF42o_124.mp4	0.0	183.306156873703	0.10035514831542969
44	123.90777206420898	fix_pre	0		39.0	42.0	2.5	/experiments/knapen_aot/videos/S_yt-ni4JaYu7PhU_6.mp4	0.0	183.40651202201843	0.3245718479156494
44	124.22411108016968	response	0	2		42.0	2.5	/experiments/knapen_aot/videos/S_yt-ni4JaYu7PhU_6.mp4	0.0	183.72285103797913	
44	124.23234391212463	movie	1		301.0	42.0	2.5	/experiments/knapen_aot/videos/S_yt-ni4JaYu7PhU_6.mp4	0.0	183.73108386993408	2.5083401203155518
44	126.74068403244019	fix_post	2		12.0	42.0	2.5	/experiments/knapen_aot/videos/S_yt-ni4JaYu7PhU_6.mp4	0.0	186.23942399024963	0.10002708435058594
45	126.84071111679077	fix_pre	0		35.0	43.0	2.5	/experiments/knapen_aot/videos/S_yt-0lfSyC79n14_7.mp4	0.0	186.33945107460022	0.2915499210357666
45	127.12402009963989	response	0	2		43.0	2.5	/experiments/knapen_aot/videos/S_yt-0lfSyC79n14_7.mp4	0.0	186.62276005744934	
45	127.13226103782654	movie	1		301.0	43.0	2.5	/experiments/knapen_aot/videos/S_yt-0lfSyC79n14_7.mp4	0.0	186.631000995636	2.5083420276641846
45	129.64060306549072	fix_post	2		12.0	43.0	2.5	/experiments/knapen_aot/videos/S_yt-0lfSyC79n14_7.mp4	0.0	189.13934302330017	0.10006284713745117
46	129.74066591262817	fix_pre	0		31.0	44.0	2.5	/experiments/knapen_aot/videos/S_yt-M_ApPnq00iE_67.mp4	0.0	189.23940587043762	0.25830721855163574
46	129.99077892303467	response	0	2		44.0	2.5	/experiments/knapen_aot/videos/S_yt-M_ApPnq00iE_67.mp4	0.0	189.48951888084412	
46	129.9989731311798	movie	1		301.0	44.0	2.5	/experiments/knapen_aot/videos/S_yt-M_ApPnq00iE_67.mp4	0.0	189.49771308898926	2.508413791656494
46	132.5073869228363	fix_post	2		12.0	44.0	2.5	/experiments/knapen_aot/videos/S_yt-M_ApPnq00iE_67.mp4	0.0	192.00612688064575	0.09992122650146484
47	132.60730814933777	fix_pre	0		25.0	45.0	2.5	/experiments/knapen_aot/videos/R_S_yt-s2PWkCdT-TM_258.mp4	0.0	192.10604810714722	0.2083427906036377
47	132.80744409561157	response	0	2		45.0	2.5	/experiments/knapen_aot/videos/R_S_yt-s2PWkCdT-TM_258.mp4	0.0	192.30618405342102	
47	132.8156509399414	movie	1		301.0	45.0	2.5	/experiments/knapen_aot/videos/R_S_yt-s2PWkCdT-TM_258.mp4	0.0	192.31439089775085	2.5082380771636963
47	135.3238890171051	fix_post	2		12.0	45.0	2.5	/experiments/knapen_aot/videos/R_S_yt-s2PWkCdT-TM_258.mp4	0.0	194.82262897491455	0.10007095336914062
48	135.42395997047424	fix_pre	0		14.0	46.0	2.5	/experiments/knapen_aot/videos/S_bing-www_cnn_com_2015_04_20_living_steak-eating-contest-molly-schuyler-feat_index_html_1.mp4	0.0	194.9226999282837	0.11673498153686523
48	135.5248899459839	response	0	2		46.0	2.5	/experiments/knapen_aot/videos/S_bing-www_cnn_com_2015_04_20_living_steak-eating-contest-molly-schuyler-feat_index_html_1.mp4	0.0	195.02362990379333	
48	135.5406949520111	movie	1		301.0	46.0	2.5	/experiments/knapen_aot/videos/S_bing-www_cnn_com_2015_04_20_living_steak-eating-contest-molly-schuyler-feat_index_html_1.mp4	0.0	195.03943490982056	2.5082361698150635
48	138.04893112182617	fix_post	2		12.0	46.0	2.5	/experiments/knapen_aot/videos/S_bing-www_cnn_com_2015_04_20_living_steak-eating-contest-molly-schuyler-feat_index_html_1.mp4	0.0	197.54767107963562	0.10001301765441895
49	138.1489441394806	fix_pre	0		31.0	47.0	2.5	blank	1.0	197.64768409729004	0.25907182693481445
49	138.39901304244995	response	0	2		47.0	2.5	blank	1.0	197.8977530002594	
49	138.4080159664154	movie	1		301.0	47.0	2.5	blank	1.0	197.90675592422485	2.5076379776000977
49	140.9156539440155	fix_post	2		12.0	47.0	2.5	blank	1.0	200.41439390182495	0.10002303123474121
50	141.01567697525024	fix_pre	0		46.0	48.0	2.5	/experiments/knapen_aot/videos/R_S_yt-bZfmqTZ-d2k_112.mp4	0.0	200.5144169330597	0.3832249641418457
50	141.38325905799866	response	0	2		48.0	2.5	/experiments/knapen_aot/videos/R_S_yt-bZfmqTZ-d2k_112.mp4	0.0	200.8819990158081	
50	141.3989019393921	movie	1		301.0	48.0	2.5	/experiments/knapen_aot/videos/R_S_yt-bZfmqTZ-d2k_112.mp4	0.0	200.89764189720154	2.5084481239318848
50	143.90735006332397	fix_post	2		12.0	48.0	2.5	/experiments/knapen_aot/videos/R_S_yt-bZfmqTZ-d2k_112.mp4	0.0	203.40609002113342	0.09992098808288574
51	144.00727105140686	fix_pre	0		24.0	49.0	2.5	/experiments/knapen_aot/videos/S_production_ID_3712945.mp4	0.0	203.5060110092163	0.19997692108154297
51	144.19900608062744	response	0	2		49.0	2.5	/experiments/knapen_aot/videos/S_production_ID_3712945.mp4	0.0	203.6977460384369	
51	144.2072479724884	movie	1		197.0	49.0	2.5	/experiments/knapen_aot/videos/S_production_ID_3712945.mp4	0.0	203.70598793029785	2.5084691047668457
51	146.71571707725525	fix_post	2		12.0	49.0	2.5	/experiments/knapen_aot/videos/S_production_ID_3712945.mp4	0.0	206.2144570350647	0.09984683990478516
52	146.81556391716003	fix_pre	0		30.0	50.0	2.5	/experiments/knapen_aot/videos/S_yt-l6WPyKg_3is_154.mp4	0.0	206.31430387496948	0.24997806549072266
52	147.05737113952637	response	0	2		50.0	2.5	/experiments/knapen_aot/videos/S_yt-l6WPyKg_3is_154.mp4	0.0	206.55611109733582	
52	147.06554198265076	movie	1		301.0	50.0	2.5	/experiments/knapen_aot/videos/S_yt-l6WPyKg_3is_154.mp4	0.0	206.5642819404602	2.5083539485931396
52	149.5738959312439	fix_post	2		12.0	50.0	2.5	/experiments/knapen_aot/videos/S_yt-l6WPyKg_3is_154.mp4	0.0	209.07263588905334	0.09994316101074219
53	149.67383909225464	fix_pre	0		24.0	51.0	2.5	/experiments/knapen_aot/videos/S_meta-11482036_235.mp4	0.0	209.1725790500641	0.19997286796569824
53	149.86567211151123	response	0	2		51.0	2.5	/experiments/knapen_aot/videos/S_meta-11482036_235.mp4	0.0	209.36441206932068	
53	149.87381196022034	movie	1		301.0	51.0	2.5	/experiments/knapen_aot/videos/S_meta-11482036_235.mp4	0.0	209.37255191802979	2.508491039276123
53	152.38230299949646	fix_post	2		12.0	51.0	2.5	/experiments/knapen_aot/videos/S_meta-11482036_235.mp4	0.0	211.8810429573059	0.1000969409942627
54	152.48239994049072	fix_pre	0		20.0	52.0	2.5	/experiments/knapen_aot/videos/S_yt-cM5PvgE7aJs_243.mp4	0.0	211.98113989830017	0.16646313667297363
54	152.6330749988556	response	0	2		52.0	2.5	/experiments/knapen_aot/videos/S_yt-cM5PvgE7aJs_243.mp4	0.0	212.13181495666504	
54	152.6488630771637	movie	1		301.0	52.0	2.5	/experiments/knapen_aot/videos/S_yt-cM5PvgE7aJs_243.mp4	0.0	212.14760303497314	2.5083398818969727
54	155.15720295906067	fix_post	2		12.0	52.0	2.5	/experiments/knapen_aot/videos/S_yt-cM5PvgE7aJs_243.mp4	0.0	214.65594291687012	0.09999918937683105
55	155.2572021484375	fix_pre	0		21.0	53.0	2.5	/experiments/knapen_aot/videos/R_S_yt-HwEfWfFJhRo_126.mp4	0.0	214.75594210624695	0.17499589920043945
55	155.4239740371704	response	0	2		53.0	2.5	/experiments/knapen_aot/videos/R_S_yt-HwEfWfFJhRo_126.mp4	0.0	214.92271399497986	
55	155.43219804763794	movie	1		301.0	53.0	2.5	/experiments/knapen_aot/videos/R_S_yt-HwEfWfFJhRo_126.mp4	0.0	214.9309380054474	2.5083649158477783
55	157.94056296348572	fix_post	2		12.0	53.0	2.5	/experiments/knapen_aot/videos/R_S_yt-HwEfWfFJhRo_126.mp4	0.0	217.43930292129517	0.09999513626098633
56	158.0405580997467	fix_pre	0		30.0	54.0	2.5	/experiments/knapen_aot/videos/R_S_yt-6B69qmkEdTI_1.mp4	0.0	217.53929805755615	0.24995803833007812
56	158.28242993354797	response	0	2		54.0	2.5	/experiments/knapen_aot/videos/R_S_yt-6B69qmkEdTI_1.mp4	0.0	217.78116989135742	
56	158.29051613807678	movie	1		301.0	54.0	2.5	/experiments/knapen_aot/videos/R_S_yt-6B69qmkEdTI_1.mp4	0.0	217.78925609588623	2.5083088874816895
56	160.79882502555847	fix_post	2		12.0	54.0	2.5	/experiments/knapen_aot/videos/R_S_yt-6B69qmkEdTI_1.mp4	0.0	220.29756498336792	0.10001397132873535
57	160.8988389968872	fix_pre	0		13.0	55.0	2.5	/experiments/knapen_aot/videos/R_S_yt-1sn8u-rQRas_7.mp4	0.0	220.39757895469666	0.10831999778747559
57	160.9989471435547	response	0	2		55.0	2.5	/experiments/knapen_aot/videos/R_S_yt-1sn8u-rQRas_7.mp4	0.0	220.49768710136414	
57	161.00715899467468	movie	1		301.0	55.0	2.5	/experiments/knapen_aot/videos/R_S_yt-1sn8u-rQRas_7.mp4	0.0	220.50589895248413	2.508341073989868
57	163.51550006866455	fix_post	2		12.0	55.0	2.5	/experiments/knapen_aot/videos/R_S_yt-1sn8u-rQRas_7.mp4	0.0	223.014240026474	0.09998607635498047
58	163.61548614501953	fix_pre	0		33.0	56.0	2.5	blank	1.0	223.11422610282898	0.27491188049316406
58	163.88226914405823	response	0	2		56.0	2.5	blank	1.0	223.38100910186768	
58	163.8903980255127	movie	1		301.0	56.0	2.5	blank	1.0	223.38913798332214	2.5083909034729004
58	166.3987889289856	fix_post	2		12.0	56.0	2.5	blank	1.0	225.89752888679504	0.10003900527954102
59	166.49882793426514	fix_pre	0		32.0	57.0	2.5	/experiments/knapen_aot/videos/R_S_comp_GMT307_136NC_134K_8277_NY_NIGHT_01_v25_SDR_PS_20180907_SDR_2K_AVC.mp4	0.0	225.99756789207458	0.26654505729675293
59	166.7572250366211	response	0	2		57.0	2.5	/experiments/knapen_aot/videos/R_S_comp_GMT307_136NC_134K_8277_NY_NIGHT_01_v25_SDR_PS_20180907_SDR_2K_AVC.mp4	0.0	226.25596499443054	
59	166.7653729915619	movie	1		166.0	57.0	2.5	/experiments/knapen_aot/videos/R_S_comp_GMT307_136NC_134K_8277_NY_NIGHT_01_v25_SDR_PS_20180907_SDR_2K_AVC.mp4	0.0	226.26411294937134	2.5084550380706787
59	169.27382802963257	fix_post	2		12.0	57.0	2.5	/experiments/knapen_aot/videos/R_S_comp_GMT307_136NC_134K_8277_NY_NIGHT_01_v25_SDR_PS_20180907_SDR_2K_AVC.mp4	0.0	228.77256798744202	0.09998011589050293
60	169.37380814552307	fix_pre	0		4.0	58.0	2.5	/experiments/knapen_aot/videos/S_yt-ZBhTpmrAlUY_70.mp4	0.0	228.87254810333252	0.0342710018157959
60	169.39895510673523	response	0	2		58.0	2.5	/experiments/knapen_aot/videos/S_yt-ZBhTpmrAlUY_70.mp4	0.0	228.89769506454468	
60	169.40807914733887	movie	1		301.0	58.0	2.5	/experiments/knapen_aot/videos/S_yt-ZBhTpmrAlUY_70.mp4	0.0	228.90681910514832	2.5073978900909424
60	171.9154770374298	fix_post	2		12.0	58.0	2.5	/experiments/knapen_aot/videos/S_yt-ZBhTpmrAlUY_70.mp4	0.0	231.41421699523926	0.10000205039978027
61	172.0154790878296	fix_pre	0		32.0	59.0	2.5	/experiments/knapen_aot/videos/R_S_wc-16LozRfhUGea_49.mp4	0.0	231.51421904563904	0.2671229839324951
61	172.27393412590027	response	0	2		59.0	2.5	/experiments/knapen_aot/videos/R_S_wc-16LozRfhUGea_49.mp4	0.0	231.77267408370972	
61	172.28260207176208	movie	1		301.0	59.0	2.5	/experiments/knapen_aot/videos/R_S_wc-16LozRfhUGea_49.mp4	0.0	231.78134202957153	2.507874011993408
61	174.7904760837555	fix_post	2		12.0	59.0	2.5	/experiments/knapen_aot/videos/R_S_wc-16LozRfhUGea_49.mp4	0.0	234.28921604156494	0.09999585151672363
62	174.89047193527222	fix_pre	0		31.0	60.0	2.5	/experiments/knapen_aot/videos/S_yt-LYnwnfi1JJ4_120.mp4	0.0	234.38921189308167	0.2582991123199463
62	175.13294005393982	response	0	2		60.0	2.5	/experiments/knapen_aot/videos/S_yt-LYnwnfi1JJ4_120.mp4	0.0	234.63168001174927	
62	175.14877104759216	movie	1		301.0	60.0	2.5	/experiments/knapen_aot/videos/S_yt-LYnwnfi1JJ4_120.mp4	0.0	234.6475110054016	2.508297920227051
62	177.6570689678192	fix_post	2		12.0	60.0	2.5	/experiments/knapen_aot/videos/S_yt-LYnwnfi1JJ4_120.mp4	0.0	237.15580892562866	0.10005402565002441
63	177.75712299346924	fix_pre	0		22.0	61.0	2.5	/experiments/knapen_aot/videos/R_S_pexels-rodnae-productions-5993654.mp4	0.0	237.2558629512787	0.18332695960998535
63	177.9322371482849	response	0	2		61.0	2.5	/experiments/knapen_aot/videos/R_S_pexels-rodnae-productions-5993654.mp4	0.0	237.43097710609436	
63	177.94044995307922	movie	1		164.0	61.0	2.5	/experiments/knapen_aot/videos/R_S_pexels-rodnae-productions-5993654.mp4	0.0	237.43918991088867	2.5082969665527344
63	180.44874691963196	fix_post	2		12.0	61.0	2.5	/experiments/knapen_aot/videos/R_S_pexels-rodnae-productions-5993654.mp4	0.0	239.9474868774414	0.09999418258666992
64	180.54874110221863	fix_pre	0		29.0	62.0	2.5	blank	1.0	240.04748106002808	0.24167299270629883
64	180.782310962677	response	0	2		62.0	2.5	blank	1.0	240.28105092048645	
64	180.79041409492493	movie	1		301.0	62.0	2.5	blank	1.0	240.28915405273438	2.508254051208496
64	183.29866814613342	fix_post	2		12.0	62.0	2.5	blank	1.0	242.79740810394287	0.10010099411010742
65	183.39876914024353	fix_pre	0		34.0	63.0	2.5	/experiments/knapen_aot/videos/R_S_yt-hQ5pge893b4_6.mp4	0.0	242.89750909805298	0.2832767963409424
65	183.67387104034424	response	0	2		63.0	2.5	/experiments/knapen_aot/videos/R_S_yt-hQ5pge893b4_6.mp4	0.0	243.1726109981537	
65	183.68204593658447	movie	1		301.0	63.0	2.5	/experiments/knapen_aot/videos/R_S_yt-hQ5pge893b4_6.mp4	0.0	243.18078589439392	2.5084261894226074
65	186.19047212600708	fix_post	2		12.0	63.0	2.5	/experiments/knapen_aot/videos/R_S_yt-hQ5pge893b4_6.mp4	0.0	245.68921208381653	0.09994101524353027
66	186.2904131412506	fix_pre	0		24.0	64.0	2.5	/experiments/knapen_aot/videos/S_FK_U009_C004_SDR_20191220_SDR_2K_AVC.mp4	0.0	245.78915309906006	0.20041990280151367
66	186.48216605186462	response	0	2		64.0	2.5	/experiments/knapen_aot/videos/S_FK_U009_C004_SDR_20191220_SDR_2K_AVC.mp4	0.0	245.98090600967407	
66	186.49083304405212	movie	1		163.0	64.0	2.5	/experiments/knapen_aot/videos/S_FK_U009_C004_SDR_20191220_SDR_2K_AVC.mp4	0.0	245.98957300186157	2.507875919342041
66	188.99870896339417	fix_post	2		12.0	64.0	2.5	/experiments/knapen_aot/videos/S_FK_U009_C004_SDR_20191220_SDR_2K_AVC.mp4	0.0	248.4974489212036	0.10003018379211426
67	189.09873914718628	fix_pre	0		26.0	65.0	2.5	/experiments/knapen_aot/videos/S_yt-lv6mhnH7_g4_134.mp4	0.0	248.59747910499573	0.21667695045471191
67	189.3071849346161	response	0	2		65.0	2.5	/experiments/knapen_aot/videos/S_yt-lv6mhnH7_g4_134.mp4	0.0	248.80592489242554	
67	189.315416097641	movie	1		301.0	65.0	2.5	/experiments/knapen_aot/videos/S_yt-lv6mhnH7_g4_134.mp4	0.0	248.81415605545044	2.508354902267456
67	191.82377099990845	fix_post	2		12.0	65.0	2.5	/experiments/knapen_aot/videos/S_yt-lv6mhnH7_g4_134.mp4	0.0	251.3225109577179	0.0999290943145752
68	191.92370009422302	fix_pre	0		31.0	66.0	2.5	/experiments/knapen_aot/videos/S_yt-4Qz0m5IYh10_167.mp4	0.0	251.42244005203247	0.25834083557128906
68	192.17378997802734	response	0	2		66.0	2.5	/experiments/knapen_aot/videos/S_yt-4Qz0m5IYh10_167.mp4	0.0	251.6725299358368	
68	192.1820409297943	movie	1		301.0	66.0	2.5	/experiments/knapen_aot/videos/S_yt-4Qz0m5IYh10_167.mp4	0.0	251.68078088760376	2.5083110332489014
68	194.6903519630432	fix_post	2		12.0	66.0	2.5	/experiments/knapen_aot/videos/S_yt-4Qz0m5IYh10_167.mp4	0.0	254.18909192085266	0.10009503364562988
69	194.79044699668884	fix_pre	0		24.0	67.0	2.5	/experiments/knapen_aot/videos/R_S_yt-OLDm2slgfA4_3.mp4	0.0	254.2891869544983	0.20035004615783691
69	194.98216891288757	response	0	2		67.0	2.5	/experiments/knapen_aot/videos/R_S_yt-OLDm2slgfA4_3.mp4	0.0	254.48090887069702	
69	194.99079704284668	movie	1		301.0	67.0	2.5	/experiments/knapen_aot/videos/R_S_yt-OLDm2slgfA4_3.mp4	0.0	254.48953700065613	2.5079119205474854
69	197.49870896339417	fix_post	2		12.0	67.0	2.5	/experiments/knapen_aot/videos/R_S_yt-OLDm2slgfA4_3.mp4	0.0	256.9974489212036	0.09998703002929688
70	197.59869599342346	fix_pre	0		22.0	68.0	2.5	/experiments/knapen_aot/videos/R_S_yt-P99dLq0DrK0_277.mp4	0.0	257.0974359512329	0.1837310791015625
70	197.77384901046753	response	0	2		68.0	2.5	/experiments/knapen_aot/videos/R_S_yt-P99dLq0DrK0_277.mp4	0.0	257.272588968277	
70	197.78242707252502	movie	1		301.0	68.0	2.5	/experiments/knapen_aot/videos/R_S_yt-P99dLq0DrK0_277.mp4	0.0	257.2811670303345	2.5079259872436523
70	200.29035305976868	fix_post	2		12.0	68.0	2.5	/experiments/knapen_aot/videos/R_S_yt-P99dLq0DrK0_277.mp4	0.0	259.7890930175781	0.09998798370361328
71	200.3903410434723	fix_pre	0		80.0	69.0	2.5	/experiments/knapen_aot/videos/R_S_yt-fymgyhmYnMI_76.mp4	0.0	259.88908100128174	0.6666309833526611
71	201.0488259792328	response	0	2		69.0	2.5	/experiments/knapen_aot/videos/R_S_yt-fymgyhmYnMI_76.mp4	0.0	260.54756593704224	
71	201.05697202682495	movie	1		301.0	69.0	2.5	/experiments/knapen_aot/videos/R_S_yt-fymgyhmYnMI_76.mp4	0.0	260.5557119846344	2.5083510875701904
71	203.56532311439514	fix_post	2		12.0	69.0	2.5	/experiments/knapen_aot/videos/R_S_yt-fymgyhmYnMI_76.mp4	0.0	263.0640630722046	0.10001492500305176
72	203.6653380393982	fix_pre	0		27.0	70.0	2.5	blank	1.0	263.16407799720764	0.2249760627746582
72	203.88205003738403	response	0	2		70.0	2.5	blank	1.0	263.3807899951935	
72	203.89031410217285	movie	1		301.0	70.0	2.5	blank	1.0	263.3890540599823	2.5083658695220947
72	206.39867997169495	fix_post	2		12.0	70.0	2.5	blank	1.0	265.8974199295044	0.09999394416809082
73	206.49867391586304	fix_pre	0		39.0	71.0	2.5	/experiments/knapen_aot/videos/S_yt-BqJHT4K7Qf8_127.mp4	0.0	265.9974138736725	0.3252251148223877
73	206.80784392356873	response	0	2		71.0	2.5	/experiments/knapen_aot/videos/S_yt-BqJHT4K7Qf8_127.mp4	0.0	266.3065838813782	
73	206.82389903068542	movie	1		301.0	71.0	2.5	/experiments/knapen_aot/videos/S_yt-BqJHT4K7Qf8_127.mp4	0.0	266.3226389884949	2.5081589221954346
73	209.33205795288086	fix_post	2		12.0	71.0	2.5	/experiments/knapen_aot/videos/S_yt-BqJHT4K7Qf8_127.mp4	0.0	268.8307979106903	0.0998830795288086
74	209.43194103240967	fix_pre	0		33.0	72.0	2.5	/experiments/knapen_aot/videos/S_yt-bH4nJibL4Jo_164.mp4	0.0	268.9306809902191	0.2750260829925537
74	209.6987431049347	response	0	2		72.0	2.5	/experiments/knapen_aot/videos/S_yt-bH4nJibL4Jo_164.mp4	0.0	269.19748306274414	
74	209.70696711540222	movie	1		301.0	72.0	2.5	/experiments/knapen_aot/videos/S_yt-bH4nJibL4Jo_164.mp4	0.0	269.20570707321167	2.5084309577941895
74	212.2153980731964	fix_post	2		12.0	72.0	2.5	/experiments/knapen_aot/videos/S_yt-bH4nJibL4Jo_164.mp4	0.0	271.71413803100586	0.10003185272216797
75	212.31542992591858	fix_pre	0		19.0	73.0	2.5	/experiments/knapen_aot/videos/R_S_yt-22c5eZ1UNME_76.mp4	0.0	271.814169883728	0.16130709648132324
75	212.4653720855713	response	0	2		73.0	2.5	/experiments/knapen_aot/videos/R_S_yt-22c5eZ1UNME_76.mp4	0.0	271.96411204338074	
75	212.4767370223999	movie	1		301.0	73.0	2.5	/experiments/knapen_aot/videos/R_S_yt-22c5eZ1UNME_76.mp4	0.0	271.97547698020935	2.505189895629883
75	214.98192691802979	fix_post	2		12.0	73.0	2.5	/experiments/knapen_aot/videos/R_S_yt-22c5eZ1UNME_76.mp4	0.0	274.48066687583923	0.10002017021179199
76	215.08194708824158	fix_pre	0		29.0	74.0	2.5	/experiments/knapen_aot/videos/R_S_pexels-koolshooters-7327401_1.mp4	0.0	274.580687046051	0.2419888973236084
76	215.31540894508362	response	0	2		74.0	2.5	/experiments/knapen_aot/videos/R_S_pexels-koolshooters-7327401_1.mp4	0.0	274.81414890289307	
76	215.32393598556519	movie	1		166.0	74.0	2.5	/experiments/knapen_aot/videos/R_S_pexels-koolshooters-7327401_1.mp4	0.0	274.82267594337463	2.5080249309539795
76	217.83196091651917	fix_post	2		12.0	74.0	2.5	/experiments/knapen_aot/videos/R_S_pexels-koolshooters-7327401_1.mp4	0.0	277.3307008743286	0.09998512268066406
77	217.93194603919983	fix_pre	0		15.0	75.0	2.5	blank	1.0	277.4306859970093	0.12493205070495605
77	218.04872512817383	response	0	2		75.0	2.5	blank	1.0	277.5474650859833	
77	218.05687808990479	movie	1		301.0	75.0	2.5	blank	1.0	277.55561804771423	2.508293867111206
77	220.565171957016	fix_post	2		12.0	75.0	2.5	blank	1.0	280.06391191482544	0.100067138671875
78	220.66523909568787	fix_pre	0		38.0	76.0	2.5	/experiments/knapen_aot/videos/R_S_comp_CH_C007_C004_PSNK_v02_SDR_PS_FINAL_20180709_SDR_2K_AVC.mp4	0.0	280.1639790534973	0.3166658878326416
78	220.97369503974915	response	0	2		76.0	2.5	/experiments/knapen_aot/videos/R_S_comp_CH_C007_C004_PSNK_v02_SDR_PS_FINAL_20180709_SDR_2K_AVC.mp4	0.0	280.4724349975586	
78	220.9819049835205	movie	1		175.0	76.0	2.5	/experiments/knapen_aot/videos/R_S_comp_CH_C007_C004_PSNK_v02_SDR_PS_FINAL_20180709_SDR_2K_AVC.mp4	0.0	280.48064494132996	2.5083370208740234
78	223.49024200439453	fix_post	2		12.0	76.0	2.5	/experiments/knapen_aot/videos/R_S_comp_CH_C007_C004_PSNK_v02_SDR_PS_FINAL_20180709_SDR_2K_AVC.mp4	0.0	282.988981962204	0.09998011589050293
79	223.59022212028503	fix_pre	0		29.0	77.0	2.5	/experiments/knapen_aot/videos/R_S_ILSVRC2015_train_00515000.mp4	0.0	283.0889620780945	0.24163079261779785
79	223.8236789703369	response	0	2		77.0	2.5	/experiments/knapen_aot/videos/R_S_ILSVRC2015_train_00515000.mp4	0.0	283.32241892814636	
79	223.83185291290283	movie	1		301.0	77.0	2.5	/experiments/knapen_aot/videos/R_S_ILSVRC2015_train_00515000.mp4	0.0	283.3305928707123	2.5084922313690186
79	226.34034514427185	fix_post	2		12.0	77.0	2.5	/experiments/knapen_aot/videos/R_S_ILSVRC2015_train_00515000.mp4	0.0	285.8390851020813	0.09984087944030762
80	226.44018602371216	fix_pre	0		22.0	78.0	2.5	/experiments/knapen_aot/videos/S_yt-4RKOPaRF42o_124.mp4	0.0	285.9389259815216	0.18333792686462402
80	226.61533212661743	response	0	2		78.0	2.5	/experiments/knapen_aot/videos/S_yt-4RKOPaRF42o_124.mp4	0.0	286.1140720844269	
80	226.62352395057678	movie	1		301.0	78.0	2.5	/experiments/knapen_aot/videos/S_yt-4RKOPaRF42o_124.mp4	0.0	286.12226390838623	2.508524179458618
80	229.1320481300354	fix_post	2		12.0	78.0	2.5	/experiments/knapen_aot/videos/S_yt-4RKOPaRF42o_124.mp4	0.0	288.63078808784485	0.09975194931030273
81	229.2318000793457	fix_pre	0		29.0	79.0	2.5	/experiments/knapen_aot/videos/S_video_copy.mp4	0.0	288.73054003715515	0.2417609691619873
81	229.4653811454773	response	0	2		79.0	2.5	/experiments/knapen_aot/videos/S_video_copy.mp4	0.0	288.96412110328674	
81	229.4735610485077	movie	1		165.0	79.0	2.5	/experiments/knapen_aot/videos/S_video_copy.mp4	0.0	288.97230100631714	2.5084309577941895
81	231.98199200630188	fix_post	2		12.0	79.0	2.5	/experiments/knapen_aot/videos/S_video_copy.mp4	0.0	291.4807319641113	0.09985804557800293
82	232.08185005187988	fix_pre	0		35.0	80.0	2.5	/experiments/knapen_aot/videos/R_S_yt-0aHV3uU8xFY_75.mp4	0.0	291.58059000968933	0.29164791107177734
82	232.36533498764038	response	0	2		80.0	2.5	/experiments/knapen_aot/videos/R_S_yt-0aHV3uU8xFY_75.mp4	0.0	291.86407494544983	
82	232.37349796295166	movie	1		301.0	80.0	2.5	/experiments/knapen_aot/videos/R_S_yt-0aHV3uU8xFY_75.mp4	0.0	291.8722379207611	2.5084071159362793
82	234.88190507888794	fix_post	2		12.0	80.0	2.5	/experiments/knapen_aot/videos/R_S_yt-0aHV3uU8xFY_75.mp4	0.0	294.3806450366974	0.09994006156921387
83	234.98184514045715	fix_pre	0		27.0	81.0	2.5	/experiments/knapen_aot/videos/S_yt-2dRSJcaJIXw_32.mp4	0.0	294.4805850982666	0.22490787506103516
83	235.1986689567566	response	0	2		81.0	2.5	/experiments/knapen_aot/videos/S_yt-2dRSJcaJIXw_32.mp4	0.0	294.69740891456604	
83	235.2067530155182	movie	1		301.0	81.0	2.5	/experiments/knapen_aot/videos/S_yt-2dRSJcaJIXw_32.mp4	0.0	294.70549297332764	2.5084071159362793
83	237.71516013145447	fix_post	2		12.0	81.0	2.5	/experiments/knapen_aot/videos/S_yt-2dRSJcaJIXw_32.mp4	0.0	297.2139000892639	0.10003280639648438
84	237.81519293785095	fix_pre	0		26.0	82.0	2.5	/experiments/knapen_aot/videos/R_S_yt-Snha8C5YOiY_26.mp4	0.0	297.3139328956604	0.21680498123168945
84	238.0235869884491	response	0	2		82.0	2.5	/experiments/knapen_aot/videos/R_S_yt-Snha8C5YOiY_26.mp4	0.0	297.52232694625854	
84	238.03199791908264	movie	1		301.0	82.0	2.5	/experiments/knapen_aot/videos/R_S_yt-Snha8C5YOiY_26.mp4	0.0	297.5307378768921	2.508136034011841
84	240.54013395309448	fix_post	2		12.0	82.0	2.5	/experiments/knapen_aot/videos/R_S_yt-Snha8C5YOiY_26.mp4	0.0	300.03887391090393	0.10002303123474121
85	240.64015698432922	fix_pre	0		31.0	83.0	2.5	blank	1.0	300.1388969421387	0.25831103324890137
85	240.8828899860382	response	0	2		83.0	2.5	blank	1.0	300.38162994384766	
85	240.89846801757812	movie	1		301.0	83.0	2.5	blank	1.0	300.3972079753876	2.508592128753662
85	243.4070601463318	fix_post	2		12.0	83.0	2.5	blank	1.0	302.90580010414124	0.0997459888458252
87	243.5068061351776	stim	0		259.0					303.00554609298706	2.1582679748535156
87	245.65450191497803	response	0	space						305.1532418727875	
