trial_nr	onset	event_type	phase	response	nr_frames	movie_index	movie_duration	movie_file	blank	onset_abs	duration
0	0.15279889106750488	stim	0		50.0					64.61330986022949	0.4166841506958008
0	0.5612800121307373	response	0	space						65.02179098129272	
1	0.5694830417633057	stim	0		121.0					65.0299940109253	1.0079119205474854
1	1.577394962310791	stim	1		120.0					66.03790593147278	1.0000150203704834
1	1.9033839702606201	response	1	space						66.36389493942261	
1	2.2951290607452393	response	1	space						66.75564002990723	
2	2.5774099826812744	fix_pre	0		17.0	0.0	2.5	/experiments/knapen_aot/videos/R_S_comp_A006_C003_1219EE_CC_v01_SDR_PS_FINAL_20180709_SDR_2K_AVC.mp4	0.0	67.03792095184326	0.14162993431091309
2	2.7032649517059326	response	0	space		0.0	2.5	/experiments/knapen_aot/videos/R_S_comp_A006_C003_1219EE_CC_v01_SDR_PS_FINAL_20180709_SDR_2K_AVC.mp4	0.0	67.16377592086792	
2	2.7190399169921875	movie	1		180.0	0.0	2.5	/experiments/knapen_aot/videos/R_S_comp_A006_C003_1219EE_CC_v01_SDR_PS_FINAL_20180709_SDR_2K_AVC.mp4	0.0	67.17955088615417	2.5083580017089844
2	5.227397918701172	fix_post	2		12.0	0.0	2.5	/experiments/knapen_aot/videos/R_S_comp_A006_C003_1219EE_CC_v01_SDR_PS_FINAL_20180709_SDR_2K_AVC.mp4	0.0	69.68790888786316	0.10000801086425781
3	5.32740592956543	fix_pre	0		57.0	1.0	2.5	/experiments/knapen_aot/videos/R_S_yt-2cwARrUMj40_67.mp4	0.0	69.78791689872742	0.4777531623840332
3	5.797583103179932	response	0	2		1.0	2.5	/experiments/knapen_aot/videos/R_S_yt-2cwARrUMj40_67.mp4	0.0	70.25809407234192	
3	5.805159091949463	movie	1		299.0	1.0	2.5	/experiments/knapen_aot/videos/R_S_yt-2cwARrUMj40_67.mp4	0.0	70.26567006111145	2.5055630207061768
3	8.31072211265564	fix_post	2		12.0	1.0	2.5	/experiments/knapen_aot/videos/R_S_yt-2cwARrUMj40_67.mp4	0.0	72.77123308181763	0.1000208854675293
4	8.410742998123169	fix_pre	0		32.0	2.0	2.5	/experiments/knapen_aot/videos/R_S_yt-7Ya-rGPO8cM_159.mp4	0.0	72.87125396728516	0.26663994789123535
4	8.66918396949768	response	0	2		2.0	2.5	/experiments/knapen_aot/videos/R_S_yt-7Ya-rGPO8cM_159.mp4	0.0	73.12969493865967	
4	8.677382946014404	movie	1		301.0	2.0	2.5	/experiments/knapen_aot/videos/R_S_yt-7Ya-rGPO8cM_159.mp4	0.0	73.13789391517639	2.508484125137329
4	11.185867071151733	fix_post	2		12.0	2.0	2.5	/experiments/knapen_aot/videos/R_S_yt-7Ya-rGPO8cM_159.mp4	0.0	75.64637804031372	0.09989500045776367
5	11.285762071609497	fix_pre	0		51.0	3.0	2.5	/experiments/knapen_aot/videos/R_S_yt-rbJOb1spY9M_16.mp4	0.0	75.74627304077148	0.42493700981140137
5	11.702476024627686	response	0	2		3.0	2.5	/experiments/knapen_aot/videos/R_S_yt-rbJOb1spY9M_16.mp4	0.0	76.16298699378967	
5	11.710699081420898	movie	1		301.0	3.0	2.5	/experiments/knapen_aot/videos/R_S_yt-rbJOb1spY9M_16.mp4	0.0	76.17121005058289	2.508286952972412
5	14.21898603439331	fix_post	2		12.0	3.0	2.5	/experiments/knapen_aot/videos/R_S_yt-rbJOb1spY9M_16.mp4	0.0	78.6794970035553	0.10004305839538574
6	14.319029092788696	fix_pre	0		46.0	4.0	2.5	/experiments/knapen_aot/videos/R_S_comp_GMT026_363A_103NC_E1027_KOREA_JAPAN_NIGHT_v18_SDR_PS_20180907_SDR_2K_AVC.mp4	0.0	78.77954006195068	0.3833639621734619
6	14.694109916687012	response	0	2		4.0	2.5	/experiments/knapen_aot/videos/R_S_comp_GMT026_363A_103NC_E1027_KOREA_JAPAN_NIGHT_v18_SDR_PS_20180907_SDR_2K_AVC.mp4	0.0	79.154620885849	
6	14.702393054962158	movie	1		172.0	4.0	2.5	/experiments/knapen_aot/videos/R_S_comp_GMT026_363A_103NC_E1027_KOREA_JAPAN_NIGHT_v18_SDR_PS_20180907_SDR_2K_AVC.mp4	0.0	79.16290402412415	2.5083088874816895
6	17.210701942443848	fix_post	2		12.0	4.0	2.5	/experiments/knapen_aot/videos/R_S_comp_GMT026_363A_103NC_E1027_KOREA_JAPAN_NIGHT_v18_SDR_PS_20180907_SDR_2K_AVC.mp4	0.0	81.67121291160583	0.1000220775604248
7	17.310724020004272	fix_pre	0		55.0	5.0	2.5	/experiments/knapen_aot/videos/S_yt--a-d97T4Gak_75.mp4	0.0	81.77123498916626	0.45824694633483887
7	17.76081109046936	response	0	2		5.0	2.5	/experiments/knapen_aot/videos/S_yt--a-d97T4Gak_75.mp4	0.0	82.22132205963135	
7	17.76897096633911	movie	1		301.0	5.0	2.5	/experiments/knapen_aot/videos/S_yt--a-d97T4Gak_75.mp4	0.0	82.2294819355011	2.5084481239318848
7	20.277419090270996	fix_post	2		12.0	5.0	2.5	/experiments/knapen_aot/videos/S_yt--a-d97T4Gak_75.mp4	0.0	84.73793005943298	0.10031700134277344
8	20.37773609161377	fix_pre	0		38.0	6.0	2.5	/experiments/knapen_aot/videos/R_S_b3TCugtX0h0_108.mp4	0.0	84.83824706077576	0.3162109851837158
8	20.685786962509155	response	0	2		6.0	2.5	/experiments/knapen_aot/videos/R_S_b3TCugtX0h0_108.mp4	0.0	85.14629793167114	
8	20.693947076797485	movie	1		301.0	6.0	2.5	/experiments/knapen_aot/videos/R_S_b3TCugtX0h0_108.mp4	0.0	85.15445804595947	2.5084550380706787
8	23.202402114868164	fix_post	2		12.0	6.0	2.5	/experiments/knapen_aot/videos/R_S_b3TCugtX0h0_108.mp4	0.0	87.66291308403015	0.09991788864135742
9	23.30232000350952	fix_pre	0		41.0	7.0	2.5	blank	1.0	87.76283097267151	0.3416719436645508
9	23.63575005531311	response	0	2		7.0	2.5	blank	1.0	88.0962610244751	
9	23.643991947174072	movie	1		301.0	7.0	2.5	blank	1.0	88.10450291633606	2.5083420276641846
9	26.152333974838257	fix_post	2		12.0	7.0	2.5	blank	1.0	90.61284494400024	0.10002303123474121
10	26.252357006072998	fix_pre	0		56.0	8.0	2.5	/experiments/knapen_aot/videos/R_S_comp_A105_C003_0212CT_FLARE_v10_SDR_PS_FINAL_20180711_SDR_2K_AVC.mp4	0.0	90.71286797523499	0.4665799140930176
10	26.710676908493042	response	0	2		8.0	2.5	/experiments/knapen_aot/videos/R_S_comp_A105_C003_0212CT_FLARE_v10_SDR_PS_FINAL_20180711_SDR_2K_AVC.mp4	0.0	91.17118787765503	
10	26.718936920166016	movie	1		167.0	8.0	2.5	/experiments/knapen_aot/videos/R_S_comp_A105_C003_0212CT_FLARE_v10_SDR_PS_FINAL_20180711_SDR_2K_AVC.mp4	0.0	91.179447889328	2.5084240436553955
10	29.22736096382141	fix_post	2		12.0	8.0	2.5	/experiments/knapen_aot/videos/R_S_comp_A105_C003_0212CT_FLARE_v10_SDR_PS_FINAL_20180711_SDR_2K_AVC.mp4	0.0	93.6878719329834	0.09999299049377441
11	29.327353954315186	fix_pre	0		31.0	9.0	2.5	/experiments/knapen_aot/videos/R_S_yt-SjPYdaUBi7A_37.mp4	0.0	93.78786492347717	0.2582409381866455
11	29.577440977096558	response	0	2		9.0	2.5	/experiments/knapen_aot/videos/R_S_yt-SjPYdaUBi7A_37.mp4	0.0	94.03795194625854	
11	29.58559489250183	movie	1		301.0	9.0	2.5	/experiments/knapen_aot/videos/R_S_yt-SjPYdaUBi7A_37.mp4	0.0	94.04610586166382	2.5083680152893066
11	32.09396290779114	fix_post	2		12.0	9.0	2.5	/experiments/knapen_aot/videos/R_S_yt-SjPYdaUBi7A_37.mp4	0.0	96.55447387695312	0.1000361442565918
12	32.19399905204773	fix_pre	0		29.0	10.0	2.5	/experiments/knapen_aot/videos/S_comp_HK_H004_C013_t9_6M_HB_tag0.mp4	0.0	96.65451002120972	0.2429358959197998
12	32.42748689651489	response	0	2		10.0	2.5	/experiments/knapen_aot/videos/S_comp_HK_H004_C013_t9_6M_HB_tag0.mp4	0.0	96.88799786567688	
12	32.43693494796753	movie	1		174.0	10.0	2.5	/experiments/knapen_aot/videos/S_comp_HK_H004_C013_t9_6M_HB_tag0.mp4	0.0	96.89744591712952	2.507078170776367
12	34.9440131187439	fix_post	2		12.0	10.0	2.5	/experiments/knapen_aot/videos/S_comp_HK_H004_C013_t9_6M_HB_tag0.mp4	0.0	99.40452408790588	0.10002279281616211
13	35.04403591156006	fix_pre	0		55.0	11.0	2.5	/experiments/knapen_aot/videos/S_comp_CH_C007_C011_PSNK_v02_SDR_PS_FINAL_20180709_SDR_2K_AVC.mp4	0.0	99.50454688072205	0.45837903022766113
13	35.494038105010986	response	0	2		11.0	2.5	/experiments/knapen_aot/videos/S_comp_CH_C007_C011_PSNK_v02_SDR_PS_FINAL_20180709_SDR_2K_AVC.mp4	0.0	99.95454907417297	
13	35.50241494178772	movie	1		172.0	11.0	2.5	/experiments/knapen_aot/videos/S_comp_CH_C007_C011_PSNK_v02_SDR_PS_FINAL_20180709_SDR_2K_AVC.mp4	0.0	99.9629259109497	2.508202075958252
13	38.01061701774597	fix_post	2		12.0	11.0	2.5	/experiments/knapen_aot/videos/S_comp_CH_C007_C011_PSNK_v02_SDR_PS_FINAL_20180709_SDR_2K_AVC.mp4	0.0	102.47112798690796	0.10002803802490234
14	38.110645055770874	fix_pre	0		39.0	12.0	2.5	/experiments/knapen_aot/videos/R_S_yt-fnE8kgUHUMI_64.mp4	0.0	102.57115602493286	0.3262059688568115
14	38.42750906944275	response	0	2		12.0	2.5	/experiments/knapen_aot/videos/R_S_yt-fnE8kgUHUMI_64.mp4	0.0	102.88802003860474	
14	38.436851024627686	movie	1		301.0	12.0	2.5	/experiments/knapen_aot/videos/R_S_yt-fnE8kgUHUMI_64.mp4	0.0	102.89736199378967	2.5070650577545166
14	40.9439160823822	fix_post	2		12.0	12.0	2.5	/experiments/knapen_aot/videos/R_S_yt-fnE8kgUHUMI_64.mp4	0.0	105.40442705154419	0.09994697570800781
15	41.04386305809021	fix_pre	0		55.0	13.0	2.5	/experiments/knapen_aot/videos/R_S_pexels-kindel-media-8165572.mp4	0.0	105.5043740272522	0.4582960605621338
15	41.494033098220825	response	0	2		13.0	2.5	/experiments/knapen_aot/videos/R_S_pexels-kindel-media-8165572.mp4	0.0	105.95454406738281	
15	41.502159118652344	movie	1		169.0	13.0	2.5	/experiments/knapen_aot/videos/R_S_pexels-kindel-media-8165572.mp4	0.0	105.96267008781433	2.5084447860717773
15	44.01060390472412	fix_post	2		12.0	13.0	2.5	/experiments/knapen_aot/videos/R_S_pexels-kindel-media-8165572.mp4	0.0	108.47111487388611	0.09997820854187012
16	44.11058211326599	fix_pre	0		25.0	14.0	2.5	blank	1.0	108.57109308242798	0.20833587646484375
16	44.31070899963379	response	0	2		14.0	2.5	blank	1.0	108.77121996879578	
16	44.318917989730835	movie	1		301.0	14.0	2.5	blank	1.0	108.77942895889282	2.50833797454834
16	46.827255964279175	fix_post	2		12.0	14.0	2.5	blank	1.0	111.28776693344116	0.10015010833740234
17	46.92740607261658	fix_pre	0		36.0	15.0	2.5	/experiments/knapen_aot/videos/S_yt-HMAa2QbfFPI_216.mp4	0.0	111.38791704177856	0.30104684829711914
17	47.21892595291138	response	0	2		15.0	2.5	/experiments/knapen_aot/videos/S_yt-HMAa2QbfFPI_216.mp4	0.0	111.67943692207336	
17	47.228452920913696	movie	1		301.0	15.0	2.5	/experiments/knapen_aot/videos/S_yt-HMAa2QbfFPI_216.mp4	0.0	111.68896389007568	2.5071229934692383
17	49.735575914382935	fix_post	2		12.0	15.0	2.5	/experiments/knapen_aot/videos/S_yt-HMAa2QbfFPI_216.mp4	0.0	114.19608688354492	0.09996700286865234
18	49.83554291725159	fix_pre	0		44.0	16.0	2.5	/experiments/knapen_aot/videos/S_comp_LA_A011_C003_DGRN_LNFIX_STAB_v57_SDR_PS_20181002_SDR_2K_AVC.mp4	0.0	114.29605388641357	0.36664509773254395
18	50.193954944610596	response	0	2		16.0	2.5	/experiments/knapen_aot/videos/S_comp_LA_A011_C003_DGRN_LNFIX_STAB_v57_SDR_PS_20181002_SDR_2K_AVC.mp4	0.0	114.65446591377258	
18	50.20218801498413	movie	1		169.0	16.0	2.5	/experiments/knapen_aot/videos/S_comp_LA_A011_C003_DGRN_LNFIX_STAB_v57_SDR_PS_20181002_SDR_2K_AVC.mp4	0.0	114.66269898414612	2.508349895477295
18	52.710537910461426	fix_post	2		12.0	16.0	2.5	/experiments/knapen_aot/videos/S_comp_LA_A011_C003_DGRN_LNFIX_STAB_v57_SDR_PS_20181002_SDR_2K_AVC.mp4	0.0	117.17104887962341	0.10004615783691406
19	52.81058406829834	fix_pre	0		47.0	17.0	2.5	/experiments/knapen_aot/videos/S_pexels-c-technical-6809719.mp4	0.0	117.27109503746033	0.39163994789123535
19	53.193965911865234	response	0	2		17.0	2.5	/experiments/knapen_aot/videos/S_pexels-c-technical-6809719.mp4	0.0	117.65447688102722	
19	53.202224016189575	movie	1		208.0	17.0	2.5	/experiments/knapen_aot/videos/S_pexels-c-technical-6809719.mp4	0.0	117.66273498535156	2.5082759857177734
19	55.71050000190735	fix_post	2		12.0	17.0	2.5	/experiments/knapen_aot/videos/S_pexels-c-technical-6809719.mp4	0.0	120.17101097106934	0.10002994537353516
20	55.810529947280884	fix_pre	0		33.0	18.0	2.5	/experiments/knapen_aot/videos/S_yt-7Ya-rGPO8cM_159.mp4	0.0	120.27104091644287	0.27502012252807617
20	56.07732892036438	response	0	2		18.0	2.5	/experiments/knapen_aot/videos/S_yt-7Ya-rGPO8cM_159.mp4	0.0	120.53783988952637	
20	56.08555006980896	movie	1		301.0	18.0	2.5	/experiments/knapen_aot/videos/S_yt-7Ya-rGPO8cM_159.mp4	0.0	120.54606103897095	2.5082788467407227
20	58.59382891654968	fix_post	2		12.0	18.0	2.5	/experiments/knapen_aot/videos/S_yt-7Ya-rGPO8cM_159.mp4	0.0	123.05433988571167	0.1000070571899414
21	58.693835973739624	fix_pre	0		61.0	19.0	2.5	/experiments/knapen_aot/videos/S_comp_LA_A011_C003_DGRN_LNFIX_STAB_v57_SDR_PS_20181002_SDR_2K_AVC.mp4	0.0	123.15434694290161	0.5082969665527344
21	59.19398212432861	response	0	2		19.0	2.5	/experiments/knapen_aot/videos/S_comp_LA_A011_C003_DGRN_LNFIX_STAB_v57_SDR_PS_20181002_SDR_2K_AVC.mp4	0.0	123.6544930934906	
21	59.20213294029236	movie	1		171.0	19.0	2.5	/experiments/knapen_aot/videos/S_comp_LA_A011_C003_DGRN_LNFIX_STAB_v57_SDR_PS_20181002_SDR_2K_AVC.mp4	0.0	123.66264390945435	2.5083839893341064
21	61.710516929626465	fix_post	2		12.0	19.0	2.5	/experiments/knapen_aot/videos/S_comp_LA_A011_C003_DGRN_LNFIX_STAB_v57_SDR_PS_20181002_SDR_2K_AVC.mp4	0.0	126.17102789878845	0.10002613067626953
22	61.810543060302734	fix_pre	0		39.0	20.0	2.5	blank	1.0	126.27105402946472	0.32498693466186523
22	62.12729811668396	response	0	2		20.0	2.5	blank	1.0	126.58780908584595	
22	62.1355299949646	movie	1		301.0	20.0	2.5	blank	1.0	126.59604096412659	2.5082790851593018
22	64.6438090801239	fix_post	2		12.0	20.0	2.5	blank	1.0	129.1043200492859	0.09996294975280762
23	64.74377202987671	fix_pre	0		67.0	21.0	2.5	/experiments/knapen_aot/videos/S_yt-Tn563IPZfg4_55.mp4	0.0	129.2042829990387	0.5583450794219971
23	65.28634905815125	response	0	2		21.0	2.5	/experiments/knapen_aot/videos/S_yt-Tn563IPZfg4_55.mp4	0.0	129.74686002731323	
23	65.3021171092987	movie	1		301.0	21.0	2.5	/experiments/knapen_aot/videos/S_yt-Tn563IPZfg4_55.mp4	0.0	129.7626280784607	2.5083630084991455
23	67.81048011779785	fix_post	2		12.0	21.0	2.5	/experiments/knapen_aot/videos/S_yt-Tn563IPZfg4_55.mp4	0.0	132.27099108695984	0.10003185272216797
24	67.91051197052002	fix_pre	0		42.0	22.0	2.5	/experiments/knapen_aot/videos/R_S_yt-a0axt7n0GuQ_19.mp4	0.0	132.371022939682	0.34993696212768555
24	68.25226712226868	response	0	2		22.0	2.5	/experiments/knapen_aot/videos/R_S_yt-a0axt7n0GuQ_19.mp4	0.0	132.71277809143066	
24	68.2604489326477	movie	1		301.0	22.0	2.5	/experiments/knapen_aot/videos/R_S_yt-a0axt7n0GuQ_19.mp4	0.0	132.7209599018097	2.508563995361328
24	70.76901292800903	fix_post	2		12.0	22.0	2.5	/experiments/knapen_aot/videos/R_S_yt-a0axt7n0GuQ_19.mp4	0.0	135.22952389717102	0.09981107711791992
25	70.86882400512695	fix_pre	0		120.0	23.0	2.5	/experiments/knapen_aot/videos/S_yt-9mWz93En7Gw_97.mp4	0.0	135.32933497428894	0.9998769760131836
25	71.86057806015015	response	0	2		23.0	2.5	/experiments/knapen_aot/videos/S_yt-9mWz93En7Gw_97.mp4	0.0	136.32108902931213	
25	71.86870098114014	movie	1		301.0	23.0	2.5	/experiments/knapen_aot/videos/S_yt-9mWz93En7Gw_97.mp4	0.0	136.32921195030212	2.5084550380706787
25	74.37715601921082	fix_post	2		12.0	23.0	2.5	/experiments/knapen_aot/videos/S_yt-9mWz93En7Gw_97.mp4	0.0	138.8376669883728	0.09997892379760742
26	74.47713494300842	fix_pre	0		49.0	24.0	2.5	/experiments/knapen_aot/videos/R_S_yt-RNPFV7lgAvE_362.mp4	0.0	138.9376459121704	0.40830397605895996
26	74.87720894813538	response	0	2		24.0	2.5	/experiments/knapen_aot/videos/R_S_yt-RNPFV7lgAvE_362.mp4	0.0	139.33771991729736	
26	74.88543891906738	movie	1		301.0	24.0	2.5	/experiments/knapen_aot/videos/R_S_yt-RNPFV7lgAvE_362.mp4	0.0	139.34594988822937	2.508347988128662
26	77.39378690719604	fix_post	2		12.0	24.0	2.5	/experiments/knapen_aot/videos/R_S_yt-RNPFV7lgAvE_362.mp4	0.0	141.85429787635803	0.09997820854187012
27	77.49376511573792	fix_pre	0		35.0	25.0	2.5	/experiments/knapen_aot/videos/R_S_yt-AiXq1oDrEXI_123.mp4	0.0	141.9542760848999	0.29167985916137695
27	77.77725791931152	response	0	2		25.0	2.5	/experiments/knapen_aot/videos/R_S_yt-AiXq1oDrEXI_123.mp4	0.0	142.2377688884735	
27	77.78544497489929	movie	1		301.0	25.0	2.5	/experiments/knapen_aot/videos/R_S_yt-AiXq1oDrEXI_123.mp4	0.0	142.24595594406128	2.508327007293701
27	80.293771982193	fix_post	2		12.0	25.0	2.5	/experiments/knapen_aot/videos/R_S_yt-AiXq1oDrEXI_123.mp4	0.0	144.75428295135498	0.1000361442565918
28	80.39380812644958	fix_pre	0		58.0	26.0	2.5	/experiments/knapen_aot/videos/S_yt-AiXq1oDrEXI_123.mp4	0.0	144.85431909561157	0.48322582244873047
28	80.86137795448303	response	0	2		26.0	2.5	/experiments/knapen_aot/videos/S_yt-AiXq1oDrEXI_123.mp4	0.0	145.32188892364502	
28	80.87703394889832	movie	1		301.0	26.0	2.5	/experiments/knapen_aot/videos/S_yt-AiXq1oDrEXI_123.mp4	0.0	145.3375449180603	2.5083789825439453
28	83.38541293144226	fix_post	2		12.0	26.0	2.5	/experiments/knapen_aot/videos/S_yt-AiXq1oDrEXI_123.mp4	0.0	147.84592390060425	0.10009098052978516
29	83.48550391197205	fix_pre	0		65.0	27.0	2.5	blank	1.0	147.94601488113403	0.5415279865264893
29	84.01887106895447	response	0	2		27.0	2.5	blank	1.0	148.47938203811646	
29	84.02703189849854	movie	1		301.0	27.0	2.5	blank	1.0	148.48754286766052	2.508362054824829
29	86.53539395332336	fix_post	2		12.0	27.0	2.5	blank	1.0	150.99590492248535	0.09997701644897461
30	86.63537096977234	fix_pre	0		38.0	28.0	2.5	/experiments/knapen_aot/videos/S_comp_GMT329_113NC_396B_1105_ITALY_v03_SDR_FINAL_20180706_SDR_2K_AVC.mp4	0.0	151.09588193893433	0.3166329860687256
30	86.94380402565002	response	0	2		28.0	2.5	/experiments/knapen_aot/videos/S_comp_GMT329_113NC_396B_1105_ITALY_v03_SDR_FINAL_20180706_SDR_2K_AVC.mp4	0.0	151.404314994812	
30	86.95200395584106	movie	1		165.0	28.0	2.5	/experiments/knapen_aot/videos/S_comp_GMT329_113NC_396B_1105_ITALY_v03_SDR_FINAL_20180706_SDR_2K_AVC.mp4	0.0	151.41251492500305	2.508352041244507
30	89.46035599708557	fix_post	2		12.0	28.0	2.5	/experiments/knapen_aot/videos/S_comp_GMT329_113NC_396B_1105_ITALY_v03_SDR_FINAL_20180706_SDR_2K_AVC.mp4	0.0	153.92086696624756	0.10003900527954102
31	89.56039500236511	fix_pre	0		63.0	29.0	2.5	/experiments/knapen_aot/videos/R_S_yt-HwEfWfFJhRo_73.mp4	0.0	154.0209059715271	0.524928092956543
31	90.07715201377869	response	0	2		29.0	2.5	/experiments/knapen_aot/videos/R_S_yt-HwEfWfFJhRo_73.mp4	0.0	154.53766298294067	
31	90.08532309532166	movie	1		301.0	29.0	2.5	/experiments/knapen_aot/videos/R_S_yt-HwEfWfFJhRo_73.mp4	0.0	154.54583406448364	2.5083799362182617
31	92.59370303153992	fix_post	2		12.0	29.0	2.5	/experiments/knapen_aot/videos/R_S_yt-HwEfWfFJhRo_73.mp4	0.0	157.0542140007019	0.10003495216369629
32	92.69373798370361	fix_pre	0		26.0	30.0	2.5	/experiments/knapen_aot/videos/S_I003_C004_SDR_2K_AVC.mp4	0.0	157.1542489528656	0.2166280746459961
32	92.90205693244934	response	0	2		30.0	2.5	/experiments/knapen_aot/videos/S_I003_C004_SDR_2K_AVC.mp4	0.0	157.36256790161133	
32	92.91036605834961	movie	1		169.0	30.0	2.5	/experiments/knapen_aot/videos/S_I003_C004_SDR_2K_AVC.mp4	0.0	157.3708770275116	2.508336067199707
32	95.41870212554932	fix_post	2		12.0	30.0	2.5	/experiments/knapen_aot/videos/S_I003_C004_SDR_2K_AVC.mp4	0.0	159.8792130947113	0.1000359058380127
33	95.51873803138733	fix_pre	0		49.0	31.0	2.5	/experiments/knapen_aot/videos/S_yt-wz2opOBqClo_14.mp4	0.0	159.97924900054932	0.40830206871032715
33	95.91886806488037	response	0	2		31.0	2.5	/experiments/knapen_aot/videos/S_yt-wz2opOBqClo_14.mp4	0.0	160.37937903404236	
33	95.92704010009766	movie	1		301.0	31.0	2.5	/experiments/knapen_aot/videos/S_yt-wz2opOBqClo_14.mp4	0.0	160.38755106925964	2.508347988128662
33	98.43538808822632	fix_post	2		12.0	31.0	2.5	/experiments/knapen_aot/videos/S_yt-wz2opOBqClo_14.mp4	0.0	162.8958990573883	0.09996390342712402
34	98.53535199165344	fix_pre	0		48.0	32.0	2.5	/experiments/knapen_aot/videos/R_S_comp_H012_C009_PS_v01_SDR_PS_20180925_SDR_2K_AVC.mp4	0.0	162.99586296081543	0.40097904205322266
34	98.92712092399597	response	0	2		32.0	2.5	/experiments/knapen_aot/videos/R_S_comp_H012_C009_PS_v01_SDR_PS_20180925_SDR_2K_AVC.mp4	0.0	163.38763189315796	
34	98.93633103370667	movie	1		170.0	32.0	2.5	/experiments/knapen_aot/videos/R_S_comp_H012_C009_PS_v01_SDR_PS_20180925_SDR_2K_AVC.mp4	0.0	163.39684200286865	2.507550001144409
34	101.44388103485107	fix_post	2		12.0	32.0	2.5	/experiments/knapen_aot/videos/R_S_comp_H012_C009_PS_v01_SDR_PS_20180925_SDR_2K_AVC.mp4	0.0	165.90439200401306	0.09981608390808105
35	101.54369711875916	fix_pre	0		41.0	33.0	2.5	/experiments/knapen_aot/videos/R_S_pexels-kindel-media-8165572.mp4	0.0	166.00420808792114	0.3415348529815674
35	101.87714791297913	response	0	2		33.0	2.5	/experiments/knapen_aot/videos/R_S_pexels-kindel-media-8165572.mp4	0.0	166.3376588821411	
35	101.88523197174072	movie	1		169.0	33.0	2.5	/experiments/knapen_aot/videos/R_S_pexels-kindel-media-8165572.mp4	0.0	166.3457429409027	2.508544921875
35	104.39377689361572	fix_post	2		12.0	33.0	2.5	/experiments/knapen_aot/videos/R_S_pexels-kindel-media-8165572.mp4	0.0	168.8542878627777	0.0999290943145752
36	104.4937059879303	fix_pre	0		30.0	34.0	2.5	blank	1.0	168.95421695709229	0.24989700317382812
36	104.73544001579285	response	0	2		34.0	2.5	blank	1.0	169.19595098495483	
36	104.74360299110413	movie	1		301.0	34.0	2.5	blank	1.0	169.2041139602661	2.5084900856018066
36	107.25209307670593	fix_post	2		12.0	34.0	2.5	blank	1.0	171.71260404586792	0.09981799125671387
37	107.35191106796265	fix_pre	0		71.0	35.0	2.5	/experiments/knapen_aot/videos/S_video_inspire_oregon_portland_00064.1080-h264.mp4	0.0	171.81242203712463	0.5917069911956787
37	107.93535590171814	response	0	2		35.0	2.5	/experiments/knapen_aot/videos/S_video_inspire_oregon_portland_00064.1080-h264.mp4	0.0	172.39586687088013	
37	107.94361805915833	movie	1		168.0	35.0	2.5	/experiments/knapen_aot/videos/S_video_inspire_oregon_portland_00064.1080-h264.mp4	0.0	172.4041290283203	2.5083818435668945
37	110.45199990272522	fix_post	2		12.0	35.0	2.5	/experiments/knapen_aot/videos/S_video_inspire_oregon_portland_00064.1080-h264.mp4	0.0	174.9125108718872	0.10018205642700195
38	110.55218195915222	fix_pre	0		34.0	36.0	2.5	/experiments/knapen_aot/videos/S_yt-osdlC1buTaM_4.mp4	0.0	175.0126929283142	0.28305816650390625
38	110.82707095146179	response	0	2		36.0	2.5	/experiments/knapen_aot/videos/S_yt-osdlC1buTaM_4.mp4	0.0	175.28758192062378	
38	110.83524012565613	movie	1		301.0	36.0	2.5	/experiments/knapen_aot/videos/S_yt-osdlC1buTaM_4.mp4	0.0	175.29575109481812	2.508347988128662
38	113.34358811378479	fix_post	2		12.0	36.0	2.5	/experiments/knapen_aot/videos/S_yt-osdlC1buTaM_4.mp4	0.0	177.80409908294678	0.10003995895385742
39	113.44362807273865	fix_pre	0		45.0	37.0	2.5	/experiments/knapen_aot/videos/S_ILSVRC2015_train_00292005.mp4	0.0	177.90413904190063	0.37502288818359375
39	113.81035089492798	response	0	2		37.0	2.5	/experiments/knapen_aot/videos/S_ILSVRC2015_train_00292005.mp4	0.0	178.27086186408997	
39	113.81865096092224	movie	1		301.0	37.0	2.5	/experiments/knapen_aot/videos/S_ILSVRC2015_train_00292005.mp4	0.0	178.27916193008423	2.508350133895874
39	116.32700109481812	fix_post	2		12.0	37.0	2.5	/experiments/knapen_aot/videos/S_ILSVRC2015_train_00292005.mp4	0.0	180.7875120639801	0.09990882873535156
40	116.42690992355347	fix_pre	0		65.0	38.0	2.5	/experiments/knapen_aot/videos/S_ILSVRC2015_train_00379000.mp4	0.0	180.88742089271545	0.5416121482849121
40	116.96040511131287	response	0	2		38.0	2.5	/experiments/knapen_aot/videos/S_ILSVRC2015_train_00379000.mp4	0.0	181.42091608047485	
40	116.96852207183838	movie	1		301.0	38.0	2.5	/experiments/knapen_aot/videos/S_ILSVRC2015_train_00379000.mp4	0.0	181.42903304100037	2.508615016937256
40	119.47713708877563	fix_post	2		12.0	38.0	2.5	/experiments/knapen_aot/videos/S_ILSVRC2015_train_00379000.mp4	0.0	183.93764805793762	0.09976387023925781
41	119.57690095901489	fix_pre	0		51.0	39.0	2.5	/experiments/knapen_aot/videos/R_S_ILSVRC2015_train_00479004.mp4	0.0	184.03741192817688	0.42496204376220703
41	119.99362397193909	response	0	2		39.0	2.5	/experiments/knapen_aot/videos/R_S_ILSVRC2015_train_00479004.mp4	0.0	184.45413494110107	
41	120.0018630027771	movie	1		301.0	39.0	2.5	/experiments/knapen_aot/videos/R_S_ILSVRC2015_train_00479004.mp4	0.0	184.4623739719391	2.5083749294281006
41	122.5102379322052	fix_post	2		12.0	39.0	2.5	/experiments/knapen_aot/videos/R_S_ILSVRC2015_train_00479004.mp4	0.0	186.9707489013672	0.09998703002929688
42	122.6102249622345	fix_pre	0		40.0	40.0	2.5	/experiments/knapen_aot/videos/S_yt-SGTgMItFkxY_172.mp4	0.0	187.07073593139648	0.3333420753479004
42	122.93536400794983	response	0	2		40.0	2.5	/experiments/knapen_aot/videos/S_yt-SGTgMItFkxY_172.mp4	0.0	187.39587497711182	
42	122.9435670375824	movie	1		301.0	40.0	2.5	/experiments/knapen_aot/videos/S_yt-SGTgMItFkxY_172.mp4	0.0	187.40407800674438	2.5082669258117676
42	125.45183396339417	fix_post	2		12.0	40.0	2.5	/experiments/knapen_aot/videos/S_yt-SGTgMItFkxY_172.mp4	0.0	189.91234493255615	0.10009002685546875
43	125.55192399024963	fix_pre	0		57.0	41.0	2.5	/experiments/knapen_aot/videos/S_yt-MEfljVFL0xw_375.mp4	0.0	190.01243495941162	0.4749460220336914
43	126.01860904693604	response	0	2		41.0	2.5	/experiments/knapen_aot/videos/S_yt-MEfljVFL0xw_375.mp4	0.0	190.47912001609802	
43	126.02687001228333	movie	1		301.0	41.0	2.5	/experiments/knapen_aot/videos/S_yt-MEfljVFL0xw_375.mp4	0.0	190.4873809814453	2.5083529949188232
43	128.53522300720215	fix_post	2		12.0	41.0	2.5	/experiments/knapen_aot/videos/S_yt-MEfljVFL0xw_375.mp4	0.0	192.99573397636414	0.0999910831451416
44	128.6352140903473	fix_pre	0		59.0	42.0	2.5	blank	1.0	193.09572505950928	0.49178481101989746
44	129.11120295524597	response	0	2		42.0	2.5	blank	1.0	193.57171392440796	
44	129.1269989013672	movie	1		301.0	42.0	2.5	blank	1.0	193.58750987052917	2.508244037628174
44	131.63524293899536	fix_post	2		12.0	42.0	2.5	blank	1.0	196.09575390815735	0.09992003440856934
45	131.73516297340393	fix_pre	0		67.0	43.0	2.5	/experiments/knapen_aot/videos/S_yt-ILARvS15SDQ_741.mp4	0.0	196.19567394256592	0.5583529472351074
45	132.28529405593872	response	0	2		43.0	2.5	/experiments/knapen_aot/videos/S_yt-ILARvS15SDQ_741.mp4	0.0	196.7458050251007	
45	132.29351592063904	movie	1		301.0	43.0	2.5	/experiments/knapen_aot/videos/S_yt-ILARvS15SDQ_741.mp4	0.0	196.75402688980103	2.508395195007324
45	134.80191111564636	fix_post	2		12.0	43.0	2.5	/experiments/knapen_aot/videos/S_yt-ILARvS15SDQ_741.mp4	0.0	199.26242208480835	0.09991192817687988
46	134.90182304382324	fix_pre	0		45.0	44.0	2.5	/experiments/knapen_aot/videos/S_yt-n2PnABmSpxI_115.mp4	0.0	199.36233401298523	0.3750288486480713
46	135.26858496665955	response	0	2		44.0	2.5	/experiments/knapen_aot/videos/S_yt-n2PnABmSpxI_115.mp4	0.0	199.72909593582153	
46	135.2768518924713	movie	1		301.0	44.0	2.5	/experiments/knapen_aot/videos/S_yt-n2PnABmSpxI_115.mp4	0.0	199.7373628616333	2.5083370208740234
46	137.78518891334534	fix_post	2		12.0	44.0	2.5	/experiments/knapen_aot/videos/S_yt-n2PnABmSpxI_115.mp4	0.0	202.24569988250732	0.09997105598449707
47	137.88515996932983	fix_pre	0		54.0	45.0	2.5	/experiments/knapen_aot/videos/R_S_yt-YEiNSML5iiQ_18.mp4	0.0	202.34567093849182	0.44995594024658203
47	138.32691192626953	response	0	2		45.0	2.5	/experiments/knapen_aot/videos/R_S_yt-YEiNSML5iiQ_18.mp4	0.0	202.78742289543152	
47	138.33511590957642	movie	1		301.0	45.0	2.5	/experiments/knapen_aot/videos/R_S_yt-YEiNSML5iiQ_18.mp4	0.0	202.7956268787384	2.508369207382202
47	140.84348511695862	fix_post	2		12.0	45.0	2.5	/experiments/knapen_aot/videos/R_S_yt-YEiNSML5iiQ_18.mp4	0.0	205.3039960861206	0.10000777244567871
48	140.9434928894043	fix_pre	0		41.0	46.0	2.5	/experiments/knapen_aot/videos/S_comp_GMT329_113NC_396B_1105_ITALY_v03_SDR_FINAL_20180706_SDR_2K_AVC.mp4	0.0	205.40400385856628	0.3416590690612793
48	141.27686190605164	response	0	2		46.0	2.5	/experiments/knapen_aot/videos/S_comp_GMT329_113NC_396B_1105_ITALY_v03_SDR_FINAL_20180706_SDR_2K_AVC.mp4	0.0	205.73737287521362	
48	141.28515195846558	movie	1		178.0	46.0	2.5	/experiments/knapen_aot/videos/S_comp_GMT329_113NC_396B_1105_ITALY_v03_SDR_FINAL_20180706_SDR_2K_AVC.mp4	0.0	205.74566292762756	2.5083510875701904
48	143.79350304603577	fix_post	2		12.0	46.0	2.5	/experiments/knapen_aot/videos/S_comp_GMT329_113NC_396B_1105_ITALY_v03_SDR_FINAL_20180706_SDR_2K_AVC.mp4	0.0	208.25401401519775	0.10031700134277344
49	143.89382004737854	fix_pre	0		49.0	47.0	2.5	/experiments/knapen_aot/videos/R_S_ILSVRC2015_train_00708000.mp4	0.0	208.35433101654053	0.4078938961029053
49	144.29358506202698	response	0	2		47.0	2.5	/experiments/knapen_aot/videos/R_S_ILSVRC2015_train_00708000.mp4	0.0	208.75409603118896	
49	144.30171394348145	movie	1		301.0	47.0	2.5	/experiments/knapen_aot/videos/R_S_ILSVRC2015_train_00708000.mp4	0.0	208.76222491264343	2.508563995361328
49	146.81027793884277	fix_post	2		12.0	47.0	2.5	/experiments/knapen_aot/videos/R_S_ILSVRC2015_train_00708000.mp4	0.0	211.27078890800476	0.09992599487304688
50	146.91020393371582	fix_pre	0		63.0	48.0	2.5	/experiments/knapen_aot/videos/S_pexels-c-technical-6809719.mp4	0.0	211.3707149028778	0.5256710052490234
50	147.41939091682434	response	0	2		48.0	2.5	/experiments/knapen_aot/videos/S_pexels-c-technical-6809719.mp4	0.0	211.87990188598633	
50	147.43587493896484	movie	1		188.0	48.0	2.5	/experiments/knapen_aot/videos/S_pexels-c-technical-6809719.mp4	0.0	211.89638590812683	2.5075981616973877
50	149.94347310066223	fix_post	2		12.0	48.0	2.5	/experiments/knapen_aot/videos/S_pexels-c-technical-6809719.mp4	0.0	214.40398406982422	0.09998488426208496
51	150.04345798492432	fix_pre	0		34.0	49.0	2.5	blank	1.0	214.5039689540863	0.2833390235900879
51	150.31861805915833	response	0	2		49.0	2.5	blank	1.0	214.7791290283203	
51	150.3267970085144	movie	1		301.0	49.0	2.5	blank	1.0	214.7873079776764	2.508413076400757
51	152.83521008491516	fix_post	2		12.0	49.0	2.5	blank	1.0	217.29572105407715	0.09987592697143555
52	152.9350860118866	fix_pre	0		60.0	50.0	2.5	/experiments/knapen_aot/videos/R_S_ILSVRC2015_train_00495000.mp4	0.0	217.39559698104858	0.5006320476531982
52	153.42690300941467	response	0	2		50.0	2.5	/experiments/knapen_aot/videos/R_S_ILSVRC2015_train_00495000.mp4	0.0	217.88741397857666	
52	153.4357180595398	movie	1		301.0	50.0	2.5	/experiments/knapen_aot/videos/R_S_ILSVRC2015_train_00495000.mp4	0.0	217.89622902870178	2.507706880569458
52	155.94342494010925	fix_post	2		12.0	50.0	2.5	/experiments/knapen_aot/videos/R_S_ILSVRC2015_train_00495000.mp4	0.0	220.40393590927124	0.09999608993530273
53	156.04342103004456	fix_pre	0		69.0	51.0	2.5	/experiments/knapen_aot/videos/S_yt--wYgjXsc1XQ_106.mp4	0.0	220.50393199920654	0.5749640464782715
53	156.61020803451538	response	0	2		51.0	2.5	/experiments/knapen_aot/videos/S_yt--wYgjXsc1XQ_106.mp4	0.0	221.07071900367737	
53	156.61838507652283	movie	1		301.0	51.0	2.5	/experiments/knapen_aot/videos/S_yt--wYgjXsc1XQ_106.mp4	0.0	221.07889604568481	2.508427858352661
53	159.1268129348755	fix_post	2		12.0	51.0	2.5	/experiments/knapen_aot/videos/S_yt--wYgjXsc1XQ_106.mp4	0.0	223.58732390403748	0.0999300479888916
54	159.22674298286438	fix_pre	0		47.0	52.0	2.5	/experiments/knapen_aot/videos/S_yt-1sn8u-rQRas_7.mp4	0.0	223.68725395202637	0.3916630744934082
54	159.61018109321594	response	0	2		52.0	2.5	/experiments/knapen_aot/videos/S_yt-1sn8u-rQRas_7.mp4	0.0	224.07069206237793	
54	159.6184060573578	movie	1		301.0	52.0	2.5	/experiments/knapen_aot/videos/S_yt-1sn8u-rQRas_7.mp4	0.0	224.07891702651978	2.508331060409546
54	162.12673711776733	fix_post	2		12.0	52.0	2.5	/experiments/knapen_aot/videos/S_yt-1sn8u-rQRas_7.mp4	0.0	226.58724808692932	0.09999585151672363
55	162.22673296928406	fix_pre	0		42.0	53.0	2.5	/experiments/knapen_aot/videos/R_S_yt-wEbfIR14zZ8_7.mp4	0.0	226.68724393844604	0.350006103515625
55	162.5684950351715	response	0	2		53.0	2.5	/experiments/knapen_aot/videos/R_S_yt-wEbfIR14zZ8_7.mp4	0.0	227.0290060043335	
55	162.57673907279968	movie	1		301.0	53.0	2.5	/experiments/knapen_aot/videos/R_S_yt-wEbfIR14zZ8_7.mp4	0.0	227.03725004196167	2.508441925048828
55	165.0851809978485	fix_post	2		12.0	53.0	2.5	/experiments/knapen_aot/videos/R_S_yt-wEbfIR14zZ8_7.mp4	0.0	229.5456919670105	0.09992003440856934
56	165.18510103225708	fix_pre	0		44.0	54.0	2.5	/experiments/knapen_aot/videos/R_S_ILSVRC2015_train_00538001.mp4	0.0	229.64561200141907	0.36661601066589355
56	165.536062002182	response	0	2		54.0	2.5	/experiments/knapen_aot/videos/R_S_ILSVRC2015_train_00538001.mp4	0.0	229.996572971344	
56	165.55171704292297	movie	1		301.0	54.0	2.5	/experiments/knapen_aot/videos/R_S_ILSVRC2015_train_00538001.mp4	0.0	230.01222801208496	2.50833797454834
56	168.0600550174713	fix_post	2		12.0	54.0	2.5	/experiments/knapen_aot/videos/R_S_ILSVRC2015_train_00538001.mp4	0.0	232.5205659866333	0.10009407997131348
57	168.16014909744263	fix_pre	0		35.0	55.0	2.5	/experiments/knapen_aot/videos/S_I003_C004_SDR_2K_AVC.mp4	0.0	232.62066006660461	0.2915458679199219
57	168.44352102279663	response	0	2		55.0	2.5	/experiments/knapen_aot/videos/S_I003_C004_SDR_2K_AVC.mp4	0.0	232.90403199195862	
57	168.45169496536255	movie	1		169.0	55.0	2.5	/experiments/knapen_aot/videos/S_I003_C004_SDR_2K_AVC.mp4	0.0	232.91220593452454	2.5083651542663574
57	170.9600601196289	fix_post	2		12.0	55.0	2.5	/experiments/knapen_aot/videos/S_I003_C004_SDR_2K_AVC.mp4	0.0	235.4205710887909	0.09996795654296875
58	171.06002807617188	fix_pre	0		58.0	56.0	2.5	blank	1.0	235.52053904533386	0.48330187797546387
58	171.53516006469727	response	0	2		56.0	2.5	blank	1.0	235.99567103385925	
58	171.54332995414734	movie	1		301.0	56.0	2.5	blank	1.0	236.00384092330933	2.5083720684051514
58	174.0517020225525	fix_post	2		12.0	56.0	2.5	blank	1.0	238.51221299171448	0.10012292861938477
59	174.15182495117188	fix_pre	0		89.0	57.0	2.5	/experiments/knapen_aot/videos/R_S_yt-v66td-1WO7w_44.mp4	0.0	238.61233592033386	0.7420151233673096
59	174.8851499557495	response	0	2		57.0	2.5	/experiments/knapen_aot/videos/R_S_yt-v66td-1WO7w_44.mp4	0.0	239.3456609249115	
59	174.89384007453918	movie	1		301.0	57.0	2.5	/experiments/knapen_aot/videos/R_S_yt-v66td-1WO7w_44.mp4	0.0	239.35435104370117	2.5078299045562744
59	177.40166997909546	fix_post	2		12.0	57.0	2.5	/experiments/knapen_aot/videos/R_S_yt-v66td-1WO7w_44.mp4	0.0	241.86218094825745	0.099945068359375
60	177.50161504745483	fix_pre	0		35.0	58.0	2.5	/experiments/knapen_aot/videos/R_S_yt-JDHApyT5ngs_128.mp4	0.0	241.96212601661682	0.29168105125427246
60	177.78509712219238	response	0	2		58.0	2.5	/experiments/knapen_aot/videos/R_S_yt-JDHApyT5ngs_128.mp4	0.0	242.24560809135437	
60	177.7932960987091	movie	1		301.0	58.0	2.5	/experiments/knapen_aot/videos/R_S_yt-JDHApyT5ngs_128.mp4	0.0	242.2538070678711	2.508344888687134
60	180.30164098739624	fix_post	2		12.0	58.0	2.5	/experiments/knapen_aot/videos/R_S_yt-JDHApyT5ngs_128.mp4	0.0	244.76215195655823	0.10001611709594727
61	180.4016571044922	fix_pre	0		155.0	59.0	2.5	/experiments/knapen_aot/videos/R_S_production_ID_4101242.mp4	0.0	244.86216807365417	1.291651964187622
61	181.68511700630188	response	0	2		59.0	2.5	/experiments/knapen_aot/videos/R_S_production_ID_4101242.mp4	0.0	246.14562797546387	
61	181.6933090686798	movie	1		201.0	59.0	2.5	/experiments/knapen_aot/videos/R_S_production_ID_4101242.mp4	0.0	246.1538200378418	2.508340835571289
61	184.2016499042511	fix_post	2		12.0	59.0	2.5	/experiments/knapen_aot/videos/R_S_production_ID_4101242.mp4	0.0	248.6621608734131	0.10005998611450195
62	184.3017098903656	fix_pre	0		54.0	60.0	2.5	/experiments/knapen_aot/videos/S_yt-B7ZRYVhfW2U_52.mp4	0.0	248.7622208595276	0.4499471187591553
62	184.74344205856323	response	0	2		60.0	2.5	/experiments/knapen_aot/videos/S_yt-B7ZRYVhfW2U_52.mp4	0.0	249.20395302772522	
62	184.75165700912476	movie	1		301.0	60.0	2.5	/experiments/knapen_aot/videos/S_yt-B7ZRYVhfW2U_52.mp4	0.0	249.21216797828674	2.508275032043457
62	187.2599320411682	fix_post	2		12.0	60.0	2.5	/experiments/knapen_aot/videos/S_yt-B7ZRYVhfW2U_52.mp4	0.0	251.7204430103302	0.1000220775604248
63	187.35995411872864	fix_pre	0		35.0	61.0	2.5	blank	1.0	251.82046508789062	0.29161882400512695
63	187.64337706565857	response	0	2		61.0	2.5	blank	1.0	252.10388803482056	
63	187.65157294273376	movie	1		301.0	61.0	2.5	blank	1.0	252.11208391189575	2.508376121520996
63	190.15994906425476	fix_post	2		12.0	61.0	2.5	blank	1.0	254.62046003341675	0.09999799728393555
64	190.2599470615387	fix_pre	0		33.0	62.0	2.5	/experiments/knapen_aot/videos/R_S_production_ID_5144823.mp4	0.0	254.72045803070068	0.2749919891357422
64	190.5266990661621	response	0	2		62.0	2.5	/experiments/knapen_aot/videos/R_S_production_ID_5144823.mp4	0.0	254.9872100353241	
64	190.53493905067444	movie	1		166.0	62.0	2.5	/experiments/knapen_aot/videos/R_S_production_ID_5144823.mp4	0.0	254.99545001983643	2.508336067199707
64	193.04327511787415	fix_post	2		12.0	62.0	2.5	/experiments/knapen_aot/videos/R_S_production_ID_5144823.mp4	0.0	257.50378608703613	0.10040497779846191
65	193.1436800956726	fix_pre	0		37.0	63.0	2.5	/experiments/knapen_aot/videos/R_S_yt-tneuR3EtSZE_72.mp4	0.0	257.6041910648346	0.30789899826049805
65	193.4358549118042	response	0	2		63.0	2.5	/experiments/knapen_aot/videos/R_S_yt-tneuR3EtSZE_72.mp4	0.0	257.8963658809662	
65	193.4515790939331	movie	1		301.0	63.0	2.5	/experiments/knapen_aot/videos/R_S_yt-tneuR3EtSZE_72.mp4	0.0	257.9120900630951	2.5084338188171387
65	195.96001291275024	fix_post	2		12.0	63.0	2.5	/experiments/knapen_aot/videos/R_S_yt-tneuR3EtSZE_72.mp4	0.0	260.42052388191223	0.1004030704498291
66	196.06041598320007	fix_pre	0		56.0	64.0	2.5	/experiments/knapen_aot/videos/S_yt-TBY8F6UMnJQ_51.mp4	0.0	260.52092695236206	0.4661591053009033
66	196.51099801063538	response	0	2		64.0	2.5	/experiments/knapen_aot/videos/S_yt-TBY8F6UMnJQ_51.mp4	0.0	260.97150897979736	
66	196.52657508850098	movie	1		301.0	64.0	2.5	/experiments/knapen_aot/videos/S_yt-TBY8F6UMnJQ_51.mp4	0.0	260.98708605766296	2.508349895477295
66	199.03492498397827	fix_post	2		12.0	64.0	2.5	/experiments/knapen_aot/videos/S_yt-TBY8F6UMnJQ_51.mp4	0.0	263.49543595314026	0.10001707077026367
67	199.13494205474854	fix_pre	0		26.0	65.0	2.5	/experiments/knapen_aot/videos/R_S_ILSVRC2015_train_00743002.mp4	0.0	263.5954530239105	0.2169640064239502
67	199.34334111213684	response	0	2		65.0	2.5	/experiments/knapen_aot/videos/R_S_ILSVRC2015_train_00743002.mp4	0.0	263.8038520812988	
67	199.35190606117249	movie	1		301.0	65.0	2.5	/experiments/knapen_aot/videos/R_S_ILSVRC2015_train_00743002.mp4	0.0	263.8124170303345	2.508035898208618
67	201.8599419593811	fix_post	2		12.0	65.0	2.5	/experiments/knapen_aot/videos/R_S_ILSVRC2015_train_00743002.mp4	0.0	266.3204529285431	0.09996604919433594
68	201.95990800857544	fix_pre	0		41.0	66.0	2.5	/experiments/knapen_aot/videos/S_yt-wrfAMDCg93Y_8.mp4	0.0	266.4204189777374	0.3416569232940674
68	202.29336500167847	response	0	2		66.0	2.5	/experiments/knapen_aot/videos/S_yt-wrfAMDCg93Y_8.mp4	0.0	266.75387597084045	
68	202.3015649318695	movie	1		301.0	66.0	2.5	/experiments/knapen_aot/videos/S_yt-wrfAMDCg93Y_8.mp4	0.0	266.7620759010315	2.5083069801330566
68	204.80987191200256	fix_post	2		12.0	66.0	2.5	/experiments/knapen_aot/videos/S_yt-wrfAMDCg93Y_8.mp4	0.0	269.27038288116455	0.09999918937683105
69	204.9098711013794	fix_pre	0		39.0	67.0	2.5	/experiments/knapen_aot/videos/S_yt-oPq1uvbw-lQ_62.mp4	0.0	269.3703820705414	0.3249537944793701
69	205.2266709804535	response	0	2		67.0	2.5	/experiments/knapen_aot/videos/S_yt-oPq1uvbw-lQ_62.mp4	0.0	269.6871819496155	
69	205.23482489585876	movie	1		301.0	67.0	2.5	/experiments/knapen_aot/videos/S_yt-oPq1uvbw-lQ_62.mp4	0.0	269.69533586502075	2.5083281993865967
69	207.74315309524536	fix_post	2		12.0	67.0	2.5	/experiments/knapen_aot/videos/S_yt-oPq1uvbw-lQ_62.mp4	0.0	272.20366406440735	0.10010099411010742
70	207.84325408935547	fix_pre	0		119.0	68.0	2.5	blank	1.0	272.30376505851746	0.9915518760681152
70	208.82659101486206	response	0	2		68.0	2.5	blank	1.0	273.28710198402405	
70	208.83480596542358	movie	1		301.0	68.0	2.5	blank	1.0	273.29531693458557	2.5083730220794678
70	211.34317898750305	fix_post	2		12.0	68.0	2.5	blank	1.0	275.80368995666504	0.10003995895385742
71	211.4432189464569	fix_pre	0		61.0	69.0	2.5	/experiments/knapen_aot/videos/R_S_yt-fryIS5Itzig_124.mp4	0.0	275.9037299156189	0.5082690715789795
71	211.9432508945465	response	0	2		69.0	2.5	/experiments/knapen_aot/videos/R_S_yt-fryIS5Itzig_124.mp4	0.0	276.4037618637085	
71	211.9514880180359	movie	1		301.0	69.0	2.5	/experiments/knapen_aot/videos/R_S_yt-fryIS5Itzig_124.mp4	0.0	276.4119989871979	2.5083789825439453
71	214.45986700057983	fix_post	2		12.0	69.0	2.5	/experiments/knapen_aot/videos/R_S_yt-fryIS5Itzig_124.mp4	0.0	278.9203779697418	0.10033297538757324
72	214.5601999759674	fix_pre	0		29.0	70.0	2.5	/experiments/knapen_aot/videos/S_g201_TH_804_A001_8_SDR_20191031_SDR_2K_AVC.mp4	0.0	279.0207109451294	0.24129796028137207
72	214.7933919429779	response	0	2		70.0	2.5	/experiments/knapen_aot/videos/S_g201_TH_804_A001_8_SDR_20191031_SDR_2K_AVC.mp4	0.0	279.2539029121399	
72	214.80149793624878	movie	1		168.0	70.0	2.5	/experiments/knapen_aot/videos/S_g201_TH_804_A001_8_SDR_20191031_SDR_2K_AVC.mp4	0.0	279.26200890541077	2.508239984512329
72	217.3097379207611	fix_post	2		12.0	70.0	2.5	/experiments/knapen_aot/videos/S_g201_TH_804_A001_8_SDR_20191031_SDR_2K_AVC.mp4	0.0	281.7702488899231	0.10020112991333008
73	217.40993905067444	fix_pre	0		46.0	71.0	2.5	/experiments/knapen_aot/videos/R_S_yt-dO0OuozAgt0_225.mp4	0.0	281.8704500198364	0.38320493698120117
73	217.784912109375	response	0	2		71.0	2.5	/experiments/knapen_aot/videos/R_S_yt-dO0OuozAgt0_225.mp4	0.0	282.245423078537	
73	217.79314398765564	movie	1		301.0	71.0	2.5	/experiments/knapen_aot/videos/R_S_yt-dO0OuozAgt0_225.mp4	0.0	282.2536549568176	2.508333921432495
73	220.30147790908813	fix_post	2		12.0	71.0	2.5	/experiments/knapen_aot/videos/R_S_yt-dO0OuozAgt0_225.mp4	0.0	284.7619888782501	0.1000220775604248
74	220.40149998664856	fix_pre	0		35.0	72.0	2.5	/experiments/knapen_aot/videos/R_S_yt-4wYTkhggZNM_90.mp4	0.0	284.86201095581055	0.29163599014282227
74	220.6849720478058	response	0	2		72.0	2.5	/experiments/knapen_aot/videos/R_S_yt-4wYTkhggZNM_90.mp4	0.0	285.1454830169678	
74	220.69313597679138	movie	1		301.0	72.0	2.5	/experiments/knapen_aot/videos/R_S_yt-4wYTkhggZNM_90.mp4	0.0	285.15364694595337	2.5083699226379395
74	223.20150589942932	fix_post	2		12.0	72.0	2.5	/experiments/knapen_aot/videos/R_S_yt-4wYTkhggZNM_90.mp4	0.0	287.6620168685913	0.09998202323913574
75	223.30148792266846	fix_pre	0		83.0	73.0	2.5	/experiments/knapen_aot/videos/R_S_comp_CH_C007_C011_PSNK_v02_SDR_PS_FINAL_20180709_SDR_2K_AVC.mp4	0.0	287.76199889183044	0.6916530132293701
75	223.98495507240295	response	0	2		73.0	2.5	/experiments/knapen_aot/videos/R_S_comp_CH_C007_C011_PSNK_v02_SDR_PS_FINAL_20180709_SDR_2K_AVC.mp4	0.0	288.44546604156494	
75	223.99314093589783	movie	1		175.0	73.0	2.5	/experiments/knapen_aot/videos/R_S_comp_CH_C007_C011_PSNK_v02_SDR_PS_FINAL_20180709_SDR_2K_AVC.mp4	0.0	288.4536519050598	2.5083541870117188
75	226.50149512290955	fix_post	2		12.0	73.0	2.5	/experiments/knapen_aot/videos/R_S_comp_CH_C007_C011_PSNK_v02_SDR_PS_FINAL_20180709_SDR_2K_AVC.mp4	0.0	290.96200609207153	0.10022497177124023
76	226.6017200946808	fix_pre	0		126.0	74.0	2.5	/experiments/knapen_aot/videos/R_S_yt-BDCyXL5e9S4_223.mp4	0.0	291.0622310638428	1.049665927886963
76	227.6431770324707	response	0	2		74.0	2.5	/experiments/knapen_aot/videos/R_S_yt-BDCyXL5e9S4_223.mp4	0.0	292.1036880016327	
76	227.65138602256775	movie	1		301.0	74.0	2.5	/experiments/knapen_aot/videos/R_S_yt-BDCyXL5e9S4_223.mp4	0.0	292.11189699172974	2.508439064025879
76	230.15982508659363	fix_post	2		12.0	74.0	2.5	/experiments/knapen_aot/videos/R_S_yt-BDCyXL5e9S4_223.mp4	0.0	294.6203360557556	0.09995698928833008
77	230.25978207588196	fix_pre	0		65.0	75.0	2.5	/experiments/knapen_aot/videos/S_ILSVRC2015_train_00524006.mp4	0.0	294.72029304504395	0.5432758331298828
77	230.79327702522278	response	0	2		75.0	2.5	/experiments/knapen_aot/videos/S_ILSVRC2015_train_00524006.mp4	0.0	295.25378799438477	
77	230.80305790901184	movie	1		301.0	75.0	2.5	/experiments/knapen_aot/videos/S_ILSVRC2015_train_00524006.mp4	0.0	295.2635688781738	2.5069050788879395
77	233.30996298789978	fix_post	2		12.0	75.0	2.5	/experiments/knapen_aot/videos/S_ILSVRC2015_train_00524006.mp4	0.0	297.77047395706177	0.09979701042175293
78	233.40975999832153	fix_pre	0		63.0	76.0	2.5	/experiments/knapen_aot/videos/S_production_ID_3943965.mp4	0.0	297.8702709674835	0.5252881050109863
78	233.9265899658203	response	0	2		76.0	2.5	/experiments/knapen_aot/videos/S_production_ID_3943965.mp4	0.0	298.3871009349823	
78	233.93504810333252	movie	1		197.0	76.0	2.5	/experiments/knapen_aot/videos/S_production_ID_3943965.mp4	0.0	298.3955590724945	2.5080008506774902
78	236.44304895401	fix_post	2		12.0	76.0	2.5	/experiments/knapen_aot/videos/S_production_ID_3943965.mp4	0.0	300.903559923172	0.10013413429260254
79	236.5431830883026	fix_pre	0		58.0	77.0	2.5	blank	1.0	301.0036940574646	0.48311781883239746
79	237.01820302009583	response	0	2		77.0	2.5	blank	1.0	301.4787139892578	
79	237.026300907135	movie	1		301.0	77.0	2.5	blank	1.0	301.486811876297	2.5084331035614014
79	239.5347340106964	fix_post	2		12.0	77.0	2.5	blank	1.0	303.9952449798584	0.10005688667297363
80	239.63479089736938	fix_pre	0		37.0	78.0	2.5	/experiments/knapen_aot/videos/S_yt-fymgyhmYnMI_557.mp4	0.0	304.0953018665314	0.30826520919799805
80	239.9348258972168	response	0	2		78.0	2.5	/experiments/knapen_aot/videos/S_yt-fymgyhmYnMI_557.mp4	0.0	304.3953368663788	
80	239.94305610656738	movie	1		301.0	78.0	2.5	/experiments/knapen_aot/videos/S_yt-fymgyhmYnMI_557.mp4	0.0	304.40356707572937	2.508549928665161
80	242.45160603523254	fix_post	2		12.0	78.0	2.5	/experiments/knapen_aot/videos/S_yt-fymgyhmYnMI_557.mp4	0.0	306.91211700439453	0.09980607032775879
81	242.5514121055603	fix_pre	0		60.0	79.0	2.5	/experiments/knapen_aot/videos/S_comp_A006_C003_1219EE_CC_v01_SDR_PS_FINAL_20180709_SDR_2K_AVC.mp4	0.0	307.0119230747223	0.5000159740447998
81	243.04315209388733	response	0	2		79.0	2.5	/experiments/knapen_aot/videos/S_comp_A006_C003_1219EE_CC_v01_SDR_PS_FINAL_20180709_SDR_2K_AVC.mp4	0.0	307.5036630630493	
81	243.0514280796051	movie	1		168.0	79.0	2.5	/experiments/knapen_aot/videos/S_comp_A006_C003_1219EE_CC_v01_SDR_PS_FINAL_20180709_SDR_2K_AVC.mp4	0.0	307.5119390487671	2.508596897125244
81	245.56002497673035	fix_post	2		12.0	79.0	2.5	/experiments/knapen_aot/videos/S_comp_A006_C003_1219EE_CC_v01_SDR_PS_FINAL_20180709_SDR_2K_AVC.mp4	0.0	310.02053594589233	0.0997459888458252
82	245.65977096557617	fix_pre	0		37.0	80.0	2.5	/experiments/knapen_aot/videos/R_S_yt-4BAsE47kJNk_88.mp4	0.0	310.12028193473816	0.3082239627838135
82	245.95223212242126	response	0	2		80.0	2.5	/experiments/knapen_aot/videos/R_S_yt-4BAsE47kJNk_88.mp4	0.0	310.41274309158325	
82	245.96799492835999	movie	1		301.0	80.0	2.5	/experiments/knapen_aot/videos/R_S_yt-4BAsE47kJNk_88.mp4	0.0	310.428505897522	2.5085651874542236
82	248.4765601158142	fix_post	2		12.0	80.0	2.5	/experiments/knapen_aot/videos/R_S_yt-4BAsE47kJNk_88.mp4	0.0	312.9370710849762	0.09981894493103027
83	248.57637906074524	fix_pre	0		43.0	81.0	2.5	/experiments/knapen_aot/videos/R_S_yt-Z4W6l0eZza4_6.mp4	0.0	313.0368900299072	0.35840892791748047
83	248.92647409439087	response	0	2		81.0	2.5	/experiments/knapen_aot/videos/R_S_yt-Z4W6l0eZza4_6.mp4	0.0	313.38698506355286	
83	248.93478798866272	movie	1		301.0	81.0	2.5	/experiments/knapen_aot/videos/R_S_yt-Z4W6l0eZza4_6.mp4	0.0	313.3952989578247	2.5082969665527344
83	251.44308495521545	fix_post	2		12.0	81.0	2.5	/experiments/knapen_aot/videos/R_S_yt-Z4W6l0eZza4_6.mp4	0.0	315.90359592437744	0.09998893737792969
84	251.54307389259338	fix_pre	0		36.0	82.0	2.5	/experiments/knapen_aot/videos/S_yt-dESxu60Cl10_24.mp4	0.0	316.00358486175537	0.3000361919403076
84	251.8274049758911	response	0	2		82.0	2.5	/experiments/knapen_aot/videos/S_yt-dESxu60Cl10_24.mp4	0.0	316.2879159450531	
84	251.8431100845337	movie	1		301.0	82.0	2.5	/experiments/knapen_aot/videos/S_yt-dESxu60Cl10_24.mp4	0.0	316.3036210536957	2.508272886276245
84	254.35138297080994	fix_post	2		12.0	82.0	2.5	/experiments/knapen_aot/videos/S_yt-dESxu60Cl10_24.mp4	0.0	318.8118939399719	0.09995794296264648
85	254.45134091377258	fix_pre	0		65.0	83.0	2.5	blank	1.0	318.91185188293457	0.5416951179504395
85	254.98481106758118	response	0	2		83.0	2.5	blank	1.0	319.44532203674316	
85	254.99303603172302	movie	1		301.0	83.0	2.5	blank	1.0	319.453547000885	2.5083160400390625
85	257.5013520717621	fix_post	2		12.0	83.0	2.5	blank	1.0	321.9618630409241	0.10002994537353516
87	257.6013820171356	stim	0		145.0					322.0618929862976	1.208362102508545
87	258.80463004112244	response	0	space						323.2651410102844	
