trial_nr	onset	event_type	phase	response	nr_frames	movie_index	movie_duration	movie_file	blank	onset_abs	duration
0	0.1332719326019287	stim	0		53.0					70.89026284217834	0.444303035736084
0	0.5667529106140137	response	0	space						71.32374382019043	
1	0.5775749683380127	stim	0		121.0					71.33456587791443	1.0056729316711426
1	1.4750590324401855	response	0	space						72.2320499420166	
1	1.5832479000091553	stim	1		120.0					72.34023880958557	0.9997010231018066
1	2.133868932723999	response	1	space						72.89085984230042	
2	2.582948923110962	fix_pre	0		95.0	0.0	2.5	/experiments/knapen_aot/videos/S_yt-v8e_DlCsP4w_10.mp4	0.0	73.33993983268738	0.7929961681365967
2	3.3664441108703613	response	0	space		0.0	2.5	/experiments/knapen_aot/videos/S_yt-v8e_DlCsP4w_10.mp4	0.0	74.12343502044678	
2	3.3759450912475586	movie	1		300.0	0.0	2.5	/experiments/knapen_aot/videos/S_yt-v8e_DlCsP4w_10.mp4	0.0	74.13293600082397	2.5069148540496826
2	5.882859945297241	fix_post	2		12.0	0.0	2.5	/experiments/knapen_aot/videos/S_yt-v8e_DlCsP4w_10.mp4	0.0	76.63985085487366	0.10006403923034668
3	5.982923984527588	fix_pre	0		2.0	1.0	2.5	/experiments/knapen_aot/videos/S_yt-fQGoTMausn8_88.mp4	0.0	76.739914894104	0.01802206039428711
3	5.990384101867676	response	0	2		1.0	2.5	/experiments/knapen_aot/videos/S_yt-fQGoTMausn8_88.mp4	0.0	76.74737501144409	
3	6.000946044921875	movie	1		299.0	1.0	2.5	/experiments/knapen_aot/videos/S_yt-fQGoTMausn8_88.mp4	0.0	76.75793695449829	2.5069398880004883
3	8.507885932922363	fix_post	2		12.0	1.0	2.5	/experiments/knapen_aot/videos/S_yt-fQGoTMausn8_88.mp4	0.0	79.26487684249878	0.09999418258666992
4	8.607880115509033	fix_pre	0		22.0	2.0	2.5	/experiments/knapen_aot/videos/R_S_yt-7W50lcw5FCo_37.mp4	0.0	79.36487102508545	0.18454384803771973
4	8.78299593925476	response	0	2		2.0	2.5	/experiments/knapen_aot/videos/R_S_yt-7W50lcw5FCo_37.mp4	0.0	79.53998684883118	
4	8.792423963546753	movie	1		301.0	2.0	2.5	/experiments/knapen_aot/videos/R_S_yt-7W50lcw5FCo_37.mp4	0.0	79.54941487312317	2.5071160793304443
4	11.299540042877197	fix_post	2		12.0	2.0	2.5	/experiments/knapen_aot/videos/R_S_yt-7W50lcw5FCo_37.mp4	0.0	82.05653095245361	0.10006999969482422
5	11.399610042572021	fix_pre	0		5.0	3.0	2.5	/experiments/knapen_aot/videos/S_yt-hvuC_2YXsTQ_159.mp4	0.0	82.15660095214844	0.04160189628601074
5	11.433151006698608	response	0	2		3.0	2.5	/experiments/knapen_aot/videos/S_yt-hvuC_2YXsTQ_159.mp4	0.0	82.19014191627502	
5	11.441211938858032	movie	1		301.0	3.0	2.5	/experiments/knapen_aot/videos/S_yt-hvuC_2YXsTQ_159.mp4	0.0	82.19820284843445	2.508296012878418
5	13.94950795173645	fix_post	2		12.0	3.0	2.5	/experiments/knapen_aot/videos/S_yt-hvuC_2YXsTQ_159.mp4	0.0	84.70649886131287	0.10006117820739746
6	14.049569129943848	fix_pre	0		12.0	4.0	2.5	/experiments/knapen_aot/videos/S_ILSVRC2015_train_00165009.mp4	0.0	84.80656003952026	0.0998997688293457
6	14.14133095741272	response	0	2		4.0	2.5	/experiments/knapen_aot/videos/S_ILSVRC2015_train_00165009.mp4	0.0	84.89832186698914	
6	14.149468898773193	movie	1		301.0	4.0	2.5	/experiments/knapen_aot/videos/S_ILSVRC2015_train_00165009.mp4	0.0	84.90645980834961	2.5084261894226074
6	16.6578950881958	fix_post	2		12.0	4.0	2.5	/experiments/knapen_aot/videos/S_ILSVRC2015_train_00165009.mp4	0.0	87.41488599777222	0.09995293617248535
7	16.757848024368286	fix_pre	0		10.0	5.0	2.5	blank	1.0	87.5148389339447	0.08335709571838379
7	16.832969903945923	response	0	2		5.0	2.5	blank	1.0	87.58996081352234	
7	16.84120512008667	movie	1		301.0	5.0	2.5	blank	1.0	87.59819602966309	2.50830078125
7	19.34950590133667	fix_post	2		12.0	5.0	2.5	blank	1.0	90.10649681091309	0.09988713264465332
8	19.449393033981323	fix_pre	0		25.0	6.0	2.5	/experiments/knapen_aot/videos/R_S_ILSVRC2015_train_00578000.mp4	0.0	90.20638394355774	0.20839190483093262
8	19.64958691596985	response	0	2		6.0	2.5	/experiments/knapen_aot/videos/R_S_ILSVRC2015_train_00578000.mp4	0.0	90.40657782554626	
8	19.657784938812256	movie	1		301.0	6.0	2.5	/experiments/knapen_aot/videos/R_S_ILSVRC2015_train_00578000.mp4	0.0	90.41477584838867	2.508357048034668
8	22.166141986846924	fix_post	2		12.0	6.0	2.5	/experiments/knapen_aot/videos/R_S_ILSVRC2015_train_00578000.mp4	0.0	92.92313289642334	0.10000896453857422
9	22.266150951385498	fix_pre	0		2.0	7.0	2.5	/experiments/knapen_aot/videos/R_S_ILSVRC2015_train_00363000.mp4	0.0	93.02314186096191	0.016680002212524414
9	22.274604082107544	response	0	2		7.0	2.5	/experiments/knapen_aot/videos/R_S_ILSVRC2015_train_00363000.mp4	0.0	93.03159499168396	
9	22.282830953598022	movie	1		301.0	7.0	2.5	/experiments/knapen_aot/videos/R_S_ILSVRC2015_train_00363000.mp4	0.0	93.03982186317444	2.508272171020508
9	24.79110312461853	fix_post	2		12.0	7.0	2.5	/experiments/knapen_aot/videos/R_S_ILSVRC2015_train_00363000.mp4	0.0	95.54809403419495	0.09999489784240723
10	24.891098022460938	fix_pre	0		6.0	8.0	2.5	/experiments/knapen_aot/videos/R_S_ILSVRC2015_train_00404003.mp4	0.0	95.64808893203735	0.05012798309326172
10	24.933154106140137	response	0	2		8.0	2.5	/experiments/knapen_aot/videos/R_S_ILSVRC2015_train_00404003.mp4	0.0	95.69014501571655	
10	24.9412260055542	movie	1		301.0	8.0	2.5	/experiments/knapen_aot/videos/R_S_ILSVRC2015_train_00404003.mp4	0.0	95.69821691513062	2.508244037628174
10	27.449470043182373	fix_post	2		12.0	8.0	2.5	/experiments/knapen_aot/videos/R_S_ILSVRC2015_train_00404003.mp4	0.0	98.20646095275879	0.0999760627746582
11	27.54944610595703	fix_pre	0		10.0	9.0	2.5	/experiments/knapen_aot/videos/S_ILSVRC2015_train_00447000.mp4	0.0	98.30643701553345	0.08337998390197754
11	27.617128133773804	response	0	2		9.0	2.5	/experiments/knapen_aot/videos/S_ILSVRC2015_train_00447000.mp4	0.0	98.37411904335022	
11	27.63282608985901	movie	1		301.0	9.0	2.5	/experiments/knapen_aot/videos/S_ILSVRC2015_train_00447000.mp4	0.0	98.38981699943542	2.5083060264587402
11	30.14113211631775	fix_post	2		12.0	9.0	2.5	/experiments/knapen_aot/videos/S_ILSVRC2015_train_00447000.mp4	0.0	100.89812302589417	0.0999457836151123
12	30.24107789993286	fix_pre	0		20.0	10.0	2.5	/experiments/knapen_aot/videos/R_S_yt-T1mMDOVjvrE_83.mp4	0.0	100.99806880950928	0.16669201850891113
12	30.399569988250732	response	0	2		10.0	2.5	/experiments/knapen_aot/videos/R_S_yt-T1mMDOVjvrE_83.mp4	0.0	101.15656089782715	
12	30.407769918441772	movie	1		301.0	10.0	2.5	/experiments/knapen_aot/videos/R_S_yt-T1mMDOVjvrE_83.mp4	0.0	101.16476082801819	2.508247137069702
12	32.916017055511475	fix_post	2		12.0	10.0	2.5	/experiments/knapen_aot/videos/R_S_yt-T1mMDOVjvrE_83.mp4	0.0	103.67300796508789	0.10007596015930176
13	33.016093015670776	fix_pre	0		8.0	11.0	2.5	/experiments/knapen_aot/videos/S_video-10.mp4	0.0	103.77308392524719	0.06781196594238281
13	33.07456994056702	response	0	2		11.0	2.5	/experiments/knapen_aot/videos/S_video-10.mp4	0.0	103.83156085014343	
13	33.08390498161316	movie	1		163.0	11.0	2.5	/experiments/knapen_aot/videos/S_video-10.mp4	0.0	103.84089589118958	2.507197141647339
13	35.5911021232605	fix_post	2		12.0	11.0	2.5	/experiments/knapen_aot/videos/S_video-10.mp4	0.0	106.34809303283691	0.09994387626647949
13	35.68280100822449	response	2	2		11.0	2.5	/experiments/knapen_aot/videos/S_video-10.mp4	0.0	106.4397919178009	
14	35.69104599952698	fix_pre	0		52.0	12.0	2.5	/experiments/knapen_aot/videos/R_S_yt-c5KPuyzO-50_4.mp4	0.0	106.4480369091034	0.4344971179962158
14	36.11617112159729	response	0	2		12.0	2.5	/experiments/knapen_aot/videos/R_S_yt-c5KPuyzO-50_4.mp4	0.0	106.8731620311737	
14	36.12554311752319	movie	1		301.0	12.0	2.5	/experiments/knapen_aot/videos/R_S_yt-c5KPuyzO-50_4.mp4	0.0	106.88253402709961	2.5071308612823486
14	38.63267397880554	fix_post	2		12.0	12.0	2.5	/experiments/knapen_aot/videos/R_S_yt-c5KPuyzO-50_4.mp4	0.0	109.38966488838196	0.10011506080627441
15	38.732789039611816	fix_pre	0		8.0	13.0	2.5	/experiments/knapen_aot/videos/S_yt-h09NHEfoKb0_8.mp4	0.0	109.48977994918823	0.06652307510375977
15	38.791157960891724	response	0	2		13.0	2.5	/experiments/knapen_aot/videos/S_yt-h09NHEfoKb0_8.mp4	0.0	109.54814887046814	
15	38.799312114715576	movie	1		301.0	13.0	2.5	/experiments/knapen_aot/videos/S_yt-h09NHEfoKb0_8.mp4	0.0	109.55630302429199	2.508358955383301
15	41.30767107009888	fix_post	2		12.0	13.0	2.5	/experiments/knapen_aot/videos/S_yt-h09NHEfoKb0_8.mp4	0.0	112.0646619796753	0.10012602806091309
16	41.40779709815979	fix_pre	0		11.0	14.0	2.5	blank	1.0	112.1647880077362	0.09154391288757324
16	41.491158962249756	response	0	2		14.0	2.5	blank	1.0	112.24814987182617	
16	41.49934101104736	movie	1		301.0	14.0	2.5	blank	1.0	112.25633192062378	2.508384943008423
16	44.007725954055786	fix_post	2		12.0	14.0	2.5	blank	1.0	114.7647168636322	0.09994196891784668
17	44.10766792297363	fix_pre	0		24.0	15.0	2.5	/experiments/knapen_aot/videos/S_yt-mJzkLd3Mr_c_35.mp4	0.0	114.86465883255005	0.20008015632629395
17	44.2994430065155	response	0	2		15.0	2.5	/experiments/knapen_aot/videos/S_yt-mJzkLd3Mr_c_35.mp4	0.0	115.05643391609192	
17	44.30774807929993	movie	1		301.0	15.0	2.5	/experiments/knapen_aot/videos/S_yt-mJzkLd3Mr_c_35.mp4	0.0	115.06473898887634	2.5083529949188232
17	46.81610107421875	fix_post	2		12.0	15.0	2.5	/experiments/knapen_aot/videos/S_yt-mJzkLd3Mr_c_35.mp4	0.0	117.57309198379517	0.09996700286865234
18	46.9160680770874	fix_pre	0		29.0	16.0	2.5	/experiments/knapen_aot/videos/S_yt-pB9w3AA-woE_37.mp4	0.0	117.67305898666382	0.24158287048339844
18	47.14951705932617	response	0	2		16.0	2.5	/experiments/knapen_aot/videos/S_yt-pB9w3AA-woE_37.mp4	0.0	117.90650796890259	
18	47.1576509475708	movie	1		301.0	16.0	2.5	/experiments/knapen_aot/videos/S_yt-pB9w3AA-woE_37.mp4	0.0	117.91464185714722	2.508427143096924
18	49.666078090667725	fix_post	2		12.0	16.0	2.5	/experiments/knapen_aot/videos/S_yt-pB9w3AA-woE_37.mp4	0.0	120.42306900024414	0.09994888305664062
19	49.766026973724365	fix_pre	0		12.0	17.0	2.5	/experiments/knapen_aot/videos/R_S_video-10.mp4	0.0	120.52301788330078	0.10004997253417969
19	49.85780906677246	response	0	2		17.0	2.5	/experiments/knapen_aot/videos/R_S_video-10.mp4	0.0	120.61479997634888	
19	49.866076946258545	movie	1		165.0	17.0	2.5	/experiments/knapen_aot/videos/R_S_video-10.mp4	0.0	120.62306785583496	2.508310079574585
19	52.37438702583313	fix_post	2		12.0	17.0	2.5	/experiments/knapen_aot/videos/R_S_video-10.mp4	0.0	123.13137793540955	0.10009503364562988
19	52.44118595123291	response	2	2		17.0	2.5	/experiments/knapen_aot/videos/R_S_video-10.mp4	0.0	123.19817686080933	
20	52.47448205947876	fix_pre	0		57.0	18.0	2.5	/experiments/knapen_aot/videos/S_yt-7VVzNnp36DM_62.mp4	0.0	123.23147296905518	0.4842500686645508
20	52.94941806793213	response	0	2		18.0	2.5	/experiments/knapen_aot/videos/S_yt-7VVzNnp36DM_62.mp4	0.0	123.70640897750854	
20	52.95873212814331	movie	1		301.0	18.0	2.5	/experiments/knapen_aot/videos/S_yt-7VVzNnp36DM_62.mp4	0.0	123.71572303771973	2.5072197914123535
20	55.465951919555664	fix_post	2		12.0	18.0	2.5	/experiments/knapen_aot/videos/S_yt-7VVzNnp36DM_62.mp4	0.0	126.22294282913208	0.10007405281066895
21	55.56602597236633	fix_pre	0		31.0	19.0	2.5	/experiments/knapen_aot/videos/R_S_yt-ObT9gF8E_tU_250.mp4	0.0	126.32301688194275	0.25843214988708496
21	55.81607794761658	response	0	2		19.0	2.5	/experiments/knapen_aot/videos/R_S_yt-ObT9gF8E_tU_250.mp4	0.0	126.573068857193	
21	55.82445812225342	movie	1		301.0	19.0	2.5	/experiments/knapen_aot/videos/R_S_yt-ObT9gF8E_tU_250.mp4	0.0	126.58144903182983	2.5082240104675293
21	58.33268213272095	fix_post	2		12.0	19.0	2.5	/experiments/knapen_aot/videos/R_S_yt-ObT9gF8E_tU_250.mp4	0.0	129.08967304229736	0.10001993179321289
22	58.43270206451416	fix_pre	0		17.0	20.0	2.5	/experiments/knapen_aot/videos/R_S_yt-zydTlQGCUjQ_277.mp4	0.0	129.18969297409058	0.14164090156555176
22	58.55864906311035	response	0	2		20.0	2.5	/experiments/knapen_aot/videos/R_S_yt-zydTlQGCUjQ_277.mp4	0.0	129.31563997268677	
22	58.57434296607971	movie	1		301.0	20.0	2.5	/experiments/knapen_aot/videos/R_S_yt-zydTlQGCUjQ_277.mp4	0.0	129.33133387565613	2.508289098739624
22	61.082632064819336	fix_post	2		12.0	20.0	2.5	/experiments/knapen_aot/videos/R_S_yt-zydTlQGCUjQ_277.mp4	0.0	131.83962297439575	0.09996199607849121
23	61.18259406089783	fix_pre	0		9.0	21.0	2.5	blank	1.0	131.93958497047424	0.07499384880065918
23	61.249452114105225	response	0	2		21.0	2.5	blank	1.0	132.00644302368164	
23	61.257587909698486	movie	1		301.0	21.0	2.5	blank	1.0	132.0145788192749	2.5083701610565186
23	63.765958070755005	fix_post	2		12.0	21.0	2.5	blank	1.0	134.52294898033142	0.10004997253417969
24	63.866008043289185	fix_pre	0		27.0	22.0	2.5	/experiments/knapen_aot/videos/R_S_yt-JG2OY_7B-gI_537.mp4	0.0	134.6229989528656	0.22493696212768555
24	64.0830590724945	response	0	2		22.0	2.5	/experiments/knapen_aot/videos/R_S_yt-JG2OY_7B-gI_537.mp4	0.0	134.84004998207092	
24	64.09094500541687	movie	1		301.0	22.0	2.5	/experiments/knapen_aot/videos/R_S_yt-JG2OY_7B-gI_537.mp4	0.0	134.8479359149933	2.5082950592041016
24	66.59924006462097	fix_post	2		12.0	22.0	2.5	/experiments/knapen_aot/videos/R_S_yt-JG2OY_7B-gI_537.mp4	0.0	137.3562309741974	0.10003900527954102
25	66.69927906990051	fix_pre	0		17.0	23.0	2.5	/experiments/knapen_aot/videos/R_S_yt-uE9XoCLZlFo_1.mp4	0.0	137.45626997947693	0.14167094230651855
25	66.83265590667725	response	0	2		23.0	2.5	/experiments/knapen_aot/videos/R_S_yt-uE9XoCLZlFo_1.mp4	0.0	137.58964681625366	
25	66.84095001220703	movie	1		300.0	23.0	2.5	/experiments/knapen_aot/videos/R_S_yt-uE9XoCLZlFo_1.mp4	0.0	137.59794092178345	2.5083119869232178
25	69.34926199913025	fix_post	2		12.0	23.0	2.5	/experiments/knapen_aot/videos/R_S_yt-uE9XoCLZlFo_1.mp4	0.0	140.10625290870667	0.09999990463256836
26	69.44926190376282	fix_pre	0		21.0	24.0	2.5	/experiments/knapen_aot/videos/R_S_yt-CRw9-cCQqbg_332.mp4	0.0	140.20625281333923	0.17597603797912598
26	69.61605310440063	response	0	2		24.0	2.5	/experiments/knapen_aot/videos/R_S_yt-CRw9-cCQqbg_332.mp4	0.0	140.37304401397705	
26	69.62523794174194	movie	1		301.0	24.0	2.5	/experiments/knapen_aot/videos/R_S_yt-CRw9-cCQqbg_332.mp4	0.0	140.38222885131836	2.507413148880005
26	72.13265109062195	fix_post	2		12.0	24.0	2.5	/experiments/knapen_aot/videos/R_S_yt-CRw9-cCQqbg_332.mp4	0.0	142.88964200019836	0.09997797012329102
27	72.23262906074524	fix_pre	0		8.0	25.0	2.5	/experiments/knapen_aot/videos/R_S_ILSVRC2015_train_00067005.mp4	0.0	142.98961997032166	0.0666818618774414
27	72.29110407829285	response	0	2		25.0	2.5	/experiments/knapen_aot/videos/R_S_ILSVRC2015_train_00067005.mp4	0.0	143.04809498786926	
27	72.29931092262268	movie	1		301.0	25.0	2.5	/experiments/knapen_aot/videos/R_S_ILSVRC2015_train_00067005.mp4	0.0	143.0563018321991	2.508336067199707
27	74.80764698982239	fix_post	2		12.0	25.0	2.5	/experiments/knapen_aot/videos/R_S_ILSVRC2015_train_00067005.mp4	0.0	145.5646378993988	0.09998893737792969
28	74.90763592720032	fix_pre	0		14.0	26.0	2.5	/experiments/knapen_aot/videos/S_ILSVRC2015_train_00001011.mp4	0.0	145.66462683677673	0.11652803421020508
28	75.01604294776917	response	0	2		26.0	2.5	/experiments/knapen_aot/videos/S_ILSVRC2015_train_00001011.mp4	0.0	145.77303385734558	
28	75.02416396141052	movie	1		298.0	26.0	2.5	/experiments/knapen_aot/videos/S_ILSVRC2015_train_00001011.mp4	0.0	145.78115487098694	2.508305072784424
28	77.53246903419495	fix_post	2		12.0	26.0	2.5	/experiments/knapen_aot/videos/S_ILSVRC2015_train_00001011.mp4	0.0	148.28945994377136	0.10007095336914062
29	77.63253998756409	fix_pre	0		12.0	27.0	2.5	blank	1.0	148.3895308971405	0.09998202323913574
29	77.72440791130066	response	0	2		27.0	2.5	blank	1.0	148.48139882087708	
29	77.73252201080322	movie	1		301.0	27.0	2.5	blank	1.0	148.48951292037964	2.5084140300750732
29	80.2409360408783	fix_post	2		12.0	27.0	2.5	blank	1.0	150.9979269504547	0.0999460220336914
30	80.34088206291199	fix_pre	0		37.0	28.0	2.5	/experiments/knapen_aot/videos/R_S_yt-h09NHEfoKb0_8.mp4	0.0	151.0978729724884	0.3082559108734131
30	80.64104795455933	response	0	2		28.0	2.5	/experiments/knapen_aot/videos/R_S_yt-h09NHEfoKb0_8.mp4	0.0	151.39803886413574	
30	80.6491379737854	movie	1		301.0	28.0	2.5	/experiments/knapen_aot/videos/R_S_yt-h09NHEfoKb0_8.mp4	0.0	151.40612888336182	2.5084149837493896
30	83.15755295753479	fix_post	2		12.0	28.0	2.5	/experiments/knapen_aot/videos/R_S_yt-h09NHEfoKb0_8.mp4	0.0	153.9145438671112	0.09996414184570312
31	83.2575170993805	fix_pre	0		14.0	29.0	2.5	/experiments/knapen_aot/videos/S_yt-xQilXyNKsBw_42.mp4	0.0	154.0145080089569	0.11765193939208984
31	83.36620593070984	response	0	2		29.0	2.5	/experiments/knapen_aot/videos/S_yt-xQilXyNKsBw_42.mp4	0.0	154.12319684028625	
31	83.37516903877258	movie	1		301.0	29.0	2.5	/experiments/knapen_aot/videos/S_yt-xQilXyNKsBw_42.mp4	0.0	154.132159948349	2.5073580741882324
31	85.88252711296082	fix_post	2		12.0	29.0	2.5	/experiments/knapen_aot/videos/S_yt-xQilXyNKsBw_42.mp4	0.0	156.63951802253723	0.10001397132873535
32	85.98254108428955	fix_pre	0		11.0	30.0	2.5	/experiments/knapen_aot/videos/S_yt-zhQ32_OayBQ_39.mp4	0.0	156.73953199386597	0.09163904190063477
32	86.06598997116089	response	0	2		30.0	2.5	/experiments/knapen_aot/videos/S_yt-zhQ32_OayBQ_39.mp4	0.0	156.8229808807373	
32	86.07418012619019	movie	1		299.0	30.0	2.5	/experiments/knapen_aot/videos/S_yt-zhQ32_OayBQ_39.mp4	0.0	156.8311710357666	2.508419990539551
32	88.58260011672974	fix_post	2		12.0	30.0	2.5	/experiments/knapen_aot/videos/S_yt-zhQ32_OayBQ_39.mp4	0.0	159.33959102630615	0.10001301765441895
33	88.68261313438416	fix_pre	0		15.0	31.0	2.5	/experiments/knapen_aot/videos/R_S_yt-feTWuKPZA_k_34.mp4	0.0	159.43960404396057	0.12495088577270508
33	88.79936003684998	response	0	2		31.0	2.5	/experiments/knapen_aot/videos/R_S_yt-feTWuKPZA_k_34.mp4	0.0	159.5563509464264	
33	88.80756402015686	movie	1		301.0	31.0	2.5	/experiments/knapen_aot/videos/R_S_yt-feTWuKPZA_k_34.mp4	0.0	159.56455492973328	2.5083420276641846
33	91.31590604782104	fix_post	2		12.0	31.0	2.5	/experiments/knapen_aot/videos/R_S_yt-feTWuKPZA_k_34.mp4	0.0	162.07289695739746	0.09992003440856934
34	91.41582608222961	fix_pre	0		34.0	32.0	2.5	/experiments/knapen_aot/videos/S_yt-feTWuKPZA_k_34.mp4	0.0	162.17281699180603	0.2833399772644043
34	91.69091510772705	response	0	2		32.0	2.5	/experiments/knapen_aot/videos/S_yt-feTWuKPZA_k_34.mp4	0.0	162.44790601730347	
34	91.69916605949402	movie	1		301.0	32.0	2.5	/experiments/knapen_aot/videos/S_yt-feTWuKPZA_k_34.mp4	0.0	162.45615696907043	2.508319854736328
34	94.20748591423035	fix_post	2		12.0	32.0	2.5	/experiments/knapen_aot/videos/S_yt-feTWuKPZA_k_34.mp4	0.0	164.96447682380676	0.09998321533203125
35	94.30746912956238	fix_pre	0		14.0	33.0	2.5	blank	1.0	165.0644600391388	0.11670994758605957
35	94.41595911979675	response	0	2		33.0	2.5	blank	1.0	165.17295002937317	
35	94.42417907714844	movie	1		301.0	33.0	2.5	blank	1.0	165.18116998672485	2.508270025253296
35	96.93244910240173	fix_post	2		12.0	33.0	2.5	blank	1.0	167.68944001197815	0.10001683235168457
36	97.03246593475342	fix_pre	0		47.0	34.0	2.5	/experiments/knapen_aot/videos/R_S_yt-nQu-PAXBv2g_5.mp4	0.0	167.78945684432983	0.3917551040649414
36	97.41607594490051	response	0	2		34.0	2.5	/experiments/knapen_aot/videos/R_S_yt-nQu-PAXBv2g_5.mp4	0.0	168.17306685447693	
36	97.42422103881836	movie	1		301.0	34.0	2.5	/experiments/knapen_aot/videos/R_S_yt-nQu-PAXBv2g_5.mp4	0.0	168.18121194839478	2.508219003677368
36	99.93244004249573	fix_post	2		12.0	34.0	2.5	/experiments/knapen_aot/videos/R_S_yt-nQu-PAXBv2g_5.mp4	0.0	170.68943095207214	0.10003209114074707
37	100.03247213363647	fix_pre	0		15.0	35.0	2.5	/experiments/knapen_aot/videos/S_ILSVRC2015_train_00601000.mp4	0.0	170.7894630432129	0.12496280670166016
37	100.14919590950012	response	0	2		35.0	2.5	/experiments/knapen_aot/videos/S_ILSVRC2015_train_00601000.mp4	0.0	170.90618681907654	
37	100.15743494033813	movie	1		301.0	35.0	2.5	/experiments/knapen_aot/videos/S_ILSVRC2015_train_00601000.mp4	0.0	170.91442584991455	2.508336067199707
37	102.66577100753784	fix_post	2		12.0	35.0	2.5	/experiments/knapen_aot/videos/S_ILSVRC2015_train_00601000.mp4	0.0	173.42276191711426	0.10004901885986328
38	102.7658200263977	fix_pre	0		13.0	36.0	2.5	/experiments/knapen_aot/videos/S_yt-UBqUhu-GEVg_6.mp4	0.0	173.52281093597412	0.10911202430725098
38	102.86594891548157	response	0	2		36.0	2.5	/experiments/knapen_aot/videos/S_yt-UBqUhu-GEVg_6.mp4	0.0	173.62293982505798	
38	102.87493205070496	movie	1		301.0	36.0	2.5	/experiments/knapen_aot/videos/S_yt-UBqUhu-GEVg_6.mp4	0.0	173.63192296028137	2.5074939727783203
38	105.38242602348328	fix_post	2		12.0	36.0	2.5	/experiments/knapen_aot/videos/S_yt-UBqUhu-GEVg_6.mp4	0.0	176.1394169330597	0.10002303123474121
39	105.48244905471802	fix_pre	0		8.0	37.0	2.5	/experiments/knapen_aot/videos/R_S_comp_GMT329_113NC_396B_1105_ITALY_v03_SDR_FINAL_20180706_SDR_2K_AVC.mp4	0.0	176.23943996429443	0.06682491302490234
39	105.53415393829346	response	0	2		37.0	2.5	/experiments/knapen_aot/videos/R_S_comp_GMT329_113NC_396B_1105_ITALY_v03_SDR_FINAL_20180706_SDR_2K_AVC.mp4	0.0	176.29114484786987	
39	105.54927396774292	movie	1		165.0	37.0	2.5	/experiments/knapen_aot/videos/R_S_comp_GMT329_113NC_396B_1105_ITALY_v03_SDR_FINAL_20180706_SDR_2K_AVC.mp4	0.0	176.30626487731934	2.508120059967041
39	108.05739402770996	fix_post	2		12.0	37.0	2.5	/experiments/knapen_aot/videos/R_S_comp_GMT329_113NC_396B_1105_ITALY_v03_SDR_FINAL_20180706_SDR_2K_AVC.mp4	0.0	178.81438493728638	0.10001802444458008
40	108.15741205215454	fix_pre	0		16.0	38.0	2.5	/experiments/knapen_aot/videos/R_S_yt-MEfljVFL0xw_375.mp4	0.0	178.91440296173096	0.13411307334899902
40	108.28259897232056	response	0	2		38.0	2.5	/experiments/knapen_aot/videos/R_S_yt-MEfljVFL0xw_375.mp4	0.0	179.03958988189697	
40	108.29152512550354	movie	1		301.0	38.0	2.5	/experiments/knapen_aot/videos/R_S_yt-MEfljVFL0xw_375.mp4	0.0	179.04851603507996	2.507603883743286
40	110.79912900924683	fix_post	2		12.0	38.0	2.5	/experiments/knapen_aot/videos/R_S_yt-MEfljVFL0xw_375.mp4	0.0	181.55611991882324	0.09993410110473633
41	110.89906311035156	fix_pre	0		11.0	39.0	2.5	/experiments/knapen_aot/videos/R_S_yt-q9kT_c9QjbQ_34.mp4	0.0	181.65605401992798	0.0916898250579834
41	110.98273992538452	response	0	2		39.0	2.5	/experiments/knapen_aot/videos/R_S_yt-q9kT_c9QjbQ_34.mp4	0.0	181.73973083496094	
41	110.99075293540955	movie	1		301.0	39.0	2.5	/experiments/knapen_aot/videos/R_S_yt-q9kT_c9QjbQ_34.mp4	0.0	181.74774384498596	2.508397102355957
41	113.4991500377655	fix_post	2		12.0	39.0	2.5	/experiments/knapen_aot/videos/R_S_yt-q9kT_c9QjbQ_34.mp4	0.0	184.25614094734192	0.09991908073425293
42	113.59906911849976	fix_pre	0		21.0	40.0	2.5	/experiments/knapen_aot/videos/S_yt-MEfljVFL0xw_375.mp4	0.0	184.35606002807617	0.17499899864196777
42	113.76583003997803	response	0	2		40.0	2.5	/experiments/knapen_aot/videos/S_yt-MEfljVFL0xw_375.mp4	0.0	184.52282094955444	
42	113.77406811714172	movie	1		297.0	40.0	2.5	/experiments/knapen_aot/videos/S_yt-MEfljVFL0xw_375.mp4	0.0	184.53105902671814	2.5083839893341064
42	116.28245210647583	fix_post	2		12.0	40.0	2.5	/experiments/knapen_aot/videos/S_yt-MEfljVFL0xw_375.mp4	0.0	187.03944301605225	0.10003089904785156
43	116.38248300552368	fix_pre	0		13.0	41.0	2.5	blank	1.0	187.1394739151001	0.10830497741699219
43	116.48270106315613	response	0	2		41.0	2.5	blank	1.0	187.23969197273254	
43	116.49078798294067	movie	1		301.0	41.0	2.5	blank	1.0	187.2477788925171	2.5082781314849854
43	118.99906611442566	fix_post	2		12.0	41.0	2.5	blank	1.0	189.75605702400208	0.10004091262817383
44	119.09910702705383	fix_pre	0		19.0	42.0	2.5	/experiments/knapen_aot/videos/R_S_comp_GL_G010_C006_PSNK_NOSUN_v12_SDR_PS_FINAL_20180709_SDR_2K_AVC.mp4	0.0	189.85609793663025	0.15831995010375977
44	119.2416660785675	response	0	2		42.0	2.5	/experiments/knapen_aot/videos/R_S_comp_GL_G010_C006_PSNK_NOSUN_v12_SDR_PS_FINAL_20180709_SDR_2K_AVC.mp4	0.0	189.99865698814392	
44	119.25742697715759	movie	1		164.0	42.0	2.5	/experiments/knapen_aot/videos/R_S_comp_GL_G010_C006_PSNK_NOSUN_v12_SDR_PS_FINAL_20180709_SDR_2K_AVC.mp4	0.0	190.014417886734	2.508345127105713
44	121.7657721042633	fix_post	2		12.0	42.0	2.5	/experiments/knapen_aot/videos/R_S_comp_GL_G010_C006_PSNK_NOSUN_v12_SDR_PS_FINAL_20180709_SDR_2K_AVC.mp4	0.0	192.52276301383972	0.10001587867736816
45	121.86578798294067	fix_pre	0		15.0	43.0	2.5	/experiments/knapen_aot/videos/S_ILSVRC2015_train_00587000.mp4	0.0	192.6227788925171	0.12496614456176758
45	121.98259711265564	response	0	2		43.0	2.5	/experiments/knapen_aot/videos/S_ILSVRC2015_train_00587000.mp4	0.0	192.73958802223206	
45	121.99075412750244	movie	1		299.0	43.0	2.5	/experiments/knapen_aot/videos/S_ILSVRC2015_train_00587000.mp4	0.0	192.74774503707886	2.5083367824554443
45	124.49909090995789	fix_post	2		12.0	43.0	2.5	/experiments/knapen_aot/videos/S_ILSVRC2015_train_00587000.mp4	0.0	195.2560818195343	0.10003304481506348
46	124.59912395477295	fix_pre	0		6.0	44.0	2.5	/experiments/knapen_aot/videos/S_yt-he_RSdeVinA_68.mp4	0.0	195.35611486434937	0.049990177154541016
46	124.6409170627594	response	0	2		44.0	2.5	/experiments/knapen_aot/videos/S_yt-he_RSdeVinA_68.mp4	0.0	195.39790797233582	
46	124.64911413192749	movie	1		301.0	44.0	2.5	/experiments/knapen_aot/videos/S_yt-he_RSdeVinA_68.mp4	0.0	195.4061050415039	2.5083119869232178
46	127.15742611885071	fix_post	2		12.0	44.0	2.5	/experiments/knapen_aot/videos/S_yt-he_RSdeVinA_68.mp4	0.0	197.91441702842712	0.1000068187713623
47	127.25743293762207	fix_pre	0		22.0	45.0	2.5	/experiments/knapen_aot/videos/R_S_yt-Z4W6l0eZza4_6.mp4	0.0	198.0144238471985	0.1832430362701416
47	127.4250750541687	response	0	2		45.0	2.5	/experiments/knapen_aot/videos/R_S_yt-Z4W6l0eZza4_6.mp4	0.0	198.18206596374512	
47	127.44067597389221	movie	1		301.0	45.0	2.5	/experiments/knapen_aot/videos/R_S_yt-Z4W6l0eZza4_6.mp4	0.0	198.19766688346863	2.5084450244903564
47	129.94912099838257	fix_post	2		12.0	45.0	2.5	/experiments/knapen_aot/videos/R_S_yt-Z4W6l0eZza4_6.mp4	0.0	200.70611190795898	0.09993791580200195
48	130.04905891418457	fix_pre	0		4.0	46.0	2.5	/experiments/knapen_aot/videos/S_yt-fQgLKiz2tuM_14.mp4	0.0	200.806049823761	0.034150123596191406
48	130.07411098480225	response	0	2		46.0	2.5	/experiments/knapen_aot/videos/S_yt-fQgLKiz2tuM_14.mp4	0.0	200.83110189437866	
48	130.08320903778076	movie	1		298.0	46.0	2.5	/experiments/knapen_aot/videos/S_yt-fQgLKiz2tuM_14.mp4	0.0	200.84019994735718	2.507620096206665
48	132.59082913398743	fix_post	2		12.0	46.0	2.5	/experiments/knapen_aot/videos/S_yt-fQgLKiz2tuM_14.mp4	0.0	203.34782004356384	0.0998539924621582
49	132.69068312644958	fix_pre	0		10.0	47.0	2.5	/experiments/knapen_aot/videos/S_yt-giRwl4yChlw_9.mp4	0.0	203.447674036026	0.08327484130859375
49	132.76583790779114	response	0	2		47.0	2.5	/experiments/knapen_aot/videos/S_yt-giRwl4yChlw_9.mp4	0.0	203.52282881736755	
49	132.77395796775818	movie	1		301.0	47.0	2.5	/experiments/knapen_aot/videos/S_yt-giRwl4yChlw_9.mp4	0.0	203.5309488773346	2.5084121227264404
49	135.28237009048462	fix_post	2		12.0	47.0	2.5	/experiments/knapen_aot/videos/S_yt-giRwl4yChlw_9.mp4	0.0	206.03936100006104	0.10000896453857422
50	135.3823790550232	fix_pre	0		18.0	48.0	2.5	blank	1.0	206.1393699645996	0.14997196197509766
50	135.5241141319275	response	0	2		48.0	2.5	blank	1.0	206.2811050415039	
50	135.5323510169983	movie	1		301.0	48.0	2.5	blank	1.0	206.2893419265747	2.508336067199707
50	138.040687084198	fix_post	2		12.0	48.0	2.5	blank	1.0	208.7976779937744	0.09995889663696289
51	138.14064598083496	fix_pre	0		28.0	49.0	2.5	/experiments/knapen_aot/videos/R_S_ILSVRC2015_train_00559000.mp4	0.0	208.89763689041138	0.23388910293579102
51	138.3657569885254	response	0	2		49.0	2.5	/experiments/knapen_aot/videos/R_S_ILSVRC2015_train_00559000.mp4	0.0	209.1227478981018	
51	138.37453508377075	movie	1		301.0	49.0	2.5	/experiments/knapen_aot/videos/R_S_ILSVRC2015_train_00559000.mp4	0.0	209.13152599334717	2.507800817489624
51	140.88233590126038	fix_post	2		12.0	49.0	2.5	/experiments/knapen_aot/videos/R_S_ILSVRC2015_train_00559000.mp4	0.0	211.6393268108368	0.09992122650146484
52	140.98225712776184	fix_pre	0		9.0	50.0	2.5	/experiments/knapen_aot/videos/S_ILSVRC2015_train_00574004.mp4	0.0	211.73924803733826	0.07501792907714844
52	141.04904699325562	response	0	2		50.0	2.5	/experiments/knapen_aot/videos/S_ILSVRC2015_train_00574004.mp4	0.0	211.80603790283203	
52	141.057275056839	movie	1		301.0	50.0	2.5	/experiments/knapen_aot/videos/S_ILSVRC2015_train_00574004.mp4	0.0	211.8142659664154	2.5084009170532227
52	143.5656759738922	fix_post	2		12.0	50.0	2.5	/experiments/knapen_aot/videos/S_ILSVRC2015_train_00574004.mp4	0.0	214.32266688346863	0.10058307647705078
52	143.62472105026245	response	2	2		50.0	2.5	/experiments/knapen_aot/videos/S_ILSVRC2015_train_00574004.mp4	0.0	214.38171195983887	
53	143.66625905036926	fix_pre	0		45.0	51.0	2.5	/experiments/knapen_aot/videos/R_S_yt-9Ow95khYa_M_91.mp4	0.0	214.42324995994568	0.3749508857727051
53	144.0323770046234	response	0	2		51.0	2.5	/experiments/knapen_aot/videos/R_S_yt-9Ow95khYa_M_91.mp4	0.0	214.78936791419983	
53	144.04120993614197	movie	1		301.0	51.0	2.5	/experiments/knapen_aot/videos/R_S_yt-9Ow95khYa_M_91.mp4	0.0	214.79820084571838	2.507728099822998
53	146.54893803596497	fix_post	2		12.0	51.0	2.5	/experiments/knapen_aot/videos/R_S_yt-9Ow95khYa_M_91.mp4	0.0	217.30592894554138	0.10000896453857422
54	146.64894700050354	fix_pre	0		1.0	52.0	2.5	/experiments/knapen_aot/videos/R_S_yt-Gam0NeyyG8w_22.mp4	0.0	217.40593791007996	0.010365009307861328
54	146.65059208869934	response	0	2		52.0	2.5	/experiments/knapen_aot/videos/R_S_yt-Gam0NeyyG8w_22.mp4	0.0	217.40758299827576	
54	146.6593120098114	movie	1		301.0	52.0	2.5	/experiments/knapen_aot/videos/R_S_yt-Gam0NeyyG8w_22.mp4	0.0	217.41630291938782	2.5063300132751465
54	149.16564202308655	fix_post	2		12.0	52.0	2.5	/experiments/knapen_aot/videos/R_S_yt-Gam0NeyyG8w_22.mp4	0.0	219.92263293266296	0.09994292259216309
55	149.2655849456787	fix_pre	0		8.0	53.0	2.5	/experiments/knapen_aot/videos/S_ILSVRC2015_train_00405001.mp4	0.0	220.02257585525513	0.06725811958312988
55	149.3240818977356	response	0	2		53.0	2.5	/experiments/knapen_aot/videos/S_ILSVRC2015_train_00405001.mp4	0.0	220.081072807312	
55	149.33284306526184	movie	1		301.0	53.0	2.5	/experiments/knapen_aot/videos/S_ILSVRC2015_train_00405001.mp4	0.0	220.08983397483826	2.507722854614258
55	151.8405659198761	fix_post	2		12.0	53.0	2.5	/experiments/knapen_aot/videos/S_ILSVRC2015_train_00405001.mp4	0.0	222.59755682945251	0.09997200965881348
56	151.9405379295349	fix_pre	0		8.0	54.0	2.5	blank	1.0	222.69752883911133	0.06670713424682617
56	151.99909710884094	response	0	2		54.0	2.5	blank	1.0	222.75608801841736	
56	152.00724506378174	movie	1		301.0	54.0	2.5	blank	1.0	222.76423597335815	2.508327007293701
56	154.51557207107544	fix_post	2		12.0	54.0	2.5	blank	1.0	225.27256298065186	0.09997296333312988
57	154.61554503440857	fix_pre	0		28.0	55.0	2.5	/experiments/knapen_aot/videos/S_yt-l_pvPAznG1A_20.mp4	0.0	225.37253594398499	0.23334288597106934
57	154.84068298339844	response	0	2		55.0	2.5	/experiments/knapen_aot/videos/S_yt-l_pvPAznG1A_20.mp4	0.0	225.59767389297485	
57	154.84888792037964	movie	1		301.0	55.0	2.5	/experiments/knapen_aot/videos/S_yt-l_pvPAznG1A_20.mp4	0.0	225.60587882995605	2.5084590911865234
57	157.35734701156616	fix_post	2		12.0	55.0	2.5	/experiments/knapen_aot/videos/S_yt-l_pvPAznG1A_20.mp4	0.0	228.11433792114258	0.09984588623046875
58	157.45719289779663	fix_pre	0		1.0	56.0	2.5	/experiments/knapen_aot/videos/R_S_wc-0SAXOWjdNVGC_8.mp4	0.0	228.21418380737305	0.008408069610595703
58	157.45888495445251	response	0	2		56.0	2.5	/experiments/knapen_aot/videos/R_S_wc-0SAXOWjdNVGC_8.mp4	0.0	228.21587586402893	
58	157.46560096740723	movie	1		163.0	56.0	2.5	/experiments/knapen_aot/videos/R_S_wc-0SAXOWjdNVGC_8.mp4	0.0	228.22259187698364	2.5083229541778564
58	159.97392392158508	fix_post	2		12.0	56.0	2.5	/experiments/knapen_aot/videos/R_S_wc-0SAXOWjdNVGC_8.mp4	0.0	230.7309148311615	0.10002017021179199
59	160.07394409179688	fix_pre	0		11.0	57.0	2.5	/experiments/knapen_aot/videos/S_yt-OEY9O2MglQM_7.mp4	0.0	230.8309350013733	0.09212589263916016
59	160.15731406211853	response	0	2		57.0	2.5	/experiments/knapen_aot/videos/S_yt-OEY9O2MglQM_7.mp4	0.0	230.91430497169495	
59	160.16606998443604	movie	1		301.0	57.0	2.5	/experiments/knapen_aot/videos/S_yt-OEY9O2MglQM_7.mp4	0.0	230.92306089401245	2.5078439712524414
59	162.67391395568848	fix_post	2		12.0	57.0	2.5	/experiments/knapen_aot/videos/S_yt-OEY9O2MglQM_7.mp4	0.0	233.4309048652649	0.09992098808288574
60	162.77383494377136	fix_pre	0		12.0	58.0	2.5	/experiments/knapen_aot/videos/R_S_comp_LW_L001_C006_PSNK_DENOISE_v02_SDR_PS_FINAL_20180709_SDR_2K_AVC.mp4	0.0	233.53082585334778	0.10050702095031738
60	162.86570191383362	response	0	2		58.0	2.5	/experiments/knapen_aot/videos/R_S_comp_LW_L001_C006_PSNK_DENOISE_v02_SDR_PS_FINAL_20180709_SDR_2K_AVC.mp4	0.0	233.62269282341003	
60	162.87434196472168	movie	1		165.0	58.0	2.5	/experiments/knapen_aot/videos/R_S_comp_LW_L001_C006_PSNK_DENOISE_v02_SDR_PS_FINAL_20180709_SDR_2K_AVC.mp4	0.0	233.6313328742981	2.5078561305999756
60	165.38219809532166	fix_post	2		12.0	58.0	2.5	/experiments/knapen_aot/videos/R_S_comp_LW_L001_C006_PSNK_DENOISE_v02_SDR_PS_FINAL_20180709_SDR_2K_AVC.mp4	0.0	236.13918900489807	0.09995484352111816
61	165.48215293884277	fix_pre	0		6.0	59.0	2.5	/experiments/knapen_aot/videos/S_yt-o_CT2MjZ9fA_216.mp4	0.0	236.2391438484192	0.050065040588378906
61	165.5239999294281	response	0	2		59.0	2.5	/experiments/knapen_aot/videos/S_yt-o_CT2MjZ9fA_216.mp4	0.0	236.28099083900452	
61	165.53221797943115	movie	1		301.0	59.0	2.5	/experiments/knapen_aot/videos/S_yt-o_CT2MjZ9fA_216.mp4	0.0	236.28920888900757	2.508273124694824
61	167.98232293128967	response	1	2		59.0	2.5	/experiments/knapen_aot/videos/S_yt-o_CT2MjZ9fA_216.mp4	0.0	238.7393138408661	
61	168.04049110412598	fix_post	2		11.0	59.0	2.5	/experiments/knapen_aot/videos/S_yt-o_CT2MjZ9fA_216.mp4	0.0	238.7974820137024	0.09998583793640137
62	168.14047694206238	fix_pre	0		29.0	60.0	2.5	/experiments/knapen_aot/videos/R_S_yt-Dlk44AGz-xM_37.mp4	0.0	238.8974678516388	0.24170517921447754
62	168.37398505210876	response	0	2		60.0	2.5	/experiments/knapen_aot/videos/R_S_yt-Dlk44AGz-xM_37.mp4	0.0	239.13097596168518	
62	168.38218212127686	movie	1		301.0	60.0	2.5	/experiments/knapen_aot/videos/R_S_yt-Dlk44AGz-xM_37.mp4	0.0	239.13917303085327	2.50830078125
62	170.89048290252686	fix_post	2		12.0	60.0	2.5	/experiments/knapen_aot/videos/R_S_yt-Dlk44AGz-xM_37.mp4	0.0	241.64747381210327	0.09998106956481934
63	170.99046397209167	fix_pre	0		14.0	61.0	2.5	blank	1.0	241.7474548816681	0.11667299270629883
63	171.09894609451294	response	0	2		61.0	2.5	blank	1.0	241.85593700408936	
63	171.10713696479797	movie	1		301.0	61.0	2.5	blank	1.0	241.8641278743744	2.508357048034668
63	173.61549401283264	fix_post	2		12.0	61.0	2.5	blank	1.0	244.37248492240906	0.09998202323913574
64	173.71547603607178	fix_pre	0		28.0	62.0	2.5	/experiments/knapen_aot/videos/S_ILSVRC2015_train_00469000.mp4	0.0	244.4724669456482	0.2332918643951416
64	173.94063997268677	response	0	2		62.0	2.5	/experiments/knapen_aot/videos/S_ILSVRC2015_train_00469000.mp4	0.0	244.69763088226318	
64	173.94876790046692	movie	1		301.0	62.0	2.5	/experiments/knapen_aot/videos/S_ILSVRC2015_train_00469000.mp4	0.0	244.70575881004333	2.5083811283111572
64	176.45714902877808	fix_post	2		12.0	62.0	2.5	/experiments/knapen_aot/videos/S_ILSVRC2015_train_00469000.mp4	0.0	247.2141399383545	0.10000205039978027
65	176.55715107917786	fix_pre	0		6.0	63.0	2.5	/experiments/knapen_aot/videos/S_yt-fymgyhmYnMI_76.mp4	0.0	247.31414198875427	0.04999089241027832
65	176.59897112846375	response	0	2		63.0	2.5	/experiments/knapen_aot/videos/S_yt-fymgyhmYnMI_76.mp4	0.0	247.35596203804016	
65	176.60714197158813	movie	1		301.0	63.0	2.5	/experiments/knapen_aot/videos/S_yt-fymgyhmYnMI_76.mp4	0.0	247.36413288116455	2.508247137069702
65	179.11538910865784	fix_post	2		12.0	63.0	2.5	/experiments/knapen_aot/videos/S_yt-fymgyhmYnMI_76.mp4	0.0	249.87238001823425	0.10007596015930176
66	179.21546506881714	fix_pre	0		16.0	64.0	2.5	/experiments/knapen_aot/videos/S_yt-nQu-PAXBv2g_5.mp4	0.0	249.97245597839355	0.13334393501281738
66	179.34057211875916	response	0	2		64.0	2.5	/experiments/knapen_aot/videos/S_yt-nQu-PAXBv2g_5.mp4	0.0	250.09756302833557	
66	179.34880900382996	movie	1		301.0	64.0	2.5	/experiments/knapen_aot/videos/S_yt-nQu-PAXBv2g_5.mp4	0.0	250.10579991340637	2.5083649158477783
66	181.85717391967773	fix_post	2		12.0	64.0	2.5	/experiments/knapen_aot/videos/S_yt-nQu-PAXBv2g_5.mp4	0.0	252.61416482925415	0.09995698928833008
67	181.95713090896606	fix_pre	0		14.0	65.0	2.5	/experiments/knapen_aot/videos/S_yt-j3Sk8ZnAiEA_32.mp4	0.0	252.71412181854248	0.11664915084838867
67	182.0656270980835	response	0	2		65.0	2.5	/experiments/knapen_aot/videos/S_yt-j3Sk8ZnAiEA_32.mp4	0.0	252.8226180076599	
67	182.07378005981445	movie	1		299.0	65.0	2.5	/experiments/knapen_aot/videos/S_yt-j3Sk8ZnAiEA_32.mp4	0.0	252.83077096939087	2.5083580017089844
67	184.58213806152344	fix_post	2		12.0	65.0	2.5	/experiments/knapen_aot/videos/S_yt-j3Sk8ZnAiEA_32.mp4	0.0	255.33912897109985	0.09996390342712402
68	184.68210196495056	fix_pre	0		16.0	66.0	2.5	/experiments/knapen_aot/videos/S_ILSVRC2015_train_00415005.mp4	0.0	255.43909287452698	0.1333000659942627
68	184.80727100372314	response	0	2		66.0	2.5	/experiments/knapen_aot/videos/S_ILSVRC2015_train_00415005.mp4	0.0	255.56426191329956	
68	184.81540203094482	movie	1		301.0	66.0	2.5	/experiments/knapen_aot/videos/S_ILSVRC2015_train_00415005.mp4	0.0	255.57239294052124	2.508354902267456
68	187.32375693321228	fix_post	2		12.0	66.0	2.5	/experiments/knapen_aot/videos/S_ILSVRC2015_train_00415005.mp4	0.0	258.0807478427887	0.10002517700195312
69	187.42378211021423	fix_pre	0		9.0	67.0	2.5	/experiments/knapen_aot/videos/R_S_yt-3ohvpS42xug_184.mp4	0.0	258.18077301979065	0.07533693313598633
69	187.4906051158905	response	0	2		67.0	2.5	/experiments/knapen_aot/videos/R_S_yt-3ohvpS42xug_184.mp4	0.0	258.2475960254669	
69	187.49911904335022	movie	1		301.0	67.0	2.5	/experiments/knapen_aot/videos/R_S_yt-3ohvpS42xug_184.mp4	0.0	258.25610995292664	2.508013963699341
69	190.00713300704956	fix_post	2		12.0	67.0	2.5	/experiments/knapen_aot/videos/R_S_yt-3ohvpS42xug_184.mp4	0.0	260.764123916626	0.09994196891784668
70	190.1070749759674	fix_pre	0		5.0	68.0	2.5	blank	1.0	260.8640658855438	0.04172515869140625
70	190.14049100875854	response	0	2		68.0	2.5	blank	1.0	260.89748191833496	
70	190.1488001346588	movie	1		301.0	68.0	2.5	blank	1.0	260.90579104423523	2.5082809925079346
70	192.65708112716675	fix_post	2		12.0	68.0	2.5	blank	1.0	263.41407203674316	0.10000777244567871
71	192.75708889961243	fix_pre	0		13.0	69.0	2.5	/experiments/knapen_aot/videos/R_S_production_ID_4510622.mp4	0.0	263.51407980918884	0.10828900337219238
71	192.85725212097168	response	0	2		69.0	2.5	/experiments/knapen_aot/videos/R_S_production_ID_4510622.mp4	0.0	263.6142430305481	
71	192.86537790298462	movie	1		166.0	69.0	2.5	/experiments/knapen_aot/videos/R_S_production_ID_4510622.mp4	0.0	263.62236881256104	2.50839900970459
71	195.3737769126892	fix_post	2		12.0	69.0	2.5	/experiments/knapen_aot/videos/R_S_production_ID_4510622.mp4	0.0	266.1307678222656	0.09999608993530273
72	195.4737730026245	fix_pre	0		12.0	70.0	2.5	/experiments/knapen_aot/videos/S_yt-c5KPuyzO-50_4.mp4	0.0	266.2307639122009	0.09996795654296875
72	195.56541395187378	response	0	2		70.0	2.5	/experiments/knapen_aot/videos/S_yt-c5KPuyzO-50_4.mp4	0.0	266.3224048614502	
72	195.57374095916748	movie	1		301.0	70.0	2.5	/experiments/knapen_aot/videos/S_yt-c5KPuyzO-50_4.mp4	0.0	266.3307318687439	2.508316993713379
72	198.08205795288086	fix_post	2		12.0	70.0	2.5	/experiments/knapen_aot/videos/S_yt-c5KPuyzO-50_4.mp4	0.0	268.8390488624573	0.09997296333312988
73	198.182030916214	fix_pre	0		18.0	71.0	2.5	/experiments/knapen_aot/videos/S_yt-i3-YlGenYmk_411.mp4	0.0	268.9390218257904	0.1502690315246582
73	198.32389402389526	response	0	2		71.0	2.5	/experiments/knapen_aot/videos/S_yt-i3-YlGenYmk_411.mp4	0.0	269.0808849334717	
73	198.33229994773865	movie	1		301.0	71.0	2.5	/experiments/knapen_aot/videos/S_yt-i3-YlGenYmk_411.mp4	0.0	269.08929085731506	2.5082170963287354
73	200.84051704406738	fix_post	2		12.0	71.0	2.5	/experiments/knapen_aot/videos/S_yt-i3-YlGenYmk_411.mp4	0.0	271.5975079536438	0.09989404678344727
74	200.94041109085083	fix_pre	0		11.0	72.0	2.5	/experiments/knapen_aot/videos/S_yt-v8e_DlCsP4w_10.mp4	0.0	271.69740200042725	0.09332084655761719
74	201.0238869190216	response	0	2		72.0	2.5	/experiments/knapen_aot/videos/S_yt-v8e_DlCsP4w_10.mp4	0.0	271.780877828598	
74	201.03373193740845	movie	1		300.0	72.0	2.5	/experiments/knapen_aot/videos/S_yt-v8e_DlCsP4w_10.mp4	0.0	271.79072284698486	2.506688117980957
74	203.5404200553894	fix_post	2		12.0	72.0	2.5	/experiments/knapen_aot/videos/S_yt-v8e_DlCsP4w_10.mp4	0.0	274.2974109649658	0.09999299049377441
75	203.64041304588318	fix_pre	0		17.0	73.0	2.5	/experiments/knapen_aot/videos/S_yt-bmGWhOCsvJo_128.mp4	0.0	274.3974039554596	0.14163708686828613
75	203.7663230895996	response	0	2		73.0	2.5	/experiments/knapen_aot/videos/S_yt-bmGWhOCsvJo_128.mp4	0.0	274.523313999176	
75	203.78205013275146	movie	1		301.0	73.0	2.5	/experiments/knapen_aot/videos/S_yt-bmGWhOCsvJo_128.mp4	0.0	274.5390410423279	2.508330821990967
75	206.29038095474243	fix_post	2		12.0	73.0	2.5	/experiments/knapen_aot/videos/S_yt-bmGWhOCsvJo_128.mp4	0.0	277.04737186431885	0.09993314743041992
76	206.39031410217285	fix_pre	0		23.0	74.0	2.5	/experiments/knapen_aot/videos/R_S_ILSVRC2015_train_00638001.mp4	0.0	277.14730501174927	0.19192981719970703
76	206.57387900352478	response	0	2		74.0	2.5	/experiments/knapen_aot/videos/R_S_ILSVRC2015_train_00638001.mp4	0.0	277.3308699131012	
76	206.58224391937256	movie	1		301.0	74.0	2.5	/experiments/knapen_aot/videos/R_S_ILSVRC2015_train_00638001.mp4	0.0	277.339234828949	2.5081140995025635
76	209.09035801887512	fix_post	2		12.0	74.0	2.5	/experiments/knapen_aot/videos/R_S_ILSVRC2015_train_00638001.mp4	0.0	279.84734892845154	0.09997892379760742
77	209.19033694267273	fix_pre	0		7.0	75.0	2.5	/experiments/knapen_aot/videos/R_S_flickr-reginahart-31964450591_23.mp4	0.0	279.94732785224915	0.0585780143737793
77	209.24051213264465	response	0	2		75.0	2.5	/experiments/knapen_aot/videos/R_S_flickr-reginahart-31964450591_23.mp4	0.0	279.99750304222107	
77	209.2489149570465	movie	1		171.0	75.0	2.5	/experiments/knapen_aot/videos/R_S_flickr-reginahart-31964450591_23.mp4	0.0	280.0059058666229	2.508121967315674
77	211.75703692436218	fix_post	2		12.0	75.0	2.5	/experiments/knapen_aot/videos/R_S_flickr-reginahart-31964450591_23.mp4	0.0	282.5140278339386	0.09990906715393066
77	211.8238079547882	response	2	2		75.0	2.5	/experiments/knapen_aot/videos/R_S_flickr-reginahart-31964450591_23.mp4	0.0	282.5807988643646	
78	211.8569459915161	fix_pre	0		45.0	76.0	2.5	/experiments/knapen_aot/videos/R_S_yt-fQGoTMausn8_88.mp4	0.0	282.61393690109253	0.37506604194641113
78	212.22370600700378	response	0	2		76.0	2.5	/experiments/knapen_aot/videos/R_S_yt-fQGoTMausn8_88.mp4	0.0	282.9806969165802	
78	212.23201203346252	movie	1		301.0	76.0	2.5	/experiments/knapen_aot/videos/R_S_yt-fQGoTMausn8_88.mp4	0.0	282.98900294303894	2.5082640647888184
78	214.74027609825134	fix_post	2		12.0	76.0	2.5	/experiments/knapen_aot/videos/R_S_yt-fQGoTMausn8_88.mp4	0.0	285.49726700782776	0.10001397132873535
78	214.76623606681824	response	2	2		76.0	2.5	/experiments/knapen_aot/videos/R_S_yt-fQGoTMausn8_88.mp4	0.0	285.52322697639465	
79	214.84029006958008	fix_pre	0		50.0	77.0	2.5	blank	1.0	285.5972809791565	0.416841983795166
79	215.24877500534058	response	0	2		77.0	2.5	blank	1.0	286.005765914917	
79	215.25713205337524	movie	1		301.0	77.0	2.5	blank	1.0	286.01412296295166	2.508204936981201
79	217.76533699035645	fix_post	2		12.0	77.0	2.5	blank	1.0	288.52232789993286	0.0999300479888916
80	217.86526703834534	fix_pre	0		29.0	78.0	2.5	/experiments/knapen_aot/videos/S_yt-CNq5mTA8oXY_176.mp4	0.0	288.62225794792175	0.24172401428222656
80	218.0987470149994	response	0	2		78.0	2.5	/experiments/knapen_aot/videos/S_yt-CNq5mTA8oXY_176.mp4	0.0	288.8557379245758	
80	218.10699105262756	movie	1		301.0	78.0	2.5	/experiments/knapen_aot/videos/S_yt-CNq5mTA8oXY_176.mp4	0.0	288.863981962204	2.5082669258117676
80	220.61525797843933	fix_post	2		12.0	78.0	2.5	/experiments/knapen_aot/videos/S_yt-CNq5mTA8oXY_176.mp4	0.0	291.37224888801575	0.10007596015930176
81	220.71533393859863	fix_pre	0		8.0	79.0	2.5	/experiments/knapen_aot/videos/R_S_yt-nn-8LZcafGs_25.mp4	0.0	291.47232484817505	0.06663918495178223
81	220.77395391464233	response	0	2		79.0	2.5	/experiments/knapen_aot/videos/R_S_yt-nn-8LZcafGs_25.mp4	0.0	291.53094482421875	
81	220.78197312355042	movie	1		299.0	79.0	2.5	/experiments/knapen_aot/videos/R_S_yt-nn-8LZcafGs_25.mp4	0.0	291.53896403312683	2.508439779281616
81	223.29041290283203	fix_post	2		12.0	79.0	2.5	/experiments/knapen_aot/videos/R_S_yt-nn-8LZcafGs_25.mp4	0.0	294.04740381240845	0.09984612464904785
82	223.39025902748108	fix_pre	0		11.0	80.0	2.5	/experiments/knapen_aot/videos/S_yt-HRuCkU_kBoE_239.mp4	0.0	294.1472499370575	0.09168505668640137
82	223.47372007369995	response	0	2		80.0	2.5	/experiments/knapen_aot/videos/S_yt-HRuCkU_kBoE_239.mp4	0.0	294.23071098327637	
82	223.48194408416748	movie	1		301.0	80.0	2.5	/experiments/knapen_aot/videos/S_yt-HRuCkU_kBoE_239.mp4	0.0	294.2389349937439	2.5083749294281006
82	225.99031901359558	fix_post	2		12.0	80.0	2.5	/experiments/knapen_aot/videos/S_yt-HRuCkU_kBoE_239.mp4	0.0	296.747309923172	0.09998798370361328
83	226.0903069972992	fix_pre	0		24.0	81.0	2.5	/experiments/knapen_aot/videos/S_yt-v9WGfC67DPk_50.mp4	0.0	296.8472979068756	0.20012593269348145
83	226.28207898139954	response	0	2		81.0	2.5	/experiments/knapen_aot/videos/S_yt-v9WGfC67DPk_50.mp4	0.0	297.03906989097595	
83	226.29043292999268	movie	1		301.0	81.0	2.5	/experiments/knapen_aot/videos/S_yt-v9WGfC67DPk_50.mp4	0.0	297.0474238395691	2.50817608833313
83	228.7986090183258	fix_post	2		12.0	81.0	2.5	/experiments/knapen_aot/videos/S_yt-v9WGfC67DPk_50.mp4	0.0	299.5555999279022	0.09996509552001953
84	228.89857411384583	fix_pre	0		10.0	82.0	2.5	/experiments/knapen_aot/videos/R_S_OdxWh1oU8e8_1.mp4	0.0	299.65556502342224	0.08347487449645996
84	228.97370791435242	response	0	2		82.0	2.5	/experiments/knapen_aot/videos/R_S_OdxWh1oU8e8_1.mp4	0.0	299.73069882392883	
84	228.98204898834229	movie	1		300.0	82.0	2.5	/experiments/knapen_aot/videos/R_S_OdxWh1oU8e8_1.mp4	0.0	299.7390398979187	2.5082449913024902
84	231.49029397964478	fix_post	2		12.0	82.0	2.5	/experiments/knapen_aot/videos/R_S_OdxWh1oU8e8_1.mp4	0.0	302.2472848892212	0.09991192817687988
85	231.59020590782166	fix_pre	0		27.0	83.0	2.5	blank	1.0	302.34719681739807	0.22503209114074707
85	231.80700206756592	response	0	2		83.0	2.5	blank	1.0	302.56399297714233	
85	231.8152379989624	movie	1		301.0	83.0	2.5	blank	1.0	302.5722289085388	2.508305072784424
85	234.32354307174683	fix_post	2		12.0	83.0	2.5	blank	1.0	305.08053398132324	0.1000058650970459
87	234.42354893684387	stim	0		575.0					305.1805398464203	4.791644096374512
87	234.54870009422302	response	0	2						305.30569100379944	
87	239.21141290664673	response	0	space						309.96840381622314	
