trial_nr	onset	event_type	phase	response	nr_frames	movie_index	movie_duration	movie_file	blank	onset_abs	duration
0	0.13904500007629395	stim	0		104.0					202.4506208896637	0.8631060123443604
0	0.9938499927520752	response	0	space						203.30542588233948	
1	1.0021510124206543	stim	0		121.0					203.31372690200806	1.0082640647888184
1	2.0104150772094727	stim	1		120.0					204.32199096679688	1.0000309944152832
1	2.143998146057129	response	1	space						204.45557403564453	
1	2.8524019718170166	response	1	space						205.16397786140442	
2	3.010446071624756	fix_pre	0		98.0	0.0	2.5	/experiments/knapen_aot/videos/S_comp_HK_H004_C013_t9_6M_HB_tag0.mp4	0.0	205.32202196121216	0.8166918754577637
2	3.8189289569854736	response	0	space		0.0	2.5	/experiments/knapen_aot/videos/S_comp_HK_H004_C013_t9_6M_HB_tag0.mp4	0.0	206.13050484657288	
2	3.8271379470825195	movie	1		170.0	0.0	2.5	/experiments/knapen_aot/videos/S_comp_HK_H004_C013_t9_6M_HB_tag0.mp4	0.0	206.13871383666992	2.5083470344543457
2	6.335484981536865	fix_post	2		12.0	0.0	2.5	/experiments/knapen_aot/videos/S_comp_HK_H004_C013_t9_6M_HB_tag0.mp4	0.0	208.64706087112427	0.1000070571899414
3	6.435492038726807	fix_pre	0		64.0	1.0	2.5	/experiments/knapen_aot/videos/R_S_ILSVRC2015_train_00495000.mp4	0.0	208.7470679283142	0.5363409519195557
3	6.964038133621216	response	0	4		1.0	2.5	/experiments/knapen_aot/videos/R_S_ILSVRC2015_train_00495000.mp4	0.0	209.27561402320862	
3	6.971832990646362	movie	1		295.0	1.0	2.5	/experiments/knapen_aot/videos/R_S_ILSVRC2015_train_00495000.mp4	0.0	209.28340888023376	2.505256175994873
3	9.477089166641235	fix_post	2		12.0	1.0	2.5	/experiments/knapen_aot/videos/R_S_ILSVRC2015_train_00495000.mp4	0.0	211.78866505622864	0.09990787506103516
4	9.57699704170227	fix_pre	0		49.0	2.0	2.5	/experiments/knapen_aot/videos/R_S_yt-7W50lcw5FCo_37.mp4	0.0	211.88857293128967	0.4086780548095703
4	9.97722315788269	response	0	2		2.0	2.5	/experiments/knapen_aot/videos/R_S_yt-7W50lcw5FCo_37.mp4	0.0	212.2887990474701	
4	9.98567509651184	movie	1		301.0	2.0	2.5	/experiments/knapen_aot/videos/R_S_yt-7W50lcw5FCo_37.mp4	0.0	212.29725098609924	2.508065938949585
4	12.493741035461426	fix_post	2		12.0	2.0	2.5	/experiments/knapen_aot/videos/R_S_yt-7W50lcw5FCo_37.mp4	0.0	214.80531692504883	0.09998512268066406
5	12.59372615814209	fix_pre	0		116.0	3.0	2.5	/experiments/knapen_aot/videos/R_S_Y011_C001_SDR_2K_AVC.mp4	0.0	214.9053020477295	0.9666688442230225
5	13.552134990692139	response	0	4		3.0	2.5	/experiments/knapen_aot/videos/R_S_Y011_C001_SDR_2K_AVC.mp4	0.0	215.86371088027954	
5	13.560395002365112	movie	1		176.0	3.0	2.5	/experiments/knapen_aot/videos/R_S_Y011_C001_SDR_2K_AVC.mp4	0.0	215.87197089195251	2.508552074432373
5	16.068947076797485	fix_post	2		12.0	3.0	2.5	/experiments/knapen_aot/videos/R_S_Y011_C001_SDR_2K_AVC.mp4	0.0	218.3805229663849	0.09976005554199219
5	16.071489095687866	response	2	4		3.0	2.5	/experiments/knapen_aot/videos/R_S_Y011_C001_SDR_2K_AVC.mp4	0.0	218.38306498527527	
6	16.168707132339478	fix_pre	0		27.0	4.0	2.5	/experiments/knapen_aot/videos/R_S_pexels-c-technical-6491262.mp4	0.0	218.48028302192688	0.22503280639648438
6	16.385586977005005	response	0	4		4.0	2.5	/experiments/knapen_aot/videos/R_S_pexels-c-technical-6491262.mp4	0.0	218.6971628665924	
6	16.393739938735962	movie	1		198.0	4.0	2.5	/experiments/knapen_aot/videos/R_S_pexels-c-technical-6491262.mp4	0.0	218.70531582832336	2.5083181858062744
6	18.902058124542236	fix_post	2		12.0	4.0	2.5	/experiments/knapen_aot/videos/R_S_pexels-c-technical-6491262.mp4	0.0	221.21363401412964	0.09992504119873047
7	19.001983165740967	fix_pre	0		11.0	5.0	2.5	/experiments/knapen_aot/videos/S_ILSVRC2015_train_00079001.mp4	0.0	221.31355905532837	0.09166383743286133
7	19.085665941238403	response	0	2		5.0	2.5	/experiments/knapen_aot/videos/S_ILSVRC2015_train_00079001.mp4	0.0	221.3972418308258	
7	19.093647003173828	movie	1		301.0	5.0	2.5	/experiments/knapen_aot/videos/S_ILSVRC2015_train_00079001.mp4	0.0	221.40522289276123	2.5083670616149902
7	21.60201406478882	fix_post	2		12.0	5.0	2.5	/experiments/knapen_aot/videos/S_ILSVRC2015_train_00079001.mp4	0.0	223.91358995437622	0.10000896453857422
8	21.702023029327393	fix_pre	0		23.0	6.0	2.5	blank	1.0	224.0135989189148	0.19164514541625977
8	21.885475158691406	response	0	2		6.0	2.5	blank	1.0	224.1970510482788	
8	21.893668174743652	movie	1		301.0	6.0	2.5	blank	1.0	224.20524406433105	2.508514881134033
8	24.402183055877686	fix_post	2		12.0	6.0	2.5	blank	1.0	226.7137589454651	0.09987711906433105
9	24.502060174942017	fix_pre	0		23.0	7.0	2.5	/experiments/knapen_aot/videos/S_comp_DB_D008_C010_PSNK_v21_SDR_PS_20180914_F0F16157_SDR_2K_AVC.mp4	0.0	226.81363606452942	0.19189095497131348
9	24.685455083847046	response	0	2		7.0	2.5	/experiments/knapen_aot/videos/S_comp_DB_D008_C010_PSNK_v21_SDR_PS_20180914_F0F16157_SDR_2K_AVC.mp4	0.0	226.99703097343445	
9	24.69395112991333	movie	1		167.0	7.0	2.5	/experiments/knapen_aot/videos/S_comp_DB_D008_C010_PSNK_v21_SDR_PS_20180914_F0F16157_SDR_2K_AVC.mp4	0.0	227.00552701950073	2.508056879043579
9	27.20200800895691	fix_post	2		12.0	7.0	2.5	/experiments/knapen_aot/videos/S_comp_DB_D008_C010_PSNK_v21_SDR_PS_20180914_F0F16157_SDR_2K_AVC.mp4	0.0	229.5135838985443	0.09998893737792969
10	27.30199694633484	fix_pre	0		19.0	8.0	2.5	/experiments/knapen_aot/videos/R_S_ILSVRC2015_train_00278004.mp4	0.0	229.61357283592224	0.15833401679992676
10	27.452123165130615	response	0	2		8.0	2.5	/experiments/knapen_aot/videos/R_S_ILSVRC2015_train_00278004.mp4	0.0	229.76369905471802	
10	27.460330963134766	movie	1		301.0	8.0	2.5	/experiments/knapen_aot/videos/R_S_ILSVRC2015_train_00278004.mp4	0.0	229.77190685272217	2.5084011554718018
10	29.968732118606567	fix_post	2		12.0	8.0	2.5	/experiments/knapen_aot/videos/R_S_ILSVRC2015_train_00278004.mp4	0.0	232.28030800819397	0.10007500648498535
11	30.068807125091553	fix_pre	0		2.0	9.0	2.5	/experiments/knapen_aot/videos/R_S_ILSVRC2015_train_00689000.mp4	0.0	232.38038301467896	0.016499042510986328
11	30.077104091644287	response	0	2		9.0	2.5	/experiments/knapen_aot/videos/R_S_ILSVRC2015_train_00689000.mp4	0.0	232.3886799812317	
11	30.08530616760254	movie	1		298.0	9.0	2.5	/experiments/knapen_aot/videos/R_S_ILSVRC2015_train_00689000.mp4	0.0	232.39688205718994	2.5083298683166504
11	32.59363603591919	fix_post	2		12.0	9.0	2.5	/experiments/knapen_aot/videos/R_S_ILSVRC2015_train_00689000.mp4	0.0	234.9052119255066	0.1001279354095459
12	32.693763971328735	fix_pre	0		29.0	10.0	2.5	/experiments/knapen_aot/videos/S_yt-UBqUhu-GEVg_6.mp4	0.0	235.00533986091614	0.24151897430419922
12	32.91963195800781	response	0	2		10.0	2.5	/experiments/knapen_aot/videos/S_yt-UBqUhu-GEVg_6.mp4	0.0	235.23120784759521	
12	32.935282945632935	movie	1		301.0	10.0	2.5	/experiments/knapen_aot/videos/S_yt-UBqUhu-GEVg_6.mp4	0.0	235.24685883522034	2.5084760189056396
12	35.443758964538574	fix_post	2		12.0	10.0	2.5	/experiments/knapen_aot/videos/S_yt-UBqUhu-GEVg_6.mp4	0.0	237.75533485412598	0.09979605674743652
13	35.54355502128601	fix_pre	0		17.0	11.0	2.5	/experiments/knapen_aot/videos/R_S_3dzza09VbXY_235.mp4	0.0	237.8551309108734	0.14170598983764648
13	35.67726707458496	response	0	2		11.0	2.5	/experiments/knapen_aot/videos/R_S_3dzza09VbXY_235.mp4	0.0	237.98884296417236	
13	35.68526101112366	movie	1		300.0	11.0	2.5	/experiments/knapen_aot/videos/R_S_3dzza09VbXY_235.mp4	0.0	237.99683690071106	2.508491039276123
13	38.19375205039978	fix_post	2		12.0	11.0	2.5	/experiments/knapen_aot/videos/R_S_3dzza09VbXY_235.mp4	0.0	240.50532793998718	0.0998239517211914
14	38.29357600212097	fix_pre	0		24.0	12.0	2.5	/experiments/knapen_aot/videos/R_S_yt-dESxu60Cl10_24.mp4	0.0	240.60515189170837	0.20003104209899902
14	38.48540115356445	response	0	2		12.0	2.5	/experiments/knapen_aot/videos/R_S_yt-dESxu60Cl10_24.mp4	0.0	240.79697704315186	
14	38.49360704421997	movie	1		301.0	12.0	2.5	/experiments/knapen_aot/videos/R_S_yt-dESxu60Cl10_24.mp4	0.0	240.80518293380737	2.508323907852173
14	41.001930952072144	fix_post	2		12.0	12.0	2.5	/experiments/knapen_aot/videos/R_S_yt-dESxu60Cl10_24.mp4	0.0	243.31350684165955	0.10002303123474121
15	41.101953983306885	fix_pre	0		6.0	13.0	2.5	blank	1.0	243.4135298728943	0.05017399787902832
15	41.14393210411072	response	0	2		13.0	2.5	blank	1.0	243.45550799369812	
15	41.15212798118591	movie	1		301.0	13.0	2.5	blank	1.0	243.46370387077332	2.508139133453369
15	43.66026711463928	fix_post	2		12.0	13.0	2.5	blank	1.0	245.97184300422668	0.10001897811889648
16	43.76028609275818	fix_pre	0		66.0	14.0	2.5	/experiments/knapen_aot/videos/R_S_yt-gDZnJCR2uXI_18.mp4	0.0	246.07186198234558	0.550015926361084
16	44.30204105377197	response	0	2		14.0	2.5	/experiments/knapen_aot/videos/R_S_yt-gDZnJCR2uXI_18.mp4	0.0	246.61361694335938	
16	44.31030201911926	movie	1		301.0	14.0	2.5	/experiments/knapen_aot/videos/R_S_yt-gDZnJCR2uXI_18.mp4	0.0	246.62187790870667	2.508350133895874
16	46.81865215301514	fix_post	2		12.0	14.0	2.5	/experiments/knapen_aot/videos/R_S_yt-gDZnJCR2uXI_18.mp4	0.0	249.13022804260254	0.09986186027526855
17	46.918514013290405	fix_pre	0		35.0	15.0	2.5	/experiments/knapen_aot/videos/S_yt-kawmL3oVw8c_2.mp4	0.0	249.2300899028778	0.2916841506958008
17	47.20206904411316	response	0	2		15.0	2.5	/experiments/knapen_aot/videos/S_yt-kawmL3oVw8c_2.mp4	0.0	249.51364493370056	
17	47.210198163986206	movie	1		300.0	15.0	2.5	/experiments/knapen_aot/videos/S_yt-kawmL3oVw8c_2.mp4	0.0	249.5217740535736	2.508427858352661
17	49.71862602233887	fix_post	2		12.0	15.0	2.5	/experiments/knapen_aot/videos/S_yt-kawmL3oVw8c_2.mp4	0.0	252.03020191192627	0.10002708435058594
18	49.81865310668945	fix_pre	0		32.0	16.0	2.5	/experiments/knapen_aot/videos/R_S_dnLAfffA-kU_53.mp4	0.0	252.13022899627686	0.2665998935699463
18	50.07708811759949	response	0	2		16.0	2.5	/experiments/knapen_aot/videos/R_S_dnLAfffA-kU_53.mp4	0.0	252.3886640071869	
18	50.0852530002594	movie	1		301.0	16.0	2.5	/experiments/knapen_aot/videos/R_S_dnLAfffA-kU_53.mp4	0.0	252.3968288898468	2.5083041191101074
18	52.59355711936951	fix_post	2		12.0	16.0	2.5	/experiments/knapen_aot/videos/R_S_dnLAfffA-kU_53.mp4	0.0	254.9051330089569	0.10002803802490234
19	52.69358515739441	fix_pre	0		15.0	17.0	2.5	/experiments/knapen_aot/videos/R_S_ILSVRC2015_train_00689000.mp4	0.0	255.0051610469818	0.12494087219238281
19	52.810328006744385	response	0	2		17.0	2.5	/experiments/knapen_aot/videos/R_S_ILSVRC2015_train_00689000.mp4	0.0	255.1219038963318	
19	52.81852602958679	movie	1		301.0	17.0	2.5	/experiments/knapen_aot/videos/R_S_ILSVRC2015_train_00689000.mp4	0.0	255.1301019191742	2.508286952972412
19	55.326812982559204	fix_post	2		12.0	17.0	2.5	/experiments/knapen_aot/videos/R_S_ILSVRC2015_train_00689000.mp4	0.0	257.6383888721466	0.10001206398010254
20	55.42682504653931	fix_pre	0		25.0	18.0	2.5	/experiments/knapen_aot/videos/S_yt-ayx4rU9bJrU_179.mp4	0.0	257.7384009361267	0.21671509742736816
20	55.61948895454407	response	0	2		18.0	2.5	/experiments/knapen_aot/videos/S_yt-ayx4rU9bJrU_179.mp4	0.0	257.93106484413147	
20	55.643540143966675	movie	1		299.0	18.0	2.5	/experiments/knapen_aot/videos/S_yt-ayx4rU9bJrU_179.mp4	0.0	257.9551160335541	2.500058889389038
20	58.14359903335571	fix_post	2		12.0	18.0	2.5	/experiments/knapen_aot/videos/S_yt-ayx4rU9bJrU_179.mp4	0.0	260.4551749229431	0.09998703002929688
21	58.24358606338501	fix_pre	0		29.0	19.0	2.5	/experiments/knapen_aot/videos/R_S_video-9.mp4	0.0	260.5551619529724	0.24162006378173828
21	58.477035999298096	response	0	2		19.0	2.5	/experiments/knapen_aot/videos/R_S_video-9.mp4	0.0	260.7886118888855	
21	58.48520612716675	movie	1		209.0	19.0	2.5	/experiments/knapen_aot/videos/R_S_video-9.mp4	0.0	260.79678201675415	2.5083258152008057
21	60.993531942367554	fix_post	2		12.0	19.0	2.5	/experiments/knapen_aot/videos/R_S_video-9.mp4	0.0	263.30510783195496	0.10004115104675293
22	61.09357309341431	fix_pre	0		22.0	20.0	2.5	blank	1.0	263.4051489830017	0.1833350658416748
22	61.268661975860596	response	0	2		20.0	2.5	blank	1.0	263.580237865448	
22	61.27690815925598	movie	1		301.0	20.0	2.5	blank	1.0	263.5884840488434	2.5083019733428955
22	61.393640995025635	response	1	2		20.0	2.5	blank	1.0	263.70521688461304	
22	63.78521013259888	fix_post	2		12.0	20.0	2.5	blank	1.0	266.0967860221863	0.10000491142272949
23	63.885215044021606	fix_pre	0		3.0	21.0	2.5	/experiments/knapen_aot/videos/S_pexels-mart-production-8435081.mp4	0.0	266.196790933609	0.02510690689086914
23	63.90204906463623	response	0	2		21.0	2.5	/experiments/knapen_aot/videos/S_pexels-mart-production-8435081.mp4	0.0	266.21362495422363	
23	63.910321950912476	movie	1		202.0	21.0	2.5	/experiments/knapen_aot/videos/S_pexels-mart-production-8435081.mp4	0.0	266.2218978404999	2.5081381797790527
23	66.41846013069153	fix_post	2		12.0	21.0	2.5	/experiments/knapen_aot/videos/S_pexels-mart-production-8435081.mp4	0.0	268.73003602027893	0.10001802444458008
24	66.51847815513611	fix_pre	0		59.0	22.0	2.5	/experiments/knapen_aot/videos/S_ILSVRC2015_train_00165009.mp4	0.0	268.8300540447235	0.4916508197784424
24	67.00195002555847	response	0	2		22.0	2.5	/experiments/knapen_aot/videos/S_ILSVRC2015_train_00165009.mp4	0.0	269.3135259151459	
24	67.01012897491455	movie	1		301.0	22.0	2.5	/experiments/knapen_aot/videos/S_ILSVRC2015_train_00165009.mp4	0.0	269.32170486450195	2.508350133895874
24	69.51847910881042	fix_post	2		12.0	22.0	2.5	/experiments/knapen_aot/videos/S_ILSVRC2015_train_00165009.mp4	0.0	271.8300549983978	0.10000491142272949
25	69.61848402023315	fix_pre	0		23.0	23.0	2.5	/experiments/knapen_aot/videos/S_video-10.mp4	0.0	271.93005990982056	0.19161200523376465
25	69.80191612243652	response	0	2		23.0	2.5	/experiments/knapen_aot/videos/S_video-10.mp4	0.0	272.1134920120239	
25	69.81009602546692	movie	1		164.0	23.0	2.5	/experiments/knapen_aot/videos/S_video-10.mp4	0.0	272.1216719150543	2.5084469318389893
25	72.31854295730591	fix_post	2		12.0	23.0	2.5	/experiments/knapen_aot/videos/S_video-10.mp4	0.0	274.6301188468933	0.09997820854187012
26	72.41852116584778	fix_pre	0		16.0	24.0	2.5	/experiments/knapen_aot/videos/S_yt-BIDHmbneB10_998.mp4	0.0	274.7300970554352	0.13330888748168945
26	72.54359912872314	response	0	2		24.0	2.5	/experiments/knapen_aot/videos/S_yt-BIDHmbneB10_998.mp4	0.0	274.85517501831055	
26	72.55183005332947	movie	1		301.0	24.0	2.5	/experiments/knapen_aot/videos/S_yt-BIDHmbneB10_998.mp4	0.0	274.86340594291687	2.5083699226379395
26	75.06019997596741	fix_post	2		12.0	24.0	2.5	/experiments/knapen_aot/videos/S_yt-BIDHmbneB10_998.mp4	0.0	277.3717758655548	0.10001611709594727
27	75.16021609306335	fix_pre	0		44.0	25.0	2.5	/experiments/knapen_aot/videos/R_S_ILSVRC2015_train_00278004.mp4	0.0	277.47179198265076	0.36651086807250977
27	75.51861596107483	response	0	2		25.0	2.5	/experiments/knapen_aot/videos/R_S_ILSVRC2015_train_00278004.mp4	0.0	277.83019185066223	
27	75.52672696113586	movie	1		301.0	25.0	2.5	/experiments/knapen_aot/videos/R_S_ILSVRC2015_train_00278004.mp4	0.0	277.83830285072327	2.5084140300750732
27	78.03514099121094	fix_post	2		12.0	25.0	2.5	/experiments/knapen_aot/videos/R_S_ILSVRC2015_train_00278004.mp4	0.0	280.34671688079834	0.09996509552001953
28	78.13510608673096	fix_pre	0		31.0	26.0	2.5	blank	1.0	280.44668197631836	0.2583189010620117
28	78.38517904281616	response	0	2		26.0	2.5	blank	1.0	280.69675493240356	
28	78.39342498779297	movie	1		301.0	26.0	2.5	blank	1.0	280.70500087738037	2.5083630084991455
28	80.90178799629211	fix_post	2		12.0	26.0	2.5	blank	1.0	283.2133638858795	0.09995102882385254
29	81.00173902511597	fix_pre	0		28.0	27.0	2.5	/experiments/knapen_aot/videos/S_yt-K_gHa2x2OQA_319.mp4	0.0	283.31331491470337	0.23334097862243652
29	81.22691512107849	response	0	2		27.0	2.5	/experiments/knapen_aot/videos/S_yt-K_gHa2x2OQA_319.mp4	0.0	283.5384910106659	
29	81.2350800037384	movie	1		301.0	27.0	2.5	/experiments/knapen_aot/videos/S_yt-K_gHa2x2OQA_319.mp4	0.0	283.5466558933258	2.5083279609680176
29	83.74340796470642	fix_post	2		12.0	27.0	2.5	/experiments/knapen_aot/videos/S_yt-K_gHa2x2OQA_319.mp4	0.0	286.0549838542938	0.09998202323913574
30	83.84338998794556	fix_pre	0		38.0	28.0	2.5	/experiments/knapen_aot/videos/R_S_production_ID_4673611.mp4	0.0	286.15496587753296	0.3166391849517822
30	84.1518759727478	response	0	2		28.0	2.5	/experiments/knapen_aot/videos/R_S_production_ID_4673611.mp4	0.0	286.4634518623352	
30	84.16002917289734	movie	1		174.0	28.0	2.5	/experiments/knapen_aot/videos/R_S_production_ID_4673611.mp4	0.0	286.47160506248474	2.508391857147217
30	86.66842103004456	fix_post	2		12.0	28.0	2.5	/experiments/knapen_aot/videos/R_S_production_ID_4673611.mp4	0.0	288.97999691963196	0.09999299049377441
31	86.76841402053833	fix_pre	0		36.0	29.0	2.5	/experiments/knapen_aot/videos/R_S_comp_HK_H004_C013_t9_6M_HB_tag0.mp4	0.0	289.07998991012573	0.29992198944091797
31	87.0525951385498	response	0	2		29.0	2.5	/experiments/knapen_aot/videos/R_S_comp_HK_H004_C013_t9_6M_HB_tag0.mp4	0.0	289.3641710281372	
31	87.06833600997925	movie	1		173.0	29.0	2.5	/experiments/knapen_aot/videos/R_S_comp_HK_H004_C013_t9_6M_HB_tag0.mp4	0.0	289.37991189956665	2.5083749294281006
31	89.57671093940735	fix_post	2		12.0	29.0	2.5	/experiments/knapen_aot/videos/R_S_comp_HK_H004_C013_t9_6M_HB_tag0.mp4	0.0	291.88828682899475	0.10001420974731445
32	89.67672514915466	fix_pre	0		1.0	30.0	2.5	/experiments/knapen_aot/videos/R_S_yt-06XMUn9DTKc_35.mp4	0.0	291.98830103874207	0.009737014770507812
32	89.67839407920837	response	0	2		30.0	2.5	/experiments/knapen_aot/videos/R_S_yt-06XMUn9DTKc_35.mp4	0.0	291.9899699687958	
32	89.68646216392517	movie	1		301.0	30.0	2.5	/experiments/knapen_aot/videos/R_S_yt-06XMUn9DTKc_35.mp4	0.0	291.9980380535126	2.5070807933807373
32	92.19354295730591	fix_post	2		12.0	30.0	2.5	/experiments/knapen_aot/videos/R_S_yt-06XMUn9DTKc_35.mp4	0.0	294.5051188468933	0.09985613822937012
33	92.29339909553528	fix_pre	0		18.0	31.0	2.5	/experiments/knapen_aot/videos/S_ILSVRC2015_train_00469000.mp4	0.0	294.6049749851227	0.1499638557434082
33	92.43512916564941	response	0	2		31.0	2.5	/experiments/knapen_aot/videos/S_ILSVRC2015_train_00469000.mp4	0.0	294.7467050552368	
33	92.44336295127869	movie	1		301.0	31.0	2.5	/experiments/knapen_aot/videos/S_ILSVRC2015_train_00469000.mp4	0.0	294.7549388408661	2.5083792209625244
33	94.95174217224121	fix_post	2		12.0	31.0	2.5	/experiments/knapen_aot/videos/S_ILSVRC2015_train_00469000.mp4	0.0	297.2633180618286	0.09997391700744629
34	95.05171608924866	fix_pre	0		27.0	32.0	2.5	/experiments/knapen_aot/videos/S_yt-VTNBCfQxnsk_59.mp4	0.0	297.36329197883606	0.22487306594848633
34	95.26853895187378	response	0	2		32.0	2.5	/experiments/knapen_aot/videos/S_yt-VTNBCfQxnsk_59.mp4	0.0	297.5801148414612	
34	95.27658915519714	movie	1		301.0	32.0	2.5	/experiments/knapen_aot/videos/S_yt-VTNBCfQxnsk_59.mp4	0.0	297.58816504478455	2.5085089206695557
34	97.7850980758667	fix_post	2		12.0	32.0	2.5	/experiments/knapen_aot/videos/S_yt-VTNBCfQxnsk_59.mp4	0.0	300.0966739654541	0.09986591339111328
35	97.88496398925781	fix_pre	0		61.0	33.0	2.5	/experiments/knapen_aot/videos/S_yt-lkpfs_4qAGE_50.mp4	0.0	300.1965398788452	0.5095281600952148
35	98.38514995574951	response	0	2		33.0	2.5	/experiments/knapen_aot/videos/S_yt-lkpfs_4qAGE_50.mp4	0.0	300.6967258453369	
35	98.39449214935303	movie	1		301.0	33.0	2.5	/experiments/knapen_aot/videos/S_yt-lkpfs_4qAGE_50.mp4	0.0	300.70606803894043	2.5071969032287598
35	100.90168905258179	fix_post	2		12.0	33.0	2.5	/experiments/knapen_aot/videos/S_yt-lkpfs_4qAGE_50.mp4	0.0	303.2132649421692	0.09995198249816895
36	101.00164103507996	fix_pre	0		25.0	34.0	2.5	/experiments/knapen_aot/videos/R_S_yt-TZ107yBhXoA_1.mp4	0.0	303.31321692466736	0.20833802223205566
36	101.20175909996033	response	0	2		34.0	2.5	/experiments/knapen_aot/videos/R_S_yt-TZ107yBhXoA_1.mp4	0.0	303.51333498954773	
36	101.20997905731201	movie	1		301.0	34.0	2.5	/experiments/knapen_aot/videos/R_S_yt-TZ107yBhXoA_1.mp4	0.0	303.5215549468994	2.5083529949188232
36	103.71833205223083	fix_post	2		12.0	34.0	2.5	/experiments/knapen_aot/videos/R_S_yt-TZ107yBhXoA_1.mp4	0.0	306.02990794181824	0.10001492500305176
37	103.81834697723389	fix_pre	0		121.0	35.0	2.5	blank	1.0	306.1299228668213	1.0082120895385742
37	104.81850695610046	response	0	2		35.0	2.5	blank	1.0	307.13008284568787	
37	104.82655906677246	movie	1		301.0	35.0	2.5	blank	1.0	307.13813495635986	2.5083940029144287
37	107.33495306968689	fix_post	2		12.0	35.0	2.5	blank	1.0	309.6465289592743	0.10005688667297363
38	107.43500995635986	fix_pre	0		29.0	36.0	2.5	/experiments/knapen_aot/videos/S_yt-Ev39pXXfr1Y_152.mp4	0.0	309.74658584594727	0.2415931224822998
38	107.66836309432983	response	0	2		36.0	2.5	/experiments/knapen_aot/videos/S_yt-Ev39pXXfr1Y_152.mp4	0.0	309.97993898391724	
38	107.67660307884216	movie	1		301.0	36.0	2.5	/experiments/knapen_aot/videos/S_yt-Ev39pXXfr1Y_152.mp4	0.0	309.98817896842957	2.5083670616149902
38	110.18497014045715	fix_post	2		12.0	36.0	2.5	/experiments/knapen_aot/videos/S_yt-Ev39pXXfr1Y_152.mp4	0.0	312.49654603004456	0.10001087188720703
39	110.28498101234436	fix_pre	0		37.0	37.0	2.5	/experiments/knapen_aot/videos/R_S_ga8dBJH_qK8_765.mp4	0.0	312.59655690193176	0.30821704864501953
39	110.5851080417633	response	0	2		37.0	2.5	/experiments/knapen_aot/videos/R_S_ga8dBJH_qK8_765.mp4	0.0	312.8966839313507	
39	110.59319806098938	movie	1		301.0	37.0	2.5	/experiments/knapen_aot/videos/R_S_ga8dBJH_qK8_765.mp4	0.0	312.9047739505768	2.508452892303467
39	113.10165095329285	fix_post	2		12.0	37.0	2.5	/experiments/knapen_aot/videos/R_S_ga8dBJH_qK8_765.mp4	0.0	315.41322684288025	0.0999751091003418
40	113.20162606239319	fix_pre	0		45.0	38.0	2.5	/experiments/knapen_aot/videos/R_S_X-D3lUv-atE_376.mp4	0.0	315.5132019519806	0.3749380111694336
40	113.5685920715332	response	0	2		38.0	2.5	/experiments/knapen_aot/videos/R_S_X-D3lUv-atE_376.mp4	0.0	315.8801679611206	
40	113.57656407356262	movie	1		301.0	38.0	2.5	/experiments/knapen_aot/videos/R_S_X-D3lUv-atE_376.mp4	0.0	315.88813996315	2.50833797454834
40	116.08490204811096	fix_post	2		12.0	38.0	2.5	/experiments/knapen_aot/videos/R_S_X-D3lUv-atE_376.mp4	0.0	318.39647793769836	0.10006308555603027
41	116.18496513366699	fix_pre	0		36.0	39.0	2.5	/experiments/knapen_aot/videos/S_dnLAfffA-kU_53.mp4	0.0	318.4965410232544	0.29992198944091797
41	116.47675514221191	response	0	2		39.0	2.5	/experiments/knapen_aot/videos/S_dnLAfffA-kU_53.mp4	0.0	318.7883310317993	
41	116.48488712310791	movie	1		301.0	39.0	2.5	/experiments/knapen_aot/videos/S_dnLAfffA-kU_53.mp4	0.0	318.7964630126953	2.5083580017089844
41	118.9932451248169	fix_post	2		12.0	39.0	2.5	/experiments/knapen_aot/videos/S_dnLAfffA-kU_53.mp4	0.0	321.3048210144043	0.09990787506103516
42	119.09315299987793	fix_pre	0		34.0	40.0	2.5	/experiments/knapen_aot/videos/S_yt-TZ107yBhXoA_1.mp4	0.0	321.40472888946533	0.28348612785339355
42	119.36833310127258	response	0	2		40.0	2.5	/experiments/knapen_aot/videos/S_yt-TZ107yBhXoA_1.mp4	0.0	321.67990899086	
42	119.37663912773132	movie	1		301.0	40.0	2.5	/experiments/knapen_aot/videos/S_yt-TZ107yBhXoA_1.mp4	0.0	321.6882150173187	2.5082600116729736
42	121.8848991394043	fix_post	2		12.0	40.0	2.5	/experiments/knapen_aot/videos/S_yt-TZ107yBhXoA_1.mp4	0.0	324.1964750289917	0.09996795654296875
43	121.98486709594727	fix_pre	0		44.0	41.0	2.5	/experiments/knapen_aot/videos/S_video-10.mp4	0.0	324.29644298553467	0.36782407760620117
43	122.34332704544067	response	0	2		41.0	2.5	/experiments/knapen_aot/videos/S_video-10.mp4	0.0	324.6549029350281	
43	122.35269117355347	movie	1		165.0	41.0	2.5	/experiments/knapen_aot/videos/S_video-10.mp4	0.0	324.66426706314087	2.5072357654571533
43	124.85992693901062	fix_post	2		12.0	41.0	2.5	/experiments/knapen_aot/videos/S_video-10.mp4	0.0	327.171502828598	0.0999751091003418
44	124.95990204811096	fix_pre	0		18.0	42.0	2.5	blank	1.0	327.27147793769836	0.15004706382751465
44	125.10166001319885	response	0	2		42.0	2.5	blank	1.0	327.41323590278625	
44	125.10994911193848	movie	1		301.0	42.0	2.5	blank	1.0	327.4215250015259	2.5083389282226562
44	127.61828804016113	fix_post	2		12.0	42.0	2.5	blank	1.0	329.92986392974854	0.0999751091003418
45	127.71826314926147	fix_pre	0		36.0	43.0	2.5	/experiments/knapen_aot/videos/R_S_yt-i4kSCZ8rNC0_11.mp4	0.0	330.0298390388489	0.3009629249572754
45	128.01007509231567	response	0	2		43.0	2.5	/experiments/knapen_aot/videos/R_S_yt-i4kSCZ8rNC0_11.mp4	0.0	330.3216509819031	
45	128.01922607421875	movie	1		301.0	43.0	2.5	/experiments/knapen_aot/videos/R_S_yt-i4kSCZ8rNC0_11.mp4	0.0	330.33080196380615	2.5072779655456543
45	130.5265040397644	fix_post	2		12.0	43.0	2.5	/experiments/knapen_aot/videos/R_S_yt-i4kSCZ8rNC0_11.mp4	0.0	332.8380799293518	0.10003805160522461
46	130.62654209136963	fix_pre	0		20.0	44.0	2.5	/experiments/knapen_aot/videos/S_yt-2kPrGwVmRfE_169.mp4	0.0	332.93811798095703	0.166640043258667
46	130.78497910499573	response	0	2		44.0	2.5	/experiments/knapen_aot/videos/S_yt-2kPrGwVmRfE_169.mp4	0.0	333.09655499458313	
46	130.7931821346283	movie	1		301.0	44.0	2.5	/experiments/knapen_aot/videos/S_yt-2kPrGwVmRfE_169.mp4	0.0	333.1047580242157	2.5083298683166504
46	133.30151200294495	fix_post	2		12.0	44.0	2.5	/experiments/knapen_aot/videos/S_yt-2kPrGwVmRfE_169.mp4	0.0	335.61308789253235	0.09995508193969727
47	133.40146708488464	fix_pre	0		24.0	45.0	2.5	/experiments/knapen_aot/videos/R_S_zAKvYNtmhuc_772.mp4	0.0	335.71304297447205	0.20105290412902832
47	133.59333515167236	response	0	2		45.0	2.5	/experiments/knapen_aot/videos/R_S_zAKvYNtmhuc_772.mp4	0.0	335.90491104125977	
47	133.60251998901367	movie	1		301.0	45.0	2.5	/experiments/knapen_aot/videos/R_S_zAKvYNtmhuc_772.mp4	0.0	335.9140958786011	2.507354974746704
47	136.10987496376038	fix_post	2		12.0	45.0	2.5	/experiments/knapen_aot/videos/R_S_zAKvYNtmhuc_772.mp4	0.0	338.4214508533478	0.09996914863586426
47	136.1115961074829	response	2	2		45.0	2.5	/experiments/knapen_aot/videos/R_S_zAKvYNtmhuc_772.mp4	0.0	338.4231719970703	
48	136.20984411239624	fix_pre	0		94.0	46.0	2.5	/experiments/knapen_aot/videos/S_g201_AK_A003_C014_SDR_20191113_SDR_2K_AVC.mp4	0.0	338.52142000198364	0.7832980155944824
48	136.98499417304993	response	0	2		46.0	2.5	/experiments/knapen_aot/videos/S_g201_AK_A003_C014_SDR_20191113_SDR_2K_AVC.mp4	0.0	339.29657006263733	
48	136.99314212799072	movie	1		165.0	46.0	2.5	/experiments/knapen_aot/videos/S_g201_AK_A003_C014_SDR_20191113_SDR_2K_AVC.mp4	0.0	339.3047180175781	2.508296012878418
48	139.50143814086914	fix_post	2		12.0	46.0	2.5	/experiments/knapen_aot/videos/S_g201_AK_A003_C014_SDR_20191113_SDR_2K_AVC.mp4	0.0	341.81301403045654	0.10010886192321777
49	139.60154700279236	fix_pre	0		40.0	47.0	2.5	/experiments/knapen_aot/videos/S_yt-nMWqezngycw_10.mp4	0.0	341.91312289237976	0.3343780040740967
49	139.9266209602356	response	0	2		47.0	2.5	/experiments/knapen_aot/videos/S_yt-nMWqezngycw_10.mp4	0.0	342.238196849823	
49	139.93592500686646	movie	1		301.0	47.0	2.5	/experiments/knapen_aot/videos/S_yt-nMWqezngycw_10.mp4	0.0	342.24750089645386	2.5072009563446045
49	142.44312596321106	fix_post	2		12.0	47.0	2.5	/experiments/knapen_aot/videos/S_yt-nMWqezngycw_10.mp4	0.0	344.75470185279846	0.10002803802490234
50	142.54315400123596	fix_pre	0		33.0	48.0	2.5	blank	1.0	344.85472989082336	0.2749969959259033
50	142.80998301506042	response	0	2		48.0	2.5	blank	1.0	345.1215589046478	
50	142.81815099716187	movie	1		301.0	48.0	2.5	blank	1.0	345.12972688674927	2.5083811283111572
50	145.32653212547302	fix_post	2		12.0	48.0	2.5	blank	1.0	347.6381080150604	0.09999489784240723
51	145.42652702331543	fix_pre	0		38.0	49.0	2.5	/experiments/knapen_aot/videos/S_cST9H3zu3zQ_126.mp4	0.0	347.73810291290283	0.3165280818939209
51	145.73493194580078	response	0	2		49.0	2.5	/experiments/knapen_aot/videos/S_cST9H3zu3zQ_126.mp4	0.0	348.0465078353882	
51	145.74305510520935	movie	1		301.0	49.0	2.5	/experiments/knapen_aot/videos/S_cST9H3zu3zQ_126.mp4	0.0	348.05463099479675	2.508427858352661
51	148.251482963562	fix_post	2		12.0	49.0	2.5	/experiments/knapen_aot/videos/S_cST9H3zu3zQ_126.mp4	0.0	350.5630588531494	0.10000109672546387
52	148.35148406028748	fix_pre	0		23.0	50.0	2.5	/experiments/knapen_aot/videos/R_S_pexels-cottonbro-6789231.mp4	0.0	350.6630599498749	0.19164109230041504
52	148.5349521636963	response	0	2		50.0	2.5	/experiments/knapen_aot/videos/R_S_pexels-cottonbro-6789231.mp4	0.0	350.8465280532837	
52	148.5431251525879	movie	1		192.0	50.0	2.5	/experiments/knapen_aot/videos/R_S_pexels-cottonbro-6789231.mp4	0.0	350.8547010421753	2.508344888687134
52	151.05147004127502	fix_post	2		12.0	50.0	2.5	/experiments/knapen_aot/videos/R_S_pexels-cottonbro-6789231.mp4	0.0	353.3630459308624	0.09993600845336914
53	151.1514060497284	fix_pre	0		12.0	51.0	2.5	/experiments/knapen_aot/videos/R_S_ux8Mvi8P16k_168.mp4	0.0	353.4629819393158	0.10001492500305176
53	151.24315905570984	response	0	2		51.0	2.5	/experiments/knapen_aot/videos/R_S_ux8Mvi8P16k_168.mp4	0.0	353.55473494529724	
53	151.25142097473145	movie	1		301.0	51.0	2.5	/experiments/knapen_aot/videos/R_S_ux8Mvi8P16k_168.mp4	0.0	353.56299686431885	2.508378028869629
53	153.75979900360107	fix_post	2		12.0	51.0	2.5	/experiments/knapen_aot/videos/R_S_ux8Mvi8P16k_168.mp4	0.0	356.0713748931885	0.09999704360961914
54	153.8597960472107	fix_pre	0		17.0	52.0	2.5	/experiments/knapen_aot/videos/R_S_IrGYVLkWeQs_9.mp4	0.0	356.1713719367981	0.1416020393371582
54	153.99327301979065	response	0	2		52.0	2.5	/experiments/knapen_aot/videos/R_S_IrGYVLkWeQs_9.mp4	0.0	356.30484890937805	
54	154.00139808654785	movie	1		301.0	52.0	2.5	/experiments/knapen_aot/videos/R_S_IrGYVLkWeQs_9.mp4	0.0	356.31297397613525	2.508388042449951
54	156.5097861289978	fix_post	2		12.0	52.0	2.5	/experiments/knapen_aot/videos/R_S_IrGYVLkWeQs_9.mp4	0.0	358.8213620185852	0.10000991821289062
55	156.6097960472107	fix_pre	0		14.0	53.0	2.5	/experiments/knapen_aot/videos/S_pexels-anthony-shkraba-production-8135459.mp4	0.0	358.9213719367981	0.11750507354736328
55	156.71815299987793	response	0	2		53.0	2.5	/experiments/knapen_aot/videos/S_pexels-anthony-shkraba-production-8135459.mp4	0.0	359.02972888946533	
55	156.72730112075806	movie	1		165.0	53.0	2.5	/experiments/knapen_aot/videos/S_pexels-anthony-shkraba-production-8135459.mp4	0.0	359.03887701034546	2.507460832595825
55	159.23476195335388	fix_post	2		12.0	53.0	2.5	/experiments/knapen_aot/videos/S_pexels-anthony-shkraba-production-8135459.mp4	0.0	361.5463378429413	0.10003805160522461
56	159.3348000049591	fix_pre	0		25.0	54.0	2.5	/experiments/knapen_aot/videos/S_yt-Xs-YKSogfak_24.mp4	0.0	361.6463758945465	0.20834898948669434
56	159.53498315811157	response	0	2		54.0	2.5	/experiments/knapen_aot/videos/S_yt-Xs-YKSogfak_24.mp4	0.0	361.846559047699	
56	159.5431489944458	movie	1		300.0	54.0	2.5	/experiments/knapen_aot/videos/S_yt-Xs-YKSogfak_24.mp4	0.0	361.8547248840332	2.508341073989868
56	162.05149006843567	fix_post	2		12.0	54.0	2.5	/experiments/knapen_aot/videos/S_yt-Xs-YKSogfak_24.mp4	0.0	364.36306595802307	0.09995698928833008
57	162.151447057724	fix_pre	0		127.0	55.0	2.5	blank	1.0	364.4630229473114	1.0582940578460693
57	163.2015881538391	response	0	2		55.0	2.5	blank	1.0	365.5131640434265	
57	163.20974111557007	movie	1		301.0	55.0	2.5	blank	1.0	365.52131700515747	2.5083539485931396
57	165.7180950641632	fix_post	2		12.0	55.0	2.5	blank	1.0	368.0296709537506	0.10001587867736816
58	165.81811094284058	fix_pre	0		22.0	56.0	2.5	/experiments/knapen_aot/videos/R_S_yt-q9kT_c9QjbQ_34.mp4	0.0	368.129686832428	0.18332219123840332
58	165.99323201179504	response	0	2		56.0	2.5	/experiments/knapen_aot/videos/R_S_yt-q9kT_c9QjbQ_34.mp4	0.0	368.30480790138245	
58	166.00143313407898	movie	1		300.0	56.0	2.5	/experiments/knapen_aot/videos/R_S_yt-q9kT_c9QjbQ_34.mp4	0.0	368.3130090236664	2.5082738399505615
58	168.50970697402954	fix_post	2		12.0	56.0	2.5	/experiments/knapen_aot/videos/R_S_yt-q9kT_c9QjbQ_34.mp4	0.0	370.82128286361694	0.10003519058227539
59	168.60974216461182	fix_pre	0		62.0	57.0	2.5	/experiments/knapen_aot/videos/S_yt-_BvMLZo0MG0_1226.mp4	0.0	370.9213180541992	0.516636848449707
59	169.1106719970703	response	0	2		57.0	2.5	/experiments/knapen_aot/videos/S_yt-_BvMLZo0MG0_1226.mp4	0.0	371.4222478866577	
59	169.12637901306152	movie	1		301.0	57.0	2.5	/experiments/knapen_aot/videos/S_yt-_BvMLZo0MG0_1226.mp4	0.0	371.4379549026489	2.508265972137451
59	171.63464498519897	fix_post	2		12.0	57.0	2.5	/experiments/knapen_aot/videos/S_yt-_BvMLZo0MG0_1226.mp4	0.0	373.9462208747864	0.10002303123474121
60	171.73466801643372	fix_pre	0		38.0	58.0	2.5	/experiments/knapen_aot/videos/R_S_yt-xNKgc8sFYvU_35.mp4	0.0	374.0462439060211	0.3166511058807373
60	172.03566598892212	response	0	2		58.0	2.5	/experiments/knapen_aot/videos/R_S_yt-xNKgc8sFYvU_35.mp4	0.0	374.3472418785095	
60	172.05131912231445	movie	1		301.0	58.0	2.5	/experiments/knapen_aot/videos/R_S_yt-xNKgc8sFYvU_35.mp4	0.0	374.36289501190186	2.5083119869232178
60	174.55963110923767	fix_post	2		12.0	58.0	2.5	/experiments/knapen_aot/videos/R_S_yt-xNKgc8sFYvU_35.mp4	0.0	376.8712069988251	0.09996795654296875
61	174.65959906578064	fix_pre	0		48.0	59.0	2.5	/experiments/knapen_aot/videos/S_pexels-koolshooters-7327405.mp4	0.0	376.97117495536804	0.40096092224121094
61	175.05147004127502	response	0	2		59.0	2.5	/experiments/knapen_aot/videos/S_pexels-koolshooters-7327405.mp4	0.0	377.3630459308624	
61	175.06055998802185	movie	1		165.0	59.0	2.5	/experiments/knapen_aot/videos/S_pexels-koolshooters-7327405.mp4	0.0	377.37213587760925	2.507431983947754
61	177.5679919719696	fix_post	2		12.0	59.0	2.5	/experiments/knapen_aot/videos/S_pexels-koolshooters-7327405.mp4	0.0	379.879567861557	0.09992814064025879
62	177.66792011260986	fix_pre	0		9.0	60.0	2.5	/experiments/knapen_aot/videos/S_yt-lkpfs_4qAGE_50.mp4	0.0	379.97949600219727	0.07509994506835938
62	177.73499417304993	response	0	2		60.0	2.5	/experiments/knapen_aot/videos/S_yt-lkpfs_4qAGE_50.mp4	0.0	380.04657006263733	
62	177.74302005767822	movie	1		301.0	60.0	2.5	/experiments/knapen_aot/videos/S_yt-lkpfs_4qAGE_50.mp4	0.0	380.0545959472656	2.508378028869629
62	180.25139808654785	fix_post	2		12.0	60.0	2.5	/experiments/knapen_aot/videos/S_yt-lkpfs_4qAGE_50.mp4	0.0	382.56297397613525	0.09997797012329102
63	180.35137605667114	fix_pre	0		110.0	61.0	2.5	blank	1.0	382.66295194625854	0.9174449443817139
63	181.25978016853333	response	0	2		61.0	2.5	blank	1.0	383.5713560581207	
63	181.26882100105286	movie	1		301.0	61.0	2.5	blank	1.0	383.58039689064026	2.5075371265411377
63	183.776358127594	fix_post	2		12.0	61.0	2.5	blank	1.0	386.0879340171814	0.10000300407409668
64	183.8763611316681	fix_pre	0		34.0	62.0	2.5	/experiments/knapen_aot/videos/R_S_yt-cgYmOmMzn98_103.mp4	0.0	386.1879370212555	0.28333091735839844
64	184.15149998664856	response	0	2		62.0	2.5	/experiments/knapen_aot/videos/R_S_yt-cgYmOmMzn98_103.mp4	0.0	386.46307587623596	
64	184.1596920490265	movie	1		301.0	62.0	2.5	/experiments/knapen_aot/videos/R_S_yt-cgYmOmMzn98_103.mp4	0.0	386.4712679386139	2.508263111114502
64	186.667955160141	fix_post	2		12.0	62.0	2.5	/experiments/knapen_aot/videos/R_S_yt-cgYmOmMzn98_103.mp4	0.0	388.9795310497284	0.10001182556152344
65	186.76796698570251	fix_pre	0		45.0	63.0	2.5	/experiments/knapen_aot/videos/R_S_comp_H012_C009_PS_v01_SDR_PS_20180925_SDR_2K_AVC.mp4	0.0	389.0795428752899	0.37578296661376953
65	187.13477396965027	response	0	2		63.0	2.5	/experiments/knapen_aot/videos/R_S_comp_H012_C009_PS_v01_SDR_PS_20180925_SDR_2K_AVC.mp4	0.0	389.44634985923767	
65	187.14374995231628	movie	1		165.0	63.0	2.5	/experiments/knapen_aot/videos/R_S_comp_H012_C009_PS_v01_SDR_PS_20180925_SDR_2K_AVC.mp4	0.0	389.4553258419037	2.507620096206665
65	189.65137004852295	fix_post	2		12.0	63.0	2.5	/experiments/knapen_aot/videos/R_S_comp_H012_C009_PS_v01_SDR_PS_20180925_SDR_2K_AVC.mp4	0.0	391.96294593811035	0.09996891021728516
66	189.75133895874023	fix_pre	0		29.0	64.0	2.5	/experiments/knapen_aot/videos/R_S_production_ID_4101244.mp4	0.0	392.06291484832764	0.24166107177734375
66	189.98477506637573	response	0	2		64.0	2.5	/experiments/knapen_aot/videos/R_S_production_ID_4101244.mp4	0.0	392.29635095596313	
66	189.99300003051758	movie	1		193.0	64.0	2.5	/experiments/knapen_aot/videos/R_S_production_ID_4101244.mp4	0.0	392.304575920105	2.5082900524139404
66	192.50129008293152	fix_post	2		12.0	64.0	2.5	/experiments/knapen_aot/videos/R_S_production_ID_4101244.mp4	0.0	394.8128659725189	0.09997701644897461
67	192.6012670993805	fix_pre	0		23.0	65.0	2.5	/experiments/knapen_aot/videos/S_production_ID_4802710.mp4	0.0	394.9128429889679	0.19166994094848633
67	192.7847671508789	response	0	2		65.0	2.5	/experiments/knapen_aot/videos/S_production_ID_4802710.mp4	0.0	395.0963430404663	
67	192.79293704032898	movie	1		171.0	65.0	2.5	/experiments/knapen_aot/videos/S_production_ID_4802710.mp4	0.0	395.1045129299164	2.508323907852173
67	195.30126094818115	fix_post	2		12.0	65.0	2.5	/experiments/knapen_aot/videos/S_production_ID_4802710.mp4	0.0	397.61283683776855	0.10006403923034668
68	195.4013249874115	fix_pre	0		18.0	66.0	2.5	/experiments/knapen_aot/videos/S_yt-5fZZrdwkFx0_28.mp4	0.0	397.7129008769989	0.1498851776123047
68	195.54308795928955	response	0	2		66.0	2.5	/experiments/knapen_aot/videos/S_yt-5fZZrdwkFx0_28.mp4	0.0	397.85466384887695	
68	195.5512101650238	movie	1		301.0	66.0	2.5	/experiments/knapen_aot/videos/S_yt-5fZZrdwkFx0_28.mp4	0.0	397.8627860546112	2.508403778076172
68	198.05961394309998	fix_post	2		12.0	66.0	2.5	/experiments/knapen_aot/videos/S_yt-5fZZrdwkFx0_28.mp4	0.0	400.3711898326874	0.10000920295715332
69	198.15962314605713	fix_pre	0		46.0	67.0	2.5	/experiments/knapen_aot/videos/R_S_yt-lkpfs_4qAGE_50.mp4	0.0	400.47119903564453	0.38330698013305664
69	198.53467512130737	response	0	2		67.0	2.5	/experiments/knapen_aot/videos/R_S_yt-lkpfs_4qAGE_50.mp4	0.0	400.8462510108948	
69	198.54293012619019	movie	1		301.0	67.0	2.5	/experiments/knapen_aot/videos/R_S_yt-lkpfs_4qAGE_50.mp4	0.0	400.8545060157776	2.508301019668579
69	201.05123114585876	fix_post	2		12.0	67.0	2.5	/experiments/knapen_aot/videos/R_S_yt-lkpfs_4qAGE_50.mp4	0.0	403.36280703544617	0.10005402565002441
70	201.1512851715088	fix_pre	0		92.0	68.0	2.5	/experiments/knapen_aot/videos/S_flickr-53807584@N00-5566422012_16.mp4	0.0	403.4628610610962	0.7666378021240234
70	201.90212416648865	response	0	2		68.0	2.5	/experiments/knapen_aot/videos/S_flickr-53807584@N00-5566422012_16.mp4	0.0	404.21370005607605	
70	201.9179229736328	movie	1		301.0	68.0	2.5	/experiments/knapen_aot/videos/S_flickr-53807584@N00-5566422012_16.mp4	0.0	404.2294988632202	2.508352041244507
70	204.42627501487732	fix_post	2		12.0	68.0	2.5	/experiments/knapen_aot/videos/S_flickr-53807584@N00-5566422012_16.mp4	0.0	406.7378509044647	0.10000300407409668
71	204.52627801895142	fix_pre	0		24.0	69.0	2.5	/experiments/knapen_aot/videos/S_yt-ZE8Af60eNsI_15.mp4	0.0	406.8378539085388	0.20062613487243652
71	204.71802806854248	response	0	2		69.0	2.5	/experiments/knapen_aot/videos/S_yt-ZE8Af60eNsI_15.mp4	0.0	407.0296039581299	
71	204.72690415382385	movie	1		301.0	69.0	2.5	/experiments/knapen_aot/videos/S_yt-ZE8Af60eNsI_15.mp4	0.0	407.03848004341125	2.507715940475464
71	207.23462009429932	fix_post	2		11.0	69.0	2.5	/experiments/knapen_aot/videos/S_yt-ZE8Af60eNsI_15.mp4	0.0	409.5461959838867	0.10001587867736816
72	207.33463597297668	fix_pre	0		40.0	70.0	2.5	blank	1.0	409.6462118625641	0.33328914642333984
72	207.65968012809753	response	0	2		70.0	2.5	blank	1.0	409.97125601768494	
72	207.66792511940002	movie	1		301.0	70.0	2.5	blank	1.0	409.9795010089874	2.5083048343658447
72	210.17622995376587	fix_post	2		12.0	70.0	2.5	blank	1.0	412.48780584335327	0.10006213188171387
73	210.27629208564758	fix_pre	0		31.0	71.0	2.5	/experiments/knapen_aot/videos/R_S_yt-1UFhynm5g6Y_266.mp4	0.0	412.587867975235	0.2582540512084961
73	210.52640199661255	response	0	2		71.0	2.5	/experiments/knapen_aot/videos/R_S_yt-1UFhynm5g6Y_266.mp4	0.0	412.83797788619995	
73	210.53454613685608	movie	1		301.0	71.0	2.5	/experiments/knapen_aot/videos/R_S_yt-1UFhynm5g6Y_266.mp4	0.0	412.8461220264435	2.5082318782806396
73	213.04277801513672	fix_post	2		12.0	71.0	2.5	/experiments/knapen_aot/videos/R_S_yt-1UFhynm5g6Y_266.mp4	0.0	415.3543539047241	0.10010910034179688
74	213.14288711547852	fix_pre	0		40.0	72.0	2.5	/experiments/knapen_aot/videos/R_S_yt-1UFhynm5g6Y_266.mp4	0.0	415.4544630050659	0.334000825881958
74	213.46799302101135	response	0	2		72.0	2.5	/experiments/knapen_aot/videos/R_S_yt-1UFhynm5g6Y_266.mp4	0.0	415.77956891059875	
74	213.47688794136047	movie	1		301.0	72.0	2.5	/experiments/knapen_aot/videos/R_S_yt-1UFhynm5g6Y_266.mp4	0.0	415.7884638309479	2.5075812339782715
74	215.98446917533875	fix_post	2		12.0	72.0	2.5	/experiments/knapen_aot/videos/R_S_yt-1UFhynm5g6Y_266.mp4	0.0	418.29604506492615	0.10001897811889648
75	216.08448815345764	fix_pre	0		134.0	73.0	2.5	/experiments/knapen_aot/videos/R_S_ILSVRC2015_train_00569006.mp4	0.0	418.39606404304504	1.1166789531707764
75	217.19308805465698	response	0	2		73.0	2.5	/experiments/knapen_aot/videos/R_S_ILSVRC2015_train_00569006.mp4	0.0	419.5046639442444	
75	217.20116710662842	movie	1		300.0	73.0	2.5	/experiments/knapen_aot/videos/R_S_ILSVRC2015_train_00569006.mp4	0.0	419.5127429962158	2.5083048343658447
75	219.70947194099426	fix_post	2		12.0	73.0	2.5	/experiments/knapen_aot/videos/R_S_ILSVRC2015_train_00569006.mp4	0.0	422.02104783058167	0.10021805763244629
76	219.8096899986267	fix_pre	0		28.0	74.0	2.5	/experiments/knapen_aot/videos/R_S_yt-PP93D7b7Ni4_10.mp4	0.0	422.1212658882141	0.2331240177154541
76	220.03457808494568	response	0	2		74.0	2.5	/experiments/knapen_aot/videos/R_S_yt-PP93D7b7Ni4_10.mp4	0.0	422.3461539745331	
76	220.04281401634216	movie	1		301.0	74.0	2.5	/experiments/knapen_aot/videos/R_S_yt-PP93D7b7Ni4_10.mp4	0.0	422.35438990592957	2.508341073989868
76	222.55115509033203	fix_post	2		12.0	74.0	2.5	/experiments/knapen_aot/videos/R_S_yt-PP93D7b7Ni4_10.mp4	0.0	424.86273097991943	0.10002589225769043
77	222.65118098258972	fix_pre	0		28.0	75.0	2.5	/experiments/knapen_aot/videos/S_yt-STL3ejY9u_Q_73.mp4	0.0	424.9627568721771	0.23331117630004883
77	222.87625217437744	response	0	2		75.0	2.5	/experiments/knapen_aot/videos/S_yt-STL3ejY9u_Q_73.mp4	0.0	425.18782806396484	
77	222.88449215888977	movie	1		301.0	75.0	2.5	/experiments/knapen_aot/videos/S_yt-STL3ejY9u_Q_73.mp4	0.0	425.1960680484772	2.5083558559417725
77	225.39284801483154	fix_post	2		12.0	75.0	2.5	/experiments/knapen_aot/videos/S_yt-STL3ejY9u_Q_73.mp4	0.0	427.70442390441895	0.09997892379760742
78	225.49282693862915	fix_pre	0		79.0	76.0	2.5	/experiments/knapen_aot/videos/R_S_yt--xKSTYy9mcA_54.mp4	0.0	427.80440282821655	0.6582520008087158
78	226.1430160999298	response	0	2		76.0	2.5	/experiments/knapen_aot/videos/R_S_yt--xKSTYy9mcA_54.mp4	0.0	428.4545919895172	
78	226.15107893943787	movie	1		301.0	76.0	2.5	/experiments/knapen_aot/videos/R_S_yt--xKSTYy9mcA_54.mp4	0.0	428.46265482902527	2.5083510875701904
78	228.65943002700806	fix_post	2		12.0	76.0	2.5	/experiments/knapen_aot/videos/R_S_yt--xKSTYy9mcA_54.mp4	0.0	430.97100591659546	0.1000211238861084
79	228.75945115089417	fix_pre	0		47.0	77.0	2.5	blank	1.0	431.07102704048157	0.39160990715026855
79	229.14294600486755	response	0	2		77.0	2.5	blank	1.0	431.45452189445496	
79	229.15106105804443	movie	1		301.0	77.0	2.5	blank	1.0	431.46263694763184	2.5084140300750732
79	231.6594750881195	fix_post	2		12.0	77.0	2.5	blank	1.0	433.9710509777069	0.09999799728393555
80	231.75947308540344	fix_pre	0		29.0	78.0	2.5	/experiments/knapen_aot/videos/S_IrGYVLkWeQs_9.mp4	0.0	434.07104897499084	0.24166297912597656
80	231.9929599761963	response	0	2		78.0	2.5	/experiments/knapen_aot/videos/S_IrGYVLkWeQs_9.mp4	0.0	434.3045358657837	
80	232.00113606452942	movie	1		301.0	78.0	2.5	/experiments/knapen_aot/videos/S_IrGYVLkWeQs_9.mp4	0.0	434.3127119541168	2.5083250999450684
80	234.5094611644745	fix_post	2		12.0	78.0	2.5	/experiments/knapen_aot/videos/S_IrGYVLkWeQs_9.mp4	0.0	436.8210370540619	0.09999799728393555
81	234.60945916175842	fix_pre	0		22.0	79.0	2.5	/experiments/knapen_aot/videos/S_production_ID_3712945.mp4	0.0	436.9210350513458	0.18329286575317383
81	234.7845401763916	response	0	2		79.0	2.5	/experiments/knapen_aot/videos/S_production_ID_3712945.mp4	0.0	437.096116065979	
81	234.7927520275116	movie	1		191.0	79.0	2.5	/experiments/knapen_aot/videos/S_production_ID_3712945.mp4	0.0	437.104327917099	2.5083041191101074
81	237.3010561466217	fix_post	2		12.0	79.0	2.5	/experiments/knapen_aot/videos/S_production_ID_3712945.mp4	0.0	439.6126320362091	0.09996700286865234
82	237.40102314949036	fix_pre	0		26.0	80.0	2.5	/experiments/knapen_aot/videos/S_flickr-53807584@N00-5566422012_16.mp4	0.0	439.71259903907776	0.21670794486999512
82	237.60205817222595	response	0	2		80.0	2.5	/experiments/knapen_aot/videos/S_flickr-53807584@N00-5566422012_16.mp4	0.0	439.91363406181335	
82	237.61773109436035	movie	1		301.0	80.0	2.5	/experiments/knapen_aot/videos/S_flickr-53807584@N00-5566422012_16.mp4	0.0	439.92930698394775	2.5083649158477783
82	240.12609601020813	fix_post	2		12.0	80.0	2.5	/experiments/knapen_aot/videos/S_flickr-53807584@N00-5566422012_16.mp4	0.0	442.43767189979553	0.09999799728393555
83	240.22609400749207	fix_pre	0		18.0	81.0	2.5	/experiments/knapen_aot/videos/S_59eT4XDXNno_25.mp4	0.0	442.53766989707947	0.14993715286254883
83	240.367928981781	response	0	2		81.0	2.5	/experiments/knapen_aot/videos/S_59eT4XDXNno_25.mp4	0.0	442.6795048713684	
83	240.37603116035461	movie	1		301.0	81.0	2.5	/experiments/knapen_aot/videos/S_59eT4XDXNno_25.mp4	0.0	442.687607049942	2.5083508491516113
83	242.88438200950623	fix_post	2		12.0	81.0	2.5	/experiments/knapen_aot/videos/S_59eT4XDXNno_25.mp4	0.0	445.1959578990936	0.10003900527954102
84	242.98442101478577	fix_pre	0		33.0	82.0	2.5	blank	1.0	445.29599690437317	0.2749631404876709
84	243.25115704536438	response	0	2		82.0	2.5	blank	1.0	445.5627329349518	
84	243.25938415527344	movie	1		301.0	82.0	2.5	blank	1.0	445.57096004486084	2.508272886276245
84	245.76765704154968	fix_post	2		12.0	82.0	2.5	blank	1.0	448.0792329311371	0.10001611709594727
85	245.86767315864563	fix_pre	0		28.0	83.0	2.5	/experiments/knapen_aot/videos/S_video-9.mp4	0.0	448.17924904823303	0.23375988006591797
85	246.09285712242126	response	0	2		83.0	2.5	/experiments/knapen_aot/videos/S_video-9.mp4	0.0	448.40443301200867	
85	246.10143303871155	movie	1		196.0	83.0	2.5	/experiments/knapen_aot/videos/S_video-9.mp4	0.0	448.41300892829895	2.5081169605255127
85	248.60954999923706	fix_post	2		12.0	83.0	2.5	/experiments/knapen_aot/videos/S_video-9.mp4	0.0	450.92112588882446	0.09989595413208008
87	248.70944595336914	stim	0		195.0					451.02102184295654	1.6248199939727783
87	248.96785807609558	response	0	2						451.279433965683	
87	250.32624197006226	response	0	space						452.63781785964966	
