trial_nr	onset	event_type	phase	response	nr_frames	movie_index	movie_duration	movie_file	blank	onset_abs	duration
0	0.13181400299072266	stim	0		56.0					65.64227199554443	0.466062068939209
0	0.5905821323394775	response	0	space						66.10104012489319	
1	0.5978760719299316	stim	0		121.0					66.10833406448364	1.0084550380706787
1	1.6063311100006104	stim	1		120.0					67.11678910255432	0.9997608661651611
2	2.6060919761657715	fix_pre	0		25.0	0.0	2.5	/experiments/knapen_aot/videos/S_yt-JGKdBO2Ldzo_93.mp4	0.0	68.11654996871948	0.20809602737426758
2	2.806044101715088	response	0	space		0.0	2.5	/experiments/knapen_aot/videos/S_yt-JGKdBO2Ldzo_93.mp4	0.0	68.3165020942688	
2	2.814188003540039	movie	1		300.0	0.0	2.5	/experiments/knapen_aot/videos/S_yt-JGKdBO2Ldzo_93.mp4	0.0	68.32464599609375	2.5083320140838623
2	5.322520017623901	fix_post	2		12.0	0.0	2.5	/experiments/knapen_aot/videos/S_yt-JGKdBO2Ldzo_93.mp4	0.0	70.83297801017761	0.10005497932434082
3	5.422574996948242	fix_pre	0		6.0	1.0	2.5	/experiments/knapen_aot/videos/S_goAwcQiFu1Q_99.mp4	0.0	70.93303298950195	0.049978017807006836
3	5.468991994857788	response	0	2		1.0	2.5	/experiments/knapen_aot/videos/S_goAwcQiFu1Q_99.mp4	0.0	70.9794499874115	
3	5.472553014755249	movie	1		295.0	1.0	2.5	/experiments/knapen_aot/videos/S_goAwcQiFu1Q_99.mp4	0.0	70.98301100730896	2.5083680152893066
3	7.980921030044556	fix_post	2		12.0	1.0	2.5	/experiments/knapen_aot/videos/S_goAwcQiFu1Q_99.mp4	0.0	73.49137902259827	0.09996294975280762
4	8.080883979797363	fix_pre	0		1.0	2.0	2.5	/experiments/knapen_aot/videos/R_S_production_ID_4325513.mp4	0.0	73.59134197235107	0.00887608528137207
4	8.083475112915039	response	0	2		2.0	2.5	/experiments/knapen_aot/videos/R_S_production_ID_4325513.mp4	0.0	73.59393310546875	
4	8.089760065078735	movie	1		203.0	2.0	2.5	/experiments/knapen_aot/videos/R_S_production_ID_4325513.mp4	0.0	73.60021805763245	2.5077250003814697
4	10.597485065460205	fix_post	2		12.0	2.0	2.5	/experiments/knapen_aot/videos/R_S_production_ID_4325513.mp4	0.0	76.10794305801392	0.1000678539276123
5	10.697552919387817	fix_pre	0		2.0	3.0	2.5	/experiments/knapen_aot/videos/R_S_yt-R9Iabv0XgOQ_80.mp4	0.0	76.20801091194153	0.017419099807739258
5	10.70615291595459	response	0	2		3.0	2.5	/experiments/knapen_aot/videos/R_S_yt-R9Iabv0XgOQ_80.mp4	0.0	76.2166109085083	
5	10.714972019195557	movie	1		301.0	3.0	2.5	/experiments/knapen_aot/videos/R_S_yt-R9Iabv0XgOQ_80.mp4	0.0	76.22543001174927	2.507519006729126
5	13.222491025924683	fix_post	2		12.0	3.0	2.5	/experiments/knapen_aot/videos/R_S_yt-R9Iabv0XgOQ_80.mp4	0.0	78.7329490184784	0.10004711151123047
5	13.29765796661377	response	2	2		3.0	2.5	/experiments/knapen_aot/videos/R_S_yt-R9Iabv0XgOQ_80.mp4	0.0	78.80811595916748	
6	13.322538137435913	fix_pre	0		41.0	4.0	2.5	/experiments/knapen_aot/videos/R_S_yt-EBuE7GbFw7U_180.mp4	0.0	78.83299612998962	0.34162378311157227
6	13.655996084213257	response	0	2		4.0	2.5	/experiments/knapen_aot/videos/R_S_yt-EBuE7GbFw7U_180.mp4	0.0	79.16645407676697	
6	13.664161920547485	movie	1		301.0	4.0	2.5	/experiments/knapen_aot/videos/R_S_yt-EBuE7GbFw7U_180.mp4	0.0	79.1746199131012	2.5084030628204346
6	16.17256498336792	fix_post	2		12.0	4.0	2.5	/experiments/knapen_aot/videos/R_S_yt-EBuE7GbFw7U_180.mp4	0.0	81.68302297592163	0.09995794296264648
6	16.247973918914795	response	2	2		4.0	2.5	/experiments/knapen_aot/videos/R_S_yt-EBuE7GbFw7U_180.mp4	0.0	81.7584319114685	
7	16.272522926330566	fix_pre	0		37.0	5.0	2.5	/experiments/knapen_aot/videos/R_S_yt-1H8sfkZGZK8_3.mp4	0.0	81.78298091888428	0.30829811096191406
7	16.572611093521118	response	0	2		5.0	2.5	/experiments/knapen_aot/videos/R_S_yt-1H8sfkZGZK8_3.mp4	0.0	82.08306908607483	
7	16.58082103729248	movie	1		301.0	5.0	2.5	/experiments/knapen_aot/videos/R_S_yt-1H8sfkZGZK8_3.mp4	0.0	82.09127902984619	2.5083210468292236
7	19.089142084121704	fix_post	2		12.0	5.0	2.5	/experiments/knapen_aot/videos/R_S_yt-1H8sfkZGZK8_3.mp4	0.0	84.59960007667542	0.09995484352111816
8	19.189096927642822	fix_pre	0		2.0	6.0	2.5	blank	1.0	84.69955492019653	0.016833066940307617
8	19.197627067565918	response	0	2		6.0	2.5	blank	1.0	84.70808506011963	
8	19.20592999458313	movie	1		301.0	6.0	2.5	blank	1.0	84.71638798713684	2.508188009262085
8	21.714118003845215	fix_post	2		12.0	6.0	2.5	blank	1.0	87.22457599639893	0.09999799728393555
9	21.81411600112915	fix_pre	0		13.0	7.0	2.5	/experiments/knapen_aot/videos/R_S_yt-y-boY803u9A_12.mp4	0.0	87.32457399368286	0.10883307456970215
9	21.914233922958374	response	0	2		7.0	2.5	/experiments/knapen_aot/videos/R_S_yt-y-boY803u9A_12.mp4	0.0	87.42469191551208	
9	21.922949075698853	movie	1		301.0	7.0	2.5	/experiments/knapen_aot/videos/R_S_yt-y-boY803u9A_12.mp4	0.0	87.43340706825256	2.507796049118042
9	24.430745124816895	fix_post	2		12.0	7.0	2.5	/experiments/knapen_aot/videos/R_S_yt-y-boY803u9A_12.mp4	0.0	89.9412031173706	0.10004997253417969
10	24.530795097351074	fix_pre	0		14.0	8.0	2.5	/experiments/knapen_aot/videos/S_yt-nYi_FfCjepk_74.mp4	0.0	90.04125308990479	0.11663293838500977
10	24.639272928237915	response	0	2		8.0	2.5	/experiments/knapen_aot/videos/S_yt-nYi_FfCjepk_74.mp4	0.0	90.14973092079163	
10	24.647428035736084	movie	1		301.0	8.0	2.5	/experiments/knapen_aot/videos/S_yt-nYi_FfCjepk_74.mp4	0.0	90.1578860282898	2.5084359645843506
10	27.155864000320435	fix_post	2		12.0	8.0	2.5	/experiments/knapen_aot/videos/S_yt-nYi_FfCjepk_74.mp4	0.0	92.66632199287415	0.10046005249023438
11	27.25632405281067	fix_pre	0		14.0	9.0	2.5	/experiments/knapen_aot/videos/S_yt-R9Iabv0XgOQ_80.mp4	0.0	92.76678204536438	0.11806201934814453
11	27.364463090896606	response	0	2		9.0	2.5	/experiments/knapen_aot/videos/S_yt-R9Iabv0XgOQ_80.mp4	0.0	92.87492108345032	
11	27.374386072158813	movie	1		301.0	9.0	2.5	/experiments/knapen_aot/videos/S_yt-R9Iabv0XgOQ_80.mp4	0.0	92.88484406471252	2.506410837173462
11	29.880796909332275	fix_post	2		12.0	9.0	2.5	/experiments/knapen_aot/videos/S_yt-R9Iabv0XgOQ_80.mp4	0.0	95.39125490188599	0.0999460220336914
12	29.980742931365967	fix_pre	0		11.0	10.0	2.5	/experiments/knapen_aot/videos/S_yt-xqHrTtvFFIs_3.mp4	0.0	95.49120092391968	0.09166908264160156
12	30.06429409980774	response	0	2		10.0	2.5	/experiments/knapen_aot/videos/S_yt-xqHrTtvFFIs_3.mp4	0.0	95.57475209236145	
12	30.07241201400757	movie	1		301.0	10.0	2.5	/experiments/knapen_aot/videos/S_yt-xqHrTtvFFIs_3.mp4	0.0	95.58287000656128	2.508331060409546
12	32.580743074417114	fix_post	2		12.0	10.0	2.5	/experiments/knapen_aot/videos/S_yt-xqHrTtvFFIs_3.mp4	0.0	98.09120106697083	0.1000678539276123
13	32.68081092834473	fix_pre	0		5.0	11.0	2.5	/experiments/knapen_aot/videos/S_yt-SRcIvTQcmOk_62.mp4	0.0	98.19126892089844	0.04164600372314453
13	32.714839935302734	response	0	2		11.0	2.5	/experiments/knapen_aot/videos/S_yt-SRcIvTQcmOk_62.mp4	0.0	98.22529792785645	
13	32.72245693206787	movie	1		298.0	11.0	2.5	/experiments/knapen_aot/videos/S_yt-SRcIvTQcmOk_62.mp4	0.0	98.23291492462158	2.5083441734313965
13	35.23080110549927	fix_post	2		12.0	11.0	2.5	/experiments/knapen_aot/videos/S_yt-SRcIvTQcmOk_62.mp4	0.0	100.74125909805298	0.09994101524353027
14	35.3307421207428	fix_pre	0		7.0	12.0	2.5	blank	1.0	100.84120011329651	0.05837297439575195
14	35.38096904754639	response	0	2		12.0	2.5	blank	1.0	100.8914270401001	
14	35.38911509513855	movie	1		301.0	12.0	2.5	blank	1.0	100.89957308769226	2.5083110332489014
14	37.89742612838745	fix_post	2		12.0	12.0	2.5	blank	1.0	103.40788412094116	0.10001897811889648
15	37.99744510650635	fix_pre	0		23.0	13.0	2.5	/experiments/knapen_aot/videos/R_S_ILSVRC2015_train_00001009.mp4	0.0	103.50790309906006	0.19164180755615234
15	38.18082308769226	response	0	2		13.0	2.5	/experiments/knapen_aot/videos/R_S_ILSVRC2015_train_00001009.mp4	0.0	103.69128108024597	
15	38.1890869140625	movie	1		300.0	13.0	2.5	/experiments/knapen_aot/videos/R_S_ILSVRC2015_train_00001009.mp4	0.0	103.69954490661621	2.5083510875701904
15	40.69743800163269	fix_post	2		12.0	13.0	2.5	/experiments/knapen_aot/videos/R_S_ILSVRC2015_train_00001009.mp4	0.0	106.2078959941864	0.1000220775604248
16	40.797460079193115	fix_pre	0		37.0	14.0	2.5	/experiments/knapen_aot/videos/S_yt-TZ107yBhXoA_1.mp4	0.0	106.30791807174683	0.3082590103149414
16	41.097615003585815	response	0	2		14.0	2.5	/experiments/knapen_aot/videos/S_yt-TZ107yBhXoA_1.mp4	0.0	106.60807299613953	
16	41.10571908950806	movie	1		301.0	14.0	2.5	/experiments/knapen_aot/videos/S_yt-TZ107yBhXoA_1.mp4	0.0	106.61617708206177	2.5083680152893066
16	43.61408710479736	fix_post	2		12.0	14.0	2.5	/experiments/knapen_aot/videos/S_yt-TZ107yBhXoA_1.mp4	0.0	109.12454509735107	0.10042095184326172
16	43.68084192276001	response	2	2		14.0	2.5	/experiments/knapen_aot/videos/S_yt-TZ107yBhXoA_1.mp4	0.0	109.19129991531372	
17	43.714508056640625	fix_pre	0		39.0	15.0	2.5	/experiments/knapen_aot/videos/S_pexels-c-technical-6754008.mp4	0.0	109.22496604919434	0.3245530128479004
17	44.030741930007935	response	0	2		15.0	2.5	/experiments/knapen_aot/videos/S_pexels-c-technical-6754008.mp4	0.0	109.54119992256165	
17	44.039061069488525	movie	1		195.0	15.0	2.5	/experiments/knapen_aot/videos/S_pexels-c-technical-6754008.mp4	0.0	109.54951906204224	2.5084190368652344
17	46.54748010635376	fix_post	2		12.0	15.0	2.5	/experiments/knapen_aot/videos/S_pexels-c-technical-6754008.mp4	0.0	112.05793809890747	0.09997701644897461
18	46.647457122802734	fix_pre	0		8.0	16.0	2.5	/experiments/knapen_aot/videos/R_S_yt-4BAsE47kJNk_88.mp4	0.0	112.15791511535645	0.06696295738220215
18	46.70584797859192	response	0	2		16.0	2.5	/experiments/knapen_aot/videos/R_S_yt-4BAsE47kJNk_88.mp4	0.0	112.21630597114563	
18	46.71442008018494	movie	1		301.0	16.0	2.5	/experiments/knapen_aot/videos/R_S_yt-4BAsE47kJNk_88.mp4	0.0	112.22487807273865	2.5079879760742188
18	49.222408056259155	fix_post	2		12.0	16.0	2.5	/experiments/knapen_aot/videos/R_S_yt-4BAsE47kJNk_88.mp4	0.0	114.73286604881287	0.10004186630249023
19	49.322449922561646	fix_pre	0		10.0	17.0	2.5	/experiments/knapen_aot/videos/R_S_yt-ni4JaYu7PhU_6.mp4	0.0	114.83290791511536	0.0832819938659668
19	49.39762091636658	response	0	2		17.0	2.5	/experiments/knapen_aot/videos/R_S_yt-ni4JaYu7PhU_6.mp4	0.0	114.90807890892029	
19	49.40573191642761	movie	1		301.0	17.0	2.5	/experiments/knapen_aot/videos/R_S_yt-ni4JaYu7PhU_6.mp4	0.0	114.91618990898132	2.508470058441162
19	51.914201974868774	fix_post	2		12.0	17.0	2.5	/experiments/knapen_aot/videos/R_S_yt-ni4JaYu7PhU_6.mp4	0.0	117.42465996742249	0.09990501403808594
19	51.997549057006836	response	2	2		17.0	2.5	/experiments/knapen_aot/videos/R_S_yt-ni4JaYu7PhU_6.mp4	0.0	117.50800704956055	
20	52.01410698890686	fix_pre	0		37.0	18.0	2.5	/experiments/knapen_aot/videos/S_pexels-cottonbro-6788024.mp4	0.0	117.52456498146057	0.3083169460296631
20	52.314197063446045	response	0	2		18.0	2.5	/experiments/knapen_aot/videos/S_pexels-cottonbro-6788024.mp4	0.0	117.82465505599976	
20	52.32242393493652	movie	1		192.0	18.0	2.5	/experiments/knapen_aot/videos/S_pexels-cottonbro-6788024.mp4	0.0	117.83288192749023	2.5083160400390625
20	54.830739974975586	fix_post	2		12.0	18.0	2.5	/experiments/knapen_aot/videos/S_pexels-cottonbro-6788024.mp4	0.0	120.3411979675293	0.10003399848937988
21	54.930773973464966	fix_pre	0		7.0	19.0	2.5	/experiments/knapen_aot/videos/R_S_yt-xqHrTtvFFIs_3.mp4	0.0	120.44123196601868	0.05830693244934082
21	54.98089098930359	response	0	2		19.0	2.5	/experiments/knapen_aot/videos/R_S_yt-xqHrTtvFFIs_3.mp4	0.0	120.4913489818573	
21	54.98908090591431	movie	1		301.0	19.0	2.5	/experiments/knapen_aot/videos/R_S_yt-xqHrTtvFFIs_3.mp4	0.0	120.49953889846802	2.5083301067352295
21	57.497411012649536	fix_post	2		12.0	19.0	2.5	/experiments/knapen_aot/videos/R_S_yt-xqHrTtvFFIs_3.mp4	0.0	123.00786900520325	0.0999910831451416
22	57.59740209579468	fix_pre	0		2.0	20.0	2.5	blank	1.0	123.10786008834839	0.016672849655151367
22	57.60585403442383	response	0	2		20.0	2.5	blank	1.0	123.11631202697754	
22	57.61407494544983	movie	1		301.0	20.0	2.5	blank	1.0	123.12453293800354	2.508179187774658
22	60.12225413322449	fix_post	2		12.0	20.0	2.5	blank	1.0	125.6327121257782	0.1000828742980957
23	60.22233700752258	fix_pre	0		21.0	21.0	2.5	/experiments/knapen_aot/videos/R_S_-IkGMlLHrOI_108.mp4	0.0	125.7327950000763	0.17493009567260742
23	60.38915801048279	response	0	2		21.0	2.5	/experiments/knapen_aot/videos/R_S_-IkGMlLHrOI_108.mp4	0.0	125.8996160030365	
23	60.39726710319519	movie	1		300.0	21.0	2.5	/experiments/knapen_aot/videos/R_S_-IkGMlLHrOI_108.mp4	0.0	125.9077250957489	2.508316993713379
23	62.90558409690857	fix_post	2		12.0	21.0	2.5	/experiments/knapen_aot/videos/R_S_-IkGMlLHrOI_108.mp4	0.0	128.41604208946228	0.10038304328918457
24	63.005967140197754	fix_pre	0		5.0	22.0	2.5	/experiments/knapen_aot/videos/S_yt-8fQ9LaF8U10_382.mp4	0.0	128.51642513275146	0.04190397262573242
24	63.039129972457886	response	0	2		22.0	2.5	/experiments/knapen_aot/videos/S_yt-8fQ9LaF8U10_382.mp4	0.0	128.5495879650116	
24	63.047871112823486	movie	1		300.0	22.0	2.5	/experiments/knapen_aot/videos/S_yt-8fQ9LaF8U10_382.mp4	0.0	128.5583291053772	2.5077669620513916
24	65.55563807487488	fix_post	2		12.0	22.0	2.5	/experiments/knapen_aot/videos/S_yt-8fQ9LaF8U10_382.mp4	0.0	131.0660960674286	0.09994196891784668
25	65.65558004379272	fix_pre	0		19.0	23.0	2.5	/experiments/knapen_aot/videos/R_S_production_ID_5020960.mp4	0.0	131.16603803634644	0.15839695930480957
25	65.80581498146057	response	0	2		23.0	2.5	/experiments/knapen_aot/videos/R_S_production_ID_5020960.mp4	0.0	131.31627297401428	
25	65.81397700309753	movie	1		199.0	23.0	2.5	/experiments/knapen_aot/videos/R_S_production_ID_5020960.mp4	0.0	131.32443499565125	2.50838303565979
25	68.32236003875732	fix_post	2		12.0	23.0	2.5	/experiments/knapen_aot/videos/R_S_production_ID_5020960.mp4	0.0	133.83281803131104	0.1002049446105957
26	68.42256498336792	fix_pre	0		18.0	24.0	2.5	/experiments/knapen_aot/videos/R_S_yt-HFiRYTnMZxE_338.mp4	0.0	133.93302297592163	0.1497499942779541
26	68.56412196159363	response	0	2		24.0	2.5	/experiments/knapen_aot/videos/R_S_yt-HFiRYTnMZxE_338.mp4	0.0	134.07457995414734	
26	68.57231497764587	movie	1		301.0	24.0	2.5	/experiments/knapen_aot/videos/R_S_yt-HFiRYTnMZxE_338.mp4	0.0	134.08277297019958	2.5083510875701904
26	71.08066606521606	fix_post	2		12.0	24.0	2.5	/experiments/knapen_aot/videos/R_S_yt-HFiRYTnMZxE_338.mp4	0.0	136.59112405776978	0.10012388229370117
27	71.18078994750977	fix_pre	0		10.0	25.0	2.5	/experiments/knapen_aot/videos/R_S_pexels-c-technical-6754008.mp4	0.0	136.69124794006348	0.0833120346069336
27	71.25615310668945	response	0	2		25.0	2.5	/experiments/knapen_aot/videos/R_S_pexels-c-technical-6754008.mp4	0.0	136.76661109924316	
27	71.2641019821167	movie	1		201.0	25.0	2.5	/experiments/knapen_aot/videos/R_S_pexels-c-technical-6754008.mp4	0.0	136.7745599746704	2.508100986480713
27	73.77220296859741	fix_post	2		12.0	25.0	2.5	/experiments/knapen_aot/videos/R_S_pexels-c-technical-6754008.mp4	0.0	139.28266096115112	0.10005617141723633
28	73.87225914001465	fix_pre	0		10.0	26.0	2.5	/experiments/knapen_aot/videos/R_S_yt-pPIHiIYSjW8_653.mp4	0.0	139.38271713256836	0.08334684371948242
28	73.94753313064575	response	0	2		26.0	2.5	/experiments/knapen_aot/videos/R_S_yt-pPIHiIYSjW8_653.mp4	0.0	139.45799112319946	
28	73.95560598373413	movie	1		301.0	26.0	2.5	/experiments/knapen_aot/videos/R_S_yt-pPIHiIYSjW8_653.mp4	0.0	139.46606397628784	2.5085809230804443
28	76.46418690681458	fix_post	2		12.0	26.0	2.5	/experiments/knapen_aot/videos/R_S_yt-pPIHiIYSjW8_653.mp4	0.0	141.9746448993683	0.0997920036315918
29	76.56397891044617	fix_pre	0		4.0	27.0	2.5	blank	1.0	142.07443690299988	0.033300161361694336
29	76.58906507492065	response	0	2		27.0	2.5	blank	1.0	142.09952306747437	
29	76.59727907180786	movie	1		301.0	27.0	2.5	blank	1.0	142.10773706436157	2.508314847946167
29	79.10559391975403	fix_post	2		12.0	27.0	2.5	blank	1.0	144.61605191230774	0.1000361442565918
30	79.20563006401062	fix_pre	0		18.0	28.0	2.5	/experiments/knapen_aot/videos/R_S_yt-Dwgpjoikt84_122.mp4	0.0	144.71608805656433	0.14997386932373047
30	79.34737801551819	response	0	2		28.0	2.5	/experiments/knapen_aot/videos/R_S_yt-Dwgpjoikt84_122.mp4	0.0	144.8578360080719	
30	79.35560393333435	movie	1		301.0	28.0	2.5	/experiments/knapen_aot/videos/R_S_yt-Dwgpjoikt84_122.mp4	0.0	144.86606192588806	2.508364200592041
30	81.86396813392639	fix_post	2		12.0	28.0	2.5	/experiments/knapen_aot/videos/R_S_yt-Dwgpjoikt84_122.mp4	0.0	147.3744261264801	0.10017895698547363
30	81.86659097671509	response	2	2		28.0	2.5	/experiments/knapen_aot/videos/R_S_yt-Dwgpjoikt84_122.mp4	0.0	147.3770489692688	
31	81.96414709091187	fix_pre	0		24.0	29.0	2.5	/experiments/knapen_aot/videos/R_S_yt-pPIHiIYSjW8_653.mp4	0.0	147.47460508346558	0.19980096817016602
31	82.15567207336426	response	0	2		29.0	2.5	/experiments/knapen_aot/videos/R_S_yt-pPIHiIYSjW8_653.mp4	0.0	147.66613006591797	
31	82.16394805908203	movie	1		301.0	29.0	2.5	/experiments/knapen_aot/videos/R_S_yt-pPIHiIYSjW8_653.mp4	0.0	147.67440605163574	2.508470058441162
31	84.6724181175232	fix_post	2		12.0	29.0	2.5	/experiments/knapen_aot/videos/R_S_yt-pPIHiIYSjW8_653.mp4	0.0	150.1828761100769	0.09984493255615234
32	84.77226305007935	fix_pre	0		6.0	30.0	2.5	/experiments/knapen_aot/videos/R_S_yt-etQaTgGOhR4_69.mp4	0.0	150.28272104263306	0.0499880313873291
32	84.81399011611938	response	0	2		30.0	2.5	/experiments/knapen_aot/videos/R_S_yt-etQaTgGOhR4_69.mp4	0.0	150.3244481086731	
32	84.82225108146667	movie	1		301.0	30.0	2.5	/experiments/knapen_aot/videos/R_S_yt-etQaTgGOhR4_69.mp4	0.0	150.33270907402039	2.5083649158477783
32	87.33061599731445	fix_post	2		12.0	30.0	2.5	/experiments/knapen_aot/videos/R_S_yt-etQaTgGOhR4_69.mp4	0.0	152.84107398986816	0.09995007514953613
33	87.43056607246399	fix_pre	0		12.0	31.0	2.5	/experiments/knapen_aot/videos/R_S_yt-SRcIvTQcmOk_62.mp4	0.0	152.9410240650177	0.10006189346313477
33	87.52237010002136	response	0	2		31.0	2.5	/experiments/knapen_aot/videos/R_S_yt-SRcIvTQcmOk_62.mp4	0.0	153.03282809257507	
33	87.53062796592712	movie	1		301.0	31.0	2.5	/experiments/knapen_aot/videos/R_S_yt-SRcIvTQcmOk_62.mp4	0.0	153.04108595848083	2.508341073989868
33	90.03896903991699	fix_post	2		12.0	31.0	2.5	/experiments/knapen_aot/videos/R_S_yt-SRcIvTQcmOk_62.mp4	0.0	155.5494270324707	0.09998488426208496
34	90.13895392417908	fix_pre	0		9.0	32.0	2.5	/experiments/knapen_aot/videos/R_S_yt-1H8sfkZGZK8_3.mp4	0.0	155.6494119167328	0.07511520385742188
34	90.20577192306519	response	0	2		32.0	2.5	/experiments/knapen_aot/videos/R_S_yt-1H8sfkZGZK8_3.mp4	0.0	155.7162299156189	
34	90.2140691280365	movie	1		301.0	32.0	2.5	/experiments/knapen_aot/videos/R_S_yt-1H8sfkZGZK8_3.mp4	0.0	155.7245271205902	2.508143901824951
34	92.72221302986145	fix_post	2		12.0	32.0	2.5	/experiments/knapen_aot/videos/R_S_yt-1H8sfkZGZK8_3.mp4	0.0	158.23267102241516	0.09997200965881348
35	92.82218503952026	fix_pre	0		21.0	33.0	2.5	/experiments/knapen_aot/videos/R_S_yt-SS7pSyb0_d0_32.mp4	0.0	158.33264303207397	0.175062894821167
35	92.98895406723022	response	0	2		33.0	2.5	/experiments/knapen_aot/videos/R_S_yt-SS7pSyb0_d0_32.mp4	0.0	158.49941205978394	
35	92.99724793434143	movie	1		299.0	33.0	2.5	/experiments/knapen_aot/videos/R_S_yt-SS7pSyb0_d0_32.mp4	0.0	158.50770592689514	2.5085251331329346
35	95.50577306747437	fix_post	2		12.0	33.0	2.5	/experiments/knapen_aot/videos/R_S_yt-SS7pSyb0_d0_32.mp4	0.0	161.01623106002808	0.09979987144470215
36	95.60557293891907	fix_pre	0		10.0	34.0	2.5	blank	1.0	161.11603093147278	0.08339405059814453
36	95.68071508407593	response	0	2		34.0	2.5	blank	1.0	161.19117307662964	
36	95.68896698951721	movie	1		301.0	34.0	2.5	blank	1.0	161.19942498207092	2.508294105529785
36	98.197261095047	fix_post	2		12.0	34.0	2.5	blank	1.0	163.7077190876007	0.10008883476257324
37	98.29734992980957	fix_pre	0		37.0	35.0	2.5	/experiments/knapen_aot/videos/R_S_yt-yXJr3FR2xrM_27.mp4	0.0	163.80780792236328	0.30822300910949707
37	98.58979797363281	response	0	2		35.0	2.5	/experiments/knapen_aot/videos/R_S_yt-yXJr3FR2xrM_27.mp4	0.0	164.10025596618652	
37	98.60557293891907	movie	1		301.0	35.0	2.5	/experiments/knapen_aot/videos/R_S_yt-yXJr3FR2xrM_27.mp4	0.0	164.11603093147278	2.508364200592041
37	101.11393713951111	fix_post	2		12.0	35.0	2.5	/experiments/knapen_aot/videos/R_S_yt-yXJr3FR2xrM_27.mp4	0.0	166.62439513206482	0.09998798370361328
38	101.21392512321472	fix_pre	0		3.0	36.0	2.5	/experiments/knapen_aot/videos/R_S_S003_C020_SDR_2K_AVC.mp4	0.0	166.72438311576843	0.024963855743408203
38	101.23069500923157	response	0	2		36.0	2.5	/experiments/knapen_aot/videos/R_S_S003_C020_SDR_2K_AVC.mp4	0.0	166.74115300178528	
38	101.23888897895813	movie	1		173.0	36.0	2.5	/experiments/knapen_aot/videos/R_S_S003_C020_SDR_2K_AVC.mp4	0.0	166.74934697151184	2.5082690715789795
38	103.66392493247986	response	1	2		36.0	2.5	/experiments/knapen_aot/videos/R_S_S003_C020_SDR_2K_AVC.mp4	0.0	169.17438292503357	
38	103.74715805053711	fix_post	2		12.0	36.0	2.5	/experiments/knapen_aot/videos/R_S_S003_C020_SDR_2K_AVC.mp4	0.0	169.25761604309082	0.09999203681945801
39	103.84715008735657	fix_pre	0		20.0	37.0	2.5	/experiments/knapen_aot/videos/S_yt-GOgS--rzmKQ_51.mp4	0.0	169.35760807991028	0.16679883003234863
39	104.00562191009521	response	0	2		37.0	2.5	/experiments/knapen_aot/videos/S_yt-GOgS--rzmKQ_51.mp4	0.0	169.51607990264893	
39	104.01394891738892	movie	1		301.0	37.0	2.5	/experiments/knapen_aot/videos/S_yt-GOgS--rzmKQ_51.mp4	0.0	169.52440690994263	2.50828218460083
39	106.52223110198975	fix_post	2		12.0	37.0	2.5	/experiments/knapen_aot/videos/S_yt-GOgS--rzmKQ_51.mp4	0.0	172.03268909454346	0.10136580467224121
39	106.61408591270447	response	2	2		37.0	2.5	/experiments/knapen_aot/videos/S_yt-GOgS--rzmKQ_51.mp4	0.0	172.12454390525818	
40	106.62359690666199	fix_pre	0		63.0	38.0	2.5	/experiments/knapen_aot/videos/S_yt-V35ubrbe8gA_86.mp4	0.0	172.1340548992157	0.5235400199890137
40	107.13897705078125	response	0	2		38.0	2.5	/experiments/knapen_aot/videos/S_yt-V35ubrbe8gA_86.mp4	0.0	172.64943504333496	
40	107.147136926651	movie	1		301.0	38.0	2.5	/experiments/knapen_aot/videos/S_yt-V35ubrbe8gA_86.mp4	0.0	172.6575949192047	2.508486032485962
40	109.65562295913696	fix_post	2		12.0	38.0	2.5	/experiments/knapen_aot/videos/S_yt-V35ubrbe8gA_86.mp4	0.0	175.16608095169067	0.10021209716796875
41	109.75583505630493	fix_pre	0		36.0	39.0	2.5	/experiments/knapen_aot/videos/R_S_yt-JmmyeMOFpII_29.mp4	0.0	175.26629304885864	0.2996490001678467
41	110.04723691940308	response	0	2		39.0	2.5	/experiments/knapen_aot/videos/R_S_yt-JmmyeMOFpII_29.mp4	0.0	175.5576949119568	
41	110.05548405647278	movie	1		301.0	39.0	2.5	/experiments/knapen_aot/videos/R_S_yt-JmmyeMOFpII_29.mp4	0.0	175.5659420490265	2.508362054824829
41	112.56384611129761	fix_post	2		12.0	39.0	2.5	/experiments/knapen_aot/videos/R_S_yt-JmmyeMOFpII_29.mp4	0.0	178.07430410385132	0.09989595413208008
42	112.66374206542969	fix_pre	0		38.0	40.0	2.5	/experiments/knapen_aot/videos/S_production_ID_5182928.mp4	0.0	178.1742000579834	0.3167150020599365
42	112.97231101989746	response	0	2		40.0	2.5	/experiments/knapen_aot/videos/S_production_ID_5182928.mp4	0.0	178.48276901245117	
42	112.98045706748962	movie	1		180.0	40.0	2.5	/experiments/knapen_aot/videos/S_production_ID_5182928.mp4	0.0	178.49091506004333	2.508262872695923
42	115.48871994018555	fix_post	2		12.0	40.0	2.5	/experiments/knapen_aot/videos/S_production_ID_5182928.mp4	0.0	180.99917793273926	0.100067138671875
43	115.58878707885742	fix_pre	0		41.0	41.0	2.5	blank	1.0	181.09924507141113	0.34158802032470703
43	115.92232394218445	response	0	2		41.0	2.5	blank	1.0	181.43278193473816	
43	115.93037509918213	movie	1		301.0	41.0	2.5	blank	1.0	181.44083309173584	2.5083539485931396
43	118.43872904777527	fix_post	2		12.0	41.0	2.5	blank	1.0	183.94918704032898	0.10001993179321289
44	118.53874897956848	fix_pre	0		20.0	42.0	2.5	/experiments/knapen_aot/videos/R_S_yt-GOgS--rzmKQ_51.mp4	0.0	184.0492069721222	0.16665911674499512
44	118.6971869468689	response	0	2		42.0	2.5	/experiments/knapen_aot/videos/R_S_yt-GOgS--rzmKQ_51.mp4	0.0	184.2076449394226	
44	118.70540809631348	movie	1		301.0	42.0	2.5	/experiments/knapen_aot/videos/R_S_yt-GOgS--rzmKQ_51.mp4	0.0	184.2158660888672	2.5083630084991455
44	121.21377110481262	fix_post	2		12.0	42.0	2.5	/experiments/knapen_aot/videos/R_S_yt-GOgS--rzmKQ_51.mp4	0.0	186.72422909736633	0.0999598503112793
45	121.3137309551239	fix_pre	0		5.0	43.0	2.5	/experiments/knapen_aot/videos/R_S_goAwcQiFu1Q_99.mp4	0.0	186.8241889476776	0.04173016548156738
45	121.34731912612915	response	0	2		43.0	2.5	/experiments/knapen_aot/videos/R_S_goAwcQiFu1Q_99.mp4	0.0	186.85777711868286	
45	121.35546112060547	movie	1		301.0	43.0	2.5	/experiments/knapen_aot/videos/R_S_goAwcQiFu1Q_99.mp4	0.0	186.86591911315918	2.508342981338501
45	123.86380410194397	fix_post	2		12.0	43.0	2.5	/experiments/knapen_aot/videos/R_S_goAwcQiFu1Q_99.mp4	0.0	189.37426209449768	0.09998393058776855
46	123.96378803253174	fix_pre	0		12.0	44.0	2.5	/experiments/knapen_aot/videos/S_yt-JTVyt-eu4VI_1.mp4	0.0	189.47424602508545	0.0999751091003418
46	124.05553913116455	response	0	2		44.0	2.5	/experiments/knapen_aot/videos/S_yt-JTVyt-eu4VI_1.mp4	0.0	189.56599712371826	
46	124.06376314163208	movie	1		301.0	44.0	2.5	/experiments/knapen_aot/videos/S_yt-JTVyt-eu4VI_1.mp4	0.0	189.5742211341858	2.5083518028259277
46	126.57211494445801	fix_post	2		12.0	44.0	2.5	/experiments/knapen_aot/videos/S_yt-JTVyt-eu4VI_1.mp4	0.0	192.08257293701172	0.09997701644897461
47	126.67209196090698	fix_pre	0		27.0	45.0	2.5	/experiments/knapen_aot/videos/S_ILSVRC2015_train_00485001.mp4	0.0	192.1825499534607	0.22495317459106445
47	126.88888311386108	response	0	2		45.0	2.5	/experiments/knapen_aot/videos/S_ILSVRC2015_train_00485001.mp4	0.0	192.3993411064148	
47	126.89704513549805	movie	1		301.0	45.0	2.5	/experiments/knapen_aot/videos/S_ILSVRC2015_train_00485001.mp4	0.0	192.40750312805176	2.5083999633789062
47	129.40544509887695	fix_post	2		12.0	45.0	2.5	/experiments/knapen_aot/videos/S_ILSVRC2015_train_00485001.mp4	0.0	194.91590309143066	0.09999489784240723
48	129.50543999671936	fix_pre	0		24.0	46.0	2.5	/experiments/knapen_aot/videos/S_yt-gzjV6YoK6X0_3.mp4	0.0	195.01589798927307	0.2012929916381836
48	129.69713401794434	response	0	2		46.0	2.5	/experiments/knapen_aot/videos/S_yt-gzjV6YoK6X0_3.mp4	0.0	195.20759201049805	
48	129.70673298835754	movie	1		301.0	46.0	2.5	/experiments/knapen_aot/videos/S_yt-gzjV6YoK6X0_3.mp4	0.0	195.21719098091125	2.5069971084594727
48	132.21373009681702	fix_post	2		12.0	46.0	2.5	/experiments/knapen_aot/videos/S_yt-gzjV6YoK6X0_3.mp4	0.0	197.72418808937073	0.10003185272216797
49	132.31376194953918	fix_pre	0		11.0	47.0	2.5	/experiments/knapen_aot/videos/S_yt-k-MRlbCOzZU_163.mp4	0.0	197.8242199420929	0.09162712097167969
49	132.3970890045166	response	0	2		47.0	2.5	/experiments/knapen_aot/videos/S_yt-k-MRlbCOzZU_163.mp4	0.0	197.9075469970703	
49	132.40538907051086	movie	1		301.0	47.0	2.5	/experiments/knapen_aot/videos/S_yt-k-MRlbCOzZU_163.mp4	0.0	197.91584706306458	2.5083398818969727
49	134.91372895240784	fix_post	2		12.0	47.0	2.5	/experiments/knapen_aot/videos/S_yt-k-MRlbCOzZU_163.mp4	0.0	200.42418694496155	0.10005402565002441
50	135.01378297805786	fix_pre	0		20.0	48.0	2.5	blank	1.0	200.52424097061157	0.16663694381713867
50	135.17217111587524	response	0	2		48.0	2.5	blank	1.0	200.68262910842896	
50	135.180419921875	movie	1		301.0	48.0	2.5	blank	1.0	200.6908779144287	2.5082809925079346
50	137.68870091438293	fix_post	2		12.0	48.0	2.5	blank	1.0	203.19915890693665	0.0999610424041748
51	137.7886619567871	fix_pre	0		18.0	49.0	2.5	/experiments/knapen_aot/videos/S_yt-iT6jsSikmGM_4.mp4	0.0	203.29911994934082	0.1500380039215088
51	137.93052506446838	response	0	2		49.0	2.5	/experiments/knapen_aot/videos/S_yt-iT6jsSikmGM_4.mp4	0.0	203.4409830570221	
51	137.93869996070862	movie	1		301.0	49.0	2.5	/experiments/knapen_aot/videos/S_yt-iT6jsSikmGM_4.mp4	0.0	203.44915795326233	2.5082859992980957
51	140.4469859600067	fix_post	2		12.0	49.0	2.5	/experiments/knapen_aot/videos/S_yt-iT6jsSikmGM_4.mp4	0.0	205.95744395256042	0.10005402565002441
52	140.54703998565674	fix_pre	0		10.0	50.0	2.5	/experiments/knapen_aot/videos/R_S_pexels-anastasia-shuraeva-601407_2.mp4	0.0	206.05749797821045	0.0832369327545166
52	140.6222050189972	response	0	2		50.0	2.5	/experiments/knapen_aot/videos/R_S_pexels-anastasia-shuraeva-601407_2.mp4	0.0	206.1326630115509	
52	140.63027691841125	movie	1		207.0	50.0	2.5	/experiments/knapen_aot/videos/R_S_pexels-anastasia-shuraeva-601407_2.mp4	0.0	206.14073491096497	2.5084331035614014
52	143.13042402267456	response	1	2		50.0	2.5	/experiments/knapen_aot/videos/R_S_pexels-anastasia-shuraeva-601407_2.mp4	0.0	208.64088201522827	
52	143.13871002197266	fix_post	2		12.0	50.0	2.5	/experiments/knapen_aot/videos/R_S_pexels-anastasia-shuraeva-601407_2.mp4	0.0	208.64916801452637	0.09997105598449707
53	143.23868107795715	fix_pre	0		21.0	51.0	2.5	/experiments/knapen_aot/videos/S_yt-T7RmOAme5dU_213.mp4	0.0	208.74913907051086	0.17626404762268066
53	143.4054660797119	response	0	2		51.0	2.5	/experiments/knapen_aot/videos/S_yt-T7RmOAme5dU_213.mp4	0.0	208.91592407226562	
53	143.41494512557983	movie	1		301.0	51.0	2.5	/experiments/knapen_aot/videos/S_yt-T7RmOAme5dU_213.mp4	0.0	208.92540311813354	2.507105827331543
53	145.92205095291138	fix_post	2		12.0	51.0	2.5	/experiments/knapen_aot/videos/S_yt-T7RmOAme5dU_213.mp4	0.0	211.4325089454651	0.09996414184570312
54	146.02201509475708	fix_pre	0		7.0	52.0	2.5	/experiments/knapen_aot/videos/S_ILSVRC2015_train_00417000.mp4	0.0	211.5324730873108	0.059571027755737305
54	146.07216906547546	response	0	2		52.0	2.5	/experiments/knapen_aot/videos/S_ILSVRC2015_train_00417000.mp4	0.0	211.58262705802917	
54	146.08158612251282	movie	1		301.0	52.0	2.5	/experiments/knapen_aot/videos/S_ILSVRC2015_train_00417000.mp4	0.0	211.59204411506653	2.5070719718933105
54	148.58865809440613	fix_post	2		12.0	52.0	2.5	/experiments/knapen_aot/videos/S_ILSVRC2015_train_00417000.mp4	0.0	214.09911608695984	0.09995484352111816
55	148.68861293792725	fix_pre	0		1.0	53.0	2.5	/experiments/knapen_aot/videos/S_ILSVRC2015_train_00638000.mp4	0.0	214.19907093048096	0.008397102355957031
55	148.6815140247345	response	0	2		53.0	2.5	/experiments/knapen_aot/videos/S_ILSVRC2015_train_00638000.mp4	0.0	214.1919720172882	
55	148.6970100402832	movie	1		301.0	53.0	2.5	/experiments/knapen_aot/videos/S_ILSVRC2015_train_00638000.mp4	0.0	214.2074680328369	2.508280038833618
55	151.20529007911682	fix_post	2		12.0	53.0	2.5	/experiments/knapen_aot/videos/S_ILSVRC2015_train_00638000.mp4	0.0	216.71574807167053	0.0999908447265625
56	151.30528092384338	fix_pre	0		9.0	54.0	2.5	blank	1.0	216.8157389163971	0.07500314712524414
56	151.37213706970215	response	0	2		54.0	2.5	blank	1.0	216.88259506225586	
56	151.38028407096863	movie	1		301.0	54.0	2.5	blank	1.0	216.89074206352234	2.508375883102417
56	153.88865995407104	fix_post	2		12.0	54.0	2.5	blank	1.0	219.39911794662476	0.09999608993530273
57	153.98865604400635	fix_pre	0		22.0	55.0	2.5	/experiments/knapen_aot/videos/R_S_ILSVRC2015_train_00569006.mp4	0.0	219.49911403656006	0.18331003189086914
57	154.1637670993805	response	0	2		55.0	2.5	/experiments/knapen_aot/videos/R_S_ILSVRC2015_train_00569006.mp4	0.0	219.6742250919342	
57	154.17196607589722	movie	1		301.0	55.0	2.5	/experiments/knapen_aot/videos/R_S_ILSVRC2015_train_00569006.mp4	0.0	219.68242406845093	2.508328914642334
57	156.68029499053955	fix_post	2		12.0	55.0	2.5	/experiments/knapen_aot/videos/R_S_ILSVRC2015_train_00569006.mp4	0.0	222.19075298309326	0.09999299049377441
58	156.78028798103333	fix_pre	0		16.0	56.0	2.5	/experiments/knapen_aot/videos/S_comp_DB_D001_C001_PSNK_v06_SDR_PS_20180824_SDR_2K_AVC.mp4	0.0	222.29074597358704	0.13449311256408691
58	156.90546894073486	response	0	2		56.0	2.5	/experiments/knapen_aot/videos/S_comp_DB_D001_C001_PSNK_v06_SDR_PS_20180824_SDR_2K_AVC.mp4	0.0	222.41592693328857	
58	156.9147810935974	movie	1		169.0	56.0	2.5	/experiments/knapen_aot/videos/S_comp_DB_D001_C001_PSNK_v06_SDR_PS_20180824_SDR_2K_AVC.mp4	0.0	222.42523908615112	2.5072848796844482
58	159.42206597328186	fix_post	2		12.0	56.0	2.5	/experiments/knapen_aot/videos/S_comp_DB_D001_C001_PSNK_v06_SDR_PS_20180824_SDR_2K_AVC.mp4	0.0	224.93252396583557	0.09995293617248535
59	159.52201890945435	fix_pre	0		4.0	57.0	2.5	/experiments/knapen_aot/videos/R_S_yt-JmmyeMOFpII_29.mp4	0.0	225.03247690200806	0.03339219093322754
59	159.5471489429474	response	0	2		57.0	2.5	/experiments/knapen_aot/videos/R_S_yt-JmmyeMOFpII_29.mp4	0.0	225.0576069355011	
59	159.55541110038757	movie	1		301.0	57.0	2.5	/experiments/knapen_aot/videos/R_S_yt-JmmyeMOFpII_29.mp4	0.0	225.06586909294128	2.5081899166107178
59	162.0636010169983	fix_post	2		12.0	57.0	2.5	/experiments/knapen_aot/videos/R_S_yt-JmmyeMOFpII_29.mp4	0.0	227.574059009552	0.0999751091003418
60	162.16357612609863	fix_pre	0		17.0	58.0	2.5	/experiments/knapen_aot/videos/R_S_yt-8fQ9LaF8U10_382.mp4	0.0	227.67403411865234	0.1416778564453125
60	162.2970769405365	response	0	2		58.0	2.5	/experiments/knapen_aot/videos/R_S_yt-8fQ9LaF8U10_382.mp4	0.0	227.8075349330902	
60	162.30525398254395	movie	1		301.0	58.0	2.5	/experiments/knapen_aot/videos/R_S_yt-8fQ9LaF8U10_382.mp4	0.0	227.81571197509766	2.508362054824829
60	164.81361603736877	fix_post	2		12.0	58.0	2.5	/experiments/knapen_aot/videos/R_S_yt-8fQ9LaF8U10_382.mp4	0.0	230.32407402992249	0.10003304481506348
61	164.91364908218384	fix_pre	0		10.0	59.0	2.5	/experiments/knapen_aot/videos/S_yt-YEiNSML5iiQ_18.mp4	0.0	230.42410707473755	0.08442401885986328
61	164.98889899253845	response	0	2		59.0	2.5	/experiments/knapen_aot/videos/S_yt-YEiNSML5iiQ_18.mp4	0.0	230.49935698509216	
61	164.9980731010437	movie	1		301.0	59.0	2.5	/experiments/knapen_aot/videos/S_yt-YEiNSML5iiQ_18.mp4	0.0	230.5085310935974	2.50718092918396
61	167.50525403022766	fix_post	2		12.0	59.0	2.5	/experiments/knapen_aot/videos/S_yt-YEiNSML5iiQ_18.mp4	0.0	233.01571202278137	0.10002589225769043
62	167.60527992248535	fix_pre	0		17.0	60.0	2.5	/experiments/knapen_aot/videos/S_yt-ZTAaH5XbtfE_3.mp4	0.0	233.11573791503906	0.14278721809387207
62	167.73881912231445	response	0	2		60.0	2.5	/experiments/knapen_aot/videos/S_yt-ZTAaH5XbtfE_3.mp4	0.0	233.24927711486816	
62	167.74806714057922	movie	1		301.0	60.0	2.5	/experiments/knapen_aot/videos/S_yt-ZTAaH5XbtfE_3.mp4	0.0	233.25852513313293	2.5072009563446045
62	170.25526809692383	fix_post	2		12.0	60.0	2.5	/experiments/knapen_aot/videos/S_yt-ZTAaH5XbtfE_3.mp4	0.0	235.76572608947754	0.09995794296264648
63	170.35522603988647	fix_pre	0		20.0	61.0	2.5	/experiments/knapen_aot/videos/R_S_yt-EBuE7GbFw7U_180.mp4	0.0	235.86568403244019	0.16663289070129395
63	170.51372408866882	response	0	2		61.0	2.5	/experiments/knapen_aot/videos/R_S_yt-EBuE7GbFw7U_180.mp4	0.0	236.02418208122253	
63	170.52185893058777	movie	1		301.0	61.0	2.5	/experiments/knapen_aot/videos/R_S_yt-EBuE7GbFw7U_180.mp4	0.0	236.03231692314148	2.5083260536193848
63	173.03018498420715	fix_post	2		12.0	61.0	2.5	/experiments/knapen_aot/videos/R_S_yt-EBuE7GbFw7U_180.mp4	0.0	238.54064297676086	0.10002613067626953
63	173.03187012672424	response	2	2		61.0	2.5	/experiments/knapen_aot/videos/R_S_yt-EBuE7GbFw7U_180.mp4	0.0	238.54232811927795	
64	173.13021111488342	fix_pre	0		22.0	62.0	2.5	/experiments/knapen_aot/videos/S_yt-EBuE7GbFw7U_180.mp4	0.0	238.64066910743713	0.1833479404449463
64	173.30529594421387	response	0	2		62.0	2.5	/experiments/knapen_aot/videos/S_yt-EBuE7GbFw7U_180.mp4	0.0	238.81575393676758	
64	173.31355905532837	movie	1		301.0	62.0	2.5	/experiments/knapen_aot/videos/S_yt-EBuE7GbFw7U_180.mp4	0.0	238.82401704788208	2.5083138942718506
64	175.82187294960022	fix_post	2		12.0	62.0	2.5	/experiments/knapen_aot/videos/S_yt-EBuE7GbFw7U_180.mp4	0.0	241.33233094215393	0.09998703002929688
65	175.92185997962952	fix_pre	0		8.0	63.0	2.5	blank	1.0	241.43231797218323	0.06683897972106934
65	175.98048901557922	response	0	2		63.0	2.5	blank	1.0	241.49094700813293	
65	175.9886989593506	movie	1		301.0	63.0	2.5	blank	1.0	241.4991569519043	2.5081350803375244
65	178.4968340396881	fix_post	2		12.0	63.0	2.5	blank	1.0	244.00729203224182	0.10001397132873535
66	178.59684801101685	fix_pre	0		21.0	64.0	2.5	/experiments/knapen_aot/videos/S_ILSVRC2015_train_00569003.mp4	0.0	244.10730600357056	0.17496204376220703
66	178.76364493370056	response	0	2		64.0	2.5	/experiments/knapen_aot/videos/S_ILSVRC2015_train_00569003.mp4	0.0	244.27410292625427	
66	178.77181005477905	movie	1		301.0	64.0	2.5	/experiments/knapen_aot/videos/S_ILSVRC2015_train_00569003.mp4	0.0	244.28226804733276	2.5083279609680176
66	181.28013801574707	fix_post	2		12.0	64.0	2.5	/experiments/knapen_aot/videos/S_ILSVRC2015_train_00569003.mp4	0.0	246.79059600830078	0.10001897811889648
67	181.38015699386597	fix_pre	0		1.0	65.0	2.5	/experiments/knapen_aot/videos/S_yt-Kwfwhd07dVo_2.mp4	0.0	246.89061498641968	0.00838613510131836
67	181.38207292556763	response	0	2		65.0	2.5	/experiments/knapen_aot/videos/S_yt-Kwfwhd07dVo_2.mp4	0.0	246.89253091812134	
67	181.38854312896729	movie	1		301.0	65.0	2.5	/experiments/knapen_aot/videos/S_yt-Kwfwhd07dVo_2.mp4	0.0	246.899001121521	2.5083508491516113
67	183.8968939781189	fix_post	2		12.0	65.0	2.5	/experiments/knapen_aot/videos/S_yt-Kwfwhd07dVo_2.mp4	0.0	249.4073519706726	0.09993410110473633
68	183.99682807922363	fix_pre	0		17.0	66.0	2.5	/experiments/knapen_aot/videos/S_video_inspire_oregon_lone-ranch-beach_00001.1080-h264.mp4	0.0	249.50728607177734	0.141618013381958
68	184.13031697273254	response	0	2		66.0	2.5	/experiments/knapen_aot/videos/S_video_inspire_oregon_lone-ranch-beach_00001.1080-h264.mp4	0.0	249.64077496528625	
68	184.1384460926056	movie	1		164.0	66.0	2.5	/experiments/knapen_aot/videos/S_video_inspire_oregon_lone-ranch-beach_00001.1080-h264.mp4	0.0	249.6489040851593	2.5084450244903564
68	186.64689111709595	fix_post	2		12.0	66.0	2.5	/experiments/knapen_aot/videos/S_video_inspire_oregon_lone-ranch-beach_00001.1080-h264.mp4	0.0	252.15734910964966	0.10000491142272949
69	186.74689602851868	fix_pre	0		1.0	67.0	2.5	/experiments/knapen_aot/videos/S_yt-2pRKCSgdXXU_30.mp4	0.0	252.2573540210724	0.008318901062011719
69	186.74860000610352	response	0	2		67.0	2.5	/experiments/knapen_aot/videos/S_yt-2pRKCSgdXXU_30.mp4	0.0	252.25905799865723	
69	186.7552149295807	movie	1		301.0	67.0	2.5	/experiments/knapen_aot/videos/S_yt-2pRKCSgdXXU_30.mp4	0.0	252.2656729221344	2.50832200050354
69	189.26353693008423	fix_post	2		12.0	67.0	2.5	/experiments/knapen_aot/videos/S_yt-2pRKCSgdXXU_30.mp4	0.0	254.77399492263794	0.09995317459106445
70	189.3634901046753	fix_pre	0		19.0	68.0	2.5	/experiments/knapen_aot/videos/R_S_yt-GaJaxp546lc_22.mp4	0.0	254.873948097229	0.15836787223815918
70	189.5136570930481	response	0	2		68.0	2.5	/experiments/knapen_aot/videos/R_S_yt-GaJaxp546lc_22.mp4	0.0	255.0241150856018	
70	189.52185797691345	movie	1		301.0	68.0	2.5	/experiments/knapen_aot/videos/R_S_yt-GaJaxp546lc_22.mp4	0.0	255.03231596946716	2.5082409381866455
70	192.0300989151001	fix_post	2		12.0	68.0	2.5	/experiments/knapen_aot/videos/R_S_yt-GaJaxp546lc_22.mp4	0.0	257.5405569076538	0.10007405281066895
71	192.13017296791077	fix_pre	0		7.0	69.0	2.5	blank	1.0	257.6406309604645	0.05847001075744629
71	192.173819065094	response	0	2		69.0	2.5	blank	1.0	257.6842770576477	
71	192.1886429786682	movie	1		301.0	69.0	2.5	blank	1.0	257.6991009712219	2.508270025253296
71	194.6969130039215	fix_post	2		12.0	69.0	2.5	blank	1.0	260.2073709964752	0.09996604919433594
72	194.79687905311584	fix_pre	0		39.0	70.0	2.5	/experiments/knapen_aot/videos/S_b2-4.mp4	0.0	260.30733704566956	0.3259248733520508
72	195.11362314224243	response	0	2		70.0	2.5	/experiments/knapen_aot/videos/S_b2-4.mp4	0.0	260.62408113479614	
72	195.1228039264679	movie	1		171.0	70.0	2.5	/experiments/knapen_aot/videos/S_b2-4.mp4	0.0	260.6332619190216	2.5073630809783936
72	197.6301670074463	fix_post	2		12.0	70.0	2.5	/experiments/knapen_aot/videos/S_b2-4.mp4	0.0	263.140625	0.10001301765441895
72	197.6802921295166	response	2	2		70.0	2.5	/experiments/knapen_aot/videos/S_b2-4.mp4	0.0	263.1907501220703	
73	197.7301800251007	fix_pre	0		30.0	71.0	2.5	/experiments/knapen_aot/videos/S_production_ID_4325506.mp4	0.0	263.2406380176544	0.24995708465576172
73	197.97192692756653	response	0	2		71.0	2.5	/experiments/knapen_aot/videos/S_production_ID_4325506.mp4	0.0	263.48238492012024	
73	197.98013710975647	movie	1		197.0	71.0	2.5	/experiments/knapen_aot/videos/S_production_ID_4325506.mp4	0.0	263.4905951023102	2.5083420276641846
73	200.48847913742065	fix_post	2		12.0	71.0	2.5	/experiments/knapen_aot/videos/S_production_ID_4325506.mp4	0.0	265.99893712997437	0.09997177124023438
74	200.5884509086609	fix_pre	0		16.0	72.0	2.5	/experiments/knapen_aot/videos/S_yt-O6W6CZPXvlA_15.mp4	0.0	266.0989089012146	0.13332509994506836
74	200.71356010437012	response	0	2		72.0	2.5	/experiments/knapen_aot/videos/S_yt-O6W6CZPXvlA_15.mp4	0.0	266.2240180969238	
74	200.72177600860596	movie	1		300.0	72.0	2.5	/experiments/knapen_aot/videos/S_yt-O6W6CZPXvlA_15.mp4	0.0	266.23223400115967	2.5083210468292236
74	203.23009705543518	fix_post	2		12.0	72.0	2.5	/experiments/knapen_aot/videos/S_yt-O6W6CZPXvlA_15.mp4	0.0	268.7405550479889	0.10000896453857422
75	203.33010601997375	fix_pre	0		31.0	73.0	2.5	/experiments/knapen_aot/videos/S_BO_A012_C031_SDR_20190726_SDR_2K_AVC.mp4	0.0	268.84056401252747	0.2582879066467285
75	203.58016300201416	response	0	2		73.0	2.5	/experiments/knapen_aot/videos/S_BO_A012_C031_SDR_20190726_SDR_2K_AVC.mp4	0.0	269.09062099456787	
75	203.58839392662048	movie	1		168.0	73.0	2.5	/experiments/knapen_aot/videos/S_BO_A012_C031_SDR_20190726_SDR_2K_AVC.mp4	0.0	269.0988519191742	2.5083839893341064
75	206.0967779159546	fix_post	2		12.0	73.0	2.5	/experiments/knapen_aot/videos/S_BO_A012_C031_SDR_20190726_SDR_2K_AVC.mp4	0.0	271.6072359085083	0.0999460220336914
76	206.19672393798828	fix_pre	0		13.0	74.0	2.5	/experiments/knapen_aot/videos/R_S_yt-gikcYT6ZLzA_7.mp4	0.0	271.707181930542	0.10837602615356445
76	206.28947806358337	response	0	2		74.0	2.5	/experiments/knapen_aot/videos/R_S_yt-gikcYT6ZLzA_7.mp4	0.0	271.7999360561371	
76	206.30509996414185	movie	1		301.0	74.0	2.5	/experiments/knapen_aot/videos/R_S_yt-gikcYT6ZLzA_7.mp4	0.0	271.81555795669556	2.5083110332489014
76	208.81341099739075	fix_post	2		12.0	74.0	2.5	/experiments/knapen_aot/videos/R_S_yt-gikcYT6ZLzA_7.mp4	0.0	274.32386898994446	0.09990096092224121
76	208.87193703651428	response	2	2		74.0	2.5	/experiments/knapen_aot/videos/R_S_yt-gikcYT6ZLzA_7.mp4	0.0	274.382395029068	
77	208.913311958313	fix_pre	0		40.0	75.0	2.5	/experiments/knapen_aot/videos/R_S_pexels-cottonbro-6788024.mp4	0.0	274.4237699508667	0.33433008193969727
77	209.23848295211792	response	0	2		75.0	2.5	/experiments/knapen_aot/videos/R_S_pexels-cottonbro-6788024.mp4	0.0	274.74894094467163	
77	209.24764204025269	movie	1		193.0	75.0	2.5	/experiments/knapen_aot/videos/R_S_pexels-cottonbro-6788024.mp4	0.0	274.7581000328064	2.5073769092559814
77	211.75501894950867	fix_post	2		12.0	75.0	2.5	/experiments/knapen_aot/videos/R_S_pexels-cottonbro-6788024.mp4	0.0	277.2654769420624	0.10006117820739746
78	211.85508012771606	fix_pre	0		2.0	76.0	2.5	/experiments/knapen_aot/videos/R_S_yt-FR_Y1Mm8BwQ_53.mp4	0.0	277.3655381202698	0.017566919326782227
78	211.85756707191467	response	0	2		76.0	2.5	/experiments/knapen_aot/videos/R_S_yt-FR_Y1Mm8BwQ_53.mp4	0.0	277.3680250644684	
78	211.87264704704285	movie	1		301.0	76.0	2.5	/experiments/knapen_aot/videos/R_S_yt-FR_Y1Mm8BwQ_53.mp4	0.0	277.38310503959656	2.50740909576416
78	214.380056142807	fix_post	2		12.0	76.0	2.5	/experiments/knapen_aot/videos/R_S_yt-FR_Y1Mm8BwQ_53.mp4	0.0	279.8905141353607	0.10001492500305176
79	214.48007106781006	fix_pre	0		19.0	77.0	2.5	blank	1.0	279.99052906036377	0.15826106071472168
79	214.63015508651733	response	0	2		77.0	2.5	blank	1.0	280.14061307907104	
79	214.63833212852478	movie	1		301.0	77.0	2.5	blank	1.0	280.1487901210785	2.5084359645843506
79	217.14676809310913	fix_post	2		12.0	77.0	2.5	blank	1.0	282.65722608566284	0.09990096092224121
80	217.24666905403137	fix_pre	0		17.0	78.0	2.5	/experiments/knapen_aot/videos/R_S_ILSVRC2015_train_00545000.mp4	0.0	282.7571270465851	0.14170598983764648
80	217.37265801429749	response	0	2		78.0	2.5	/experiments/knapen_aot/videos/R_S_ILSVRC2015_train_00545000.mp4	0.0	282.8831160068512	
80	217.38837504386902	movie	1		301.0	78.0	2.5	/experiments/knapen_aot/videos/R_S_ILSVRC2015_train_00545000.mp4	0.0	282.89883303642273	2.508378028869629
80	219.89675307273865	fix_post	2		12.0	78.0	2.5	/experiments/knapen_aot/videos/R_S_ILSVRC2015_train_00545000.mp4	0.0	285.40721106529236	0.0999748706817627
81	219.9967279434204	fix_pre	0		19.0	79.0	2.5	/experiments/knapen_aot/videos/S_yt-rY_ra5Tb9XU_51.mp4	0.0	285.5071859359741	0.1582939624786377
81	220.14685010910034	response	0	2		79.0	2.5	/experiments/knapen_aot/videos/S_yt-rY_ra5Tb9XU_51.mp4	0.0	285.65730810165405	
81	220.15502190589905	movie	1		301.0	79.0	2.5	/experiments/knapen_aot/videos/S_yt-rY_ra5Tb9XU_51.mp4	0.0	285.66547989845276	2.5083391666412354
81	222.66336107254028	fix_post	2		12.0	79.0	2.5	/experiments/knapen_aot/videos/S_yt-rY_ra5Tb9XU_51.mp4	0.0	288.173819065094	0.09993791580200195
82	222.76329898834229	fix_pre	0		6.0	80.0	2.5	/experiments/knapen_aot/videos/R_S_yt-6aqg1P9YqR8_38.mp4	0.0	288.273756980896	0.05007004737854004
82	222.80517411231995	response	0	2		80.0	2.5	/experiments/knapen_aot/videos/R_S_yt-6aqg1P9YqR8_38.mp4	0.0	288.31563210487366	
82	222.81336903572083	movie	1		301.0	80.0	2.5	/experiments/knapen_aot/videos/R_S_yt-6aqg1P9YqR8_38.mp4	0.0	288.32382702827454	2.5082709789276123
82	225.32164001464844	fix_post	2		12.0	80.0	2.5	/experiments/knapen_aot/videos/R_S_yt-6aqg1P9YqR8_38.mp4	0.0	290.83209800720215	0.09999799728393555
82	225.40516304969788	response	2	2		80.0	2.5	/experiments/knapen_aot/videos/R_S_yt-6aqg1P9YqR8_38.mp4	0.0	290.9156210422516	
83	225.42163801193237	fix_pre	0		36.0	81.0	2.5	/experiments/knapen_aot/videos/R_S_yt-xCh0LI9VKeI_28.mp4	0.0	290.9320960044861	0.30002713203430176
83	225.71337699890137	response	0	2		81.0	2.5	/experiments/knapen_aot/videos/R_S_yt-xCh0LI9VKeI_28.mp4	0.0	291.2238349914551	
83	225.72166514396667	movie	1		301.0	81.0	2.5	/experiments/knapen_aot/videos/R_S_yt-xCh0LI9VKeI_28.mp4	0.0	291.2321231365204	2.5083518028259277
83	228.2300169467926	fix_post	2		12.0	81.0	2.5	/experiments/knapen_aot/videos/R_S_yt-xCh0LI9VKeI_28.mp4	0.0	293.7404749393463	0.09990811347961426
84	228.32992506027222	fix_pre	0		13.0	82.0	2.5	/experiments/knapen_aot/videos/R_S_3WAnGcPubBY_143.mp4	0.0	293.8403830528259	0.10840892791748047
84	228.430114030838	response	0	2		82.0	2.5	/experiments/knapen_aot/videos/R_S_3WAnGcPubBY_143.mp4	0.0	293.9405720233917	
84	228.4383339881897	movie	1		301.0	82.0	2.5	/experiments/knapen_aot/videos/R_S_3WAnGcPubBY_143.mp4	0.0	293.9487919807434	2.508329153060913
84	230.9466631412506	fix_post	2		12.0	82.0	2.5	/experiments/knapen_aot/videos/R_S_3WAnGcPubBY_143.mp4	0.0	296.4571211338043	0.09997797012329102
85	231.0466411113739	fix_pre	0		15.0	83.0	2.5	blank	1.0	296.5570991039276	0.12491703033447266
85	231.16342902183533	response	0	2		83.0	2.5	blank	1.0	296.67388701438904	
85	231.17155814170837	movie	1		301.0	83.0	2.5	blank	1.0	296.6820161342621	2.508382797241211
85	233.67994093894958	fix_post	2		12.0	83.0	2.5	blank	1.0	299.1903989315033	0.10003399848937988
87	233.77997493743896	stim	0		301.0					299.2904329299927	2.5090951919555664
87	234.00509595870972	response	0	2						299.5155539512634	
87	236.28401398658752	response	0	space						301.79447197914124	
