trial_nr	onset	event_type	phase	response	nr_frames	movie_index	movie_duration	movie_file	blank	onset_abs	duration
0	0.15204787254333496	stim	0		59.0					84.2949206829071	0.4929080009460449
0	0.6346719264984131	response	0	space						84.77754473686218	
1	0.6449558734893799	stim	0		121.0					84.78782868385315	1.0064351558685303
1	1.4345879554748535	response	0	space						85.57746076583862	
1	1.6513910293579102	stim	1		120.0					85.79426383972168	0.99941086769104
1	2.442582845687866	response	1	space						86.58545565605164	
2	2.65080189704895	fix_pre	0		24.0	0.0	2.5	/experiments/knapen_aot/videos/S_ILSVRC2015_train_00507000.mp4	0.0	86.79367470741272	0.1999530792236328
2	2.8426268100738525	response	0	space		0.0	2.5	/experiments/knapen_aot/videos/S_ILSVRC2015_train_00507000.mp4	0.0	86.98549962043762	
2	2.850754976272583	movie	1		300.0	0.0	2.5	/experiments/knapen_aot/videos/S_ILSVRC2015_train_00507000.mp4	0.0	86.99362778663635	2.5082709789276123
2	5.359025955200195	fix_post	2		12.0	0.0	2.5	/experiments/knapen_aot/videos/S_ILSVRC2015_train_00507000.mp4	0.0	89.50189876556396	0.1000218391418457
3	5.459047794342041	fix_pre	0		29.0	1.0	2.5	/experiments/knapen_aot/videos/R_S_yt-1UFhynm5g6Y_266.mp4	0.0	89.60192060470581	0.2417130470275879
3	5.696096897125244	response	0	2		1.0	2.5	/experiments/knapen_aot/videos/R_S_yt-1UFhynm5g6Y_266.mp4	0.0	89.83896970748901	
3	5.700760841369629	movie	1		298.0	1.0	2.5	/experiments/knapen_aot/videos/R_S_yt-1UFhynm5g6Y_266.mp4	0.0	89.8436336517334	2.508284091949463
3	8.209044933319092	fix_post	2		12.0	1.0	2.5	/experiments/knapen_aot/videos/R_S_yt-1UFhynm5g6Y_266.mp4	0.0	92.35191774368286	0.09998893737792969
4	8.309033870697021	fix_pre	0		16.0	2.0	2.5	/experiments/knapen_aot/videos/S_yt-26obL-Z5obg_131.mp4	0.0	92.45190668106079	0.1342029571533203
4	8.434167861938477	response	0	2		2.0	2.5	/experiments/knapen_aot/videos/S_yt-26obL-Z5obg_131.mp4	0.0	92.57704067230225	
4	8.443236827850342	movie	1		301.0	2.0	2.5	/experiments/knapen_aot/videos/S_yt-26obL-Z5obg_131.mp4	0.0	92.58610963821411	2.5074691772460938
4	10.950706005096436	fix_post	2		12.0	2.0	2.5	/experiments/knapen_aot/videos/S_yt-26obL-Z5obg_131.mp4	0.0	95.0935788154602	0.10003280639648438
5	11.05073881149292	fix_pre	0		30.0	3.0	2.5	/experiments/knapen_aot/videos/R_S_yt-4wjGeLyvfjY_223.mp4	0.0	95.19361162185669	0.24995017051696777
5	11.28498888015747	response	0	2		3.0	2.5	/experiments/knapen_aot/videos/R_S_yt-4wjGeLyvfjY_223.mp4	0.0	95.42786169052124	
5	11.300688982009888	movie	1		301.0	3.0	2.5	/experiments/knapen_aot/videos/R_S_yt-4wjGeLyvfjY_223.mp4	0.0	95.44356179237366	2.5083649158477783
5	13.809053897857666	fix_post	2		12.0	3.0	2.5	/experiments/knapen_aot/videos/R_S_yt-4wjGeLyvfjY_223.mp4	0.0	97.95192670822144	0.09994196891784668
6	13.908995866775513	fix_pre	0		28.0	4.0	2.5	/experiments/knapen_aot/videos/S_yt-zKnjBBYWe90_369.mp4	0.0	98.05186867713928	0.2333540916442871
6	14.126730918884277	response	0	2		4.0	2.5	/experiments/knapen_aot/videos/S_yt-zKnjBBYWe90_369.mp4	0.0	98.26960372924805	
6	14.1423499584198	movie	1		301.0	4.0	2.5	/experiments/knapen_aot/videos/S_yt-zKnjBBYWe90_369.mp4	0.0	98.28522276878357	2.5083799362182617
6	16.65072989463806	fix_post	2		12.0	4.0	2.5	/experiments/knapen_aot/videos/S_yt-zKnjBBYWe90_369.mp4	0.0	100.79360270500183	0.09994292259216309
7	16.750672817230225	fix_pre	0		210.0	5.0	2.5	/experiments/knapen_aot/videos/S_comp_A050_C004_1027V8_v16_SDR_FINAL_20180706_SDR_2K_AVC.mp4	0.0	100.893545627594	1.7499639987945557
7	18.492477893829346	response	0	2		5.0	2.5	/experiments/knapen_aot/videos/S_comp_A050_C004_1027V8_v16_SDR_FINAL_20180706_SDR_2K_AVC.mp4	0.0	102.63535070419312	
7	18.50063681602478	movie	1		168.0	5.0	2.5	/experiments/knapen_aot/videos/S_comp_A050_C004_1027V8_v16_SDR_FINAL_20180706_SDR_2K_AVC.mp4	0.0	102.64350962638855	2.5083911418914795
7	21.00902795791626	fix_post	2		12.0	5.0	2.5	/experiments/knapen_aot/videos/S_comp_A050_C004_1027V8_v16_SDR_FINAL_20180706_SDR_2K_AVC.mp4	0.0	105.15190076828003	0.0999908447265625
8	21.109018802642822	fix_pre	0		10.0	6.0	2.5	blank	1.0	105.25189161300659	0.08421111106872559
8	21.177356004714966	response	0	2		6.0	2.5	blank	1.0	105.32022881507874	
8	21.193229913711548	movie	1		301.0	6.0	2.5	blank	1.0	105.33610272407532	2.5074551105499268
8	23.700685024261475	fix_post	2		12.0	6.0	2.5	blank	1.0	107.84355783462524	0.09997177124023438
9	23.80065679550171	fix_pre	0		32.0	7.0	2.5	/experiments/knapen_aot/videos/S_ILSVRC2015_train_00219004.mp4	0.0	107.94352960586548	0.26746106147766113
9	24.059058904647827	response	0	2		7.0	2.5	/experiments/knapen_aot/videos/S_ILSVRC2015_train_00219004.mp4	0.0	108.2019317150116	
9	24.06811785697937	movie	1		301.0	7.0	2.5	/experiments/knapen_aot/videos/S_ILSVRC2015_train_00219004.mp4	0.0	108.21099066734314	2.507560968399048
9	26.575678825378418	fix_post	2		12.0	7.0	2.5	/experiments/knapen_aot/videos/S_ILSVRC2015_train_00219004.mp4	0.0	110.71855163574219	0.09999299049377441
10	26.675671815872192	fix_pre	0		120.0	8.0	2.5	/experiments/knapen_aot/videos/R_S_yt-0d5TkclKWVA_146.mp4	0.0	110.81854462623596	0.9999880790710449
10	27.667420864105225	response	0	2		8.0	2.5	/experiments/knapen_aot/videos/R_S_yt-0d5TkclKWVA_146.mp4	0.0	111.810293674469	
10	27.675659894943237	movie	1		301.0	8.0	2.5	/experiments/knapen_aot/videos/R_S_yt-0d5TkclKWVA_146.mp4	0.0	111.818532705307	2.5082950592041016
10	30.18395495414734	fix_post	2		12.0	8.0	2.5	/experiments/knapen_aot/videos/R_S_yt-0d5TkclKWVA_146.mp4	0.0	114.32682776451111	0.0999748706817627
11	30.2839298248291	fix_pre	0		28.0	9.0	2.5	/experiments/knapen_aot/videos/S_yt-hekMMCluhnU_18.mp4	0.0	114.42680263519287	0.2333371639251709
11	30.50910782814026	response	0	2		9.0	2.5	/experiments/knapen_aot/videos/S_yt-hekMMCluhnU_18.mp4	0.0	114.65198063850403	
11	30.517266988754272	movie	1		301.0	9.0	2.5	/experiments/knapen_aot/videos/S_yt-hekMMCluhnU_18.mp4	0.0	114.66013979911804	2.5083389282226562
11	33.02560591697693	fix_post	2		12.0	9.0	2.5	/experiments/knapen_aot/videos/S_yt-hekMMCluhnU_18.mp4	0.0	117.1684787273407	0.09995388984680176
12	33.12555980682373	fix_pre	0		43.0	10.0	2.5	/experiments/knapen_aot/videos/S_yt-qYuLW5vSotM_160.mp4	0.0	117.2684326171875	0.35909414291381836
12	33.47571802139282	response	0	4		10.0	2.5	/experiments/knapen_aot/videos/S_yt-qYuLW5vSotM_160.mp4	0.0	117.61859083175659	
12	33.48465394973755	movie	1		299.0	10.0	2.5	/experiments/knapen_aot/videos/S_yt-qYuLW5vSotM_160.mp4	0.0	117.62752676010132	2.507628917694092
12	35.99228286743164	fix_post	2		12.0	10.0	2.5	/experiments/knapen_aot/videos/S_yt-qYuLW5vSotM_160.mp4	0.0	120.13515567779541	0.09996414184570312
13	36.092247009277344	fix_pre	0		75.0	11.0	2.5	/experiments/knapen_aot/videos/S_yt-11VGDAOVEag_8.mp4	0.0	120.23511981964111	0.6249649524688721
13	36.709091901779175	response	0	4		11.0	2.5	/experiments/knapen_aot/videos/S_yt-11VGDAOVEag_8.mp4	0.0	120.85196471214294	
13	36.717211961746216	movie	1		301.0	11.0	2.5	/experiments/knapen_aot/videos/S_yt-11VGDAOVEag_8.mp4	0.0	120.86008477210999	2.508316993713379
13	39.225528955459595	fix_post	2		12.0	11.0	2.5	/experiments/knapen_aot/videos/S_yt-11VGDAOVEag_8.mp4	0.0	123.36840176582336	0.10007095336914062
14	39.325599908828735	fix_pre	0		27.0	12.0	2.5	blank	1.0	123.4684727191925	0.2249588966369629
14	39.54236888885498	response	0	4		12.0	2.5	blank	1.0	123.68524169921875	
14	39.5505588054657	movie	1		301.0	12.0	2.5	blank	1.0	123.69343161582947	2.50832200050354
14	42.05888080596924	fix_post	2		12.0	12.0	2.5	blank	1.0	126.20175361633301	0.10002303123474121
15	42.15890383720398	fix_pre	0		77.0	13.0	2.5	/experiments/knapen_aot/videos/R_S_yt-BrepyEWKrPQ_20.mp4	0.0	126.30177664756775	0.6416561603546143
15	42.79238200187683	response	0	4		13.0	2.5	/experiments/knapen_aot/videos/R_S_yt-BrepyEWKrPQ_20.mp4	0.0	126.9352548122406	
15	42.800559997558594	movie	1		301.0	13.0	2.5	/experiments/knapen_aot/videos/R_S_yt-BrepyEWKrPQ_20.mp4	0.0	126.94343280792236	2.5083630084991455
15	45.30892300605774	fix_post	2		12.0	13.0	2.5	/experiments/knapen_aot/videos/R_S_yt-BrepyEWKrPQ_20.mp4	0.0	129.4517958164215	0.10006093978881836
16	45.40898394584656	fix_pre	0		37.0	14.0	2.5	/experiments/knapen_aot/videos/R_S_yt-rIQoRErqnlI_17.mp4	0.0	129.55185675621033	0.30823802947998047
16	45.7089409828186	response	0	4		14.0	2.5	/experiments/knapen_aot/videos/R_S_yt-rIQoRErqnlI_17.mp4	0.0	129.85181379318237	
16	45.71722197532654	movie	1		299.0	14.0	2.5	/experiments/knapen_aot/videos/R_S_yt-rIQoRErqnlI_17.mp4	0.0	129.8600947856903	2.508272886276245
16	48.22549486160278	fix_post	2		12.0	14.0	2.5	/experiments/knapen_aot/videos/R_S_yt-rIQoRErqnlI_17.mp4	0.0	132.36836767196655	0.09998703002929688
17	48.32548189163208	fix_pre	0		160.0	15.0	2.5	/experiments/knapen_aot/videos/R_S_yt-0MB_IYX1fgo_44.mp4	0.0	132.46835470199585	1.3333840370178223
17	49.65064096450806	response	0	4		15.0	2.5	/experiments/knapen_aot/videos/R_S_yt-0MB_IYX1fgo_44.mp4	0.0	133.79351377487183	
17	49.6588659286499	movie	1		301.0	15.0	2.5	/experiments/knapen_aot/videos/R_S_yt-0MB_IYX1fgo_44.mp4	0.0	133.80173873901367	2.508362054824829
17	52.16722798347473	fix_post	2		12.0	15.0	2.5	/experiments/knapen_aot/videos/R_S_yt-0MB_IYX1fgo_44.mp4	0.0	136.3101007938385	0.09999799728393555
18	52.26722598075867	fix_pre	0		100.0	16.0	2.5	/experiments/knapen_aot/videos/R_S_yt-3JApfnMu5cU_378.mp4	0.0	136.41009879112244	0.8332529067993164
18	53.0847909450531	response	0	4		16.0	2.5	/experiments/knapen_aot/videos/R_S_yt-3JApfnMu5cU_378.mp4	0.0	137.22766375541687	
18	53.10047888755798	movie	1		300.0	16.0	2.5	/experiments/knapen_aot/videos/R_S_yt-3JApfnMu5cU_378.mp4	0.0	137.24335169792175	2.5083870887756348
18	55.60886597633362	fix_post	2		12.0	16.0	2.5	/experiments/knapen_aot/videos/R_S_yt-3JApfnMu5cU_378.mp4	0.0	139.7517387866974	0.09994697570800781
19	55.708812952041626	fix_pre	0		32.0	17.0	2.5	/experiments/knapen_aot/videos/R_S_yt-ikhlUegH24c_552.mp4	0.0	139.8516857624054	0.2667560577392578
19	55.96740984916687	response	0	4		17.0	2.5	/experiments/knapen_aot/videos/R_S_yt-ikhlUegH24c_552.mp4	0.0	140.11028265953064	
19	55.975569009780884	movie	1		301.0	17.0	2.5	/experiments/knapen_aot/videos/R_S_yt-ikhlUegH24c_552.mp4	0.0	140.11844182014465	2.5082437992095947
19	58.48381280899048	fix_post	2		12.0	17.0	2.5	/experiments/knapen_aot/videos/R_S_yt-ikhlUegH24c_552.mp4	0.0	142.62668561935425	0.1000521183013916
20	58.58386492729187	fix_pre	0		73.0	18.0	2.5	/experiments/knapen_aot/videos/S_pexels-roman-odintsov-8232443_1.mp4	0.0	142.72673773765564	0.6088340282440186
20	59.184000968933105	response	0	4		18.0	2.5	/experiments/knapen_aot/videos/S_pexels-roman-odintsov-8232443_1.mp4	0.0	143.32687377929688	
20	59.19269895553589	movie	1		203.0	18.0	2.5	/experiments/knapen_aot/videos/S_pexels-roman-odintsov-8232443_1.mp4	0.0	143.33557176589966	2.507827043533325
20	61.700525999069214	fix_post	2		12.0	18.0	2.5	/experiments/knapen_aot/videos/S_pexels-roman-odintsov-8232443_1.mp4	0.0	145.84339880943298	0.09995698928833008
21	61.800482988357544	fix_pre	0		27.0	19.0	2.5	/experiments/knapen_aot/videos/R_S_yt-ycQy_fHCK-U_8.mp4	0.0	145.9433557987213	0.2255690097808838
21	62.017247915267944	response	0	4		19.0	2.5	/experiments/knapen_aot/videos/R_S_yt-ycQy_fHCK-U_8.mp4	0.0	146.1601207256317	
21	62.02605199813843	movie	1		301.0	19.0	2.5	/experiments/knapen_aot/videos/R_S_yt-ycQy_fHCK-U_8.mp4	0.0	146.1689248085022	2.5077409744262695
21	64.5337929725647	fix_post	2		12.0	19.0	2.5	/experiments/knapen_aot/videos/R_S_yt-ycQy_fHCK-U_8.mp4	0.0	148.67666578292847	0.09993696212768555
22	64.63372993469238	fix_pre	0		177.0	20.0	2.5	blank	1.0	148.77660274505615	1.4756519794464111
22	66.10053300857544	response	0	4		20.0	2.5	blank	1.0	150.2434058189392	
22	66.1093819141388	movie	1		301.0	20.0	2.5	blank	1.0	150.25225472450256	2.507720947265625
22	68.61710286140442	fix_post	2		12.0	20.0	2.5	blank	1.0	152.7599756717682	0.10008001327514648
23	68.71718287467957	fix_pre	0		39.0	21.0	2.5	/experiments/knapen_aot/videos/R_S_yt-2l6VKd94eAI_151.mp4	0.0	152.86005568504333	0.3250410556793213
23	69.03393983840942	response	0	4		21.0	2.5	/experiments/knapen_aot/videos/R_S_yt-2l6VKd94eAI_151.mp4	0.0	153.1768126487732	
23	69.04222393035889	movie	1		300.0	21.0	2.5	/experiments/knapen_aot/videos/R_S_yt-2l6VKd94eAI_151.mp4	0.0	153.18509674072266	2.508272886276245
23	71.55049681663513	fix_post	2		12.0	21.0	2.5	/experiments/knapen_aot/videos/R_S_yt-2l6VKd94eAI_151.mp4	0.0	155.6933696269989	0.10051107406616211
24	71.6510078907013	fix_pre	0		429.0	22.0	2.5	/experiments/knapen_aot/videos/R_S_yt-gOoDjhfSPj0_162.mp4	0.0	155.79388070106506	3.5744071006774902
24	75.21712899208069	response	0	4		22.0	2.5	/experiments/knapen_aot/videos/R_S_yt-gOoDjhfSPj0_162.mp4	0.0	159.36000180244446	
24	75.22541499137878	movie	1		301.0	22.0	2.5	/experiments/knapen_aot/videos/R_S_yt-gOoDjhfSPj0_162.mp4	0.0	159.36828780174255	2.5083658695220947
24	77.73378086090088	fix_post	2		12.0	22.0	2.5	/experiments/knapen_aot/videos/R_S_yt-gOoDjhfSPj0_162.mp4	0.0	161.87665367126465	0.09999704360961914
25	77.8337779045105	fix_pre	0		144.0	23.0	2.5	/experiments/knapen_aot/videos/R_S_yt-jy96-k8drRE_1.mp4	0.0	161.97665071487427	1.199981927871704
25	79.02555799484253	response	0	4		23.0	2.5	/experiments/knapen_aot/videos/R_S_yt-jy96-k8drRE_1.mp4	0.0	163.1684308052063	
25	79.0337598323822	movie	1		301.0	23.0	2.5	/experiments/knapen_aot/videos/R_S_yt-jy96-k8drRE_1.mp4	0.0	163.17663264274597	2.5083580017089844
25	81.54211783409119	fix_post	2		12.0	23.0	2.5	/experiments/knapen_aot/videos/R_S_yt-jy96-k8drRE_1.mp4	0.0	165.68499064445496	0.09999608993530273
26	81.64211392402649	fix_pre	0		52.0	24.0	2.5	/experiments/knapen_aot/videos/R_S_yt-0MB_IYX1fgo_44.mp4	0.0	165.78498673439026	0.43325209617614746
26	82.06720495223999	response	0	4		24.0	2.5	/experiments/knapen_aot/videos/R_S_yt-0MB_IYX1fgo_44.mp4	0.0	166.21007776260376	
26	82.07536602020264	movie	1		301.0	24.0	2.5	/experiments/knapen_aot/videos/R_S_yt-0MB_IYX1fgo_44.mp4	0.0	166.2182388305664	2.508396863937378
26	84.58376288414001	fix_post	2		12.0	24.0	2.5	/experiments/knapen_aot/videos/R_S_yt-0MB_IYX1fgo_44.mp4	0.0	168.72663569450378	0.09999394416809082
27	84.6837568283081	fix_pre	0		173.0	25.0	2.5	/experiments/knapen_aot/videos/R_S_yt-YTQXM5ZjRgg_116.mp4	0.0	168.82662963867188	1.4415969848632812
27	86.11718392372131	response	0	4		25.0	2.5	/experiments/knapen_aot/videos/R_S_yt-YTQXM5ZjRgg_116.mp4	0.0	170.26005673408508	
27	86.12535381317139	movie	1		299.0	25.0	2.5	/experiments/knapen_aot/videos/R_S_yt-YTQXM5ZjRgg_116.mp4	0.0	170.26822662353516	2.508273124694824
27	88.63362693786621	fix_post	2		12.0	25.0	2.5	/experiments/knapen_aot/videos/R_S_yt-YTQXM5ZjRgg_116.mp4	0.0	172.77649974822998	0.10011005401611328
28	88.73373699188232	fix_pre	0		138.0	26.0	2.5	/experiments/knapen_aot/videos/S_yt-BG-G7m5wLZ4_94.mp4	0.0	172.8766098022461	1.1499629020690918
28	89.87555384635925	response	0	4		26.0	2.5	/experiments/knapen_aot/videos/S_yt-BG-G7m5wLZ4_94.mp4	0.0	174.01842665672302	
28	89.88369989395142	movie	1		301.0	26.0	2.5	/experiments/knapen_aot/videos/S_yt-BG-G7m5wLZ4_94.mp4	0.0	174.02657270431519	2.5083200931549072
28	92.39201998710632	fix_post	2		12.0	26.0	2.5	/experiments/knapen_aot/videos/S_yt-BG-G7m5wLZ4_94.mp4	0.0	176.5348927974701	0.1001129150390625
29	92.49213290214539	fix_pre	0		192.0	27.0	2.5	/experiments/knapen_aot/videos/S_yt-zlbtESb7Fcw_28.mp4	0.0	176.63500571250916	1.5997989177703857
29	94.08380198478699	response	0	4		27.0	2.5	/experiments/knapen_aot/videos/S_yt-zlbtESb7Fcw_28.mp4	0.0	178.22667479515076	
29	94.09193181991577	movie	1		297.0	27.0	2.5	/experiments/knapen_aot/videos/S_yt-zlbtESb7Fcw_28.mp4	0.0	178.23480463027954	2.5084609985351562
29	96.60039281845093	fix_post	2		12.0	27.0	2.5	/experiments/knapen_aot/videos/S_yt-zlbtESb7Fcw_28.mp4	0.0	180.7432656288147	0.09995603561401367
30	96.70034885406494	fix_pre	0		39.0	28.0	2.5	blank	1.0	180.8432216644287	0.32541894912719727
30	97.01708483695984	response	0	4		28.0	2.5	blank	1.0	181.1599576473236	
30	97.02576780319214	movie	1		301.0	28.0	2.5	blank	1.0	181.1686406135559	2.5078492164611816
30	99.53361701965332	fix_post	2		12.0	28.0	2.5	blank	1.0	183.6764898300171	0.10002779960632324
31	99.63364481925964	fix_pre	0		157.0	29.0	2.5	/experiments/knapen_aot/videos/R_S_yt-wEbfIR14zZ8_7.mp4	0.0	183.7765176296234	1.3086481094360352
31	100.9337990283966	response	0	4		29.0	2.5	/experiments/knapen_aot/videos/R_S_yt-wEbfIR14zZ8_7.mp4	0.0	185.07667183876038	
31	100.94229292869568	movie	1		301.0	29.0	2.5	/experiments/knapen_aot/videos/R_S_yt-wEbfIR14zZ8_7.mp4	0.0	185.08516573905945	2.5079410076141357
31	103.45023393630981	fix_post	2		12.0	29.0	2.5	/experiments/knapen_aot/videos/R_S_yt-wEbfIR14zZ8_7.mp4	0.0	187.59310674667358	0.10009002685546875
32	103.55032396316528	fix_pre	0		87.0	30.0	2.5	/experiments/knapen_aot/videos/S_yt-Ryb0K9lGPrg_5.mp4	0.0	187.69319677352905	0.7252769470214844
32	104.26713299751282	response	0	4		30.0	2.5	/experiments/knapen_aot/videos/S_yt-Ryb0K9lGPrg_5.mp4	0.0	188.4100058078766	
32	104.27560091018677	movie	1		301.0	30.0	2.5	/experiments/knapen_aot/videos/S_yt-Ryb0K9lGPrg_5.mp4	0.0	188.41847372055054	2.5080020427703857
32	106.78360295295715	fix_post	2		12.0	30.0	2.5	/experiments/knapen_aot/videos/S_yt-Ryb0K9lGPrg_5.mp4	0.0	190.92647576332092	0.10004496574401855
33	106.88364791870117	fix_pre	0		23.0	31.0	2.5	/experiments/knapen_aot/videos/R_S_yt-iO0efV_PV-k_102.mp4	0.0	191.02652072906494	0.1916179656982422
33	107.06707501411438	response	0	4		31.0	2.5	/experiments/knapen_aot/videos/R_S_yt-iO0efV_PV-k_102.mp4	0.0	191.20994782447815	
33	107.07526588439941	movie	1		301.0	31.0	2.5	/experiments/knapen_aot/videos/R_S_yt-iO0efV_PV-k_102.mp4	0.0	191.21813869476318	2.5084240436553955
33	109.58368992805481	fix_post	2		12.0	31.0	2.5	/experiments/knapen_aot/videos/R_S_yt-iO0efV_PV-k_102.mp4	0.0	193.72656273841858	0.09990787506103516
34	109.68359780311584	fix_pre	0		133.0	32.0	2.5	/experiments/knapen_aot/videos/R_S_yt-s73Xqkcq9Js_285.mp4	0.0	193.82647061347961	1.1083030700683594
34	110.78374600410461	response	0	4		32.0	2.5	/experiments/knapen_aot/videos/R_S_yt-s73Xqkcq9Js_285.mp4	0.0	194.92661881446838	
34	110.7919008731842	movie	1		301.0	32.0	2.5	/experiments/knapen_aot/videos/R_S_yt-s73Xqkcq9Js_285.mp4	0.0	194.93477368354797	2.5083060264587402
34	113.30020689964294	fix_post	2		12.0	32.0	2.5	/experiments/knapen_aot/videos/R_S_yt-s73Xqkcq9Js_285.mp4	0.0	197.4430797100067	0.10008001327514648
35	113.40028691291809	fix_pre	0		31.0	33.0	2.5	/experiments/knapen_aot/videos/R_S_OdxWh1oU8e8_1.mp4	0.0	197.54315972328186	0.27496790885925293
35	113.66700601577759	response	0	4		33.0	2.5	/experiments/knapen_aot/videos/R_S_OdxWh1oU8e8_1.mp4	0.0	197.80987882614136	
35	113.67525482177734	movie	1		301.0	33.0	2.5	/experiments/knapen_aot/videos/R_S_OdxWh1oU8e8_1.mp4	0.0	197.8181276321411	2.508284091949463
35	116.1835389137268	fix_post	2		12.0	33.0	2.5	/experiments/knapen_aot/videos/R_S_OdxWh1oU8e8_1.mp4	0.0	200.32641172409058	0.10011601448059082
36	116.2836549282074	fix_pre	0		117.0	34.0	2.5	blank	1.0	200.42652773857117	0.9749219417572021
36	117.25040888786316	response	0	4		34.0	2.5	blank	1.0	201.39328169822693	
36	117.2585768699646	movie	1		301.0	34.0	2.5	blank	1.0	201.40144968032837	2.508327007293701
36	119.7669038772583	fix_post	2		12.0	34.0	2.5	blank	1.0	203.90977668762207	0.10000205039978027
37	119.86690592765808	fix_pre	0		31.0	35.0	2.5	/experiments/knapen_aot/videos/R_S_yt-738MRS0yI6g_177.mp4	0.0	204.00977873802185	0.2583439350128174
37	120.11696481704712	response	0	4		35.0	2.5	/experiments/knapen_aot/videos/R_S_yt-738MRS0yI6g_177.mp4	0.0	204.2598376274109	
37	120.1252498626709	movie	1		299.0	35.0	2.5	/experiments/knapen_aot/videos/R_S_yt-738MRS0yI6g_177.mp4	0.0	204.26812267303467	2.508296012878418
37	122.63354587554932	fix_post	2		12.0	35.0	2.5	/experiments/knapen_aot/videos/R_S_yt-738MRS0yI6g_177.mp4	0.0	206.7764186859131	0.10027098655700684
38	122.73381686210632	fix_pre	0		94.0	36.0	2.5	/experiments/knapen_aot/videos/R_S_ILSVRC2015_train_00364000.mp4	0.0	206.8766896724701	0.7830460071563721
38	123.50870394706726	response	0	4		36.0	2.5	/experiments/knapen_aot/videos/R_S_ILSVRC2015_train_00364000.mp4	0.0	207.65157675743103	
38	123.5168628692627	movie	1		301.0	36.0	2.5	/experiments/knapen_aot/videos/R_S_ILSVRC2015_train_00364000.mp4	0.0	207.65973567962646	2.508405923843384
38	126.02526879310608	fix_post	2		12.0	36.0	2.5	/experiments/knapen_aot/videos/R_S_ILSVRC2015_train_00364000.mp4	0.0	210.16814160346985	0.10007500648498535
39	126.12534379959106	fix_pre	0		128.0	37.0	2.5	/experiments/knapen_aot/videos/S_yt-1UFhynm5g6Y_266.mp4	0.0	210.26821660995483	1.0667471885681152
39	127.18368697166443	response	0	4		37.0	2.5	/experiments/knapen_aot/videos/S_yt-1UFhynm5g6Y_266.mp4	0.0	211.3265597820282	
39	127.19209098815918	movie	1		301.0	37.0	2.5	/experiments/knapen_aot/videos/S_yt-1UFhynm5g6Y_266.mp4	0.0	211.33496379852295	2.508147954940796
39	129.70023894309998	fix_post	2		12.0	37.0	2.5	/experiments/knapen_aot/videos/S_yt-1UFhynm5g6Y_266.mp4	0.0	213.84311175346375	0.10004901885986328
40	129.80028796195984	fix_pre	0		69.0	38.0	2.5	/experiments/knapen_aot/videos/R_S_yt-s-J3C6e5A3Q_18.mp4	0.0	213.9431607723236	0.5749039649963379
40	130.36705994606018	response	0	4		38.0	2.5	/experiments/knapen_aot/videos/R_S_yt-s-J3C6e5A3Q_18.mp4	0.0	214.50993275642395	
40	130.37519192695618	movie	1		301.0	38.0	2.5	/experiments/knapen_aot/videos/R_S_yt-s-J3C6e5A3Q_18.mp4	0.0	214.51806473731995	2.5083460807800293
40	132.8835380077362	fix_post	2		12.0	38.0	2.5	/experiments/knapen_aot/videos/R_S_yt-s-J3C6e5A3Q_18.mp4	0.0	217.02641081809998	0.10023379325866699
41	132.98377180099487	fix_pre	0		124.0	39.0	2.5	/experiments/knapen_aot/videos/S_yt-RVoC19C420Y_27.mp4	0.0	217.12664461135864	1.0330522060394287
41	134.00866198539734	response	0	4		39.0	2.5	/experiments/knapen_aot/videos/S_yt-RVoC19C420Y_27.mp4	0.0	218.1515347957611	
41	134.0168240070343	movie	1		301.0	39.0	2.5	/experiments/knapen_aot/videos/S_yt-RVoC19C420Y_27.mp4	0.0	218.15969681739807	2.50836181640625
41	136.52518582344055	fix_post	2		12.0	39.0	2.5	/experiments/knapen_aot/videos/S_yt-RVoC19C420Y_27.mp4	0.0	220.66805863380432	0.09998607635498047
42	136.62517189979553	fix_pre	0		124.0	40.0	2.5	blank	1.0	220.7680447101593	1.0332820415496826
42	137.6503448486328	response	0	4		40.0	2.5	blank	1.0	221.79321765899658	
42	137.65845394134521	movie	1		301.0	40.0	2.5	blank	1.0	221.80132675170898	2.5083630084991455
42	140.16681694984436	fix_post	2		12.0	40.0	2.5	blank	1.0	224.30968976020813	0.09999585151672363
43	140.26681280136108	fix_pre	0		91.0	41.0	2.5	/experiments/knapen_aot/videos/S_yt-tOOaOzYvtKE_79.mp4	0.0	224.40968561172485	0.7585861682891846
43	141.01694679260254	response	0	4		41.0	2.5	/experiments/knapen_aot/videos/S_yt-tOOaOzYvtKE_79.mp4	0.0	225.1598196029663	
43	141.02539896965027	movie	1		300.0	41.0	2.5	/experiments/knapen_aot/videos/S_yt-tOOaOzYvtKE_79.mp4	0.0	225.16827178001404	2.508030891418457
43	143.53342986106873	fix_post	2		12.0	41.0	2.5	/experiments/knapen_aot/videos/S_yt-tOOaOzYvtKE_79.mp4	0.0	227.6763026714325	0.09994912147521973
44	143.63337898254395	fix_pre	0		22.0	42.0	2.5	/experiments/knapen_aot/videos/R_S_pexels-roman-odintsov-8233166.mp4	0.0	227.77625179290771	0.18350982666015625
44	143.80858492851257	response	0	4		42.0	2.5	/experiments/knapen_aot/videos/R_S_pexels-roman-odintsov-8233166.mp4	0.0	227.95145773887634	
44	143.8168888092041	movie	1		212.0	42.0	2.5	/experiments/knapen_aot/videos/R_S_pexels-roman-odintsov-8233166.mp4	0.0	227.95976161956787	2.5082881450653076
44	146.3251769542694	fix_post	2		12.0	42.0	2.5	/experiments/knapen_aot/videos/R_S_pexels-roman-odintsov-8233166.mp4	0.0	230.46804976463318	0.09999585151672363
45	146.42517280578613	fix_pre	0		64.0	43.0	2.5	/experiments/knapen_aot/videos/S_yt-D_f3_HIXG2g_87.mp4	0.0	230.5680456161499	0.5333130359649658
45	146.95033502578735	response	0	4		43.0	2.5	/experiments/knapen_aot/videos/S_yt-D_f3_HIXG2g_87.mp4	0.0	231.09320783615112	
45	146.9584858417511	movie	1		301.0	43.0	2.5	/experiments/knapen_aot/videos/S_yt-D_f3_HIXG2g_87.mp4	0.0	231.10135865211487	2.508345127105713
45	149.4668309688568	fix_post	2		12.0	43.0	2.5	/experiments/knapen_aot/videos/S_yt-D_f3_HIXG2g_87.mp4	0.0	233.60970377922058	0.10014605522155762
46	149.56697702407837	fix_pre	0		116.0	44.0	2.5	/experiments/knapen_aot/videos/R_S_yt-UzWRbs9Syf4_7.mp4	0.0	233.70984983444214	0.966500997543335
46	150.52522802352905	response	0	4		44.0	2.5	/experiments/knapen_aot/videos/R_S_yt-UzWRbs9Syf4_7.mp4	0.0	234.66810083389282	
46	150.5334780216217	movie	1		301.0	44.0	2.5	/experiments/knapen_aot/videos/R_S_yt-UzWRbs9Syf4_7.mp4	0.0	234.67635083198547	2.5083389282226562
46	153.04181694984436	fix_post	2		12.0	44.0	2.5	/experiments/knapen_aot/videos/R_S_yt-UzWRbs9Syf4_7.mp4	0.0	237.18468976020813	0.1000058650970459
47	153.1418228149414	fix_pre	0		127.0	45.0	2.5	/experiments/knapen_aot/videos/R_S_yt-McqS-QObQbk_122.mp4	0.0	237.28469562530518	1.0584461688995361
47	154.19190502166748	response	0	4		45.0	2.5	/experiments/knapen_aot/videos/R_S_yt-McqS-QObQbk_122.mp4	0.0	238.33477783203125	
47	154.20026898384094	movie	1		301.0	45.0	2.5	/experiments/knapen_aot/videos/R_S_yt-McqS-QObQbk_122.mp4	0.0	238.3431417942047	2.5081589221954346
47	156.70842790603638	fix_post	2		12.0	45.0	2.5	/experiments/knapen_aot/videos/R_S_yt-McqS-QObQbk_122.mp4	0.0	240.85130071640015	0.09992408752441406
48	156.8083519935608	fix_pre	0		11.0	46.0	2.5	/experiments/knapen_aot/videos/S_yt-8fQ9LaF8U10_382.mp4	0.0	240.95122480392456	0.09173703193664551
48	156.89182496070862	response	0	4		46.0	2.5	/experiments/knapen_aot/videos/S_yt-8fQ9LaF8U10_382.mp4	0.0	241.0346977710724	
48	156.90008902549744	movie	1		301.0	46.0	2.5	/experiments/knapen_aot/videos/S_yt-8fQ9LaF8U10_382.mp4	0.0	241.0429618358612	2.508258819580078
48	159.40834784507751	fix_post	2		12.0	46.0	2.5	/experiments/knapen_aot/videos/S_yt-8fQ9LaF8U10_382.mp4	0.0	243.55122065544128	0.10007214546203613
49	159.50841999053955	fix_pre	0		112.0	47.0	2.5	blank	1.0	243.65129280090332	0.9333629608154297
49	160.43349194526672	response	0	4		47.0	2.5	blank	1.0	244.5763647556305	
49	160.44178295135498	movie	1		301.0	47.0	2.5	blank	1.0	244.58465576171875	2.508270025253296
49	162.95005297660828	fix_post	2		12.0	47.0	2.5	blank	1.0	247.09292578697205	0.10001087188720703
50	163.05006384849548	fix_pre	0		279.0	48.0	2.5	/experiments/knapen_aot/videos/R_S_b8-2.mp4	0.0	247.19293665885925	2.324989080429077
50	165.3668417930603	response	0	4		48.0	2.5	/experiments/knapen_aot/videos/R_S_b8-2.mp4	0.0	249.50971460342407	
50	165.37505292892456	movie	1		166.0	48.0	2.5	/experiments/knapen_aot/videos/R_S_b8-2.mp4	0.0	249.51792573928833	2.5083210468292236
50	167.88337397575378	fix_post	2		12.0	48.0	2.5	/experiments/knapen_aot/videos/R_S_b8-2.mp4	0.0	252.02624678611755	0.0999748706817627
51	167.98334884643555	fix_pre	0		120.0	49.0	2.5	/experiments/knapen_aot/videos/R_S_yt-hekMMCluhnU_18.mp4	0.0	252.12622165679932	1.0000391006469727
51	168.9675807952881	response	0	4		49.0	2.5	/experiments/knapen_aot/videos/R_S_yt-hekMMCluhnU_18.mp4	0.0	253.11045360565186	
51	168.98338794708252	movie	1		301.0	49.0	2.5	/experiments/knapen_aot/videos/R_S_yt-hekMMCluhnU_18.mp4	0.0	253.1262607574463	2.5082478523254395
51	171.49163579940796	fix_post	2		12.0	49.0	2.5	/experiments/knapen_aot/videos/R_S_yt-hekMMCluhnU_18.mp4	0.0	255.63450860977173	0.10003304481506348
52	171.59166884422302	fix_pre	0		117.0	50.0	2.5	/experiments/knapen_aot/videos/S_yt-iO0efV_PV-k_102.mp4	0.0	255.7345416545868	0.9749870300292969
52	172.5585069656372	response	0	4		50.0	2.5	/experiments/knapen_aot/videos/S_yt-iO0efV_PV-k_102.mp4	0.0	256.701379776001	
52	172.56665587425232	movie	1		301.0	50.0	2.5	/experiments/knapen_aot/videos/S_yt-iO0efV_PV-k_102.mp4	0.0	256.7095286846161	2.508345127105713
52	175.07500100135803	fix_post	2		12.0	50.0	2.5	/experiments/knapen_aot/videos/S_yt-iO0efV_PV-k_102.mp4	0.0	259.2178738117218	0.09999680519104004
53	175.17499780654907	fix_pre	0		29.0	51.0	2.5	/experiments/knapen_aot/videos/R_S_yt-Ol4xuEA8xQc_776.mp4	0.0	259.31787061691284	0.24163413047790527
53	175.408451795578	response	0	4		51.0	2.5	/experiments/knapen_aot/videos/R_S_yt-Ol4xuEA8xQc_776.mp4	0.0	259.5513246059418	
53	175.41663193702698	movie	1		299.0	51.0	2.5	/experiments/knapen_aot/videos/R_S_yt-Ol4xuEA8xQc_776.mp4	0.0	259.55950474739075	2.5083720684051514
53	177.92500400543213	fix_post	2		12.0	51.0	2.5	/experiments/knapen_aot/videos/R_S_yt-Ol4xuEA8xQc_776.mp4	0.0	262.0678768157959	0.09992599487304688
54	178.02493000030518	fix_pre	0		24.0	52.0	2.5	/experiments/knapen_aot/videos/S_ILSVRC2015_train_00725000.mp4	0.0	262.16780281066895	0.19997692108154297
54	178.20930099487305	response	0	4		52.0	2.5	/experiments/knapen_aot/videos/S_ILSVRC2015_train_00725000.mp4	0.0	262.3521738052368	
54	178.22490692138672	movie	1		301.0	52.0	2.5	/experiments/knapen_aot/videos/S_ILSVRC2015_train_00725000.mp4	0.0	262.3677797317505	2.5084969997406006
54	180.73340392112732	fix_post	2		12.0	52.0	2.5	/experiments/knapen_aot/videos/S_ILSVRC2015_train_00725000.mp4	0.0	264.8762767314911	0.09992599487304688
55	180.83332991600037	fix_pre	0		29.0	53.0	2.5	/experiments/knapen_aot/videos/R_S_yt-2ZsK7zSCJ2w_67.mp4	0.0	264.97620272636414	0.24163603782653809
55	181.0667369365692	response	0	4		53.0	2.5	/experiments/knapen_aot/videos/R_S_yt-2ZsK7zSCJ2w_67.mp4	0.0	265.209609746933	
55	181.0749659538269	movie	1		301.0	53.0	2.5	/experiments/knapen_aot/videos/R_S_yt-2ZsK7zSCJ2w_67.mp4	0.0	265.2178387641907	2.5083558559417725
55	183.58332180976868	fix_post	2		12.0	53.0	2.5	/experiments/knapen_aot/videos/R_S_yt-2ZsK7zSCJ2w_67.mp4	0.0	267.72619462013245	0.1000821590423584
56	183.68340396881104	fix_pre	0		26.0	54.0	2.5	/experiments/knapen_aot/videos/R_S_yt-zKnjBBYWe90_369.mp4	0.0	267.8262767791748	0.21656084060668945
56	183.8917109966278	response	0	4		54.0	2.5	/experiments/knapen_aot/videos/R_S_yt-zKnjBBYWe90_369.mp4	0.0	268.0345838069916	
56	183.89996480941772	movie	1		301.0	54.0	2.5	/experiments/knapen_aot/videos/R_S_yt-zKnjBBYWe90_369.mp4	0.0	268.0428376197815	2.5083470344543457
56	186.40831184387207	fix_post	2		12.0	54.0	2.5	/experiments/knapen_aot/videos/R_S_yt-zKnjBBYWe90_369.mp4	0.0	270.55118465423584	0.10000014305114746
57	186.50831198692322	fix_pre	0		26.0	55.0	2.5	blank	1.0	270.651184797287	0.2166919708251953
57	186.70936489105225	response	0	4		55.0	2.5	blank	1.0	270.852237701416	
57	186.7250039577484	movie	1		301.0	55.0	2.5	blank	1.0	270.8678767681122	2.508331060409546
57	189.23333501815796	fix_post	2		12.0	55.0	2.5	blank	1.0	273.37620782852173	0.09993696212768555
58	189.33327198028564	fix_pre	0		25.0	56.0	2.5	/experiments/knapen_aot/videos/S_OdxWh1oU8e8_1.mp4	0.0	273.4761447906494	0.208298921585083
58	189.53334283828735	response	0	4		56.0	2.5	/experiments/knapen_aot/videos/S_OdxWh1oU8e8_1.mp4	0.0	273.6762156486511	
58	189.54157090187073	movie	1		301.0	56.0	2.5	/experiments/knapen_aot/videos/S_OdxWh1oU8e8_1.mp4	0.0	273.6844437122345	2.508358955383301
58	192.04992985725403	fix_post	2		12.0	56.0	2.5	/experiments/knapen_aot/videos/S_OdxWh1oU8e8_1.mp4	0.0	276.1928026676178	0.09997415542602539
59	192.14990401268005	fix_pre	0		31.0	57.0	2.5	/experiments/knapen_aot/videos/S_PA_A010_C007_SDR_20190717_SDR_2K_AVC.mp4	0.0	276.2927768230438	0.2582728862762451
59	192.40006685256958	response	0	4		57.0	2.5	/experiments/knapen_aot/videos/S_PA_A010_C007_SDR_20190717_SDR_2K_AVC.mp4	0.0	276.54293966293335	
59	192.4081768989563	movie	1		165.0	57.0	2.5	/experiments/knapen_aot/videos/S_PA_A010_C007_SDR_20190717_SDR_2K_AVC.mp4	0.0	276.55104970932007	2.508373975753784
59	194.91655087471008	fix_post	2		12.0	57.0	2.5	/experiments/knapen_aot/videos/S_PA_A010_C007_SDR_20190717_SDR_2K_AVC.mp4	0.0	279.05942368507385	0.1000370979309082
60	195.016587972641	fix_pre	0		20.0	58.0	2.5	/experiments/knapen_aot/videos/S_yt-MyL1VlXiZa4_25.mp4	0.0	279.15946078300476	0.16663789749145508
60	195.16756296157837	response	0	4		58.0	2.5	/experiments/knapen_aot/videos/S_yt-MyL1VlXiZa4_25.mp4	0.0	279.31043577194214	
60	195.18322587013245	movie	1		301.0	58.0	2.5	/experiments/knapen_aot/videos/S_yt-MyL1VlXiZa4_25.mp4	0.0	279.3260986804962	2.5083160400390625
60	197.6915419101715	fix_post	2		12.0	58.0	2.5	/experiments/knapen_aot/videos/S_yt-MyL1VlXiZa4_25.mp4	0.0	281.8344147205353	0.0999898910522461
61	197.79153180122375	fix_pre	0		59.0	59.0	2.5	/experiments/knapen_aot/videos/R_S_yt-kINZMjys3O4_112.mp4	0.0	281.9344046115875	0.49176812171936035
61	198.27505087852478	response	0	4		59.0	2.5	/experiments/knapen_aot/videos/R_S_yt-kINZMjys3O4_112.mp4	0.0	282.41792368888855	
61	198.28329992294312	movie	1		301.0	59.0	2.5	/experiments/knapen_aot/videos/R_S_yt-kINZMjys3O4_112.mp4	0.0	282.4261727333069	2.5082669258117676
61	200.79156684875488	fix_post	2		12.0	59.0	2.5	/experiments/knapen_aot/videos/R_S_yt-kINZMjys3O4_112.mp4	0.0	284.93443965911865	0.09992694854736328
62	200.89149379730225	fix_pre	0		274.0	60.0	2.5	/experiments/knapen_aot/videos/S_yt-2CWrK9nbhTk_211.mp4	0.0	285.034366607666	2.2833311557769775
62	203.1666898727417	response	0	4		60.0	2.5	/experiments/knapen_aot/videos/S_yt-2CWrK9nbhTk_211.mp4	0.0	287.30956268310547	
62	203.17482495307922	movie	1		301.0	60.0	2.5	/experiments/knapen_aot/videos/S_yt-2CWrK9nbhTk_211.mp4	0.0	287.317697763443	2.508370876312256
62	205.68319582939148	fix_post	2		12.0	60.0	2.5	/experiments/knapen_aot/videos/S_yt-2CWrK9nbhTk_211.mp4	0.0	289.82606863975525	0.10000896453857422
63	205.78320479393005	fix_pre	0		37.0	61.0	2.5	blank	1.0	289.9260776042938	0.3083651065826416
63	206.083340883255	response	0	4		61.0	2.5	blank	1.0	290.2262136936188	
63	206.0915699005127	movie	1		301.0	61.0	2.5	blank	1.0	290.23444271087646	2.508275032043457
63	208.59984493255615	fix_post	2		12.0	61.0	2.5	blank	1.0	292.7427177429199	0.10001206398010254
64	208.69985699653625	fix_pre	0		162.0	62.0	2.5	/experiments/knapen_aot/videos/S_yt-ikhlUegH24c_552.mp4	0.0	292.8427298069	1.349905014038086
64	210.03413200378418	response	0	4		62.0	2.5	/experiments/knapen_aot/videos/S_yt-ikhlUegH24c_552.mp4	0.0	294.17700481414795	
64	210.04976201057434	movie	1		301.0	62.0	2.5	/experiments/knapen_aot/videos/S_yt-ikhlUegH24c_552.mp4	0.0	294.1926348209381	2.50837779045105
64	212.5581398010254	fix_post	2		12.0	62.0	2.5	/experiments/knapen_aot/videos/S_yt-ikhlUegH24c_552.mp4	0.0	296.70101261138916	0.10001707077026367
65	212.65815687179565	fix_pre	0		40.0	63.0	2.5	/experiments/knapen_aot/videos/R_S_pexels-cottonbro-6789231.mp4	0.0	296.8010296821594	0.3335709571838379
65	212.9832968711853	response	0	4		63.0	2.5	/experiments/knapen_aot/videos/R_S_pexels-cottonbro-6789231.mp4	0.0	297.1261696815491	
65	212.9917278289795	movie	1		201.0	63.0	2.5	/experiments/knapen_aot/videos/R_S_pexels-cottonbro-6789231.mp4	0.0	297.13460063934326	2.5080840587615967
65	215.4998118877411	fix_post	2		12.0	63.0	2.5	/experiments/knapen_aot/videos/R_S_pexels-cottonbro-6789231.mp4	0.0	299.64268469810486	0.10004091262817383
66	215.59985280036926	fix_pre	0		9.0	64.0	2.5	/experiments/knapen_aot/videos/S_nvbAwZOKBS8_23.mp4	0.0	299.74272561073303	0.07491707801818848
66	215.66673493385315	response	0	4		64.0	2.5	/experiments/knapen_aot/videos/S_nvbAwZOKBS8_23.mp4	0.0	299.8096077442169	
66	215.67476987838745	movie	1		301.0	64.0	2.5	/experiments/knapen_aot/videos/S_nvbAwZOKBS8_23.mp4	0.0	299.8176426887512	2.508333921432495
66	218.18310379981995	fix_post	2		12.0	64.0	2.5	/experiments/knapen_aot/videos/S_nvbAwZOKBS8_23.mp4	0.0	302.3259766101837	0.10004019737243652
67	218.28314399719238	fix_pre	0		154.0	65.0	2.5	/experiments/knapen_aot/videos/R_S_pexels-roman-odintsov-8232443_1.mp4	0.0	302.42601680755615	1.2833218574523926
67	219.55825281143188	response	0	4		65.0	2.5	/experiments/knapen_aot/videos/R_S_pexels-roman-odintsov-8232443_1.mp4	0.0	303.70112562179565	
67	219.56646585464478	movie	1		188.0	65.0	2.5	/experiments/knapen_aot/videos/R_S_pexels-roman-odintsov-8232443_1.mp4	0.0	303.70933866500854	2.508334159851074
67	222.07480001449585	fix_post	2		12.0	65.0	2.5	/experiments/knapen_aot/videos/R_S_pexels-roman-odintsov-8232443_1.mp4	0.0	306.2176728248596	0.10007882118225098
68	222.1748788356781	fix_pre	0		68.0	66.0	2.5	/experiments/knapen_aot/videos/R_S_SPNvf6JCjGw_123.mp4	0.0	306.31775164604187	0.5665600299835205
68	222.73329281806946	response	0	4		66.0	2.5	/experiments/knapen_aot/videos/R_S_SPNvf6JCjGw_123.mp4	0.0	306.8761656284332	
68	222.74143886566162	movie	1		301.0	66.0	2.5	/experiments/knapen_aot/videos/R_S_SPNvf6JCjGw_123.mp4	0.0	306.8843116760254	2.5083279609680176
68	225.24976682662964	fix_post	2		12.0	66.0	2.5	/experiments/knapen_aot/videos/R_S_SPNvf6JCjGw_123.mp4	0.0	309.3926396369934	0.100006103515625
69	225.34977293014526	fix_pre	0		16.0	67.0	2.5	/experiments/knapen_aot/videos/R_S_ILSVRC2015_train_00251005.mp4	0.0	309.49264574050903	0.13335609436035156
69	225.4748330116272	response	0	4		67.0	2.5	/experiments/knapen_aot/videos/R_S_ILSVRC2015_train_00251005.mp4	0.0	309.61770582199097	
69	225.48312902450562	movie	1		301.0	67.0	2.5	/experiments/knapen_aot/videos/R_S_ILSVRC2015_train_00251005.mp4	0.0	309.6260018348694	2.508356809616089
69	227.9914858341217	fix_post	2		12.0	67.0	2.5	/experiments/knapen_aot/videos/R_S_ILSVRC2015_train_00251005.mp4	0.0	312.1343586444855	0.09999299049377441
70	228.09147882461548	fix_pre	0		44.0	68.0	2.5	/experiments/knapen_aot/videos/S_ILSVRC2015_train_00601000.mp4	0.0	312.23435163497925	0.3666510581970215
70	228.44995188713074	response	0	4		68.0	2.5	/experiments/knapen_aot/videos/S_ILSVRC2015_train_00601000.mp4	0.0	312.5928246974945	
70	228.4581298828125	movie	1		301.0	68.0	2.5	/experiments/knapen_aot/videos/S_ILSVRC2015_train_00601000.mp4	0.0	312.60100269317627	2.5083560943603516
70	230.96648597717285	fix_post	2		12.0	68.0	2.5	/experiments/knapen_aot/videos/S_ILSVRC2015_train_00601000.mp4	0.0	315.1093587875366	0.09996986389160156
71	231.06645584106445	fix_pre	0		218.0	69.0	2.5	/experiments/knapen_aot/videos/R_S_pexels-anthony-shkraba-7569650.mp4	0.0	315.2093286514282	1.8166711330413818
71	232.87492680549622	response	0	4		69.0	2.5	/experiments/knapen_aot/videos/R_S_pexels-anthony-shkraba-7569650.mp4	0.0	317.01779961586	
71	232.88312697410583	movie	1		184.0	69.0	2.5	/experiments/knapen_aot/videos/R_S_pexels-anthony-shkraba-7569650.mp4	0.0	317.0259997844696	2.508190870285034
71	235.39131784439087	fix_post	2		12.0	69.0	2.5	/experiments/knapen_aot/videos/R_S_pexels-anthony-shkraba-7569650.mp4	0.0	319.53419065475464	0.10009098052978516
72	235.49140882492065	fix_pre	0		19.0	70.0	2.5	blank	1.0	319.6342816352844	0.15830516815185547
72	235.6415228843689	response	0	4		70.0	2.5	blank	1.0	319.78439569473267	
72	235.6497139930725	movie	1		301.0	70.0	2.5	blank	1.0	319.7925868034363	2.508363962173462
72	238.15807795524597	fix_post	2		12.0	70.0	2.5	blank	1.0	322.30095076560974	0.10000491142272949
73	238.2580828666687	fix_pre	0		30.0	71.0	2.5	/experiments/knapen_aot/videos/S_yt-uX7qYKQm_pg_277.mp4	0.0	322.40095567703247	0.2499561309814453
73	238.49234795570374	response	0	4		71.0	2.5	/experiments/knapen_aot/videos/S_yt-uX7qYKQm_pg_277.mp4	0.0	322.6352207660675	
73	238.50803899765015	movie	1		301.0	71.0	2.5	/experiments/knapen_aot/videos/S_yt-uX7qYKQm_pg_277.mp4	0.0	322.6509118080139	2.5083529949188232
73	241.01639199256897	fix_post	2		12.0	71.0	2.5	/experiments/knapen_aot/videos/S_yt-uX7qYKQm_pg_277.mp4	0.0	325.15926480293274	0.10003781318664551
74	241.11642980575562	fix_pre	0		38.0	72.0	2.5	/experiments/knapen_aot/videos/S_ILSVRC2015_train_00364000.mp4	0.0	325.2593026161194	0.31767916679382324
74	241.42490887641907	response	0	4		72.0	2.5	/experiments/knapen_aot/videos/S_ILSVRC2015_train_00364000.mp4	0.0	325.56778168678284	
74	241.43410897254944	movie	1		300.0	72.0	2.5	/experiments/knapen_aot/videos/S_ILSVRC2015_train_00364000.mp4	0.0	325.5769817829132	2.507321834564209
74	243.94143080711365	fix_post	2		12.0	72.0	2.5	/experiments/knapen_aot/videos/S_ILSVRC2015_train_00364000.mp4	0.0	328.0843036174774	0.10001802444458008
75	244.04144883155823	fix_pre	0		93.0	73.0	2.5	/experiments/knapen_aot/videos/R_S_ILSVRC2015_train_00001009.mp4	0.0	328.184321641922	0.7749550342559814
75	244.80817890167236	response	0	4		73.0	2.5	/experiments/knapen_aot/videos/R_S_ILSVRC2015_train_00001009.mp4	0.0	328.95105171203613	
75	244.8164038658142	movie	1		301.0	73.0	2.5	/experiments/knapen_aot/videos/R_S_ILSVRC2015_train_00001009.mp4	0.0	328.959276676178	2.508336067199707
75	247.32473993301392	fix_post	2		12.0	73.0	2.5	/experiments/knapen_aot/videos/R_S_ILSVRC2015_train_00001009.mp4	0.0	331.4676127433777	0.09990501403808594
76	247.424644947052	fix_pre	0		27.0	74.0	2.5	/experiments/knapen_aot/videos/R_S_yt-kINZMjys3O4_112.mp4	0.0	331.56751775741577	0.22499585151672363
76	247.6340069770813	response	0	4		74.0	2.5	/experiments/knapen_aot/videos/R_S_yt-kINZMjys3O4_112.mp4	0.0	331.77687978744507	
76	247.64964079856873	movie	1		298.0	74.0	2.5	/experiments/knapen_aot/videos/R_S_yt-kINZMjys3O4_112.mp4	0.0	331.7925136089325	2.5083811283111572
76	250.15802192687988	fix_post	2		12.0	74.0	2.5	/experiments/knapen_aot/videos/R_S_yt-kINZMjys3O4_112.mp4	0.0	334.30089473724365	0.10005593299865723
77	250.25807785987854	fix_pre	0		118.0	75.0	2.5	/experiments/knapen_aot/videos/S_ILSVRC2015_train_00457000.mp4	0.0	334.4009506702423	0.9832990169525146
77	251.22561383247375	response	0	4		75.0	2.5	/experiments/knapen_aot/videos/S_ILSVRC2015_train_00457000.mp4	0.0	335.3684866428375	
77	251.24137687683105	movie	1		301.0	75.0	2.5	/experiments/knapen_aot/videos/S_ILSVRC2015_train_00457000.mp4	0.0	335.3842496871948	2.5082919597625732
77	253.74966883659363	fix_post	2		12.0	75.0	2.5	/experiments/knapen_aot/videos/S_ILSVRC2015_train_00457000.mp4	0.0	337.8925416469574	0.10003805160522461
78	253.84970688819885	fix_pre	0		26.0	76.0	2.5	blank	1.0	337.9925796985626	0.2166740894317627
78	254.0506238937378	response	0	4		76.0	2.5	blank	1.0	338.19349670410156	
78	254.06638097763062	movie	1		301.0	76.0	2.5	blank	1.0	338.2092537879944	2.508327007293701
78	256.5747079849243	fix_post	2		12.0	76.0	2.5	blank	1.0	340.7175807952881	0.09998083114624023
79	256.67468881607056	fix_pre	0		70.0	77.0	2.5	/experiments/knapen_aot/videos/R_S_yt-iAQ98zgVlds_97.mp4	0.0	340.8175616264343	0.5833101272583008
79	257.24227380752563	response	0	4		77.0	2.5	/experiments/knapen_aot/videos/R_S_yt-iAQ98zgVlds_97.mp4	0.0	341.3851466178894	
79	257.25799894332886	movie	1		301.0	77.0	2.5	/experiments/knapen_aot/videos/R_S_yt-iAQ98zgVlds_97.mp4	0.0	341.4008717536926	2.508336067199707
79	259.76633501052856	fix_post	2		12.0	77.0	2.5	/experiments/knapen_aot/videos/R_S_yt-iAQ98zgVlds_97.mp4	0.0	343.90920782089233	0.10000300407409668
80	259.86633801460266	fix_pre	0		133.0	78.0	2.5	/experiments/knapen_aot/videos/S_yt--jzScB82vKI_212.mp4	0.0	344.00921082496643	1.1092557907104492
80	260.96643900871277	response	0	4		78.0	2.5	/experiments/knapen_aot/videos/S_yt--jzScB82vKI_212.mp4	0.0	345.10931181907654	
80	260.9755938053131	movie	1		301.0	78.0	2.5	/experiments/knapen_aot/videos/S_yt--jzScB82vKI_212.mp4	0.0	345.1184666156769	2.5074241161346436
80	263.48301792144775	fix_post	2		12.0	78.0	2.5	/experiments/knapen_aot/videos/S_yt--jzScB82vKI_212.mp4	0.0	347.6258907318115	0.09993505477905273
81	263.5829529762268	fix_pre	0		301.0	79.0	2.5	/experiments/knapen_aot/videos/S_ILSVRC2015_train_00743000.mp4	0.0	347.7258257865906	2.5084149837493896
81	266.08313393592834	response	0	4		79.0	2.5	/experiments/knapen_aot/videos/S_ILSVRC2015_train_00743000.mp4	0.0	350.2260067462921	
81	266.0913679599762	movie	1		301.0	79.0	2.5	/experiments/knapen_aot/videos/S_ILSVRC2015_train_00743000.mp4	0.0	350.23424077033997	2.508229970932007
81	268.5995979309082	fix_post	2		12.0	79.0	2.5	/experiments/knapen_aot/videos/S_ILSVRC2015_train_00743000.mp4	0.0	352.742470741272	0.09997892379760742
82	268.6995768547058	fix_pre	0		114.0	80.0	2.5	/experiments/knapen_aot/videos/R_S_yt-a5TGHnldsKg_102.mp4	0.0	352.8424496650696	0.9500210285186768
82	269.64144587516785	response	0	4		80.0	2.5	/experiments/knapen_aot/videos/R_S_yt-a5TGHnldsKg_102.mp4	0.0	353.7843186855316	
82	269.6495978832245	movie	1		301.0	80.0	2.5	/experiments/knapen_aot/videos/R_S_yt-a5TGHnldsKg_102.mp4	0.0	353.79247069358826	2.5082640647888184
82	272.1578619480133	fix_post	2		12.0	80.0	2.5	/experiments/knapen_aot/videos/R_S_yt-a5TGHnldsKg_102.mp4	0.0	356.3007347583771	0.10008096694946289
83	272.25794291496277	fix_pre	0		24.0	81.0	2.5	/experiments/knapen_aot/videos/R_S_yt-eF5J5Kjt6oY_23.mp4	0.0	356.40081572532654	0.19995689392089844
83	272.4421398639679	response	0	4		81.0	2.5	/experiments/knapen_aot/videos/R_S_yt-eF5J5Kjt6oY_23.mp4	0.0	356.58501267433167	
83	272.45789980888367	movie	1		301.0	81.0	2.5	/experiments/knapen_aot/videos/R_S_yt-eF5J5Kjt6oY_23.mp4	0.0	356.60077261924744	2.5083680152893066
83	274.966267824173	fix_post	2		12.0	81.0	2.5	/experiments/knapen_aot/videos/R_S_yt-eF5J5Kjt6oY_23.mp4	0.0	359.10914063453674	0.09986710548400879
84	275.066134929657	fix_pre	0		132.0	82.0	2.5	/experiments/knapen_aot/videos/R_S_yt-CZ2qiY-kS7Y_105.mp4	0.0	359.20900774002075	1.1000850200653076
84	276.15811491012573	response	0	4		82.0	2.5	/experiments/knapen_aot/videos/R_S_yt-CZ2qiY-kS7Y_105.mp4	0.0	360.3009877204895	
84	276.1662199497223	movie	1		301.0	82.0	2.5	/experiments/knapen_aot/videos/R_S_yt-CZ2qiY-kS7Y_105.mp4	0.0	360.30909276008606	2.5083630084991455
84	278.67458295822144	fix_post	2		12.0	82.0	2.5	/experiments/knapen_aot/videos/R_S_yt-CZ2qiY-kS7Y_105.mp4	0.0	362.8174557685852	0.09995388984680176
85	278.77453684806824	fix_pre	0		43.0	83.0	2.5	blank	1.0	362.917409658432	0.35825395584106445
85	279.1247088909149	response	0	4		83.0	2.5	blank	1.0	363.2675817012787	
85	279.1327908039093	movie	1		301.0	83.0	2.5	blank	1.0	363.27566361427307	2.5085182189941406
85	281.59964179992676	response	1	4		83.0	2.5	blank	1.0	365.7425146102905	
85	281.64130902290344	fix_post	2		12.0	83.0	2.5	blank	1.0	365.7841818332672	0.09984993934631348
87	281.74115896224976	stim	0		295.0					365.8840317726135	2.458359956741333
87	284.19276881217957	response	0	space						368.33564162254333	
