trial_nr	onset	event_type	phase	response	nr_frames	movie_index	movie_duration	movie_file	blank	onset_abs	duration
0	0.15456509590148926	stim	0		21.0					60.413362979888916	0.17495298385620117
0	0.32143688201904297	response	0	space						60.58023476600647	
1	0.32951807975769043	stim	0		121.0					60.58831596374512	1.008363962173462
1	1.3378820419311523	stim	1		120.0					61.59667992591858	0.999701976776123
1	1.9210429191589355	response	1	space						62.17984080314636	
2	2.3375840187072754	fix_pre	0		36.0	0.0	2.5	/experiments/knapen_aot/videos/S_PA_A004_C003_SDR_20190719_SDR_2K_AVC.mp4	0.0	62.5963819026947	0.30093908309936523
2	2.629383087158203	response	0	space		0.0	2.5	/experiments/knapen_aot/videos/S_PA_A004_C003_SDR_20190719_SDR_2K_AVC.mp4	0.0	62.88818097114563	
2	2.6385231018066406	movie	1		166.0	0.0	2.5	/experiments/knapen_aot/videos/S_PA_A004_C003_SDR_20190719_SDR_2K_AVC.mp4	0.0	62.89732098579407	2.50734281539917
2	5.1458659172058105	fix_post	2		12.0	0.0	2.5	/experiments/knapen_aot/videos/S_PA_A004_C003_SDR_20190719_SDR_2K_AVC.mp4	0.0	65.40466380119324	0.09997200965881348
2	5.167078971862793	response	2	2		0.0	2.5	/experiments/knapen_aot/videos/S_PA_A004_C003_SDR_20190719_SDR_2K_AVC.mp4	0.0	65.42587685585022	
3	5.245837926864624	fix_pre	0		39.0	1.0	2.5	/experiments/knapen_aot/videos/S_ILSVRC2015_train_00303008.mp4	0.0	65.50463581085205	0.3249530792236328
3	5.562669038772583	response	0	2		1.0	2.5	/experiments/knapen_aot/videos/S_ILSVRC2015_train_00303008.mp4	0.0	65.82146692276001	
3	5.570791006088257	movie	1		301.0	1.0	2.5	/experiments/knapen_aot/videos/S_ILSVRC2015_train_00303008.mp4	0.0	65.82958889007568	2.5084168910980225
3	8.07920789718628	fix_post	2		12.0	1.0	2.5	/experiments/knapen_aot/videos/S_ILSVRC2015_train_00303008.mp4	0.0	68.3380057811737	0.09992218017578125
4	8.17913007736206	fix_pre	0		5.0	2.0	2.5	/experiments/knapen_aot/videos/S_pexels-kindel-media-8164443.mp4	0.0	68.43792796134949	0.0429530143737793
4	8.212712049484253	response	0	2		2.0	2.5	/experiments/knapen_aot/videos/S_pexels-kindel-media-8164443.mp4	0.0	68.47150993347168	
4	8.22208309173584	movie	1		168.0	2.0	2.5	/experiments/knapen_aot/videos/S_pexels-kindel-media-8164443.mp4	0.0	68.48088097572327	2.507105827331543
4	10.729188919067383	fix_post	2		12.0	2.0	2.5	/experiments/knapen_aot/videos/S_pexels-kindel-media-8164443.mp4	0.0	70.98798680305481	0.10001802444458008
4	10.787791013717651	response	2	2		2.0	2.5	/experiments/knapen_aot/videos/S_pexels-kindel-media-8164443.mp4	0.0	71.04658889770508	
5	10.829206943511963	fix_pre	0		26.0	3.0	2.5	/experiments/knapen_aot/videos/R_S_yt-h8wy6x6oytA_25.mp4	0.0	71.08800482749939	0.21663999557495117
5	11.037510871887207	response	0	2		3.0	2.5	/experiments/knapen_aot/videos/R_S_yt-h8wy6x6oytA_25.mp4	0.0	71.29630875587463	
5	11.045846939086914	movie	1		301.0	3.0	2.5	/experiments/knapen_aot/videos/R_S_yt-h8wy6x6oytA_25.mp4	0.0	71.30464482307434	2.508345127105713
5	13.554192066192627	fix_post	2		12.0	3.0	2.5	/experiments/knapen_aot/videos/R_S_yt-h8wy6x6oytA_25.mp4	0.0	73.81298995018005	0.09995293617248535
6	13.654145002365112	fix_pre	0		1.0	4.0	2.5	/experiments/knapen_aot/videos/S_yt-qjg6kRxNXK8_217.mp4	0.0	73.91294288635254	0.008337020874023438
6	13.65577507019043	response	0	2		4.0	2.5	/experiments/knapen_aot/videos/S_yt-qjg6kRxNXK8_217.mp4	0.0	73.91457295417786	
6	13.662482023239136	movie	1		301.0	4.0	2.5	/experiments/knapen_aot/videos/S_yt-qjg6kRxNXK8_217.mp4	0.0	73.92127990722656	2.5083789825439453
6	16.17086100578308	fix_post	2		12.0	4.0	2.5	/experiments/knapen_aot/videos/S_yt-qjg6kRxNXK8_217.mp4	0.0	76.42965888977051	0.09997010231018066
6	16.254612922668457	response	2	2		4.0	2.5	/experiments/knapen_aot/videos/S_yt-qjg6kRxNXK8_217.mp4	0.0	76.51341080665588	
7	16.27083110809326	fix_pre	0		37.0	5.0	2.5	blank	1.0	76.52962899208069	0.3083608150482178
7	16.570833921432495	response	0	2		5.0	2.5	blank	1.0	76.82963180541992	
7	16.57919192314148	movie	1		301.0	5.0	2.5	blank	1.0	76.8379898071289	2.5083160400390625
7	19.087507963180542	fix_post	2		12.0	5.0	2.5	blank	1.0	79.34630584716797	0.10001707077026367
8	19.187525033950806	fix_pre	0		15.0	6.0	2.5	/experiments/knapen_aot/videos/R_S_ILSVRC2015_train_00574000.mp4	0.0	79.44632291793823	0.1249990463256836
8	19.304286003112793	response	0	2		6.0	2.5	/experiments/knapen_aot/videos/R_S_ILSVRC2015_train_00574000.mp4	0.0	79.56308388710022	
8	19.31252408027649	movie	1		301.0	6.0	2.5	/experiments/knapen_aot/videos/R_S_ILSVRC2015_train_00574000.mp4	0.0	79.57132196426392	2.508301019668579
8	21.82082509994507	fix_post	2		12.0	6.0	2.5	/experiments/knapen_aot/videos/R_S_ILSVRC2015_train_00574000.mp4	0.0	82.0796229839325	0.0999758243560791
9	21.920800924301147	fix_pre	0		8.0	7.0	2.5	/experiments/knapen_aot/videos/S_ILSVRC2015_train_00574000.mp4	0.0	82.17959880828857	0.06669998168945312
9	21.97939395904541	response	0	2		7.0	2.5	/experiments/knapen_aot/videos/S_ILSVRC2015_train_00574000.mp4	0.0	82.23819184303284	
9	21.9875009059906	movie	1		301.0	7.0	2.5	/experiments/knapen_aot/videos/S_ILSVRC2015_train_00574000.mp4	0.0	82.24629878997803	2.5082831382751465
9	24.495784044265747	fix_post	2		12.0	7.0	2.5	/experiments/knapen_aot/videos/S_ILSVRC2015_train_00574000.mp4	0.0	84.75458192825317	0.0999610424041748
10	24.595745086669922	fix_pre	0		9.0	8.0	2.5	/experiments/knapen_aot/videos/S_ILSVRC2015_train_00569002.mp4	0.0	84.85454297065735	0.07502484321594238
10	24.662533044815063	response	0	2		8.0	2.5	/experiments/knapen_aot/videos/S_ILSVRC2015_train_00569002.mp4	0.0	84.92133092880249	
10	24.670769929885864	movie	1		301.0	8.0	2.5	/experiments/knapen_aot/videos/S_ILSVRC2015_train_00569002.mp4	0.0	84.92956781387329	2.508310079574585
10	27.17908000946045	fix_post	2		12.0	8.0	2.5	/experiments/knapen_aot/videos/S_ILSVRC2015_train_00569002.mp4	0.0	87.43787789344788	0.10004401206970215
11	27.27912402153015	fix_pre	0		3.0	9.0	2.5	/experiments/knapen_aot/videos/S_yt-Fm97IY0Z2LU_79.mp4	0.0	87.53792190551758	0.025938987731933594
11	27.296124935150146	response	0	2		9.0	2.5	/experiments/knapen_aot/videos/S_yt-Fm97IY0Z2LU_79.mp4	0.0	87.55492281913757	
11	27.305063009262085	movie	1		301.0	9.0	2.5	/experiments/knapen_aot/videos/S_yt-Fm97IY0Z2LU_79.mp4	0.0	87.56386089324951	2.5073349475860596
11	29.812397956848145	fix_post	2		12.0	9.0	2.5	/experiments/knapen_aot/videos/S_yt-Fm97IY0Z2LU_79.mp4	0.0	90.07119584083557	0.09999299049377441
12	29.91239094734192	fix_pre	0		11.0	10.0	2.5	/experiments/knapen_aot/videos/R_S_yt-lkpfs_4qAGE_50.mp4	0.0	90.17118883132935	0.09167814254760742
12	29.995845079421997	response	0	2		10.0	2.5	/experiments/knapen_aot/videos/R_S_yt-lkpfs_4qAGE_50.mp4	0.0	90.25464296340942	
12	30.004069089889526	movie	1		301.0	10.0	2.5	/experiments/knapen_aot/videos/R_S_yt-lkpfs_4qAGE_50.mp4	0.0	90.26286697387695	2.5082828998565674
12	32.512351989746094	fix_post	2		12.0	10.0	2.5	/experiments/knapen_aot/videos/R_S_yt-lkpfs_4qAGE_50.mp4	0.0	92.77114987373352	0.10008406639099121
13	32.612436056137085	fix_pre	0		6.0	11.0	2.5	/experiments/knapen_aot/videos/R_S_pexels-koolshooters-7327412.mp4	0.0	92.87123394012451	0.050000905990600586
13	32.65415406227112	response	0	2		11.0	2.5	/experiments/knapen_aot/videos/R_S_pexels-koolshooters-7327412.mp4	0.0	92.91295194625854	
13	32.662436962127686	movie	1		162.0	11.0	2.5	/experiments/knapen_aot/videos/R_S_pexels-koolshooters-7327412.mp4	0.0	92.92123484611511	2.5082881450653076
13	35.17072510719299	fix_post	2		12.0	11.0	2.5	/experiments/knapen_aot/videos/R_S_pexels-koolshooters-7327412.mp4	0.0	95.42952299118042	0.09998297691345215
14	35.270708084106445	fix_pre	0		8.0	12.0	2.5	blank	1.0	95.52950596809387	0.06678080558776855
14	35.329291105270386	response	0	2		12.0	2.5	blank	1.0	95.58808898925781	
14	35.337488889694214	movie	1		301.0	12.0	2.5	blank	1.0	95.59628677368164	2.5084190368652344
14	37.65417194366455	response	1	2		12.0	2.5	blank	1.0	97.91296982765198	
14	37.84590792655945	fix_post	2		12.0	12.0	2.5	blank	1.0	98.10470581054688	0.09988617897033691
15	37.945794105529785	fix_pre	0		1.0	13.0	2.5	/experiments/knapen_aot/videos/R_S_yt-2cwARrUMj40_67.mp4	0.0	98.20459198951721	0.008317947387695312
15	37.94745492935181	response	0	2		13.0	2.5	/experiments/knapen_aot/videos/R_S_yt-2cwARrUMj40_67.mp4	0.0	98.20625281333923	
15	37.95411205291748	movie	1		301.0	13.0	2.5	/experiments/knapen_aot/videos/R_S_yt-2cwARrUMj40_67.mp4	0.0	98.21290993690491	2.5082969665527344
15	40.462409019470215	fix_post	2		12.0	13.0	2.5	/experiments/knapen_aot/videos/R_S_yt-2cwARrUMj40_67.mp4	0.0	100.72120690345764	0.1000220775604248
16	40.56243109703064	fix_pre	0		11.0	14.0	2.5	/experiments/knapen_aot/videos/S_pexels-mart-production-7698911.mp4	0.0	100.82122898101807	0.09166979789733887
16	40.64588809013367	response	0	2		14.0	2.5	/experiments/knapen_aot/videos/S_pexels-mart-production-7698911.mp4	0.0	100.9046859741211	
16	40.65410089492798	movie	1		186.0	14.0	2.5	/experiments/knapen_aot/videos/S_pexels-mart-production-7698911.mp4	0.0	100.9128987789154	2.508291006088257
16	43.162391901016235	fix_post	2		12.0	14.0	2.5	/experiments/knapen_aot/videos/S_pexels-mart-production-7698911.mp4	0.0	103.42118978500366	0.10070919990539551
17	43.26310110092163	fix_pre	0		18.0	15.0	2.5	/experiments/knapen_aot/videos/S_yt-gMqeZkpA_1Q_61.mp4	0.0	103.52189898490906	0.14924097061157227
17	43.40420603752136	response	0	2		15.0	2.5	/experiments/knapen_aot/videos/S_yt-gMqeZkpA_1Q_61.mp4	0.0	103.66300392150879	
17	43.4123420715332	movie	1		301.0	15.0	2.5	/experiments/knapen_aot/videos/S_yt-gMqeZkpA_1Q_61.mp4	0.0	103.67113995552063	2.5082859992980957
17	45.9206280708313	fix_post	2		12.0	15.0	2.5	/experiments/knapen_aot/videos/S_yt-gMqeZkpA_1Q_61.mp4	0.0	106.17942595481873	0.10005688667297363
18	46.02068495750427	fix_pre	0		11.0	16.0	2.5	/experiments/knapen_aot/videos/S_pexels-c-technical-6809719.mp4	0.0	106.2794828414917	0.09162712097167969
18	46.104077100753784	response	0	2		16.0	2.5	/experiments/knapen_aot/videos/S_pexels-c-technical-6809719.mp4	0.0	106.36287498474121	
18	46.11231207847595	movie	1		185.0	16.0	2.5	/experiments/knapen_aot/videos/S_pexels-c-technical-6809719.mp4	0.0	106.37110996246338	2.508347988128662
18	48.620660066604614	fix_post	2		12.0	16.0	2.5	/experiments/knapen_aot/videos/S_pexels-c-technical-6809719.mp4	0.0	108.87945795059204	0.10080194473266602
19	48.72146201133728	fix_pre	0		10.0	17.0	2.5	/experiments/knapen_aot/videos/R_S_yt-Ev39pXXfr1Y_152.mp4	0.0	108.9802598953247	0.08330702781677246
19	48.79613208770752	response	0	2		17.0	2.5	/experiments/knapen_aot/videos/R_S_yt-Ev39pXXfr1Y_152.mp4	0.0	109.05492997169495	
19	48.80476903915405	movie	1		301.0	17.0	2.5	/experiments/knapen_aot/videos/R_S_yt-Ev39pXXfr1Y_152.mp4	0.0	109.06356692314148	2.507572889328003
19	51.312341928482056	fix_post	2		12.0	17.0	2.5	/experiments/knapen_aot/videos/R_S_yt-Ev39pXXfr1Y_152.mp4	0.0	111.57113981246948	0.1001429557800293
20	51.412484884262085	fix_pre	0		14.0	18.0	2.5	/experiments/knapen_aot/videos/R_S_yt-oVS_k_9upmo_205.mp4	0.0	111.67128276824951	0.11641812324523926
20	51.52078604698181	response	0	2		18.0	2.5	/experiments/knapen_aot/videos/R_S_yt-oVS_k_9upmo_205.mp4	0.0	111.77958393096924	
20	51.528903007507324	movie	1		301.0	18.0	2.5	/experiments/knapen_aot/videos/R_S_yt-oVS_k_9upmo_205.mp4	0.0	111.78770089149475	2.508452892303467
20	54.03735589981079	fix_post	2		12.0	18.0	2.5	/experiments/knapen_aot/videos/R_S_yt-oVS_k_9upmo_205.mp4	0.0	114.29615378379822	0.10000300407409668
21	54.13735890388489	fix_pre	0		5.0	19.0	2.5	blank	1.0	114.39615678787231	0.04250311851501465
21	54.17073893547058	response	0	2		19.0	2.5	blank	1.0	114.42953681945801	
21	54.1798620223999	movie	1		301.0	19.0	2.5	blank	1.0	114.43865990638733	2.5074350833892822
21	56.42073202133179	response	1	2		19.0	2.5	blank	1.0	116.67952990531921	
21	56.687297105789185	fix_post	2		12.0	19.0	2.5	blank	1.0	116.94609498977661	0.09997391700744629
22	56.78727102279663	fix_pre	0		13.0	20.0	2.5	/experiments/knapen_aot/videos/S_pexels-cottonbro-10640532.mp4	0.0	117.04606890678406	0.10833191871643066
22	56.88735103607178	response	0	2		20.0	2.5	/experiments/knapen_aot/videos/S_pexels-cottonbro-10640532.mp4	0.0	117.1461489200592	
22	56.89560294151306	movie	1		205.0	20.0	2.5	/experiments/knapen_aot/videos/S_pexels-cottonbro-10640532.mp4	0.0	117.15440082550049	2.5083179473876953
22	59.40392088890076	fix_post	2		12.0	20.0	2.5	/experiments/knapen_aot/videos/S_pexels-cottonbro-10640532.mp4	0.0	119.66271877288818	0.10000300407409668
23	59.50392389297485	fix_pre	0		38.0	21.0	2.5	/experiments/knapen_aot/videos/S_pexels-rodnae-productions-7467585.mp4	0.0	119.76272177696228	0.31667613983154297
23	59.81236290931702	response	0	2		21.0	2.5	/experiments/knapen_aot/videos/S_pexels-rodnae-productions-7467585.mp4	0.0	120.07116079330444	
23	59.8206000328064	movie	1		166.0	21.0	2.5	/experiments/knapen_aot/videos/S_pexels-rodnae-productions-7467585.mp4	0.0	120.07939791679382	2.508312940597534
23	62.32891297340393	fix_post	2		12.0	21.0	2.5	/experiments/knapen_aot/videos/S_pexels-rodnae-productions-7467585.mp4	0.0	122.58771085739136	0.10006403923034668
24	62.42897701263428	fix_pre	0		9.0	22.0	2.5	/experiments/knapen_aot/videos/R_S_ILSVRC2015_train_00569002.mp4	0.0	122.6877748966217	0.07499194145202637
24	62.49570894241333	response	0	2		22.0	2.5	/experiments/knapen_aot/videos/R_S_ILSVRC2015_train_00569002.mp4	0.0	122.75450682640076	
24	62.503968954086304	movie	1		300.0	22.0	2.5	/experiments/knapen_aot/videos/R_S_ILSVRC2015_train_00569002.mp4	0.0	122.76276683807373	2.5083539485931396
24	65.01232290267944	fix_post	2		12.0	22.0	2.5	/experiments/knapen_aot/videos/R_S_ILSVRC2015_train_00569002.mp4	0.0	125.27112078666687	0.0999150276184082
25	65.11223793029785	fix_pre	0		19.0	23.0	2.5	/experiments/knapen_aot/videos/R_S_yt-RWN5qOIgqec_25.mp4	0.0	125.37103581428528	0.15835213661193848
25	65.26241207122803	response	0	2		23.0	2.5	/experiments/knapen_aot/videos/R_S_yt-RWN5qOIgqec_25.mp4	0.0	125.52120995521545	
25	65.27059006690979	movie	1		301.0	23.0	2.5	/experiments/knapen_aot/videos/R_S_yt-RWN5qOIgqec_25.mp4	0.0	125.52938795089722	2.5083019733428955
25	67.77889204025269	fix_post	2		12.0	23.0	2.5	/experiments/knapen_aot/videos/R_S_yt-RWN5qOIgqec_25.mp4	0.0	128.0376899242401	0.10001587867736816
26	67.87890791893005	fix_pre	0		12.0	24.0	2.5	/experiments/knapen_aot/videos/R_S_yt-Ev39pXXfr1Y_152.mp4	0.0	128.13770580291748	0.099945068359375
26	67.97076392173767	response	0	2		24.0	2.5	/experiments/knapen_aot/videos/R_S_yt-Ev39pXXfr1Y_152.mp4	0.0	128.2295618057251	
26	67.97885298728943	movie	1		299.0	24.0	2.5	/experiments/knapen_aot/videos/R_S_yt-Ev39pXXfr1Y_152.mp4	0.0	128.23765087127686	2.508466958999634
26	70.48731994628906	fix_post	2		12.0	24.0	2.5	/experiments/knapen_aot/videos/R_S_yt-Ev39pXXfr1Y_152.mp4	0.0	130.7461178302765	0.09995508193969727
27	70.58727502822876	fix_pre	0		12.0	25.0	2.5	/experiments/knapen_aot/videos/S_yt-cM5PvgE7aJs_243.mp4	0.0	130.8460729122162	0.10001087188720703
27	70.67902088165283	response	0	2		25.0	2.5	/experiments/knapen_aot/videos/S_yt-cM5PvgE7aJs_243.mp4	0.0	130.93781876564026	
27	70.68728590011597	movie	1		301.0	25.0	2.5	/experiments/knapen_aot/videos/S_yt-cM5PvgE7aJs_243.mp4	0.0	130.9460837841034	2.5083160400390625
27	73.19560194015503	fix_post	2		12.0	25.0	2.5	/experiments/knapen_aot/videos/S_yt-cM5PvgE7aJs_243.mp4	0.0	133.45439982414246	0.09998512268066406
28	73.2955870628357	fix_pre	0		27.0	26.0	2.5	/experiments/knapen_aot/videos/S_ILSVRC2015_train_00369004.mp4	0.0	133.55438494682312	0.22499990463256836
28	73.51229405403137	response	0	2		26.0	2.5	/experiments/knapen_aot/videos/S_ILSVRC2015_train_00369004.mp4	0.0	133.7710919380188	
28	73.52058696746826	movie	1		301.0	26.0	2.5	/experiments/knapen_aot/videos/S_ILSVRC2015_train_00369004.mp4	0.0	133.7793848514557	2.508333921432495
28	76.02892088890076	fix_post	2		12.0	26.0	2.5	/experiments/knapen_aot/videos/S_ILSVRC2015_train_00369004.mp4	0.0	136.28771877288818	0.10001206398010254
29	76.12893295288086	fix_pre	0		20.0	27.0	2.5	/experiments/knapen_aot/videos/S_ILSVRC2015_train_00415003.mp4	0.0	136.3877308368683	0.1666100025177002
29	76.28737592697144	response	0	2		27.0	2.5	/experiments/knapen_aot/videos/S_ILSVRC2015_train_00415003.mp4	0.0	136.54617381095886	
29	76.29554295539856	movie	1		301.0	27.0	2.5	/experiments/knapen_aot/videos/S_ILSVRC2015_train_00415003.mp4	0.0	136.554340839386	2.5083601474761963
29	78.80390310287476	fix_post	2		12.0	27.0	2.5	/experiments/knapen_aot/videos/S_ILSVRC2015_train_00415003.mp4	0.0	139.06270098686218	0.09995889663696289
30	78.90386199951172	fix_pre	0		16.0	28.0	2.5	blank	1.0	139.16265988349915	0.13332295417785645
30	79.02898502349854	response	0	2		28.0	2.5	blank	1.0	139.28778290748596	
30	79.03718495368958	movie	1		301.0	28.0	2.5	blank	1.0	139.295982837677	2.5083560943603516
30	81.54554104804993	fix_post	2		12.0	28.0	2.5	blank	1.0	141.80433893203735	0.10007405281066895
31	81.6456151008606	fix_pre	0		19.0	29.0	2.5	/experiments/knapen_aot/videos/S_yt-0Zze3Ff12Ys_58.mp4	0.0	141.90441298484802	0.15887784957885742
31	81.79566788673401	response	0	2		29.0	2.5	/experiments/knapen_aot/videos/S_yt-0Zze3Ff12Ys_58.mp4	0.0	142.05446577072144	
31	81.80449295043945	movie	1		301.0	29.0	2.5	/experiments/knapen_aot/videos/S_yt-0Zze3Ff12Ys_58.mp4	0.0	142.06329083442688	2.5077199935913086
31	84.31221294403076	fix_post	2		12.0	29.0	2.5	/experiments/knapen_aot/videos/S_yt-0Zze3Ff12Ys_58.mp4	0.0	144.5710108280182	0.09998011589050293
31	84.4039740562439	response	2	2		29.0	2.5	/experiments/knapen_aot/videos/S_yt-0Zze3Ff12Ys_58.mp4	0.0	144.66277194023132	
32	84.41219305992126	fix_pre	0		44.0	30.0	2.5	/experiments/knapen_aot/videos/R_S_ILSVRC2015_train_00001009.mp4	0.0	144.6709909439087	0.3666520118713379
32	84.77066802978516	response	0	2		30.0	2.5	/experiments/knapen_aot/videos/R_S_ILSVRC2015_train_00001009.mp4	0.0	145.02946591377258	
32	84.7788450717926	movie	1		301.0	30.0	2.5	/experiments/knapen_aot/videos/R_S_ILSVRC2015_train_00001009.mp4	0.0	145.03764295578003	2.5083019733428955
32	87.2871470451355	fix_post	2		12.0	30.0	2.5	/experiments/knapen_aot/videos/R_S_ILSVRC2015_train_00001009.mp4	0.0	147.54594492912292	0.10000395774841309
33	87.38715100288391	fix_pre	0		20.0	31.0	2.5	/experiments/knapen_aot/videos/S_b2-4.mp4	0.0	147.64594888687134	0.167219877243042
33	87.5456190109253	response	0	2		31.0	2.5	/experiments/knapen_aot/videos/S_b2-4.mp4	0.0	147.80441689491272	
33	87.55437088012695	movie	1		162.0	31.0	2.5	/experiments/knapen_aot/videos/S_b2-4.mp4	0.0	147.81316876411438	2.5077970027923584
33	90.06216788291931	fix_post	2		12.0	31.0	2.5	/experiments/knapen_aot/videos/S_b2-4.mp4	0.0	150.32096576690674	0.1000070571899414
33	90.13815593719482	response	2	2		31.0	2.5	/experiments/knapen_aot/videos/S_b2-4.mp4	0.0	150.39695382118225	
34	90.16217494010925	fix_pre	0		38.0	32.0	2.5	/experiments/knapen_aot/videos/S_yt-dkBlyE3igk0_44.mp4	0.0	150.42097282409668	0.3166821002960205
34	90.46319103240967	response	0	2		32.0	2.5	/experiments/knapen_aot/videos/S_yt-dkBlyE3igk0_44.mp4	0.0	150.7219889163971	
34	90.47885704040527	movie	1		301.0	32.0	2.5	/experiments/knapen_aot/videos/S_yt-dkBlyE3igk0_44.mp4	0.0	150.7376549243927	2.5083630084991455
34	92.98722004890442	fix_post	2		12.0	32.0	2.5	/experiments/knapen_aot/videos/S_yt-dkBlyE3igk0_44.mp4	0.0	153.24601793289185	0.09993290901184082
35	93.08715295791626	fix_pre	0		3.0	33.0	2.5	/experiments/knapen_aot/videos/S_yt-7lULOC_rSE0_747.mp4	0.0	153.3459508419037	0.025021076202392578
35	93.10400199890137	response	0	2		33.0	2.5	/experiments/knapen_aot/videos/S_yt-7lULOC_rSE0_747.mp4	0.0	153.3627998828888	
35	93.11217403411865	movie	1		301.0	33.0	2.5	/experiments/knapen_aot/videos/S_yt-7lULOC_rSE0_747.mp4	0.0	153.37097191810608	2.508280038833618
35	95.62045407295227	fix_post	2		12.0	33.0	2.5	/experiments/knapen_aot/videos/S_yt-7lULOC_rSE0_747.mp4	0.0	155.8792519569397	0.10061883926391602
36	95.72107291221619	fix_pre	0		14.0	34.0	2.5	blank	1.0	155.9798707962036	0.11600708961486816
36	95.82899689674377	response	0	2		34.0	2.5	blank	1.0	156.0877947807312	
36	95.83708000183105	movie	1		301.0	34.0	2.5	blank	1.0	156.09587788581848	2.5083200931549072
36	98.34540009498596	fix_post	2		12.0	34.0	2.5	blank	1.0	158.6041979789734	0.1000669002532959
37	98.44546699523926	fix_pre	0		16.0	35.0	2.5	/experiments/knapen_aot/videos/S_ILSVRC2015_train_00568000.mp4	0.0	158.70426487922668	0.13334894180297852
37	98.57060194015503	response	0	2		35.0	2.5	/experiments/knapen_aot/videos/S_ILSVRC2015_train_00568000.mp4	0.0	158.82939982414246	
37	98.57881593704224	movie	1		301.0	35.0	2.5	/experiments/knapen_aot/videos/S_ILSVRC2015_train_00568000.mp4	0.0	158.83761382102966	2.5083200931549072
37	101.08713603019714	fix_post	2		12.0	35.0	2.5	/experiments/knapen_aot/videos/S_ILSVRC2015_train_00568000.mp4	0.0	161.34593391418457	0.09995794296264648
38	101.18709397315979	fix_pre	0		21.0	36.0	2.5	/experiments/knapen_aot/videos/S_yt-xBwq6sHHF5M_21.mp4	0.0	161.44589185714722	0.17498397827148438
38	101.35390400886536	response	0	2		36.0	2.5	/experiments/knapen_aot/videos/S_yt-xBwq6sHHF5M_21.mp4	0.0	161.61270189285278	
38	101.36207795143127	movie	1		301.0	36.0	2.5	/experiments/knapen_aot/videos/S_yt-xBwq6sHHF5M_21.mp4	0.0	161.6208758354187	2.5083911418914795
38	103.87046909332275	fix_post	2		12.0	36.0	2.5	/experiments/knapen_aot/videos/S_yt-xBwq6sHHF5M_21.mp4	0.0	164.12926697731018	0.09995198249816895
39	103.97042107582092	fix_pre	0		12.0	37.0	2.5	/experiments/knapen_aot/videos/S_pexels-koolshooters-7327412.mp4	0.0	164.22921895980835	0.0999898910522461
39	104.06222796440125	response	0	2		37.0	2.5	/experiments/knapen_aot/videos/S_pexels-koolshooters-7327412.mp4	0.0	164.32102584838867	
39	104.07041096687317	movie	1		162.0	37.0	2.5	/experiments/knapen_aot/videos/S_pexels-koolshooters-7327412.mp4	0.0	164.3292088508606	2.5083091259002686
39	106.57872009277344	fix_post	2		12.0	37.0	2.5	/experiments/knapen_aot/videos/S_pexels-koolshooters-7327412.mp4	0.0	166.83751797676086	0.10006499290466309
40	106.6787850856781	fix_pre	0		1.0	38.0	2.5	/experiments/knapen_aot/videos/R_S_ILSVRC2015_train_00411000.mp4	0.0	166.93758296966553	0.008269786834716797
40	106.6803560256958	response	0	2		38.0	2.5	/experiments/knapen_aot/videos/R_S_ILSVRC2015_train_00411000.mp4	0.0	166.93915390968323	
40	106.68705487251282	movie	1		301.0	38.0	2.5	/experiments/knapen_aot/videos/R_S_ILSVRC2015_train_00411000.mp4	0.0	166.94585275650024	2.5084002017974854
40	109.1954550743103	fix_post	2		12.0	38.0	2.5	/experiments/knapen_aot/videos/R_S_ILSVRC2015_train_00411000.mp4	0.0	169.45425295829773	0.09994292259216309
41	109.29539799690247	fix_pre	0		3.0	39.0	2.5	/experiments/knapen_aot/videos/R_S_yt--jzScB82vKI_90.mp4	0.0	169.5541958808899	0.025029897689819336
41	109.31226801872253	response	0	2		39.0	2.5	/experiments/knapen_aot/videos/R_S_yt--jzScB82vKI_90.mp4	0.0	169.57106590270996	
41	109.32042789459229	movie	1		301.0	39.0	2.5	/experiments/knapen_aot/videos/R_S_yt--jzScB82vKI_90.mp4	0.0	169.5792257785797	2.508338212966919
41	111.8287661075592	fix_post	2		12.0	39.0	2.5	/experiments/knapen_aot/videos/R_S_yt--jzScB82vKI_90.mp4	0.0	172.08756399154663	0.10037493705749512
42	111.9291410446167	fix_pre	0		16.0	40.0	2.5	/experiments/knapen_aot/videos/S_yt-l_pvPAznG1A_20.mp4	0.0	172.18793892860413	0.13295197486877441
42	112.0538558959961	response	0	2		40.0	2.5	/experiments/knapen_aot/videos/S_yt-l_pvPAznG1A_20.mp4	0.0	172.31265377998352	
42	112.06209301948547	movie	1		301.0	40.0	2.5	/experiments/knapen_aot/videos/S_yt-l_pvPAznG1A_20.mp4	0.0	172.3208909034729	2.5083320140838623
42	114.57042503356934	fix_post	2		12.0	40.0	2.5	/experiments/knapen_aot/videos/S_yt-l_pvPAznG1A_20.mp4	0.0	174.82922291755676	0.09998703002929688
42	114.62888789176941	response	2	2		40.0	2.5	/experiments/knapen_aot/videos/S_yt-l_pvPAznG1A_20.mp4	0.0	174.88768577575684	
43	114.67041206359863	fix_pre	0		37.0	41.0	2.5	blank	1.0	174.92920994758606	0.308305025100708
43	114.97049498558044	response	0	2		41.0	2.5	blank	1.0	175.22929286956787	
43	114.97871708869934	movie	1		300.0	41.0	2.5	blank	1.0	175.23751497268677	2.4999918937683105
43	117.47048497200012	response	1	2		41.0	2.5	blank	1.0	177.72928285598755	
43	117.47870898246765	fix_post	2		13.0	41.0	2.5	blank	1.0	177.73750686645508	0.10840797424316406
44	117.58711695671082	fix_pre	0		60.0	42.0	2.5	/experiments/knapen_aot/videos/R_S_yt-fIEGqReekCM_10.mp4	0.0	177.84591484069824	0.49990010261535645
44	118.07888293266296	response	0	2		42.0	2.5	/experiments/knapen_aot/videos/R_S_yt-fIEGqReekCM_10.mp4	0.0	178.3376808166504	
44	118.08701705932617	movie	1		301.0	42.0	2.5	/experiments/knapen_aot/videos/R_S_yt-fIEGqReekCM_10.mp4	0.0	178.3458149433136	2.5084049701690674
44	120.59542202949524	fix_post	2		12.0	42.0	2.5	/experiments/knapen_aot/videos/R_S_yt-fIEGqReekCM_10.mp4	0.0	180.85421991348267	0.0999748706817627
44	120.68715691566467	response	2	2		42.0	2.5	/experiments/knapen_aot/videos/R_S_yt-fIEGqReekCM_10.mp4	0.0	180.9459547996521	
45	120.695396900177	fix_pre	0		43.0	43.0	2.5	/experiments/knapen_aot/videos/S_yt-l6WPyKg_3is_154.mp4	0.0	180.95419478416443	0.35861897468566895
45	121.04547810554504	response	0	2		43.0	2.5	/experiments/knapen_aot/videos/S_yt-l6WPyKg_3is_154.mp4	0.0	181.30427598953247	
45	121.05401587486267	movie	1		301.0	43.0	2.5	/experiments/knapen_aot/videos/S_yt-l6WPyKg_3is_154.mp4	0.0	181.3128137588501	2.5080530643463135
45	123.56206893920898	fix_post	2		12.0	43.0	2.5	/experiments/knapen_aot/videos/S_yt-l6WPyKg_3is_154.mp4	0.0	183.8208668231964	0.09999799728393555
46	123.66206693649292	fix_pre	0		2.0	44.0	2.5	/experiments/knapen_aot/videos/S_EFR8AteY59I_15.mp4	0.0	183.92086482048035	0.017119169235229492
46	123.66438603401184	response	0	2		44.0	2.5	/experiments/knapen_aot/videos/S_EFR8AteY59I_15.mp4	0.0	183.92318391799927	
46	123.67918610572815	movie	1		301.0	44.0	2.5	/experiments/knapen_aot/videos/S_EFR8AteY59I_15.mp4	0.0	183.93798398971558	2.507769823074341
46	126.18695592880249	fix_post	2		12.0	44.0	2.5	/experiments/knapen_aot/videos/S_EFR8AteY59I_15.mp4	0.0	186.44575381278992	0.10007405281066895
47	126.28702998161316	fix_pre	0		7.0	45.0	2.5	/experiments/knapen_aot/videos/R_S_yt-SRozDkhwx28_1463.mp4	0.0	186.5458278656006	0.05890607833862305
47	126.33722305297852	response	0	2		45.0	2.5	/experiments/knapen_aot/videos/R_S_yt-SRozDkhwx28_1463.mp4	0.0	186.59602093696594	
47	126.34593605995178	movie	1		301.0	45.0	2.5	/experiments/knapen_aot/videos/R_S_yt-SRozDkhwx28_1463.mp4	0.0	186.6047339439392	2.5077450275421143
47	128.8536810874939	fix_post	2		12.0	45.0	2.5	/experiments/knapen_aot/videos/R_S_yt-SRozDkhwx28_1463.mp4	0.0	189.11247897148132	0.09992194175720215
48	128.9536030292511	fix_pre	0		5.0	46.0	2.5	/experiments/knapen_aot/videos/R_S_yt-2pRKCSgdXXU_30.mp4	0.0	189.21240091323853	0.04185891151428223
48	128.98712301254272	response	0	2		46.0	2.5	/experiments/knapen_aot/videos/R_S_yt-2pRKCSgdXXU_30.mp4	0.0	189.24592089653015	
48	128.99546194076538	movie	1		301.0	46.0	2.5	/experiments/knapen_aot/videos/R_S_yt-2pRKCSgdXXU_30.mp4	0.0	189.2542598247528	2.5082240104675293
48	131.5036859512329	fix_post	2		12.0	46.0	2.5	/experiments/knapen_aot/videos/R_S_yt-2pRKCSgdXXU_30.mp4	0.0	191.76248383522034	0.09998607635498047
49	131.6036720275879	fix_pre	0		14.0	47.0	2.5	/experiments/knapen_aot/videos/R_S_9smWynsk6sI_158.mp4	0.0	191.86246991157532	0.11691498756408691
49	131.71222591400146	response	0	2		47.0	2.5	/experiments/knapen_aot/videos/R_S_9smWynsk6sI_158.mp4	0.0	191.9710237979889	
49	131.72058701515198	movie	1		301.0	47.0	2.5	/experiments/knapen_aot/videos/R_S_9smWynsk6sI_158.mp4	0.0	191.9793848991394	2.5079710483551025
49	134.22855806350708	fix_post	2		12.0	47.0	2.5	/experiments/knapen_aot/videos/R_S_9smWynsk6sI_158.mp4	0.0	194.4873559474945	0.10009002685546875
50	134.32864809036255	fix_pre	0		13.0	48.0	2.5	/experiments/knapen_aot/videos/R_S_pexels-kindel-media-8164443.mp4	0.0	194.58744597434998	0.1083378791809082
50	134.42121601104736	response	0	2		48.0	2.5	/experiments/knapen_aot/videos/R_S_pexels-kindel-media-8164443.mp4	0.0	194.6800138950348	
50	134.43698596954346	movie	1		184.0	48.0	2.5	/experiments/knapen_aot/videos/R_S_pexels-kindel-media-8164443.mp4	0.0	194.69578385353088	2.508242130279541
50	136.945228099823	fix_post	2		12.0	48.0	2.5	/experiments/knapen_aot/videos/R_S_pexels-kindel-media-8164443.mp4	0.0	197.20402598381042	0.10005998611450195
50	137.02037501335144	response	2	2		48.0	2.5	/experiments/knapen_aot/videos/R_S_pexels-kindel-media-8164443.mp4	0.0	197.27917289733887	
51	137.0452880859375	fix_pre	0		34.0	49.0	2.5	blank	1.0	197.30408596992493	0.2833859920501709
51	137.32038402557373	response	0	2		49.0	2.5	blank	1.0	197.57918190956116	
51	137.32867407798767	movie	1		301.0	49.0	2.5	blank	1.0	197.5874719619751	2.508384943008423
51	139.8370590209961	fix_post	2		12.0	49.0	2.5	blank	1.0	200.09585690498352	0.0999288558959961
52	139.9369878768921	fix_pre	0		19.0	50.0	2.5	/experiments/knapen_aot/videos/R_S_yt-0Ut9QANGX20_35.mp4	0.0	200.19578576087952	0.1585221290588379
52	140.0871000289917	response	0	2		50.0	2.5	/experiments/knapen_aot/videos/R_S_yt-0Ut9QANGX20_35.mp4	0.0	200.34589791297913	
52	140.09551000595093	movie	1		301.0	50.0	2.5	/experiments/knapen_aot/videos/R_S_yt-0Ut9QANGX20_35.mp4	0.0	200.35430788993835	2.5081369876861572
52	142.60364699363708	fix_post	2		12.0	50.0	2.5	/experiments/knapen_aot/videos/R_S_yt-0Ut9QANGX20_35.mp4	0.0	202.8624448776245	0.10003209114074707
53	142.70367908477783	fix_pre	0		1.0	51.0	2.5	/experiments/knapen_aot/videos/R_S_pexels-rodnae-productions-5617905.mp4	0.0	202.96247696876526	0.009985923767089844
53	142.69712805747986	response	0	2		51.0	2.5	/experiments/knapen_aot/videos/R_S_pexels-rodnae-productions-5617905.mp4	0.0	202.95592594146729	
53	142.71366500854492	movie	1		167.0	51.0	2.5	/experiments/knapen_aot/videos/R_S_pexels-rodnae-productions-5617905.mp4	0.0	202.97246289253235	2.5068790912628174
53	145.22054409980774	fix_post	2		12.0	51.0	2.5	/experiments/knapen_aot/videos/R_S_pexels-rodnae-productions-5617905.mp4	0.0	205.47934198379517	0.09976792335510254
53	145.295392036438	response	2	2		51.0	2.5	/experiments/knapen_aot/videos/R_S_pexels-rodnae-productions-5617905.mp4	0.0	205.55418992042542	
54	145.32031202316284	fix_pre	0		34.0	52.0	2.5	/experiments/knapen_aot/videos/S_ILSVRC2015_train_00715000.mp4	0.0	205.57910990715027	0.28330302238464355
54	145.59543895721436	response	0	2		52.0	2.5	/experiments/knapen_aot/videos/S_ILSVRC2015_train_00715000.mp4	0.0	205.85423684120178	
54	145.60361504554749	movie	1		301.0	52.0	2.5	/experiments/knapen_aot/videos/S_ILSVRC2015_train_00715000.mp4	0.0	205.8624129295349	2.5082590579986572
54	148.11187410354614	fix_post	2		12.0	52.0	2.5	/experiments/knapen_aot/videos/S_ILSVRC2015_train_00715000.mp4	0.0	208.37067198753357	0.1000509262084961
55	148.21192502975464	fix_pre	0		7.0	53.0	2.5	/experiments/knapen_aot/videos/R_S_ILSVRC2015_train_00369004.mp4	0.0	208.47072291374207	0.05845284461975098
55	148.26202988624573	response	0	2		53.0	2.5	/experiments/knapen_aot/videos/R_S_ILSVRC2015_train_00369004.mp4	0.0	208.52082777023315	
55	148.2703778743744	movie	1		300.0	53.0	2.5	/experiments/knapen_aot/videos/R_S_ILSVRC2015_train_00369004.mp4	0.0	208.52917575836182	2.5082221031188965
55	150.7785999774933	fix_post	2		12.0	53.0	2.5	/experiments/knapen_aot/videos/R_S_ILSVRC2015_train_00369004.mp4	0.0	211.0373978614807	0.09997200965881348
56	150.8785719871521	fix_pre	0		7.0	54.0	2.5	/experiments/knapen_aot/videos/R_S_Pexels_Videos_278654_1.mp4	0.0	211.13736987113953	0.05837106704711914
56	150.9292860031128	response	0	2		54.0	2.5	/experiments/knapen_aot/videos/R_S_Pexels_Videos_278654_1.mp4	0.0	211.18808388710022	
56	150.93694305419922	movie	1		161.0	54.0	2.5	/experiments/knapen_aot/videos/R_S_Pexels_Videos_278654_1.mp4	0.0	211.19574093818665	2.5083160400390625
56	153.44525909423828	fix_post	2		12.0	54.0	2.5	/experiments/knapen_aot/videos/R_S_Pexels_Videos_278654_1.mp4	0.0	213.7040569782257	0.09996485710144043
57	153.54522395133972	fix_pre	0		10.0	55.0	2.5	blank	1.0	213.80402183532715	0.0833590030670166
57	153.62038207054138	response	0	2		55.0	2.5	blank	1.0	213.8791799545288	
57	153.62858295440674	movie	1		301.0	55.0	2.5	blank	1.0	213.88738083839417	2.508479118347168
57	156.1370620727539	fix_post	2		12.0	55.0	2.5	blank	1.0	216.39585995674133	0.0998239517211914
58	156.2368860244751	fix_pre	0		20.0	56.0	2.5	/experiments/knapen_aot/videos/S_nTA7B2uHaCQ_1.mp4	0.0	216.49568390846252	0.16666388511657715
58	156.3953549861908	response	0	2		56.0	2.5	/experiments/knapen_aot/videos/S_nTA7B2uHaCQ_1.mp4	0.0	216.65415287017822	
58	156.40354990959167	movie	1		301.0	56.0	2.5	/experiments/knapen_aot/videos/S_nTA7B2uHaCQ_1.mp4	0.0	216.6623477935791	2.508355140686035
58	158.9119050502777	fix_post	2		12.0	56.0	2.5	/experiments/knapen_aot/videos/S_nTA7B2uHaCQ_1.mp4	0.0	219.17070293426514	0.10012698173522949
59	159.01203203201294	fix_pre	0		18.0	57.0	2.5	/experiments/knapen_aot/videos/S_pexels-sora-shimazaki-5925295.mp4	0.0	219.27082991600037	0.14987587928771973
59	159.153657913208	response	0	2		57.0	2.5	/experiments/knapen_aot/videos/S_pexels-sora-shimazaki-5925295.mp4	0.0	219.41245579719543	
59	159.16190791130066	movie	1		166.0	57.0	2.5	/experiments/knapen_aot/videos/S_pexels-sora-shimazaki-5925295.mp4	0.0	219.4207057952881	2.5082900524139404
59	161.6701979637146	fix_post	2		11.0	57.0	2.5	/experiments/knapen_aot/videos/S_pexels-sora-shimazaki-5925295.mp4	0.0	221.92899584770203	0.0918121337890625
59	161.75367188453674	response	2	2		57.0	2.5	/experiments/knapen_aot/videos/S_pexels-sora-shimazaki-5925295.mp4	0.0	222.01246976852417	
60	161.76201009750366	fix_pre	0		36.0	58.0	2.5	/experiments/knapen_aot/videos/S_yt-2pRKCSgdXXU_30.mp4	0.0	222.0208079814911	0.29982995986938477
60	162.05364608764648	response	0	2		58.0	2.5	/experiments/knapen_aot/videos/S_yt-2pRKCSgdXXU_30.mp4	0.0	222.3124439716339	
60	162.06184005737305	movie	1		301.0	58.0	2.5	/experiments/knapen_aot/videos/S_yt-2pRKCSgdXXU_30.mp4	0.0	222.32063794136047	2.5083799362182617
60	164.5702199935913	fix_post	2		12.0	58.0	2.5	/experiments/knapen_aot/videos/S_yt-2pRKCSgdXXU_30.mp4	0.0	224.82901787757874	0.09994101524353027
61	164.67016100883484	fix_pre	0		16.0	59.0	2.5	/experiments/knapen_aot/videos/R_S_ILSVRC2015_train_00574004.mp4	0.0	224.92895889282227	0.1334540843963623
61	164.79533290863037	response	0	2		59.0	2.5	/experiments/knapen_aot/videos/R_S_ILSVRC2015_train_00574004.mp4	0.0	225.0541307926178	
61	164.8036150932312	movie	1		301.0	59.0	2.5	/experiments/knapen_aot/videos/R_S_ILSVRC2015_train_00574004.mp4	0.0	225.06241297721863	2.5082039833068848
61	167.3118190765381	fix_post	2		12.0	59.0	2.5	/experiments/knapen_aot/videos/R_S_ILSVRC2015_train_00574004.mp4	0.0	227.5706169605255	0.1000218391418457
62	167.41184091567993	fix_pre	0		12.0	60.0	2.5	/experiments/knapen_aot/videos/S_pexels-roman-odintsov-8233166.mp4	0.0	227.67063879966736	0.10003209114074707
62	167.5036060810089	response	0	2		60.0	2.5	/experiments/knapen_aot/videos/S_pexels-roman-odintsov-8233166.mp4	0.0	227.76240396499634	
62	167.51187300682068	movie	1		192.0	60.0	2.5	/experiments/knapen_aot/videos/S_pexels-roman-odintsov-8233166.mp4	0.0	227.7706708908081	2.5084218978881836
62	170.02029490470886	fix_post	2		12.0	60.0	2.5	/experiments/knapen_aot/videos/S_pexels-roman-odintsov-8233166.mp4	0.0	230.2790927886963	0.09992718696594238
63	170.1202220916748	fix_pre	0		6.0	61.0	2.5	/experiments/knapen_aot/videos/S_S003_C020_SDR_2K_AVC.mp4	0.0	230.37901997566223	0.051474809646606445
63	170.16203594207764	response	0	2		61.0	2.5	/experiments/knapen_aot/videos/S_S003_C020_SDR_2K_AVC.mp4	0.0	230.42083382606506	
63	170.1716969013214	movie	1		181.0	61.0	2.5	/experiments/knapen_aot/videos/S_S003_C020_SDR_2K_AVC.mp4	0.0	230.43049478530884	2.50679612159729
63	172.6784930229187	fix_post	2		12.0	61.0	2.5	/experiments/knapen_aot/videos/S_S003_C020_SDR_2K_AVC.mp4	0.0	232.93729090690613	0.09993791580200195
63	172.72026300430298	response	2	2		61.0	2.5	/experiments/knapen_aot/videos/S_S003_C020_SDR_2K_AVC.mp4	0.0	232.9790608882904	
64	172.7784309387207	fix_pre	0		32.0	62.0	2.5	blank	1.0	233.03722882270813	0.2666950225830078
64	173.03685402870178	response	0	2		62.0	2.5	blank	1.0	233.2956519126892	
64	173.0451259613037	movie	1		301.0	62.0	2.5	blank	1.0	233.30392384529114	2.5084149837493896
64	175.5535409450531	fix_post	2		12.0	62.0	2.5	blank	1.0	235.81233882904053	0.09995007514953613
65	175.65349102020264	fix_pre	0		20.0	63.0	2.5	/experiments/knapen_aot/videos/R_S_yt--OkafQ5VFHs_51.mp4	0.0	235.91228890419006	0.16660785675048828
65	175.8119580745697	response	0	2		63.0	2.5	/experiments/knapen_aot/videos/R_S_yt--OkafQ5VFHs_51.mp4	0.0	236.07075595855713	
65	175.82009887695312	movie	1		301.0	63.0	2.5	/experiments/knapen_aot/videos/R_S_yt--OkafQ5VFHs_51.mp4	0.0	236.07889676094055	2.5084362030029297
65	178.32853507995605	fix_post	2		12.0	63.0	2.5	/experiments/knapen_aot/videos/R_S_yt--OkafQ5VFHs_51.mp4	0.0	238.58733296394348	0.09997391700744629
66	178.4285089969635	fix_pre	0		24.0	64.0	2.5	/experiments/knapen_aot/videos/S_yt-_HuBzj8EPBc_62.mp4	0.0	238.68730688095093	0.1999061107635498
66	178.6202359199524	response	0	2		64.0	2.5	/experiments/knapen_aot/videos/S_yt-_HuBzj8EPBc_62.mp4	0.0	238.87903380393982	
66	178.62841510772705	movie	1		301.0	64.0	2.5	/experiments/knapen_aot/videos/S_yt-_HuBzj8EPBc_62.mp4	0.0	238.88721299171448	2.508417844772339
66	181.1368329524994	fix_post	2		12.0	64.0	2.5	/experiments/knapen_aot/videos/S_yt-_HuBzj8EPBc_62.mp4	0.0	241.39563083648682	0.09992194175720215
67	181.2367548942566	fix_pre	0		26.0	65.0	2.5	/experiments/knapen_aot/videos/S_yt-AbJBxqEYoMg_105.mp4	0.0	241.49555277824402	0.21668410301208496
67	181.44526195526123	response	0	2		65.0	2.5	/experiments/knapen_aot/videos/S_yt-AbJBxqEYoMg_105.mp4	0.0	241.70405983924866	
67	181.45343899726868	movie	1		301.0	65.0	2.5	/experiments/knapen_aot/videos/S_yt-AbJBxqEYoMg_105.mp4	0.0	241.7122368812561	2.5083329677581787
67	183.96177196502686	fix_post	2		12.0	65.0	2.5	/experiments/knapen_aot/videos/S_yt-AbJBxqEYoMg_105.mp4	0.0	244.22056984901428	0.09999895095825195
68	184.0617709159851	fix_pre	0		19.0	66.0	2.5	/experiments/knapen_aot/videos/S_comp_GL_G004_C010_PSNK_v04_SDR_PS_FINAL_20180709_SDR_2K_AVC.mp4	0.0	244.32056879997253	0.15833806991577148
68	184.21194195747375	response	0	2		66.0	2.5	/experiments/knapen_aot/videos/S_comp_GL_G004_C010_PSNK_v04_SDR_PS_FINAL_20180709_SDR_2K_AVC.mp4	0.0	244.47073984146118	
68	184.22010898590088	movie	1		168.0	66.0	2.5	/experiments/knapen_aot/videos/S_comp_GL_G004_C010_PSNK_v04_SDR_PS_FINAL_20180709_SDR_2K_AVC.mp4	0.0	244.4789068698883	2.5083470344543457
68	186.72845602035522	fix_post	2		12.0	66.0	2.5	/experiments/knapen_aot/videos/S_comp_GL_G004_C010_PSNK_v04_SDR_PS_FINAL_20180709_SDR_2K_AVC.mp4	0.0	246.98725390434265	0.10000896453857422
69	186.8284649848938	fix_pre	0		3.0	67.0	2.5	/experiments/knapen_aot/videos/R_S_pexels-pavel-danilyuk-8626652.mp4	0.0	247.08726286888123	0.02503490447998047
69	186.84538102149963	response	0	2		67.0	2.5	/experiments/knapen_aot/videos/R_S_pexels-pavel-danilyuk-8626652.mp4	0.0	247.10417890548706	
69	186.85349988937378	movie	1		165.0	67.0	2.5	/experiments/knapen_aot/videos/R_S_pexels-pavel-danilyuk-8626652.mp4	0.0	247.1122977733612	2.50828218460083
69	189.3617820739746	fix_post	2		12.0	67.0	2.5	/experiments/knapen_aot/videos/R_S_pexels-pavel-danilyuk-8626652.mp4	0.0	249.62057995796204	0.09997701644897461
70	189.46175909042358	fix_pre	0		9.0	68.0	2.5	/experiments/knapen_aot/videos/S_comp_DB_D001_C001_PSNK_v06_SDR_PS_20180824_SDR_2K_AVC.mp4	0.0	249.720556974411	0.07502985000610352
70	189.5285348892212	response	0	2		68.0	2.5	/experiments/knapen_aot/videos/S_comp_DB_D001_C001_PSNK_v06_SDR_PS_20180824_SDR_2K_AVC.mp4	0.0	249.78733277320862	
70	189.5367889404297	movie	1		181.0	68.0	2.5	/experiments/knapen_aot/videos/S_comp_DB_D001_C001_PSNK_v06_SDR_PS_20180824_SDR_2K_AVC.mp4	0.0	249.79558682441711	2.5082831382751465
70	192.04507207870483	fix_post	2		12.0	68.0	2.5	/experiments/knapen_aot/videos/S_comp_DB_D001_C001_PSNK_v06_SDR_PS_20180824_SDR_2K_AVC.mp4	0.0	252.30386996269226	0.09998083114624023
70	192.13684391975403	response	2	2		68.0	2.5	/experiments/knapen_aot/videos/S_comp_DB_D001_C001_PSNK_v06_SDR_PS_20180824_SDR_2K_AVC.mp4	0.0	252.39564180374146	
71	192.14505290985107	fix_pre	0		38.0	69.0	2.5	/experiments/knapen_aot/videos/R_S_yt-qE70lj3-A78_228.mp4	0.0	252.4038507938385	0.3180351257324219
71	192.45376110076904	response	0	2		69.0	2.5	/experiments/knapen_aot/videos/R_S_yt-qE70lj3-A78_228.mp4	0.0	252.71255898475647	
71	192.4630880355835	movie	1		301.0	69.0	2.5	/experiments/knapen_aot/videos/R_S_yt-qE70lj3-A78_228.mp4	0.0	252.72188591957092	2.5069398880004883
71	194.97002792358398	fix_post	2		12.0	69.0	2.5	/experiments/knapen_aot/videos/R_S_yt-qE70lj3-A78_228.mp4	0.0	255.2288258075714	0.10002899169921875
72	195.0700569152832	fix_pre	0		28.0	70.0	2.5	blank	1.0	255.32885479927063	0.23334503173828125
72	195.29516196250916	response	0	2		70.0	2.5	blank	1.0	255.55395984649658	
72	195.30340194702148	movie	1		301.0	70.0	2.5	blank	1.0	255.5621998310089	2.508312940597534
72	197.81171488761902	fix_post	2		12.0	70.0	2.5	blank	1.0	258.07051277160645	0.10000205039978027
73	197.9117169380188	fix_pre	0		18.0	71.0	2.5	/experiments/knapen_aot/videos/R_S_yt-etF_WUW5D68_3.mp4	0.0	258.1705148220062	0.14997100830078125
73	198.05351495742798	response	0	2		71.0	2.5	/experiments/knapen_aot/videos/R_S_yt-etF_WUW5D68_3.mp4	0.0	258.3123128414154	
73	198.06168794631958	movie	1		301.0	71.0	2.5	/experiments/knapen_aot/videos/R_S_yt-etF_WUW5D68_3.mp4	0.0	258.320485830307	2.508366107940674
73	200.57005405426025	fix_post	2		12.0	71.0	2.5	/experiments/knapen_aot/videos/R_S_yt-etF_WUW5D68_3.mp4	0.0	260.8288519382477	0.09998893737792969
74	200.67004299163818	fix_pre	0		17.0	72.0	2.5	/experiments/knapen_aot/videos/S_ILSVRC2015_train_00524006.mp4	0.0	260.9288408756256	0.1417219638824463
74	200.80353689193726	response	0	2		72.0	2.5	/experiments/knapen_aot/videos/S_ILSVRC2015_train_00524006.mp4	0.0	261.0623347759247	
74	200.81176495552063	movie	1		301.0	72.0	2.5	/experiments/knapen_aot/videos/S_ILSVRC2015_train_00524006.mp4	0.0	261.07056283950806	2.508255958557129
74	203.32002091407776	fix_post	2		12.0	72.0	2.5	/experiments/knapen_aot/videos/S_ILSVRC2015_train_00524006.mp4	0.0	263.5788187980652	0.10005307197570801
75	203.42007398605347	fix_pre	0		11.0	73.0	2.5	/experiments/knapen_aot/videos/R_S_comp_GL_G004_C010_PSNK_v04_SDR_PS_FINAL_20180709_SDR_2K_AVC.mp4	0.0	263.6788718700409	0.09163808822631836
75	203.5034990310669	response	0	2		73.0	2.5	/experiments/knapen_aot/videos/R_S_comp_GL_G004_C010_PSNK_v04_SDR_PS_FINAL_20180709_SDR_2K_AVC.mp4	0.0	263.7622969150543	
75	203.51171207427979	movie	1		168.0	73.0	2.5	/experiments/knapen_aot/videos/R_S_comp_GL_G004_C010_PSNK_v04_SDR_PS_FINAL_20180709_SDR_2K_AVC.mp4	0.0	263.7705099582672	2.5082759857177734
75	205.99513697624207	response	1	2		73.0	2.5	/experiments/knapen_aot/videos/R_S_comp_GL_G004_C010_PSNK_v04_SDR_PS_FINAL_20180709_SDR_2K_AVC.mp4	0.0	266.2539348602295	
75	206.01998805999756	fix_post	2		12.0	73.0	2.5	/experiments/knapen_aot/videos/R_S_comp_GL_G004_C010_PSNK_v04_SDR_PS_FINAL_20180709_SDR_2K_AVC.mp4	0.0	266.278785943985	0.10005784034729004
76	206.12004590034485	fix_pre	0		24.0	74.0	2.5	/experiments/knapen_aot/videos/R_S_yt-9EnchawJ3pA_90.mp4	0.0	266.3788437843323	0.19997620582580566
76	206.3117320537567	response	0	2		74.0	2.5	/experiments/knapen_aot/videos/R_S_yt-9EnchawJ3pA_90.mp4	0.0	266.57052993774414	
76	206.32002210617065	movie	1		301.0	74.0	2.5	/experiments/knapen_aot/videos/R_S_yt-9EnchawJ3pA_90.mp4	0.0	266.5788199901581	2.5083119869232178
76	208.82833409309387	fix_post	2		12.0	74.0	2.5	/experiments/knapen_aot/videos/R_S_yt-9EnchawJ3pA_90.mp4	0.0	269.0871319770813	0.10013294219970703
77	208.92846703529358	fix_pre	0		21.0	75.0	2.5	blank	1.0	269.187264919281	0.17486190795898438
77	209.09514498710632	response	0	2		75.0	2.5	blank	1.0	269.35394287109375	
77	209.10332894325256	movie	1		301.0	75.0	2.5	blank	1.0	269.36212682724	2.508329153060913
77	211.61165809631348	fix_post	2		12.0	75.0	2.5	blank	1.0	271.8704559803009	0.10000395774841309
78	211.7116620540619	fix_pre	0		14.0	76.0	2.5	/experiments/knapen_aot/videos/S_ILSVRC2015_train_00251004.mp4	0.0	271.9704599380493	0.11660003662109375
78	211.82014298439026	response	0	2		76.0	2.5	/experiments/knapen_aot/videos/S_ILSVRC2015_train_00251004.mp4	0.0	272.0789408683777	
78	211.82826209068298	movie	1		301.0	76.0	2.5	/experiments/knapen_aot/videos/S_ILSVRC2015_train_00251004.mp4	0.0	272.0870599746704	2.508392810821533
78	214.33665490150452	fix_post	2		12.0	76.0	2.5	/experiments/knapen_aot/videos/S_ILSVRC2015_train_00251004.mp4	0.0	274.59545278549194	0.09999608993530273
79	214.43665099143982	fix_pre	0		9.0	77.0	2.5	/experiments/knapen_aot/videos/S_yt-lkpfs_4qAGE_50.mp4	0.0	274.69544887542725	0.07502102851867676
79	214.50341606140137	response	0	2		77.0	2.5	/experiments/knapen_aot/videos/S_yt-lkpfs_4qAGE_50.mp4	0.0	274.7622139453888	
79	214.5116720199585	movie	1		299.0	77.0	2.5	/experiments/knapen_aot/videos/S_yt-lkpfs_4qAGE_50.mp4	0.0	274.7704699039459	2.5083119869232178
79	217.0199840068817	fix_post	2		12.0	77.0	2.5	/experiments/knapen_aot/videos/S_yt-lkpfs_4qAGE_50.mp4	0.0	277.27878189086914	0.1000359058380127
80	217.12001991271973	fix_pre	0		16.0	78.0	2.5	/experiments/knapen_aot/videos/S_yt--OkafQ5VFHs_51.mp4	0.0	277.37881779670715	0.13459515571594238
80	217.2451250553131	response	0	2		78.0	2.5	/experiments/knapen_aot/videos/S_yt--OkafQ5VFHs_51.mp4	0.0	277.50392293930054	
80	217.25461506843567	movie	1		301.0	78.0	2.5	/experiments/knapen_aot/videos/S_yt--OkafQ5VFHs_51.mp4	0.0	277.5134129524231	2.5070760250091553
80	219.76169109344482	fix_post	2		12.0	78.0	2.5	/experiments/knapen_aot/videos/S_yt--OkafQ5VFHs_51.mp4	0.0	280.02048897743225	0.09994983673095703
81	219.86164093017578	fix_pre	0		17.0	79.0	2.5	/experiments/knapen_aot/videos/R_S_yt-l_pvPAznG1A_20.mp4	0.0	280.1204388141632	0.1428070068359375
81	219.99509596824646	response	0	2		79.0	2.5	/experiments/knapen_aot/videos/R_S_yt-l_pvPAznG1A_20.mp4	0.0	280.2538938522339	
81	220.00444793701172	movie	1		301.0	79.0	2.5	/experiments/knapen_aot/videos/R_S_yt-l_pvPAznG1A_20.mp4	0.0	280.26324582099915	2.507220983505249
81	222.51166892051697	fix_post	2		12.0	79.0	2.5	/experiments/knapen_aot/videos/R_S_yt-l_pvPAznG1A_20.mp4	0.0	282.7704668045044	0.0999150276184082
82	222.61158394813538	fix_pre	0		1.0	80.0	2.5	/experiments/knapen_aot/videos/S_yt-0Ut9QANGX20_35.mp4	0.0	282.8703818321228	0.011021137237548828
82	222.61339402198792	response	0	2		80.0	2.5	/experiments/knapen_aot/videos/S_yt-0Ut9QANGX20_35.mp4	0.0	282.87219190597534	
82	222.62260508537292	movie	1		301.0	80.0	2.5	/experiments/knapen_aot/videos/S_yt-0Ut9QANGX20_35.mp4	0.0	282.88140296936035	2.50563383102417
82	225.1282389163971	fix_post	2		12.0	80.0	2.5	/experiments/knapen_aot/videos/S_yt-0Ut9QANGX20_35.mp4	0.0	285.3870368003845	0.09994816780090332
83	225.228187084198	fix_pre	0		27.0	81.0	2.5	/experiments/knapen_aot/videos/R_S_yt-sIXdPhfS67U_203.mp4	0.0	285.4869849681854	0.22504401206970215
83	225.4449589252472	response	0	2		81.0	2.5	/experiments/knapen_aot/videos/R_S_yt-sIXdPhfS67U_203.mp4	0.0	285.7037568092346	
83	225.4532310962677	movie	1		301.0	81.0	2.5	/experiments/knapen_aot/videos/R_S_yt-sIXdPhfS67U_203.mp4	0.0	285.7120289802551	2.508375883102417
83	227.96160697937012	fix_post	2		12.0	81.0	2.5	/experiments/knapen_aot/videos/R_S_yt-sIXdPhfS67U_203.mp4	0.0	288.22040486335754	0.10000801086425781
84	228.06161499023438	fix_pre	0		31.0	82.0	2.5	/experiments/knapen_aot/videos/S_yt-pOCEuqVE7ro_61.mp4	0.0	288.3204128742218	0.2582728862762451
84	228.31174087524414	response	0	2		82.0	2.5	/experiments/knapen_aot/videos/S_yt-pOCEuqVE7ro_61.mp4	0.0	288.57053875923157	
84	228.31988787651062	movie	1		301.0	82.0	2.5	/experiments/knapen_aot/videos/S_yt-pOCEuqVE7ro_61.mp4	0.0	288.57868576049805	2.5083541870117188
84	230.82824206352234	fix_post	2		12.0	82.0	2.5	/experiments/knapen_aot/videos/S_yt-pOCEuqVE7ro_61.mp4	0.0	291.08703994750977	0.10002899169921875
85	230.92827105522156	fix_pre	0		27.0	83.0	2.5	blank	1.0	291.187068939209	0.22492098808288574
85	231.14502906799316	response	0	2		83.0	2.5	blank	1.0	291.4038269519806	
85	231.15319204330444	movie	1		301.0	83.0	2.5	blank	1.0	291.41198992729187	2.5083730220794678
85	233.6615650653839	fix_post	2		12.0	83.0	2.5	blank	1.0	293.92036294937134	0.1000518798828125
87	233.76161694526672	stim	0		207.0					294.02041482925415	1.7289280891418457
87	233.91161608695984	response	0	2						294.17041397094727	
87	235.4816780090332	response	0	space						295.74047589302063	
