trial_nr	onset	event_type	phase	response	nr_frames	movie_index	movie_duration	movie_file	blank	onset_abs	duration
0	0.1320199966430664	stim	0		72.0					66.58276700973511	0.6000370979309082
0	0.7237560749053955	response	0	space						67.17450308799744	
1	0.7320570945739746	stim	0		121.0					67.18280410766602	1.0079729557037354
1	1.0817670822143555	response	0	space						67.5325140953064	
1	1.4484779834747314	response	0	space						67.89922499656677	
1	1.74003005027771	stim	1		120.0					68.19077706336975	0.9999868869781494
1	1.865204095840454	response	1	space						68.3159511089325	
1	2.182671070098877	response	1	space						68.63341808319092	
1	2.498426914215088	response	1	space						68.94917392730713	
2	2.7400169372558594	fix_pre	0		22.0	0.0	2.5	/experiments/knapen_aot/videos/S_yt-bmGWhOCsvJo_128.mp4	0.0	69.1907639503479	0.18329596519470215
2	2.9151110649108887	response	0	space		0.0	2.5	/experiments/knapen_aot/videos/S_yt-bmGWhOCsvJo_128.mp4	0.0	69.36585807800293	
2	2.9233129024505615	movie	1		301.0	0.0	2.5	/experiments/knapen_aot/videos/S_yt-bmGWhOCsvJo_128.mp4	0.0	69.3740599155426	2.5083811283111572
2	3.3152859210968018	response	1	4		0.0	2.5	/experiments/knapen_aot/videos/S_yt-bmGWhOCsvJo_128.mp4	0.0	69.76603293418884	
2	5.431694030761719	fix_post	2		12.0	0.0	2.5	/experiments/knapen_aot/videos/S_yt-bmGWhOCsvJo_128.mp4	0.0	71.88244104385376	0.10006999969482422
3	5.531764030456543	fix_pre	0		18.0	1.0	2.5	/experiments/knapen_aot/videos/S_yt-2V2tq9-O_Nc_1669.mp4	0.0	71.98251104354858	0.14986896514892578
3	5.673520088195801	response	0	4		1.0	2.5	/experiments/knapen_aot/videos/S_yt-2V2tq9-O_Nc_1669.mp4	0.0	72.12426710128784	
3	5.681632995605469	movie	1		301.0	1.0	2.5	/experiments/knapen_aot/videos/S_yt-2V2tq9-O_Nc_1669.mp4	0.0	72.13238000869751	2.508410930633545
3	8.190043926239014	fix_post	2		12.0	1.0	2.5	/experiments/knapen_aot/videos/S_yt-2V2tq9-O_Nc_1669.mp4	0.0	74.64079093933105	0.09995818138122559
4	8.29000210762024	fix_pre	0		11.0	2.0	2.5	/experiments/knapen_aot/videos/S_yt-RVoC19C420Y_27.mp4	0.0	74.74074912071228	0.09164786338806152
4	8.373430967330933	response	0	4		2.0	2.5	/experiments/knapen_aot/videos/S_yt-RVoC19C420Y_27.mp4	0.0	74.82417798042297	
4	8.3816499710083	movie	1		301.0	2.0	2.5	/experiments/knapen_aot/videos/S_yt-RVoC19C420Y_27.mp4	0.0	74.83239698410034	2.508347988128662
4	10.889997959136963	fix_post	2		12.0	2.0	2.5	/experiments/knapen_aot/videos/S_yt-RVoC19C420Y_27.mp4	0.0	77.340744972229	0.09999704360961914
5	10.989995002746582	fix_pre	0		41.0	3.0	2.5	/experiments/knapen_aot/videos/S_production_ID_4121250.mp4	0.0	77.44074201583862	0.3427760601043701
5	11.323468923568726	response	0	4		3.0	2.5	/experiments/knapen_aot/videos/S_production_ID_4121250.mp4	0.0	77.77421593666077	
5	11.332771062850952	movie	1		161.0	3.0	2.5	/experiments/knapen_aot/videos/S_production_ID_4121250.mp4	0.0	77.783518075943	2.507213830947876
5	13.15695309638977	response	1	4		3.0	2.5	/experiments/knapen_aot/videos/S_production_ID_4121250.mp4	0.0	79.60770010948181	
5	13.839984893798828	fix_post	2		12.0	3.0	2.5	/experiments/knapen_aot/videos/S_production_ID_4121250.mp4	0.0	80.29073190689087	0.09995818138122559
5	13.915075063705444	response	2	4		3.0	2.5	/experiments/knapen_aot/videos/S_production_ID_4121250.mp4	0.0	80.36582207679749	
6	13.939943075180054	fix_pre	0		56.0	4.0	2.5	/experiments/knapen_aot/videos/R_S_video-12.mp4	0.0	80.3906900882721	0.4666709899902344
6	14.398394107818604	response	0	4		4.0	2.5	/experiments/knapen_aot/videos/R_S_video-12.mp4	0.0	80.84914112091064	
6	14.406614065170288	movie	1		164.0	4.0	2.5	/experiments/knapen_aot/videos/R_S_video-12.mp4	0.0	80.85736107826233	2.5083160400390625
6	16.91493010520935	fix_post	2		12.0	4.0	2.5	/experiments/knapen_aot/videos/R_S_video-12.mp4	0.0	83.36567711830139	0.09994888305664062
7	17.01487898826599	fix_pre	0		31.0	5.0	2.5	/experiments/knapen_aot/videos/R_S_pexels-cottonbro-6844209.mp4	0.0	83.46562600135803	0.25841403007507324
7	17.26503610610962	response	0	4		5.0	2.5	/experiments/knapen_aot/videos/R_S_pexels-cottonbro-6844209.mp4	0.0	83.71578311920166	
7	17.273293018341064	movie	1		197.0	5.0	2.5	/experiments/knapen_aot/videos/R_S_pexels-cottonbro-6844209.mp4	0.0	83.7240400314331	2.508315086364746
7	19.78160810470581	fix_post	2		12.0	5.0	2.5	/experiments/knapen_aot/videos/R_S_pexels-cottonbro-6844209.mp4	0.0	86.23235511779785	0.10004496574401855
8	19.88165307044983	fix_pre	0		30.0	6.0	2.5	/experiments/knapen_aot/videos/S_yt-QXsedpZh800_275.mp4	0.0	86.33240008354187	0.24991297721862793
8	20.12346887588501	response	0	4		6.0	2.5	/experiments/knapen_aot/videos/S_yt-QXsedpZh800_275.mp4	0.0	86.57421588897705	
8	20.131566047668457	movie	1		301.0	6.0	2.5	/experiments/knapen_aot/videos/S_yt-QXsedpZh800_275.mp4	0.0	86.5823130607605	2.508272886276245
8	22.639838933944702	fix_post	2		12.0	6.0	2.5	/experiments/knapen_aot/videos/S_yt-QXsedpZh800_275.mp4	0.0	89.09058594703674	0.10007095336914062
9	22.739909887313843	fix_pre	0		13.0	7.0	2.5	blank	1.0	89.19065690040588	0.10831904411315918
9	22.832542896270752	response	0	4		7.0	2.5	blank	1.0	89.2832899093628	
9	22.848228931427002	movie	1		301.0	7.0	2.5	blank	1.0	89.29897594451904	2.5083119869232178
9	25.35654091835022	fix_post	2		12.0	7.0	2.5	blank	1.0	91.80728793144226	0.09995913505554199
10	25.45650005340576	fix_pre	0		11.0	8.0	2.5	/experiments/knapen_aot/videos/S_PA_A001_C007_SDR_20190717_SDR_2K_AVC.mp4	0.0	91.9072470664978	0.09164190292358398
10	25.539983987808228	response	0	4		8.0	2.5	/experiments/knapen_aot/videos/S_PA_A001_C007_SDR_20190717_SDR_2K_AVC.mp4	0.0	91.99073100090027	
10	25.548141956329346	movie	1		164.0	8.0	2.5	/experiments/knapen_aot/videos/S_PA_A001_C007_SDR_20190717_SDR_2K_AVC.mp4	0.0	91.99888896942139	2.5084240436553955
10	28.05656599998474	fix_post	2		12.0	8.0	2.5	/experiments/knapen_aot/videos/S_PA_A001_C007_SDR_20190717_SDR_2K_AVC.mp4	0.0	94.50731301307678	0.0999910831451416
11	28.156557083129883	fix_pre	0		11.0	9.0	2.5	/experiments/knapen_aot/videos/R_S_yt-3ohvpS42xug_184.mp4	0.0	94.60730409622192	0.0927579402923584
11	28.24013090133667	response	0	4		9.0	2.5	/experiments/knapen_aot/videos/R_S_yt-3ohvpS42xug_184.mp4	0.0	94.69087791442871	
11	28.24931502342224	movie	1		301.0	9.0	2.5	/experiments/knapen_aot/videos/R_S_yt-3ohvpS42xug_184.mp4	0.0	94.70006203651428	2.5071558952331543
11	29.590041875839233	response	1	4		9.0	2.5	/experiments/knapen_aot/videos/R_S_yt-3ohvpS42xug_184.mp4	0.0	96.04078888893127	
11	30.12436294555664	response	1	4		9.0	2.5	/experiments/knapen_aot/videos/R_S_yt-3ohvpS42xug_184.mp4	0.0	96.57510995864868	
11	30.756470918655396	fix_post	2		12.0	9.0	2.5	/experiments/knapen_aot/videos/R_S_yt-3ohvpS42xug_184.mp4	0.0	97.20721793174744	0.10010004043579102
12	30.856570959091187	fix_pre	0		13.0	10.0	2.5	/experiments/knapen_aot/videos/R_S_yt-rqYMMAU_GJs_91.mp4	0.0	97.30731797218323	0.1082911491394043
12	30.956845998764038	response	0	4		10.0	2.5	/experiments/knapen_aot/videos/R_S_yt-rqYMMAU_GJs_91.mp4	0.0	97.40759301185608	
12	30.96486210823059	movie	1		301.0	10.0	2.5	/experiments/knapen_aot/videos/R_S_yt-rqYMMAU_GJs_91.mp4	0.0	97.41560912132263	2.5083367824554443
12	33.473198890686035	fix_post	2		12.0	10.0	2.5	/experiments/knapen_aot/videos/R_S_yt-rqYMMAU_GJs_91.mp4	0.0	99.92394590377808	0.1000220775604248
13	33.57322096824646	fix_pre	0		39.0	11.0	2.5	/experiments/knapen_aot/videos/S_82eJpVKGnC0_188.mp4	0.0	100.0239679813385	0.32498812675476074
13	33.88996601104736	response	0	4		11.0	2.5	/experiments/knapen_aot/videos/S_82eJpVKGnC0_188.mp4	0.0	100.3407130241394	
13	33.89820909500122	movie	1		301.0	11.0	2.5	/experiments/knapen_aot/videos/S_82eJpVKGnC0_188.mp4	0.0	100.34895610809326	2.5083107948303223
13	36.40651988983154	fix_post	2		12.0	11.0	2.5	/experiments/knapen_aot/videos/S_82eJpVKGnC0_188.mp4	0.0	102.85726690292358	0.09991812705993652
14	36.50643801689148	fix_pre	0		1.0	12.0	2.5	/experiments/knapen_aot/videos/R_S_yt-6B69qmkEdTI_1.mp4	0.0	102.95718502998352	0.008409976959228516
14	36.508140087127686	response	0	4		12.0	2.5	/experiments/knapen_aot/videos/R_S_yt-6B69qmkEdTI_1.mp4	0.0	102.95888710021973	
14	36.51484799385071	movie	1		301.0	12.0	2.5	/experiments/knapen_aot/videos/R_S_yt-6B69qmkEdTI_1.mp4	0.0	102.96559500694275	2.5083510875701904
14	37.931777000427246	response	1	4		12.0	2.5	/experiments/knapen_aot/videos/R_S_yt-6B69qmkEdTI_1.mp4	0.0	104.38252401351929	
14	38.51853799819946	response	1	4		12.0	2.5	/experiments/knapen_aot/videos/R_S_yt-6B69qmkEdTI_1.mp4	0.0	104.9692850112915	
14	38.87438607215881	response	1	4		12.0	2.5	/experiments/knapen_aot/videos/R_S_yt-6B69qmkEdTI_1.mp4	0.0	105.32513308525085	
14	39.0231990814209	fix_post	2		12.0	12.0	2.5	/experiments/knapen_aot/videos/R_S_yt-6B69qmkEdTI_1.mp4	0.0	105.47394609451294	0.10008382797241211
15	39.12328290939331	fix_pre	0		15.0	13.0	2.5	/experiments/knapen_aot/videos/S_ILSVRC2015_train_00495000.mp4	0.0	105.57402992248535	0.1259021759033203
15	39.24001693725586	response	0	4		13.0	2.5	/experiments/knapen_aot/videos/S_ILSVRC2015_train_00495000.mp4	0.0	105.6907639503479	
15	39.24918508529663	movie	1		301.0	13.0	2.5	/experiments/knapen_aot/videos/S_ILSVRC2015_train_00495000.mp4	0.0	105.69993209838867	2.5073418617248535
15	41.756526947021484	fix_post	2		12.0	13.0	2.5	/experiments/knapen_aot/videos/S_ILSVRC2015_train_00495000.mp4	0.0	108.20727396011353	0.10001802444458008
16	41.856544971466064	fix_pre	0		53.0	14.0	2.5	blank	1.0	108.3072919845581	0.44158291816711426
16	42.290014028549194	response	0	4		14.0	2.5	blank	1.0	108.74076104164124	
16	42.29812788963318	movie	1		301.0	14.0	2.5	blank	1.0	108.74887490272522	2.5083870887756348
16	44.80651497840881	fix_post	2		12.0	14.0	2.5	blank	1.0	111.25726199150085	0.10000395774841309
17	44.90651893615723	fix_pre	0		37.0	15.0	2.5	/experiments/knapen_aot/videos/R_S_yt-kNZUFy3cbjQ_9.mp4	0.0	111.35726594924927	0.3083209991455078
17	45.206599950790405	response	0	4		15.0	2.5	/experiments/knapen_aot/videos/R_S_yt-kNZUFy3cbjQ_9.mp4	0.0	111.65734696388245	
17	45.214839935302734	movie	1		301.0	15.0	2.5	/experiments/knapen_aot/videos/R_S_yt-kNZUFy3cbjQ_9.mp4	0.0	111.66558694839478	2.508327007293701
17	47.541096925735474	response	1	4		15.0	2.5	/experiments/knapen_aot/videos/R_S_yt-kNZUFy3cbjQ_9.mp4	0.0	113.99184393882751	
17	47.723166942596436	fix_post	2		12.0	15.0	2.5	/experiments/knapen_aot/videos/R_S_yt-kNZUFy3cbjQ_9.mp4	0.0	114.17391395568848	0.09995794296264648
18	47.82312488555908	fix_pre	0		16.0	16.0	2.5	/experiments/knapen_aot/videos/R_S_yt-mHLTJkMrkZI_143.mp4	0.0	114.27387189865112	0.13428807258605957
18	47.94828391075134	response	0	4		16.0	2.5	/experiments/knapen_aot/videos/R_S_yt-mHLTJkMrkZI_143.mp4	0.0	114.39903092384338	
18	47.95741295814514	movie	1		301.0	16.0	2.5	/experiments/knapen_aot/videos/R_S_yt-mHLTJkMrkZI_143.mp4	0.0	114.40815997123718	2.5074050426483154
18	50.46481800079346	fix_post	2		12.0	16.0	2.5	/experiments/knapen_aot/videos/R_S_yt-mHLTJkMrkZI_143.mp4	0.0	116.9155650138855	0.100006103515625
19	50.56482410430908	fix_pre	0		48.0	17.0	2.5	/experiments/knapen_aot/videos/R_S_yt-bmGWhOCsvJo_128.mp4	0.0	117.01557111740112	0.3999648094177246
19	50.956594944000244	response	0	4		17.0	2.5	/experiments/knapen_aot/videos/R_S_yt-bmGWhOCsvJo_128.mp4	0.0	117.40734195709229	
19	50.96478891372681	movie	1		300.0	17.0	2.5	/experiments/knapen_aot/videos/R_S_yt-bmGWhOCsvJo_128.mp4	0.0	117.41553592681885	2.508329153060913
19	53.47311806678772	fix_post	2		12.0	17.0	2.5	/experiments/knapen_aot/videos/R_S_yt-bmGWhOCsvJo_128.mp4	0.0	119.92386507987976	0.10000896453857422
20	53.573127031326294	fix_pre	0		36.0	18.0	2.5	/experiments/knapen_aot/videos/S_pexels-artem-podrez-5457692.mp4	0.0	120.02387404441833	0.3008749485015869
20	53.86495900154114	response	0	4		18.0	2.5	/experiments/knapen_aot/videos/S_pexels-artem-podrez-5457692.mp4	0.0	120.31570601463318	
20	53.87400197982788	movie	1		161.0	18.0	2.5	/experiments/knapen_aot/videos/S_pexels-artem-podrez-5457692.mp4	0.0	120.32474899291992	2.5073020458221436
20	56.381304025650024	fix_post	2		12.0	18.0	2.5	/experiments/knapen_aot/videos/S_pexels-artem-podrez-5457692.mp4	0.0	122.83205103874207	0.10005688667297363
21	56.481360912323	fix_pre	0		44.0	19.0	2.5	/experiments/knapen_aot/videos/R_S_yt-hZxbKZ1WCVg_24.mp4	0.0	122.93210792541504	0.36669397354125977
21	56.832436084747314	response	0	4		19.0	2.5	/experiments/knapen_aot/videos/R_S_yt-hZxbKZ1WCVg_24.mp4	0.0	123.28318309783936	
21	56.84805488586426	movie	1		301.0	19.0	2.5	/experiments/knapen_aot/videos/R_S_yt-hZxbKZ1WCVg_24.mp4	0.0	123.2988018989563	2.508449077606201
21	59.35650396347046	fix_post	2		12.0	19.0	2.5	/experiments/knapen_aot/videos/R_S_yt-hZxbKZ1WCVg_24.mp4	0.0	125.8072509765625	0.09997200965881348
22	59.45647597312927	fix_pre	0		29.0	20.0	2.5	/experiments/knapen_aot/videos/S_yt-oT4Bq8zYN4E_42.mp4	0.0	125.90722298622131	0.24151897430419922
22	59.68984293937683	response	0	4		20.0	2.5	/experiments/knapen_aot/videos/S_yt-oT4Bq8zYN4E_42.mp4	0.0	126.14058995246887	
22	59.69799494743347	movie	1		301.0	20.0	2.5	/experiments/knapen_aot/videos/S_yt-oT4Bq8zYN4E_42.mp4	0.0	126.14874196052551	2.508289098739624
22	62.206284046173096	fix_post	2		12.0	20.0	2.5	/experiments/knapen_aot/videos/S_yt-oT4Bq8zYN4E_42.mp4	0.0	128.65703105926514	0.10006904602050781
23	62.3063530921936	fix_pre	0		21.0	21.0	2.5	blank	1.0	128.75710010528564	0.17496585845947266
23	62.47315287590027	response	0	4		21.0	2.5	blank	1.0	128.9238998889923	
23	62.481318950653076	movie	1		301.0	21.0	2.5	blank	1.0	128.93206596374512	2.508415937423706
23	64.98973488807678	fix_post	2		12.0	21.0	2.5	blank	1.0	131.44048190116882	0.09999513626098633
24	65.08973002433777	fix_pre	0		208.0	22.0	2.5	/experiments/knapen_aot/videos/R_S_yt-VjTiMtjdjTw_103.mp4	0.0	131.5404770374298	1.7332179546356201
24	66.81485104560852	response	0	4		22.0	2.5	/experiments/knapen_aot/videos/R_S_yt-VjTiMtjdjTw_103.mp4	0.0	133.26559805870056	
24	66.82294797897339	movie	1		301.0	22.0	2.5	/experiments/knapen_aot/videos/R_S_yt-VjTiMtjdjTw_103.mp4	0.0	133.27369499206543	2.5083019733428955
24	69.33124995231628	fix_post	2		12.0	22.0	2.5	/experiments/knapen_aot/videos/R_S_yt-VjTiMtjdjTw_103.mp4	0.0	135.78199696540833	0.10011792182922363
25	69.43136787414551	fix_pre	0		28.0	23.0	2.5	/experiments/knapen_aot/videos/R_S_yt-I2n2eo2zoZs_94.mp4	0.0	135.88211488723755	0.2341320514678955
25	69.65649700164795	response	0	4		23.0	2.5	/experiments/knapen_aot/videos/R_S_yt-I2n2eo2zoZs_94.mp4	0.0	136.10724401474	
25	69.6654999256134	movie	1		299.0	23.0	2.5	/experiments/knapen_aot/videos/R_S_yt-I2n2eo2zoZs_94.mp4	0.0	136.11624693870544	2.5075509548187256
25	72.17305088043213	fix_post	2		12.0	23.0	2.5	/experiments/knapen_aot/videos/R_S_yt-I2n2eo2zoZs_94.mp4	0.0	138.62379789352417	0.09995722770690918
26	72.27300810813904	fix_pre	0		112.0	24.0	2.5	/experiments/knapen_aot/videos/R_S_yt-ZE8Af60eNsI_15.mp4	0.0	138.72375512123108	0.934149980545044
26	73.19065499305725	response	0	4		24.0	2.5	/experiments/knapen_aot/videos/R_S_yt-ZE8Af60eNsI_15.mp4	0.0	139.6414020061493	
26	73.20715808868408	movie	1		301.0	24.0	2.5	/experiments/knapen_aot/videos/R_S_yt-ZE8Af60eNsI_15.mp4	0.0	139.65790510177612	2.5075788497924805
26	75.71473693847656	fix_post	2		12.0	24.0	2.5	/experiments/knapen_aot/videos/R_S_yt-ZE8Af60eNsI_15.mp4	0.0	142.1654839515686	0.0999150276184082
27	75.81465196609497	fix_pre	0		43.0	25.0	2.5	/experiments/knapen_aot/videos/R_S_yt-WrwPgZYBXlA_34.mp4	0.0	142.265398979187	0.35834312438964844
27	76.1647698879242	response	0	4		25.0	2.5	/experiments/knapen_aot/videos/R_S_yt-WrwPgZYBXlA_34.mp4	0.0	142.61551690101624	
27	76.17299509048462	movie	1		301.0	25.0	2.5	/experiments/knapen_aot/videos/R_S_yt-WrwPgZYBXlA_34.mp4	0.0	142.62374210357666	2.508269786834717
27	78.68126487731934	fix_post	2		12.0	25.0	2.5	/experiments/knapen_aot/videos/R_S_yt-WrwPgZYBXlA_34.mp4	0.0	145.13201189041138	0.09994006156921387
28	78.78120493888855	fix_pre	0		49.0	26.0	2.5	blank	1.0	145.2319519519806	0.40843701362609863
28	79.18149304389954	response	0	4		26.0	2.5	blank	1.0	145.63224005699158	
28	79.18964195251465	movie	1		301.0	26.0	2.5	blank	1.0	145.6403889656067	2.5083351135253906
28	81.69797706604004	fix_post	2		12.0	26.0	2.5	blank	1.0	148.14872407913208	0.09999203681945801
28	81.75643801689148	response	2	4		26.0	2.5	blank	1.0	148.20718502998352	
29	81.7979691028595	fix_pre	0		46.0	27.0	2.5	/experiments/knapen_aot/videos/R_S_yt-NLfzvAJgyJ4_120.mp4	0.0	148.24871611595154	0.383314847946167
29	82.1730420589447	response	0	4		27.0	2.5	/experiments/knapen_aot/videos/R_S_yt-NLfzvAJgyJ4_120.mp4	0.0	148.62378907203674	
29	82.18128395080566	movie	1		301.0	27.0	2.5	/experiments/knapen_aot/videos/R_S_yt-NLfzvAJgyJ4_120.mp4	0.0	148.6320309638977	2.508345127105713
29	84.68962907791138	fix_post	2		12.0	27.0	2.5	/experiments/knapen_aot/videos/R_S_yt-NLfzvAJgyJ4_120.mp4	0.0	151.14037609100342	0.09994983673095703
30	84.78957891464233	fix_pre	0		20.0	28.0	2.5	/experiments/knapen_aot/videos/S_pexels-diva-plavalaguna-6985395.mp4	0.0	151.24032592773438	0.16745400428771973
30	84.94068098068237	response	0	4		28.0	2.5	/experiments/knapen_aot/videos/S_pexels-diva-plavalaguna-6985395.mp4	0.0	151.3914279937744	
30	84.95703291893005	movie	1		161.0	28.0	2.5	/experiments/knapen_aot/videos/S_pexels-diva-plavalaguna-6985395.mp4	0.0	151.4077799320221	2.5075900554656982
30	87.46462297439575	fix_post	2		12.0	28.0	2.5	/experiments/knapen_aot/videos/S_pexels-diva-plavalaguna-6985395.mp4	0.0	153.9153699874878	0.09999990463256836
31	87.56462287902832	fix_pre	0		451.0	29.0	2.5	/experiments/knapen_aot/videos/S_video-10.mp4	0.0	154.01536989212036	3.7582812309265137
31	91.31480097770691	response	0	4		29.0	2.5	/experiments/knapen_aot/videos/S_video-10.mp4	0.0	157.76554799079895	
31	91.32290410995483	movie	1		163.0	29.0	2.5	/experiments/knapen_aot/videos/S_video-10.mp4	0.0	157.77365112304688	2.5082499980926514
31	93.83115410804749	fix_post	2		12.0	29.0	2.5	/experiments/knapen_aot/videos/S_video-10.mp4	0.0	160.28190112113953	0.10007596015930176
32	93.93123006820679	fix_pre	0		162.0	30.0	2.5	/experiments/knapen_aot/videos/R_S_PA_A001_C007_SDR_20190717_SDR_2K_AVC.mp4	0.0	160.38197708129883	1.3499720096588135
32	95.27307796478271	response	0	4		30.0	2.5	/experiments/knapen_aot/videos/R_S_PA_A001_C007_SDR_20190717_SDR_2K_AVC.mp4	0.0	161.72382497787476	
32	95.2812020778656	movie	1		165.0	30.0	2.5	/experiments/knapen_aot/videos/R_S_PA_A001_C007_SDR_20190717_SDR_2K_AVC.mp4	0.0	161.73194909095764	2.508293867111206
32	97.7894959449768	fix_post	2		12.0	30.0	2.5	/experiments/knapen_aot/videos/R_S_PA_A001_C007_SDR_20190717_SDR_2K_AVC.mp4	0.0	164.24024295806885	0.10005497932434082
33	97.88955092430115	fix_pre	0		196.0	31.0	2.5	/experiments/knapen_aot/videos/R_S_pexels-kindel-media-7147375.mp4	0.0	164.3402979373932	1.6333119869232178
33	99.51468706130981	response	0	4		31.0	2.5	/experiments/knapen_aot/videos/R_S_pexels-kindel-media-7147375.mp4	0.0	165.96543407440186	
33	99.52286291122437	movie	1		164.0	31.0	2.5	/experiments/knapen_aot/videos/R_S_pexels-kindel-media-7147375.mp4	0.0	165.9736099243164	2.508366107940674
33	102.03122901916504	fix_post	2		12.0	31.0	2.5	/experiments/knapen_aot/videos/R_S_pexels-kindel-media-7147375.mp4	0.0	168.48197603225708	0.1000070571899414
34	102.13123607635498	fix_pre	0		95.0	32.0	2.5	/experiments/knapen_aot/videos/S_yt-Ojy5TMPX8_Q_165.mp4	0.0	168.58198308944702	0.7915768623352051
34	102.91468906402588	response	0	4		32.0	2.5	/experiments/knapen_aot/videos/S_yt-Ojy5TMPX8_Q_165.mp4	0.0	169.36543607711792	
34	102.92281293869019	movie	1		301.0	32.0	2.5	/experiments/knapen_aot/videos/S_yt-Ojy5TMPX8_Q_165.mp4	0.0	169.37355995178223	2.5082850456237793
34	105.43109798431396	fix_post	2		12.0	32.0	2.5	/experiments/knapen_aot/videos/S_yt-Ojy5TMPX8_Q_165.mp4	0.0	171.881844997406	0.10004901885986328
35	105.53114700317383	fix_pre	0		234.0	33.0	2.5	/experiments/knapen_aot/videos/S_ILSVRC2015_train_00251004.mp4	0.0	171.98189401626587	1.9500160217285156
35	107.4730019569397	response	0	4		33.0	2.5	/experiments/knapen_aot/videos/S_ILSVRC2015_train_00251004.mp4	0.0	173.92374897003174	
35	107.48116302490234	movie	1		301.0	33.0	2.5	/experiments/knapen_aot/videos/S_ILSVRC2015_train_00251004.mp4	0.0	173.93191003799438	2.5083489418029785
35	109.3736720085144	response	1	4		33.0	2.5	/experiments/knapen_aot/videos/S_ILSVRC2015_train_00251004.mp4	0.0	175.82441902160645	
35	109.98951196670532	fix_post	2		12.0	33.0	2.5	/experiments/knapen_aot/videos/S_ILSVRC2015_train_00251004.mp4	0.0	176.44025897979736	0.10000896453857422
36	110.0895209312439	fix_pre	0		44.0	34.0	2.5	/experiments/knapen_aot/videos/R_S_yt-83nimFMNhrM_131.mp4	0.0	176.54026794433594	0.3672759532928467
36	110.4479329586029	response	0	4		34.0	2.5	/experiments/knapen_aot/videos/R_S_yt-83nimFMNhrM_131.mp4	0.0	176.89867997169495	
36	110.45679688453674	movie	1		301.0	34.0	2.5	/experiments/knapen_aot/videos/R_S_yt-83nimFMNhrM_131.mp4	0.0	176.90754389762878	2.5077311992645264
36	112.96452808380127	fix_post	2		12.0	34.0	2.5	/experiments/knapen_aot/videos/R_S_yt-83nimFMNhrM_131.mp4	0.0	179.4152750968933	0.10001182556152344
37	113.0645399093628	fix_pre	0		40.0	35.0	2.5	blank	1.0	179.51528692245483	0.3332340717315674
37	113.38965487480164	response	0	4		35.0	2.5	blank	1.0	179.84040188789368	
37	113.39777398109436	movie	1		301.0	35.0	2.5	blank	1.0	179.8485209941864	2.5084080696105957
37	115.90618205070496	fix_post	2		12.0	35.0	2.5	blank	1.0	182.356929063797	0.09997105598449707
38	116.00615310668945	fix_pre	0		255.0	36.0	2.5	/experiments/knapen_aot/videos/S_yt-UPgF4YAHBQY_33.mp4	0.0	182.4569001197815	2.124936819076538
38	118.12294697761536	response	0	4		36.0	2.5	/experiments/knapen_aot/videos/S_yt-UPgF4YAHBQY_33.mp4	0.0	184.5736939907074	
38	118.13108992576599	movie	1		301.0	36.0	2.5	/experiments/knapen_aot/videos/S_yt-UPgF4YAHBQY_33.mp4	0.0	184.58183693885803	2.5083580017089844
38	120.63944792747498	fix_post	2		12.0	36.0	2.5	/experiments/knapen_aot/videos/S_yt-UPgF4YAHBQY_33.mp4	0.0	187.09019494056702	0.10000801086425781
39	120.73945593833923	fix_pre	0		285.0	37.0	2.5	/experiments/knapen_aot/videos/R_S_pexels-c-technical-6809719.mp4	0.0	187.19020295143127	2.3750040531158447
39	123.10620093345642	response	0	4		37.0	2.5	/experiments/knapen_aot/videos/R_S_pexels-c-technical-6809719.mp4	0.0	189.55694794654846	
39	123.11445999145508	movie	1		202.0	37.0	2.5	/experiments/knapen_aot/videos/R_S_pexels-c-technical-6809719.mp4	0.0	189.56520700454712	2.508331060409546
39	125.62279105186462	fix_post	2		12.0	37.0	2.5	/experiments/knapen_aot/videos/R_S_pexels-c-technical-6809719.mp4	0.0	192.07353806495667	0.09998488426208496
40	125.72277593612671	fix_pre	0		493.0	38.0	2.5	/experiments/knapen_aot/videos/R_S_ILSVRC2015_train_00324001.mp4	0.0	192.17352294921875	4.108838081359863
40	129.8228919506073	response	0	4		38.0	2.5	/experiments/knapen_aot/videos/R_S_ILSVRC2015_train_00324001.mp4	0.0	196.27363896369934	
40	129.83161401748657	movie	1		301.0	38.0	2.5	/experiments/knapen_aot/videos/R_S_ILSVRC2015_train_00324001.mp4	0.0	196.2823610305786	2.507762908935547
40	132.33937692642212	fix_post	2		12.0	38.0	2.5	/experiments/knapen_aot/videos/R_S_ILSVRC2015_train_00324001.mp4	0.0	198.79012393951416	0.09999513626098633
41	132.4393720626831	fix_pre	0		262.0	39.0	2.5	/experiments/knapen_aot/videos/S_yt-osz-TXlRdXs_2.mp4	0.0	198.89011907577515	2.1838250160217285
41	134.61455297470093	response	0	4		39.0	2.5	/experiments/knapen_aot/videos/S_yt-osz-TXlRdXs_2.mp4	0.0	201.06529998779297	
41	134.62319707870483	movie	1		301.0	39.0	2.5	/experiments/knapen_aot/videos/S_yt-osz-TXlRdXs_2.mp4	0.0	201.07394409179688	2.5078790187835693
41	137.1310760974884	fix_post	2		12.0	39.0	2.5	/experiments/knapen_aot/videos/S_yt-osz-TXlRdXs_2.mp4	0.0	203.58182311058044	0.10004186630249023
42	137.2311179637909	fix_pre	0		63.0	40.0	2.5	/experiments/knapen_aot/videos/S_ILSVRC2015_train_00761000.mp4	0.0	203.68186497688293	0.5249221324920654
42	137.7478220462799	response	0	4		40.0	2.5	/experiments/knapen_aot/videos/S_ILSVRC2015_train_00761000.mp4	0.0	204.19856905937195	
42	137.75604009628296	movie	1		301.0	40.0	2.5	/experiments/knapen_aot/videos/S_ILSVRC2015_train_00761000.mp4	0.0	204.206787109375	2.5082809925079346
42	140.2643210887909	fix_post	2		12.0	40.0	2.5	/experiments/knapen_aot/videos/S_ILSVRC2015_train_00761000.mp4	0.0	206.71506810188293	0.10000991821289062
43	140.36433100700378	fix_pre	0		3.0	41.0	2.5	/experiments/knapen_aot/videos/S_production_ID_4707837.mp4	0.0	206.81507802009583	0.025005102157592773
43	140.3811900615692	response	0	4		41.0	2.5	/experiments/knapen_aot/videos/S_production_ID_4707837.mp4	0.0	206.83193707466125	
43	140.38933610916138	movie	1		171.0	41.0	2.5	/experiments/knapen_aot/videos/S_production_ID_4707837.mp4	0.0	206.84008312225342	2.508356809616089
43	142.89769291877747	fix_post	2		12.0	41.0	2.5	/experiments/knapen_aot/videos/S_production_ID_4707837.mp4	0.0	209.3484399318695	0.10007309913635254
44	142.99776601791382	fix_pre	0		764.0	42.0	2.5	blank	1.0	209.44851303100586	6.366461992263794
44	149.35613203048706	response	0	4		42.0	2.5	blank	1.0	215.8068790435791	
44	149.3642280101776	movie	1		301.0	42.0	2.5	blank	1.0	215.81497502326965	2.5084569454193115
44	151.87268495559692	fix_post	2		12.0	42.0	2.5	blank	1.0	218.32343196868896	0.10004115104675293
44	151.96448493003845	response	2	4		42.0	2.5	blank	1.0	218.4152319431305	
45	151.97272610664368	fix_pre	0		50.0	43.0	2.5	/experiments/knapen_aot/videos/R_S_yt-EApB0DJ3ECg_119.mp4	0.0	218.42347311973572	0.4166088104248047
45	152.3813180923462	response	0	4		43.0	2.5	/experiments/knapen_aot/videos/R_S_yt-EApB0DJ3ECg_119.mp4	0.0	218.83206510543823	
45	152.38933491706848	movie	1		301.0	43.0	2.5	/experiments/knapen_aot/videos/R_S_yt-EApB0DJ3ECg_119.mp4	0.0	218.84008193016052	2.5082859992980957
45	154.89762091636658	fix_post	2		12.0	43.0	2.5	/experiments/knapen_aot/videos/R_S_yt-EApB0DJ3ECg_119.mp4	0.0	221.34836792945862	0.1004481315612793
46	154.99806904792786	fix_pre	0		11.0	44.0	2.5	/experiments/knapen_aot/videos/S_g201_CA_A016_C002_SDR_20191114_SDR_2K_AVC.mp4	0.0	221.4488160610199	0.0912468433380127
46	155.08106994628906	response	0	4		44.0	2.5	/experiments/knapen_aot/videos/S_g201_CA_A016_C002_SDR_20191114_SDR_2K_AVC.mp4	0.0	221.5318169593811	
46	155.08931589126587	movie	1		163.0	44.0	2.5	/experiments/knapen_aot/videos/S_g201_CA_A016_C002_SDR_20191114_SDR_2K_AVC.mp4	0.0	221.5400629043579	2.5082831382751465
46	157.59759902954102	fix_post	2		12.0	44.0	2.5	/experiments/knapen_aot/videos/S_g201_CA_A016_C002_SDR_20191114_SDR_2K_AVC.mp4	0.0	224.04834604263306	0.1002190113067627
47	157.69781804084778	fix_pre	0		25.0	45.0	2.5	/experiments/knapen_aot/videos/R_S_yt-GBt59U0KUR0_6.mp4	0.0	224.14856505393982	0.2080860137939453
47	157.89774703979492	response	0	4		45.0	2.5	/experiments/knapen_aot/videos/R_S_yt-GBt59U0KUR0_6.mp4	0.0	224.34849405288696	
47	157.90590405464172	movie	1		301.0	45.0	2.5	/experiments/knapen_aot/videos/R_S_yt-GBt59U0KUR0_6.mp4	0.0	224.35665106773376	2.508291006088257
47	160.41419506072998	fix_post	2		12.0	45.0	2.5	/experiments/knapen_aot/videos/R_S_yt-GBt59U0KUR0_6.mp4	0.0	226.86494207382202	0.10004901885986328
48	160.51424407958984	fix_pre	0		31.0	46.0	2.5	/experiments/knapen_aot/videos/S_yt-Wf-RauSbVgA_56.mp4	0.0	226.96499109268188	0.2583580017089844
48	160.76437091827393	response	0	4		46.0	2.5	/experiments/knapen_aot/videos/S_yt-Wf-RauSbVgA_56.mp4	0.0	227.21511793136597	
48	160.77260208129883	movie	1		301.0	46.0	2.5	/experiments/knapen_aot/videos/S_yt-Wf-RauSbVgA_56.mp4	0.0	227.22334909439087	2.5083258152008057
48	163.28092789649963	fix_post	2		12.0	46.0	2.5	/experiments/knapen_aot/videos/S_yt-Wf-RauSbVgA_56.mp4	0.0	229.73167490959167	0.10001707077026367
49	163.3809449672699	fix_pre	0		33.0	47.0	2.5	/experiments/knapen_aot/videos/S_wc-8bTJmWfuVyJ4_8.mp4	0.0	229.83169198036194	0.2749900817871094
49	163.64773392677307	response	0	4		47.0	2.5	/experiments/knapen_aot/videos/S_wc-8bTJmWfuVyJ4_8.mp4	0.0	230.0984809398651	
49	163.655935049057	movie	1		163.0	47.0	2.5	/experiments/knapen_aot/videos/S_wc-8bTJmWfuVyJ4_8.mp4	0.0	230.10668206214905	2.5083868503570557
49	166.16432189941406	fix_post	2		12.0	47.0	2.5	/experiments/knapen_aot/videos/S_wc-8bTJmWfuVyJ4_8.mp4	0.0	232.6150689125061	0.09994006156921387
50	166.26426196098328	fix_pre	0		87.0	48.0	2.5	blank	1.0	232.71500897407532	0.7250161170959473
50	166.98108792304993	response	0	4		48.0	2.5	blank	1.0	233.43183493614197	
50	166.98927807807922	movie	1		301.0	48.0	2.5	blank	1.0	233.44002509117126	2.508309841156006
50	169.49758791923523	fix_post	2		12.0	48.0	2.5	blank	1.0	235.94833493232727	0.10003018379211426
51	169.59761810302734	fix_pre	0		46.0	49.0	2.5	/experiments/knapen_aot/videos/R_S_yt-8y7Xhp2_2e0_168.mp4	0.0	236.04836511611938	0.38329386711120605
51	169.97269487380981	response	0	4		49.0	2.5	/experiments/knapen_aot/videos/R_S_yt-8y7Xhp2_2e0_168.mp4	0.0	236.42344188690186	
51	169.98091197013855	movie	1		301.0	49.0	2.5	/experiments/knapen_aot/videos/R_S_yt-8y7Xhp2_2e0_168.mp4	0.0	236.4316589832306	2.5083229541778564
51	172.4892349243164	fix_post	2		12.0	49.0	2.5	/experiments/knapen_aot/videos/R_S_yt-8y7Xhp2_2e0_168.mp4	0.0	238.93998193740845	0.10012698173522949
52	172.58936190605164	fix_pre	0		618.0	50.0	2.5	/experiments/knapen_aot/videos/R_S_yt-Ojy5TMPX8_Q_165.mp4	0.0	239.04010891914368	5.149780988693237
52	177.7309970855713	response	0	4		50.0	2.5	/experiments/knapen_aot/videos/R_S_yt-Ojy5TMPX8_Q_165.mp4	0.0	244.18174409866333	
52	177.73914289474487	movie	1		300.0	50.0	2.5	/experiments/knapen_aot/videos/R_S_yt-Ojy5TMPX8_Q_165.mp4	0.0	244.1898899078369	2.5083651542663574
52	180.24750804901123	fix_post	2		12.0	50.0	2.5	/experiments/knapen_aot/videos/R_S_yt-Ojy5TMPX8_Q_165.mp4	0.0	246.69825506210327	0.10003185272216797
53	180.3475399017334	fix_pre	0		195.0	51.0	2.5	/experiments/knapen_aot/videos/R_S_yt-Ev39pXXfr1Y_152.mp4	0.0	246.79828691482544	1.6249511241912842
53	181.96434593200684	response	0	4		51.0	2.5	/experiments/knapen_aot/videos/R_S_yt-Ev39pXXfr1Y_152.mp4	0.0	248.41509294509888	
53	181.97249102592468	movie	1		301.0	51.0	2.5	/experiments/knapen_aot/videos/R_S_yt-Ev39pXXfr1Y_152.mp4	0.0	248.42323803901672	2.508388042449951
53	184.48087906837463	fix_post	2		12.0	51.0	2.5	/experiments/knapen_aot/videos/R_S_yt-Ev39pXXfr1Y_152.mp4	0.0	250.93162608146667	0.09999799728393555
54	184.58087706565857	fix_pre	0		116.0	52.0	2.5	/experiments/knapen_aot/videos/S_yt-s2tZ2NIQrxg_175.mp4	0.0	251.0316240787506	0.9666788578033447
54	185.5393569469452	response	0	4		52.0	2.5	/experiments/knapen_aot/videos/S_yt-s2tZ2NIQrxg_175.mp4	0.0	251.99010396003723	
54	185.5475559234619	movie	1		301.0	52.0	2.5	/experiments/knapen_aot/videos/S_yt-s2tZ2NIQrxg_175.mp4	0.0	251.99830293655396	2.5082480907440186
54	188.05580401420593	fix_post	2		12.0	52.0	2.5	/experiments/knapen_aot/videos/S_yt-s2tZ2NIQrxg_175.mp4	0.0	254.50655102729797	0.1000359058380127
55	188.15583992004395	fix_pre	0		374.0	53.0	2.5	/experiments/knapen_aot/videos/R_S_yt-Fci3dBzt2T4_223.mp4	0.0	254.606586933136	3.1166110038757324
55	191.26430201530457	response	0	4		53.0	2.5	/experiments/knapen_aot/videos/R_S_yt-Fci3dBzt2T4_223.mp4	0.0	257.7150490283966	
55	191.27245092391968	movie	1		301.0	53.0	2.5	/experiments/knapen_aot/videos/R_S_yt-Fci3dBzt2T4_223.mp4	0.0	257.7231979370117	2.508352041244507
55	193.78080296516418	fix_post	2		12.0	53.0	2.5	/experiments/knapen_aot/videos/R_S_yt-Fci3dBzt2T4_223.mp4	0.0	260.2315499782562	0.1000220775604248
56	193.8808250427246	fix_pre	0		43.0	54.0	2.5	/experiments/knapen_aot/videos/S_yt-8RmEimCI80g_35.mp4	0.0	260.33157205581665	0.3582918643951416
56	194.23096203804016	response	0	4		54.0	2.5	/experiments/knapen_aot/videos/S_yt-8RmEimCI80g_35.mp4	0.0	260.6817090511322	
56	194.23911690711975	movie	1		301.0	54.0	2.5	/experiments/knapen_aot/videos/S_yt-8RmEimCI80g_35.mp4	0.0	260.6898639202118	2.5085701942443848
56	196.74768710136414	fix_post	2		12.0	54.0	2.5	/experiments/knapen_aot/videos/S_yt-8RmEimCI80g_35.mp4	0.0	263.1984341144562	0.09974193572998047
57	196.84742903709412	fix_pre	0		37.0	55.0	2.5	blank	1.0	263.29817605018616	0.3082718849182129
57	197.14755010604858	response	0	4		55.0	2.5	blank	1.0	263.5982971191406	
57	197.15570092201233	movie	1		300.0	55.0	2.5	blank	1.0	263.60644793510437	2.5085651874542236
57	199.66426610946655	fix_post	2		12.0	55.0	2.5	blank	1.0	266.1150131225586	0.09984588623046875
58	199.76411199569702	fix_pre	0		24.0	56.0	2.5	/experiments/knapen_aot/videos/R_S_ILSVRC2015_train_00251005.mp4	0.0	266.21485900878906	0.19999003410339355
58	199.95592498779297	response	0	4		56.0	2.5	/experiments/knapen_aot/videos/R_S_ILSVRC2015_train_00251005.mp4	0.0	266.406672000885	
58	199.96410202980042	movie	1		301.0	56.0	2.5	/experiments/knapen_aot/videos/R_S_ILSVRC2015_train_00251005.mp4	0.0	266.41484904289246	2.5083930492401123
58	202.47249507904053	fix_post	2		12.0	56.0	2.5	/experiments/knapen_aot/videos/R_S_ILSVRC2015_train_00251005.mp4	0.0	268.92324209213257	0.09991788864135742
59	202.57241296768188	fix_pre	0		26.0	57.0	2.5	/experiments/knapen_aot/videos/S_yt-t8NfuFA7OlM_26.mp4	0.0	269.0231599807739	0.21680212020874023
59	202.77334690093994	response	0	4		57.0	2.5	/experiments/knapen_aot/videos/S_yt-t8NfuFA7OlM_26.mp4	0.0	269.224093914032	
59	202.78921508789062	movie	1		301.0	57.0	2.5	/experiments/knapen_aot/videos/S_yt-t8NfuFA7OlM_26.mp4	0.0	269.23996210098267	2.5082099437713623
59	205.297425031662	fix_post	2		12.0	57.0	2.5	/experiments/knapen_aot/videos/S_yt-t8NfuFA7OlM_26.mp4	0.0	271.748172044754	0.10002398490905762
60	205.39744901657104	fix_pre	0		57.0	58.0	2.5	/experiments/knapen_aot/videos/R_S_ILSVRC2015_train_00067003.mp4	0.0	271.8481960296631	0.4750349521636963
60	205.864275932312	response	0	4		58.0	2.5	/experiments/knapen_aot/videos/R_S_ILSVRC2015_train_00067003.mp4	0.0	272.31502294540405	
60	205.87248396873474	movie	1		301.0	58.0	2.5	/experiments/knapen_aot/videos/R_S_ILSVRC2015_train_00067003.mp4	0.0	272.3232309818268	2.5081629753112793
60	208.38064694404602	fix_post	2		12.0	58.0	2.5	/experiments/knapen_aot/videos/R_S_ILSVRC2015_train_00067003.mp4	0.0	274.83139395713806	0.10004997253417969
61	208.4806969165802	fix_pre	0		87.0	59.0	2.5	/experiments/knapen_aot/videos/S_yt-GWOOQZ19-oU_331.mp4	0.0	274.93144392967224	0.7250940799713135
61	209.1975588798523	response	0	4		59.0	2.5	/experiments/knapen_aot/videos/S_yt-GWOOQZ19-oU_331.mp4	0.0	275.64830589294434	
61	209.2057909965515	movie	1		300.0	59.0	2.5	/experiments/knapen_aot/videos/S_yt-GWOOQZ19-oU_331.mp4	0.0	275.65653800964355	2.5082180500030518
61	211.71400904655457	fix_post	2		12.0	59.0	2.5	/experiments/knapen_aot/videos/S_yt-GWOOQZ19-oU_331.mp4	0.0	278.1647560596466	0.10008788108825684
62	211.81409692764282	fix_pre	0		1.0	60.0	2.5	/experiments/knapen_aot/videos/S_comp_C001_C005_PS_v01_SDR_PS_20180925_SDR_2K_AVC.mp4	0.0	278.26484394073486	0.009838104248046875
62	211.8071038722992	response	0	4		60.0	2.5	/experiments/knapen_aot/videos/S_comp_C001_C005_PS_v01_SDR_PS_20180925_SDR_2K_AVC.mp4	0.0	278.25785088539124	
62	211.82393503189087	movie	1		168.0	60.0	2.5	/experiments/knapen_aot/videos/S_comp_C001_C005_PS_v01_SDR_PS_20180925_SDR_2K_AVC.mp4	0.0	278.2746820449829	2.506891965866089
62	214.33082699775696	fix_post	2		12.0	60.0	2.5	/experiments/knapen_aot/videos/S_comp_C001_C005_PS_v01_SDR_PS_20180925_SDR_2K_AVC.mp4	0.0	280.781574010849	0.09986591339111328
63	214.43069291114807	fix_pre	0		287.0	61.0	2.5	/experiments/knapen_aot/videos/R_S_comp_C001_C005_PS_v01_SDR_PS_20180925_SDR_2K_AVC.mp4	0.0	280.8814399242401	2.391662120819092
63	216.8141610622406	response	0	4		61.0	2.5	/experiments/knapen_aot/videos/R_S_comp_C001_C005_PS_v01_SDR_PS_20180925_SDR_2K_AVC.mp4	0.0	283.26490807533264	
63	216.82235503196716	movie	1		173.0	61.0	2.5	/experiments/knapen_aot/videos/R_S_comp_C001_C005_PS_v01_SDR_PS_20180925_SDR_2K_AVC.mp4	0.0	283.2731020450592	2.508394956588745
63	218.40589308738708	response	1	4		61.0	2.5	/experiments/knapen_aot/videos/R_S_comp_C001_C005_PS_v01_SDR_PS_20180925_SDR_2K_AVC.mp4	0.0	284.8566401004791	
63	219.3307499885559	fix_post	2		12.0	61.0	2.5	/experiments/knapen_aot/videos/R_S_comp_C001_C005_PS_v01_SDR_PS_20180925_SDR_2K_AVC.mp4	0.0	285.78149700164795	0.10000300407409668
64	219.43075299263	fix_pre	0		57.0	62.0	2.5	blank	1.0	285.88150000572205	0.4748959541320801
64	219.89749598503113	response	0	4		62.0	2.5	blank	1.0	286.34824299812317	
64	219.90564894676208	movie	1		301.0	62.0	2.5	blank	1.0	286.3563959598541	2.508423089981079
64	222.41407203674316	fix_post	2		12.0	62.0	2.5	blank	1.0	288.8648190498352	0.09996199607849121
65	222.51403403282166	fix_pre	0		73.0	63.0	2.5	/experiments/knapen_aot/videos/R_S_yt-8fQ9LaF8U10_382.mp4	0.0	288.9647810459137	0.6083738803863525
65	223.10671210289001	response	0	4		63.0	2.5	/experiments/knapen_aot/videos/R_S_yt-8fQ9LaF8U10_382.mp4	0.0	289.55745911598206	
65	223.122407913208	movie	1		301.0	63.0	2.5	/experiments/knapen_aot/videos/R_S_yt-8fQ9LaF8U10_382.mp4	0.0	289.57315492630005	2.5082969665527344
65	225.63070487976074	fix_post	2		12.0	63.0	2.5	/experiments/knapen_aot/videos/R_S_yt-8fQ9LaF8U10_382.mp4	0.0	292.0814518928528	0.10000419616699219
66	225.73070907592773	fix_pre	0		69.0	64.0	2.5	/experiments/knapen_aot/videos/R_S_ILSVRC2015_train_00251004.mp4	0.0	292.1814560890198	0.5748748779296875
66	226.29752707481384	response	0	4		64.0	2.5	/experiments/knapen_aot/videos/R_S_ILSVRC2015_train_00251004.mp4	0.0	292.7482740879059	
66	226.30558395385742	movie	1		301.0	64.0	2.5	/experiments/knapen_aot/videos/R_S_ILSVRC2015_train_00251004.mp4	0.0	292.75633096694946	2.5083930492401123
66	228.81397700309753	fix_post	2		12.0	64.0	2.5	/experiments/knapen_aot/videos/R_S_ILSVRC2015_train_00251004.mp4	0.0	295.2647240161896	0.10005593299865723
67	228.9140329360962	fix_pre	0		347.0	65.0	2.5	/experiments/knapen_aot/videos/R_S_ILSVRC2015_train_00219004.mp4	0.0	295.36477994918823	2.891541004180908
67	231.79754495620728	response	0	4		65.0	2.5	/experiments/knapen_aot/videos/R_S_ILSVRC2015_train_00219004.mp4	0.0	298.2482919692993	
67	231.8055739402771	movie	1		301.0	65.0	2.5	/experiments/knapen_aot/videos/R_S_ILSVRC2015_train_00219004.mp4	0.0	298.25632095336914	2.5083460807800293
67	234.31392002105713	fix_post	2		12.0	65.0	2.5	/experiments/knapen_aot/videos/R_S_ILSVRC2015_train_00219004.mp4	0.0	300.76466703414917	0.10007691383361816
68	234.41399693489075	fix_pre	0		27.0	66.0	2.5	/experiments/knapen_aot/videos/S_yt-8vm83GUgYxI_1.mp4	0.0	300.8647439479828	0.22495698928833008
68	234.63075304031372	response	0	4		66.0	2.5	/experiments/knapen_aot/videos/S_yt-8vm83GUgYxI_1.mp4	0.0	301.08150005340576	
68	234.63895392417908	movie	1		301.0	66.0	2.5	/experiments/knapen_aot/videos/S_yt-8vm83GUgYxI_1.mp4	0.0	301.0897009372711	2.508409023284912
68	237.147362947464	fix_post	2		12.0	66.0	2.5	/experiments/knapen_aot/videos/S_yt-8vm83GUgYxI_1.mp4	0.0	303.59810996055603	0.10001897811889648
69	237.24738192558289	fix_pre	0		36.0	67.0	2.5	/experiments/knapen_aot/videos/R_S_yt-nYi_FfCjepk_74.mp4	0.0	303.6981289386749	0.29996204376220703
69	237.53915810585022	response	0	4		67.0	2.5	/experiments/knapen_aot/videos/R_S_yt-nYi_FfCjepk_74.mp4	0.0	303.98990511894226	
69	237.5473439693451	movie	1		300.0	67.0	2.5	/experiments/knapen_aot/videos/R_S_yt-nYi_FfCjepk_74.mp4	0.0	303.99809098243713	2.5083250999450684
69	238.10148310661316	response	1	4		67.0	2.5	/experiments/knapen_aot/videos/R_S_yt-nYi_FfCjepk_74.mp4	0.0	304.5522301197052	
69	240.05566906929016	fix_post	2		12.0	67.0	2.5	/experiments/knapen_aot/videos/R_S_yt-nYi_FfCjepk_74.mp4	0.0	306.5064160823822	0.09996390342712402
70	240.15563297271729	fix_pre	0		69.0	68.0	2.5	/experiments/knapen_aot/videos/S_yt-FoO02U39gy4_398.mp4	0.0	306.6063799858093	0.5749590396881104
70	240.72239589691162	response	0	4		68.0	2.5	/experiments/knapen_aot/videos/S_yt-FoO02U39gy4_398.mp4	0.0	307.17314291000366	
70	240.7305920124054	movie	1		301.0	68.0	2.5	/experiments/knapen_aot/videos/S_yt-FoO02U39gy4_398.mp4	0.0	307.18133902549744	2.5083489418029785
70	243.23894095420837	fix_post	2		12.0	68.0	2.5	/experiments/knapen_aot/videos/S_yt-FoO02U39gy4_398.mp4	0.0	309.6896879673004	0.10004401206970215
71	243.33898496627808	fix_pre	0		64.0	69.0	2.5	/experiments/knapen_aot/videos/R_S_pexels-artem-podrez-5457692.mp4	0.0	309.7897319793701	0.5332400798797607
71	243.85650300979614	response	0	4		69.0	2.5	/experiments/knapen_aot/videos/R_S_pexels-artem-podrez-5457692.mp4	0.0	310.3072500228882	
71	243.87222504615784	movie	1		163.0	69.0	2.5	/experiments/knapen_aot/videos/R_S_pexels-artem-podrez-5457692.mp4	0.0	310.3229720592499	2.5083889961242676
71	244.99743700027466	response	1	4		69.0	2.5	/experiments/knapen_aot/videos/R_S_pexels-artem-podrez-5457692.mp4	0.0	311.4481840133667	
71	246.3806140422821	fix_post	2		12.0	69.0	2.5	/experiments/knapen_aot/videos/R_S_pexels-artem-podrez-5457692.mp4	0.0	312.83136105537415	0.10000205039978027
72	246.48061609268188	fix_pre	0		43.0	70.0	2.5	blank	1.0	312.9313631057739	0.3582890033721924
72	246.83073496818542	response	0	4		70.0	2.5	blank	1.0	313.28148198127747	
72	246.83890509605408	movie	1		301.0	70.0	2.5	blank	1.0	313.2896521091461	2.5083467960357666
72	249.0222508907318	response	1	4		70.0	2.5	blank	1.0	315.47299790382385	
72	249.34725189208984	fix_post	2		12.0	70.0	2.5	blank	1.0	315.7979989051819	0.09994101524353027
73	249.44719290733337	fix_pre	0		38.0	71.0	2.5	/experiments/knapen_aot/videos/S_yt-2SVpSaBAxsw_78.mp4	0.0	315.8979399204254	0.31675100326538086
73	249.7557110786438	response	0	4		71.0	2.5	/experiments/knapen_aot/videos/S_yt-2SVpSaBAxsw_78.mp4	0.0	316.20645809173584	
73	249.76394391059875	movie	1		301.0	71.0	2.5	/experiments/knapen_aot/videos/S_yt-2SVpSaBAxsw_78.mp4	0.0	316.2146909236908	2.5083160400390625
73	252.27225995063782	fix_post	2		12.0	71.0	2.5	/experiments/knapen_aot/videos/S_yt-2SVpSaBAxsw_78.mp4	0.0	318.72300696372986	0.10005593299865723
74	252.37231588363647	fix_pre	0		53.0	72.0	2.5	/experiments/knapen_aot/videos/S_yt-VjTiMtjdjTw_103.mp4	0.0	318.8230628967285	0.441561222076416
74	252.8057599067688	response	0	4		72.0	2.5	/experiments/knapen_aot/videos/S_yt-VjTiMtjdjTw_103.mp4	0.0	319.25650691986084	
74	252.8138771057129	movie	1		300.0	72.0	2.5	/experiments/knapen_aot/videos/S_yt-VjTiMtjdjTw_103.mp4	0.0	319.26462411880493	2.508333921432495
74	255.32221102714539	fix_post	2		12.0	72.0	2.5	/experiments/knapen_aot/videos/S_yt-VjTiMtjdjTw_103.mp4	0.0	321.7729580402374	0.10005402565002441
75	255.4222650527954	fix_pre	0		27.0	73.0	2.5	/experiments/knapen_aot/videos/S_pexels-pavel-danilyuk-8057714.mp4	0.0	321.87301206588745	0.22496891021728516
75	255.63900804519653	response	0	4		73.0	2.5	/experiments/knapen_aot/videos/S_pexels-pavel-danilyuk-8057714.mp4	0.0	322.0897550582886	
75	255.6472339630127	movie	1		167.0	73.0	2.5	/experiments/knapen_aot/videos/S_pexels-pavel-danilyuk-8057714.mp4	0.0	322.09798097610474	2.5083160400390625
75	256.3063590526581	response	1	4		73.0	2.5	/experiments/knapen_aot/videos/S_pexels-pavel-danilyuk-8057714.mp4	0.0	322.7571060657501	
75	258.15555000305176	fix_post	2		12.0	73.0	2.5	/experiments/knapen_aot/videos/S_pexels-pavel-danilyuk-8057714.mp4	0.0	324.6062970161438	0.09999203681945801
76	258.2555420398712	fix_pre	0		31.0	74.0	2.5	/experiments/knapen_aot/videos/R_S_yt-0MB_IYX1fgo_44.mp4	0.0	324.70628905296326	0.258328914642334
76	258.4981620311737	response	0	4		74.0	2.5	/experiments/knapen_aot/videos/R_S_yt-0MB_IYX1fgo_44.mp4	0.0	324.94890904426575	
76	258.51387095451355	movie	1		301.0	74.0	2.5	/experiments/knapen_aot/videos/R_S_yt-0MB_IYX1fgo_44.mp4	0.0	324.9646179676056	2.508204936981201
76	261.02207589149475	fix_post	2		12.0	74.0	2.5	/experiments/knapen_aot/videos/R_S_yt-0MB_IYX1fgo_44.mp4	0.0	327.4728229045868	0.10008907318115234
77	261.1221649646759	fix_pre	0		68.0	75.0	2.5	/experiments/knapen_aot/videos/R_S_yt-nQu-PAXBv2g_5.mp4	0.0	327.57291197776794	0.5666720867156982
77	261.680615901947	response	0	4		75.0	2.5	/experiments/knapen_aot/videos/R_S_yt-nQu-PAXBv2g_5.mp4	0.0	328.13136291503906	
77	261.6888370513916	movie	1		301.0	75.0	2.5	/experiments/knapen_aot/videos/R_S_yt-nQu-PAXBv2g_5.mp4	0.0	328.13958406448364	2.508314847946167
77	264.19715189933777	fix_post	2		12.0	75.0	2.5	/experiments/knapen_aot/videos/R_S_yt-nQu-PAXBv2g_5.mp4	0.0	330.6478989124298	0.10001015663146973
78	264.29716205596924	fix_pre	0		38.0	76.0	2.5	blank	1.0	330.7479090690613	0.31665802001953125
78	264.60574102401733	response	0	4		76.0	2.5	blank	1.0	331.0564880371094	
78	264.61382007598877	movie	1		301.0	76.0	2.5	blank	1.0	331.0645670890808	2.508316993713379
78	265.46387696266174	response	1	4		76.0	2.5	blank	1.0	331.9146239757538	
78	267.12213706970215	fix_post	2		12.0	76.0	2.5	blank	1.0	333.5728840827942	0.10003280639648438
79	267.22216987609863	fix_pre	0		46.0	77.0	2.5	/experiments/knapen_aot/videos/R_S_yt-OFbbvxTLrtM_132.mp4	0.0	333.6729168891907	0.38329315185546875
79	267.5972819328308	response	0	4		77.0	2.5	/experiments/knapen_aot/videos/R_S_yt-OFbbvxTLrtM_132.mp4	0.0	334.04802894592285	
79	267.6054630279541	movie	1		300.0	77.0	2.5	/experiments/knapen_aot/videos/R_S_yt-OFbbvxTLrtM_132.mp4	0.0	334.05621004104614	2.5083210468292236
79	270.1137840747833	fix_post	2		12.0	77.0	2.5	/experiments/knapen_aot/videos/R_S_yt-OFbbvxTLrtM_132.mp4	0.0	336.56453108787537	0.09998798370361328
80	270.21377205848694	fix_pre	0		49.0	78.0	2.5	/experiments/knapen_aot/videos/S_pexels-koolshooters-7689098.mp4	0.0	336.664519071579	0.40828585624694824
80	270.6139268875122	response	0	4		78.0	2.5	/experiments/knapen_aot/videos/S_pexels-koolshooters-7689098.mp4	0.0	337.06467390060425	
80	270.6220579147339	movie	1		170.0	78.0	2.5	/experiments/knapen_aot/videos/S_pexels-koolshooters-7689098.mp4	0.0	337.0728049278259	2.5083611011505127
80	272.0056688785553	response	1	4		78.0	2.5	/experiments/knapen_aot/videos/S_pexels-koolshooters-7689098.mp4	0.0	338.45641589164734	
80	273.1304190158844	fix_post	2		12.0	78.0	2.5	/experiments/knapen_aot/videos/S_pexels-koolshooters-7689098.mp4	0.0	339.58116602897644	0.10004186630249023
81	273.2304608821869	fix_pre	0		5.0	79.0	2.5	/experiments/knapen_aot/videos/R_S_yt-ZYrQIw9VUok_111.mp4	0.0	339.68120789527893	0.044251203536987305
81	273.26452803611755	response	0	4		79.0	2.5	/experiments/knapen_aot/videos/R_S_yt-ZYrQIw9VUok_111.mp4	0.0	339.7152750492096	
81	273.2747120857239	movie	1		301.0	79.0	2.5	/experiments/knapen_aot/videos/R_S_yt-ZYrQIw9VUok_111.mp4	0.0	339.7254590988159	2.505750894546509
81	273.6498119831085	response	1	4		79.0	2.5	/experiments/knapen_aot/videos/R_S_yt-ZYrQIw9VUok_111.mp4	0.0	340.10055899620056	
81	275.7804629802704	fix_post	2		12.0	79.0	2.5	/experiments/knapen_aot/videos/R_S_yt-ZYrQIw9VUok_111.mp4	0.0	342.2312099933624	0.10000395774841309
82	275.8804669380188	fix_pre	0		34.0	80.0	2.5	/experiments/knapen_aot/videos/S_yt--C2DDZ7LOQA_95.mp4	0.0	342.33121395111084	0.28333115577697754
82	276.1555678844452	response	0	4		80.0	2.5	/experiments/knapen_aot/videos/S_yt--C2DDZ7LOQA_95.mp4	0.0	342.60631489753723	
82	276.1637980937958	movie	1		301.0	80.0	2.5	/experiments/knapen_aot/videos/S_yt--C2DDZ7LOQA_95.mp4	0.0	342.6145451068878	2.5083298683166504
82	276.53911995887756	response	1	4		80.0	2.5	/experiments/knapen_aot/videos/S_yt--C2DDZ7LOQA_95.mp4	0.0	342.9898669719696	
82	276.8472020626068	response	1	4		80.0	2.5	/experiments/knapen_aot/videos/S_yt--C2DDZ7LOQA_95.mp4	0.0	343.29794907569885	
82	278.11517310142517	response	1	4		80.0	2.5	/experiments/knapen_aot/videos/S_yt--C2DDZ7LOQA_95.mp4	0.0	344.5659201145172	
82	278.6721279621124	fix_post	2		12.0	80.0	2.5	/experiments/knapen_aot/videos/S_yt--C2DDZ7LOQA_95.mp4	0.0	345.12287497520447	0.09993505477905273
83	278.7720630168915	fix_pre	0		28.0	81.0	2.5	/experiments/knapen_aot/videos/S_yt-LB9LoYfH_EA_15.mp4	0.0	345.2228100299835	0.2333240509033203
83	278.9972200393677	response	0	4		81.0	2.5	/experiments/knapen_aot/videos/S_yt-LB9LoYfH_EA_15.mp4	0.0	345.4479670524597	
83	279.0053870677948	movie	1		300.0	81.0	2.5	/experiments/knapen_aot/videos/S_yt-LB9LoYfH_EA_15.mp4	0.0	345.45613408088684	2.508378028869629
83	279.65670108795166	response	1	4		81.0	2.5	/experiments/knapen_aot/videos/S_yt-LB9LoYfH_EA_15.mp4	0.0	346.1074481010437	
83	280.7721629142761	response	1	4		81.0	2.5	/experiments/knapen_aot/videos/S_yt-LB9LoYfH_EA_15.mp4	0.0	347.22290992736816	
83	281.51376509666443	fix_post	2		12.0	81.0	2.5	/experiments/knapen_aot/videos/S_yt-LB9LoYfH_EA_15.mp4	0.0	347.96451210975647	0.09997081756591797
84	281.61373591423035	fix_pre	0		177.0	82.0	2.5	/experiments/knapen_aot/videos/R_S_production_ID_5199636.mp4	0.0	348.0644829273224	1.4749701023101807
84	283.08054304122925	response	0	4		82.0	2.5	/experiments/knapen_aot/videos/R_S_production_ID_5199636.mp4	0.0	349.5312900543213	
84	283.0887060165405	movie	1		169.0	82.0	2.5	/experiments/knapen_aot/videos/R_S_production_ID_5199636.mp4	0.0	349.53945302963257	2.5082879066467285
84	285.59699392318726	fix_post	2		12.0	82.0	2.5	/experiments/knapen_aot/videos/R_S_production_ID_5199636.mp4	0.0	352.0477409362793	0.10005807876586914
85	285.6970520019531	fix_pre	0		549.0	83.0	2.5	blank	1.0	352.14779901504517	4.574970960617065
85	290.2638289928436	response	0	4		83.0	2.5	blank	1.0	356.71457600593567	
85	290.2720229625702	movie	1		301.0	83.0	2.5	blank	1.0	356.72276997566223	2.5083229541778564
85	292.78034591674805	fix_post	2		12.0	83.0	2.5	blank	1.0	359.2310929298401	0.1000661849975586
87	292.8804121017456	stim	0		131.0					359.33115911483765	1.0916118621826172
87	293.36380791664124	response	0	4						359.8145549297333	
87	293.96725487709045	response	0	space						360.4180018901825	
