trial_nr	onset	event_type	phase	response	nr_frames	movie_index	movie_duration	movie_file	blank	onset_abs	duration
0	0.15859508514404297	stim	0		36.0					80.57390999794006	0.3371129035949707
0	0.48343515396118164	response	0	space						80.8987500667572	
1	0.49570798873901367	stim	0		121.0					80.91102290153503	1.0039281845092773
1	1.3331379890441895	response	0	space						81.74845290184021	
1	1.499636173248291	stim	1		120.0					81.91495108604431	1.0000100135803223
1	1.7505850791931152	response	1	space						82.16589999198914	
1	1.9422399997711182	response	1	space						82.35755491256714	
1	2.2080090045928955	response	1	space						82.62332391738892	
2	2.4996461868286133	fix_pre	0		20.0	0.0	2.5	/experiments/knapen_aot/videos/S_ILSVRC2015_train_00405001.mp4	0.0	82.91496109962463	0.16669583320617676
2	2.6580660343170166	response	0	space		0.0	2.5	/experiments/knapen_aot/videos/S_ILSVRC2015_train_00405001.mp4	0.0	83.07338094711304	
2	2.66634202003479	movie	1		300.0	0.0	2.5	/experiments/knapen_aot/videos/S_ILSVRC2015_train_00405001.mp4	0.0	83.08165693283081	2.50828218460083
2	5.021062135696411	response	1	2		0.0	2.5	/experiments/knapen_aot/videos/S_ILSVRC2015_train_00405001.mp4	0.0	85.43637704849243	
2	5.17462420463562	fix_post	2		12.0	0.0	2.5	/experiments/knapen_aot/videos/S_ILSVRC2015_train_00405001.mp4	0.0	85.58993911743164	0.09999990463256836
3	5.2746241092681885	fix_pre	0		41.0	1.0	2.5	/experiments/knapen_aot/videos/S_yt-BlWfK4MkjWA_469.mp4	0.0	85.68993902206421	0.34161996841430664
3	5.608044147491455	response	0	2		1.0	2.5	/experiments/knapen_aot/videos/S_yt-BlWfK4MkjWA_469.mp4	0.0	86.02335906028748	
3	5.616244077682495	movie	1		301.0	1.0	2.5	/experiments/knapen_aot/videos/S_yt-BlWfK4MkjWA_469.mp4	0.0	86.03155899047852	2.508500099182129
3	8.124744176864624	fix_post	2		12.0	1.0	2.5	/experiments/knapen_aot/videos/S_yt-BlWfK4MkjWA_469.mp4	0.0	88.54005908966064	0.09986495971679688
3	8.166442155838013	response	2	2		1.0	2.5	/experiments/knapen_aot/videos/S_yt-BlWfK4MkjWA_469.mp4	0.0	88.58175706863403	
4	8.224609136581421	fix_pre	0		52.0	2.0	2.5	/experiments/knapen_aot/videos/S_yt-FsylDeYfcxU_24.mp4	0.0	88.63992404937744	0.4333059787750244
4	8.649749040603638	response	0	2		2.0	2.5	/experiments/knapen_aot/videos/S_yt-FsylDeYfcxU_24.mp4	0.0	89.06506395339966	
4	8.657915115356445	movie	1		301.0	2.0	2.5	/experiments/knapen_aot/videos/S_yt-FsylDeYfcxU_24.mp4	0.0	89.07323002815247	2.5083348751068115
4	11.166249990463257	fix_post	2		12.0	2.0	2.5	/experiments/knapen_aot/videos/S_yt-FsylDeYfcxU_24.mp4	0.0	91.58156490325928	0.10011410713195801
5	11.266364097595215	fix_pre	0		2.0	3.0	2.5	/experiments/knapen_aot/videos/S_yt-Xs7TCzdnUJQ_79.mp4	0.0	91.68167901039124	0.016633033752441406
5	11.274790048599243	response	0	2		3.0	2.5	/experiments/knapen_aot/videos/S_yt-Xs7TCzdnUJQ_79.mp4	0.0	91.69010496139526	
5	11.282997131347656	movie	1		301.0	3.0	2.5	/experiments/knapen_aot/videos/S_yt-Xs7TCzdnUJQ_79.mp4	0.0	91.69831204414368	2.508228063583374
5	13.79122519493103	fix_post	2		12.0	3.0	2.5	/experiments/knapen_aot/videos/S_yt-Xs7TCzdnUJQ_79.mp4	0.0	94.20654010772705	0.09997892379760742
6	13.891204118728638	fix_pre	0		13.0	4.0	2.5	/experiments/knapen_aot/videos/S_ILSVRC2015_train_00404003.mp4	0.0	94.30651903152466	0.10834789276123047
6	13.991304159164429	response	0	2		4.0	2.5	/experiments/knapen_aot/videos/S_ILSVRC2015_train_00404003.mp4	0.0	94.40661907196045	
6	13.999552011489868	movie	1		301.0	4.0	2.5	/experiments/knapen_aot/videos/S_ILSVRC2015_train_00404003.mp4	0.0	94.41486692428589	2.5083560943603516
6	16.50790810585022	fix_post	2		12.0	4.0	2.5	/experiments/knapen_aot/videos/S_ILSVRC2015_train_00404003.mp4	0.0	96.92322301864624	0.09992194175720215
7	16.607830047607422	fix_pre	0		15.0	5.0	2.5	blank	1.0	97.02314496040344	0.12498998641967773
7	16.724706172943115	response	0	2		5.0	2.5	blank	1.0	97.14002108573914	
7	16.7328200340271	movie	1		301.0	5.0	2.5	blank	1.0	97.14813494682312	2.508389949798584
7	19.241209983825684	fix_post	2		12.0	5.0	2.5	blank	1.0	99.6565248966217	0.10000801086425781
8	19.34121799468994	fix_pre	0		21.0	6.0	2.5	/experiments/knapen_aot/videos/R_S_yt-2i53vKte7SA_117.mp4	0.0	99.75653290748596	0.17497706413269043
8	19.507944107055664	response	0	2		6.0	2.5	/experiments/knapen_aot/videos/R_S_yt-2i53vKte7SA_117.mp4	0.0	99.92325901985168	
8	19.516195058822632	movie	1		301.0	6.0	2.5	/experiments/knapen_aot/videos/R_S_yt-2i53vKte7SA_117.mp4	0.0	99.93150997161865	2.508229970932007
8	22.02442502975464	fix_post	2		12.0	6.0	2.5	/experiments/knapen_aot/videos/R_S_yt-2i53vKte7SA_117.mp4	0.0	102.43973994255066	0.10018801689147949
9	22.124613046646118	fix_pre	0		3.0	7.0	2.5	/experiments/knapen_aot/videos/S_yt-rlEPywo5BEQ_36.mp4	0.0	102.53992795944214	0.024940967559814453
9	22.141375064849854	response	0	2		7.0	2.5	/experiments/knapen_aot/videos/S_yt-rlEPywo5BEQ_36.mp4	0.0	102.55668997764587	
9	22.149554014205933	movie	1		301.0	7.0	2.5	/experiments/knapen_aot/videos/S_yt-rlEPywo5BEQ_36.mp4	0.0	102.56486892700195	2.5083301067352295
9	24.657884120941162	fix_post	2		12.0	7.0	2.5	/experiments/knapen_aot/videos/S_yt-rlEPywo5BEQ_36.mp4	0.0	105.07319903373718	0.09994006156921387
10	24.757824182510376	fix_pre	0		3.0	8.0	2.5	/experiments/knapen_aot/videos/S_EFR8AteY59I_15.mp4	0.0	105.1731390953064	0.025059938430786133
10	24.77467918395996	response	0	2		8.0	2.5	/experiments/knapen_aot/videos/S_EFR8AteY59I_15.mp4	0.0	105.18999409675598	
10	24.782884120941162	movie	1		301.0	8.0	2.5	/experiments/knapen_aot/videos/S_EFR8AteY59I_15.mp4	0.0	105.19819903373718	2.5083398818969727
10	27.291224002838135	fix_post	2		12.0	8.0	2.5	/experiments/knapen_aot/videos/S_EFR8AteY59I_15.mp4	0.0	107.70653891563416	0.09997200965881348
11	27.39119601249695	fix_pre	0		18.0	9.0	2.5	/experiments/knapen_aot/videos/S_production_ID_4325509.mp4	0.0	107.80651092529297	0.14996910095214844
11	27.52540397644043	response	0	2		9.0	2.5	/experiments/knapen_aot/videos/S_production_ID_4325509.mp4	0.0	107.94071888923645	
11	27.541165113449097	movie	1		195.0	9.0	2.5	/experiments/knapen_aot/videos/S_production_ID_4325509.mp4	0.0	107.95648002624512	2.5084590911865234
11	30.04962420463562	fix_post	2		12.0	9.0	2.5	/experiments/knapen_aot/videos/S_production_ID_4325509.mp4	0.0	110.46493911743164	0.09980392456054688
12	30.149428129196167	fix_pre	0		20.0	10.0	2.5	/experiments/knapen_aot/videos/R_S_yt-RVoC19C420Y_27.mp4	0.0	110.56474304199219	0.16665387153625488
12	30.307932138442993	response	0	2		10.0	2.5	/experiments/knapen_aot/videos/R_S_yt-RVoC19C420Y_27.mp4	0.0	110.72324705123901	
12	30.316082000732422	movie	1		301.0	10.0	2.5	/experiments/knapen_aot/videos/R_S_yt-RVoC19C420Y_27.mp4	0.0	110.73139691352844	2.508341073989868
12	32.82442307472229	fix_post	2		12.0	10.0	2.5	/experiments/knapen_aot/videos/R_S_yt-RVoC19C420Y_27.mp4	0.0	113.23973798751831	0.10001397132873535
13	32.924437046051025	fix_pre	0		28.0	11.0	2.5	/experiments/knapen_aot/videos/S_yt-4wjGeLyvfjY_223.mp4	0.0	113.33975195884705	0.2333240509033203
13	33.149553060531616	response	0	2		11.0	2.5	/experiments/knapen_aot/videos/S_yt-4wjGeLyvfjY_223.mp4	0.0	113.56486797332764	
13	33.157761096954346	movie	1		301.0	11.0	2.5	/experiments/knapen_aot/videos/S_yt-4wjGeLyvfjY_223.mp4	0.0	113.57307600975037	2.508208990097046
13	35.66597008705139	fix_post	2		12.0	11.0	2.5	/experiments/knapen_aot/videos/S_yt-4wjGeLyvfjY_223.mp4	0.0	116.08128499984741	0.10008001327514648
14	35.76605010032654	fix_pre	0		41.0	12.0	2.5	/experiments/knapen_aot/videos/S_ILSVRC2015_train_00079001.mp4	0.0	116.18136501312256	0.3416609764099121
14	36.099547147750854	response	0	2		12.0	2.5	/experiments/knapen_aot/videos/S_ILSVRC2015_train_00079001.mp4	0.0	116.51486206054688	
14	36.10771107673645	movie	1		301.0	12.0	2.5	/experiments/knapen_aot/videos/S_ILSVRC2015_train_00079001.mp4	0.0	116.52302598953247	2.508342981338501
14	38.61605405807495	fix_post	2		12.0	12.0	2.5	/experiments/knapen_aot/videos/S_ILSVRC2015_train_00079001.mp4	0.0	119.03136897087097	0.10003399848937988
15	38.71608805656433	fix_pre	0		16.0	13.0	2.5	blank	1.0	119.13140296936035	0.13328099250793457
15	38.84117817878723	response	0	2		13.0	2.5	blank	1.0	119.25649309158325	
15	38.849369049072266	movie	1		301.0	13.0	2.5	blank	1.0	119.26468396186829	2.5083470344543457
15	41.35771608352661	fix_post	2		12.0	13.0	2.5	blank	1.0	121.77303099632263	0.099945068359375
16	41.457661151885986	fix_pre	0		29.0	14.0	2.5	/experiments/knapen_aot/videos/S_yt-4BAsE47kJNk_88.mp4	0.0	121.872976064682	0.24169301986694336
16	41.69107699394226	response	0	2		14.0	2.5	/experiments/knapen_aot/videos/S_yt-4BAsE47kJNk_88.mp4	0.0	122.10639190673828	
16	41.69935417175293	movie	1		301.0	14.0	2.5	/experiments/knapen_aot/videos/S_yt-4BAsE47kJNk_88.mp4	0.0	122.11466908454895	2.508333921432495
16	44.207688093185425	fix_post	2		12.0	14.0	2.5	/experiments/knapen_aot/videos/S_yt-4BAsE47kJNk_88.mp4	0.0	124.62300300598145	0.09996700286865234
17	44.30765509605408	fix_pre	0		36.0	15.0	2.5	/experiments/knapen_aot/videos/R_S_yt-iKe-0YNR5Eo_164.mp4	0.0	124.7229700088501	0.3000149726867676
17	44.59949612617493	response	0	2		15.0	2.5	/experiments/knapen_aot/videos/R_S_yt-iKe-0YNR5Eo_164.mp4	0.0	125.01481103897095	
17	44.607670068740845	movie	1		301.0	15.0	2.5	/experiments/knapen_aot/videos/R_S_yt-iKe-0YNR5Eo_164.mp4	0.0	125.02298498153687	2.508307933807373
17	47.11597800254822	fix_post	2		12.0	15.0	2.5	/experiments/knapen_aot/videos/R_S_yt-iKe-0YNR5Eo_164.mp4	0.0	127.53129291534424	0.09999704360961914
18	47.21597504615784	fix_pre	0		21.0	16.0	2.5	/experiments/knapen_aot/videos/R_S_yt-WTxvvlP8xnw_113.mp4	0.0	127.63128995895386	0.1750171184539795
18	47.38278913497925	response	0	2		16.0	2.5	/experiments/knapen_aot/videos/R_S_yt-WTxvvlP8xnw_113.mp4	0.0	127.79810404777527	
18	47.390992164611816	movie	1		301.0	16.0	2.5	/experiments/knapen_aot/videos/R_S_yt-WTxvvlP8xnw_113.mp4	0.0	127.80630707740784	2.5082688331604004
18	49.89926099777222	fix_post	2		12.0	16.0	2.5	/experiments/knapen_aot/videos/R_S_yt-WTxvvlP8xnw_113.mp4	0.0	130.31457591056824	0.10004305839538574
19	49.9993040561676	fix_pre	0		12.0	17.0	2.5	/experiments/knapen_aot/videos/S_ILSVRC2015_train_00371010.mp4	0.0	130.41461896896362	0.09990906715393066
19	50.0911591053009	response	0	2		17.0	2.5	/experiments/knapen_aot/videos/S_ILSVRC2015_train_00371010.mp4	0.0	130.50647401809692	
19	50.09921312332153	movie	1		301.0	17.0	2.5	/experiments/knapen_aot/videos/S_ILSVRC2015_train_00371010.mp4	0.0	130.51452803611755	2.508431911468506
19	52.60764503479004	fix_post	2		12.0	17.0	2.5	/experiments/knapen_aot/videos/S_ILSVRC2015_train_00371010.mp4	0.0	133.02295994758606	0.09999895095825195
20	52.70764398574829	fix_pre	0		22.0	18.0	2.5	/experiments/knapen_aot/videos/S_yt-kAUL5o7i5mo_116.mp4	0.0	133.1229588985443	0.18326807022094727
20	52.88277816772461	response	0	2		18.0	2.5	/experiments/knapen_aot/videos/S_yt-kAUL5o7i5mo_116.mp4	0.0	133.29809308052063	
20	52.89091205596924	movie	1		301.0	18.0	2.5	/experiments/knapen_aot/videos/S_yt-kAUL5o7i5mo_116.mp4	0.0	133.30622696876526	2.5083930492401123
20	55.39930510520935	fix_post	2		12.0	18.0	2.5	/experiments/knapen_aot/videos/S_yt-kAUL5o7i5mo_116.mp4	0.0	135.81462001800537	0.10000491142272949
21	55.49931001663208	fix_pre	0		29.0	19.0	2.5	/experiments/knapen_aot/videos/R_S_FK_U009_C004_SDR_20191220_SDR_2K_AVC.mp4	0.0	135.9146249294281	0.24152708053588867
21	55.73275017738342	response	0	2		19.0	2.5	/experiments/knapen_aot/videos/R_S_FK_U009_C004_SDR_20191220_SDR_2K_AVC.mp4	0.0	136.14806509017944	
21	55.74083709716797	movie	1		162.0	19.0	2.5	/experiments/knapen_aot/videos/R_S_FK_U009_C004_SDR_20191220_SDR_2K_AVC.mp4	0.0	136.156152009964	2.5085999965667725
21	58.24943709373474	fix_post	2		12.0	19.0	2.5	/experiments/knapen_aot/videos/R_S_FK_U009_C004_SDR_20191220_SDR_2K_AVC.mp4	0.0	138.66475200653076	0.09983992576599121
22	58.34927701950073	fix_pre	0		24.0	20.0	2.5	/experiments/knapen_aot/videos/R_S_yt-lkpfs_4qAGE_50.mp4	0.0	138.76459193229675	0.20090818405151367
22	58.54108500480652	response	0	2		20.0	2.5	/experiments/knapen_aot/videos/R_S_yt-lkpfs_4qAGE_50.mp4	0.0	138.95639991760254	
22	58.550185203552246	movie	1		301.0	20.0	2.5	/experiments/knapen_aot/videos/R_S_yt-lkpfs_4qAGE_50.mp4	0.0	138.96550011634827	2.507337808609009
22	61.057523012161255	fix_post	2		12.0	20.0	2.5	/experiments/knapen_aot/videos/R_S_yt-lkpfs_4qAGE_50.mp4	0.0	141.47283792495728	0.10006308555603027
23	61.157586097717285	fix_pre	0		9.0	21.0	2.5	blank	1.0	141.5729010105133	0.07495689392089844
23	61.224337100982666	response	0	2		21.0	2.5	blank	1.0	141.6396520137787	
23	61.232542991638184	movie	1		301.0	21.0	2.5	blank	1.0	141.6478579044342	2.5084311962127686
23	63.74097418785095	fix_post	2		12.0	21.0	2.5	blank	1.0	144.15628910064697	0.09981393814086914
24	63.84078812599182	fix_pre	0		18.0	22.0	2.5	/experiments/knapen_aot/videos/R_S_yt-3NMDWrZr1Z4_255.mp4	0.0	144.25610303878784	0.15008091926574707
24	63.982649087905884	response	0	2		22.0	2.5	/experiments/knapen_aot/videos/R_S_yt-3NMDWrZr1Z4_255.mp4	0.0	144.3979640007019	
24	63.99086904525757	movie	1		300.0	22.0	2.5	/experiments/knapen_aot/videos/R_S_yt-3NMDWrZr1Z4_255.mp4	0.0	144.4061839580536	2.5082831382751465
24	66.49915218353271	fix_post	2		12.0	22.0	2.5	/experiments/knapen_aot/videos/R_S_yt-3NMDWrZr1Z4_255.mp4	0.0	146.91446709632874	0.1000678539276123
25	66.59922003746033	fix_pre	0		15.0	23.0	2.5	/experiments/knapen_aot/videos/R_S_ILSVRC2015_train_00463000.mp4	0.0	147.01453495025635	0.12495303153991699
25	66.7160050868988	response	0	2		23.0	2.5	/experiments/knapen_aot/videos/R_S_ILSVRC2015_train_00463000.mp4	0.0	147.13131999969482	
25	66.72417306900024	movie	1		301.0	23.0	2.5	/experiments/knapen_aot/videos/R_S_ILSVRC2015_train_00463000.mp4	0.0	147.13948798179626	2.508302927017212
25	69.23247599601746	fix_post	2		12.0	23.0	2.5	/experiments/knapen_aot/videos/R_S_ILSVRC2015_train_00463000.mp4	0.0	149.64779090881348	0.10006213188171387
26	69.33253812789917	fix_pre	0		11.0	24.0	2.5	/experiments/knapen_aot/videos/S_yt-pB9w3AA-woE_37.mp4	0.0	149.7478530406952	0.09256887435913086
26	69.41584920883179	response	0	2		24.0	2.5	/experiments/knapen_aot/videos/S_yt-pB9w3AA-woE_37.mp4	0.0	149.8311641216278	
26	69.4251070022583	movie	1		301.0	24.0	2.5	/experiments/knapen_aot/videos/S_yt-pB9w3AA-woE_37.mp4	0.0	149.84042191505432	2.5074269771575928
26	71.9325339794159	fix_post	2		12.0	24.0	2.5	/experiments/knapen_aot/videos/S_yt-pB9w3AA-woE_37.mp4	0.0	152.3478488922119	0.09994912147521973
27	72.03248310089111	fix_pre	0		3.0	25.0	2.5	/experiments/knapen_aot/videos/R_S_comp_A105_C002_v06_SDR_FINAL_25062018_SDR_2K_AVC.mp4	0.0	152.44779801368713	0.02503490447998047
27	72.04942512512207	response	0	2		25.0	2.5	/experiments/knapen_aot/videos/R_S_comp_A105_C002_v06_SDR_FINAL_25062018_SDR_2K_AVC.mp4	0.0	152.4647400379181	
27	72.0575180053711	movie	1		165.0	25.0	2.5	/experiments/knapen_aot/videos/R_S_comp_A105_C002_v06_SDR_FINAL_25062018_SDR_2K_AVC.mp4	0.0	152.47283291816711	2.5084099769592285
27	74.56592798233032	fix_post	2		12.0	25.0	2.5	/experiments/knapen_aot/videos/R_S_comp_A105_C002_v06_SDR_FINAL_25062018_SDR_2K_AVC.mp4	0.0	154.98124289512634	0.09993720054626465
28	74.66586518287659	fix_pre	0		8.0	26.0	2.5	/experiments/knapen_aot/videos/R_S_yt-fymgyhmYnMI_76.mp4	0.0	155.0811800956726	0.06653189659118652
28	74.71669602394104	response	0	2		26.0	2.5	/experiments/knapen_aot/videos/R_S_yt-fymgyhmYnMI_76.mp4	0.0	155.13201093673706	
28	74.73239707946777	movie	1		301.0	26.0	2.5	/experiments/knapen_aot/videos/R_S_yt-fymgyhmYnMI_76.mp4	0.0	155.1477119922638	2.5084009170532227
28	77.240797996521	fix_post	2		12.0	26.0	2.5	/experiments/knapen_aot/videos/R_S_yt-fymgyhmYnMI_76.mp4	0.0	157.65611290931702	0.10001015663146973
29	77.34080815315247	fix_pre	0		13.0	27.0	2.5	blank	1.0	157.7561230659485	0.10835695266723633
29	77.44084620475769	response	0	2		27.0	2.5	blank	1.0	157.8561611175537	
29	77.4491651058197	movie	1		301.0	27.0	2.5	blank	1.0	157.86448001861572	2.508305072784424
29	79.95747017860413	fix_post	2		12.0	27.0	2.5	blank	1.0	160.37278509140015	0.10002899169921875
30	80.05749917030334	fix_pre	0		19.0	28.0	2.5	/experiments/knapen_aot/videos/S_yt-WTxvvlP8xnw_113.mp4	0.0	160.47281408309937	0.1591489315032959
30	80.20749807357788	response	0	2		28.0	2.5	/experiments/knapen_aot/videos/S_yt-WTxvvlP8xnw_113.mp4	0.0	160.6228129863739	
30	80.21664810180664	movie	1		301.0	28.0	2.5	/experiments/knapen_aot/videos/S_yt-WTxvvlP8xnw_113.mp4	0.0	160.63196301460266	2.507430076599121
30	82.72407817840576	fix_post	2		12.0	28.0	2.5	/experiments/knapen_aot/videos/S_yt-WTxvvlP8xnw_113.mp4	0.0	163.13939309120178	0.10005593299865723
31	82.82413411140442	fix_pre	0		16.0	29.0	2.5	/experiments/knapen_aot/videos/R_S_yt-ibDaDIEazxg_3.mp4	0.0	163.23944902420044	0.13325190544128418
31	82.94921708106995	response	0	2		29.0	2.5	/experiments/knapen_aot/videos/R_S_yt-ibDaDIEazxg_3.mp4	0.0	163.36453199386597	
31	82.9573860168457	movie	1		300.0	29.0	2.5	/experiments/knapen_aot/videos/R_S_yt-ibDaDIEazxg_3.mp4	0.0	163.37270092964172	2.5084311962127686
31	85.46581721305847	fix_post	2		12.0	29.0	2.5	/experiments/knapen_aot/videos/R_S_yt-ibDaDIEazxg_3.mp4	0.0	165.8811321258545	0.09991598129272461
31	85.51595997810364	response	2	2		29.0	2.5	/experiments/knapen_aot/videos/R_S_yt-ibDaDIEazxg_3.mp4	0.0	165.93127489089966	
32	85.5657331943512	fix_pre	0		53.0	30.0	2.5	/experiments/knapen_aot/videos/S_yt-4oT-2eGhmUo_102.mp4	0.0	165.98104810714722	0.44246578216552734
32	85.99924898147583	response	0	2		30.0	2.5	/experiments/knapen_aot/videos/S_yt-4oT-2eGhmUo_102.mp4	0.0	166.41456389427185	
32	86.00819897651672	movie	1		301.0	30.0	2.5	/experiments/knapen_aot/videos/S_yt-4oT-2eGhmUo_102.mp4	0.0	166.42351388931274	2.507510185241699
32	88.51570916175842	fix_post	2		12.0	30.0	2.5	/experiments/knapen_aot/videos/S_yt-4oT-2eGhmUo_102.mp4	0.0	168.93102407455444	0.10011601448059082
33	88.61582517623901	fix_pre	0		29.0	31.0	2.5	/experiments/knapen_aot/videos/S_yt-GbL63AmOIss_116.mp4	0.0	169.03114008903503	0.24152088165283203
33	88.84918212890625	response	0	2		31.0	2.5	/experiments/knapen_aot/videos/S_yt-GbL63AmOIss_116.mp4	0.0	169.26449704170227	
33	88.85734605789185	movie	1		301.0	31.0	2.5	/experiments/knapen_aot/videos/S_yt-GbL63AmOIss_116.mp4	0.0	169.27266097068787	2.508350133895874
33	91.36569619178772	fix_post	2		12.0	31.0	2.5	/experiments/knapen_aot/videos/S_yt-GbL63AmOIss_116.mp4	0.0	171.78101110458374	0.10000300407409668
34	91.46569919586182	fix_pre	0		27.0	32.0	2.5	/experiments/knapen_aot/videos/R_S_ILSVRC2015_train_00446000.mp4	0.0	171.88101410865784	0.2249758243560791
34	91.68247509002686	response	0	2		32.0	2.5	/experiments/knapen_aot/videos/R_S_ILSVRC2015_train_00446000.mp4	0.0	172.09779000282288	
34	91.6906750202179	movie	1		301.0	32.0	2.5	/experiments/knapen_aot/videos/R_S_ILSVRC2015_train_00446000.mp4	0.0	172.10598993301392	2.5085501670837402
34	94.19922518730164	fix_post	2		12.0	32.0	2.5	/experiments/knapen_aot/videos/R_S_ILSVRC2015_train_00446000.mp4	0.0	174.61454010009766	0.09980201721191406
35	94.29902720451355	fix_pre	0		10.0	33.0	2.5	/experiments/knapen_aot/videos/S_comp_GL_G002_C002_PSNK_v03_SDR_PS_20180925_SDR_2K_AVC.mp4	0.0	174.71434211730957	0.0843358039855957
35	94.37418508529663	response	0	2		33.0	2.5	/experiments/knapen_aot/videos/S_comp_GL_G002_C002_PSNK_v03_SDR_PS_20180925_SDR_2K_AVC.mp4	0.0	174.78949999809265	
35	94.38336300849915	movie	1		168.0	33.0	2.5	/experiments/knapen_aot/videos/S_comp_GL_G002_C002_PSNK_v03_SDR_PS_20180925_SDR_2K_AVC.mp4	0.0	174.79867792129517	2.5073189735412598
35	96.8906819820404	fix_post	2		12.0	33.0	2.5	/experiments/knapen_aot/videos/S_comp_GL_G002_C002_PSNK_v03_SDR_PS_20180925_SDR_2K_AVC.mp4	0.0	177.30599689483643	0.09993815422058105
36	96.99062013626099	fix_pre	0		25.0	34.0	2.5	/experiments/knapen_aot/videos/R_S_yt-ZzC953ahaxs_195.mp4	0.0	177.405935049057	0.2083580493927002
36	97.19071102142334	response	0	2		34.0	2.5	/experiments/knapen_aot/videos/R_S_yt-ZzC953ahaxs_195.mp4	0.0	177.60602593421936	
36	97.19897818565369	movie	1		301.0	34.0	2.5	/experiments/knapen_aot/videos/R_S_yt-ZzC953ahaxs_195.mp4	0.0	177.6142930984497	2.5083799362182617
36	99.70735812187195	fix_post	2		12.0	34.0	2.5	/experiments/knapen_aot/videos/R_S_yt-ZzC953ahaxs_195.mp4	0.0	180.12267303466797	0.09997105598449707
37	99.80732917785645	fix_pre	0		6.0	35.0	2.5	blank	1.0	180.22264409065247	0.05002284049987793
37	99.84914708137512	response	0	2		35.0	2.5	blank	1.0	180.26446199417114	
37	99.85735201835632	movie	1		301.0	35.0	2.5	blank	1.0	180.27266693115234	2.5082900524139404
37	102.36564207077026	fix_post	2		12.0	35.0	2.5	blank	1.0	182.78095698356628	0.10071897506713867
38	102.4663610458374	fix_pre	0		36.0	36.0	2.5	/experiments/knapen_aot/videos/S_ILSVRC2015_train_00756000.mp4	0.0	182.88167595863342	0.2992370128631592
38	102.75731015205383	response	0	2		36.0	2.5	/experiments/knapen_aot/videos/S_ILSVRC2015_train_00756000.mp4	0.0	183.17262506484985	
38	102.76559805870056	movie	1		301.0	36.0	2.5	/experiments/knapen_aot/videos/S_ILSVRC2015_train_00756000.mp4	0.0	183.18091297149658	2.508310079574585
38	105.27390813827515	fix_post	2		12.0	36.0	2.5	/experiments/knapen_aot/videos/S_ILSVRC2015_train_00756000.mp4	0.0	185.68922305107117	0.09994792938232422
39	105.37385606765747	fix_pre	0		6.0	37.0	2.5	/experiments/knapen_aot/videos/R_S_yt-xCh0LI9VKeI_28.mp4	0.0	185.7891709804535	0.050852060317993164
39	105.41580820083618	response	0	2		37.0	2.5	/experiments/knapen_aot/videos/R_S_yt-xCh0LI9VKeI_28.mp4	0.0	185.8311231136322	
39	105.42470812797546	movie	1		301.0	37.0	2.5	/experiments/knapen_aot/videos/R_S_yt-xCh0LI9VKeI_28.mp4	0.0	185.84002304077148	2.507657051086426
39	107.93236517906189	fix_post	2		12.0	37.0	2.5	/experiments/knapen_aot/videos/R_S_yt-xCh0LI9VKeI_28.mp4	0.0	188.3476800918579	0.09990787506103516
39	108.00746512413025	response	2	2		37.0	2.5	/experiments/knapen_aot/videos/R_S_yt-xCh0LI9VKeI_28.mp4	0.0	188.42278003692627	
40	108.03227305412292	fix_pre	0		43.0	38.0	2.5	/experiments/knapen_aot/videos/R_S_yt-GWO7FHN1Jb4_142.mp4	0.0	188.44758796691895	0.3583040237426758
40	108.38239312171936	response	0	2		38.0	2.5	/experiments/knapen_aot/videos/R_S_yt-GWO7FHN1Jb4_142.mp4	0.0	188.79770803451538	
40	108.3905770778656	movie	1		301.0	38.0	2.5	/experiments/knapen_aot/videos/R_S_yt-GWO7FHN1Jb4_142.mp4	0.0	188.80589199066162	2.508404016494751
40	110.89898109436035	fix_post	2		12.0	38.0	2.5	/experiments/knapen_aot/videos/R_S_yt-GWO7FHN1Jb4_142.mp4	0.0	191.31429600715637	0.09992098808288574
41	110.99890208244324	fix_pre	0		15.0	39.0	2.5	/experiments/knapen_aot/videos/R_S_yt--xKSTYy9mcA_54.mp4	0.0	191.41421699523926	0.12498807907104492
41	111.1157021522522	response	0	2		39.0	2.5	/experiments/knapen_aot/videos/R_S_yt--xKSTYy9mcA_54.mp4	0.0	191.53101706504822	
41	111.12389016151428	movie	1		301.0	39.0	2.5	/experiments/knapen_aot/videos/R_S_yt--xKSTYy9mcA_54.mp4	0.0	191.5392050743103	2.5083179473876953
41	113.63220810890198	fix_post	2		12.0	39.0	2.5	/experiments/knapen_aot/videos/R_S_yt--xKSTYy9mcA_54.mp4	0.0	194.047523021698	0.10000801086425781
42	113.73221611976624	fix_pre	0		7.0	40.0	2.5	blank	1.0	194.14753103256226	0.05831503868103027
42	113.7823531627655	response	0	2		40.0	2.5	blank	1.0	194.19766807556152	
42	113.79053115844727	movie	1		301.0	40.0	2.5	blank	1.0	194.2058460712433	2.5083279609680176
42	116.29885911941528	fix_post	2		12.0	40.0	2.5	blank	1.0	196.7141740322113	0.09992599487304688
43	116.39878511428833	fix_pre	0		19.0	41.0	2.5	/experiments/knapen_aot/videos/S_yt-fymgyhmYnMI_557.mp4	0.0	196.81410002708435	0.15840888023376465
43	116.54894614219666	response	0	2		41.0	2.5	/experiments/knapen_aot/videos/S_yt-fymgyhmYnMI_557.mp4	0.0	196.96426105499268	
43	116.5571939945221	movie	1		301.0	41.0	2.5	/experiments/knapen_aot/videos/S_yt-fymgyhmYnMI_557.mp4	0.0	196.97250890731812	2.5083751678466797
43	119.06556916236877	fix_post	2		12.0	41.0	2.5	/experiments/knapen_aot/videos/S_yt-fymgyhmYnMI_557.mp4	0.0	199.4808840751648	0.09996485710144043
44	119.16553401947021	fix_pre	0		31.0	42.0	2.5	/experiments/knapen_aot/videos/S_wc-AJxbR6daLxMM_5.mp4	0.0	199.58084893226624	0.25896310806274414
44	119.41583204269409	response	0	2		42.0	2.5	/experiments/knapen_aot/videos/S_wc-AJxbR6daLxMM_5.mp4	0.0	199.8311469554901	
44	119.42449712753296	movie	1		164.0	42.0	2.5	/experiments/knapen_aot/videos/S_wc-AJxbR6daLxMM_5.mp4	0.0	199.83981204032898	2.507720947265625
44	121.93221807479858	fix_post	2		12.0	42.0	2.5	/experiments/knapen_aot/videos/S_wc-AJxbR6daLxMM_5.mp4	0.0	202.3475329875946	0.09999394416809082
45	122.03221201896667	fix_pre	0		14.0	43.0	2.5	/experiments/knapen_aot/videos/S_yt-fymgyhmYnMI_76.mp4	0.0	202.4475269317627	0.11661815643310547
45	122.13307499885559	response	0	2		43.0	2.5	/experiments/knapen_aot/videos/S_yt-fymgyhmYnMI_76.mp4	0.0	202.5483899116516	
45	122.14883017539978	movie	1		301.0	43.0	2.5	/experiments/knapen_aot/videos/S_yt-fymgyhmYnMI_76.mp4	0.0	202.5641450881958	2.5083229541778564
45	124.65715312957764	fix_post	2		12.0	43.0	2.5	/experiments/knapen_aot/videos/S_yt-fymgyhmYnMI_76.mp4	0.0	205.07246804237366	0.10003805160522461
46	124.75719118118286	fix_pre	0		18.0	44.0	2.5	/experiments/knapen_aot/videos/S_comp_L004_C011_PS_v01_SDR_PS_20180925_SDR_2K_AVC.mp4	0.0	205.17250609397888	0.14995384216308594
46	124.89890813827515	response	0	2		44.0	2.5	/experiments/knapen_aot/videos/S_comp_L004_C011_PS_v01_SDR_PS_20180925_SDR_2K_AVC.mp4	0.0	205.31422305107117	
46	124.90714502334595	movie	1		164.0	44.0	2.5	/experiments/knapen_aot/videos/S_comp_L004_C011_PS_v01_SDR_PS_20180925_SDR_2K_AVC.mp4	0.0	205.32245993614197	2.508291006088257
46	127.4154360294342	fix_post	2		12.0	44.0	2.5	/experiments/knapen_aot/videos/S_comp_L004_C011_PS_v01_SDR_PS_20180925_SDR_2K_AVC.mp4	0.0	207.83075094223022	0.10007715225219727
47	127.5155131816864	fix_pre	0		3.0	45.0	2.5	/experiments/knapen_aot/videos/R_S_wc-lItGMdwvEd_l_7.mp4	0.0	207.93082809448242	0.02703690528869629
47	127.53231716156006	response	0	2		45.0	2.5	/experiments/knapen_aot/videos/R_S_wc-lItGMdwvEd_l_7.mp4	0.0	207.94763207435608	
47	127.5425500869751	movie	1		162.0	45.0	2.5	/experiments/knapen_aot/videos/R_S_wc-lItGMdwvEd_l_7.mp4	0.0	207.95786499977112	2.5063071250915527
47	130.04885721206665	fix_post	2		12.0	45.0	2.5	/experiments/knapen_aot/videos/R_S_wc-lItGMdwvEd_l_7.mp4	0.0	210.46417212486267	0.09994077682495117
48	130.1487979888916	fix_pre	0		16.0	46.0	2.5	/experiments/knapen_aot/videos/R_S_yt--I4Ggi6-QOE_23.mp4	0.0	210.56411290168762	0.13333606719970703
48	130.2740089893341	response	0	2		46.0	2.5	/experiments/knapen_aot/videos/R_S_yt--I4Ggi6-QOE_23.mp4	0.0	210.68932390213013	
48	130.2821340560913	movie	1		301.0	46.0	2.5	/experiments/knapen_aot/videos/R_S_yt--I4Ggi6-QOE_23.mp4	0.0	210.69744896888733	2.5083091259002686
48	132.79044318199158	fix_post	2		12.0	46.0	2.5	/experiments/knapen_aot/videos/R_S_yt--I4Ggi6-QOE_23.mp4	0.0	213.2057580947876	0.09997797012329102
49	132.89042115211487	fix_pre	0		16.0	47.0	2.5	/experiments/knapen_aot/videos/R_S_pexels-cottonbro-5780808.mp4	0.0	213.3057360649109	0.13341689109802246
49	133.015554189682	response	0	2		47.0	2.5	/experiments/knapen_aot/videos/R_S_pexels-cottonbro-5780808.mp4	0.0	213.43086910247803	
49	133.0238380432129	movie	1		164.0	47.0	2.5	/experiments/knapen_aot/videos/R_S_pexels-cottonbro-5780808.mp4	0.0	213.4391529560089	2.508265972137451
49	135.53210401535034	fix_post	2		12.0	47.0	2.5	/experiments/knapen_aot/videos/R_S_pexels-cottonbro-5780808.mp4	0.0	215.94741892814636	0.10000801086425781
50	135.6321120262146	fix_pre	0		9.0	48.0	2.5	blank	1.0	216.04742693901062	0.07492995262145996
50	135.69131112098694	response	0	2		48.0	2.5	blank	1.0	216.10662603378296	
50	135.70704197883606	movie	1		301.0	48.0	2.5	blank	1.0	216.12235689163208	2.5083930492401123
50	138.21543502807617	fix_post	2		12.0	48.0	2.5	blank	1.0	218.6307499408722	0.09997701644897461
51	138.31541204452515	fix_pre	0		16.0	49.0	2.5	/experiments/knapen_aot/videos/R_S_yt-wnQFgNEnHUI_109.mp4	0.0	218.73072695732117	0.13330698013305664
51	138.44053411483765	response	0	2		49.0	2.5	/experiments/knapen_aot/videos/R_S_yt-wnQFgNEnHUI_109.mp4	0.0	218.85584902763367	
51	138.4487190246582	movie	1		301.0	49.0	2.5	/experiments/knapen_aot/videos/R_S_yt-wnQFgNEnHUI_109.mp4	0.0	218.86403393745422	2.508486032485962
51	140.95720505714417	fix_post	2		12.0	49.0	2.5	/experiments/knapen_aot/videos/R_S_yt-wnQFgNEnHUI_109.mp4	0.0	221.37251996994019	0.09988093376159668
52	141.05708599090576	fix_pre	0		13.0	50.0	2.5	/experiments/knapen_aot/videos/R_S_yt-Xs7TCzdnUJQ_79.mp4	0.0	221.47240090370178	0.1083071231842041
52	141.15719413757324	response	0	2		50.0	2.5	/experiments/knapen_aot/videos/R_S_yt-Xs7TCzdnUJQ_79.mp4	0.0	221.57250905036926	
52	141.16539311408997	movie	1		301.0	50.0	2.5	/experiments/knapen_aot/videos/R_S_yt-Xs7TCzdnUJQ_79.mp4	0.0	221.580708026886	2.5082650184631348
52	143.6736581325531	fix_post	2		12.0	50.0	2.5	/experiments/knapen_aot/videos/R_S_yt-Xs7TCzdnUJQ_79.mp4	0.0	224.08897304534912	0.10010886192321777
53	143.77376699447632	fix_pre	0		15.0	51.0	2.5	/experiments/knapen_aot/videos/R_S_yt-FsylDeYfcxU_24.mp4	0.0	224.18908190727234	0.12490606307983398
53	143.89054107666016	response	0	2		51.0	2.5	/experiments/knapen_aot/videos/R_S_yt-FsylDeYfcxU_24.mp4	0.0	224.30585598945618	
53	143.89867305755615	movie	1		301.0	51.0	2.5	/experiments/knapen_aot/videos/R_S_yt-FsylDeYfcxU_24.mp4	0.0	224.31398797035217	2.508376121520996
53	146.40704917907715	fix_post	2		12.0	51.0	2.5	/experiments/knapen_aot/videos/R_S_yt-FsylDeYfcxU_24.mp4	0.0	226.82236409187317	0.10000395774841309
53	146.47378420829773	response	2	2		51.0	2.5	/experiments/knapen_aot/videos/R_S_yt-FsylDeYfcxU_24.mp4	0.0	226.88909912109375	
54	146.50705313682556	fix_pre	0		58.0	52.0	2.5	/experiments/knapen_aot/videos/S_ILSVRC2015_train_00067005.mp4	0.0	226.92236804962158	0.483259916305542
54	146.98217701911926	response	0	2		52.0	2.5	/experiments/knapen_aot/videos/S_ILSVRC2015_train_00067005.mp4	0.0	227.39749193191528	
54	146.9903130531311	movie	1		301.0	52.0	2.5	/experiments/knapen_aot/videos/S_ILSVRC2015_train_00067005.mp4	0.0	227.40562796592712	2.5083799362182617
54	149.49869298934937	fix_post	2		12.0	52.0	2.5	/experiments/knapen_aot/videos/S_ILSVRC2015_train_00067005.mp4	0.0	229.91400790214539	0.10000109672546387
55	149.59869408607483	fix_pre	0		6.0	53.0	2.5	/experiments/knapen_aot/videos/R_S_yt-bOgChEHiroI_20.mp4	0.0	230.01400899887085	0.04996490478515625
55	149.63294005393982	response	0	2		53.0	2.5	/experiments/knapen_aot/videos/R_S_yt-bOgChEHiroI_20.mp4	0.0	230.04825496673584	
55	149.64865899085999	movie	1		301.0	53.0	2.5	/experiments/knapen_aot/videos/R_S_yt-bOgChEHiroI_20.mp4	0.0	230.063973903656	2.50839900970459
55	152.15705800056458	fix_post	2		12.0	53.0	2.5	/experiments/knapen_aot/videos/R_S_yt-bOgChEHiroI_20.mp4	0.0	232.5723729133606	0.10008716583251953
56	152.2571451663971	fix_pre	0		22.0	54.0	2.5	/experiments/knapen_aot/videos/R_S_comp_GL_G002_C002_PSNK_v03_SDR_PS_20180925_SDR_2K_AVC.mp4	0.0	232.67246007919312	0.18316292762756348
56	152.43205618858337	response	0	2		54.0	2.5	/experiments/knapen_aot/videos/R_S_comp_GL_G002_C002_PSNK_v03_SDR_PS_20180925_SDR_2K_AVC.mp4	0.0	232.8473711013794	
56	152.44030809402466	movie	1		166.0	54.0	2.5	/experiments/knapen_aot/videos/R_S_comp_GL_G002_C002_PSNK_v03_SDR_PS_20180925_SDR_2K_AVC.mp4	0.0	232.85562300682068	2.5083630084991455
56	154.9486711025238	fix_post	2		12.0	54.0	2.5	/experiments/knapen_aot/videos/R_S_comp_GL_G002_C002_PSNK_v03_SDR_PS_20180925_SDR_2K_AVC.mp4	0.0	235.36398601531982	0.10011005401611328
57	155.04878115653992	fix_pre	0		1.0	55.0	2.5	blank	1.0	235.46409606933594	0.008313894271850586
57	155.04153299331665	response	0	2		55.0	2.5	blank	1.0	235.45684790611267	
57	155.05709505081177	movie	1		301.0	55.0	2.5	blank	1.0	235.4724099636078	2.508234977722168
57	157.56533002853394	fix_post	2		12.0	55.0	2.5	blank	1.0	237.98064494132996	0.10022616386413574
58	157.66555619239807	fix_pre	0		52.0	56.0	2.5	/experiments/knapen_aot/videos/S_yt-IlW1U39Dga4_5.mp4	0.0	238.0808711051941	0.4331018924713135
58	158.0904140472412	response	0	2		56.0	2.5	/experiments/knapen_aot/videos/S_yt-IlW1U39Dga4_5.mp4	0.0	238.50572896003723	
58	158.09865808486938	movie	1		301.0	56.0	2.5	/experiments/knapen_aot/videos/S_yt-IlW1U39Dga4_5.mp4	0.0	238.5139729976654	2.5082919597625732
58	160.60695004463196	fix_post	2		12.0	56.0	2.5	/experiments/knapen_aot/videos/S_yt-IlW1U39Dga4_5.mp4	0.0	241.02226495742798	0.10003209114074707
59	160.7069821357727	fix_pre	0		11.0	57.0	2.5	/experiments/knapen_aot/videos/R_S_DV6V38rplag_215.mp4	0.0	241.12229704856873	0.09209990501403809
59	160.7903070449829	response	0	2		57.0	2.5	/experiments/knapen_aot/videos/R_S_DV6V38rplag_215.mp4	0.0	241.20562195777893	
59	160.79908204078674	movie	1		301.0	57.0	2.5	/experiments/knapen_aot/videos/R_S_DV6V38rplag_215.mp4	0.0	241.21439695358276	2.507884979248047
59	163.3069670200348	fix_post	2		12.0	57.0	2.5	/experiments/knapen_aot/videos/R_S_DV6V38rplag_215.mp4	0.0	243.7222819328308	0.10002803802490234
60	163.4069950580597	fix_pre	0		22.0	58.0	2.5	/experiments/knapen_aot/videos/S_yt-kawmL3oVw8c_2.mp4	0.0	243.8223099708557	0.18372201919555664
60	163.58212208747864	response	0	2		58.0	2.5	/experiments/knapen_aot/videos/S_yt-kawmL3oVw8c_2.mp4	0.0	243.99743700027466	
60	163.59071707725525	movie	1		301.0	58.0	2.5	/experiments/knapen_aot/videos/S_yt-kawmL3oVw8c_2.mp4	0.0	244.00603199005127	2.507901906967163
60	166.0986189842224	fix_post	2		12.0	58.0	2.5	/experiments/knapen_aot/videos/S_yt-kawmL3oVw8c_2.mp4	0.0	246.51393389701843	0.10001301765441895
61	166.19863200187683	fix_pre	0		4.0	59.0	2.5	/experiments/knapen_aot/videos/S_yt-x7TqP8l4lCA_39.mp4	0.0	246.61394691467285	0.03330516815185547
61	166.22382402420044	response	0	2		59.0	2.5	/experiments/knapen_aot/videos/S_yt-x7TqP8l4lCA_39.mp4	0.0	246.63913893699646	
61	166.2319371700287	movie	1		301.0	59.0	2.5	/experiments/knapen_aot/videos/S_yt-x7TqP8l4lCA_39.mp4	0.0	246.6472520828247	2.50834584236145
61	168.74028301239014	fix_post	2		12.0	59.0	2.5	/experiments/knapen_aot/videos/S_yt-x7TqP8l4lCA_39.mp4	0.0	249.15559792518616	0.100006103515625
62	168.84028911590576	fix_pre	0		16.0	60.0	2.5	/experiments/knapen_aot/videos/S_comp_N008_C003_PS_v01_SDR_PS_20180925_SDR_2K_AVC.mp4	0.0	249.25560402870178	0.13331294059753418
62	168.96536707878113	response	0	2		60.0	2.5	/experiments/knapen_aot/videos/S_comp_N008_C003_PS_v01_SDR_PS_20180925_SDR_2K_AVC.mp4	0.0	249.38068199157715	
62	168.9736020565033	movie	1		164.0	60.0	2.5	/experiments/knapen_aot/videos/S_comp_N008_C003_PS_v01_SDR_PS_20180925_SDR_2K_AVC.mp4	0.0	249.38891696929932	2.508345127105713
62	171.481947183609	fix_post	2		12.0	60.0	2.5	/experiments/knapen_aot/videos/S_comp_N008_C003_PS_v01_SDR_PS_20180925_SDR_2K_AVC.mp4	0.0	251.89726209640503	0.09993791580200195
63	171.581885099411	fix_pre	0		13.0	61.0	2.5	/experiments/knapen_aot/videos/R_S_yt-kAUL5o7i5mo_116.mp4	0.0	251.99720001220703	0.10832810401916504
63	171.68204712867737	response	0	2		61.0	2.5	/experiments/knapen_aot/videos/R_S_yt-kAUL5o7i5mo_116.mp4	0.0	252.0973620414734	
63	171.69021320343018	movie	1		301.0	61.0	2.5	/experiments/knapen_aot/videos/R_S_yt-kAUL5o7i5mo_116.mp4	0.0	252.1055281162262	2.5084228515625
63	174.19863605499268	fix_post	2		12.0	61.0	2.5	/experiments/knapen_aot/videos/R_S_yt-kAUL5o7i5mo_116.mp4	0.0	254.6139509677887	0.1004190444946289
64	174.2990550994873	fix_pre	0		1.0	62.0	2.5	/experiments/knapen_aot/videos/S_production_ID_5049072.mp4	0.0	254.71437001228333	0.007850885391235352
64	174.3006830215454	response	0	2		62.0	2.5	/experiments/knapen_aot/videos/S_production_ID_5049072.mp4	0.0	254.71599793434143	
64	174.30690598487854	movie	1		166.0	62.0	2.5	/experiments/knapen_aot/videos/S_production_ID_5049072.mp4	0.0	254.72222089767456	2.5083861351013184
64	176.81529211997986	fix_post	2		12.0	62.0	2.5	/experiments/knapen_aot/videos/S_production_ID_5049072.mp4	0.0	257.2306070327759	0.09991693496704102
65	176.9152090549469	fix_pre	0		3.0	63.0	2.5	blank	1.0	257.3305239677429	0.02504897117614746
65	176.93209314346313	response	0	2		63.0	2.5	blank	1.0	257.34740805625916	
65	176.94025802612305	movie	1		301.0	63.0	2.5	blank	1.0	257.35557293891907	2.5083370208740234
65	179.44859504699707	fix_post	2		12.0	63.0	2.5	blank	1.0	259.8639099597931	0.10044097900390625
66	179.54903602600098	fix_pre	0		24.0	64.0	2.5	/experiments/knapen_aot/videos/R_S_ILSVRC2015_train_00599000.mp4	0.0	259.964350938797	0.19951796531677246
66	179.74031400680542	response	0	2		64.0	2.5	/experiments/knapen_aot/videos/R_S_ILSVRC2015_train_00599000.mp4	0.0	260.15562891960144	
66	179.74855399131775	movie	1		301.0	64.0	2.5	/experiments/knapen_aot/videos/R_S_ILSVRC2015_train_00599000.mp4	0.0	260.16386890411377	2.5083141326904297
66	182.25686812400818	fix_post	2		11.0	64.0	2.5	/experiments/knapen_aot/videos/R_S_ILSVRC2015_train_00599000.mp4	0.0	262.6721830368042	0.09163403511047363
66	182.34038519859314	response	2	2		64.0	2.5	/experiments/knapen_aot/videos/R_S_ILSVRC2015_train_00599000.mp4	0.0	262.75570011138916	
67	182.34850215911865	fix_pre	0		55.0	65.0	2.5	/experiments/knapen_aot/videos/S_yt-nYi_FfCjepk_74.mp4	0.0	262.7638170719147	0.4583549499511719
67	182.7986011505127	response	0	2		65.0	2.5	/experiments/knapen_aot/videos/S_yt-nYi_FfCjepk_74.mp4	0.0	263.2139160633087	
67	182.80685710906982	movie	1		301.0	65.0	2.5	/experiments/knapen_aot/videos/S_yt-nYi_FfCjepk_74.mp4	0.0	263.22217202186584	2.5085599422454834
67	185.00041007995605	response	1	2		65.0	2.5	/experiments/knapen_aot/videos/S_yt-nYi_FfCjepk_74.mp4	0.0	265.4157249927521	
67	185.3154170513153	fix_post	2		12.0	65.0	2.5	/experiments/knapen_aot/videos/S_yt-nYi_FfCjepk_74.mp4	0.0	265.7307319641113	0.10001707077026367
67	185.34117102622986	response	2	2		65.0	2.5	/experiments/knapen_aot/videos/S_yt-nYi_FfCjepk_74.mp4	0.0	265.7564859390259	
68	185.41543412208557	fix_pre	0		43.0	66.0	2.5	/experiments/knapen_aot/videos/S_yt-bOgChEHiroI_20.mp4	0.0	265.8307490348816	0.3580820560455322
68	185.76523399353027	response	0	2		66.0	2.5	/experiments/knapen_aot/videos/S_yt-bOgChEHiroI_20.mp4	0.0	266.1805489063263	
68	185.7735161781311	movie	1		301.0	66.0	2.5	/experiments/knapen_aot/videos/S_yt-bOgChEHiroI_20.mp4	0.0	266.1888310909271	2.5083909034729004
68	188.281907081604	fix_post	2		12.0	66.0	2.5	/experiments/knapen_aot/videos/S_yt-bOgChEHiroI_20.mp4	0.0	268.6972219944	0.10035109519958496
69	188.3822581768036	fix_pre	0		14.0	67.0	2.5	/experiments/knapen_aot/videos/S_ILSVRC2015_train_00451000.mp4	0.0	268.7975730895996	0.11618399620056152
69	188.49025201797485	response	0	2		67.0	2.5	/experiments/knapen_aot/videos/S_ILSVRC2015_train_00451000.mp4	0.0	268.9055669307709	
69	188.49844217300415	movie	1		301.0	67.0	2.5	/experiments/knapen_aot/videos/S_ILSVRC2015_train_00451000.mp4	0.0	268.91375708580017	2.5086050033569336
69	191.00704717636108	fix_post	2		12.0	67.0	2.5	/experiments/knapen_aot/videos/S_ILSVRC2015_train_00451000.mp4	0.0	271.4223620891571	0.0998079776763916
70	191.10685515403748	fix_pre	0		7.0	68.0	2.5	/experiments/knapen_aot/videos/S_yt-PCSXJ5YB_AE_3.mp4	0.0	271.5221700668335	0.05834698677062988
70	191.15698099136353	response	0	2		68.0	2.5	/experiments/knapen_aot/videos/S_yt-PCSXJ5YB_AE_3.mp4	0.0	271.57229590415955	
70	191.1652021408081	movie	1		301.0	68.0	2.5	/experiments/knapen_aot/videos/S_yt-PCSXJ5YB_AE_3.mp4	0.0	271.5805170536041	2.5084030628204346
70	193.67360520362854	fix_post	2		12.0	68.0	2.5	/experiments/knapen_aot/videos/S_yt-PCSXJ5YB_AE_3.mp4	0.0	274.08892011642456	0.09978294372558594
71	193.77338814735413	fix_pre	0		24.0	69.0	2.5	/experiments/knapen_aot/videos/R_S_yt-dWF89kq2JIA_13.mp4	0.0	274.18870306015015	0.20009183883666992
71	193.95766401290894	response	0	2		69.0	2.5	/experiments/knapen_aot/videos/R_S_yt-dWF89kq2JIA_13.mp4	0.0	274.37297892570496	
71	193.9734799861908	movie	1		301.0	69.0	2.5	/experiments/knapen_aot/videos/R_S_yt-dWF89kq2JIA_13.mp4	0.0	274.3887948989868	2.508467197418213
71	196.481947183609	fix_post	2		12.0	69.0	2.5	/experiments/knapen_aot/videos/R_S_yt-dWF89kq2JIA_13.mp4	0.0	276.89726209640503	0.09986686706542969
72	196.58181405067444	fix_pre	0		24.0	70.0	2.5	blank	1.0	276.99712896347046	0.19988512992858887
72	196.7735960483551	response	0	2		70.0	2.5	blank	1.0	277.1889109611511	
72	196.78169918060303	movie	1		301.0	70.0	2.5	blank	1.0	277.19701409339905	2.508380889892578
72	199.2900800704956	fix_post	2		12.0	70.0	2.5	blank	1.0	279.7053949832916	0.1000509262084961
73	199.3901309967041	fix_pre	0		20.0	71.0	2.5	/experiments/knapen_aot/videos/R_S_ILSVRC2015_train_00434000.mp4	0.0	279.8054459095001	0.16665315628051758
73	199.54859805107117	response	0	2		71.0	2.5	/experiments/knapen_aot/videos/R_S_ILSVRC2015_train_00434000.mp4	0.0	279.9639129638672	
73	199.55678415298462	movie	1		301.0	71.0	2.5	/experiments/knapen_aot/videos/R_S_ILSVRC2015_train_00434000.mp4	0.0	279.97209906578064	2.5083420276641846
73	202.0651261806488	fix_post	2		12.0	71.0	2.5	/experiments/knapen_aot/videos/R_S_ILSVRC2015_train_00434000.mp4	0.0	282.4804410934448	0.09994196891784668
74	202.16506814956665	fix_pre	0		6.0	72.0	2.5	/experiments/knapen_aot/videos/R_S_yt-O_4DgW-XKvA_35.mp4	0.0	282.58038306236267	0.05024600028991699
74	202.2069091796875	response	0	2		72.0	2.5	/experiments/knapen_aot/videos/R_S_yt-O_4DgW-XKvA_35.mp4	0.0	282.6222240924835	
74	202.21531414985657	movie	1		301.0	72.0	2.5	/experiments/knapen_aot/videos/R_S_yt-O_4DgW-XKvA_35.mp4	0.0	282.6306290626526	2.5081379413604736
74	204.72345209121704	fix_post	2		12.0	72.0	2.5	/experiments/knapen_aot/videos/R_S_yt-O_4DgW-XKvA_35.mp4	0.0	285.13876700401306	0.10006999969482422
75	204.82352209091187	fix_pre	0		6.0	73.0	2.5	/experiments/knapen_aot/videos/S_video_inspire_california_vineyard_sierra-mar_sunrise_110.1080-h264.mp4	0.0	285.2388370037079	0.04997396469116211
75	204.86522006988525	response	0	2		73.0	2.5	/experiments/knapen_aot/videos/S_video_inspire_california_vineyard_sierra-mar_sunrise_110.1080-h264.mp4	0.0	285.2805349826813	
75	204.87349605560303	movie	1		167.0	73.0	2.5	/experiments/knapen_aot/videos/S_video_inspire_california_vineyard_sierra-mar_sunrise_110.1080-h264.mp4	0.0	285.28881096839905	2.508531093597412
75	207.38202714920044	fix_post	2		12.0	73.0	2.5	/experiments/knapen_aot/videos/S_video_inspire_california_vineyard_sierra-mar_sunrise_110.1080-h264.mp4	0.0	287.79734206199646	0.0997309684753418
75	207.4651701450348	response	2	2		73.0	2.5	/experiments/knapen_aot/videos/S_video_inspire_california_vineyard_sierra-mar_sunrise_110.1080-h264.mp4	0.0	287.8804850578308	
76	207.48175811767578	fix_pre	0		45.0	74.0	2.5	/experiments/knapen_aot/videos/R_S_pexels-c-technical-6344801.mp4	0.0	287.8970730304718	0.37509894371032715
76	207.8484480381012	response	0	2		74.0	2.5	/experiments/knapen_aot/videos/R_S_pexels-c-technical-6344801.mp4	0.0	288.2637629508972	
76	207.8568570613861	movie	1		214.0	74.0	2.5	/experiments/knapen_aot/videos/R_S_pexels-c-technical-6344801.mp4	0.0	288.27217197418213	2.508234977722168
76	210.36509203910828	fix_post	2		12.0	74.0	2.5	/experiments/knapen_aot/videos/R_S_pexels-c-technical-6344801.mp4	0.0	290.7804069519043	0.10044002532958984
77	210.46553206443787	fix_pre	0		11.0	75.0	2.5	/experiments/knapen_aot/videos/R_S_ILSVRC2015_train_00599000.mp4	0.0	290.8808469772339	0.09119606018066406
77	210.54855513572693	response	0	2		75.0	2.5	/experiments/knapen_aot/videos/R_S_ILSVRC2015_train_00599000.mp4	0.0	290.96387004852295	
77	210.55672812461853	movie	1		301.0	75.0	2.5	/experiments/knapen_aot/videos/R_S_ILSVRC2015_train_00599000.mp4	0.0	290.97204303741455	2.5084309577941895
77	213.06515908241272	fix_post	2		12.0	75.0	2.5	/experiments/knapen_aot/videos/R_S_ILSVRC2015_train_00599000.mp4	0.0	293.48047399520874	0.09986305236816406
78	213.16502213478088	fix_pre	0		34.0	76.0	2.5	/experiments/knapen_aot/videos/R_S_ILSVRC2015_train_00446000.mp4	0.0	293.5803370475769	0.2833240032196045
78	213.44018816947937	response	0	2		76.0	2.5	/experiments/knapen_aot/videos/R_S_ILSVRC2015_train_00446000.mp4	0.0	293.8555030822754	
78	213.4483461380005	movie	1		301.0	76.0	2.5	/experiments/knapen_aot/videos/R_S_ILSVRC2015_train_00446000.mp4	0.0	293.8636610507965	2.5085060596466064
78	215.9568521976471	fix_post	2		12.0	76.0	2.5	/experiments/knapen_aot/videos/R_S_ILSVRC2015_train_00446000.mp4	0.0	296.3721671104431	0.09988594055175781
79	216.05673813819885	fix_pre	0		10.0	77.0	2.5	blank	1.0	296.4720530509949	0.08336806297302246
79	216.13196420669556	response	0	2		77.0	2.5	blank	1.0	296.5472791194916	
79	216.14010620117188	movie	1		301.0	77.0	2.5	blank	1.0	296.5554211139679	2.50832200050354
79	218.64842820167542	fix_post	2		12.0	77.0	2.5	blank	1.0	299.06374311447144	0.10002279281616211
80	218.74845099449158	fix_pre	0		25.0	78.0	2.5	/experiments/knapen_aot/videos/S_wc-PsidKmkEV7Km_14.mp4	0.0	299.1637659072876	0.2082810401916504
80	218.94856214523315	response	0	2		78.0	2.5	/experiments/knapen_aot/videos/S_wc-PsidKmkEV7Km_14.mp4	0.0	299.3638770580292	
80	218.95673203468323	movie	1		175.0	78.0	2.5	/experiments/knapen_aot/videos/S_wc-PsidKmkEV7Km_14.mp4	0.0	299.37204694747925	2.5084919929504395
80	221.46522402763367	fix_post	2		12.0	78.0	2.5	/experiments/knapen_aot/videos/S_wc-PsidKmkEV7Km_14.mp4	0.0	301.8805389404297	0.09992098808288574
81	221.56514501571655	fix_pre	0		8.0	79.0	2.5	/experiments/knapen_aot/videos/R_S_pexels-c-technical-6753390.mp4	0.0	301.9804599285126	0.06662917137145996
81	221.61589217185974	response	0	2		79.0	2.5	/experiments/knapen_aot/videos/R_S_pexels-c-technical-6753390.mp4	0.0	302.03120708465576	
81	221.631774187088	movie	1		210.0	79.0	2.5	/experiments/knapen_aot/videos/R_S_pexels-c-technical-6753390.mp4	0.0	302.04708909988403	2.508267879486084
81	224.1400420665741	fix_post	2		12.0	79.0	2.5	/experiments/knapen_aot/videos/R_S_pexels-c-technical-6753390.mp4	0.0	304.5553569793701	0.10001611709594727
82	224.24005818367004	fix_pre	0		6.0	80.0	2.5	/experiments/knapen_aot/videos/R_S_yt-kawmL3oVw8c_2.mp4	0.0	304.65537309646606	0.0499119758605957
82	224.28185606002808	response	0	2		80.0	2.5	/experiments/knapen_aot/videos/R_S_yt-kawmL3oVw8c_2.mp4	0.0	304.6971709728241	
82	224.28997015953064	movie	1		301.0	80.0	2.5	/experiments/knapen_aot/videos/R_S_yt-kawmL3oVw8c_2.mp4	0.0	304.70528507232666	2.5085489749908447
82	226.79851913452148	fix_post	2		12.0	80.0	2.5	/experiments/knapen_aot/videos/R_S_yt-kawmL3oVw8c_2.mp4	0.0	307.2138340473175	0.09989595413208008
83	226.89841508865356	fix_pre	0		13.0	81.0	2.5	/experiments/knapen_aot/videos/S_flickr-53807584@N00-5565833509_7.mp4	0.0	307.3137300014496	0.10834908485412598
83	226.9985010623932	response	0	2		81.0	2.5	/experiments/knapen_aot/videos/S_flickr-53807584@N00-5565833509_7.mp4	0.0	307.4138159751892	
83	227.0067641735077	movie	1		301.0	81.0	2.5	/experiments/knapen_aot/videos/S_flickr-53807584@N00-5565833509_7.mp4	0.0	307.4220790863037	2.508281946182251
83	229.51504611968994	fix_post	2		12.0	81.0	2.5	/experiments/knapen_aot/videos/S_flickr-53807584@N00-5565833509_7.mp4	0.0	309.93036103248596	0.09999990463256836
84	229.6150460243225	fix_pre	0		18.0	82.0	2.5	/experiments/knapen_aot/videos/S_yt-nE8YJOhW4e4_171.mp4	0.0	310.03036093711853	0.14991497993469238
84	229.74917817115784	response	0	2		82.0	2.5	/experiments/knapen_aot/videos/S_yt-nE8YJOhW4e4_171.mp4	0.0	310.16449308395386	
84	229.7649610042572	movie	1		301.0	82.0	2.5	/experiments/knapen_aot/videos/S_yt-nE8YJOhW4e4_171.mp4	0.0	310.1802759170532	2.508671998977661
84	232.27363300323486	fix_post	2		12.0	82.0	2.5	/experiments/knapen_aot/videos/S_yt-nE8YJOhW4e4_171.mp4	0.0	312.6889479160309	0.09974098205566406
85	232.37337398529053	fix_pre	0		28.0	83.0	2.5	blank	1.0	312.78868889808655	0.2333071231842041
85	232.59848499298096	response	0	2		83.0	2.5	blank	1.0	313.013799905777	
85	232.60668110847473	movie	1		301.0	83.0	2.5	blank	1.0	313.02199602127075	2.508310079574585
85	235.11499118804932	fix_post	2		12.0	83.0	2.5	blank	1.0	315.53030610084534	0.10010695457458496
87	235.2150981426239	stim	0		265.0					315.6304130554199	2.2082579135894775
87	235.3900990486145	response	0	2						315.8054139614105	
87	237.41970801353455	response	0	space						317.83502292633057	
