trial_nr	onset	event_type	phase	response	nr_frames	movie_index	movie_duration	movie_file	blank	onset_abs	duration
0	0.1551060676574707	stim	0		44.0					98.4472348690033	0.3665430545806885
0	0.5141069889068604	response	0	space						98.80623579025269	
1	0.5216491222381592	stim	0		121.0					98.81377792358398	1.0080609321594238
1	1.2881369590759277	response	0	space						99.58026576042175	
1	1.529710054397583	stim	1		120.0					99.82183885574341	0.9999430179595947
1	1.7048389911651611	response	1	space						99.99696779251099	
1	2.521444082260132	response	1	space						100.81357288360596	
2	2.5296530723571777	fix_pre	0		34.0	0.0	2.5	/experiments/knapen_aot/videos/S_yt-HwZFMTZ7Xko_35.mp4	0.0	100.821781873703	0.2833690643310547
2	2.804763078689575	response	0	space		0.0	2.5	/experiments/knapen_aot/videos/S_yt-HwZFMTZ7Xko_35.mp4	0.0	101.0968918800354	
2	2.8130221366882324	movie	1		301.0	0.0	2.5	/experiments/knapen_aot/videos/S_yt-HwZFMTZ7Xko_35.mp4	0.0	101.10515093803406	2.508436918258667
2	5.321459054946899	fix_post	2		12.0	0.0	2.5	/experiments/knapen_aot/videos/S_yt-HwZFMTZ7Xko_35.mp4	0.0	103.61358785629272	0.09989809989929199
3	5.421357154846191	fix_pre	0		20.0	1.0	2.5	/experiments/knapen_aot/videos/R_S_ILSVRC2015_train_00524006.mp4	0.0	103.71348595619202	0.16851282119750977
3	5.580563068389893	response	0	2		1.0	2.5	/experiments/knapen_aot/videos/R_S_ILSVRC2015_train_00524006.mp4	0.0	103.87269186973572	
3	5.589869976043701	movie	1		301.0	1.0	2.5	/experiments/knapen_aot/videos/R_S_ILSVRC2015_train_00524006.mp4	0.0	103.88199877738953	2.506437063217163
3	8.096307039260864	fix_post	2		12.0	1.0	2.5	/experiments/knapen_aot/videos/R_S_ILSVRC2015_train_00524006.mp4	0.0	106.38843584060669	0.1000370979309082
4	8.196344137191772	fix_pre	0		24.0	2.0	2.5	/experiments/knapen_aot/videos/S_yt-r4st6Mt4EE8_85.mp4	0.0	106.4884729385376	0.19994187355041504
4	8.388102054595947	response	0	2		2.0	2.5	/experiments/knapen_aot/videos/S_yt-r4st6Mt4EE8_85.mp4	0.0	106.68023085594177	
4	8.396286010742188	movie	1		301.0	2.0	2.5	/experiments/knapen_aot/videos/S_yt-r4st6Mt4EE8_85.mp4	0.0	106.68841481208801	2.5083839893341064
4	10.904670000076294	fix_post	2		12.0	2.0	2.5	/experiments/knapen_aot/videos/S_yt-r4st6Mt4EE8_85.mp4	0.0	109.19679880142212	0.09999394416809082
5	11.004663944244385	fix_pre	0		20.0	3.0	2.5	/experiments/knapen_aot/videos/S_yt-LQrnLKP5tiQ_48.mp4	0.0	109.29679274559021	0.16665101051330566
5	11.163161993026733	response	0	2		3.0	2.5	/experiments/knapen_aot/videos/S_yt-LQrnLKP5tiQ_48.mp4	0.0	109.45529079437256	
5	11.17131495475769	movie	1		301.0	3.0	2.5	/experiments/knapen_aot/videos/S_yt-LQrnLKP5tiQ_48.mp4	0.0	109.46344375610352	2.5084261894226074
5	13.679741144180298	fix_post	2		12.0	3.0	2.5	/experiments/knapen_aot/videos/S_yt-LQrnLKP5tiQ_48.mp4	0.0	111.97186994552612	0.09990382194519043
6	13.779644966125488	fix_pre	0		20.0	4.0	2.5	/experiments/knapen_aot/videos/S_ILSVRC2015_train_00654000.mp4	0.0	112.07177376747131	0.1667041778564453
6	13.938104152679443	response	0	2		4.0	2.5	/experiments/knapen_aot/videos/S_ILSVRC2015_train_00654000.mp4	0.0	112.23023295402527	
6	13.946349143981934	movie	1		301.0	4.0	2.5	/experiments/knapen_aot/videos/S_ILSVRC2015_train_00654000.mp4	0.0	112.23847794532776	2.5082449913024902
6	16.454594135284424	fix_post	2		12.0	4.0	2.5	/experiments/knapen_aot/videos/S_ILSVRC2015_train_00654000.mp4	0.0	114.74672293663025	0.10004401206970215
7	16.554638147354126	fix_pre	0		8.0	5.0	2.5	/experiments/knapen_aot/videos/R_S_yt-kQpE9L-fsNE_55.mp4	0.0	114.84676694869995	0.06666994094848633
7	16.60556197166443	response	0	2		5.0	2.5	/experiments/knapen_aot/videos/R_S_yt-kQpE9L-fsNE_55.mp4	0.0	114.89769077301025	
7	16.621308088302612	movie	1		301.0	5.0	2.5	/experiments/knapen_aot/videos/R_S_yt-kQpE9L-fsNE_55.mp4	0.0	114.91343688964844	2.5082929134368896
7	19.129601001739502	fix_post	2		12.0	5.0	2.5	/experiments/knapen_aot/videos/R_S_yt-kQpE9L-fsNE_55.mp4	0.0	117.42172980308533	0.10001111030578613
8	19.229612112045288	fix_pre	0		13.0	6.0	2.5	/experiments/knapen_aot/videos/S_pexels-pavel-danilyuk-8626652.mp4	0.0	117.52174091339111	0.10832881927490234
8	19.329705953598022	response	0	2		6.0	2.5	/experiments/knapen_aot/videos/S_pexels-pavel-danilyuk-8626652.mp4	0.0	117.62183475494385	
8	19.33794093132019	movie	1		165.0	6.0	2.5	/experiments/knapen_aot/videos/S_pexels-pavel-danilyuk-8626652.mp4	0.0	117.63006973266602	2.5083742141723633
8	21.846315145492554	fix_post	2		12.0	6.0	2.5	/experiments/knapen_aot/videos/S_pexels-pavel-danilyuk-8626652.mp4	0.0	120.13844394683838	0.10001492500305176
9	21.946330070495605	fix_pre	0		6.0	7.0	2.5	blank	1.0	120.23845887184143	0.04999208450317383
9	21.988052129745483	response	0	2		7.0	2.5	blank	1.0	120.28018093109131	
9	21.99632215499878	movie	1		301.0	7.0	2.5	blank	1.0	120.2884509563446	2.508291006088257
9	24.504613161087036	fix_post	2		12.0	7.0	2.5	blank	1.0	122.79674196243286	0.10002589225769043
10	24.604639053344727	fix_pre	0		18.0	8.0	2.5	/experiments/knapen_aot/videos/R_S_ILSVRC2015_train_00715000.mp4	0.0	122.89676785469055	0.1499791145324707
10	24.746422052383423	response	0	2		8.0	2.5	/experiments/knapen_aot/videos/R_S_ILSVRC2015_train_00715000.mp4	0.0	123.03855085372925	
10	24.754618167877197	movie	1		301.0	8.0	2.5	/experiments/knapen_aot/videos/R_S_ILSVRC2015_train_00715000.mp4	0.0	123.04674696922302	2.5083467960357666
10	27.262964963912964	fix_post	2		12.0	8.0	2.5	/experiments/knapen_aot/videos/R_S_ILSVRC2015_train_00715000.mp4	0.0	125.55509376525879	0.10011816024780273
11	27.363083124160767	fix_pre	0		2.0	9.0	2.5	/experiments/knapen_aot/videos/R_S_yt-fymgyhmYnMI_76.mp4	0.0	125.65521192550659	0.016510963439941406
11	27.371610164642334	response	0	2		9.0	2.5	/experiments/knapen_aot/videos/R_S_yt-fymgyhmYnMI_76.mp4	0.0	125.66373896598816	
11	27.379594087600708	movie	1		301.0	9.0	2.5	/experiments/knapen_aot/videos/R_S_yt-fymgyhmYnMI_76.mp4	0.0	125.67172288894653	2.5082499980926514
11	29.88784408569336	fix_post	2		12.0	9.0	2.5	/experiments/knapen_aot/videos/R_S_yt-fymgyhmYnMI_76.mp4	0.0	128.17997288703918	0.10006403923034668
12	29.987908124923706	fix_pre	0		16.0	10.0	2.5	/experiments/knapen_aot/videos/S_yt-ak01CHYgEOs_1383.mp4	0.0	128.28003692626953	0.13344502449035645
12	30.113034963607788	response	0	2		10.0	2.5	/experiments/knapen_aot/videos/S_yt-ak01CHYgEOs_1383.mp4	0.0	128.4051637649536	
12	30.121353149414062	movie	1		298.0	10.0	2.5	/experiments/knapen_aot/videos/S_yt-ak01CHYgEOs_1383.mp4	0.0	128.4134819507599	2.50819993019104
12	32.6295530796051	fix_post	2		12.0	10.0	2.5	/experiments/knapen_aot/videos/S_yt-ak01CHYgEOs_1383.mp4	0.0	130.92168188095093	0.09995508193969727
13	32.7295081615448	fix_pre	0		22.0	11.0	2.5	/experiments/knapen_aot/videos/S_pexels-roman-odintsov-8233166.mp4	0.0	131.02163696289062	0.18336081504821777
13	32.90471696853638	response	0	2		11.0	2.5	/experiments/knapen_aot/videos/S_pexels-roman-odintsov-8233166.mp4	0.0	131.1968457698822	
13	32.91286897659302	movie	1		193.0	11.0	2.5	/experiments/knapen_aot/videos/S_pexels-roman-odintsov-8233166.mp4	0.0	131.20499777793884	2.5083820819854736
13	35.42125105857849	fix_post	2		12.0	11.0	2.5	/experiments/knapen_aot/videos/S_pexels-roman-odintsov-8233166.mp4	0.0	133.71337985992432	0.09999394416809082
14	35.52124500274658	fix_pre	0		2.0	12.0	2.5	/experiments/knapen_aot/videos/S_yt-qE70lj3-A78_228.mp4	0.0	133.8133738040924	0.01664113998413086
14	35.529667139053345	response	0	2		12.0	2.5	/experiments/knapen_aot/videos/S_yt-qE70lj3-A78_228.mp4	0.0	133.82179594039917	
14	35.53788614273071	movie	1		299.0	12.0	2.5	/experiments/knapen_aot/videos/S_yt-qE70lj3-A78_228.mp4	0.0	133.83001494407654	2.5083889961242676
14	38.04627513885498	fix_post	2		12.0	12.0	2.5	/experiments/knapen_aot/videos/S_yt-qE70lj3-A78_228.mp4	0.0	136.3384039402008	0.09999299049377441
15	38.146268129348755	fix_pre	0		16.0	13.0	2.5	/experiments/knapen_aot/videos/R_S_yt-rY_ra5Tb9XU_51.mp4	0.0	136.43839693069458	0.13332700729370117
15	38.271405935287476	response	0	2		13.0	2.5	/experiments/knapen_aot/videos/R_S_yt-rY_ra5Tb9XU_51.mp4	0.0	136.5635347366333	
15	38.279595136642456	movie	1		301.0	13.0	2.5	/experiments/knapen_aot/videos/R_S_yt-rY_ra5Tb9XU_51.mp4	0.0	136.57172393798828	2.5083138942718506
15	40.78790903091431	fix_post	2		12.0	13.0	2.5	/experiments/knapen_aot/videos/R_S_yt-rY_ra5Tb9XU_51.mp4	0.0	139.08003783226013	0.10033893585205078
16	40.88824796676636	fix_pre	0		22.0	14.0	2.5	blank	1.0	139.18037676811218	0.18298697471618652
16	41.06301999092102	response	0	2		14.0	2.5	blank	1.0	139.35514879226685	
16	41.071234941482544	movie	1		301.0	14.0	2.5	blank	1.0	139.36336374282837	2.508362054824829
16	43.57959699630737	fix_post	2		12.0	14.0	2.5	blank	1.0	141.8717257976532	0.10028314590454102
17	43.679880142211914	fix_pre	0		17.0	15.0	2.5	/experiments/knapen_aot/videos/S_ILSVRC2015_train_00574004.mp4	0.0	141.97200894355774	0.1413288116455078
17	43.81306314468384	response	0	2		15.0	2.5	/experiments/knapen_aot/videos/S_ILSVRC2015_train_00574004.mp4	0.0	142.10519194602966	
17	43.82120895385742	movie	1		301.0	15.0	2.5	/experiments/knapen_aot/videos/S_ILSVRC2015_train_00574004.mp4	0.0	142.11333775520325	2.5083401203155518
17	46.329549074172974	fix_post	2		12.0	15.0	2.5	/experiments/knapen_aot/videos/S_ILSVRC2015_train_00574004.mp4	0.0	144.6216778755188	0.10032892227172852
18	46.4298779964447	fix_pre	0		1.0	16.0	2.5	/experiments/knapen_aot/videos/R_S_comp_GMT329_113NC_396B_1105_CHINA_v04_SDR_FINAL_20180706_F900F2700_SDR_2K_AVC.mp4	0.0	144.72200679779053	0.007997989654541016
18	46.43157410621643	response	0	2		16.0	2.5	/experiments/knapen_aot/videos/R_S_comp_GMT329_113NC_396B_1105_CHINA_v04_SDR_FINAL_20180706_F900F2700_SDR_2K_AVC.mp4	0.0	144.72370290756226	
18	46.43787598609924	movie	1		166.0	16.0	2.5	/experiments/knapen_aot/videos/R_S_comp_GMT329_113NC_396B_1105_CHINA_v04_SDR_FINAL_20180706_F900F2700_SDR_2K_AVC.mp4	0.0	144.73000478744507	2.5083069801330566
18	48.9461829662323	fix_post	2		12.0	16.0	2.5	/experiments/knapen_aot/videos/R_S_comp_GMT329_113NC_396B_1105_CHINA_v04_SDR_FINAL_20180706_F900F2700_SDR_2K_AVC.mp4	0.0	147.23831176757812	0.09998011589050293
19	49.0461630821228	fix_pre	0		8.0	17.0	2.5	/experiments/knapen_aot/videos/S_yt-HFiRYTnMZxE_338.mp4	0.0	147.33829188346863	0.06666994094848633
19	49.10464406013489	response	0	2		17.0	2.5	/experiments/knapen_aot/videos/S_yt-HFiRYTnMZxE_338.mp4	0.0	147.3967728614807	
19	49.11283302307129	movie	1		301.0	17.0	2.5	/experiments/knapen_aot/videos/S_yt-HFiRYTnMZxE_338.mp4	0.0	147.40496182441711	2.508323907852173
19	51.62115693092346	fix_post	2		12.0	17.0	2.5	/experiments/knapen_aot/videos/S_yt-HFiRYTnMZxE_338.mp4	0.0	149.9132857322693	0.10037517547607422
20	51.721532106399536	fix_pre	0		21.0	18.0	2.5	/experiments/knapen_aot/videos/R_S_xq822dX6DDM_1.mp4	0.0	150.01366090774536	0.17461490631103516
20	51.88804006576538	response	0	2		18.0	2.5	/experiments/knapen_aot/videos/R_S_xq822dX6DDM_1.mp4	0.0	150.1801688671112	
20	51.89614701271057	movie	1		301.0	18.0	2.5	/experiments/knapen_aot/videos/R_S_xq822dX6DDM_1.mp4	0.0	150.1882758140564	2.508294105529785
20	54.404441118240356	fix_post	2		10.0	18.0	2.5	/experiments/knapen_aot/videos/R_S_xq822dX6DDM_1.mp4	0.0	152.69656991958618	0.10002803802490234
21	54.50446915626526	fix_pre	0		10.0	19.0	2.5	/experiments/knapen_aot/videos/R_S_yt-LYnwnfi1JJ4_120.mp4	0.0	152.79659795761108	0.08329987525939941
21	54.579566955566406	response	0	2		19.0	2.5	/experiments/knapen_aot/videos/R_S_yt-LYnwnfi1JJ4_120.mp4	0.0	152.87169575691223	
21	54.58776903152466	movie	1		301.0	19.0	2.5	/experiments/knapen_aot/videos/R_S_yt-LYnwnfi1JJ4_120.mp4	0.0	152.87989783287048	2.5082991123199463
21	57.096068143844604	fix_post	2		12.0	19.0	2.5	/experiments/knapen_aot/videos/R_S_yt-LYnwnfi1JJ4_120.mp4	0.0	155.38819694519043	0.10004997253417969
22	57.196118116378784	fix_pre	0		19.0	20.0	2.5	blank	1.0	155.4882469177246	0.1583108901977539
22	57.34632897377014	response	0	2		20.0	2.5	blank	1.0	155.63845777511597	
22	57.35442900657654	movie	1		301.0	20.0	2.5	blank	1.0	155.64655780792236	2.5083110332489014
22	59.86274003982544	fix_post	2		12.0	20.0	2.5	blank	1.0	158.15486884117126	0.1000359058380127
22	59.938775062561035	response	2	2		20.0	2.5	blank	1.0	158.23090386390686	
23	59.96277594566345	fix_pre	0		35.0	21.0	2.5	/experiments/knapen_aot/videos/R_S_EFR8AteY59I_15.mp4	0.0	158.25490474700928	0.2916719913482666
23	60.246111154556274	response	0	2		21.0	2.5	/experiments/knapen_aot/videos/R_S_EFR8AteY59I_15.mp4	0.0	158.5382399559021	
23	60.25444793701172	movie	1		300.0	21.0	2.5	/experiments/knapen_aot/videos/R_S_EFR8AteY59I_15.mp4	0.0	158.54657673835754	2.508310079574585
23	62.762758016586304	fix_post	2		12.0	21.0	2.5	/experiments/knapen_aot/videos/R_S_EFR8AteY59I_15.mp4	0.0	161.05488681793213	0.100006103515625
24	62.86276412010193	fix_pre	0		10.0	22.0	2.5	/experiments/knapen_aot/videos/S_yt-qE70lj3-A78_228.mp4	0.0	161.15489292144775	0.08333992958068848
24	62.937901973724365	response	0	2		22.0	2.5	/experiments/knapen_aot/videos/S_yt-qE70lj3-A78_228.mp4	0.0	161.2300307750702	
24	62.94610404968262	movie	1		301.0	22.0	2.5	/experiments/knapen_aot/videos/S_yt-qE70lj3-A78_228.mp4	0.0	161.23823285102844	2.5083649158477783
24	65.4544689655304	fix_post	2		12.0	22.0	2.5	/experiments/knapen_aot/videos/S_yt-qE70lj3-A78_228.mp4	0.0	163.74659776687622	0.10033106803894043
25	65.55480003356934	fix_pre	0		40.0	23.0	2.5	/experiments/knapen_aot/videos/R_S_yt-RMjo2PPEPEA_112.mp4	0.0	163.84692883491516	0.3331599235534668
25	65.8795690536499	response	0	2		23.0	2.5	/experiments/knapen_aot/videos/R_S_yt-RMjo2PPEPEA_112.mp4	0.0	164.17169785499573	
25	65.8879599571228	movie	1		301.0	23.0	2.5	/experiments/knapen_aot/videos/R_S_yt-RMjo2PPEPEA_112.mp4	0.0	164.18008875846863	2.5081100463867188
25	68.39607000350952	fix_post	2		12.0	23.0	2.5	/experiments/knapen_aot/videos/R_S_yt-RMjo2PPEPEA_112.mp4	0.0	166.68819880485535	0.09997296333312988
26	68.49604296684265	fix_pre	0		22.0	24.0	2.5	/experiments/knapen_aot/videos/R_S_yt-IyxCMODHSSE_29.mp4	0.0	166.78817176818848	0.18353915214538574
26	68.6711790561676	response	0	2		24.0	2.5	/experiments/knapen_aot/videos/R_S_yt-IyxCMODHSSE_29.mp4	0.0	166.96330785751343	
26	68.67958211898804	movie	1		301.0	24.0	2.5	/experiments/knapen_aot/videos/R_S_yt-IyxCMODHSSE_29.mp4	0.0	166.97171092033386	2.5080699920654297
26	71.18765211105347	fix_post	2		12.0	24.0	2.5	/experiments/knapen_aot/videos/R_S_yt-IyxCMODHSSE_29.mp4	0.0	169.4797809123993	0.10010695457458496
27	71.28775906562805	fix_pre	0		25.0	25.0	2.5	/experiments/knapen_aot/videos/R_S_b2-4.mp4	0.0	169.57988786697388	0.2083120346069336
27	71.48787903785706	response	0	2		25.0	2.5	/experiments/knapen_aot/videos/R_S_b2-4.mp4	0.0	169.78000783920288	
27	71.49607110023499	movie	1		166.0	25.0	2.5	/experiments/knapen_aot/videos/R_S_b2-4.mp4	0.0	169.7881999015808	2.5083210468292236
27	74.00439214706421	fix_post	2		12.0	25.0	2.5	/experiments/knapen_aot/videos/R_S_b2-4.mp4	0.0	172.29652094841003	0.09993481636047363
28	74.10432696342468	fix_pre	0		10.0	26.0	2.5	blank	1.0	172.3964557647705	0.08341312408447266
28	74.17946600914001	response	0	2		26.0	2.5	blank	1.0	172.47159481048584	
28	74.18774008750916	movie	1		301.0	26.0	2.5	blank	1.0	172.47986888885498	2.508251905441284
28	76.69599199295044	fix_post	2		12.0	26.0	2.5	blank	1.0	174.98812079429626	0.10006213188171387
29	76.79605412483215	fix_pre	0		36.0	27.0	2.5	/experiments/knapen_aot/videos/R_S_ILSVRC2015_train_00743002.mp4	0.0	175.08818292617798	0.3001408576965332
29	77.08789300918579	response	0	2		27.0	2.5	/experiments/knapen_aot/videos/R_S_ILSVRC2015_train_00743002.mp4	0.0	175.38002181053162	
29	77.09619498252869	movie	1		301.0	27.0	2.5	/experiments/knapen_aot/videos/R_S_ILSVRC2015_train_00743002.mp4	0.0	175.3883237838745	2.508108139038086
29	79.60430312156677	fix_post	2		12.0	27.0	2.5	/experiments/knapen_aot/videos/R_S_ILSVRC2015_train_00743002.mp4	0.0	177.8964319229126	0.10006904602050781
30	79.70437216758728	fix_pre	0		8.0	28.0	2.5	/experiments/knapen_aot/videos/S_yt-KK6fVRAMm-c_476.mp4	0.0	177.9965009689331	0.06664490699768066
30	79.76282596588135	response	0	2		28.0	2.5	/experiments/knapen_aot/videos/S_yt-KK6fVRAMm-c_476.mp4	0.0	178.05495476722717	
30	79.77101707458496	movie	1		301.0	28.0	2.5	/experiments/knapen_aot/videos/S_yt-KK6fVRAMm-c_476.mp4	0.0	178.0631458759308	2.50827693939209
30	82.27929401397705	fix_post	2		12.0	28.0	2.5	/experiments/knapen_aot/videos/S_yt-KK6fVRAMm-c_476.mp4	0.0	180.57142281532288	0.10005593299865723
31	82.37934994697571	fix_pre	0		15.0	29.0	2.5	/experiments/knapen_aot/videos/R_S_yt-VJ65ukWmdxQ_193.mp4	0.0	180.67147874832153	0.125014066696167
31	82.49613904953003	response	0	2		29.0	2.5	/experiments/knapen_aot/videos/R_S_yt-VJ65ukWmdxQ_193.mp4	0.0	180.78826785087585	
31	82.50436401367188	movie	1		301.0	29.0	2.5	/experiments/knapen_aot/videos/R_S_yt-VJ65ukWmdxQ_193.mp4	0.0	180.7964928150177	2.508419990539551
31	85.01278400421143	fix_post	2		12.0	29.0	2.5	/experiments/knapen_aot/videos/R_S_yt-VJ65ukWmdxQ_193.mp4	0.0	183.30491280555725	0.0999300479888916
32	85.11271405220032	fix_pre	0		14.0	30.0	2.5	/experiments/knapen_aot/videos/R_S_ILnEDG_aP1A_35.mp4	0.0	183.40484285354614	0.11663508415222168
32	85.22120904922485	response	0	2		30.0	2.5	/experiments/knapen_aot/videos/R_S_ILnEDG_aP1A_35.mp4	0.0	183.51333785057068	
32	85.22934913635254	movie	1		301.0	30.0	2.5	/experiments/knapen_aot/videos/R_S_ILnEDG_aP1A_35.mp4	0.0	183.52147793769836	2.5083518028259277
32	87.73770093917847	fix_post	2		12.0	30.0	2.5	/experiments/knapen_aot/videos/R_S_ILnEDG_aP1A_35.mp4	0.0	186.0298297405243	0.10002303123474121
33	87.83772397041321	fix_pre	0		42.0	31.0	2.5	/experiments/knapen_aot/videos/S_ILSVRC2015_train_00632002.mp4	0.0	186.12985277175903	0.34999799728393555
33	88.17953300476074	response	0	2		31.0	2.5	/experiments/knapen_aot/videos/S_ILSVRC2015_train_00632002.mp4	0.0	186.47166180610657	
33	88.18772196769714	movie	1		298.0	31.0	2.5	/experiments/knapen_aot/videos/S_ILSVRC2015_train_00632002.mp4	0.0	186.47985076904297	2.508319139480591
33	90.69604110717773	fix_post	2		12.0	31.0	2.5	/experiments/knapen_aot/videos/S_ILSVRC2015_train_00632002.mp4	0.0	188.98816990852356	0.09999585151672363
34	90.79603695869446	fix_pre	0		13.0	32.0	2.5	/experiments/knapen_aot/videos/S_pexels-rodnae-productions-5617905.mp4	0.0	189.08816576004028	0.1083071231842041
34	90.89617395401001	response	0	2		32.0	2.5	/experiments/knapen_aot/videos/S_pexels-rodnae-productions-5617905.mp4	0.0	189.18830275535583	
34	90.90434408187866	movie	1		171.0	32.0	2.5	/experiments/knapen_aot/videos/S_pexels-rodnae-productions-5617905.mp4	0.0	189.1964728832245	2.5083348751068115
34	93.41267895698547	fix_post	2		12.0	32.0	2.5	/experiments/knapen_aot/videos/S_pexels-rodnae-productions-5617905.mp4	0.0	191.7048077583313	0.10008716583251953
35	93.512766122818	fix_pre	0		11.0	33.0	2.5	blank	1.0	191.80489492416382	0.09160089492797852
35	93.59612512588501	response	0	2		33.0	2.5	blank	1.0	191.88825392723083	
35	93.60436701774597	movie	1		301.0	33.0	2.5	blank	1.0	191.8964958190918	2.5083260536193848
35	96.11269307136536	fix_post	2		12.0	33.0	2.5	blank	1.0	194.40482187271118	0.10000395774841309
36	96.21269702911377	fix_pre	0		14.0	34.0	2.5	/experiments/knapen_aot/videos/R_S_yt-26009GpQuUg_3.mp4	0.0	194.5048258304596	0.11662697792053223
36	96.32133507728577	response	0	2		34.0	2.5	/experiments/knapen_aot/videos/R_S_yt-26009GpQuUg_3.mp4	0.0	194.6134638786316	
36	96.3293240070343	movie	1		301.0	34.0	2.5	/experiments/knapen_aot/videos/R_S_yt-26009GpQuUg_3.mp4	0.0	194.62145280838013	2.508301019668579
36	98.83762502670288	fix_post	2		12.0	34.0	2.5	/experiments/knapen_aot/videos/R_S_yt-26009GpQuUg_3.mp4	0.0	197.1297538280487	0.10004591941833496
37	98.93767094612122	fix_pre	0		9.0	35.0	2.5	/experiments/knapen_aot/videos/R_S_ILSVRC2015_train_00001009.mp4	0.0	197.22979974746704	0.07504916191101074
37	99.00468897819519	response	0	2		35.0	2.5	/experiments/knapen_aot/videos/R_S_ILSVRC2015_train_00001009.mp4	0.0	197.29681777954102	
37	99.01272010803223	movie	1		301.0	35.0	2.5	/experiments/knapen_aot/videos/R_S_ILSVRC2015_train_00001009.mp4	0.0	197.30484890937805	2.508262872695923
37	101.52098298072815	fix_post	2		12.0	35.0	2.5	/experiments/knapen_aot/videos/R_S_ILSVRC2015_train_00001009.mp4	0.0	199.81311178207397	0.09995007514953613
38	101.62093305587769	fix_pre	0		18.0	36.0	2.5	/experiments/knapen_aot/videos/S_yt-2cwARrUMj40_67.mp4	0.0	199.9130618572235	0.15003108978271484
38	101.76281094551086	response	0	2		36.0	2.5	/experiments/knapen_aot/videos/S_yt-2cwARrUMj40_67.mp4	0.0	200.0549397468567	
38	101.7709641456604	movie	1		301.0	36.0	2.5	/experiments/knapen_aot/videos/S_yt-2cwARrUMj40_67.mp4	0.0	200.06309294700623	2.5083069801330566
38	104.27927112579346	fix_post	2		12.0	36.0	2.5	/experiments/knapen_aot/videos/S_yt-2cwARrUMj40_67.mp4	0.0	202.57139992713928	0.10002899169921875
39	104.37930011749268	fix_pre	0		11.0	37.0	2.5	/experiments/knapen_aot/videos/S_yt-Fm97IY0Z2LU_79.mp4	0.0	202.6714289188385	0.09164190292358398
39	104.46271896362305	response	0	2		37.0	2.5	/experiments/knapen_aot/videos/S_yt-Fm97IY0Z2LU_79.mp4	0.0	202.75484776496887	
39	104.47094202041626	movie	1		299.0	37.0	2.5	/experiments/knapen_aot/videos/S_yt-Fm97IY0Z2LU_79.mp4	0.0	202.76307082176208	2.508363962173462
39	106.97930598258972	fix_post	2		12.0	37.0	2.5	/experiments/knapen_aot/videos/S_yt-Fm97IY0Z2LU_79.mp4	0.0	205.27143478393555	0.09998607635498047
40	107.0792920589447	fix_pre	0		14.0	38.0	2.5	/experiments/knapen_aot/videos/S_pexels-c-technical-6753390.mp4	0.0	205.37142086029053	0.11664390563964844
40	107.18777799606323	response	0	2		38.0	2.5	/experiments/knapen_aot/videos/S_pexels-c-technical-6753390.mp4	0.0	205.47990679740906	
40	107.19593596458435	movie	1		198.0	38.0	2.5	/experiments/knapen_aot/videos/S_pexels-c-technical-6753390.mp4	0.0	205.48806476593018	2.5082781314849854
40	109.70421409606934	fix_post	2		12.0	38.0	2.5	/experiments/knapen_aot/videos/S_pexels-c-technical-6753390.mp4	0.0	207.99634289741516	0.10002398490905762
41	109.8042380809784	fix_pre	0		15.0	39.0	2.5	/experiments/knapen_aot/videos/R_S_DL_B002_C011_SDR_20191122_SDR_2K_AVC.mp4	0.0	208.09636688232422	0.12497806549072266
41	109.92105293273926	response	0	2		39.0	2.5	/experiments/knapen_aot/videos/R_S_DL_B002_C011_SDR_20191122_SDR_2K_AVC.mp4	0.0	208.21318173408508	
41	109.92921614646912	movie	1		163.0	39.0	2.5	/experiments/knapen_aot/videos/R_S_DL_B002_C011_SDR_20191122_SDR_2K_AVC.mp4	0.0	208.22134494781494	2.5082437992095947
41	112.43745994567871	fix_post	2		12.0	39.0	2.5	/experiments/knapen_aot/videos/R_S_DL_B002_C011_SDR_20191122_SDR_2K_AVC.mp4	0.0	210.72958874702454	0.10015106201171875
42	112.53761100769043	fix_pre	0		1.0	40.0	2.5	blank	1.0	210.82973980903625	0.009649991989135742
42	112.53958201408386	response	0	2		40.0	2.5	blank	1.0	210.8317108154297	
42	112.54726099967957	movie	1		301.0	40.0	2.5	blank	1.0	210.8393898010254	2.506955146789551
42	115.05421614646912	fix_post	2		12.0	40.0	2.5	blank	1.0	213.34634494781494	0.10001587867736816
43	115.15423202514648	fix_pre	0		25.0	41.0	2.5	/experiments/knapen_aot/videos/S_ILnEDG_aP1A_35.mp4	0.0	213.4463608264923	0.20829296112060547
43	115.35434913635254	response	0	2		41.0	2.5	/experiments/knapen_aot/videos/S_ILnEDG_aP1A_35.mp4	0.0	213.64647793769836	
43	115.36252498626709	movie	1		300.0	41.0	2.5	/experiments/knapen_aot/videos/S_ILnEDG_aP1A_35.mp4	0.0	213.65465378761292	2.5083401203155518
43	117.87086510658264	fix_post	2		12.0	41.0	2.5	/experiments/knapen_aot/videos/S_ILnEDG_aP1A_35.mp4	0.0	216.16299390792847	0.09995698928833008
44	117.97082209587097	fix_pre	0		13.0	42.0	2.5	/experiments/knapen_aot/videos/S_yt-0Zze3Ff12Ys_58.mp4	0.0	216.2629508972168	0.10836601257324219
44	118.06343293190002	response	0	2		42.0	2.5	/experiments/knapen_aot/videos/S_yt-0Zze3Ff12Ys_58.mp4	0.0	216.35556173324585	
44	118.07918810844421	movie	1		301.0	42.0	2.5	/experiments/knapen_aot/videos/S_yt-0Zze3Ff12Ys_58.mp4	0.0	216.37131690979004	2.5082929134368896
44	120.5874810218811	fix_post	2		12.0	42.0	2.5	/experiments/knapen_aot/videos/S_yt-0Zze3Ff12Ys_58.mp4	0.0	218.87960982322693	0.0999760627746582
45	120.68745708465576	fix_pre	0		11.0	43.0	2.5	/experiments/knapen_aot/videos/R_S_nTA7B2uHaCQ_1.mp4	0.0	218.9795858860016	0.09163188934326172
45	120.77099204063416	response	0	2		43.0	2.5	/experiments/knapen_aot/videos/R_S_nTA7B2uHaCQ_1.mp4	0.0	219.06312084197998	
45	120.77908897399902	movie	1		300.0	43.0	2.5	/experiments/knapen_aot/videos/R_S_nTA7B2uHaCQ_1.mp4	0.0	219.07121777534485	2.5085301399230957
45	123.28761911392212	fix_post	2		12.0	43.0	2.5	/experiments/knapen_aot/videos/R_S_nTA7B2uHaCQ_1.mp4	0.0	221.57974791526794	0.09990596771240234
45	123.37940812110901	response	2	2		43.0	2.5	/experiments/knapen_aot/videos/R_S_nTA7B2uHaCQ_1.mp4	0.0	221.67153692245483	
46	123.38752508163452	fix_pre	0		38.0	44.0	2.5	/experiments/knapen_aot/videos/S_yt-1RVw8p6Dw2Q_20.mp4	0.0	221.67965388298035	0.3166220188140869
46	123.69592905044556	response	0	2		44.0	2.5	/experiments/knapen_aot/videos/S_yt-1RVw8p6Dw2Q_20.mp4	0.0	221.98805785179138	
46	123.70414710044861	movie	1		301.0	44.0	2.5	/experiments/knapen_aot/videos/S_yt-1RVw8p6Dw2Q_20.mp4	0.0	221.99627590179443	2.508373975753784
46	126.21252107620239	fix_post	2		12.0	44.0	2.5	/experiments/knapen_aot/videos/S_yt-1RVw8p6Dw2Q_20.mp4	0.0	224.50464987754822	0.09997105598449707
47	126.31249213218689	fix_pre	0		1.0	45.0	2.5	/experiments/knapen_aot/videos/S_yt-4NjyKFnwHBo_13.mp4	0.0	224.60462093353271	0.008356809616088867
47	126.3055169582367	response	0	2		45.0	2.5	/experiments/knapen_aot/videos/S_yt-4NjyKFnwHBo_13.mp4	0.0	224.59764575958252	
47	126.32084894180298	movie	1		300.0	45.0	2.5	/experiments/knapen_aot/videos/S_yt-4NjyKFnwHBo_13.mp4	0.0	224.6129777431488	2.508319139480591
47	128.82916808128357	fix_post	2		12.0	45.0	2.5	/experiments/knapen_aot/videos/S_yt-4NjyKFnwHBo_13.mp4	0.0	227.1212968826294	0.0999910831451416
48	128.9291591644287	fix_pre	0		5.0	46.0	2.5	/experiments/knapen_aot/videos/S_yt-zydTlQGCUjQ_277.mp4	0.0	227.22128796577454	0.0416109561920166
48	128.9628551006317	response	0	2		46.0	2.5	/experiments/knapen_aot/videos/S_yt-zydTlQGCUjQ_277.mp4	0.0	227.25498390197754	
48	128.97077012062073	movie	1		301.0	46.0	2.5	/experiments/knapen_aot/videos/S_yt-zydTlQGCUjQ_277.mp4	0.0	227.26289892196655	2.508368968963623
48	131.47913908958435	fix_post	2		12.0	46.0	2.5	/experiments/knapen_aot/videos/S_yt-zydTlQGCUjQ_277.mp4	0.0	229.77126789093018	0.10000300407409668
49	131.57914209365845	fix_pre	0		2.0	47.0	2.5	/experiments/knapen_aot/videos/S_ILSVRC2015_train_00303008.mp4	0.0	229.87127089500427	0.016669034957885742
49	131.58890295028687	response	0	2		47.0	2.5	/experiments/knapen_aot/videos/S_ILSVRC2015_train_00303008.mp4	0.0	229.8810317516327	
49	131.59581112861633	movie	1		301.0	47.0	2.5	/experiments/knapen_aot/videos/S_ILSVRC2015_train_00303008.mp4	0.0	229.88793992996216	2.5082898139953613
49	134.1041009426117	fix_post	2		12.0	47.0	2.5	/experiments/knapen_aot/videos/S_ILSVRC2015_train_00303008.mp4	0.0	232.39622974395752	0.10003018379211426
50	134.2041311264038	fix_pre	0		11.0	48.0	2.5	blank	1.0	232.49625992774963	0.09167098999023438
50	134.2875199317932	response	0	2		48.0	2.5	blank	1.0	232.57964873313904	
50	134.29580211639404	movie	1		301.0	48.0	2.5	blank	1.0	232.58793091773987	2.5083060264587402
50	136.80410814285278	fix_post	2		12.0	48.0	2.5	blank	1.0	235.0962369441986	0.09997200965881348
51	136.9040801525116	fix_pre	0		20.0	49.0	2.5	/experiments/knapen_aot/videos/R_S_yt-l6WPyKg_3is_154.mp4	0.0	235.19620895385742	0.16674494743347168
51	137.06257700920105	response	0	2		49.0	2.5	/experiments/knapen_aot/videos/R_S_yt-l6WPyKg_3is_154.mp4	0.0	235.35470581054688	
51	137.07082509994507	movie	1		301.0	49.0	2.5	/experiments/knapen_aot/videos/R_S_yt-l6WPyKg_3is_154.mp4	0.0	235.3629539012909	2.508270025253296
51	139.57909512519836	fix_post	2		12.0	49.0	2.5	/experiments/knapen_aot/videos/R_S_yt-l6WPyKg_3is_154.mp4	0.0	237.8712239265442	0.09998893737792969
51	139.67087411880493	response	2	2		49.0	2.5	/experiments/knapen_aot/videos/R_S_yt-l6WPyKg_3is_154.mp4	0.0	237.96300292015076	
52	139.6790840625763	fix_pre	0		41.0	50.0	2.5	/experiments/knapen_aot/videos/S_yt-lkpfs_4qAGE_50.mp4	0.0	237.97121286392212	0.3416628837585449
52	140.01253199577332	response	0	2		50.0	2.5	/experiments/knapen_aot/videos/S_yt-lkpfs_4qAGE_50.mp4	0.0	238.30466079711914	
52	140.02074694633484	movie	1		301.0	50.0	2.5	/experiments/knapen_aot/videos/S_yt-lkpfs_4qAGE_50.mp4	0.0	238.31287574768066	2.5083630084991455
52	142.52910995483398	fix_post	2		12.0	50.0	2.5	/experiments/knapen_aot/videos/S_yt-lkpfs_4qAGE_50.mp4	0.0	240.8212387561798	0.09995317459106445
53	142.62906312942505	fix_pre	0		13.0	51.0	2.5	/experiments/knapen_aot/videos/R_S_ILSVRC2015_train_00574000.mp4	0.0	240.92119193077087	0.10827493667602539
53	142.72919297218323	response	0	2		51.0	2.5	/experiments/knapen_aot/videos/R_S_ILSVRC2015_train_00574000.mp4	0.0	241.02132177352905	
53	142.73733806610107	movie	1		300.0	51.0	2.5	/experiments/knapen_aot/videos/R_S_ILSVRC2015_train_00574000.mp4	0.0	241.0294668674469	2.50848388671875
53	145.24582195281982	fix_post	2		12.0	51.0	2.5	/experiments/knapen_aot/videos/R_S_ILSVRC2015_train_00574000.mp4	0.0	243.53795075416565	0.09996700286865234
54	145.34578895568848	fix_pre	0		24.0	52.0	2.5	/experiments/knapen_aot/videos/R_S_yt-0Zze3Ff12Ys_58.mp4	0.0	243.6379177570343	0.20111298561096191
54	145.53754115104675	response	0	2		52.0	2.5	/experiments/knapen_aot/videos/R_S_yt-0Zze3Ff12Ys_58.mp4	0.0	243.82966995239258	
54	145.54690194129944	movie	1		301.0	52.0	2.5	/experiments/knapen_aot/videos/R_S_yt-0Zze3Ff12Ys_58.mp4	0.0	243.83903074264526	2.5071442127227783
54	148.05404615402222	fix_post	2		12.0	52.0	2.5	/experiments/knapen_aot/videos/R_S_yt-0Zze3Ff12Ys_58.mp4	0.0	246.34617495536804	0.1000068187713623
55	148.15405297279358	fix_pre	0		9.0	53.0	2.5	/experiments/knapen_aot/videos/R_S_yt-yQrDeFlFmfM_138.mp4	0.0	246.4461817741394	0.07507801055908203
55	148.22103595733643	response	0	2		53.0	2.5	/experiments/knapen_aot/videos/R_S_yt-yQrDeFlFmfM_138.mp4	0.0	246.51316475868225	
55	148.22913098335266	movie	1		301.0	53.0	2.5	/experiments/knapen_aot/videos/R_S_yt-yQrDeFlFmfM_138.mp4	0.0	246.5212597846985	2.508275032043457
55	150.73740601539612	fix_post	2		12.0	53.0	2.5	/experiments/knapen_aot/videos/R_S_yt-yQrDeFlFmfM_138.mp4	0.0	249.02953481674194	0.09989094734191895
56	150.83729696273804	fix_pre	0		6.0	54.0	2.5	/experiments/knapen_aot/videos/S_pexels-roman-odintsov-8231493.mp4	0.0	249.12942576408386	0.05007219314575195
56	150.8791799545288	response	0	2		54.0	2.5	/experiments/knapen_aot/videos/S_pexels-roman-odintsov-8231493.mp4	0.0	249.17130875587463	
56	150.8873691558838	movie	1		192.0	54.0	2.5	/experiments/knapen_aot/videos/S_pexels-roman-odintsov-8231493.mp4	0.0	249.17949795722961	2.5083208084106445
56	153.39568996429443	fix_post	2		12.0	54.0	2.5	/experiments/knapen_aot/videos/S_pexels-roman-odintsov-8231493.mp4	0.0	251.68781876564026	0.09999418258666992
57	153.4956841468811	fix_pre	0		20.0	55.0	2.5	blank	1.0	251.78781294822693	0.16659998893737793
57	153.6543869972229	response	0	2		55.0	2.5	blank	1.0	251.94651579856873	
57	153.66228413581848	movie	1		301.0	55.0	2.5	blank	1.0	251.9544129371643	2.508558988571167
57	156.17084312438965	fix_post	2		12.0	55.0	2.5	blank	1.0	254.46297192573547	0.09990692138671875
58	156.27075004577637	fix_pre	0		25.0	56.0	2.5	/experiments/knapen_aot/videos/S_8lrGQK4UBj8_38.mp4	0.0	254.5628788471222	0.20826101303100586
58	156.4708070755005	response	0	2		56.0	2.5	/experiments/knapen_aot/videos/S_8lrGQK4UBj8_38.mp4	0.0	254.7629358768463	
58	156.47901105880737	movie	1		301.0	56.0	2.5	/experiments/knapen_aot/videos/S_8lrGQK4UBj8_38.mp4	0.0	254.7711398601532	2.508359909057617
58	158.987370967865	fix_post	2		12.0	56.0	2.5	/experiments/knapen_aot/videos/S_8lrGQK4UBj8_38.mp4	0.0	257.2794997692108	0.09995603561401367
59	159.087327003479	fix_pre	0		13.0	57.0	2.5	/experiments/knapen_aot/videos/S_yt-2pRKCSgdXXU_30.mp4	0.0	257.37945580482483	0.10828495025634766
59	159.1874761581421	response	0	2		57.0	2.5	/experiments/knapen_aot/videos/S_yt-2pRKCSgdXXU_30.mp4	0.0	257.4796049594879	
59	159.19561195373535	movie	1		301.0	57.0	2.5	/experiments/knapen_aot/videos/S_yt-2pRKCSgdXXU_30.mp4	0.0	257.4877407550812	2.508424997329712
59	161.70403695106506	fix_post	2		12.0	57.0	2.5	/experiments/knapen_aot/videos/S_yt-2pRKCSgdXXU_30.mp4	0.0	259.9961657524109	0.09998798370361328
60	161.80402493476868	fix_pre	0		24.0	58.0	2.5	/experiments/knapen_aot/videos/R_S_pexels-kindel-media-8164443.mp4	0.0	260.0961537361145	0.20104002952575684
60	161.98843908309937	response	0	2		58.0	2.5	/experiments/knapen_aot/videos/R_S_pexels-kindel-media-8164443.mp4	0.0	260.2805678844452	
60	162.00506496429443	movie	1		165.0	58.0	2.5	/experiments/knapen_aot/videos/R_S_pexels-kindel-media-8164443.mp4	0.0	260.29719376564026	2.5072591304779053
60	164.51232409477234	fix_post	2		12.0	58.0	2.5	/experiments/knapen_aot/videos/R_S_pexels-kindel-media-8164443.mp4	0.0	262.80445289611816	0.10005593299865723
60	164.51418805122375	response	2	2		58.0	2.5	/experiments/knapen_aot/videos/R_S_pexels-kindel-media-8164443.mp4	0.0	262.8063168525696	
61	164.612380027771	fix_pre	0		30.0	59.0	2.5	/experiments/knapen_aot/videos/R_S_yt-OrTpetjDNKs_31.mp4	0.0	262.9045088291168	0.24996590614318848
61	164.85415506362915	response	0	2		59.0	2.5	/experiments/knapen_aot/videos/R_S_yt-OrTpetjDNKs_31.mp4	0.0	263.146283864975	
61	164.86234593391418	movie	1		301.0	59.0	2.5	/experiments/knapen_aot/videos/R_S_yt-OrTpetjDNKs_31.mp4	0.0	263.15447473526	2.508333206176758
61	167.37067914009094	fix_post	2		12.0	59.0	2.5	/experiments/knapen_aot/videos/R_S_yt-OrTpetjDNKs_31.mp4	0.0	265.66280794143677	0.10009098052978516
62	167.47077012062073	fix_pre	0		23.0	60.0	2.5	/experiments/knapen_aot/videos/R_S_ILSVRC2015_train_00574004.mp4	0.0	265.76289892196655	0.19153404235839844
62	167.65427207946777	response	0	2		60.0	2.5	/experiments/knapen_aot/videos/R_S_ILSVRC2015_train_00574004.mp4	0.0	265.9464008808136	
62	167.66230416297913	movie	1		301.0	60.0	2.5	/experiments/knapen_aot/videos/R_S_ILSVRC2015_train_00574004.mp4	0.0	265.95443296432495	2.508344888687134
62	170.17064905166626	fix_post	2		12.0	60.0	2.5	/experiments/knapen_aot/videos/R_S_ILSVRC2015_train_00574004.mp4	0.0	268.4627778530121	0.10002803802490234
63	170.27067708969116	fix_pre	0		13.0	61.0	2.5	blank	1.0	268.562805891037	0.10835385322570801
63	170.37074613571167	response	0	2		61.0	2.5	blank	1.0	268.6628749370575	
63	170.37903094291687	movie	1		301.0	61.0	2.5	blank	1.0	268.6711597442627	2.5082881450653076
63	172.88731908798218	fix_post	2		12.0	61.0	2.5	blank	1.0	271.179447889328	0.10000395774841309
64	172.9873230457306	fix_pre	0		45.0	62.0	2.5	/experiments/knapen_aot/videos/S_ILSVRC2015_train_00001009.mp4	0.0	271.2794518470764	0.37493300437927246
64	173.3541281223297	response	0	2		62.0	2.5	/experiments/knapen_aot/videos/S_ILSVRC2015_train_00001009.mp4	0.0	271.64625692367554	
64	173.36225605010986	movie	1		301.0	62.0	2.5	/experiments/knapen_aot/videos/S_ILSVRC2015_train_00001009.mp4	0.0	271.6543848514557	2.5083858966827393
64	175.8706419467926	fix_post	2		12.0	62.0	2.5	/experiments/knapen_aot/videos/S_ILSVRC2015_train_00001009.mp4	0.0	274.1627707481384	0.10001111030578613
65	175.9706530570984	fix_pre	0		29.0	63.0	2.5	/experiments/knapen_aot/videos/R_S_b2-4.mp4	0.0	274.2627818584442	0.24262094497680664
65	176.20410704612732	response	0	2		63.0	2.5	/experiments/knapen_aot/videos/R_S_b2-4.mp4	0.0	274.49623584747314	
65	176.2132740020752	movie	1		167.0	63.0	2.5	/experiments/knapen_aot/videos/R_S_b2-4.mp4	0.0	274.505402803421	2.5073821544647217
65	178.72065615653992	fix_post	2		12.0	63.0	2.5	/experiments/knapen_aot/videos/R_S_b2-4.mp4	0.0	277.01278495788574	0.09999799728393555
66	178.82065415382385	fix_pre	0		9.0	64.0	2.5	/experiments/knapen_aot/videos/S_ILSVRC2015_train_00165013.mp4	0.0	277.1127829551697	0.07496786117553711
66	178.8874580860138	response	0	2		64.0	2.5	/experiments/knapen_aot/videos/S_ILSVRC2015_train_00165013.mp4	0.0	277.1795868873596	
66	178.8956220149994	movie	1		301.0	64.0	2.5	/experiments/knapen_aot/videos/S_ILSVRC2015_train_00165013.mp4	0.0	277.1877508163452	2.5083301067352295
66	181.40395212173462	fix_post	2		12.0	64.0	2.5	/experiments/knapen_aot/videos/S_ILSVRC2015_train_00165013.mp4	0.0	279.69608092308044	0.09996891021728516
67	181.5039210319519	fix_pre	0		27.0	65.0	2.5	/experiments/knapen_aot/videos/R_S_yt-kQpE9L-fsNE_55.mp4	0.0	279.79604983329773	0.22502708435058594
67	181.72073006629944	response	0	2		65.0	2.5	/experiments/knapen_aot/videos/R_S_yt-kQpE9L-fsNE_55.mp4	0.0	280.01285886764526	
67	181.7289481163025	movie	1		301.0	65.0	2.5	/experiments/knapen_aot/videos/R_S_yt-kQpE9L-fsNE_55.mp4	0.0	280.0210769176483	2.5083789825439453
67	184.23732709884644	fix_post	2		12.0	65.0	2.5	/experiments/knapen_aot/videos/R_S_yt-kQpE9L-fsNE_55.mp4	0.0	282.52945590019226	0.09996891021728516
68	184.33729600906372	fix_pre	0		21.0	66.0	2.5	/experiments/knapen_aot/videos/R_S_yt-4NjyKFnwHBo_13.mp4	0.0	282.62942481040955	0.17501306533813477
68	184.49655294418335	response	0	2		66.0	2.5	/experiments/knapen_aot/videos/R_S_yt-4NjyKFnwHBo_13.mp4	0.0	282.7886817455292	
68	184.51230907440186	movie	1		301.0	66.0	2.5	/experiments/knapen_aot/videos/R_S_yt-4NjyKFnwHBo_13.mp4	0.0	282.8044378757477	2.508323907852173
68	187.02063298225403	fix_post	2		12.0	66.0	2.5	/experiments/knapen_aot/videos/R_S_yt-4NjyKFnwHBo_13.mp4	0.0	285.31276178359985	0.10001611709594727
69	187.12064909934998	fix_pre	0		44.0	67.0	2.5	/experiments/knapen_aot/videos/R_S_ILSVRC2015_train_00682009.mp4	0.0	285.4127779006958	0.36655402183532715
69	187.47906708717346	response	0	2		67.0	2.5	/experiments/knapen_aot/videos/R_S_ILSVRC2015_train_00682009.mp4	0.0	285.7711958885193	
69	187.4872031211853	movie	1		301.0	67.0	2.5	/experiments/knapen_aot/videos/R_S_ILSVRC2015_train_00682009.mp4	0.0	285.7793319225311	2.508391857147217
69	189.99559497833252	fix_post	2		12.0	67.0	2.5	/experiments/knapen_aot/videos/R_S_ILSVRC2015_train_00682009.mp4	0.0	288.28772377967834	0.10001206398010254
70	190.09560704231262	fix_pre	0		42.0	68.0	2.5	blank	1.0	288.38773584365845	0.3499131202697754
70	190.43733716011047	response	0	2		68.0	2.5	blank	1.0	288.7294659614563	
70	190.4455201625824	movie	1		301.0	68.0	2.5	blank	1.0	288.7376489639282	2.5083718299865723
70	192.95389199256897	fix_post	2		12.0	68.0	2.5	blank	1.0	291.2460207939148	0.1000361442565918
71	193.05392813682556	fix_pre	0		19.0	69.0	2.5	/experiments/knapen_aot/videos/S_ILSVRC2015_train_00632002.mp4	0.0	291.3460569381714	0.15923190116882324
71	193.2040331363678	response	0	2		69.0	2.5	/experiments/knapen_aot/videos/S_ILSVRC2015_train_00632002.mp4	0.0	291.4961619377136	
71	193.21316003799438	movie	1		299.0	69.0	2.5	/experiments/knapen_aot/videos/S_ILSVRC2015_train_00632002.mp4	0.0	291.5052888393402	2.507390022277832
71	195.72055006027222	fix_post	2		12.0	69.0	2.5	/experiments/knapen_aot/videos/S_ILSVRC2015_train_00632002.mp4	0.0	294.01267886161804	0.09998393058776855
72	195.82053399085999	fix_pre	0		12.0	70.0	2.5	/experiments/knapen_aot/videos/S_yt-pOCEuqVE7ro_61.mp4	0.0	294.1126627922058	0.1008751392364502
72	195.90483403205872	response	0	2		70.0	2.5	/experiments/knapen_aot/videos/S_yt-pOCEuqVE7ro_61.mp4	0.0	294.19696283340454	
72	195.92140913009644	movie	1		301.0	70.0	2.5	/experiments/knapen_aot/videos/S_yt-pOCEuqVE7ro_61.mp4	0.0	294.21353793144226	2.507436990737915
72	198.42884612083435	fix_post	2		12.0	70.0	2.5	/experiments/knapen_aot/videos/S_yt-pOCEuqVE7ro_61.mp4	0.0	296.7209749221802	0.10001492500305176
73	198.5288610458374	fix_pre	0		23.0	71.0	2.5	/experiments/knapen_aot/videos/R_S_S003_C020_SDR_2K_AVC.mp4	0.0	296.8209898471832	0.19167399406433105
73	198.71222710609436	response	0	2		71.0	2.5	/experiments/knapen_aot/videos/R_S_S003_C020_SDR_2K_AVC.mp4	0.0	297.0043559074402	
73	198.72053503990173	movie	1		181.0	71.0	2.5	/experiments/knapen_aot/videos/R_S_S003_C020_SDR_2K_AVC.mp4	0.0	297.01266384124756	2.508296012878418
73	201.22883105278015	fix_post	2		12.0	71.0	2.5	/experiments/knapen_aot/videos/R_S_S003_C020_SDR_2K_AVC.mp4	0.0	299.520959854126	0.09996509552001953
73	201.32066702842712	response	2	2		71.0	2.5	/experiments/knapen_aot/videos/R_S_S003_C020_SDR_2K_AVC.mp4	0.0	299.61279582977295	
74	201.32879614830017	fix_pre	0		41.0	72.0	2.5	/experiments/knapen_aot/videos/R_S_nTA7B2uHaCQ_1.mp4	0.0	299.620924949646	0.34998583793640137
74	201.67061114311218	response	0	2		72.0	2.5	/experiments/knapen_aot/videos/R_S_nTA7B2uHaCQ_1.mp4	0.0	299.962739944458	
74	201.67878198623657	movie	1		301.0	72.0	2.5	/experiments/knapen_aot/videos/R_S_nTA7B2uHaCQ_1.mp4	0.0	299.9709107875824	2.5084640979766846
74	204.18724608421326	fix_post	2		12.0	72.0	2.5	/experiments/knapen_aot/videos/R_S_nTA7B2uHaCQ_1.mp4	0.0	302.4793748855591	0.09990286827087402
75	204.28714895248413	fix_pre	0		9.0	73.0	2.5	/experiments/knapen_aot/videos/R_S_yt-4GDusA21cEA_170.mp4	0.0	302.57927775382996	0.07504010200500488
75	204.35413193702698	response	0	2		73.0	2.5	/experiments/knapen_aot/videos/R_S_yt-4GDusA21cEA_170.mp4	0.0	302.6462607383728	
75	204.36218905448914	movie	1		301.0	73.0	2.5	/experiments/knapen_aot/videos/R_S_yt-4GDusA21cEA_170.mp4	0.0	302.65431785583496	2.508362054824829
75	206.87055110931396	fix_post	2		12.0	73.0	2.5	/experiments/knapen_aot/videos/R_S_yt-4GDusA21cEA_170.mp4	0.0	305.1626799106598	0.09997797012329102
76	206.97052907943726	fix_pre	0		13.0	74.0	2.5	/experiments/knapen_aot/videos/S_ILSVRC2015_train_00165013.mp4	0.0	305.2626578807831	0.10833191871643066
76	207.0705590248108	response	0	2		74.0	2.5	/experiments/knapen_aot/videos/S_ILSVRC2015_train_00165013.mp4	0.0	305.3626878261566	
76	207.0788609981537	movie	1		301.0	74.0	2.5	/experiments/knapen_aot/videos/S_ILSVRC2015_train_00165013.mp4	0.0	305.3709897994995	2.50833797454834
76	209.58719897270203	fix_post	2		12.0	74.0	2.5	/experiments/knapen_aot/videos/S_ILSVRC2015_train_00165013.mp4	0.0	307.87932777404785	0.09997200965881348
77	209.68717098236084	fix_pre	0		17.0	75.0	2.5	blank	1.0	307.97929978370667	0.14170002937316895
77	209.82058310508728	response	0	2		75.0	2.5	blank	1.0	308.1127119064331	
77	209.828871011734	movie	1		301.0	75.0	2.5	blank	1.0	308.12099981307983	2.508302927017212
77	212.33717393875122	fix_post	2		12.0	75.0	2.5	blank	1.0	310.62930274009705	0.09994101524353027
78	212.43711495399475	fix_pre	0		14.0	76.0	2.5	/experiments/knapen_aot/videos/R_S_yt-HFiRYTnMZxE_338.mp4	0.0	310.7292437553406	0.11673998832702637
78	212.54561805725098	response	0	2		76.0	2.5	/experiments/knapen_aot/videos/R_S_yt-HFiRYTnMZxE_338.mp4	0.0	310.8377468585968	
78	212.55385494232178	movie	1		300.0	76.0	2.5	/experiments/knapen_aot/videos/R_S_yt-HFiRYTnMZxE_338.mp4	0.0	310.8459837436676	2.508315086364746
78	215.06217002868652	fix_post	2		12.0	76.0	2.5	/experiments/knapen_aot/videos/R_S_yt-HFiRYTnMZxE_338.mp4	0.0	313.35429883003235	0.09998011589050293
79	215.16215014457703	fix_pre	0		11.0	77.0	2.5	/experiments/knapen_aot/videos/S_bing-www_break_com_video_like-a-cat-catching-a-fly-3131008_12.mp4	0.0	313.45427894592285	0.0924689769744873
79	215.2456350326538	response	0	2		77.0	2.5	/experiments/knapen_aot/videos/S_bing-www_break_com_video_like-a-cat-catching-a-fly-3131008_12.mp4	0.0	313.53776383399963	
79	215.2546191215515	movie	1		299.0	77.0	2.5	/experiments/knapen_aot/videos/S_bing-www_break_com_video_like-a-cat-catching-a-fly-3131008_12.mp4	0.0	313.54674792289734	2.507481813430786
79	217.7621009349823	fix_post	2		12.0	77.0	2.5	/experiments/knapen_aot/videos/S_bing-www_break_com_video_like-a-cat-catching-a-fly-3131008_12.mp4	0.0	316.0542297363281	0.1000051498413086
80	217.8621060848236	fix_pre	0		5.0	78.0	2.5	/experiments/knapen_aot/videos/R_S_Ds4EKTLx_RI_51.mp4	0.0	316.15423488616943	0.041686058044433594
80	217.89554405212402	response	0	2		78.0	2.5	/experiments/knapen_aot/videos/R_S_Ds4EKTLx_RI_51.mp4	0.0	316.18767285346985	
80	217.90379214286804	movie	1		301.0	78.0	2.5	/experiments/knapen_aot/videos/R_S_Ds4EKTLx_RI_51.mp4	0.0	316.19592094421387	2.5082569122314453
80	220.4120490550995	fix_post	2		12.0	78.0	2.5	/experiments/knapen_aot/videos/R_S_Ds4EKTLx_RI_51.mp4	0.0	318.7041778564453	0.10011410713195801
81	220.51216316223145	fix_pre	0		3.0	79.0	2.5	/experiments/knapen_aot/videos/S_yt-N7ztk2fa3Ls_137.mp4	0.0	318.80429196357727	0.02731490135192871
81	220.52140402793884	response	0	2		79.0	2.5	/experiments/knapen_aot/videos/S_yt-N7ztk2fa3Ls_137.mp4	0.0	318.81353282928467	
81	220.53947806358337	movie	1		301.0	79.0	2.5	/experiments/knapen_aot/videos/S_yt-N7ztk2fa3Ls_137.mp4	0.0	318.8316068649292	2.505944013595581
81	222.67450213432312	response	1	2		79.0	2.5	/experiments/knapen_aot/videos/S_yt-N7ztk2fa3Ls_137.mp4	0.0	320.96663093566895	
81	223.04542207717896	fix_post	2		12.0	79.0	2.5	/experiments/knapen_aot/videos/S_yt-N7ztk2fa3Ls_137.mp4	0.0	321.3375508785248	0.10002303123474121
82	223.1454451084137	fix_pre	0		15.0	80.0	2.5	/experiments/knapen_aot/videos/R_S_ILSVRC2015_train_00303008.mp4	0.0	321.4375739097595	0.12501287460327148
82	223.2622730731964	response	0	2		80.0	2.5	/experiments/knapen_aot/videos/R_S_ILSVRC2015_train_00303008.mp4	0.0	321.55440187454224	
82	223.27045798301697	movie	1		301.0	80.0	2.5	/experiments/knapen_aot/videos/R_S_ILSVRC2015_train_00303008.mp4	0.0	321.5625867843628	2.508296012878418
82	225.77875399589539	fix_post	2		12.0	80.0	2.5	/experiments/knapen_aot/videos/R_S_ILSVRC2015_train_00303008.mp4	0.0	324.0708827972412	0.10076904296875
83	225.87952303886414	fix_pre	0		8.0	81.0	2.5	/experiments/knapen_aot/videos/S_pexels-mart-production-7698911.mp4	0.0	324.17165184020996	0.06589889526367188
83	225.93725395202637	response	0	2		81.0	2.5	/experiments/knapen_aot/videos/S_pexels-mart-production-7698911.mp4	0.0	324.2293827533722	
83	225.9454219341278	movie	1		197.0	81.0	2.5	/experiments/knapen_aot/videos/S_pexels-mart-production-7698911.mp4	0.0	324.23755073547363	2.5083260536193848
83	228.4537479877472	fix_post	2		12.0	81.0	2.5	/experiments/knapen_aot/videos/S_pexels-mart-production-7698911.mp4	0.0	326.745876789093	0.09995317459106445
84	228.55370116233826	fix_pre	0		8.0	82.0	2.5	/experiments/knapen_aot/videos/R_S_yt-aqrdb6BiFx4_12.mp4	0.0	326.8458299636841	0.06664180755615234
84	228.61212611198425	response	0	2		82.0	2.5	/experiments/knapen_aot/videos/R_S_yt-aqrdb6BiFx4_12.mp4	0.0	326.9042549133301	
84	228.6203429698944	movie	1		301.0	82.0	2.5	/experiments/knapen_aot/videos/R_S_yt-aqrdb6BiFx4_12.mp4	0.0	326.91247177124023	2.5083231925964355
84	231.12866616249084	fix_post	2		12.0	82.0	2.5	/experiments/knapen_aot/videos/R_S_yt-aqrdb6BiFx4_12.mp4	0.0	329.42079496383667	0.1001119613647461
85	231.2287781238556	fix_pre	0		18.0	83.0	2.5	blank	1.0	329.5209069252014	0.15069198608398438
85	231.37053394317627	response	0	2		83.0	2.5	blank	1.0	329.6626627445221	
85	231.37947010993958	movie	1		301.0	83.0	2.5	blank	1.0	329.6715989112854	2.5075860023498535
85	233.88705611228943	fix_post	2		12.0	83.0	2.5	blank	1.0	332.17918491363525	0.09994101524353027
87	233.98699712753296	stim	0		213.0					332.2791259288788	1.7750329971313477
87	234.11217308044434	response	0	2						332.40430188179016	
87	235.75106406211853	response	0	space						334.04319286346436	
