trial_nr	onset	event_type	phase	response	nr_frames	movie_index	movie_duration	movie_file	blank	onset_abs	duration
0	0.1528019905090332	stim	0		56.0					63.37188005447388	0.4722299575805664
0	0.6074910163879395	response	0	space						63.82656908035278	
1	0.6250319480895996	stim	0		121.0					63.84411001205444	1.0060319900512695
1	1.5232059955596924	response	0	space						64.74228405952454	
1	1.6310639381408691	stim	1		120.0					64.85014200210571	1.000504970550537
1	1.8728358745574951	response	1	space						65.09191393852234	
1	2.2227959632873535	response	1	space						65.4418740272522	
1	2.60617995262146	response	1	space						65.8252580165863	
2	2.6315689086914062	fix_pre	0		68.0	0.0	2.5	/experiments/knapen_aot/videos/R_S_yt-jy96-k8drRE_1.mp4	0.0	65.85064697265625	0.5661201477050781
2	3.189478874206543	response	0	space		0.0	2.5	/experiments/knapen_aot/videos/R_S_yt-jy96-k8drRE_1.mp4	0.0	66.40855693817139	
2	3.1976890563964844	movie	1		299.0	0.0	2.5	/experiments/knapen_aot/videos/R_S_yt-jy96-k8drRE_1.mp4	0.0	66.41676712036133	2.50827693939209
2	5.705965995788574	fix_post	2		12.0	0.0	2.5	/experiments/knapen_aot/videos/R_S_yt-jy96-k8drRE_1.mp4	0.0	68.92504405975342	0.10004401206970215
3	5.806010007858276	fix_pre	0		94.0	1.0	2.5	/experiments/knapen_aot/videos/S_wc-__wCAtivIDG3_93.mp4	0.0	69.02508807182312	0.7838249206542969
3	6.581830978393555	response	0	2		1.0	2.5	/experiments/knapen_aot/videos/S_wc-__wCAtivIDG3_93.mp4	0.0	69.8009090423584	
3	6.589834928512573	movie	1		168.0	1.0	2.5	/experiments/knapen_aot/videos/S_wc-__wCAtivIDG3_93.mp4	0.0	69.80891299247742	2.5079801082611084
3	9.097815036773682	fix_post	2		12.0	1.0	2.5	/experiments/knapen_aot/videos/S_wc-__wCAtivIDG3_93.mp4	0.0	72.31689310073853	0.09984993934631348
4	9.197664976119995	fix_pre	0		64.0	2.0	2.5	/experiments/knapen_aot/videos/R_S_yt-SGTgMItFkxY_172.mp4	0.0	72.41674304008484	0.5333859920501709
4	9.722830057144165	response	0	2		2.0	2.5	/experiments/knapen_aot/videos/R_S_yt-SGTgMItFkxY_172.mp4	0.0	72.94190812110901	
4	9.731050968170166	movie	1		301.0	2.0	2.5	/experiments/knapen_aot/videos/R_S_yt-SGTgMItFkxY_172.mp4	0.0	72.95012903213501	2.50839900970459
4	12.239449977874756	fix_post	2		12.0	2.0	2.5	/experiments/knapen_aot/videos/R_S_yt-SGTgMItFkxY_172.mp4	0.0	75.4585280418396	0.10049104690551758
5	12.339941024780273	fix_pre	0		28.0	3.0	2.5	/experiments/knapen_aot/videos/S_yt-4ouMuGUuPHI_193.mp4	0.0	75.55901908874512	0.23280000686645508
5	12.56438398361206	response	0	2		3.0	2.5	/experiments/knapen_aot/videos/S_yt-4ouMuGUuPHI_193.mp4	0.0	75.7834620475769	
5	12.572741031646729	movie	1		301.0	3.0	2.5	/experiments/knapen_aot/videos/S_yt-4ouMuGUuPHI_193.mp4	0.0	75.79181909561157	2.508270025253296
5	15.081011056900024	fix_post	2		12.0	3.0	2.5	/experiments/knapen_aot/videos/S_yt-4ouMuGUuPHI_193.mp4	0.0	78.30008912086487	0.09995484352111816
6	15.180965900421143	fix_pre	0		41.0	4.0	2.5	/experiments/knapen_aot/videos/S_yt-E8EDQCPbBeI_196.mp4	0.0	78.40004396438599	0.34157514572143555
6	15.514461994171143	response	0	2		4.0	2.5	/experiments/knapen_aot/videos/S_yt-E8EDQCPbBeI_196.mp4	0.0	78.73354005813599	
6	15.522541046142578	movie	1		301.0	4.0	2.5	/experiments/knapen_aot/videos/S_yt-E8EDQCPbBeI_196.mp4	0.0	78.74161911010742	2.508405923843384
6	18.030946969985962	fix_post	2		12.0	4.0	2.5	/experiments/knapen_aot/videos/S_yt-E8EDQCPbBeI_196.mp4	0.0	81.2500250339508	0.10006499290466309
7	18.131011962890625	fix_pre	0		46.0	5.0	2.5	blank	1.0	81.35009002685547	0.3832530975341797
7	18.505969047546387	response	0	2		5.0	2.5	blank	1.0	81.72504711151123	
7	18.514265060424805	movie	1		301.0	5.0	2.5	blank	1.0	81.73334312438965	2.508382797241211
7	21.022647857666016	fix_post	2		12.0	5.0	2.5	blank	1.0	84.24172592163086	0.10001206398010254
8	21.122659921646118	fix_pre	0		80.0	6.0	2.5	/experiments/knapen_aot/videos/S_yt-fja6A_3ys_w_116.mp4	0.0	84.34173798561096	0.666546106338501
8	21.7810640335083	response	0	2		6.0	2.5	/experiments/knapen_aot/videos/S_yt-fja6A_3ys_w_116.mp4	0.0	85.00014209747314	
8	21.78920602798462	movie	1		301.0	6.0	2.5	/experiments/knapen_aot/videos/S_yt-fja6A_3ys_w_116.mp4	0.0	85.00828409194946	2.5083398818969727
8	24.297545909881592	fix_post	2		12.0	6.0	2.5	/experiments/knapen_aot/videos/S_yt-fja6A_3ys_w_116.mp4	0.0	87.51662397384644	0.10016798973083496
9	24.397713899612427	fix_pre	0		30.0	7.0	2.5	/experiments/knapen_aot/videos/S_DV6V38rplag_215.mp4	0.0	87.61679196357727	0.24984312057495117
9	24.639302968978882	response	0	2		7.0	2.5	/experiments/knapen_aot/videos/S_DV6V38rplag_215.mp4	0.0	87.85838103294373	
9	24.647557020187378	movie	1		301.0	7.0	2.5	/experiments/knapen_aot/videos/S_DV6V38rplag_215.mp4	0.0	87.86663508415222	2.5083398818969727
9	27.15589690208435	fix_post	2		12.0	7.0	2.5	/experiments/knapen_aot/videos/S_DV6V38rplag_215.mp4	0.0	90.3749749660492	0.10054898262023926
10	27.25644588470459	fix_pre	0		18.0	8.0	2.5	/experiments/knapen_aot/videos/R_S_yt-2LCHVTVwJ5E_235.mp4	0.0	90.47552394866943	0.14944911003112793
10	27.397698879241943	response	0	2		8.0	2.5	/experiments/knapen_aot/videos/R_S_yt-2LCHVTVwJ5E_235.mp4	0.0	90.61677694320679	
10	27.405894994735718	movie	1		301.0	8.0	2.5	/experiments/knapen_aot/videos/R_S_yt-2LCHVTVwJ5E_235.mp4	0.0	90.62497305870056	2.508457899093628
10	29.914352893829346	fix_post	2		12.0	8.0	2.5	/experiments/knapen_aot/videos/R_S_yt-2LCHVTVwJ5E_235.mp4	0.0	93.13343095779419	0.09990596771240234
11	30.014258861541748	fix_pre	0		37.0	9.0	2.5	/experiments/knapen_aot/videos/R_S_yt-GLK6LniTOK0_69.mp4	0.0	93.23333692550659	0.30824899673461914
11	30.314383029937744	response	0	2		9.0	2.5	/experiments/knapen_aot/videos/R_S_yt-GLK6LniTOK0_69.mp4	0.0	93.53346109390259	
11	30.322507858276367	movie	1		301.0	9.0	2.5	/experiments/knapen_aot/videos/R_S_yt-GLK6LniTOK0_69.mp4	0.0	93.54158592224121	2.5084140300750732
11	32.83092188835144	fix_post	2		12.0	9.0	2.5	/experiments/knapen_aot/videos/R_S_yt-GLK6LniTOK0_69.mp4	0.0	96.04999995231628	0.09998416900634766
12	32.93090605735779	fix_pre	0		29.0	10.0	2.5	/experiments/knapen_aot/videos/S_yt-2LCHVTVwJ5E_235.mp4	0.0	96.14998412132263	0.2419908046722412
12	33.16431403160095	response	0	2		10.0	2.5	/experiments/knapen_aot/videos/S_yt-2LCHVTVwJ5E_235.mp4	0.0	96.3833920955658	
12	33.17289686203003	movie	1		301.0	10.0	2.5	/experiments/knapen_aot/videos/S_yt-2LCHVTVwJ5E_235.mp4	0.0	96.39197492599487	2.5080010890960693
12	35.6808979511261	fix_post	2		12.0	10.0	2.5	/experiments/knapen_aot/videos/S_yt-2LCHVTVwJ5E_235.mp4	0.0	98.89997601509094	0.09996795654296875
13	35.78086590766907	fix_pre	0		35.0	11.0	2.5	/experiments/knapen_aot/videos/S_yt-GBt59U0KUR0_6.mp4	0.0	98.99994397163391	0.291672945022583
13	36.06430387496948	response	0	2		11.0	2.5	/experiments/knapen_aot/videos/S_yt-GBt59U0KUR0_6.mp4	0.0	99.28338193893433	
13	36.07253885269165	movie	1		301.0	11.0	2.5	/experiments/knapen_aot/videos/S_yt-GBt59U0KUR0_6.mp4	0.0	99.2916169166565	2.5083720684051514
13	38.5809109210968	fix_post	2		12.0	11.0	2.5	/experiments/knapen_aot/videos/S_yt-GBt59U0KUR0_6.mp4	0.0	101.79998898506165	0.09997296333312988
14	38.68088388442993	fix_pre	0		43.0	12.0	2.5	/experiments/knapen_aot/videos/R_S_yt-SGTgMItFkxY_172.mp4	0.0	101.89996194839478	0.35820913314819336
14	39.030988931655884	response	0	2		12.0	2.5	/experiments/knapen_aot/videos/R_S_yt-SGTgMItFkxY_172.mp4	0.0	102.25006699562073	
14	39.039093017578125	movie	1		301.0	12.0	2.5	/experiments/knapen_aot/videos/R_S_yt-SGTgMItFkxY_172.mp4	0.0	102.25817108154297	2.5085039138793945
14	41.54759693145752	fix_post	2		12.0	12.0	2.5	/experiments/knapen_aot/videos/R_S_yt-SGTgMItFkxY_172.mp4	0.0	104.76667499542236	0.09992694854736328
15	41.64752388000488	fix_pre	0		54.0	13.0	2.5	blank	1.0	104.86660194396973	0.44991612434387207
15	42.08929896354675	response	0	2		13.0	2.5	blank	1.0	105.3083770275116	
15	42.097440004348755	movie	1		301.0	13.0	2.5	blank	1.0	105.3165180683136	2.50844407081604
15	44.605884075164795	fix_post	2		12.0	13.0	2.5	blank	1.0	107.82496213912964	0.09998083114624023
16	44.705864906311035	fix_pre	0		47.0	14.0	2.5	/experiments/knapen_aot/videos/R_S_yt-LB9LoYfH_EA_15.mp4	0.0	107.92494297027588	0.39158105850219727
16	45.089287996292114	response	0	2		14.0	2.5	/experiments/knapen_aot/videos/R_S_yt-LB9LoYfH_EA_15.mp4	0.0	108.30836606025696	
16	45.09744596481323	movie	1		301.0	14.0	2.5	/experiments/knapen_aot/videos/R_S_yt-LB9LoYfH_EA_15.mp4	0.0	108.31652402877808	2.5084149837493896
16	47.60586094856262	fix_post	2		12.0	14.0	2.5	/experiments/knapen_aot/videos/R_S_yt-LB9LoYfH_EA_15.mp4	0.0	110.82493901252747	0.09994792938232422
17	47.705808877944946	fix_pre	0		33.0	15.0	2.5	/experiments/knapen_aot/videos/S_ILSVRC2015_train_00371012.mp4	0.0	110.92488694190979	0.2750129699707031
17	47.965039014816284	response	0	2		15.0	2.5	/experiments/knapen_aot/videos/S_ILSVRC2015_train_00371012.mp4	0.0	111.18411707878113	
17	47.98082184791565	movie	1		301.0	15.0	2.5	/experiments/knapen_aot/videos/S_ILSVRC2015_train_00371012.mp4	0.0	111.1998999118805	2.508289098739624
17	50.48911094665527	fix_post	2		12.0	15.0	2.5	/experiments/knapen_aot/videos/S_ILSVRC2015_train_00371012.mp4	0.0	113.70818901062012	0.10015010833740234
18	50.589261054992676	fix_pre	0		33.0	16.0	2.5	/experiments/knapen_aot/videos/R_S_comp_GMT329_113NC_396B_1105_ITALY_v03_SDR_FINAL_20180706_SDR_2K_AVC.mp4	0.0	113.80833911895752	0.2748439311981201
18	50.85589385032654	response	0	2		16.0	2.5	/experiments/knapen_aot/videos/R_S_comp_GMT329_113NC_396B_1105_ITALY_v03_SDR_FINAL_20180706_SDR_2K_AVC.mp4	0.0	114.07497191429138	
18	50.864104986190796	movie	1		167.0	16.0	2.5	/experiments/knapen_aot/videos/R_S_comp_GMT329_113NC_396B_1105_ITALY_v03_SDR_FINAL_20180706_SDR_2K_AVC.mp4	0.0	114.08318305015564	2.5083839893341064
18	53.3724889755249	fix_post	2		12.0	16.0	2.5	/experiments/knapen_aot/videos/R_S_comp_GMT329_113NC_396B_1105_ITALY_v03_SDR_FINAL_20180706_SDR_2K_AVC.mp4	0.0	116.59156703948975	0.10001802444458008
19	53.47250699996948	fix_pre	0		37.0	17.0	2.5	/experiments/knapen_aot/videos/R_S_yt-MEfljVFL0xw_375.mp4	0.0	116.69158506393433	0.30832505226135254
19	53.765071868896484	response	0	2		17.0	2.5	/experiments/knapen_aot/videos/R_S_yt-MEfljVFL0xw_375.mp4	0.0	116.98414993286133	
19	53.780832052230835	movie	1		301.0	17.0	2.5	/experiments/knapen_aot/videos/R_S_yt-MEfljVFL0xw_375.mp4	0.0	116.99991011619568	2.5083248615264893
19	56.289156913757324	fix_post	2		12.0	17.0	2.5	/experiments/knapen_aot/videos/R_S_yt-MEfljVFL0xw_375.mp4	0.0	119.50823497772217	0.0999290943145752
20	56.3890860080719	fix_pre	0		42.0	18.0	2.5	/experiments/knapen_aot/videos/R_S_yt-UKrWbJEs7pw_74.mp4	0.0	119.60816407203674	0.3499929904937744
20	56.72333288192749	response	0	2		18.0	2.5	/experiments/knapen_aot/videos/R_S_yt-UKrWbJEs7pw_74.mp4	0.0	119.94241094589233	
20	56.739078998565674	movie	1		301.0	18.0	2.5	/experiments/knapen_aot/videos/R_S_yt-UKrWbJEs7pw_74.mp4	0.0	119.95815706253052	2.508389949798584
20	59.24746894836426	fix_post	2		12.0	18.0	2.5	/experiments/knapen_aot/videos/R_S_yt-UKrWbJEs7pw_74.mp4	0.0	122.4665470123291	0.1000220775604248
21	59.34749102592468	fix_pre	0		29.0	19.0	2.5	blank	1.0	122.56656908988953	0.2418978214263916
21	59.58082604408264	response	0	2		19.0	2.5	blank	1.0	122.79990410804749	
21	59.589388847351074	movie	1		301.0	19.0	2.5	blank	1.0	122.80846691131592	2.508070230484009
21	62.09745907783508	fix_post	2		12.0	19.0	2.5	blank	1.0	125.31653714179993	0.10000896453857422
22	62.19746804237366	fix_pre	0		78.0	20.0	2.5	/experiments/knapen_aot/videos/S_ahUa35lQM6E_44.mp4	0.0	125.4165461063385	0.6499149799346924
22	62.83921694755554	response	0	2		20.0	2.5	/experiments/knapen_aot/videos/S_ahUa35lQM6E_44.mp4	0.0	126.05829501152039	
22	62.84738302230835	movie	1		301.0	20.0	2.5	/experiments/knapen_aot/videos/S_ahUa35lQM6E_44.mp4	0.0	126.0664610862732	2.5084500312805176
22	65.35583305358887	fix_post	2		12.0	20.0	2.5	/experiments/knapen_aot/videos/S_ahUa35lQM6E_44.mp4	0.0	128.5749111175537	0.09990096092224121
23	65.45573401451111	fix_pre	0		39.0	21.0	2.5	/experiments/knapen_aot/videos/S_yt-VJ65ukWmdxQ_193.mp4	0.0	128.67481207847595	0.3249390125274658
23	65.77252197265625	response	0	2		21.0	2.5	/experiments/knapen_aot/videos/S_yt-VJ65ukWmdxQ_193.mp4	0.0	128.9916000366211	
23	65.78067302703857	movie	1		301.0	21.0	2.5	/experiments/knapen_aot/videos/S_yt-VJ65ukWmdxQ_193.mp4	0.0	128.99975109100342	2.508441925048828
23	68.2891149520874	fix_post	2		12.0	21.0	2.5	/experiments/knapen_aot/videos/S_yt-VJ65ukWmdxQ_193.mp4	0.0	131.50819301605225	0.09999203681945801
24	68.38910698890686	fix_pre	0		77.0	22.0	2.5	/experiments/knapen_aot/videos/R_S_yt-dO0OuozAgt0_225.mp4	0.0	131.6081850528717	0.641624927520752
24	69.02261090278625	response	0	2		22.0	2.5	/experiments/knapen_aot/videos/R_S_yt-dO0OuozAgt0_225.mp4	0.0	132.2416889667511	
24	69.03073191642761	movie	1		301.0	22.0	2.5	/experiments/knapen_aot/videos/R_S_yt-dO0OuozAgt0_225.mp4	0.0	132.24980998039246	2.5083489418029785
24	71.53908085823059	fix_post	2		12.0	22.0	2.5	/experiments/knapen_aot/videos/R_S_yt-dO0OuozAgt0_225.mp4	0.0	134.75815892219543	0.09998822212219238
25	71.63906908035278	fix_pre	0		47.0	23.0	2.5	/experiments/knapen_aot/videos/S_yt-HwEfWfFJhRo_73.mp4	0.0	134.85814714431763	0.39162278175354004
25	72.02251195907593	response	0	2		23.0	2.5	/experiments/knapen_aot/videos/S_yt-HwEfWfFJhRo_73.mp4	0.0	135.24159002304077	
25	72.03069186210632	movie	1		301.0	23.0	2.5	/experiments/knapen_aot/videos/S_yt-HwEfWfFJhRo_73.mp4	0.0	135.24976992607117	2.5083200931549072
25	74.53901195526123	fix_post	2		12.0	23.0	2.5	/experiments/knapen_aot/videos/S_yt-HwEfWfFJhRo_73.mp4	0.0	137.75809001922607	0.10004806518554688
26	74.63906002044678	fix_pre	0		51.0	24.0	2.5	/experiments/knapen_aot/videos/R_S_Pexels_Videos_2795737.mp4	0.0	137.85813808441162	0.42497897148132324
26	75.05582690238953	response	0	2		24.0	2.5	/experiments/knapen_aot/videos/R_S_Pexels_Videos_2795737.mp4	0.0	138.27490496635437	
26	75.0640389919281	movie	1		165.0	24.0	2.5	/experiments/knapen_aot/videos/R_S_Pexels_Videos_2795737.mp4	0.0	138.28311705589294	2.508388042449951
26	77.57242703437805	fix_post	2		12.0	24.0	2.5	/experiments/knapen_aot/videos/R_S_Pexels_Videos_2795737.mp4	0.0	140.7915050983429	0.1001749038696289
27	77.67260193824768	fix_pre	0		19.0	25.0	2.5	/experiments/knapen_aot/videos/S_yt-2i53vKte7SA_117.mp4	0.0	140.89168000221252	0.15807890892028809
27	77.82239484786987	response	0	2		25.0	2.5	/experiments/knapen_aot/videos/S_yt-2i53vKte7SA_117.mp4	0.0	141.04147291183472	
27	77.83068084716797	movie	1		301.0	25.0	2.5	/experiments/knapen_aot/videos/S_yt-2i53vKte7SA_117.mp4	0.0	141.0497589111328	2.5085630416870117
27	80.33924388885498	fix_post	2		12.0	25.0	2.5	/experiments/knapen_aot/videos/S_yt-2i53vKte7SA_117.mp4	0.0	143.55832195281982	0.09978199005126953
28	80.43902587890625	fix_pre	0		33.0	26.0	2.5	/experiments/knapen_aot/videos/S_yt-IT741UWKVzg_34.mp4	0.0	143.6581039428711	0.2750730514526367
28	80.705806016922	response	0	2		26.0	2.5	/experiments/knapen_aot/videos/S_yt-IT741UWKVzg_34.mp4	0.0	143.92488408088684	
28	80.71409893035889	movie	1		301.0	26.0	2.5	/experiments/knapen_aot/videos/S_yt-IT741UWKVzg_34.mp4	0.0	143.93317699432373	2.5082130432128906
28	83.22231197357178	fix_post	2		12.0	26.0	2.5	/experiments/knapen_aot/videos/S_yt-IT741UWKVzg_34.mp4	0.0	146.44139003753662	0.10001587867736816
29	83.32232785224915	fix_pre	0		39.0	27.0	2.5	blank	1.0	146.541405916214	0.32501220703125
29	83.63911294937134	response	0	2		27.0	2.5	blank	1.0	146.85819101333618	
29	83.6473400592804	movie	1		301.0	27.0	2.5	blank	1.0	146.86641812324524	2.508288860321045
29	86.15562891960144	fix_post	2		12.0	27.0	2.5	blank	1.0	149.37470698356628	0.1002039909362793
30	86.25583291053772	fix_pre	0		72.0	28.0	2.5	/experiments/knapen_aot/videos/R_S_yt-RlHmMGUjT9E_130.mp4	0.0	149.47491097450256	0.5997841358184814
30	86.84743094444275	response	0	2		28.0	2.5	/experiments/knapen_aot/videos/R_S_yt-RlHmMGUjT9E_130.mp4	0.0	150.0665090084076	
30	86.8556170463562	movie	1		301.0	28.0	2.5	/experiments/knapen_aot/videos/R_S_yt-RlHmMGUjT9E_130.mp4	0.0	150.07469511032104	2.508301019668579
30	89.36391806602478	fix_post	2		12.0	28.0	2.5	/experiments/knapen_aot/videos/R_S_yt-RlHmMGUjT9E_130.mp4	0.0	152.58299612998962	0.1002039909362793
31	89.46412205696106	fix_pre	0		23.0	29.0	2.5	/experiments/knapen_aot/videos/S_production_ID_4820868.mp4	0.0	152.6832001209259	0.19155597686767578
31	89.64739489555359	response	0	2		29.0	2.5	/experiments/knapen_aot/videos/S_production_ID_4820868.mp4	0.0	152.86647295951843	
31	89.65567803382874	movie	1		172.0	29.0	2.5	/experiments/knapen_aot/videos/S_production_ID_4820868.mp4	0.0	152.87475609779358	2.5083348751068115
31	92.16401290893555	fix_post	2		12.0	29.0	2.5	/experiments/knapen_aot/videos/S_production_ID_4820868.mp4	0.0	155.3830909729004	0.09997701644897461
32	92.26398992538452	fix_pre	0		39.0	30.0	2.5	/experiments/knapen_aot/videos/S_yt-G_eNNzNB-hU_1.mp4	0.0	155.48306798934937	0.3250391483306885
32	92.58084607124329	response	0	2		30.0	2.5	/experiments/knapen_aot/videos/S_yt-G_eNNzNB-hU_1.mp4	0.0	155.79992413520813	
32	92.58902907371521	movie	1		301.0	30.0	2.5	/experiments/knapen_aot/videos/S_yt-G_eNNzNB-hU_1.mp4	0.0	155.80810713768005	2.5083608627319336
32	95.09738993644714	fix_post	2		12.0	30.0	2.5	/experiments/knapen_aot/videos/S_yt-G_eNNzNB-hU_1.mp4	0.0	158.316468000412	0.09992003440856934
33	95.19730997085571	fix_pre	0		62.0	31.0	2.5	/experiments/knapen_aot/videos/R_S_yt-gaCbT4RR9Tw_191.mp4	0.0	158.41638803482056	0.516700029373169
33	95.70575499534607	response	0	2		31.0	2.5	/experiments/knapen_aot/videos/R_S_yt-gaCbT4RR9Tw_191.mp4	0.0	158.9248330593109	
33	95.71401000022888	movie	1		301.0	31.0	2.5	/experiments/knapen_aot/videos/R_S_yt-gaCbT4RR9Tw_191.mp4	0.0	158.93308806419373	2.508301019668579
33	98.22231101989746	fix_post	2		12.0	31.0	2.5	/experiments/knapen_aot/videos/R_S_yt-gaCbT4RR9Tw_191.mp4	0.0	161.4413890838623	0.09991097450256348
34	98.32222199440002	fix_pre	0		47.0	32.0	2.5	/experiments/knapen_aot/videos/R_S_yt-ILARvS15SDQ_741.mp4	0.0	161.54130005836487	0.391726016998291
34	98.70569586753845	response	0	2		32.0	2.5	/experiments/knapen_aot/videos/R_S_yt-ILARvS15SDQ_741.mp4	0.0	161.9247739315033	
34	98.71394801139832	movie	1		301.0	32.0	2.5	/experiments/knapen_aot/videos/R_S_yt-ILARvS15SDQ_741.mp4	0.0	161.93302607536316	2.5083470344543457
34	101.22229504585266	fix_post	2		12.0	32.0	2.5	/experiments/knapen_aot/videos/R_S_yt-ILARvS15SDQ_741.mp4	0.0	164.4413731098175	0.09996485710144043
35	101.3222599029541	fix_pre	0		59.0	33.0	2.5	/experiments/knapen_aot/videos/S_yt--v_iMUMMX6g_39.mp4	0.0	164.54133796691895	0.49161601066589355
35	101.80571699142456	response	0	2		33.0	2.5	/experiments/knapen_aot/videos/S_yt--v_iMUMMX6g_39.mp4	0.0	165.0247950553894	
35	101.81387591362	movie	1		301.0	33.0	2.5	/experiments/knapen_aot/videos/S_yt--v_iMUMMX6g_39.mp4	0.0	165.03295397758484	2.5084049701690674
35	104.32228088378906	fix_post	2		12.0	33.0	2.5	/experiments/knapen_aot/videos/S_yt--v_iMUMMX6g_39.mp4	0.0	167.5413589477539	0.1000220775604248
36	104.42230296134949	fix_pre	0		58.0	34.0	2.5	/experiments/knapen_aot/videos/R_S_I003_C008_SDR_2K_AVC.mp4	0.0	167.64138102531433	0.48331308364868164
36	104.8973798751831	response	0	2		34.0	2.5	/experiments/knapen_aot/videos/R_S_I003_C008_SDR_2K_AVC.mp4	0.0	168.11645793914795	
36	104.90561604499817	movie	1		179.0	34.0	2.5	/experiments/knapen_aot/videos/R_S_I003_C008_SDR_2K_AVC.mp4	0.0	168.124694108963	2.5083069801330566
36	107.41392302513123	fix_post	2		12.0	34.0	2.5	/experiments/knapen_aot/videos/R_S_I003_C008_SDR_2K_AVC.mp4	0.0	170.63300108909607	0.09999990463256836
37	107.5139229297638	fix_pre	0		39.0	35.0	2.5	blank	1.0	170.73300099372864	0.3249640464782715
37	107.83058905601501	response	0	2		35.0	2.5	blank	1.0	171.04966711997986	
37	107.83888697624207	movie	1		301.0	35.0	2.5	blank	1.0	171.0579650402069	2.508344888687134
37	110.3472318649292	fix_post	2		12.0	35.0	2.5	blank	1.0	173.56630992889404	0.10000205039978027
38	110.44723391532898	fix_pre	0		66.0	36.0	2.5	/experiments/knapen_aot/videos/R_S_yt-n2PnABmSpxI_115.mp4	0.0	173.66631197929382	0.5499670505523682
38	110.9890489578247	response	0	2		36.0	2.5	/experiments/knapen_aot/videos/R_S_yt-n2PnABmSpxI_115.mp4	0.0	174.20812702178955	
38	110.99720096588135	movie	1		301.0	36.0	2.5	/experiments/knapen_aot/videos/R_S_yt-n2PnABmSpxI_115.mp4	0.0	174.2162790298462	2.508342981338501
38	113.50554394721985	fix_post	2		12.0	36.0	2.5	/experiments/knapen_aot/videos/R_S_yt-n2PnABmSpxI_115.mp4	0.0	176.7246220111847	0.10001897811889648
39	113.60556292533875	fix_pre	0		53.0	37.0	2.5	/experiments/knapen_aot/videos/S_yt-IigHVUksnw8_7.mp4	0.0	176.8246409893036	0.44162893295288086
39	114.03902697563171	response	0	2		37.0	2.5	/experiments/knapen_aot/videos/S_yt-IigHVUksnw8_7.mp4	0.0	177.25810503959656	
39	114.04719185829163	movie	1		301.0	37.0	2.5	/experiments/knapen_aot/videos/S_yt-IigHVUksnw8_7.mp4	0.0	177.26626992225647	2.508341073989868
39	116.5555329322815	fix_post	2		12.0	37.0	2.5	/experiments/knapen_aot/videos/S_yt-IigHVUksnw8_7.mp4	0.0	179.77461099624634	0.09999203681945801
40	116.65552496910095	fix_pre	0		32.0	38.0	2.5	/experiments/knapen_aot/videos/S_ILSVRC2015_train_00515001.mp4	0.0	179.8746030330658	0.2666800022125244
40	116.91393804550171	response	0	2		38.0	2.5	/experiments/knapen_aot/videos/S_ILSVRC2015_train_00515001.mp4	0.0	180.13301610946655	
40	116.92220497131348	movie	1		301.0	38.0	2.5	/experiments/knapen_aot/videos/S_ILSVRC2015_train_00515001.mp4	0.0	180.14128303527832	2.508359909057617
40	119.4305648803711	fix_post	2		12.0	38.0	2.5	/experiments/knapen_aot/videos/S_ILSVRC2015_train_00515001.mp4	0.0	182.64964294433594	0.09998416900634766
41	119.53054904937744	fix_pre	0		121.0	39.0	2.5	/experiments/knapen_aot/videos/S_yt-kP7VNn9QIo4_53.mp4	0.0	182.74962711334229	1.0082600116729736
41	120.53063607215881	response	0	2		39.0	2.5	/experiments/knapen_aot/videos/S_yt-kP7VNn9QIo4_53.mp4	0.0	183.74971413612366	
41	120.53880906105042	movie	1		301.0	39.0	2.5	/experiments/knapen_aot/videos/S_yt-kP7VNn9QIo4_53.mp4	0.0	183.75788712501526	2.508430004119873
41	123.04723906517029	fix_post	2		12.0	39.0	2.5	/experiments/knapen_aot/videos/S_yt-kP7VNn9QIo4_53.mp4	0.0	186.26631712913513	0.09995198249816895
42	123.14719104766846	fix_pre	0		33.0	40.0	2.5	/experiments/knapen_aot/videos/R_S_yt-rlEPywo5BEQ_36.mp4	0.0	186.3662691116333	0.27489590644836426
42	123.41394400596619	response	0	2		40.0	2.5	/experiments/knapen_aot/videos/R_S_yt-rlEPywo5BEQ_36.mp4	0.0	186.63302206993103	
42	123.42208695411682	movie	1		301.0	40.0	2.5	/experiments/knapen_aot/videos/R_S_yt-rlEPywo5BEQ_36.mp4	0.0	186.64116501808167	2.508404016494751
42	125.93049097061157	fix_post	2		12.0	40.0	2.5	/experiments/knapen_aot/videos/R_S_yt-rlEPywo5BEQ_36.mp4	0.0	189.14956903457642	0.10002994537353516
43	126.03052091598511	fix_pre	0		36.0	41.0	2.5	/experiments/knapen_aot/videos/R_S_comp_HK_H004_C013_t9_6M_HB_tag0.mp4	0.0	189.24959897994995	0.3011960983276367
43	126.32228207588196	response	0	2		41.0	2.5	/experiments/knapen_aot/videos/R_S_comp_HK_H004_C013_t9_6M_HB_tag0.mp4	0.0	189.5413601398468	
43	126.33171701431274	movie	1		174.0	41.0	2.5	/experiments/knapen_aot/videos/R_S_comp_HK_H004_C013_t9_6M_HB_tag0.mp4	0.0	189.5507950782776	2.507114887237549
43	128.8388319015503	fix_post	2		12.0	41.0	2.5	/experiments/knapen_aot/videos/R_S_comp_HK_H004_C013_t9_6M_HB_tag0.mp4	0.0	192.05790996551514	0.09995508193969727
44	128.93878698349	fix_pre	0		36.0	42.0	2.5	blank	1.0	192.15786504745483	0.30000901222229004
44	129.23052787780762	response	0	2		42.0	2.5	blank	1.0	192.44960594177246	
44	129.23879599571228	movie	1		301.0	42.0	2.5	blank	1.0	192.45787405967712	2.508298873901367
44	131.74709486961365	fix_post	2		12.0	42.0	2.5	blank	1.0	194.9661729335785	0.10005903244018555
45	131.84715390205383	fix_pre	0		73.0	43.0	2.5	/experiments/knapen_aot/videos/S_yt-SS7pSyb0_d0_32.mp4	0.0	195.06623196601868	0.608208179473877
45	132.4471559524536	response	0	2		43.0	2.5	/experiments/knapen_aot/videos/S_yt-SS7pSyb0_d0_32.mp4	0.0	195.66623401641846	
45	132.4553620815277	movie	1		301.0	43.0	2.5	/experiments/knapen_aot/videos/S_yt-SS7pSyb0_d0_32.mp4	0.0	195.67444014549255	2.508408784866333
45	134.96377086639404	fix_post	2		12.0	43.0	2.5	/experiments/knapen_aot/videos/S_yt-SS7pSyb0_d0_32.mp4	0.0	198.1828489303589	0.10004520416259766
46	135.06381607055664	fix_pre	0		267.0	44.0	2.5	/experiments/knapen_aot/videos/R_S_yt-gaCbT4RR9Tw_191.mp4	0.0	198.28289413452148	2.226200819015503
46	137.28056693077087	response	0	2		44.0	2.5	/experiments/knapen_aot/videos/R_S_yt-gaCbT4RR9Tw_191.mp4	0.0	200.49964499473572	
46	137.29001688957214	movie	1		301.0	44.0	2.5	/experiments/knapen_aot/videos/R_S_yt-gaCbT4RR9Tw_191.mp4	0.0	200.509094953537	2.5071301460266113
46	139.79714703559875	fix_post	2		12.0	44.0	2.5	/experiments/knapen_aot/videos/R_S_yt-gaCbT4RR9Tw_191.mp4	0.0	203.0162250995636	0.09992599487304688
47	139.8970730304718	fix_pre	0		86.0	45.0	2.5	/experiments/knapen_aot/videos/S_ILSVRC2015_train_00479004.mp4	0.0	203.11615109443665	0.7166848182678223
47	140.60556197166443	response	0	2		45.0	2.5	/experiments/knapen_aot/videos/S_ILSVRC2015_train_00479004.mp4	0.0	203.82464003562927	
47	140.61375784873962	movie	1		301.0	45.0	2.5	/experiments/knapen_aot/videos/S_ILSVRC2015_train_00479004.mp4	0.0	203.83283591270447	2.508315086364746
47	143.12207293510437	fix_post	2		12.0	45.0	2.5	/experiments/knapen_aot/videos/S_ILSVRC2015_train_00479004.mp4	0.0	206.3411509990692	0.10013198852539062
48	143.22220492362976	fix_pre	0		36.0	46.0	2.5	/experiments/knapen_aot/videos/S_DL_B002_C011_SDR_20191122_SDR_2K_AVC.mp4	0.0	206.4412829875946	0.29987502098083496
48	143.51382684707642	response	0	2		46.0	2.5	/experiments/knapen_aot/videos/S_DL_B002_C011_SDR_20191122_SDR_2K_AVC.mp4	0.0	206.73290491104126	
48	143.5220799446106	movie	1		167.0	46.0	2.5	/experiments/knapen_aot/videos/S_DL_B002_C011_SDR_20191122_SDR_2K_AVC.mp4	0.0	206.74115800857544	2.508336067199707
48	146.0304160118103	fix_post	2		12.0	46.0	2.5	/experiments/knapen_aot/videos/S_DL_B002_C011_SDR_20191122_SDR_2K_AVC.mp4	0.0	209.24949407577515	0.09999990463256836
49	146.13041591644287	fix_pre	0		56.0	47.0	2.5	/experiments/knapen_aot/videos/S_yt-b29VtKvlnWE_430.mp4	0.0	209.34949398040771	0.46655797958374023
49	146.5889310836792	response	0	2		47.0	2.5	/experiments/knapen_aot/videos/S_yt-b29VtKvlnWE_430.mp4	0.0	209.80800914764404	
49	146.5969738960266	movie	1		301.0	47.0	2.5	/experiments/knapen_aot/videos/S_yt-b29VtKvlnWE_430.mp4	0.0	209.81605195999146	2.508376121520996
49	149.1053500175476	fix_post	2		12.0	47.0	2.5	/experiments/knapen_aot/videos/S_yt-b29VtKvlnWE_430.mp4	0.0	212.32442808151245	0.10130095481872559
50	149.20665097236633	fix_pre	0		44.0	48.0	2.5	blank	1.0	212.42572903633118	0.36540889739990234
50	149.56381702423096	response	0	2		48.0	2.5	blank	1.0	212.7828950881958	
50	149.57205986976624	movie	1		301.0	48.0	2.5	blank	1.0	212.79113793373108	2.508310079574585
50	152.08036994934082	fix_post	2		12.0	48.0	2.5	blank	1.0	215.29944801330566	0.09996700286865234
51	152.18033695220947	fix_pre	0		55.0	49.0	2.5	/experiments/knapen_aot/videos/R_S_DL_B002_C011_SDR_20191122_SDR_2K_AVC.mp4	0.0	215.39941501617432	0.4583001136779785
51	152.63046503067017	response	0	2		49.0	2.5	/experiments/knapen_aot/videos/R_S_DL_B002_C011_SDR_20191122_SDR_2K_AVC.mp4	0.0	215.849543094635	
51	152.63863706588745	movie	1		168.0	49.0	2.5	/experiments/knapen_aot/videos/R_S_DL_B002_C011_SDR_20191122_SDR_2K_AVC.mp4	0.0	215.8577151298523	2.5084049701690674
51	155.14704203605652	fix_post	2		12.0	49.0	2.5	/experiments/knapen_aot/videos/R_S_DL_B002_C011_SDR_20191122_SDR_2K_AVC.mp4	0.0	218.36612010002136	0.09995198249816895
52	155.2469940185547	fix_pre	0		29.0	50.0	2.5	/experiments/knapen_aot/videos/R_S_wc-WgOBK5IL7vex_4.mp4	0.0	218.46607208251953	0.24167299270629883
52	155.48050093650818	response	0	2		50.0	2.5	/experiments/knapen_aot/videos/R_S_wc-WgOBK5IL7vex_4.mp4	0.0	218.69957900047302	
52	155.488667011261	movie	1		167.0	50.0	2.5	/experiments/knapen_aot/videos/R_S_wc-WgOBK5IL7vex_4.mp4	0.0	218.70774507522583	2.5083060264587402
52	157.99697303771973	fix_post	2		12.0	50.0	2.5	/experiments/knapen_aot/videos/R_S_wc-WgOBK5IL7vex_4.mp4	0.0	221.21605110168457	0.10002684593200684
53	158.09699988365173	fix_pre	0		31.0	51.0	2.5	/experiments/knapen_aot/videos/S_yt-HRuCkU_kBoE_239.mp4	0.0	221.31607794761658	0.25832605361938477
53	158.34702706336975	response	0	2		51.0	2.5	/experiments/knapen_aot/videos/S_yt-HRuCkU_kBoE_239.mp4	0.0	221.5661051273346	
53	158.35532593727112	movie	1		301.0	51.0	2.5	/experiments/knapen_aot/videos/S_yt-HRuCkU_kBoE_239.mp4	0.0	221.57440400123596	2.508366107940674
53	160.8636920452118	fix_post	2		12.0	51.0	2.5	/experiments/knapen_aot/videos/S_yt-HRuCkU_kBoE_239.mp4	0.0	224.08277010917664	0.09999203681945801
54	160.96368408203125	fix_pre	0		29.0	52.0	2.5	/experiments/knapen_aot/videos/S_pexels-kindel-media-8165572.mp4	0.0	224.1827621459961	0.24266695976257324
54	161.197035074234	response	0	2		52.0	2.5	/experiments/knapen_aot/videos/S_pexels-kindel-media-8165572.mp4	0.0	224.41611313819885	
54	161.20635104179382	movie	1		167.0	52.0	2.5	/experiments/knapen_aot/videos/S_pexels-kindel-media-8165572.mp4	0.0	224.42542910575867	2.5073628425598145
54	163.71371388435364	fix_post	2		12.0	52.0	2.5	/experiments/knapen_aot/videos/S_pexels-kindel-media-8165572.mp4	0.0	226.93279194831848	0.09994101524353027
55	163.81365489959717	fix_pre	0		30.0	53.0	2.5	/experiments/knapen_aot/videos/S_video_inspire_california_vineyard_sierra-mar_sunrise_110.1080-h264.mp4	0.0	227.032732963562	0.24996018409729004
55	164.05539393424988	response	0	2		53.0	2.5	/experiments/knapen_aot/videos/S_video_inspire_california_vineyard_sierra-mar_sunrise_110.1080-h264.mp4	0.0	227.27447199821472	
55	164.06361508369446	movie	1		171.0	53.0	2.5	/experiments/knapen_aot/videos/S_video_inspire_california_vineyard_sierra-mar_sunrise_110.1080-h264.mp4	0.0	227.2826931476593	2.5083818435668945
55	166.57199692726135	fix_post	2		12.0	53.0	2.5	/experiments/knapen_aot/videos/S_video_inspire_california_vineyard_sierra-mar_sunrise_110.1080-h264.mp4	0.0	229.7910749912262	0.09996509552001953
56	166.67196202278137	fix_pre	0		42.0	54.0	2.5	blank	1.0	229.89104008674622	0.35003089904785156
56	167.013671875	response	0	2		54.0	2.5	blank	1.0	230.23274993896484	
56	167.02199292182922	movie	1		301.0	54.0	2.5	blank	1.0	230.24107098579407	2.5082931518554688
56	169.5302860736847	fix_post	2		12.0	54.0	2.5	blank	1.0	232.74936413764954	0.09998893737792969
57	169.63027501106262	fix_pre	0		39.0	55.0	2.5	/experiments/knapen_aot/videos/S_BO_A014_C023_SDR_20190717_F240F3709_SDR_2K_AVC.mp4	0.0	232.84935307502747	0.32611703872680664
57	169.94701600074768	response	0	2		55.0	2.5	/experiments/knapen_aot/videos/S_BO_A014_C023_SDR_20190717_F240F3709_SDR_2K_AVC.mp4	0.0	233.16609406471252	
57	169.95639204978943	movie	1		167.0	55.0	2.5	/experiments/knapen_aot/videos/S_BO_A014_C023_SDR_20190717_F240F3709_SDR_2K_AVC.mp4	0.0	233.17547011375427	2.5074779987335205
57	172.46387004852295	fix_post	2		12.0	55.0	2.5	/experiments/knapen_aot/videos/S_BO_A014_C023_SDR_20190717_F240F3709_SDR_2K_AVC.mp4	0.0	235.6829481124878	0.09977197647094727
58	172.5636420249939	fix_pre	0		99.0	56.0	2.5	/experiments/knapen_aot/videos/S_wc-auTIuWLTxxkn_5.mp4	0.0	235.78272008895874	0.8249809741973877
58	173.380441904068	response	0	2		56.0	2.5	/experiments/knapen_aot/videos/S_wc-auTIuWLTxxkn_5.mp4	0.0	236.59951996803284	
58	173.38862299919128	movie	1		171.0	56.0	2.5	/experiments/knapen_aot/videos/S_wc-auTIuWLTxxkn_5.mp4	0.0	236.60770106315613	2.5083680152893066
58	175.8969910144806	fix_post	2		12.0	56.0	2.5	/experiments/knapen_aot/videos/S_wc-auTIuWLTxxkn_5.mp4	0.0	239.11606907844543	0.09993386268615723
59	175.99692487716675	fix_pre	0		88.0	57.0	2.5	/experiments/knapen_aot/videos/S_yt-gOoDjhfSPj0_162.mp4	0.0	239.2160029411316	0.7333440780639648
59	176.72211599349976	response	0	2		57.0	2.5	/experiments/knapen_aot/videos/S_yt-gOoDjhfSPj0_162.mp4	0.0	239.9411940574646	
59	176.7302689552307	movie	1		301.0	57.0	2.5	/experiments/knapen_aot/videos/S_yt-gOoDjhfSPj0_162.mp4	0.0	239.94934701919556	2.5083560943603516
59	179.23862504959106	fix_post	2		12.0	57.0	2.5	/experiments/knapen_aot/videos/S_yt-gOoDjhfSPj0_162.mp4	0.0	242.4577031135559	0.10004091262817383
60	179.33866596221924	fix_pre	0		43.0	58.0	2.5	/experiments/knapen_aot/videos/R_S_yt-YEiNSML5iiQ_18.mp4	0.0	242.55774402618408	0.3582429885864258
60	179.68114304542542	response	0	2		58.0	2.5	/experiments/knapen_aot/videos/R_S_yt-YEiNSML5iiQ_18.mp4	0.0	242.90022110939026	
60	179.69690895080566	movie	1		301.0	58.0	2.5	/experiments/knapen_aot/videos/R_S_yt-YEiNSML5iiQ_18.mp4	0.0	242.9159870147705	2.5083091259002686
60	182.20521807670593	fix_post	2		12.0	58.0	2.5	/experiments/knapen_aot/videos/R_S_yt-YEiNSML5iiQ_18.mp4	0.0	245.42429614067078	0.1001729965209961
61	182.30539107322693	fix_pre	0		36.0	59.0	2.5	/experiments/knapen_aot/videos/S_yt-W00vtWnXgIk_73.mp4	0.0	245.52446913719177	0.29973387718200684
61	182.59703397750854	response	0	2		59.0	2.5	/experiments/knapen_aot/videos/S_yt-W00vtWnXgIk_73.mp4	0.0	245.8161120414734	
61	182.60512495040894	movie	1		301.0	59.0	2.5	/experiments/knapen_aot/videos/S_yt-W00vtWnXgIk_73.mp4	0.0	245.82420301437378	2.5084240436553955
61	185.11354899406433	fix_post	2		12.0	59.0	2.5	/experiments/knapen_aot/videos/S_yt-W00vtWnXgIk_73.mp4	0.0	248.33262705802917	0.10005998611450195
62	185.21360898017883	fix_pre	0		23.0	60.0	2.5	/experiments/knapen_aot/videos/S_ILSVRC2015_train_00725000.mp4	0.0	248.43268704414368	0.19159388542175293
62	185.39697098731995	response	0	2		60.0	2.5	/experiments/knapen_aot/videos/S_ILSVRC2015_train_00725000.mp4	0.0	248.6160490512848	
62	185.4052028656006	movie	1		301.0	60.0	2.5	/experiments/knapen_aot/videos/S_ILSVRC2015_train_00725000.mp4	0.0	248.62428092956543	2.508411169052124
62	187.9136140346527	fix_post	2		12.0	60.0	2.5	/experiments/knapen_aot/videos/S_ILSVRC2015_train_00725000.mp4	0.0	251.13269209861755	0.09988188743591309
63	188.01349592208862	fix_pre	0		45.0	61.0	2.5	/experiments/knapen_aot/videos/R_S_bing-www_break_com_video_like-a-cat-catching-a-fly-3131008_12.mp4	0.0	251.23257398605347	0.3750901222229004
63	188.38031005859375	response	0	2		61.0	2.5	/experiments/knapen_aot/videos/R_S_bing-www_break_com_video_like-a-cat-catching-a-fly-3131008_12.mp4	0.0	251.5993881225586	
63	188.38858604431152	movie	1		301.0	61.0	2.5	/experiments/knapen_aot/videos/R_S_bing-www_break_com_video_like-a-cat-catching-a-fly-3131008_12.mp4	0.0	251.60766410827637	2.5083839893341064
63	190.89697003364563	fix_post	2		12.0	61.0	2.5	/experiments/knapen_aot/videos/R_S_bing-www_break_com_video_like-a-cat-catching-a-fly-3131008_12.mp4	0.0	254.11604809761047	0.09987092018127441
64	190.9968409538269	fix_pre	0		34.0	62.0	2.5	blank	1.0	254.21591901779175	0.28333592414855957
64	191.2719020843506	response	0	2		62.0	2.5	blank	1.0	254.49098014831543	
64	191.28017687797546	movie	1		301.0	62.0	2.5	blank	1.0	254.4992549419403	2.5083751678466797
64	193.78855204582214	fix_post	2		12.0	62.0	2.5	blank	1.0	257.007630109787	0.09994292259216309
65	193.8884949684143	fix_pre	0		62.0	63.0	2.5	/experiments/knapen_aot/videos/R_S_yt-HoRtvVuuvOs_5.mp4	0.0	257.10757303237915	0.5166471004486084
65	194.396959066391	response	0	2		63.0	2.5	/experiments/knapen_aot/videos/R_S_yt-HoRtvVuuvOs_5.mp4	0.0	257.61603713035583	
65	194.40514206886292	movie	1		301.0	63.0	2.5	/experiments/knapen_aot/videos/R_S_yt-HoRtvVuuvOs_5.mp4	0.0	257.62422013282776	2.5083258152008057
65	196.91346788406372	fix_post	2		12.0	63.0	2.5	/experiments/knapen_aot/videos/R_S_yt-HoRtvVuuvOs_5.mp4	0.0	260.13254594802856	0.10003519058227539
66	197.013503074646	fix_pre	0		41.0	64.0	2.5	/experiments/knapen_aot/videos/R_S_wc-8bTJmWfuVyJ4_8.mp4	0.0	260.23258113861084	0.34162282943725586
66	197.34690189361572	response	0	2		64.0	2.5	/experiments/knapen_aot/videos/R_S_wc-8bTJmWfuVyJ4_8.mp4	0.0	260.56597995758057	
66	197.35512590408325	movie	1		166.0	64.0	2.5	/experiments/knapen_aot/videos/R_S_wc-8bTJmWfuVyJ4_8.mp4	0.0	260.5742039680481	2.5082991123199463
66	199.8634250164032	fix_post	2		12.0	64.0	2.5	/experiments/knapen_aot/videos/R_S_wc-8bTJmWfuVyJ4_8.mp4	0.0	263.08250308036804	0.10005497932434082
67	199.96347999572754	fix_pre	0		22.0	65.0	2.5	/experiments/knapen_aot/videos/R_S_yt-fnE8kgUHUMI_64.mp4	0.0	263.1825580596924	0.18329191207885742
67	200.138503074646	response	0	2		65.0	2.5	/experiments/knapen_aot/videos/R_S_yt-fnE8kgUHUMI_64.mp4	0.0	263.35758113861084	
67	200.1467719078064	movie	1		301.0	65.0	2.5	/experiments/knapen_aot/videos/R_S_yt-fnE8kgUHUMI_64.mp4	0.0	263.36584997177124	2.508341073989868
67	202.65511298179626	fix_post	2		12.0	65.0	2.5	/experiments/knapen_aot/videos/R_S_yt-fnE8kgUHUMI_64.mp4	0.0	265.8741910457611	0.1000359058380127
68	202.75514888763428	fix_pre	0		53.0	66.0	2.5	/experiments/knapen_aot/videos/R_S_OdxWh1oU8e8_1.mp4	0.0	265.9742269515991	0.4416201114654541
68	203.1810269355774	response	0	2		66.0	2.5	/experiments/knapen_aot/videos/R_S_OdxWh1oU8e8_1.mp4	0.0	266.40010499954224	
68	203.19676899909973	movie	1		301.0	66.0	2.5	/experiments/knapen_aot/videos/R_S_OdxWh1oU8e8_1.mp4	0.0	266.4158470630646	2.508316993713379
68	205.7050859928131	fix_post	2		12.0	66.0	2.5	/experiments/knapen_aot/videos/R_S_OdxWh1oU8e8_1.mp4	0.0	268.92416405677795	0.10005807876586914
69	205.80514407157898	fix_pre	0		179.0	67.0	2.5	/experiments/knapen_aot/videos/S_yt-QJHe-CoK4iI_170.mp4	0.0	269.0242221355438	1.4917278289794922
69	207.28858184814453	response	0	2		67.0	2.5	/experiments/knapen_aot/videos/S_yt-QJHe-CoK4iI_170.mp4	0.0	270.5076599121094	
69	207.29687190055847	movie	1		301.0	67.0	2.5	/experiments/knapen_aot/videos/S_yt-QJHe-CoK4iI_170.mp4	0.0	270.5159499645233	2.508228063583374
69	209.80509996414185	fix_post	2		12.0	67.0	2.5	/experiments/knapen_aot/videos/S_yt-QJHe-CoK4iI_170.mp4	0.0	273.0241780281067	0.10000991821289062
70	209.90510988235474	fix_pre	0		60.0	68.0	2.5	blank	1.0	273.1241879463196	0.4999871253967285
70	210.39688992500305	response	0	2		68.0	2.5	blank	1.0	273.6159679889679	
70	210.40509700775146	movie	1		301.0	68.0	2.5	blank	1.0	273.6241750717163	2.5083420276641846
70	212.91343903541565	fix_post	2		12.0	68.0	2.5	blank	1.0	276.1325170993805	0.09992599487304688
71	213.0133650302887	fix_pre	0		68.0	69.0	2.5	/experiments/knapen_aot/videos/S_ILSVRC2015_train_00495000.mp4	0.0	276.23244309425354	0.5675039291381836
71	213.57187604904175	response	0	2		69.0	2.5	/experiments/knapen_aot/videos/S_ILSVRC2015_train_00495000.mp4	0.0	276.7909541130066	
71	213.58086895942688	movie	1		301.0	69.0	2.5	/experiments/knapen_aot/videos/S_ILSVRC2015_train_00495000.mp4	0.0	276.7999470233917	2.5075230598449707
71	216.08839201927185	fix_post	2		12.0	69.0	2.5	/experiments/knapen_aot/videos/S_ILSVRC2015_train_00495000.mp4	0.0	279.3074700832367	0.10012602806091309
72	216.18851804733276	fix_pre	0		55.0	70.0	2.5	/experiments/knapen_aot/videos/R_S_yt-ni4JaYu7PhU_6.mp4	0.0	279.4075961112976	0.45818090438842773
72	216.63844084739685	response	0	2		70.0	2.5	/experiments/knapen_aot/videos/R_S_yt-ni4JaYu7PhU_6.mp4	0.0	279.8575189113617	
72	216.6466989517212	movie	1		301.0	70.0	2.5	/experiments/knapen_aot/videos/R_S_yt-ni4JaYu7PhU_6.mp4	0.0	279.86577701568604	2.5088040828704834
72	219.15550303459167	fix_post	2		12.0	70.0	2.5	/experiments/knapen_aot/videos/R_S_yt-ni4JaYu7PhU_6.mp4	0.0	282.3745810985565	0.09967494010925293
73	219.25517797470093	fix_pre	0		21.0	71.0	2.5	/experiments/knapen_aot/videos/R_S_yt-aqrdb6BiFx4_12.mp4	0.0	282.47425603866577	0.17485308647155762
73	219.42175388336182	response	0	2		71.0	2.5	/experiments/knapen_aot/videos/R_S_yt-aqrdb6BiFx4_12.mp4	0.0	282.64083194732666	
73	219.43003106117249	movie	1		301.0	71.0	2.5	/experiments/knapen_aot/videos/R_S_yt-aqrdb6BiFx4_12.mp4	0.0	282.64910912513733	2.5083649158477783
73	221.93839597702026	fix_post	2		12.0	71.0	2.5	/experiments/knapen_aot/videos/R_S_yt-aqrdb6BiFx4_12.mp4	0.0	285.1574740409851	0.09999704360961914
74	222.03839302062988	fix_pre	0		93.0	72.0	2.5	/experiments/knapen_aot/videos/S_production_ID_4122384.mp4	0.0	285.2574710845947	0.7749629020690918
74	222.80520796775818	response	0	2		72.0	2.5	/experiments/knapen_aot/videos/S_production_ID_4122384.mp4	0.0	286.024286031723	
74	222.81335592269897	movie	1		182.0	72.0	2.5	/experiments/knapen_aot/videos/S_production_ID_4122384.mp4	0.0	286.0324339866638	2.5083861351013184
74	225.3217420578003	fix_post	2		12.0	72.0	2.5	/experiments/knapen_aot/videos/S_production_ID_4122384.mp4	0.0	288.54082012176514	0.10018181800842285
75	225.42192387580872	fix_pre	0		47.0	73.0	2.5	/experiments/knapen_aot/videos/S_production_ID_4820868.mp4	0.0	288.64100193977356	0.39138317108154297
75	225.80513501167297	response	0	2		73.0	2.5	/experiments/knapen_aot/videos/S_production_ID_4820868.mp4	0.0	289.0242130756378	
75	225.81330704689026	movie	1		175.0	73.0	2.5	/experiments/knapen_aot/videos/S_production_ID_4820868.mp4	0.0	289.0323851108551	2.5084288120269775
75	228.32173585891724	fix_post	2		12.0	73.0	2.5	/experiments/knapen_aot/videos/S_production_ID_4820868.mp4	0.0	291.5408139228821	0.10018301010131836
76	228.42191886901855	fix_pre	0		25.0	74.0	2.5	/experiments/knapen_aot/videos/S_yt-5fnd__rpWeE_396.mp4	0.0	291.6409969329834	0.20812320709228516
76	228.6218810081482	response	0	2		74.0	2.5	/experiments/knapen_aot/videos/S_yt-5fnd__rpWeE_396.mp4	0.0	291.84095907211304	
76	228.63004207611084	movie	1		301.0	74.0	2.5	/experiments/knapen_aot/videos/S_yt-5fnd__rpWeE_396.mp4	0.0	291.8491201400757	2.508237838745117
76	231.13827991485596	fix_post	2		12.0	74.0	2.5	/experiments/knapen_aot/videos/S_yt-5fnd__rpWeE_396.mp4	0.0	294.3573579788208	0.10016608238220215
77	231.23844599723816	fix_pre	0		86.0	75.0	2.5	blank	1.0	294.457524061203	0.7173199653625488
77	231.9468228816986	response	0	2		75.0	2.5	blank	1.0	295.16590094566345	
77	231.9557659626007	movie	1		301.0	75.0	2.5	blank	1.0	295.17484402656555	2.5075690746307373
77	234.46333503723145	fix_post	2		12.0	75.0	2.5	blank	1.0	297.6824131011963	0.09999489784240723
78	234.56332993507385	fix_pre	0		65.0	76.0	2.5	/experiments/knapen_aot/videos/R_S_DV6V38rplag_215.mp4	0.0	297.7824079990387	0.5416340827941895
78	235.09675693511963	response	0	2		76.0	2.5	/experiments/knapen_aot/videos/R_S_DV6V38rplag_215.mp4	0.0	298.3158349990845	
78	235.10496401786804	movie	1		301.0	76.0	2.5	/experiments/knapen_aot/videos/R_S_DV6V38rplag_215.mp4	0.0	298.3240420818329	2.50834584236145
78	237.6133098602295	fix_post	2		12.0	76.0	2.5	/experiments/knapen_aot/videos/R_S_DV6V38rplag_215.mp4	0.0	300.83238792419434	0.10002708435058594
79	237.71333694458008	fix_pre	0		70.0	77.0	2.5	/experiments/knapen_aot/videos/R_S_production_ID_4057155.mp4	0.0	300.9324150085449	0.5832920074462891
79	238.28861498832703	response	0	2		77.0	2.5	/experiments/knapen_aot/videos/R_S_production_ID_4057155.mp4	0.0	301.50769305229187	
79	238.29662895202637	movie	1		206.0	77.0	2.5	/experiments/knapen_aot/videos/R_S_production_ID_4057155.mp4	0.0	301.5157070159912	2.5082790851593018
79	240.80490803718567	fix_post	2		12.0	77.0	2.5	/experiments/knapen_aot/videos/R_S_production_ID_4057155.mp4	0.0	304.0239861011505	0.10009503364562988
80	240.9050030708313	fix_pre	0		36.0	78.0	2.5	/experiments/knapen_aot/videos/S_ILSVRC2015_train_00551000.mp4	0.0	304.12408113479614	0.3006629943847656
80	241.1967499256134	response	0	2		78.0	2.5	/experiments/knapen_aot/videos/S_ILSVRC2015_train_00551000.mp4	0.0	304.41582798957825	
80	241.20566606521606	movie	1		301.0	78.0	2.5	/experiments/knapen_aot/videos/S_ILSVRC2015_train_00551000.mp4	0.0	304.4247441291809	2.507563829421997
80	243.71322989463806	fix_post	2		12.0	78.0	2.5	/experiments/knapen_aot/videos/S_ILSVRC2015_train_00551000.mp4	0.0	306.9323079586029	0.10010409355163574
81	243.8133339881897	fix_pre	0		27.0	79.0	2.5	/experiments/knapen_aot/videos/S_I003_C008_SDR_2K_AVC.mp4	0.0	307.03241205215454	0.2257370948791504
81	244.0302710533142	response	0	2		79.0	2.5	/experiments/knapen_aot/videos/S_I003_C008_SDR_2K_AVC.mp4	0.0	307.24934911727905	
81	244.03907108306885	movie	1		169.0	79.0	2.5	/experiments/knapen_aot/videos/S_I003_C008_SDR_2K_AVC.mp4	0.0	307.2581491470337	2.5075747966766357
81	246.54664587974548	fix_post	2		12.0	79.0	2.5	/experiments/knapen_aot/videos/S_I003_C008_SDR_2K_AVC.mp4	0.0	309.7657239437103	0.09995508193969727
82	246.64660096168518	fix_pre	0		63.0	80.0	2.5	/experiments/knapen_aot/videos/R_S_wc-DgBY_btLlgBC_19.mp4	0.0	309.86567902565	0.5250420570373535
82	247.16341495513916	response	0	2		80.0	2.5	/experiments/knapen_aot/videos/R_S_wc-DgBY_btLlgBC_19.mp4	0.0	310.382493019104	
82	247.17164301872253	movie	1		168.0	80.0	2.5	/experiments/knapen_aot/videos/R_S_wc-DgBY_btLlgBC_19.mp4	0.0	310.3907210826874	2.508314847946167
82	249.6799578666687	fix_post	2		12.0	80.0	2.5	/experiments/knapen_aot/videos/R_S_wc-DgBY_btLlgBC_19.mp4	0.0	312.89903593063354	0.09997320175170898
83	249.7799310684204	fix_pre	0		44.0	81.0	2.5	/experiments/knapen_aot/videos/S_wc-DgBY_btLlgBC_19.mp4	0.0	312.99900913238525	0.36664700508117676
83	250.13836789131165	response	0	2		81.0	2.5	/experiments/knapen_aot/videos/S_wc-DgBY_btLlgBC_19.mp4	0.0	313.3574459552765	
83	250.1465780735016	movie	1		166.0	81.0	2.5	/experiments/knapen_aot/videos/S_wc-DgBY_btLlgBC_19.mp4	0.0	313.36565613746643	2.508344888687134
83	252.65492296218872	fix_post	2		12.0	81.0	2.5	/experiments/knapen_aot/videos/S_wc-DgBY_btLlgBC_19.mp4	0.0	315.87400102615356	0.10000300407409668
84	252.75492596626282	fix_pre	0		57.0	82.0	2.5	/experiments/knapen_aot/videos/R_S_ILSVRC2015_train_00708000.mp4	0.0	315.97400403022766	0.474884033203125
84	253.22172784805298	response	0	2		82.0	2.5	/experiments/knapen_aot/videos/R_S_ILSVRC2015_train_00708000.mp4	0.0	316.4408059120178	
84	253.22980999946594	movie	1		301.0	82.0	2.5	/experiments/knapen_aot/videos/R_S_ILSVRC2015_train_00708000.mp4	0.0	316.4488880634308	2.5086169242858887
84	255.73842692375183	fix_post	2		12.0	82.0	2.5	/experiments/knapen_aot/videos/R_S_ILSVRC2015_train_00708000.mp4	0.0	318.9575049877167	0.09982895851135254
85	255.83825588226318	fix_pre	0		16.0	83.0	2.5	blank	1.0	319.057333946228	0.1333160400390625
85	255.9633710384369	response	0	2		83.0	2.5	blank	1.0	319.18244910240173	
85	255.97157192230225	movie	1		301.0	83.0	2.5	blank	1.0	319.1906499862671	2.508336067199707
85	258.47990798950195	fix_post	2		12.0	83.0	2.5	blank	1.0	321.6989860534668	0.10068798065185547
87	258.5805959701538	stim	0		308.0					321.79967403411865	2.5692849159240723
87	261.13570499420166	response	0	space						324.3547830581665	
