trial_nr	onset	event_type	phase	response	nr_frames	movie_index	movie_duration	movie_file	blank	onset_abs	duration
0	0.15821003913879395	stim	0		44.0					57.999577045440674	0.3675980567932129
0	0.5166571140289307	response	0	space						58.35802412033081	
1	0.5258080959320068	stim	0		121.0					58.36717510223389	1.0075109004974365
1	0.9916579723358154	response	0	space						58.833024978637695	
1	1.3250811100006104	response	0	space						59.16644811630249	
1	1.5333189964294434	stim	1		120.0					59.37468600273132	0.9996731281280518
1	1.9247241020202637	response	1	space						59.766091108322144	
1	2.241266965866089	response	1	space						60.08263397216797	
2	2.532992124557495	fix_pre	0		9.0	0.0	2.5	/experiments/knapen_aot/oldvideos/R_S_yt_R-SwXr0ScjD9o_20.mp4	0.0	60.374359130859375	0.07593894004821777
2	2.5922141075134277	response	0	space		0.0	2.5	/experiments/knapen_aot/oldvideos/R_S_yt_R-SwXr0ScjD9o_20.mp4	0.0	60.43358111381531	
2	2.608931064605713	movie	1		301.0	0.0	2.5	/experiments/knapen_aot/oldvideos/R_S_yt_R-SwXr0ScjD9o_20.mp4	0.0	60.45029807090759	2.507467031478882
2	5.116398096084595	fix_post	2		12.0	0.0	2.5	/experiments/knapen_aot/oldvideos/R_S_yt_R-SwXr0ScjD9o_20.mp4	0.0	62.957765102386475	0.09991788864135742
3	5.216315984725952	fix_pre	0		26.0	1.0	2.5	/experiments/knapen_aot/oldvideos/S_production_ID_4510622.mp4	0.0	63.05768299102783	0.21659398078918457
3	5.425493001937866	response	0	4		1.0	2.5	/experiments/knapen_aot/oldvideos/S_production_ID_4510622.mp4	0.0	63.266860008239746	
3	5.432909965515137	movie	1		165.0	1.0	2.5	/experiments/knapen_aot/oldvideos/S_production_ID_4510622.mp4	0.0	63.27427697181702	2.508331060409546
3	7.941241025924683	fix_post	2		12.0	1.0	2.5	/experiments/knapen_aot/oldvideos/S_production_ID_4510622.mp4	0.0	65.78260803222656	0.09998798370361328
4	8.041229009628296	fix_pre	0		17.0	2.0	2.5	/experiments/knapen_aot/oldvideos/R_S_yt-pKl8nduxfTI_798.mp4	0.0	65.88259601593018	0.14165806770324707
4	8.174570083618164	response	0	4		2.0	2.5	/experiments/knapen_aot/oldvideos/R_S_yt-pKl8nduxfTI_798.mp4	0.0	66.01593708992004	
4	8.182887077331543	movie	1		301.0	2.0	2.5	/experiments/knapen_aot/oldvideos/R_S_yt-pKl8nduxfTI_798.mp4	0.0	66.02425408363342	2.5083348751068115
4	10.691221952438354	fix_post	2		12.0	2.0	2.5	/experiments/knapen_aot/oldvideos/R_S_yt-pKl8nduxfTI_798.mp4	0.0	68.53258895874023	0.09998822212219238
5	10.791210174560547	fix_pre	0		31.0	3.0	2.5	/experiments/knapen_aot/oldvideos/R_S_yt--cAfxH1WnPo_3.mp4	0.0	68.63257718086243	0.25823092460632324
5	11.041367053985596	response	0	4		3.0	2.5	/experiments/knapen_aot/oldvideos/R_S_yt--cAfxH1WnPo_3.mp4	0.0	68.88273406028748	
5	11.04944109916687	movie	1		301.0	3.0	2.5	/experiments/knapen_aot/oldvideos/R_S_yt--cAfxH1WnPo_3.mp4	0.0	68.89080810546875	2.508391857147217
5	13.557832956314087	fix_post	2		12.0	3.0	2.5	/experiments/knapen_aot/oldvideos/R_S_yt--cAfxH1WnPo_3.mp4	0.0	71.39919996261597	0.10008120536804199
6	13.657914161682129	fix_pre	0		9.0	4.0	2.5	/experiments/knapen_aot/oldvideos/R_S_yt-JtR6WZXT2kU_8.mp4	0.0	71.49928116798401	0.07591485977172852
6	13.72464394569397	response	0	4		4.0	2.5	/experiments/knapen_aot/oldvideos/R_S_yt-JtR6WZXT2kU_8.mp4	0.0	71.56601095199585	
6	13.733829021453857	movie	1		301.0	4.0	2.5	/experiments/knapen_aot/oldvideos/R_S_yt-JtR6WZXT2kU_8.mp4	0.0	71.57519602775574	2.5074009895324707
6	16.241230010986328	fix_post	2		12.0	4.0	2.5	/experiments/knapen_aot/oldvideos/R_S_yt-JtR6WZXT2kU_8.mp4	0.0	74.08259701728821	0.10005307197570801
7	16.341283082962036	fix_pre	0		31.0	5.0	2.5	/experiments/knapen_aot/oldvideos/R_S_b2-2.mp4	0.0	74.18265008926392	0.25817108154296875
7	16.59132695198059	response	0	4		5.0	2.5	/experiments/knapen_aot/oldvideos/R_S_b2-2.mp4	0.0	74.43269395828247	
7	16.599454164505005	movie	1		169.0	5.0	2.5	/experiments/knapen_aot/oldvideos/R_S_b2-2.mp4	0.0	74.44082117080688	2.5085108280181885
7	19.107964992523193	fix_post	2		12.0	5.0	2.5	/experiments/knapen_aot/oldvideos/R_S_b2-2.mp4	0.0	76.94933199882507	0.09994196891784668
8	19.20790696144104	fix_pre	0		214.0	6.0	2.5	blank	1.0	77.04927396774292	1.7832980155944824
8	20.98301410675049	response	0	4		6.0	2.5	blank	1.0	78.82438111305237	
8	20.991204977035522	movie	1		301.0	6.0	2.5	blank	1.0	78.8325719833374	2.5083580017089844
8	23.499562978744507	fix_post	2		12.0	6.0	2.5	blank	1.0	81.34092998504639	0.09993815422058105
9	23.599501132965088	fix_pre	0		17.0	7.0	2.5	/experiments/knapen_aot/oldvideos/S_yt-v66td-1WO7w_44.mp4	0.0	81.44086813926697	0.1416778564453125
9	23.73299813270569	response	0	4		7.0	2.5	/experiments/knapen_aot/oldvideos/S_yt-v66td-1WO7w_44.mp4	0.0	81.57436513900757	
9	23.7411789894104	movie	1		301.0	7.0	2.5	/experiments/knapen_aot/oldvideos/S_yt-v66td-1WO7w_44.mp4	0.0	81.58254599571228	2.508310079574585
9	26.249489068984985	fix_post	2		12.0	7.0	2.5	/experiments/knapen_aot/oldvideos/S_yt-v66td-1WO7w_44.mp4	0.0	84.09085607528687	0.10005497932434082
10	26.349544048309326	fix_pre	0		90.0	8.0	2.5	/experiments/knapen_aot/oldvideos/R_S_yt-BFA07F4L4S0_22.mp4	0.0	84.1909110546112	0.7499170303344727
10	27.09132695198059	response	0	4		8.0	2.5	/experiments/knapen_aot/oldvideos/R_S_yt-BFA07F4L4S0_22.mp4	0.0	84.93269395828247	
10	27.0994610786438	movie	1		301.0	8.0	2.5	/experiments/knapen_aot/oldvideos/R_S_yt-BFA07F4L4S0_22.mp4	0.0	84.94082808494568	2.508384943008423
10	29.60784602165222	fix_post	2		12.0	8.0	2.5	/experiments/knapen_aot/oldvideos/R_S_yt-BFA07F4L4S0_22.mp4	0.0	87.4492130279541	0.09997010231018066
11	29.707816123962402	fix_pre	0		18.0	9.0	2.5	/experiments/knapen_aot/oldvideos/R_S_yt-B7ZRYVhfW2U_52.mp4	0.0	87.54918313026428	0.15091490745544434
11	29.849555015563965	response	0	4		9.0	2.5	/experiments/knapen_aot/oldvideos/R_S_yt-B7ZRYVhfW2U_52.mp4	0.0	87.69092202186584	
11	29.858731031417847	movie	1		301.0	9.0	2.5	/experiments/knapen_aot/oldvideos/R_S_yt-B7ZRYVhfW2U_52.mp4	0.0	87.70009803771973	2.507405996322632
11	32.36613702774048	fix_post	2		12.0	9.0	2.5	/experiments/knapen_aot/oldvideos/R_S_yt-B7ZRYVhfW2U_52.mp4	0.0	90.20750403404236	0.0999910831451416
12	32.46612811088562	fix_pre	0		23.0	10.0	2.5	/experiments/knapen_aot/oldvideos/R_S_bing-www_nytimes_com_video_dining_1247468118505_grilled-chicken-breasts-with-herb-butter_html_132.mp4	0.0	90.3074951171875	0.19176101684570312
12	32.649561166763306	response	0	4		10.0	2.5	/experiments/knapen_aot/oldvideos/R_S_bing-www_nytimes_com_video_dining_1247468118505_grilled-chicken-breasts-with-herb-butter_html_132.mp4	0.0	90.49092817306519	
12	32.65788912773132	movie	1		165.0	10.0	2.5	/experiments/knapen_aot/oldvideos/R_S_bing-www_nytimes_com_video_dining_1247468118505_grilled-chicken-breasts-with-herb-butter_html_132.mp4	0.0	90.4992561340332	2.5083229541778564
12	35.16621208190918	fix_post	2		12.0	10.0	2.5	/experiments/knapen_aot/oldvideos/R_S_bing-www_nytimes_com_video_dining_1247468118505_grilled-chicken-breasts-with-herb-butter_html_132.mp4	0.0	93.00757908821106	0.09991002082824707
13	35.26612210273743	fix_pre	0		180.0	11.0	2.5	/experiments/knapen_aot/oldvideos/R_S_ILSVRC2015_train_00251004.mp4	0.0	93.1074891090393	1.499997854232788
13	36.757867097854614	response	0	4		11.0	2.5	/experiments/knapen_aot/oldvideos/R_S_ILSVRC2015_train_00251004.mp4	0.0	94.5992341041565	
13	36.766119956970215	movie	1		301.0	11.0	2.5	/experiments/knapen_aot/oldvideos/R_S_ILSVRC2015_train_00251004.mp4	0.0	94.6074869632721	2.508303165435791
13	39.274423122406006	fix_post	2		12.0	11.0	2.5	/experiments/knapen_aot/oldvideos/R_S_ILSVRC2015_train_00251004.mp4	0.0	97.11579012870789	0.09992098808288574
14	39.37434411048889	fix_pre	0		16.0	12.0	2.5	/experiments/knapen_aot/oldvideos/R_S_production_ID_4510622.mp4	0.0	97.21571111679077	0.13338398933410645
14	39.49958515167236	response	0	4		12.0	2.5	/experiments/knapen_aot/oldvideos/R_S_production_ID_4510622.mp4	0.0	97.34095215797424	
14	39.507728099823	movie	1		167.0	12.0	2.5	/experiments/knapen_aot/oldvideos/R_S_production_ID_4510622.mp4	0.0	97.34909510612488	2.5083649158477783
14	42.016093015670776	fix_post	2		12.0	12.0	2.5	/experiments/knapen_aot/oldvideos/R_S_production_ID_4510622.mp4	0.0	99.85746002197266	0.09999203681945801
14	42.10779094696045	response	2	4		12.0	2.5	/experiments/knapen_aot/oldvideos/R_S_production_ID_4510622.mp4	0.0	99.94915795326233	
15	42.116085052490234	fix_pre	0		634.0	13.0	2.5	/experiments/knapen_aot/oldvideos/R_S_yt-s5YONFy3vb4_46.mp4	0.0	99.95745205879211	5.284024953842163
15	47.39121198654175	response	0	2		13.0	2.5	/experiments/knapen_aot/oldvideos/R_S_yt-s5YONFy3vb4_46.mp4	0.0	105.23257899284363	
15	47.4001100063324	movie	1		301.0	13.0	2.5	/experiments/knapen_aot/oldvideos/R_S_yt-s5YONFy3vb4_46.mp4	0.0	105.24147701263428	2.5076160430908203
15	49.90772604942322	fix_post	2		12.0	13.0	2.5	/experiments/knapen_aot/oldvideos/R_S_yt-s5YONFy3vb4_46.mp4	0.0	107.7490930557251	0.09995698928833008
16	50.00768303871155	fix_pre	0		22.0	14.0	2.5	blank	1.0	107.84905004501343	0.1842341423034668
16	50.1753830909729	response	0	2		14.0	2.5	blank	1.0	108.01675009727478	
16	50.191917181015015	movie	1		301.0	14.0	2.5	blank	1.0	108.0332841873169	2.5073909759521484
16	52.69930815696716	fix_post	2		12.0	14.0	2.5	blank	1.0	110.54067516326904	0.10004782676696777
17	52.79935598373413	fix_pre	0		28.0	15.0	2.5	/experiments/knapen_aot/oldvideos/R_S_production_ID_4154238.mp4	0.0	110.64072299003601	0.23337006568908691
17	53.02445316314697	response	0	2		15.0	2.5	/experiments/knapen_aot/oldvideos/R_S_production_ID_4154238.mp4	0.0	110.86582016944885	
17	53.03272604942322	movie	1		197.0	15.0	2.5	/experiments/knapen_aot/oldvideos/R_S_production_ID_4154238.mp4	0.0	110.8740930557251	2.5083060264587402
17	55.54103207588196	fix_post	2		12.0	15.0	2.5	/experiments/knapen_aot/oldvideos/R_S_production_ID_4154238.mp4	0.0	113.38239908218384	0.10014200210571289
18	55.64117407798767	fix_pre	0		31.0	16.0	2.5	/experiments/knapen_aot/oldvideos/R_S_yt-BlWfK4MkjWA_469.mp4	0.0	113.48254108428955	0.25891900062561035
18	55.891108989715576	response	0	2		16.0	2.5	/experiments/knapen_aot/oldvideos/R_S_yt-BlWfK4MkjWA_469.mp4	0.0	113.73247599601746	
18	55.90009307861328	movie	1		301.0	16.0	2.5	/experiments/knapen_aot/oldvideos/R_S_yt-BlWfK4MkjWA_469.mp4	0.0	113.74146008491516	2.5078179836273193
18	58.4079110622406	fix_post	2		12.0	16.0	2.5	/experiments/knapen_aot/oldvideos/R_S_yt-BlWfK4MkjWA_469.mp4	0.0	116.24927806854248	0.0999610424041748
19	58.507872104644775	fix_pre	0		34.0	17.0	2.5	/experiments/knapen_aot/oldvideos/R_S_yt-uWeU2s6JYyk_10.mp4	0.0	116.34923911094666	0.2831239700317383
19	58.78295612335205	response	0	2		17.0	2.5	/experiments/knapen_aot/oldvideos/R_S_yt-uWeU2s6JYyk_10.mp4	0.0	116.62432312965393	
19	58.790996074676514	movie	1		301.0	17.0	2.5	/experiments/knapen_aot/oldvideos/R_S_yt-uWeU2s6JYyk_10.mp4	0.0	116.6323630809784	2.508327007293701
19	61.299323081970215	fix_post	2		12.0	17.0	2.5	/experiments/knapen_aot/oldvideos/R_S_yt-uWeU2s6JYyk_10.mp4	0.0	119.1406900882721	0.10001492500305176
20	61.39933800697327	fix_pre	0		33.0	18.0	2.5	/experiments/knapen_aot/oldvideos/S_yt-y6JsUW0eSW8_32.mp4	0.0	119.24070501327515	0.27498698234558105
20	61.66610503196716	response	0	2		18.0	2.5	/experiments/knapen_aot/oldvideos/S_yt-y6JsUW0eSW8_32.mp4	0.0	119.50747203826904	
20	61.67432498931885	movie	1		301.0	18.0	2.5	/experiments/knapen_aot/oldvideos/S_yt-y6JsUW0eSW8_32.mp4	0.0	119.51569199562073	2.508334159851074
20	64.18265914916992	fix_post	2		12.0	18.0	2.5	/experiments/knapen_aot/oldvideos/S_yt-y6JsUW0eSW8_32.mp4	0.0	122.0240261554718	0.10000395774841309
21	64.28266310691833	fix_pre	0		19.0	19.0	2.5	/experiments/knapen_aot/oldvideos/S_ILSVRC2015_train_00569007.mp4	0.0	122.12403011322021	0.15908598899841309
21	64.43279600143433	response	0	2		19.0	2.5	/experiments/knapen_aot/oldvideos/S_ILSVRC2015_train_00569007.mp4	0.0	122.2741630077362	
21	64.44174909591675	movie	1		301.0	19.0	2.5	/experiments/knapen_aot/oldvideos/S_ILSVRC2015_train_00569007.mp4	0.0	122.28311610221863	2.507596969604492
21	66.94934606552124	fix_post	2		12.0	19.0	2.5	/experiments/knapen_aot/oldvideos/S_ILSVRC2015_train_00569007.mp4	0.0	124.79071307182312	0.09995102882385254
22	67.04929709434509	fix_pre	0		53.0	20.0	2.5	blank	1.0	124.89066410064697	0.44165897369384766
22	67.48270797729492	response	0	2		20.0	2.5	blank	1.0	125.3240749835968	
22	67.49095606803894	movie	1		301.0	20.0	2.5	blank	1.0	125.33232307434082	2.5083611011505127
22	69.99931716918945	fix_post	2		12.0	20.0	2.5	blank	1.0	127.84068417549133	0.09997797012329102
23	70.09929513931274	fix_pre	0		197.0	21.0	2.5	/experiments/knapen_aot/oldvideos/R_S_wc-lItGMdwvEd_l_7.mp4	0.0	127.94066214561462	1.641624927520752
23	71.7327721118927	response	0	2		21.0	2.5	/experiments/knapen_aot/oldvideos/R_S_wc-lItGMdwvEd_l_7.mp4	0.0	129.57413911819458	
23	71.7409200668335	movie	1		162.0	21.0	2.5	/experiments/knapen_aot/oldvideos/R_S_wc-lItGMdwvEd_l_7.mp4	0.0	129.58228707313538	2.508368968963623
23	74.24928903579712	fix_post	2		12.0	21.0	2.5	/experiments/knapen_aot/oldvideos/R_S_wc-lItGMdwvEd_l_7.mp4	0.0	132.090656042099	0.10003304481506348
24	74.34932208061218	fix_pre	0		92.0	22.0	2.5	/experiments/knapen_aot/oldvideos/S_yt-uWeU2s6JYyk_10.mp4	0.0	132.19068908691406	0.7665998935699463
24	75.10767102241516	response	0	2		22.0	2.5	/experiments/knapen_aot/oldvideos/S_yt-uWeU2s6JYyk_10.mp4	0.0	132.94903802871704	
24	75.11592197418213	movie	1		301.0	22.0	2.5	/experiments/knapen_aot/oldvideos/S_yt-uWeU2s6JYyk_10.mp4	0.0	132.957288980484	2.5087530612945557
24	77.62467503547668	fix_post	2		12.0	22.0	2.5	/experiments/knapen_aot/oldvideos/S_yt-uWeU2s6JYyk_10.mp4	0.0	135.46604204177856	0.09971308708190918
25	77.7243881225586	fix_pre	0		43.0	23.0	2.5	/experiments/knapen_aot/oldvideos/S_production_ID_3735542.mp4	0.0	135.56575512886047	0.3583338260650635
25	78.074383020401	response	0	2		23.0	2.5	/experiments/knapen_aot/oldvideos/S_production_ID_3735542.mp4	0.0	135.91575002670288	
25	78.08272194862366	movie	1		161.0	23.0	2.5	/experiments/knapen_aot/oldvideos/S_production_ID_3735542.mp4	0.0	135.92408895492554	2.5082521438598633
25	80.59097409248352	fix_post	2		12.0	23.0	2.5	/experiments/knapen_aot/oldvideos/S_production_ID_3735542.mp4	0.0	138.4323410987854	0.09997797012329102
26	80.69095206260681	fix_pre	0		160.0	24.0	2.5	/experiments/knapen_aot/oldvideos/R_S_PA_A001_C007_SDR_20190717_SDR_2K_AVC.mp4	0.0	138.5323190689087	1.3338549137115479
26	82.01606702804565	response	0	2		24.0	2.5	/experiments/knapen_aot/oldvideos/R_S_PA_A001_C007_SDR_20190717_SDR_2K_AVC.mp4	0.0	139.85743403434753	
26	82.02480697631836	movie	1		165.0	24.0	2.5	/experiments/knapen_aot/oldvideos/R_S_PA_A001_C007_SDR_20190717_SDR_2K_AVC.mp4	0.0	139.86617398262024	2.507819175720215
26	84.53262615203857	fix_post	2		12.0	24.0	2.5	/experiments/knapen_aot/oldvideos/R_S_PA_A001_C007_SDR_20190717_SDR_2K_AVC.mp4	0.0	142.37399315834045	0.09993481636047363
27	84.63256096839905	fix_pre	0		34.0	25.0	2.5	/experiments/knapen_aot/oldvideos/S_yt-zQnaVApUPH0_14.mp4	0.0	142.47392797470093	0.28324413299560547
27	84.90774202346802	response	0	2		25.0	2.5	/experiments/knapen_aot/oldvideos/S_yt-zQnaVApUPH0_14.mp4	0.0	142.7491090297699	
27	84.91580510139465	movie	1		301.0	25.0	2.5	/experiments/knapen_aot/oldvideos/S_yt-zQnaVApUPH0_14.mp4	0.0	142.75717210769653	2.5084428787231445
27	87.4242479801178	fix_post	2		12.0	25.0	2.5	/experiments/knapen_aot/oldvideos/S_yt-zQnaVApUPH0_14.mp4	0.0	145.26561498641968	0.10022997856140137
28	87.5244779586792	fix_pre	0		79.0	26.0	2.5	blank	1.0	145.36584496498108	0.6580410003662109
28	88.17426204681396	response	0	2		26.0	2.5	blank	1.0	146.01562905311584	
28	88.18251895904541	movie	1		301.0	26.0	2.5	blank	1.0	146.0238859653473	2.508427143096924
28	90.69094610214233	fix_post	2		12.0	26.0	2.5	blank	1.0	148.5323131084442	0.10008788108825684
29	90.79103398323059	fix_pre	0		247.0	27.0	2.5	/experiments/knapen_aot/oldvideos/R_S_yt-hRAqAwRhmwE_58.mp4	0.0	148.63240098953247	2.058148145675659
29	92.84106302261353	response	0	2		27.0	2.5	/experiments/knapen_aot/oldvideos/R_S_yt-hRAqAwRhmwE_58.mp4	0.0	150.6824300289154	
29	92.84918212890625	movie	1		301.0	27.0	2.5	/experiments/knapen_aot/oldvideos/R_S_yt-hRAqAwRhmwE_58.mp4	0.0	150.69054913520813	2.5084099769592285
29	95.35759210586548	fix_post	2		12.0	27.0	2.5	/experiments/knapen_aot/oldvideos/R_S_yt-hRAqAwRhmwE_58.mp4	0.0	153.19895911216736	0.09992384910583496
30	95.45751595497131	fix_pre	0		32.0	28.0	2.5	/experiments/knapen_aot/oldvideos/S_yt-lADkWM79teI_18.mp4	0.0	153.2988829612732	0.26671409606933594
30	95.71595907211304	response	0	2		28.0	2.5	/experiments/knapen_aot/oldvideos/S_yt-lADkWM79teI_18.mp4	0.0	153.55732607841492	
30	95.72423005104065	movie	1		301.0	28.0	2.5	/experiments/knapen_aot/oldvideos/S_yt-lADkWM79teI_18.mp4	0.0	153.56559705734253	2.50833797454834
30	98.23256802558899	fix_post	2		12.0	28.0	2.5	/experiments/knapen_aot/oldvideos/S_yt-lADkWM79teI_18.mp4	0.0	156.07393503189087	0.09999799728393555
31	98.33256602287292	fix_pre	0		79.0	29.0	2.5	/experiments/knapen_aot/oldvideos/R_S_yt-25xuzTBhwPk_109.mp4	0.0	156.1739330291748	0.6582961082458496
31	98.98268508911133	response	0	2		29.0	2.5	/experiments/knapen_aot/oldvideos/R_S_yt-25xuzTBhwPk_109.mp4	0.0	156.8240520954132	
31	98.99086213111877	movie	1		301.0	29.0	2.5	/experiments/knapen_aot/oldvideos/R_S_yt-25xuzTBhwPk_109.mp4	0.0	156.83222913742065	2.508357048034668
31	101.49921917915344	fix_post	2		12.0	29.0	2.5	/experiments/knapen_aot/oldvideos/R_S_yt-25xuzTBhwPk_109.mp4	0.0	159.34058618545532	0.09995388984680176
32	101.59917306900024	fix_pre	0		77.0	30.0	2.5	/experiments/knapen_aot/oldvideos/S_video_inspire_alabama_montgomery_countryside_00007.1080-h264.mp4	0.0	159.44054007530212	0.6416969299316406
32	102.2251980304718	response	0	2		30.0	2.5	/experiments/knapen_aot/oldvideos/S_video_inspire_alabama_montgomery_countryside_00007.1080-h264.mp4	0.0	160.06656503677368	
32	102.24086999893188	movie	1		168.0	30.0	2.5	/experiments/knapen_aot/oldvideos/S_video_inspire_alabama_montgomery_countryside_00007.1080-h264.mp4	0.0	160.08223700523376	2.508319139480591
32	104.74918913841248	fix_post	2		12.0	30.0	2.5	/experiments/knapen_aot/oldvideos/S_video_inspire_alabama_montgomery_countryside_00007.1080-h264.mp4	0.0	162.59055614471436	0.0999610424041748
33	104.84915018081665	fix_pre	0		18.0	31.0	2.5	/experiments/knapen_aot/oldvideos/R_S_yt-9Z9-RT-ysEE_85.mp4	0.0	162.69051718711853	0.14998579025268555
33	104.99089813232422	response	0	2		31.0	2.5	/experiments/knapen_aot/oldvideos/R_S_yt-9Z9-RT-ysEE_85.mp4	0.0	162.8322651386261	
33	104.99913597106934	movie	1		301.0	31.0	2.5	/experiments/knapen_aot/oldvideos/R_S_yt-9Z9-RT-ysEE_85.mp4	0.0	162.84050297737122	2.508350133895874
33	107.50748610496521	fix_post	2		12.0	31.0	2.5	/experiments/knapen_aot/oldvideos/R_S_yt-9Z9-RT-ysEE_85.mp4	0.0	165.3488531112671	0.0999898910522461
34	107.60747599601746	fix_pre	0		97.0	32.0	2.5	/experiments/knapen_aot/oldvideos/R_S_yt_R-lST38EdfMMQ_5.mp4	0.0	165.44884300231934	0.8082671165466309
34	108.40756916999817	response	0	2		32.0	2.5	/experiments/knapen_aot/oldvideos/R_S_yt_R-lST38EdfMMQ_5.mp4	0.0	166.24893617630005	
34	108.41574311256409	movie	1		301.0	32.0	2.5	/experiments/knapen_aot/oldvideos/R_S_yt_R-lST38EdfMMQ_5.mp4	0.0	166.25711011886597	2.5083749294281006
34	110.92411804199219	fix_post	2		12.0	32.0	2.5	/experiments/knapen_aot/oldvideos/R_S_yt_R-lST38EdfMMQ_5.mp4	0.0	168.76548504829407	0.10001897811889648
35	111.02413702011108	fix_pre	0		312.0	33.0	2.5	/experiments/knapen_aot/oldvideos/R_S_yt-tVfYnm81ywo_82.mp4	0.0	168.86550402641296	2.599938154220581
35	113.61593413352966	response	0	2		33.0	2.5	/experiments/knapen_aot/oldvideos/R_S_yt-tVfYnm81ywo_82.mp4	0.0	171.45730113983154	
35	113.62407517433167	movie	1		301.0	33.0	2.5	/experiments/knapen_aot/oldvideos/R_S_yt-tVfYnm81ywo_82.mp4	0.0	171.46544218063354	2.5084328651428223
35	116.13250803947449	fix_post	2		12.0	33.0	2.5	/experiments/knapen_aot/oldvideos/R_S_yt-tVfYnm81ywo_82.mp4	0.0	173.97387504577637	0.1000070571899414
36	116.23251509666443	fix_pre	0		30.0	34.0	2.5	/experiments/knapen_aot/oldvideos/R_S_yt-I9uf7kAccFA_229.mp4	0.0	174.0738821029663	0.2503049373626709
36	116.47430801391602	response	0	2		34.0	2.5	/experiments/knapen_aot/oldvideos/R_S_yt-I9uf7kAccFA_229.mp4	0.0	174.3156750202179	
36	116.4828200340271	movie	1		301.0	34.0	2.5	/experiments/knapen_aot/oldvideos/R_S_yt-I9uf7kAccFA_229.mp4	0.0	174.32418704032898	2.5079381465911865
36	118.99075818061829	fix_post	2		12.0	34.0	2.5	/experiments/knapen_aot/oldvideos/R_S_yt-I9uf7kAccFA_229.mp4	0.0	176.83212518692017	0.1000518798828125
37	119.0908100605011	fix_pre	0		69.0	35.0	2.5	blank	1.0	176.93217706680298	0.5749669075012207
37	119.65763711929321	response	0	2		35.0	2.5	blank	1.0	177.4990041255951	
37	119.66577696800232	movie	1		301.0	35.0	2.5	blank	1.0	177.5071439743042	2.5083630084991455
37	122.17413997650146	fix_post	2		12.0	35.0	2.5	blank	1.0	180.01550698280334	0.10001516342163086
38	122.2741551399231	fix_pre	0		17.0	36.0	2.5	/experiments/knapen_aot/oldvideos/S_yt-isJga8ec5UM_32.mp4	0.0	180.11552214622498	0.14160895347595215
38	122.40760803222656	response	0	4		36.0	2.5	/experiments/knapen_aot/oldvideos/S_yt-isJga8ec5UM_32.mp4	0.0	180.24897503852844	
38	122.41576409339905	movie	1		301.0	36.0	2.5	/experiments/knapen_aot/oldvideos/S_yt-isJga8ec5UM_32.mp4	0.0	180.25713109970093	2.5082900524139404
38	124.92405414581299	fix_post	2		12.0	36.0	2.5	/experiments/knapen_aot/oldvideos/S_yt-isJga8ec5UM_32.mp4	0.0	182.76542115211487	0.10002994537353516
39	125.02408409118652	fix_pre	0		12.0	37.0	2.5	/experiments/knapen_aot/oldvideos/S_ILSVRC2015_train_00572000.mp4	0.0	182.8654510974884	0.09998893737792969
39	125.10849809646606	response	0	4		37.0	2.5	/experiments/knapen_aot/oldvideos/S_ILSVRC2015_train_00572000.mp4	0.0	182.94986510276794	
39	125.12407302856445	movie	1		301.0	37.0	2.5	/experiments/knapen_aot/oldvideos/S_ILSVRC2015_train_00572000.mp4	0.0	182.96544003486633	2.508355140686035
39	127.63242816925049	fix_post	2		12.0	37.0	2.5	/experiments/knapen_aot/oldvideos/S_ILSVRC2015_train_00572000.mp4	0.0	185.47379517555237	0.1003727912902832
40	127.73280096054077	fix_pre	0		3.0	38.0	2.5	/experiments/knapen_aot/oldvideos/S_yt-pKl8nduxfTI_798.mp4	0.0	185.57416796684265	0.02463507652282715
40	127.74920201301575	response	0	4		38.0	2.5	/experiments/knapen_aot/oldvideos/S_yt-pKl8nduxfTI_798.mp4	0.0	185.59056901931763	
40	127.7574360370636	movie	1		301.0	38.0	2.5	/experiments/knapen_aot/oldvideos/S_yt-pKl8nduxfTI_798.mp4	0.0	185.59880304336548	2.508315086364746
40	130.26575112342834	fix_post	2		12.0	38.0	2.5	/experiments/knapen_aot/oldvideos/S_yt-pKl8nduxfTI_798.mp4	0.0	188.10711812973022	0.09994983673095703
41	130.3657009601593	fix_pre	0		11.0	39.0	2.5	/experiments/knapen_aot/oldvideos/S_yt-xWCPbUQc-vg_7.mp4	0.0	188.20706796646118	0.0916750431060791
41	130.4491629600525	response	0	4		39.0	2.5	/experiments/knapen_aot/oldvideos/S_yt-xWCPbUQc-vg_7.mp4	0.0	188.29052996635437	
41	130.45737600326538	movie	1		301.0	39.0	2.5	/experiments/knapen_aot/oldvideos/S_yt-xWCPbUQc-vg_7.mp4	0.0	188.29874300956726	2.5082550048828125
41	132.9656310081482	fix_post	2		12.0	39.0	2.5	/experiments/knapen_aot/oldvideos/S_yt-xWCPbUQc-vg_7.mp4	0.0	190.80699801445007	0.1001291275024414
42	133.06576013565063	fix_pre	0		26.0	40.0	2.5	/experiments/knapen_aot/oldvideos/R_S_yt_R-SwXr0ScjD9o_20.mp4	0.0	190.90712714195251	0.2166149616241455
42	133.27411794662476	response	0	4		40.0	2.5	/experiments/knapen_aot/oldvideos/R_S_yt_R-SwXr0ScjD9o_20.mp4	0.0	191.11548495292664	
42	133.28237509727478	movie	1		301.0	40.0	2.5	/experiments/knapen_aot/oldvideos/R_S_yt_R-SwXr0ScjD9o_20.mp4	0.0	191.12374210357666	2.508312940597534
42	135.79068803787231	fix_post	2		12.0	40.0	2.5	/experiments/knapen_aot/oldvideos/R_S_yt_R-SwXr0ScjD9o_20.mp4	0.0	193.6320550441742	0.10025596618652344
43	135.89094400405884	fix_pre	0		153.0	41.0	2.5	blank	1.0	193.73231101036072	1.274764060974121
43	137.1574981212616	response	0	4		41.0	2.5	blank	1.0	194.99886512756348	
43	137.16570806503296	movie	1		301.0	41.0	2.5	blank	1.0	195.00707507133484	2.5083839893341064
43	139.67409205436707	fix_post	2		12.0	41.0	2.5	blank	1.0	197.51545906066895	0.10017204284667969
44	139.77426409721375	fix_pre	0		25.0	42.0	2.5	/experiments/knapen_aot/oldvideos/S_yt-1CV2cYtUlxE_57.mp4	0.0	197.61563110351562	0.20824098587036133
44	139.97415900230408	response	0	4		42.0	2.5	/experiments/knapen_aot/oldvideos/S_yt-1CV2cYtUlxE_57.mp4	0.0	197.81552600860596	
44	139.9825050830841	movie	1		301.0	42.0	2.5	/experiments/knapen_aot/oldvideos/S_yt-1CV2cYtUlxE_57.mp4	0.0	197.823872089386	2.5083529949188232
44	142.49085807800293	fix_post	2		12.0	42.0	2.5	/experiments/knapen_aot/oldvideos/S_yt-1CV2cYtUlxE_57.mp4	0.0	200.3322250843048	0.09981799125671387
45	142.59067606925964	fix_pre	0		16.0	43.0	2.5	/experiments/knapen_aot/oldvideos/S_yt-AbJBxqEYoMg_27.mp4	0.0	200.43204307556152	0.1333460807800293
45	142.71580815315247	response	0	4		43.0	2.5	/experiments/knapen_aot/oldvideos/S_yt-AbJBxqEYoMg_27.mp4	0.0	200.55717515945435	
45	142.72402215003967	movie	1		301.0	43.0	2.5	/experiments/knapen_aot/oldvideos/S_yt-AbJBxqEYoMg_27.mp4	0.0	200.56538915634155	2.508316993713379
45	145.23233914375305	fix_post	2		12.0	43.0	2.5	/experiments/knapen_aot/oldvideos/S_yt-AbJBxqEYoMg_27.mp4	0.0	203.07370615005493	0.10002493858337402
46	145.33236408233643	fix_pre	0		187.0	44.0	2.5	/experiments/knapen_aot/oldvideos/S_ILSVRC2015_train_00682007.mp4	0.0	203.1737310886383	1.5582969188690186
46	146.88249397277832	response	0	4		44.0	2.5	/experiments/knapen_aot/oldvideos/S_ILSVRC2015_train_00682007.mp4	0.0	204.7238609790802	
46	146.89066100120544	movie	1		301.0	44.0	2.5	/experiments/knapen_aot/oldvideos/S_ILSVRC2015_train_00682007.mp4	0.0	204.73202800750732	2.5089640617370605
46	149.3996250629425	fix_post	2		12.0	44.0	2.5	/experiments/knapen_aot/oldvideos/S_ILSVRC2015_train_00682007.mp4	0.0	207.24099206924438	0.09936904907226562
47	149.49899411201477	fix_pre	0		45.0	45.0	2.5	/experiments/knapen_aot/oldvideos/R_S_pexels-c-technical-6763571.mp4	0.0	207.34036111831665	0.37496185302734375
47	149.86580395698547	response	0	4		45.0	2.5	/experiments/knapen_aot/oldvideos/R_S_pexels-c-technical-6763571.mp4	0.0	207.70717096328735	
47	149.87395596504211	movie	1		198.0	45.0	2.5	/experiments/knapen_aot/oldvideos/R_S_pexels-c-technical-6763571.mp4	0.0	207.715322971344	2.5084311962127686
47	152.38238716125488	fix_post	2		12.0	45.0	2.5	/experiments/knapen_aot/oldvideos/R_S_pexels-c-technical-6763571.mp4	0.0	210.22375416755676	0.09991288185119629
47	152.4657051563263	response	2	4		45.0	2.5	/experiments/knapen_aot/oldvideos/R_S_pexels-c-technical-6763571.mp4	0.0	210.30707216262817	
48	152.48230004310608	fix_pre	0		175.0	46.0	2.5	/experiments/knapen_aot/oldvideos/S_yt-SjPYdaUBi7A_37.mp4	0.0	210.32366704940796	1.4584450721740723
48	153.93242406845093	response	0	4		46.0	2.5	/experiments/knapen_aot/oldvideos/S_yt-SjPYdaUBi7A_37.mp4	0.0	211.7737910747528	
48	153.94074511528015	movie	1		301.0	46.0	2.5	/experiments/knapen_aot/oldvideos/S_yt-SjPYdaUBi7A_37.mp4	0.0	211.78211212158203	2.508143901824951
48	156.4488890171051	fix_post	2		12.0	46.0	2.5	/experiments/knapen_aot/oldvideos/S_yt-SjPYdaUBi7A_37.mp4	0.0	214.29025602340698	0.10010814666748047
49	156.54899716377258	fix_pre	0		29.0	47.0	2.5	blank	1.0	214.39036417007446	0.2416698932647705
49	156.78241109848022	response	0	2		47.0	2.5	blank	1.0	214.6237781047821	
49	156.79066705703735	movie	1		301.0	47.0	2.5	blank	1.0	214.63203406333923	2.5082719326019287
49	159.29893898963928	fix_post	2		12.0	47.0	2.5	blank	1.0	217.14030599594116	0.10015511512756348
50	159.39909410476685	fix_pre	0		135.0	48.0	2.5	/experiments/knapen_aot/oldvideos/R_S_nvbAwZOKBS8_23.mp4	0.0	217.24046111106873	1.1249339580535889
50	160.51565504074097	response	0	2		48.0	2.5	/experiments/knapen_aot/oldvideos/R_S_nvbAwZOKBS8_23.mp4	0.0	218.35702204704285	
50	160.52402806282043	movie	1		301.0	48.0	2.5	/experiments/knapen_aot/oldvideos/R_S_nvbAwZOKBS8_23.mp4	0.0	218.36539506912231	2.5082390308380127
50	163.03226709365845	fix_post	2		12.0	48.0	2.5	/experiments/knapen_aot/oldvideos/R_S_nvbAwZOKBS8_23.mp4	0.0	220.87363409996033	0.09997892379760742
51	163.13224601745605	fix_pre	0		18.0	49.0	2.5	/experiments/knapen_aot/oldvideos/R_S_yt-VfASxEzDrvc_145.mp4	0.0	220.97361302375793	0.14999103546142578
51	163.27400612831116	response	0	2		49.0	2.5	/experiments/knapen_aot/oldvideos/R_S_yt-VfASxEzDrvc_145.mp4	0.0	221.11537313461304	
51	163.28223705291748	movie	1		301.0	49.0	2.5	/experiments/knapen_aot/oldvideos/R_S_yt-VfASxEzDrvc_145.mp4	0.0	221.12360405921936	2.508359909057617
51	165.7905969619751	fix_post	2		12.0	49.0	2.5	/experiments/knapen_aot/oldvideos/R_S_yt-VfASxEzDrvc_145.mp4	0.0	223.63196396827698	0.09997200965881348
52	165.8905689716339	fix_pre	0		81.0	50.0	2.5	/experiments/knapen_aot/oldvideos/S_yt-8vm83GUgYxI_1.mp4	0.0	223.7319359779358	0.6750891208648682
52	166.55740213394165	response	0	2		50.0	2.5	/experiments/knapen_aot/oldvideos/S_yt-8vm83GUgYxI_1.mp4	0.0	224.39876914024353	
52	166.56565809249878	movie	1		301.0	50.0	2.5	/experiments/knapen_aot/oldvideos/S_yt-8vm83GUgYxI_1.mp4	0.0	224.40702509880066	2.5082650184631348
52	169.0739231109619	fix_post	2		12.0	50.0	2.5	/experiments/knapen_aot/oldvideos/S_yt-8vm83GUgYxI_1.mp4	0.0	226.9152901172638	0.09999203681945801
53	169.17391514778137	fix_pre	0		213.0	51.0	2.5	/experiments/knapen_aot/oldvideos/S_production_ID_3967181.mp4	0.0	227.01528215408325	1.775048017501831
53	170.94076895713806	response	0	2		51.0	2.5	/experiments/knapen_aot/oldvideos/S_production_ID_3967181.mp4	0.0	228.78213596343994	
53	170.9489631652832	movie	1		193.0	51.0	2.5	/experiments/knapen_aot/oldvideos/S_production_ID_3967181.mp4	0.0	228.79033017158508	2.5082719326019287
53	173.45723509788513	fix_post	2		12.0	51.0	2.5	/experiments/knapen_aot/oldvideos/S_production_ID_3967181.mp4	0.0	231.298602104187	0.0999748706817627
54	173.5572099685669	fix_pre	0		19.0	52.0	2.5	/experiments/knapen_aot/oldvideos/S_ILSVRC2015_train_00768000.mp4	0.0	231.39857697486877	0.1583240032196045
54	173.70723509788513	response	0	2		52.0	2.5	/experiments/knapen_aot/oldvideos/S_ILSVRC2015_train_00768000.mp4	0.0	231.548602104187	
54	173.7155339717865	movie	1		301.0	52.0	2.5	/experiments/knapen_aot/oldvideos/S_ILSVRC2015_train_00768000.mp4	0.0	231.55690097808838	2.5083470344543457
54	176.22388100624084	fix_post	2		12.0	52.0	2.5	/experiments/knapen_aot/oldvideos/S_ILSVRC2015_train_00768000.mp4	0.0	234.06524801254272	0.09999513626098633
55	176.32387614250183	fix_pre	0		24.0	53.0	2.5	/experiments/knapen_aot/oldvideos/R_S_pexels-mart-production-7698693.mp4	0.0	234.1652431488037	0.20000696182250977
55	176.51568913459778	response	0	2		53.0	2.5	/experiments/knapen_aot/oldvideos/R_S_pexels-mart-production-7698693.mp4	0.0	234.35705614089966	
55	176.52388310432434	movie	1		200.0	53.0	2.5	/experiments/knapen_aot/oldvideos/R_S_pexels-mart-production-7698693.mp4	0.0	234.36525011062622	2.5083558559417725
55	179.0322389602661	fix_post	2		12.0	53.0	2.5	/experiments/knapen_aot/oldvideos/R_S_pexels-mart-production-7698693.mp4	0.0	236.873605966568	0.09995222091674805
56	179.13219118118286	fix_pre	0		16.0	54.0	2.5	blank	1.0	236.97355818748474	0.1333608627319336
56	179.24978399276733	response	0	2		54.0	2.5	blank	1.0	237.0911509990692	
56	179.2655520439148	movie	1		301.0	54.0	2.5	blank	1.0	237.10691905021667	2.508388042449951
56	181.77394008636475	fix_post	2		12.0	54.0	2.5	blank	1.0	239.61530709266663	0.10013389587402344
57	181.87407398223877	fix_pre	0		24.0	55.0	2.5	/experiments/knapen_aot/oldvideos/R_S_yt-0xzYSBvVfYM_197.mp4	0.0	239.71544098854065	0.19976496696472168
57	182.0656361579895	response	0	2		55.0	2.5	/experiments/knapen_aot/oldvideos/R_S_yt-0xzYSBvVfYM_197.mp4	0.0	239.90700316429138	
57	182.0738389492035	movie	1		301.0	55.0	2.5	/experiments/knapen_aot/oldvideos/R_S_yt-0xzYSBvVfYM_197.mp4	0.0	239.91520595550537	2.5083930492401123
57	184.5822319984436	fix_post	2		12.0	55.0	2.5	/experiments/knapen_aot/oldvideos/R_S_yt-0xzYSBvVfYM_197.mp4	0.0	242.42359900474548	0.09990501403808594
58	184.6821370124817	fix_pre	0		30.0	56.0	2.5	/experiments/knapen_aot/oldvideos/S_pexels-rodnae-productions-5544703.mp4	0.0	242.52350401878357	0.2500190734863281
58	184.92395997047424	response	0	2		56.0	2.5	/experiments/knapen_aot/oldvideos/S_pexels-rodnae-productions-5544703.mp4	0.0	242.76532697677612	
58	184.93215608596802	movie	1		170.0	56.0	2.5	/experiments/knapen_aot/oldvideos/S_pexels-rodnae-productions-5544703.mp4	0.0	242.7735230922699	2.508410930633545
58	187.44056701660156	fix_post	2		12.0	56.0	2.5	/experiments/knapen_aot/oldvideos/S_pexels-rodnae-productions-5544703.mp4	0.0	245.28193402290344	0.09995913505554199
59	187.5405261516571	fix_pre	0		26.0	57.0	2.5	/experiments/knapen_aot/oldvideos/S_ILSVRC2015_train_00538000.mp4	0.0	245.38189315795898	0.21668195724487305
59	187.74893498420715	response	0	2		57.0	2.5	/experiments/knapen_aot/oldvideos/S_ILSVRC2015_train_00538000.mp4	0.0	245.59030199050903	
59	187.75720810890198	movie	1		301.0	57.0	2.5	/experiments/knapen_aot/oldvideos/S_ILSVRC2015_train_00538000.mp4	0.0	245.59857511520386	2.508340835571289
59	188.70725202560425	response	1	2		57.0	2.5	/experiments/knapen_aot/oldvideos/S_ILSVRC2015_train_00538000.mp4	0.0	246.54861903190613	
59	190.26554894447327	fix_post	2		12.0	57.0	2.5	/experiments/knapen_aot/oldvideos/S_ILSVRC2015_train_00538000.mp4	0.0	248.10691595077515	0.0998542308807373
60	190.365403175354	fix_pre	0		12.0	58.0	2.5	/experiments/knapen_aot/oldvideos/S_pexels-kindel-media-8165572.mp4	0.0	248.20677018165588	0.10001087188720703
60	190.45727515220642	response	0	4		58.0	2.5	/experiments/knapen_aot/oldvideos/S_pexels-kindel-media-8165572.mp4	0.0	248.2986421585083	
60	190.4654140472412	movie	1		169.0	58.0	2.5	/experiments/knapen_aot/oldvideos/S_pexels-kindel-media-8165572.mp4	0.0	248.3067810535431	2.508358955383301
60	192.9737730026245	fix_post	2		12.0	58.0	2.5	/experiments/knapen_aot/oldvideos/S_pexels-kindel-media-8165572.mp4	0.0	250.8151400089264	0.0999610424041748
61	193.0737340450287	fix_pre	0		22.0	59.0	2.5	/experiments/knapen_aot/oldvideos/R_S_ILSVRC2015_train_00001009.mp4	0.0	250.91510105133057	0.18339300155639648
61	193.24883794784546	response	0	4		59.0	2.5	/experiments/knapen_aot/oldvideos/R_S_ILSVRC2015_train_00001009.mp4	0.0	251.09020495414734	
61	193.25712704658508	movie	1		301.0	59.0	2.5	/experiments/knapen_aot/oldvideos/R_S_ILSVRC2015_train_00001009.mp4	0.0	251.09849405288696	2.5083510875701904
61	195.76547813415527	fix_post	2		12.0	59.0	2.5	/experiments/knapen_aot/oldvideos/R_S_ILSVRC2015_train_00001009.mp4	0.0	253.60684514045715	0.09997797012329102
62	195.86545610427856	fix_pre	0		66.0	60.0	2.5	/experiments/knapen_aot/oldvideos/S_comp_LA_A006_C004_v01_SDR_FINAL_PS_20180730_SDR_2K_AVC.mp4	0.0	253.70682311058044	0.5499858856201172
62	196.40722703933716	response	0	4		60.0	2.5	/experiments/knapen_aot/oldvideos/S_comp_LA_A006_C004_v01_SDR_FINAL_PS_20180730_SDR_2K_AVC.mp4	0.0	254.24859404563904	
62	196.41544198989868	movie	1		171.0	60.0	2.5	/experiments/knapen_aot/oldvideos/S_comp_LA_A006_C004_v01_SDR_FINAL_PS_20180730_SDR_2K_AVC.mp4	0.0	254.25680899620056	2.5083911418914795
62	198.92383313179016	fix_post	2		12.0	60.0	2.5	/experiments/knapen_aot/oldvideos/S_comp_LA_A006_C004_v01_SDR_FINAL_PS_20180730_SDR_2K_AVC.mp4	0.0	256.76520013809204	0.10000801086425781
62	198.97379398345947	response	2	2		60.0	2.5	/experiments/knapen_aot/oldvideos/S_comp_LA_A006_C004_v01_SDR_FINAL_PS_20180730_SDR_2K_AVC.mp4	0.0	256.81516098976135	
63	199.02384114265442	fix_pre	0		95.0	61.0	2.5	blank	1.0	256.8652081489563	0.7915599346160889
63	199.8072350025177	response	0	2		61.0	2.5	blank	1.0	257.6486020088196	
63	199.8154010772705	movie	1		301.0	61.0	2.5	blank	1.0	257.6567680835724	2.508404016494751
63	202.32380509376526	fix_post	2		12.0	61.0	2.5	blank	1.0	260.16517210006714	0.09995293617248535
64	202.42375802993774	fix_pre	0		22.0	62.0	2.5	/experiments/knapen_aot/oldvideos/S_yt--cAfxH1WnPo_3.mp4	0.0	260.2651250362396	0.18331503868103027
64	202.59881711006165	response	0	4		62.0	2.5	/experiments/knapen_aot/oldvideos/S_yt--cAfxH1WnPo_3.mp4	0.0	260.4401841163635	
64	202.60707306861877	movie	1		301.0	62.0	2.5	/experiments/knapen_aot/oldvideos/S_yt--cAfxH1WnPo_3.mp4	0.0	260.44844007492065	2.5083799362182617
64	205.11545300483704	fix_post	2		12.0	62.0	2.5	/experiments/knapen_aot/oldvideos/S_yt--cAfxH1WnPo_3.mp4	0.0	262.9568200111389	0.09996914863586426
65	205.2154221534729	fix_pre	0		20.0	63.0	2.5	/experiments/knapen_aot/oldvideos/S_yt-9Z9-RT-ysEE_85.mp4	0.0	263.0567891597748	0.16665196418762207
65	205.3739140033722	response	0	2		63.0	2.5	/experiments/knapen_aot/oldvideos/S_yt-9Z9-RT-ysEE_85.mp4	0.0	263.2152810096741	
65	205.38207411766052	movie	1		301.0	63.0	2.5	/experiments/knapen_aot/oldvideos/S_yt-9Z9-RT-ysEE_85.mp4	0.0	263.2234411239624	2.5082998275756836
65	207.8903739452362	fix_post	2		12.0	63.0	2.5	/experiments/knapen_aot/oldvideos/S_yt-9Z9-RT-ysEE_85.mp4	0.0	265.7317409515381	0.10001921653747559
66	207.99039316177368	fix_pre	0		20.0	64.0	2.5	/experiments/knapen_aot/oldvideos/S_yt-8fQ9LaF8U10_382.mp4	0.0	265.83176016807556	0.16669893264770508
66	208.14881801605225	response	0	2		64.0	2.5	/experiments/knapen_aot/oldvideos/S_yt-8fQ9LaF8U10_382.mp4	0.0	265.9901850223541	
66	208.1570920944214	movie	1		301.0	64.0	2.5	/experiments/knapen_aot/oldvideos/S_yt-8fQ9LaF8U10_382.mp4	0.0	265.99845910072327	2.50832200050354
66	210.66541409492493	fix_post	2		12.0	64.0	2.5	/experiments/knapen_aot/oldvideos/S_yt-8fQ9LaF8U10_382.mp4	0.0	268.5067811012268	0.10019588470458984
67	210.76560997962952	fix_pre	0		22.0	65.0	2.5	/experiments/knapen_aot/oldvideos/S_wc-lItGMdwvEd_l_7.mp4	0.0	268.6069769859314	0.18306612968444824
67	210.9405860900879	response	0	4		65.0	2.5	/experiments/knapen_aot/oldvideos/S_wc-lItGMdwvEd_l_7.mp4	0.0	268.78195309638977	
67	210.94867610931396	movie	1		162.0	65.0	2.5	/experiments/knapen_aot/oldvideos/S_wc-lItGMdwvEd_l_7.mp4	0.0	268.79004311561584	2.508375883102417
67	213.45705199241638	fix_post	2		12.0	65.0	2.5	/experiments/knapen_aot/oldvideos/S_wc-lItGMdwvEd_l_7.mp4	0.0	271.29841899871826	0.1000211238861084
68	213.5570731163025	fix_pre	0		18.0	66.0	2.5	/experiments/knapen_aot/oldvideos/R_S_yt-0xzYSBvVfYM_197.mp4	0.0	271.39844012260437	0.1499159336090088
68	213.69883799552917	response	0	2		66.0	2.5	/experiments/knapen_aot/oldvideos/R_S_yt-0xzYSBvVfYM_197.mp4	0.0	271.54020500183105	
68	213.7069890499115	movie	1		301.0	66.0	2.5	/experiments/knapen_aot/oldvideos/R_S_yt-0xzYSBvVfYM_197.mp4	0.0	271.5483560562134	2.5084121227264404
68	216.21540117263794	fix_post	2		12.0	66.0	2.5	/experiments/knapen_aot/oldvideos/R_S_yt-0xzYSBvVfYM_197.mp4	0.0	274.0567681789398	0.10001492500305176
69	216.315416097641	fix_pre	0		165.0	67.0	2.5	/experiments/knapen_aot/oldvideos/R_S_yt-BCFGCganiuE_8.mp4	0.0	274.15678310394287	1.37506103515625
69	217.682049036026	response	0	4		67.0	2.5	/experiments/knapen_aot/oldvideos/R_S_yt-BCFGCganiuE_8.mp4	0.0	275.5234160423279	
69	217.69047713279724	movie	1		301.0	67.0	2.5	/experiments/knapen_aot/oldvideos/R_S_yt-BCFGCganiuE_8.mp4	0.0	275.5318441390991	2.5081899166107178
69	220.19866704940796	fix_post	2		12.0	67.0	2.5	/experiments/knapen_aot/oldvideos/R_S_yt-BCFGCganiuE_8.mp4	0.0	278.04003405570984	0.09997296333312988
70	220.2986400127411	fix_pre	0		91.0	68.0	2.5	blank	1.0	278.14000701904297	0.7583789825439453
70	221.04880809783936	response	0	2		68.0	2.5	blank	1.0	278.89017510414124	
70	221.05701899528503	movie	1		301.0	68.0	2.5	blank	1.0	278.8983860015869	2.50832200050354
70	223.56534099578857	fix_post	2		12.0	68.0	2.5	blank	1.0	281.40670800209045	0.09999704360961914
71	223.6653380393982	fix_pre	0		42.0	69.0	2.5	/experiments/knapen_aot/oldvideos/R_S_yt-VJ65ukWmdxQ_193.mp4	0.0	281.5067050457001	0.34994006156921387
71	223.9995720386505	response	0	4		69.0	2.5	/experiments/knapen_aot/oldvideos/R_S_yt-VJ65ukWmdxQ_193.mp4	0.0	281.8409390449524	
71	224.0152781009674	movie	1		301.0	69.0	2.5	/experiments/knapen_aot/oldvideos/R_S_yt-VJ65ukWmdxQ_193.mp4	0.0	281.8566451072693	2.5084359645843506
71	226.52371406555176	fix_post	2		12.0	69.0	2.5	/experiments/knapen_aot/oldvideos/R_S_yt-VJ65ukWmdxQ_193.mp4	0.0	284.36508107185364	0.09984898567199707
72	226.62356305122375	fix_pre	0		41.0	70.0	2.5	/experiments/knapen_aot/oldvideos/R_S_yt-JtR6WZXT2kU_8.mp4	0.0	284.46493005752563	0.34195804595947266
72	226.9571340084076	response	0	2		70.0	2.5	/experiments/knapen_aot/oldvideos/R_S_yt-JtR6WZXT2kU_8.mp4	0.0	284.7985010147095	
72	226.96552109718323	movie	1		301.0	70.0	2.5	/experiments/knapen_aot/oldvideos/R_S_yt-JtR6WZXT2kU_8.mp4	0.0	284.8068881034851	2.508159875869751
72	229.47368097305298	fix_post	2		12.0	70.0	2.5	/experiments/knapen_aot/oldvideos/R_S_yt-JtR6WZXT2kU_8.mp4	0.0	287.31504797935486	0.0999140739440918
73	229.57359504699707	fix_pre	0		23.0	71.0	2.5	/experiments/knapen_aot/oldvideos/S_dwi2oPzQ1Wo_48.mp4	0.0	287.41496205329895	0.19167304039001465
73	229.7569899559021	response	0	2		71.0	2.5	/experiments/knapen_aot/oldvideos/S_dwi2oPzQ1Wo_48.mp4	0.0	287.598356962204	
73	229.76526808738708	movie	1		301.0	71.0	2.5	/experiments/knapen_aot/oldvideos/S_dwi2oPzQ1Wo_48.mp4	0.0	287.60663509368896	2.508419990539551
73	232.27368807792664	fix_post	2		12.0	71.0	2.5	/experiments/knapen_aot/oldvideos/S_dwi2oPzQ1Wo_48.mp4	0.0	290.1150550842285	0.09998798370361328
74	232.37367606163025	fix_pre	0		37.0	72.0	2.5	/experiments/knapen_aot/oldvideos/S_comp_A001_C001_120530_v04_SDR_FINAL_20180706_SDR_2K_AVC.mp4	0.0	290.21504306793213	0.30951595306396484
74	232.6737241744995	response	0	4		72.0	2.5	/experiments/knapen_aot/oldvideos/S_comp_A001_C001_120530_v04_SDR_FINAL_20180706_SDR_2K_AVC.mp4	0.0	290.5150911808014	
74	232.6831920146942	movie	1		169.0	72.0	2.5	/experiments/knapen_aot/oldvideos/S_comp_A001_C001_120530_v04_SDR_FINAL_20180706_SDR_2K_AVC.mp4	0.0	290.5245590209961	2.507097005844116
74	235.19028902053833	fix_post	2		12.0	72.0	2.5	/experiments/knapen_aot/oldvideos/S_comp_A001_C001_120530_v04_SDR_FINAL_20180706_SDR_2K_AVC.mp4	0.0	293.0316560268402	0.10002493858337402
75	235.2903139591217	fix_pre	0		206.0	73.0	2.5	/experiments/knapen_aot/oldvideos/S_ILSVRC2015_train_00545000.mp4	0.0	293.1316809654236	1.7165911197662354
75	236.99881601333618	response	0	4		73.0	2.5	/experiments/knapen_aot/oldvideos/S_ILSVRC2015_train_00545000.mp4	0.0	294.84018301963806	
75	237.00690507888794	movie	1		301.0	73.0	2.5	/experiments/knapen_aot/oldvideos/S_ILSVRC2015_train_00545000.mp4	0.0	294.8482720851898	2.5083870887756348
75	239.51529216766357	fix_post	2		12.0	73.0	2.5	/experiments/knapen_aot/oldvideos/S_ILSVRC2015_train_00545000.mp4	0.0	297.35665917396545	0.10000395774841309
76	239.615296125412	fix_pre	0		53.0	74.0	2.5	/experiments/knapen_aot/oldvideos/R_S_S005_C015_SDR_2K_AVC.mp4	0.0	297.45666313171387	0.4427509307861328
76	240.04872012138367	response	0	4		74.0	2.5	/experiments/knapen_aot/oldvideos/R_S_S005_C015_SDR_2K_AVC.mp4	0.0	297.89008712768555	
76	240.05804705619812	movie	1		171.0	74.0	2.5	/experiments/knapen_aot/oldvideos/R_S_S005_C015_SDR_2K_AVC.mp4	0.0	297.8994140625	2.50730299949646
76	242.56535005569458	fix_post	2		12.0	74.0	2.5	/experiments/knapen_aot/oldvideos/R_S_S005_C015_SDR_2K_AVC.mp4	0.0	300.40671706199646	0.0999751091003418
77	242.66532516479492	fix_pre	0		153.0	75.0	2.5	blank	1.0	300.5066921710968	1.2749078273773193
77	243.92458605766296	response	0	4		75.0	2.5	blank	1.0	301.76595306396484	
77	243.94023299217224	movie	1		301.0	75.0	2.5	blank	1.0	301.7815999984741	2.5083811283111572
77	246.4486141204834	fix_post	2		12.0	75.0	2.5	blank	1.0	304.2899811267853	0.10003185272216797
78	246.54864597320557	fix_pre	0		62.0	76.0	2.5	/experiments/knapen_aot/oldvideos/R_S_pexels-rodnae-productions-5544703.mp4	0.0	304.39001297950745	0.5165650844573975
78	247.04959917068481	response	0	4		76.0	2.5	/experiments/knapen_aot/oldvideos/R_S_pexels-rodnae-productions-5544703.mp4	0.0	304.8909661769867	
78	247.06521105766296	movie	1		166.0	76.0	2.5	/experiments/knapen_aot/oldvideos/R_S_pexels-rodnae-productions-5544703.mp4	0.0	304.90657806396484	2.5083460807800293
78	249.573557138443	fix_post	2		12.0	76.0	2.5	/experiments/knapen_aot/oldvideos/R_S_pexels-rodnae-productions-5544703.mp4	0.0	307.4149241447449	0.1000058650970459
79	249.67356300354004	fix_pre	0		1.0	77.0	2.5	/experiments/knapen_aot/oldvideos/R_S_yt-uXDyvrm0Tw0_17.mp4	0.0	307.5149300098419	0.009415149688720703
79	249.6751651763916	response	0	4		77.0	2.5	/experiments/knapen_aot/oldvideos/R_S_yt-uXDyvrm0Tw0_17.mp4	0.0	307.5165321826935	
79	249.68297815322876	movie	1		301.0	77.0	2.5	/experiments/knapen_aot/oldvideos/R_S_yt-uXDyvrm0Tw0_17.mp4	0.0	307.52434515953064	2.5072169303894043
79	252.19019508361816	fix_post	2		12.0	77.0	2.5	/experiments/knapen_aot/oldvideos/R_S_yt-uXDyvrm0Tw0_17.mp4	0.0	310.03156208992004	0.10006093978881836
80	252.29025602340698	fix_pre	0		9.0	78.0	2.5	/experiments/knapen_aot/oldvideos/R_S_yt-9Z9-RT-ysEE_85.mp4	0.0	310.13162302970886	0.07504892349243164
80	252.357017993927	response	0	4		78.0	2.5	/experiments/knapen_aot/oldvideos/R_S_yt-9Z9-RT-ysEE_85.mp4	0.0	310.1983850002289	
80	252.3653049468994	movie	1		301.0	78.0	2.5	/experiments/knapen_aot/oldvideos/R_S_yt-9Z9-RT-ysEE_85.mp4	0.0	310.2066719532013	2.508261203765869
80	254.87356615066528	fix_post	2		12.0	78.0	2.5	/experiments/knapen_aot/oldvideos/R_S_yt-9Z9-RT-ysEE_85.mp4	0.0	312.71493315696716	0.10003280639648438
81	254.97359895706177	fix_pre	0		7.0	79.0	2.5	/experiments/knapen_aot/oldvideos/S_yt-s2PWkCdT-TM_258.mp4	0.0	312.81496596336365	0.05824112892150879
81	255.0236301422119	response	0	4		79.0	2.5	/experiments/knapen_aot/oldvideos/S_yt-s2PWkCdT-TM_258.mp4	0.0	312.8649971485138	
81	255.03184008598328	movie	1		301.0	79.0	2.5	/experiments/knapen_aot/oldvideos/S_yt-s2PWkCdT-TM_258.mp4	0.0	312.87320709228516	2.5084240436553955
81	257.5402641296387	fix_post	2		12.0	79.0	2.5	/experiments/knapen_aot/oldvideos/S_yt-s2PWkCdT-TM_258.mp4	0.0	315.38163113594055	0.09994792938232422
82	257.640212059021	fix_pre	0		132.0	80.0	2.5	/experiments/knapen_aot/oldvideos/R_S_yt-lADkWM79teI_18.mp4	0.0	315.4815790653229	1.0999789237976074
82	258.72443413734436	response	0	4		80.0	2.5	/experiments/knapen_aot/oldvideos/R_S_yt-lADkWM79teI_18.mp4	0.0	316.56580114364624	
82	258.7401909828186	movie	1		301.0	80.0	2.5	/experiments/knapen_aot/oldvideos/R_S_yt-lADkWM79teI_18.mp4	0.0	316.5815579891205	2.508561134338379
82	261.248752117157	fix_post	2		12.0	80.0	2.5	/experiments/knapen_aot/oldvideos/R_S_yt-lADkWM79teI_18.mp4	0.0	319.09011912345886	0.09975004196166992
83	261.34850215911865	fix_pre	0		49.0	81.0	2.5	/experiments/knapen_aot/oldvideos/S_zAKvYNtmhuc_772.mp4	0.0	319.18986916542053	0.40829992294311523
83	261.74103116989136	response	0	4		81.0	2.5	/experiments/knapen_aot/oldvideos/S_zAKvYNtmhuc_772.mp4	0.0	319.58239817619324	
83	261.75680208206177	movie	1		301.0	81.0	2.5	/experiments/knapen_aot/oldvideos/S_zAKvYNtmhuc_772.mp4	0.0	319.59816908836365	2.5083870887756348
83	264.2651891708374	fix_post	2		12.0	81.0	2.5	/experiments/knapen_aot/oldvideos/S_zAKvYNtmhuc_772.mp4	0.0	322.1065561771393	0.10007786750793457
84	264.36526703834534	fix_pre	0		26.0	82.0	2.5	blank	1.0	322.2066340446472	0.2165079116821289
84	264.5736050605774	response	0	4		82.0	2.5	blank	1.0	322.4149720668793	
84	264.58177495002747	movie	1		301.0	82.0	2.5	blank	1.0	322.42314195632935	2.5083730220794678
84	267.09014797210693	fix_post	2		12.0	82.0	2.5	blank	1.0	324.9315149784088	0.10016512870788574
85	267.1903131008148	fix_pre	0		224.0	83.0	2.5	/experiments/knapen_aot/oldvideos/R_S_ILSVRC2015_train_00292006.mp4	0.0	325.0316801071167	1.8675038814544678
85	269.04860496520996	response	0	4		83.0	2.5	/experiments/knapen_aot/oldvideos/R_S_ILSVRC2015_train_00292006.mp4	0.0	326.88997197151184	
85	269.0578169822693	movie	1		301.0	83.0	2.5	/experiments/knapen_aot/oldvideos/R_S_ILSVRC2015_train_00292006.mp4	0.0	326.89918398857117	2.5072951316833496
85	271.56511211395264	fix_post	2		12.0	83.0	2.5	/experiments/knapen_aot/oldvideos/R_S_ILSVRC2015_train_00292006.mp4	0.0	329.4064791202545	0.10002899169921875
87	271.66514110565186	stim	0		233.0					329.50650811195374	1.9416320323944092
87	271.73189401626587	response	0	4						329.57326102256775	
87	273.60041904449463	response	0	space						331.4417860507965	
