trial_nr	onset	event_type	phase	response	nr_frames	movie_index	movie_duration	movie_file	blank	onset_abs	duration
0	0.13270306587219238	stim	0		56.0					96.87192821502686	0.46659302711486816
0	0.5912601947784424	response	0	space						97.3304853439331	
1	0.5992960929870605	stim	0		121.0					97.33852124214172	1.0085151195526123
1	1.3496191501617432	response	0	space						98.0888442993164	
1	1.6078112125396729	stim	1		120.0					98.34703636169434	0.9995639324188232
1	1.932502031326294	response	1	space						98.67172718048096	
1	2.3908190727233887	response	1	space						99.13004422187805	
2	2.607375144958496	fix_pre	0		29.0	0.0	2.5	/experiments/knapen_aot/videos/R_S_ILSVRC2015_train_00743005.mp4	0.0	99.34660029411316	0.2416849136352539
2	2.840820074081421	response	0	space		0.0	2.5	/experiments/knapen_aot/videos/R_S_ILSVRC2015_train_00743005.mp4	0.0	99.58004522323608	
2	2.84906005859375	movie	1		300.0	0.0	2.5	/experiments/knapen_aot/videos/R_S_ILSVRC2015_train_00743005.mp4	0.0	99.58828520774841	2.508258104324341
2	5.357318162918091	fix_post	2		12.0	0.0	2.5	/experiments/knapen_aot/videos/R_S_ILSVRC2015_train_00743005.mp4	0.0	102.09654331207275	0.10037899017333984
3	5.457697153091431	fix_pre	0		62.0	1.0	2.5	/experiments/knapen_aot/videos/R_S_yt-kiEFK7bDssE_14.mp4	0.0	102.1969223022461	0.5163040161132812
3	5.963316202163696	response	0	2		1.0	2.5	/experiments/knapen_aot/videos/R_S_yt-kiEFK7bDssE_14.mp4	0.0	102.70254135131836	
3	5.974001169204712	movie	1		301.0	1.0	2.5	/experiments/knapen_aot/videos/R_S_yt-kiEFK7bDssE_14.mp4	0.0	102.71322631835938	2.5082590579986572
3	8.48226022720337	fix_post	2		12.0	1.0	2.5	/experiments/knapen_aot/videos/R_S_yt-kiEFK7bDssE_14.mp4	0.0	105.22148537635803	0.10004591941833496
4	8.582306146621704	fix_pre	0		44.0	2.0	2.5	/experiments/knapen_aot/videos/S_ILSVRC2015_train_00584001.mp4	0.0	105.32153129577637	0.3666858673095703
4	8.940929174423218	response	0	2		2.0	2.5	/experiments/knapen_aot/videos/S_ILSVRC2015_train_00584001.mp4	0.0	105.68015432357788	
4	8.948992013931274	movie	1		301.0	2.0	2.5	/experiments/knapen_aot/videos/S_ILSVRC2015_train_00584001.mp4	0.0	105.68821716308594	2.5084002017974854
4	11.45739221572876	fix_post	2		12.0	2.0	2.5	/experiments/knapen_aot/videos/S_ILSVRC2015_train_00584001.mp4	0.0	108.19661736488342	0.09999680519104004
5	11.5573890209198	fix_pre	0		50.0	3.0	2.5	/experiments/knapen_aot/videos/R_S_yt-T1mMDOVjvrE_83.mp4	0.0	108.29661417007446	0.41659998893737793
5	11.965842008590698	response	0	2		3.0	2.5	/experiments/knapen_aot/videos/R_S_yt-T1mMDOVjvrE_83.mp4	0.0	108.70506715774536	
5	11.973989009857178	movie	1		301.0	3.0	2.5	/experiments/knapen_aot/videos/R_S_yt-T1mMDOVjvrE_83.mp4	0.0	108.71321415901184	2.5082972049713135
5	14.482286214828491	fix_post	2		12.0	3.0	2.5	/experiments/knapen_aot/videos/R_S_yt-T1mMDOVjvrE_83.mp4	0.0	111.22151136398315	0.10033679008483887
6	14.58262300491333	fix_pre	0		37.0	4.0	2.5	/experiments/knapen_aot/videos/R_S_yt-bOgChEHiroI_20.mp4	0.0	111.321848154068	0.3079969882965088
6	14.882450103759766	response	0	2		4.0	2.5	/experiments/knapen_aot/videos/R_S_yt-bOgChEHiroI_20.mp4	0.0	111.62167525291443	
6	14.890619993209839	movie	1		301.0	4.0	2.5	/experiments/knapen_aot/videos/R_S_yt-bOgChEHiroI_20.mp4	0.0	111.6298451423645	2.5083160400390625
6	17.3989360332489	fix_post	2		12.0	4.0	2.5	/experiments/knapen_aot/videos/R_S_yt-bOgChEHiroI_20.mp4	0.0	114.13816118240356	0.10031914710998535
7	17.499255180358887	fix_pre	0		46.0	5.0	2.5	blank	1.0	114.23848032951355	0.3830070495605469
7	17.874075174331665	response	0	2		5.0	2.5	blank	1.0	114.61330032348633	
7	17.882262229919434	movie	1		301.0	5.0	2.5	blank	1.0	114.6214873790741	2.508340835571289
7	20.390603065490723	fix_post	2		12.0	5.0	2.5	blank	1.0	117.12982821464539	0.10002803802490234
8	20.490631103515625	fix_pre	0		52.0	6.0	2.5	/experiments/knapen_aot/videos/S_flickr-hapanine-31880782705_22.mp4	0.0	117.22985625267029	0.43333005905151367
8	20.915767192840576	response	0	2		6.0	2.5	/experiments/knapen_aot/videos/S_flickr-hapanine-31880782705_22.mp4	0.0	117.65499234199524	
8	20.92396116256714	movie	1		163.0	6.0	2.5	/experiments/knapen_aot/videos/S_flickr-hapanine-31880782705_22.mp4	0.0	117.6631863117218	2.5083189010620117
8	23.43228006362915	fix_post	2		12.0	6.0	2.5	/experiments/knapen_aot/videos/S_flickr-hapanine-31880782705_22.mp4	0.0	120.17150521278381	0.10002303123474121
9	23.53230309486389	fix_pre	0		49.0	7.0	2.5	/experiments/knapen_aot/videos/S_yt-M_ApPnq00iE_67.mp4	0.0	120.27152824401855	0.40825796127319336
9	23.932393074035645	response	0	2		7.0	2.5	/experiments/knapen_aot/videos/S_yt-M_ApPnq00iE_67.mp4	0.0	120.67161822319031	
9	23.940561056137085	movie	1		301.0	7.0	2.5	/experiments/knapen_aot/videos/S_yt-M_ApPnq00iE_67.mp4	0.0	120.67978620529175	2.508497953414917
9	26.449059009552002	fix_post	2		12.0	7.0	2.5	/experiments/knapen_aot/videos/S_yt-M_ApPnq00iE_67.mp4	0.0	123.18828415870667	0.09992504119873047
10	26.548984050750732	fix_pre	0		47.0	8.0	2.5	/experiments/knapen_aot/videos/S_3dzza09VbXY_235.mp4	0.0	123.2882091999054	0.391693115234375
10	26.93241310119629	response	0	2		8.0	2.5	/experiments/knapen_aot/videos/S_3dzza09VbXY_235.mp4	0.0	123.67163825035095	
10	26.940677165985107	movie	1		301.0	8.0	2.5	/experiments/knapen_aot/videos/S_3dzza09VbXY_235.mp4	0.0	123.67990231513977	2.50832200050354
10	29.448999166488647	fix_post	2		12.0	8.0	2.5	/experiments/knapen_aot/videos/S_3dzza09VbXY_235.mp4	0.0	126.18822431564331	0.09995484352111816
11	29.548954010009766	fix_pre	0		54.0	9.0	2.5	/experiments/knapen_aot/videos/S_ILSVRC2015_train_00495000.mp4	0.0	126.28817915916443	0.4502081871032715
11	29.99077010154724	response	0	2		9.0	2.5	/experiments/knapen_aot/videos/S_ILSVRC2015_train_00495000.mp4	0.0	126.7299952507019	
11	29.999162197113037	movie	1		301.0	9.0	2.5	/experiments/knapen_aot/videos/S_ILSVRC2015_train_00495000.mp4	0.0	126.7383873462677	2.5080418586730957
11	32.50720405578613	fix_post	2		12.0	9.0	2.5	/experiments/knapen_aot/videos/S_ILSVRC2015_train_00495000.mp4	0.0	129.2464292049408	0.1000680923461914
12	32.607272148132324	fix_pre	0		55.0	10.0	2.5	/experiments/knapen_aot/videos/R_S_yt-GbL63AmOIss_116.mp4	0.0	129.346497297287	0.45833492279052734
12	33.05744004249573	response	0	2		10.0	2.5	/experiments/knapen_aot/videos/R_S_yt-GbL63AmOIss_116.mp4	0.0	129.7966651916504	
12	33.06560707092285	movie	1		301.0	10.0	2.5	/experiments/knapen_aot/videos/R_S_yt-GbL63AmOIss_116.mp4	0.0	129.80483222007751	2.5082919597625732
12	35.573899030685425	fix_post	2		12.0	10.0	2.5	/experiments/knapen_aot/videos/R_S_yt-GbL63AmOIss_116.mp4	0.0	132.3131241798401	0.10001516342163086
13	35.673914194107056	fix_pre	0		51.0	11.0	2.5	/experiments/knapen_aot/videos/S_yt-xqjVM0Vj4mI_161.mp4	0.0	132.41313934326172	0.4250009059906006
13	36.09066820144653	response	0	2		11.0	2.5	/experiments/knapen_aot/videos/S_yt-xqjVM0Vj4mI_161.mp4	0.0	132.8298933506012	
13	36.098915100097656	movie	1		301.0	11.0	2.5	/experiments/knapen_aot/videos/S_yt-xqjVM0Vj4mI_161.mp4	0.0	132.83814024925232	2.5083611011505127
13	38.60727620124817	fix_post	2		12.0	11.0	2.5	/experiments/knapen_aot/videos/S_yt-xqjVM0Vj4mI_161.mp4	0.0	135.34650135040283	0.10012483596801758
14	38.70740103721619	fix_pre	0		46.0	12.0	2.5	/experiments/knapen_aot/videos/S_yt-11S5tcT2Tm0_254.mp4	0.0	135.44662618637085	0.38320207595825195
14	39.08235001564026	response	0	2		12.0	2.5	/experiments/knapen_aot/videos/S_yt-11S5tcT2Tm0_254.mp4	0.0	135.82157516479492	
14	39.09060311317444	movie	1		301.0	12.0	2.5	/experiments/knapen_aot/videos/S_yt-11S5tcT2Tm0_254.mp4	0.0	135.8298282623291	2.508296012878418
14	41.598899126052856	fix_post	2		12.0	12.0	2.5	/experiments/knapen_aot/videos/S_yt-11S5tcT2Tm0_254.mp4	0.0	138.33812427520752	0.1000370979309082
15	41.698936223983765	fix_pre	0		62.0	13.0	2.5	blank	1.0	138.43816137313843	0.5165817737579346
15	42.19987511634827	response	0	2		13.0	2.5	blank	1.0	138.93910026550293	
15	42.2155179977417	movie	1		301.0	13.0	2.5	blank	1.0	138.95474314689636	2.508312225341797
15	44.723830223083496	fix_post	2		12.0	13.0	2.5	blank	1.0	141.46305537223816	0.1000828742980957
16	44.82391309738159	fix_pre	0		55.0	14.0	2.5	/experiments/knapen_aot/videos/S_comp_GMT308_139K_142NC_CARIBBEAN_DAY_v09_SDR_FINAL_22062018_SDR_2K_AVC.mp4	0.0	141.56313824653625	0.45833897590637207
16	45.27406406402588	response	0	2		14.0	2.5	/experiments/knapen_aot/videos/S_comp_GMT308_139K_142NC_CARIBBEAN_DAY_v09_SDR_FINAL_22062018_SDR_2K_AVC.mp4	0.0	142.01328921318054	
16	45.282252073287964	movie	1		165.0	14.0	2.5	/experiments/knapen_aot/videos/S_comp_GMT308_139K_142NC_CARIBBEAN_DAY_v09_SDR_FINAL_22062018_SDR_2K_AVC.mp4	0.0	142.02147722244263	2.5084450244903564
16	47.79069709777832	fix_post	2		12.0	14.0	2.5	/experiments/knapen_aot/videos/S_comp_GMT308_139K_142NC_CARIBBEAN_DAY_v09_SDR_FINAL_22062018_SDR_2K_AVC.mp4	0.0	144.52992224693298	0.09985589981079102
17	47.89055299758911	fix_pre	0		48.0	15.0	2.5	/experiments/knapen_aot/videos/S_yt-H3EadcgKySM_58.mp4	0.0	144.62977814674377	0.40006303787231445
17	48.28227400779724	response	0	2		15.0	2.5	/experiments/knapen_aot/videos/S_yt-H3EadcgKySM_58.mp4	0.0	145.0214991569519	
17	48.290616035461426	movie	1		301.0	15.0	2.5	/experiments/knapen_aot/videos/S_yt-H3EadcgKySM_58.mp4	0.0	145.0298411846161	2.508226156234741
17	50.79884219169617	fix_post	2		12.0	15.0	2.5	/experiments/knapen_aot/videos/S_yt-H3EadcgKySM_58.mp4	0.0	147.53806734085083	0.1000218391418457
18	50.89886403083801	fix_pre	0		60.0	16.0	2.5	/experiments/knapen_aot/videos/S_yt-QJ2k6vA8aco_12.mp4	0.0	147.63808917999268	0.4999561309814453
18	51.39068603515625	response	0	2		16.0	2.5	/experiments/knapen_aot/videos/S_yt-QJ2k6vA8aco_12.mp4	0.0	148.1299111843109	
18	51.39882016181946	movie	1		301.0	16.0	2.5	/experiments/knapen_aot/videos/S_yt-QJ2k6vA8aco_12.mp4	0.0	148.13804531097412	2.508312940597534
18	53.90713310241699	fix_post	2		12.0	16.0	2.5	/experiments/knapen_aot/videos/S_yt-QJ2k6vA8aco_12.mp4	0.0	150.64635825157166	0.10004305839538574
19	54.00717616081238	fix_pre	0		45.0	17.0	2.5	/experiments/knapen_aot/videos/S_yt-kRR0CluqaX4_130.mp4	0.0	150.74640130996704	0.3749539852142334
19	54.37396311759949	response	0	2		17.0	2.5	/experiments/knapen_aot/videos/S_yt-kRR0CluqaX4_130.mp4	0.0	151.11318826675415	
19	54.38213014602661	movie	1		301.0	17.0	2.5	/experiments/knapen_aot/videos/S_yt-kRR0CluqaX4_130.mp4	0.0	151.12135529518127	2.5083649158477783
19	56.89049506187439	fix_post	2		12.0	17.0	2.5	/experiments/knapen_aot/videos/S_yt-kRR0CluqaX4_130.mp4	0.0	153.62972021102905	0.10002613067626953
20	56.99052119255066	fix_pre	0		44.0	18.0	2.5	/experiments/knapen_aot/videos/R_S_pexels-cottonbro-10640532.mp4	0.0	153.72974634170532	0.36664891242980957
20	57.348939180374146	response	0	2		18.0	2.5	/experiments/knapen_aot/videos/R_S_pexels-cottonbro-10640532.mp4	0.0	154.0881643295288	
20	57.35717010498047	movie	1		190.0	18.0	2.5	/experiments/knapen_aot/videos/R_S_pexels-cottonbro-10640532.mp4	0.0	154.09639525413513	2.508384943008423
20	59.86555504798889	fix_post	2		12.0	18.0	2.5	/experiments/knapen_aot/videos/R_S_pexels-cottonbro-10640532.mp4	0.0	156.60478019714355	0.09991312026977539
21	59.96546816825867	fix_pre	0		77.0	19.0	2.5	/experiments/knapen_aot/videos/R_S_ILSVRC2015_train_00689000.mp4	0.0	156.70469331741333	0.6416699886322021
21	60.5990149974823	response	0	2		19.0	2.5	/experiments/knapen_aot/videos/R_S_ILSVRC2015_train_00689000.mp4	0.0	157.33824014663696	
21	60.60713815689087	movie	1		301.0	19.0	2.5	/experiments/knapen_aot/videos/R_S_ILSVRC2015_train_00689000.mp4	0.0	157.34636330604553	2.5083749294281006
21	63.11551308631897	fix_post	2		12.0	19.0	2.5	/experiments/knapen_aot/videos/R_S_ILSVRC2015_train_00689000.mp4	0.0	159.85473823547363	0.10000300407409668
22	63.215516090393066	fix_pre	0		61.0	20.0	2.5	blank	1.0	159.95474123954773	0.5081689357757568
22	63.71558403968811	response	0	2		20.0	2.5	blank	1.0	160.45480918884277	
22	63.72368502616882	movie	1		301.0	20.0	2.5	blank	1.0	160.4629101753235	2.5084331035614014
22	66.23211812973022	fix_post	2		12.0	20.0	2.5	blank	1.0	162.9713432788849	0.10009098052978516
23	66.33220911026001	fix_pre	0		63.0	21.0	2.5	/experiments/knapen_aot/videos/S_yt-GWOOQZ19-oU_331.mp4	0.0	163.07143425941467	0.5249168872833252
23	66.84890508651733	response	0	2		21.0	2.5	/experiments/knapen_aot/videos/S_yt-GWOOQZ19-oU_331.mp4	0.0	163.588130235672	
23	66.85712599754333	movie	1		301.0	21.0	2.5	/experiments/knapen_aot/videos/S_yt-GWOOQZ19-oU_331.mp4	0.0	163.596351146698	2.508331060409546
23	69.36545705795288	fix_post	2		12.0	21.0	2.5	/experiments/knapen_aot/videos/S_yt-GWOOQZ19-oU_331.mp4	0.0	166.10468220710754	0.10003304481506348
24	69.46549010276794	fix_pre	0		54.0	22.0	2.5	/experiments/knapen_aot/videos/S_flickr-csgzs-8144064966_10.mp4	0.0	166.2047152519226	0.44986796379089355
24	69.90720915794373	response	0	2		22.0	2.5	/experiments/knapen_aot/videos/S_flickr-csgzs-8144064966_10.mp4	0.0	166.6464343070984	
24	69.91535806655884	movie	1		301.0	22.0	2.5	/experiments/knapen_aot/videos/S_flickr-csgzs-8144064966_10.mp4	0.0	166.6545832157135	2.508388042449951
24	72.42374610900879	fix_post	2		12.0	22.0	2.5	/experiments/knapen_aot/videos/S_flickr-csgzs-8144064966_10.mp4	0.0	169.16297125816345	0.10004997253417969
25	72.52379608154297	fix_pre	0		81.0	23.0	2.5	/experiments/knapen_aot/videos/S_yt-xBwq6sHHF5M_21.mp4	0.0	169.26302123069763	0.6749770641326904
25	73.19060611724854	response	0	2		23.0	2.5	/experiments/knapen_aot/videos/S_yt-xBwq6sHHF5M_21.mp4	0.0	169.9298312664032	
25	73.19877314567566	movie	1		299.0	23.0	2.5	/experiments/knapen_aot/videos/S_yt-xBwq6sHHF5M_21.mp4	0.0	169.93799829483032	2.5083529949188232
25	75.70712614059448	fix_post	2		12.0	23.0	2.5	/experiments/knapen_aot/videos/S_yt-xBwq6sHHF5M_21.mp4	0.0	172.44635128974915	0.1000058650970459
26	75.80713200569153	fix_pre	0		54.0	24.0	2.5	/experiments/knapen_aot/videos/S_yt-roThCERxVCs_133.mp4	0.0	172.5463571548462	0.4499530792236328
26	76.2488660812378	response	0	2		24.0	2.5	/experiments/knapen_aot/videos/S_yt-roThCERxVCs_133.mp4	0.0	172.98809123039246	
26	76.25708508491516	movie	1		301.0	24.0	2.5	/experiments/knapen_aot/videos/S_yt-roThCERxVCs_133.mp4	0.0	172.99631023406982	2.5083799362182617
26	78.76546502113342	fix_post	2		12.0	24.0	2.5	/experiments/knapen_aot/videos/S_yt-roThCERxVCs_133.mp4	0.0	175.5046901702881	0.10000801086425781
27	78.86547303199768	fix_pre	0		61.0	25.0	2.5	/experiments/knapen_aot/videos/S_ILSVRC2015_train_00460000.mp4	0.0	175.60469818115234	0.5082831382751465
27	79.36557221412659	response	0	2		25.0	2.5	/experiments/knapen_aot/videos/S_ILSVRC2015_train_00460000.mp4	0.0	176.10479736328125	
27	79.37375617027283	movie	1		301.0	25.0	2.5	/experiments/knapen_aot/videos/S_ILSVRC2015_train_00460000.mp4	0.0	176.1129813194275	2.5083470344543457
27	81.88210320472717	fix_post	2		12.0	25.0	2.5	/experiments/knapen_aot/videos/S_ILSVRC2015_train_00460000.mp4	0.0	178.62132835388184	0.10004186630249023
28	81.98214507102966	fix_pre	0		39.0	26.0	2.5	/experiments/knapen_aot/videos/S_production_ID_4873122.mp4	0.0	178.72137022018433	0.324908971786499
28	82.2987642288208	response	0	2		26.0	2.5	/experiments/knapen_aot/videos/S_production_ID_4873122.mp4	0.0	179.03798937797546	
28	82.30705404281616	movie	1		164.0	26.0	2.5	/experiments/knapen_aot/videos/S_production_ID_4873122.mp4	0.0	179.04627919197083	2.5083181858062744
28	84.81537222862244	fix_post	2		12.0	26.0	2.5	/experiments/knapen_aot/videos/S_production_ID_4873122.mp4	0.0	181.5545973777771	0.10005378723144531
29	84.91542601585388	fix_pre	0		44.0	27.0	2.5	/experiments/knapen_aot/videos/R_S_yt-SjPYdaUBi7A_37.mp4	0.0	181.65465116500854	0.3679690361022949
29	85.27389621734619	response	0	2		27.0	2.5	/experiments/knapen_aot/videos/R_S_yt-SjPYdaUBi7A_37.mp4	0.0	182.01312136650085	
29	85.28339505195618	movie	1		301.0	27.0	2.5	/experiments/knapen_aot/videos/R_S_yt-SjPYdaUBi7A_37.mp4	0.0	182.02262020111084	2.5070199966430664
29	87.79041504859924	fix_post	2		12.0	27.0	2.5	/experiments/knapen_aot/videos/R_S_yt-SjPYdaUBi7A_37.mp4	0.0	184.5296401977539	0.09997916221618652
30	87.89039421081543	fix_pre	0		43.0	28.0	2.5	blank	1.0	184.6296193599701	0.35834598541259766
30	88.24050402641296	response	0	2		28.0	2.5	blank	1.0	184.97972917556763	
30	88.24874019622803	movie	1		301.0	28.0	2.5	blank	1.0	184.9879653453827	2.5082638263702393
30	90.75700402259827	fix_post	2		12.0	28.0	2.5	blank	1.0	187.49622917175293	0.10006904602050781
31	90.85707306861877	fix_pre	0		68.0	29.0	2.5	/experiments/knapen_aot/videos/S_yt-xCh0LI9VKeI_28.mp4	0.0	187.59629821777344	0.5666501522064209
31	91.41549921035767	response	0	2		29.0	2.5	/experiments/knapen_aot/videos/S_yt-xCh0LI9VKeI_28.mp4	0.0	188.15472435951233	
31	91.4237232208252	movie	1		301.0	29.0	2.5	/experiments/knapen_aot/videos/S_yt-xCh0LI9VKeI_28.mp4	0.0	188.16294836997986	2.5082719326019287
31	93.93199515342712	fix_post	2		12.0	29.0	2.5	/experiments/knapen_aot/videos/S_yt-xCh0LI9VKeI_28.mp4	0.0	190.6712203025818	0.10006499290466309
32	94.03206014633179	fix_pre	0		50.0	30.0	2.5	/experiments/knapen_aot/videos/R_S_yt-7VVzNnp36DM_78.mp4	0.0	190.77128529548645	0.41784191131591797
32	94.44047522544861	response	0	2		30.0	2.5	/experiments/knapen_aot/videos/R_S_yt-7VVzNnp36DM_78.mp4	0.0	191.17970037460327	
32	94.4499020576477	movie	1		300.0	30.0	2.5	/experiments/knapen_aot/videos/R_S_yt-7VVzNnp36DM_78.mp4	0.0	191.18912720680237	2.5071749687194824
32	96.95707702636719	fix_post	2		12.0	30.0	2.5	/experiments/knapen_aot/videos/R_S_yt-7VVzNnp36DM_78.mp4	0.0	193.69630217552185	0.09997105598449707
33	97.05704808235168	fix_pre	0		85.0	31.0	2.5	/experiments/knapen_aot/videos/R_S_9smWynsk6sI_158.mp4	0.0	193.79627323150635	0.7083189487457275
33	97.75717520713806	response	0	2		31.0	2.5	/experiments/knapen_aot/videos/R_S_9smWynsk6sI_158.mp4	0.0	194.49640035629272	
33	97.76536703109741	movie	1		301.0	31.0	2.5	/experiments/knapen_aot/videos/R_S_9smWynsk6sI_158.mp4	0.0	194.50459218025208	2.5083320140838623
33	100.27369904518127	fix_post	2		12.0	31.0	2.5	/experiments/knapen_aot/videos/R_S_9smWynsk6sI_158.mp4	0.0	197.01292419433594	0.1000070571899414
34	100.37370610237122	fix_pre	0		54.0	32.0	2.5	/experiments/knapen_aot/videos/R_S_yt-B7ZRYVhfW2U_52.mp4	0.0	197.11293125152588	0.45119810104370117
34	100.81548714637756	response	0	2		32.0	2.5	/experiments/knapen_aot/videos/R_S_yt-B7ZRYVhfW2U_52.mp4	0.0	197.55471229553223	
34	100.82490420341492	movie	1		301.0	32.0	2.5	/experiments/knapen_aot/videos/R_S_yt-B7ZRYVhfW2U_52.mp4	0.0	197.56412935256958	2.507206916809082
34	103.332111120224	fix_post	2		12.0	32.0	2.5	/experiments/knapen_aot/videos/R_S_yt-B7ZRYVhfW2U_52.mp4	0.0	200.07133626937866	0.09987592697143555
35	103.43198704719543	fix_pre	0		47.0	33.0	2.5	blank	1.0	200.1712121963501	0.39159297943115234
35	103.81542110443115	response	0	2		33.0	2.5	blank	1.0	200.55464625358582	
35	103.82358002662659	movie	1		301.0	33.0	2.5	blank	1.0	200.56280517578125	2.5083861351013184
35	106.3319661617279	fix_post	2		12.0	33.0	2.5	blank	1.0	203.07119131088257	0.10002684593200684
36	106.43199300765991	fix_pre	0		70.0	34.0	2.5	/experiments/knapen_aot/videos/S_yt-GfPep7IhZIU_47.mp4	0.0	203.17121815681458	0.5832600593566895
36	107.00708103179932	response	0	2		34.0	2.5	/experiments/knapen_aot/videos/S_yt-GfPep7IhZIU_47.mp4	0.0	203.74630618095398	
36	107.0152530670166	movie	1		301.0	34.0	2.5	/experiments/knapen_aot/videos/S_yt-GfPep7IhZIU_47.mp4	0.0	203.75447821617126	2.5083320140838623
36	109.52358508110046	fix_post	2		12.0	34.0	2.5	/experiments/knapen_aot/videos/S_yt-GfPep7IhZIU_47.mp4	0.0	206.26281023025513	0.10001206398010254
37	109.62359714508057	fix_pre	0		46.0	35.0	2.5	/experiments/knapen_aot/videos/S_ILSVRC2015_train_00708000.mp4	0.0	206.36282229423523	0.39165186882019043
37	110.00708508491516	response	0	2		35.0	2.5	/experiments/knapen_aot/videos/S_ILSVRC2015_train_00708000.mp4	0.0	206.74631023406982	
37	110.01524901390076	movie	1		301.0	35.0	2.5	/experiments/knapen_aot/videos/S_ILSVRC2015_train_00708000.mp4	0.0	206.75447416305542	2.508392095565796
37	112.52364110946655	fix_post	2		12.0	35.0	2.5	/experiments/knapen_aot/videos/S_ILSVRC2015_train_00708000.mp4	0.0	209.26286625862122	0.10000205039978027
38	112.62364315986633	fix_pre	0		40.0	36.0	2.5	/experiments/knapen_aot/videos/R_S_yt-T7RmOAme5dU_213.mp4	0.0	209.362868309021	0.33335399627685547
38	112.94869709014893	response	0	2		36.0	2.5	/experiments/knapen_aot/videos/R_S_yt-T7RmOAme5dU_213.mp4	0.0	209.6879222393036	
38	112.95699715614319	movie	1		301.0	36.0	2.5	/experiments/knapen_aot/videos/R_S_yt-T7RmOAme5dU_213.mp4	0.0	209.69622230529785	2.508208990097046
38	115.46520614624023	fix_post	2		12.0	36.0	2.5	/experiments/knapen_aot/videos/R_S_yt-T7RmOAme5dU_213.mp4	0.0	212.2044312953949	0.1000359058380127
39	115.56524205207825	fix_pre	0		32.0	37.0	2.5	/experiments/knapen_aot/videos/S_G008_C015_UHD_SDR_2K_AVC.mp4	0.0	212.3044672012329	0.26670002937316895
39	115.8162112236023	response	0	2		37.0	2.5	/experiments/knapen_aot/videos/S_G008_C015_UHD_SDR_2K_AVC.mp4	0.0	212.55543637275696	
39	115.83194208145142	movie	1		171.0	37.0	2.5	/experiments/knapen_aot/videos/S_G008_C015_UHD_SDR_2K_AVC.mp4	0.0	212.57116723060608	2.508342981338501
39	118.34028506278992	fix_post	2		12.0	37.0	2.5	/experiments/knapen_aot/videos/S_G008_C015_UHD_SDR_2K_AVC.mp4	0.0	215.07951021194458	0.0999910831451416
40	118.44027614593506	fix_pre	0		37.0	38.0	2.5	/experiments/knapen_aot/videos/R_S_yt-_HuBzj8EPBc_62.mp4	0.0	215.17950129508972	0.30831098556518555
40	118.73293709754944	response	0	2		38.0	2.5	/experiments/knapen_aot/videos/R_S_yt-_HuBzj8EPBc_62.mp4	0.0	215.4721622467041	
40	118.74858713150024	movie	1		301.0	38.0	2.5	/experiments/knapen_aot/videos/R_S_yt-_HuBzj8EPBc_62.mp4	0.0	215.4878122806549	2.5083820819854736
40	121.25696921348572	fix_post	2		12.0	38.0	2.5	/experiments/knapen_aot/videos/R_S_yt-_HuBzj8EPBc_62.mp4	0.0	217.99619436264038	0.0999608039855957
41	121.35693001747131	fix_pre	0		49.0	39.0	2.5	/experiments/knapen_aot/videos/S_yt-2IfvnrF3IV0_241.mp4	0.0	218.09615516662598	0.40831708908081055
41	121.75709104537964	response	0	2		39.0	2.5	/experiments/knapen_aot/videos/S_yt-2IfvnrF3IV0_241.mp4	0.0	218.4963161945343	
41	121.76524710655212	movie	1		297.0	39.0	2.5	/experiments/knapen_aot/videos/S_yt-2IfvnrF3IV0_241.mp4	0.0	218.5044722557068	2.5083019733428955
41	124.27354907989502	fix_post	2		12.0	39.0	2.5	/experiments/knapen_aot/videos/S_yt-2IfvnrF3IV0_241.mp4	0.0	221.01277422904968	0.10004210472106934
42	124.37359118461609	fix_pre	0		48.0	40.0	2.5	/experiments/knapen_aot/videos/S_pexels-sora-shimazaki-5925295.mp4	0.0	221.11281633377075	0.40003490447998047
42	124.76540303230286	response	0	2		40.0	2.5	/experiments/knapen_aot/videos/S_pexels-sora-shimazaki-5925295.mp4	0.0	221.50462818145752	
42	124.77362608909607	movie	1		162.0	40.0	2.5	/experiments/knapen_aot/videos/S_pexels-sora-shimazaki-5925295.mp4	0.0	221.51285123825073	2.5082509517669678
42	127.28187704086304	fix_post	2		12.0	40.0	2.5	/experiments/knapen_aot/videos/S_pexels-sora-shimazaki-5925295.mp4	0.0	224.0211021900177	0.10003805160522461
43	127.38191509246826	fix_pre	0		50.0	41.0	2.5	/experiments/knapen_aot/videos/R_S_ILSVRC2015_train_00460000.mp4	0.0	224.12114024162292	0.41663694381713867
43	127.79043316841125	response	0	2		41.0	2.5	/experiments/knapen_aot/videos/R_S_ILSVRC2015_train_00460000.mp4	0.0	224.52965831756592	
43	127.7985520362854	movie	1		301.0	41.0	2.5	/experiments/knapen_aot/videos/R_S_ILSVRC2015_train_00460000.mp4	0.0	224.53777718544006	2.5083301067352295
43	130.30688214302063	fix_post	2		12.0	41.0	2.5	/experiments/knapen_aot/videos/R_S_ILSVRC2015_train_00460000.mp4	0.0	227.0461072921753	0.1000509262084961
44	130.40693306922913	fix_pre	0		69.0	42.0	2.5	blank	1.0	227.1461582183838	0.5749139785766602
44	130.97375321388245	response	0	2		42.0	2.5	blank	1.0	227.7129783630371	
44	130.9818470478058	movie	1		301.0	42.0	2.5	blank	1.0	227.72107219696045	2.508268117904663
44	133.49011516571045	fix_post	2		12.0	42.0	2.5	blank	1.0	230.2293403148651	0.10010004043579102
45	133.59021520614624	fix_pre	0		69.0	43.0	2.5	/experiments/knapen_aot/videos/R_S_yt-Ndwek2tpIOA_169.mp4	0.0	230.3294403553009	0.57499098777771
45	134.1494300365448	response	0	2		43.0	2.5	/experiments/knapen_aot/videos/R_S_yt-Ndwek2tpIOA_169.mp4	0.0	230.88865518569946	
45	134.16520619392395	movie	1		301.0	43.0	2.5	/experiments/knapen_aot/videos/R_S_yt-Ndwek2tpIOA_169.mp4	0.0	230.9044313430786	2.5083420276641846
45	136.67354822158813	fix_post	2		12.0	43.0	2.5	/experiments/knapen_aot/videos/R_S_yt-Ndwek2tpIOA_169.mp4	0.0	233.4127733707428	0.09998178482055664
46	136.7735300064087	fix_pre	0		65.0	44.0	2.5	/experiments/knapen_aot/videos/R_S_yt-eVAlSjH8E8k_127.mp4	0.0	233.51275515556335	0.5416710376739502
46	137.29947519302368	response	0	2		44.0	2.5	/experiments/knapen_aot/videos/R_S_yt-eVAlSjH8E8k_127.mp4	0.0	234.03870034217834	
46	137.31520104408264	movie	1		301.0	44.0	2.5	/experiments/knapen_aot/videos/R_S_yt-eVAlSjH8E8k_127.mp4	0.0	234.0544261932373	2.508363962173462
46	139.8235650062561	fix_post	2		12.0	44.0	2.5	/experiments/knapen_aot/videos/R_S_yt-eVAlSjH8E8k_127.mp4	0.0	236.56279015541077	0.09996819496154785
47	139.92353320121765	fix_pre	0		44.0	45.0	2.5	/experiments/knapen_aot/videos/S_yt-giRwl4yChlw_9.mp4	0.0	236.66275835037231	0.36664891242980957
47	140.28201508522034	response	0	2		45.0	2.5	/experiments/knapen_aot/videos/S_yt-giRwl4yChlw_9.mp4	0.0	237.021240234375	
47	140.29018211364746	movie	1		300.0	45.0	2.5	/experiments/knapen_aot/videos/S_yt-giRwl4yChlw_9.mp4	0.0	237.02940726280212	2.5083000659942627
47	142.79848217964172	fix_post	2		12.0	45.0	2.5	/experiments/knapen_aot/videos/S_yt-giRwl4yChlw_9.mp4	0.0	239.5377073287964	0.10000491142272949
48	142.89848709106445	fix_pre	0		66.0	46.0	2.5	/experiments/knapen_aot/videos/S_ILnEDG_aP1A_35.mp4	0.0	239.63771224021912	0.5510470867156982
48	143.44030117988586	response	0	2		46.0	2.5	/experiments/knapen_aot/videos/S_ILnEDG_aP1A_35.mp4	0.0	240.17952632904053	
48	143.44953417778015	movie	1		301.0	46.0	2.5	/experiments/knapen_aot/videos/S_ILnEDG_aP1A_35.mp4	0.0	240.18875932693481	2.5072498321533203
48	145.95678400993347	fix_post	2		12.0	46.0	2.5	/experiments/knapen_aot/videos/S_ILnEDG_aP1A_35.mp4	0.0	242.69600915908813	0.09996414184570312
49	146.05674815177917	fix_pre	0		67.0	47.0	2.5	/experiments/knapen_aot/videos/R_S_yt-kP7VNn9QIo4_53.mp4	0.0	242.79597330093384	0.559351921081543
49	146.6069211959839	response	0	2		47.0	2.5	/experiments/knapen_aot/videos/R_S_yt-kP7VNn9QIo4_53.mp4	0.0	243.34614634513855	
49	146.61610007286072	movie	1		301.0	47.0	2.5	/experiments/knapen_aot/videos/R_S_yt-kP7VNn9QIo4_53.mp4	0.0	243.35532522201538	2.507383108139038
49	149.12348318099976	fix_post	2		12.0	47.0	2.5	/experiments/knapen_aot/videos/R_S_yt-kP7VNn9QIo4_53.mp4	0.0	245.86270833015442	0.09994697570800781
50	149.22343015670776	fix_pre	0		48.0	48.0	2.5	blank	1.0	245.96265530586243	0.39999985694885254
50	149.61526703834534	response	0	2		48.0	2.5	blank	1.0	246.3544921875	
50	149.62343001365662	movie	1		301.0	48.0	2.5	blank	1.0	246.36265516281128	2.508338212966919
50	152.13176822662354	fix_post	2		12.0	48.0	2.5	blank	1.0	248.8709933757782	0.10002994537353516
51	152.23179817199707	fix_pre	0		44.0	49.0	2.5	/experiments/knapen_aot/videos/S_yt-MTo50ReVNmU_2.mp4	0.0	248.97102332115173	0.366595983505249
51	152.5903561115265	response	0	2		49.0	2.5	/experiments/knapen_aot/videos/S_yt-MTo50ReVNmU_2.mp4	0.0	249.32958126068115	
51	152.59839415550232	movie	1		300.0	49.0	2.5	/experiments/knapen_aot/videos/S_yt-MTo50ReVNmU_2.mp4	0.0	249.33761930465698	2.5083489418029785
51	155.1067430973053	fix_post	2		12.0	49.0	2.5	/experiments/knapen_aot/videos/S_yt-MTo50ReVNmU_2.mp4	0.0	251.84596824645996	0.10000801086425781
52	155.20675110816956	fix_pre	0		57.0	50.0	2.5	/experiments/knapen_aot/videos/R_S_yt-MXLxcvKZDHw_22.mp4	0.0	251.94597625732422	0.47499704360961914
52	155.67365503311157	response	0	2		50.0	2.5	/experiments/knapen_aot/videos/R_S_yt-MXLxcvKZDHw_22.mp4	0.0	252.41288018226624	
52	155.68174815177917	movie	1		301.0	50.0	2.5	/experiments/knapen_aot/videos/R_S_yt-MXLxcvKZDHw_22.mp4	0.0	252.42097330093384	2.5083558559417725
52	158.19010400772095	fix_post	2		12.0	50.0	2.5	/experiments/knapen_aot/videos/R_S_yt-MXLxcvKZDHw_22.mp4	0.0	254.9293291568756	0.10002803802490234
53	158.29013204574585	fix_pre	0		42.0	51.0	2.5	/experiments/knapen_aot/videos/R_S_comp_L004_C011_PS_v01_SDR_PS_20180925_SDR_2K_AVC.mp4	0.0	255.0293571949005	0.3499569892883301
53	158.63189315795898	response	0	2		51.0	2.5	/experiments/knapen_aot/videos/R_S_comp_L004_C011_PS_v01_SDR_PS_20180925_SDR_2K_AVC.mp4	0.0	255.37111830711365	
53	158.64008903503418	movie	1		172.0	51.0	2.5	/experiments/knapen_aot/videos/R_S_comp_L004_C011_PS_v01_SDR_PS_20180925_SDR_2K_AVC.mp4	0.0	255.37931418418884	2.5083930492401123
53	161.1484820842743	fix_post	2		12.0	51.0	2.5	/experiments/knapen_aot/videos/R_S_comp_L004_C011_PS_v01_SDR_PS_20180925_SDR_2K_AVC.mp4	0.0	257.88770723342896	0.09994292259216309
54	161.24842500686646	fix_pre	0		52.0	52.0	2.5	/experiments/knapen_aot/videos/R_S_yt-RNPFV7lgAvE_362.mp4	0.0	257.9876501560211	0.43335509300231934
54	161.67361211776733	response	0	2		52.0	2.5	/experiments/knapen_aot/videos/R_S_yt-RNPFV7lgAvE_362.mp4	0.0	258.412837266922	
54	161.68178009986877	movie	1		301.0	52.0	2.5	/experiments/knapen_aot/videos/R_S_yt-RNPFV7lgAvE_362.mp4	0.0	258.42100524902344	2.5083200931549072
54	164.19010019302368	fix_post	2		12.0	52.0	2.5	/experiments/knapen_aot/videos/R_S_yt-RNPFV7lgAvE_362.mp4	0.0	260.92932534217834	0.09995794296264648
55	164.29005813598633	fix_pre	0		52.0	53.0	2.5	/experiments/knapen_aot/videos/S_yt-hvuC_2YXsTQ_73.mp4	0.0	261.029283285141	0.43332886695861816
55	164.71526622772217	response	0	2		53.0	2.5	/experiments/knapen_aot/videos/S_yt-hvuC_2YXsTQ_73.mp4	0.0	261.45449137687683	
55	164.72338700294495	movie	1		297.0	53.0	2.5	/experiments/knapen_aot/videos/S_yt-hvuC_2YXsTQ_73.mp4	0.0	261.4626121520996	2.5083060264587402
55	167.2316930294037	fix_post	2		12.0	53.0	2.5	/experiments/knapen_aot/videos/S_yt-hvuC_2YXsTQ_73.mp4	0.0	263.97091817855835	0.09991812705993652
56	167.33161115646362	fix_pre	0		47.0	54.0	2.5	/experiments/knapen_aot/videos/S_wc-AyT9mzwZsu0T_14.mp4	0.0	264.0708363056183	0.3917548656463623
56	167.71514511108398	response	0	2		54.0	2.5	/experiments/knapen_aot/videos/S_wc-AyT9mzwZsu0T_14.mp4	0.0	264.45437026023865	
56	167.72336602210999	movie	1		168.0	54.0	2.5	/experiments/knapen_aot/videos/S_wc-AyT9mzwZsu0T_14.mp4	0.0	264.46259117126465	2.5082709789276123
56	170.2316370010376	fix_post	2		12.0	54.0	2.5	/experiments/knapen_aot/videos/S_wc-AyT9mzwZsu0T_14.mp4	0.0	266.97086215019226	0.10008907318115234
57	170.33172607421875	fix_pre	0		52.0	55.0	2.5	/experiments/knapen_aot/videos/R_S_yt-H5LQq4MPIao_660.mp4	0.0	267.0709512233734	0.4332571029663086
57	170.7568440437317	response	0	2		55.0	2.5	/experiments/knapen_aot/videos/R_S_yt-H5LQq4MPIao_660.mp4	0.0	267.49606919288635	
57	170.76498317718506	movie	1		301.0	55.0	2.5	/experiments/knapen_aot/videos/R_S_yt-H5LQq4MPIao_660.mp4	0.0	267.5042083263397	2.5082998275756836
57	173.27328300476074	fix_post	2		12.0	55.0	2.5	/experiments/knapen_aot/videos/R_S_yt-H5LQq4MPIao_660.mp4	0.0	270.0125081539154	0.10003304481506348
58	173.3733160495758	fix_pre	0		66.0	56.0	2.5	blank	1.0	270.11254119873047	0.5499911308288574
58	173.9151840209961	response	0	2		56.0	2.5	blank	1.0	270.65440917015076	
58	173.92330718040466	movie	1		301.0	56.0	2.5	blank	1.0	270.6625323295593	2.508363962173462
58	176.43167114257812	fix_post	2		12.0	56.0	2.5	blank	1.0	273.1708962917328	0.09995293617248535
59	176.5316240787506	fix_pre	0		63.0	57.0	2.5	/experiments/knapen_aot/videos/R_S_flickr-51283549@N02-23064904264_16.mp4	0.0	273.2708492279053	0.5250060558319092
59	177.04844903945923	response	0	2		57.0	2.5	/experiments/knapen_aot/videos/R_S_flickr-51283549@N02-23064904264_16.mp4	0.0	273.7876741886139	
59	177.05663013458252	movie	1		163.0	57.0	2.5	/experiments/knapen_aot/videos/R_S_flickr-51283549@N02-23064904264_16.mp4	0.0	273.7958552837372	2.5083789825439453
59	179.56500911712646	fix_post	2		12.0	57.0	2.5	/experiments/knapen_aot/videos/R_S_flickr-51283549@N02-23064904264_16.mp4	0.0	276.3042342662811	0.10001206398010254
60	179.66502118110657	fix_pre	0		49.0	58.0	2.5	/experiments/knapen_aot/videos/R_S_yt-T1mMDOVjvrE_83.mp4	0.0	276.40424633026123	0.4090578556060791
60	180.06509113311768	response	0	2		58.0	2.5	/experiments/knapen_aot/videos/R_S_yt-T1mMDOVjvrE_83.mp4	0.0	276.80431628227234	
60	180.07407903671265	movie	1		301.0	58.0	2.5	/experiments/knapen_aot/videos/R_S_yt-T1mMDOVjvrE_83.mp4	0.0	276.8133041858673	2.507580041885376
60	182.58165907859802	fix_post	2		12.0	58.0	2.5	/experiments/knapen_aot/videos/R_S_yt-T1mMDOVjvrE_83.mp4	0.0	279.3208842277527	0.10002493858337402
61	182.6816840171814	fix_pre	0		65.0	59.0	2.5	/experiments/knapen_aot/videos/S_pexels-anthony-shkraba-7569650.mp4	0.0	279.42090916633606	0.5416150093078613
61	183.21508407592773	response	0	2		59.0	2.5	/experiments/knapen_aot/videos/S_pexels-anthony-shkraba-7569650.mp4	0.0	279.9543092250824	
61	183.22329902648926	movie	1		196.0	59.0	2.5	/experiments/knapen_aot/videos/S_pexels-anthony-shkraba-7569650.mp4	0.0	279.9625241756439	2.5083839893341064
61	185.73168301582336	fix_post	2		12.0	59.0	2.5	/experiments/knapen_aot/videos/S_pexels-anthony-shkraba-7569650.mp4	0.0	282.470908164978	0.10001611709594727
62	185.8316991329193	fix_pre	0		66.0	60.0	2.5	/experiments/knapen_aot/videos/S_yt-yPl8LcgSMjo_32.mp4	0.0	282.570924282074	0.5499539375305176
62	186.37345719337463	response	0	2		60.0	2.5	/experiments/knapen_aot/videos/S_yt-yPl8LcgSMjo_32.mp4	0.0	283.1126823425293	
62	186.38165307044983	movie	1		301.0	60.0	2.5	/experiments/knapen_aot/videos/S_yt-yPl8LcgSMjo_32.mp4	0.0	283.1208782196045	2.5083720684051514
62	188.89002513885498	fix_post	2		12.0	60.0	2.5	/experiments/knapen_aot/videos/S_yt-yPl8LcgSMjo_32.mp4	0.0	285.62925028800964	0.09997797012329102
63	188.99000310897827	fix_pre	0		69.0	61.0	2.5	blank	1.0	285.72922825813293	0.5749969482421875
63	189.55679202079773	response	0	2		61.0	2.5	blank	1.0	286.2960171699524	
63	189.56500005722046	movie	1		301.0	61.0	2.5	blank	1.0	286.3042252063751	2.508342981338501
63	192.07334303855896	fix_post	2		12.0	61.0	2.5	blank	1.0	288.8125681877136	0.09998297691345215
64	192.1733260154724	fix_pre	0		54.0	62.0	2.5	/experiments/knapen_aot/videos/R_S_yt-nS2QqSQbjOQ_39.mp4	0.0	288.9125511646271	0.44989919662475586
64	192.6151900291443	response	0	2		62.0	2.5	/experiments/knapen_aot/videos/R_S_yt-nS2QqSQbjOQ_39.mp4	0.0	289.35441517829895	
64	192.62322521209717	movie	1		301.0	62.0	2.5	/experiments/knapen_aot/videos/R_S_yt-nS2QqSQbjOQ_39.mp4	0.0	289.36245036125183	2.508296012878418
64	195.1315212249756	fix_post	2		12.0	62.0	2.5	/experiments/knapen_aot/videos/R_S_yt-nS2QqSQbjOQ_39.mp4	0.0	291.87074637413025	0.1000218391418457
65	195.23154306411743	fix_pre	0		45.0	63.0	2.5	/experiments/knapen_aot/videos/S_pexels-rodnae-productions-5993671.mp4	0.0	291.9707682132721	0.3750300407409668
65	195.59844708442688	response	0	2		63.0	2.5	/experiments/knapen_aot/videos/S_pexels-rodnae-productions-5993671.mp4	0.0	292.33767223358154	
65	195.6065731048584	movie	1		162.0	63.0	2.5	/experiments/knapen_aot/videos/S_pexels-rodnae-productions-5993671.mp4	0.0	292.34579825401306	2.508410930633545
65	198.11498403549194	fix_post	2		12.0	63.0	2.5	/experiments/knapen_aot/videos/S_pexels-rodnae-productions-5993671.mp4	0.0	294.8542091846466	0.09992218017578125
66	198.21490621566772	fix_pre	0		62.0	64.0	2.5	/experiments/knapen_aot/videos/S_yt-PvWkOmfZuSY_4.mp4	0.0	294.9541313648224	0.5166800022125244
66	198.715754032135	response	0	2		64.0	2.5	/experiments/knapen_aot/videos/S_yt-PvWkOmfZuSY_4.mp4	0.0	295.4549791812897	
66	198.73158621788025	movie	1		301.0	64.0	2.5	/experiments/knapen_aot/videos/S_yt-PvWkOmfZuSY_4.mp4	0.0	295.4708113670349	2.5083630084991455
66	201.2399492263794	fix_post	2		12.0	64.0	2.5	/experiments/knapen_aot/videos/S_yt-PvWkOmfZuSY_4.mp4	0.0	297.97917437553406	0.10003876686096191
67	201.33998799324036	fix_pre	0		59.0	65.0	2.5	/experiments/knapen_aot/videos/S_yt-9Q7SZR0mgMA_155.mp4	0.0	298.079213142395	0.49162912368774414
67	201.82341408729553	response	0	2		65.0	2.5	/experiments/knapen_aot/videos/S_yt-9Q7SZR0mgMA_155.mp4	0.0	298.5626392364502	
67	201.8316171169281	movie	1		301.0	65.0	2.5	/experiments/knapen_aot/videos/S_yt-9Q7SZR0mgMA_155.mp4	0.0	298.57084226608276	2.5082380771636963
67	204.3398551940918	fix_post	2		12.0	65.0	2.5	/experiments/knapen_aot/videos/S_yt-9Q7SZR0mgMA_155.mp4	0.0	301.07908034324646	0.1000518798828125
68	204.4399070739746	fix_pre	0		40.0	66.0	2.5	/experiments/knapen_aot/videos/R_S_yt-B7ZRYVhfW2U_52.mp4	0.0	301.1791322231293	0.33332204818725586
68	204.76504516601562	response	0	2		66.0	2.5	/experiments/knapen_aot/videos/R_S_yt-B7ZRYVhfW2U_52.mp4	0.0	301.5042703151703	
68	204.77322912216187	movie	1		301.0	66.0	2.5	/experiments/knapen_aot/videos/R_S_yt-B7ZRYVhfW2U_52.mp4	0.0	301.5124542713165	2.508251905441284
68	207.28148102760315	fix_post	2		12.0	66.0	2.5	/experiments/knapen_aot/videos/R_S_yt-B7ZRYVhfW2U_52.mp4	0.0	304.0207061767578	0.1000821590423584
69	207.3815631866455	fix_pre	0		51.0	67.0	2.5	/experiments/knapen_aot/videos/R_S_flickr-hapanine-31880782705_22.mp4	0.0	304.12078833580017	0.4250609874725342
69	207.79832100868225	response	0	2		67.0	2.5	/experiments/knapen_aot/videos/R_S_flickr-hapanine-31880782705_22.mp4	0.0	304.5375461578369	
69	207.80662417411804	movie	1		161.0	67.0	2.5	/experiments/knapen_aot/videos/R_S_flickr-hapanine-31880782705_22.mp4	0.0	304.5458493232727	2.508298873901367
69	210.3149230480194	fix_post	2		12.0	67.0	2.5	/experiments/knapen_aot/videos/R_S_flickr-hapanine-31880782705_22.mp4	0.0	307.0541481971741	0.10002017021179199
70	210.4149432182312	fix_pre	0		44.0	68.0	2.5	blank	1.0	307.15416836738586	0.36726999282836914
70	210.77329802513123	response	0	2		68.0	2.5	blank	1.0	307.5125231742859	
70	210.78221321105957	movie	1		301.0	68.0	2.5	blank	1.0	307.52143836021423	2.5076189041137695
70	213.28983211517334	fix_post	2		12.0	68.0	2.5	blank	1.0	310.029057264328	0.10004305839538574
71	213.38987517356873	fix_pre	0		85.0	69.0	2.5	/experiments/knapen_aot/videos/S_production_ID_4765899.mp4	0.0	310.1291003227234	0.7118048667907715
71	214.09006214141846	response	0	2		69.0	2.5	/experiments/knapen_aot/videos/S_production_ID_4765899.mp4	0.0	310.8292872905731	
71	214.1016800403595	movie	1		164.0	69.0	2.5	/experiments/knapen_aot/videos/S_production_ID_4765899.mp4	0.0	310.84090518951416	2.5048539638519287
71	216.60653400421143	fix_post	2		12.0	69.0	2.5	/experiments/knapen_aot/videos/S_production_ID_4765899.mp4	0.0	313.3457591533661	0.100006103515625
72	216.70654010772705	fix_pre	0		53.0	70.0	2.5	/experiments/knapen_aot/videos/R_S_yt-cjndulbUtRc_51.mp4	0.0	313.4457652568817	0.44167089462280273
72	217.14001607894897	response	0	2		70.0	2.5	/experiments/knapen_aot/videos/R_S_yt-cjndulbUtRc_51.mp4	0.0	313.87924122810364	
72	217.14821100234985	movie	1		301.0	70.0	2.5	/experiments/knapen_aot/videos/R_S_yt-cjndulbUtRc_51.mp4	0.0	313.8874361515045	2.5082321166992188
72	219.65644311904907	fix_post	2		12.0	70.0	2.5	/experiments/knapen_aot/videos/R_S_yt-cjndulbUtRc_51.mp4	0.0	316.39566826820374	0.10005998611450195
73	219.75650310516357	fix_pre	0		48.0	71.0	2.5	/experiments/knapen_aot/videos/R_S_yt-6aqg1P9YqR8_38.mp4	0.0	316.49572825431824	0.4006080627441406
73	220.1482651233673	response	0	2		71.0	2.5	/experiments/knapen_aot/videos/R_S_yt-6aqg1P9YqR8_38.mp4	0.0	316.887490272522	
73	220.15711116790771	movie	1		301.0	71.0	2.5	/experiments/knapen_aot/videos/R_S_yt-6aqg1P9YqR8_38.mp4	0.0	316.8963363170624	2.50770902633667
73	222.66482019424438	fix_post	2		12.0	71.0	2.5	/experiments/knapen_aot/videos/R_S_yt-6aqg1P9YqR8_38.mp4	0.0	319.40404534339905	0.1000828742980957
74	222.76490306854248	fix_pre	0		68.0	72.0	2.5	/experiments/knapen_aot/videos/R_S_yt-4x2eUikn9rw_212.mp4	0.0	319.50412821769714	0.566547155380249
74	223.3232820034027	response	0	2		72.0	2.5	/experiments/knapen_aot/videos/R_S_yt-4x2eUikn9rw_212.mp4	0.0	320.0625071525574	
74	223.33145022392273	movie	1		301.0	72.0	2.5	/experiments/knapen_aot/videos/R_S_yt-4x2eUikn9rw_212.mp4	0.0	320.0706753730774	2.5083768367767334
74	225.83982706069946	fix_post	2		12.0	72.0	2.5	/experiments/knapen_aot/videos/R_S_yt-4x2eUikn9rw_212.mp4	0.0	322.5790522098541	0.09996294975280762
75	225.93979001045227	fix_pre	0		57.0	73.0	2.5	/experiments/knapen_aot/videos/S_comp_HK_H004_C013_t9_6M_HB_tag0.mp4	0.0	322.67901515960693	0.47496914863586426
75	226.3990499973297	response	0	2		73.0	2.5	/experiments/knapen_aot/videos/S_comp_HK_H004_C013_t9_6M_HB_tag0.mp4	0.0	323.1382751464844	
75	226.41475915908813	movie	1		171.0	73.0	2.5	/experiments/knapen_aot/videos/S_comp_HK_H004_C013_t9_6M_HB_tag0.mp4	0.0	323.1539843082428	2.5083909034729004
75	228.92315006256104	fix_post	2		12.0	73.0	2.5	/experiments/knapen_aot/videos/S_comp_HK_H004_C013_t9_6M_HB_tag0.mp4	0.0	325.6623752117157	0.09991097450256348
76	229.0230610370636	fix_pre	0		50.0	74.0	2.5	/experiments/knapen_aot/videos/R_S_yt-tHBOlYmaBuk_96.mp4	0.0	325.76228618621826	0.4167051315307617
76	229.4315950870514	response	0	2		74.0	2.5	/experiments/knapen_aot/videos/R_S_yt-tHBOlYmaBuk_96.mp4	0.0	326.17082023620605	
76	229.43976616859436	movie	1		301.0	74.0	2.5	/experiments/knapen_aot/videos/R_S_yt-tHBOlYmaBuk_96.mp4	0.0	326.178991317749	2.5083558559417725
76	231.94812202453613	fix_post	2		12.0	74.0	2.5	/experiments/knapen_aot/videos/R_S_yt-tHBOlYmaBuk_96.mp4	0.0	328.6873471736908	0.09991598129272461
77	232.04803800582886	fix_pre	0		73.0	75.0	2.5	blank	1.0	328.7872631549835	0.6089611053466797
77	232.6482012271881	response	0	2		75.0	2.5	blank	1.0	329.3874263763428	
77	232.65699911117554	movie	1		301.0	75.0	2.5	blank	1.0	329.3962242603302	2.5077359676361084
77	235.16473507881165	fix_post	2		12.0	75.0	2.5	blank	1.0	331.9039602279663	0.10000109672546387
78	235.2647361755371	fix_pre	0		67.0	76.0	2.5	/experiments/knapen_aot/videos/S_ILSVRC2015_train_00465000.mp4	0.0	332.0039613246918	0.5588300228118896
78	235.8148431777954	response	0	2		76.0	2.5	/experiments/knapen_aot/videos/S_ILSVRC2015_train_00465000.mp4	0.0	332.5540683269501	
78	235.823566198349	movie	1		301.0	76.0	2.5	/experiments/knapen_aot/videos/S_ILSVRC2015_train_00465000.mp4	0.0	332.56279134750366	2.5078678131103516
78	238.33143401145935	fix_post	2		12.0	76.0	2.5	/experiments/knapen_aot/videos/S_ILSVRC2015_train_00465000.mp4	0.0	335.070659160614	0.09998512268066406
79	238.43141913414001	fix_pre	0		46.0	77.0	2.5	/experiments/knapen_aot/videos/S_yt-4x2eUikn9rw_212.mp4	0.0	335.1706442832947	0.3833000659942627
79	238.7991111278534	response	0	2		77.0	2.5	/experiments/knapen_aot/videos/S_yt-4x2eUikn9rw_212.mp4	0.0	335.53833627700806	
79	238.81471920013428	movie	1		301.0	77.0	2.5	/experiments/knapen_aot/videos/S_yt-4x2eUikn9rw_212.mp4	0.0	335.55394434928894	2.5083658695220947
79	241.32308506965637	fix_post	2		12.0	77.0	2.5	/experiments/knapen_aot/videos/S_yt-4x2eUikn9rw_212.mp4	0.0	338.06231021881104	0.09999299049377441
80	241.42307806015015	fix_pre	0		55.0	78.0	2.5	/experiments/knapen_aot/videos/R_S_yt-GWOOQZ19-oU_331.mp4	0.0	338.1623032093048	0.45841097831726074
80	241.8732352256775	response	0	2		78.0	2.5	/experiments/knapen_aot/videos/R_S_yt-GWOOQZ19-oU_331.mp4	0.0	338.61246037483215	
80	241.8814890384674	movie	1		300.0	78.0	2.5	/experiments/knapen_aot/videos/R_S_yt-GWOOQZ19-oU_331.mp4	0.0	338.62071418762207	2.5082461833953857
80	244.3897352218628	fix_post	2		12.0	78.0	2.5	/experiments/knapen_aot/videos/R_S_yt-GWOOQZ19-oU_331.mp4	0.0	341.12896037101746	0.10045099258422852
81	244.49018621444702	fix_pre	0		40.0	79.0	2.5	/experiments/knapen_aot/videos/S_ILSVRC2015_train_00404003.mp4	0.0	341.2294113636017	0.3333609104156494
81	244.81487107276917	response	0	2		79.0	2.5	/experiments/knapen_aot/videos/S_ILSVRC2015_train_00404003.mp4	0.0	341.5540962219238	
81	244.82354712486267	movie	1		301.0	79.0	2.5	/experiments/knapen_aot/videos/S_ILSVRC2015_train_00404003.mp4	0.0	341.56277227401733	2.507736921310425
81	247.3312840461731	fix_post	2		12.0	79.0	2.5	/experiments/knapen_aot/videos/S_ILSVRC2015_train_00404003.mp4	0.0	344.07050919532776	0.10006904602050781
82	247.4313530921936	fix_pre	0		68.0	80.0	2.5	/experiments/knapen_aot/videos/S_pexels-nkem-6237382.mp4	0.0	344.17057824134827	0.5667440891265869
82	247.9897952079773	response	0	2		80.0	2.5	/experiments/knapen_aot/videos/S_pexels-nkem-6237382.mp4	0.0	344.72902035713196	
82	247.9980971813202	movie	1		166.0	80.0	2.5	/experiments/knapen_aot/videos/S_pexels-nkem-6237382.mp4	0.0	344.73732233047485	2.508239984512329
82	250.50633716583252	fix_post	2		12.0	80.0	2.5	/experiments/knapen_aot/videos/S_pexels-nkem-6237382.mp4	0.0	347.2455623149872	0.10002493858337402
83	250.6063621044159	fix_pre	0		60.0	81.0	2.5	/experiments/knapen_aot/videos/S_yt-TSSPDwAQLXs_158.mp4	0.0	347.34558725357056	0.49993300437927246
83	251.0981662273407	response	0	2		81.0	2.5	/experiments/knapen_aot/videos/S_yt-TSSPDwAQLXs_158.mp4	0.0	347.83739137649536	
83	251.10629510879517	movie	1		301.0	81.0	2.5	/experiments/knapen_aot/videos/S_yt-TSSPDwAQLXs_158.mp4	0.0	347.84552025794983	2.508924961090088
83	253.61522006988525	fix_post	2		12.0	81.0	2.5	/experiments/knapen_aot/videos/S_yt-TSSPDwAQLXs_158.mp4	0.0	350.3544452190399	0.09943008422851562
84	253.71465015411377	fix_pre	0		55.0	82.0	2.5	blank	1.0	350.45387530326843	0.458327054977417
84	254.16485905647278	response	0	2		82.0	2.5	blank	1.0	350.90408420562744	
84	254.1729772090912	movie	1		301.0	82.0	2.5	blank	1.0	350.91220235824585	2.5083799362182617
84	256.68135714530945	fix_post	2		12.0	82.0	2.5	blank	1.0	353.4205822944641	0.10002398490905762
85	256.7813811302185	fix_pre	0		50.0	83.0	2.5	/experiments/knapen_aot/videos/R_S_flickr-csgzs-8144064966_10.mp4	0.0	353.52060627937317	0.42496204376220703
85	257.1981191635132	response	0	2		83.0	2.5	/experiments/knapen_aot/videos/R_S_flickr-csgzs-8144064966_10.mp4	0.0	353.93734431266785	
85	257.2063431739807	movie	1		301.0	83.0	2.5	/experiments/knapen_aot/videos/R_S_flickr-csgzs-8144064966_10.mp4	0.0	353.9455683231354	2.508424997329712
85	259.7147681713104	fix_post	2		12.0	83.0	2.5	/experiments/knapen_aot/videos/R_S_flickr-csgzs-8144064966_10.mp4	0.0	356.4539933204651	0.09987783432006836
87	259.8146460056305	stim	0		309.0					356.55387115478516	2.5750091075897217
87	262.38223099708557	response	0	space						359.12145614624023	
