trial_nr	onset	event_type	phase	response	nr_frames	movie_index	movie_duration	movie_file	blank	onset_abs	duration
0	0.1325979232788086	stim	0		45.0					105.2993950843811	0.37432408332824707
0	0.49783802032470703	response	0	space						105.664635181427	
1	0.5069220066070557	stim	0		121.0					105.67371916770935	1.0072438716888428
1	1.5141658782958984	stim	1		120.0					106.6809630393982	0.9999380111694336
1	1.7557368278503418	response	1	space						106.92253398895264	
1	2.0807158946990967	response	1	space						107.24751305580139	
1	2.3640358448028564	response	1	space						107.53083300590515	
2	2.514103889465332	fix_pre	0		17.0	0.0	2.5	/experiments/knapen_aot/videos/S_yt-V_2XgfjJfeQ_67.mp4	0.0	107.68090105056763	0.14146709442138672
2	2.6474249362945557	response	0	space		0.0	2.5	/experiments/knapen_aot/videos/S_yt-V_2XgfjJfeQ_67.mp4	0.0	107.81422209739685	
2	2.6555709838867188	movie	1		300.0	0.0	2.5	/experiments/knapen_aot/videos/S_yt-V_2XgfjJfeQ_67.mp4	0.0	107.82236814498901	2.5084328651428223
2	5.164003849029541	fix_post	2		12.0	0.0	2.5	/experiments/knapen_aot/videos/S_yt-V_2XgfjJfeQ_67.mp4	0.0	110.33080101013184	0.0999901294708252
3	5.263993978500366	fix_pre	0		36.0	1.0	2.5	/experiments/knapen_aot/videos/S_yt-rY_ra5Tb9XU_51.mp4	0.0	110.43079113960266	0.29994797706604004
3	5.558775901794434	response	0	4		1.0	2.5	/experiments/knapen_aot/videos/S_yt-rY_ra5Tb9XU_51.mp4	0.0	110.72557306289673	
3	5.563941955566406	movie	1		295.0	1.0	2.5	/experiments/knapen_aot/videos/S_yt-rY_ra5Tb9XU_51.mp4	0.0	110.7307391166687	2.5083508491516113
3	8.072292804718018	fix_post	2		12.0	1.0	2.5	/experiments/knapen_aot/videos/S_yt-rY_ra5Tb9XU_51.mp4	0.0	113.23908996582031	0.10003018379211426
4	8.172322988510132	fix_pre	0		44.0	2.0	2.5	/experiments/knapen_aot/videos/R_S_yt-tfHCqgH1guY_235.mp4	0.0	113.33912014961243	0.36662793159484863
4	8.53073000907898	response	0	4		2.0	2.5	/experiments/knapen_aot/videos/R_S_yt-tfHCqgH1guY_235.mp4	0.0	113.69752717018127	
4	8.53895092010498	movie	1		301.0	2.0	2.5	/experiments/knapen_aot/videos/R_S_yt-tfHCqgH1guY_235.mp4	0.0	113.70574808120728	2.508373975753784
4	8.756536960601807	response	1	4		2.0	2.5	/experiments/knapen_aot/videos/R_S_yt-tfHCqgH1guY_235.mp4	0.0	113.9233341217041	
4	11.047324895858765	fix_post	2		12.0	2.0	2.5	/experiments/knapen_aot/videos/R_S_yt-tfHCqgH1guY_235.mp4	0.0	116.21412205696106	0.10007190704345703
5	11.147396802902222	fix_pre	0		7.0	3.0	2.5	/experiments/knapen_aot/videos/S_yt-gzjV6YoK6X0_3.mp4	0.0	116.31419396400452	0.058181047439575195
5	11.197423934936523	response	0	4		3.0	2.5	/experiments/knapen_aot/videos/S_yt-gzjV6YoK6X0_3.mp4	0.0	116.36422109603882	
5	11.205577850341797	movie	1		301.0	3.0	2.5	/experiments/knapen_aot/videos/S_yt-gzjV6YoK6X0_3.mp4	0.0	116.37237501144409	2.5083930492401123
5	11.37234902381897	response	1	4		3.0	2.5	/experiments/knapen_aot/videos/S_yt-gzjV6YoK6X0_3.mp4	0.0	116.53914618492126	
5	13.71397089958191	fix_post	2		12.0	3.0	2.5	/experiments/knapen_aot/videos/S_yt-gzjV6YoK6X0_3.mp4	0.0	118.8807680606842	0.10000491142272949
6	13.813975811004639	fix_pre	0		38.0	4.0	2.5	/experiments/knapen_aot/videos/S_ILSVRC2015_train_00457000.mp4	0.0	118.98077297210693	0.3174571990966797
6	14.11487889289856	response	0	4		4.0	2.5	/experiments/knapen_aot/videos/S_ILSVRC2015_train_00457000.mp4	0.0	119.28167605400085	
6	14.131433010101318	movie	1		301.0	4.0	2.5	/experiments/knapen_aot/videos/S_ILSVRC2015_train_00457000.mp4	0.0	119.29823017120361	2.5075979232788086
6	14.301530838012695	response	1	4		4.0	2.5	/experiments/knapen_aot/videos/S_ILSVRC2015_train_00457000.mp4	0.0	119.46832799911499	
6	16.639030933380127	fix_post	2		12.0	4.0	2.5	/experiments/knapen_aot/videos/S_ILSVRC2015_train_00457000.mp4	0.0	121.80582809448242	0.09987688064575195
7	16.73890781402588	fix_pre	0		12.0	5.0	2.5	/experiments/knapen_aot/videos/S_yt-2IxVZeiSv3g_28.mp4	0.0	121.90570497512817	0.10081315040588379
7	16.823179006576538	response	0	4		5.0	2.5	/experiments/knapen_aot/videos/S_yt-2IxVZeiSv3g_28.mp4	0.0	121.98997616767883	
7	16.839720964431763	movie	1		301.0	5.0	2.5	/experiments/knapen_aot/videos/S_yt-2IxVZeiSv3g_28.mp4	0.0	122.00651812553406	2.507551908493042
7	17.07233691215515	response	1	4		5.0	2.5	/experiments/knapen_aot/videos/S_yt-2IxVZeiSv3g_28.mp4	0.0	122.23913407325745	
7	19.347272872924805	fix_post	2		12.0	5.0	2.5	/experiments/knapen_aot/videos/S_yt-2IxVZeiSv3g_28.mp4	0.0	124.5140700340271	0.10000014305114746
7	19.414016008377075	response	2	4		5.0	2.5	/experiments/knapen_aot/videos/S_yt-2IxVZeiSv3g_28.mp4	0.0	124.58081316947937	
8	19.447273015975952	fix_pre	0		40.0	6.0	2.5	blank	1.0	124.61407017707825	0.3333618640899658
8	19.77240800857544	response	0	4		6.0	2.5	blank	1.0	124.93920516967773	
8	19.780634880065918	movie	1		301.0	6.0	2.5	blank	1.0	124.94743204116821	2.5083389282226562
8	22.288973808288574	fix_post	2		12.0	6.0	2.5	blank	1.0	127.45577096939087	0.09999418258666992
9	22.388967990875244	fix_pre	0		14.0	7.0	2.5	/experiments/knapen_aot/videos/S_yt-uT4MXm0UBJM_64.mp4	0.0	127.55576515197754	0.11727380752563477
9	22.497355937957764	response	0	4		7.0	2.5	/experiments/knapen_aot/videos/S_yt-uT4MXm0UBJM_64.mp4	0.0	127.66415309906006	
9	22.50624179840088	movie	1		301.0	7.0	2.5	/experiments/knapen_aot/videos/S_yt-uT4MXm0UBJM_64.mp4	0.0	127.67303895950317	2.5077290534973145
9	25.013970851898193	fix_post	2		12.0	7.0	2.5	/experiments/knapen_aot/videos/S_yt-uT4MXm0UBJM_64.mp4	0.0	130.1807680130005	0.09996199607849121
10	25.113932847976685	fix_pre	0		21.0	8.0	2.5	/experiments/knapen_aot/videos/S_ILSVRC2015_train_00495000.mp4	0.0	130.28073000907898	0.1749711036682129
10	25.28073000907898	response	0	4		8.0	2.5	/experiments/knapen_aot/videos/S_ILSVRC2015_train_00495000.mp4	0.0	130.44752717018127	
10	25.288903951644897	movie	1		301.0	8.0	2.5	/experiments/knapen_aot/videos/S_ILSVRC2015_train_00495000.mp4	0.0	130.4557011127472	2.5083489418029785
10	27.797252893447876	fix_post	2		12.0	8.0	2.5	/experiments/knapen_aot/videos/S_ILSVRC2015_train_00495000.mp4	0.0	132.96405005455017	0.10001707077026367
11	27.89726996421814	fix_pre	0		27.0	9.0	2.5	/experiments/knapen_aot/videos/S_yt-7W50lcw5FCo_37.mp4	0.0	133.06406712532043	0.2249438762664795
11	28.11398983001709	response	0	4		9.0	2.5	/experiments/knapen_aot/videos/S_yt-7W50lcw5FCo_37.mp4	0.0	133.28078699111938	
11	28.12221384048462	movie	1		301.0	9.0	2.5	/experiments/knapen_aot/videos/S_yt-7W50lcw5FCo_37.mp4	0.0	133.2890110015869	2.5083301067352295
11	30.63054394721985	fix_post	2		12.0	9.0	2.5	/experiments/knapen_aot/videos/S_yt-7W50lcw5FCo_37.mp4	0.0	135.79734110832214	0.10005593299865723
12	30.730599880218506	fix_pre	0		35.0	10.0	2.5	/experiments/knapen_aot/videos/R_S_yt-EAMpitsjbbA_153.mp4	0.0	135.8973970413208	0.2916131019592285
12	31.013978958129883	response	0	4		10.0	2.5	/experiments/knapen_aot/videos/R_S_yt-EAMpitsjbbA_153.mp4	0.0	136.18077611923218	
12	31.022212982177734	movie	1		301.0	10.0	2.5	/experiments/knapen_aot/videos/R_S_yt-EAMpitsjbbA_153.mp4	0.0	136.18901014328003	2.508352041244507
12	33.53056502342224	fix_post	2		12.0	10.0	2.5	/experiments/knapen_aot/videos/R_S_yt-EAMpitsjbbA_153.mp4	0.0	138.69736218452454	0.09993886947631836
13	33.63050389289856	fix_pre	0		35.0	11.0	2.5	/experiments/knapen_aot/videos/S_yt-bWXohhodbjg_98.mp4	0.0	138.79730105400085	0.2923269271850586
13	33.913995027542114	response	0	4		11.0	2.5	/experiments/knapen_aot/videos/S_yt-bWXohhodbjg_98.mp4	0.0	139.0807921886444	
13	33.92283082008362	movie	1		301.0	11.0	2.5	/experiments/knapen_aot/videos/S_yt-bWXohhodbjg_98.mp4	0.0	139.0896279811859	2.507784128189087
13	36.430614948272705	fix_post	2		12.0	11.0	2.5	/experiments/knapen_aot/videos/S_yt-bWXohhodbjg_98.mp4	0.0	141.597412109375	0.09988188743591309
14	36.53049683570862	fix_pre	0		75.0	12.0	2.5	/experiments/knapen_aot/videos/R_S_yt-PRqnM7xDsus_24.mp4	0.0	141.6972939968109	0.6249451637268066
14	37.13974595069885	response	0	4		12.0	2.5	/experiments/knapen_aot/videos/R_S_yt-PRqnM7xDsus_24.mp4	0.0	142.30654311180115	
14	37.155441999435425	movie	1		301.0	12.0	2.5	/experiments/knapen_aot/videos/R_S_yt-PRqnM7xDsus_24.mp4	0.0	142.32223916053772	2.50862979888916
14	39.664071798324585	fix_post	2		12.0	12.0	2.5	/experiments/knapen_aot/videos/R_S_yt-PRqnM7xDsus_24.mp4	0.0	144.83086895942688	0.09975123405456543
15	39.76382303237915	fix_pre	0		30.0	13.0	2.5	/experiments/knapen_aot/videos/R_S_yt-XtzmBXKYEWk_60.mp4	0.0	144.93062019348145	0.2500448226928711
15	40.00562882423401	response	0	4		13.0	2.5	/experiments/knapen_aot/videos/R_S_yt-XtzmBXKYEWk_60.mp4	0.0	145.1724259853363	
15	40.01386785507202	movie	1		301.0	13.0	2.5	/experiments/knapen_aot/videos/R_S_yt-XtzmBXKYEWk_60.mp4	0.0	145.18066501617432	2.508392095565796
15	42.52225995063782	fix_post	2		12.0	13.0	2.5	/experiments/knapen_aot/videos/R_S_yt-XtzmBXKYEWk_60.mp4	0.0	147.6890571117401	0.0998690128326416
16	42.62212896347046	fix_pre	0		35.0	14.0	2.5	blank	1.0	147.78892612457275	0.29172396659851074
16	42.905653953552246	response	0	4		14.0	2.5	blank	1.0	148.07245111465454	
16	42.91385293006897	movie	1		301.0	14.0	2.5	blank	1.0	148.08065009117126	2.5083000659942627
16	45.05560088157654	response	1	4		14.0	2.5	blank	1.0	150.22239804267883	
16	45.42215299606323	fix_post	2		12.0	14.0	2.5	blank	1.0	150.58895015716553	0.10002899169921875
17	45.52218198776245	fix_pre	0		14.0	15.0	2.5	/experiments/knapen_aot/videos/R_S_yt-BQixB0mumIk_169.mp4	0.0	150.68897914886475	0.1166079044342041
17	45.63057994842529	response	0	4		15.0	2.5	/experiments/knapen_aot/videos/R_S_yt-BQixB0mumIk_169.mp4	0.0	150.7973771095276	
17	45.638789892196655	movie	1		301.0	15.0	2.5	/experiments/knapen_aot/videos/R_S_yt-BQixB0mumIk_169.mp4	0.0	150.80558705329895	2.5082950592041016
17	48.14708495140076	fix_post	2		12.0	15.0	2.5	/experiments/knapen_aot/videos/R_S_yt-BQixB0mumIk_169.mp4	0.0	153.31388211250305	0.09996485710144043
18	48.2470498085022	fix_pre	0		22.0	16.0	2.5	/experiments/knapen_aot/videos/S_yt-CZ2qiY-kS7Y_105.mp4	0.0	153.4138469696045	0.1832880973815918
18	48.42222499847412	response	0	4		16.0	2.5	/experiments/knapen_aot/videos/S_yt-CZ2qiY-kS7Y_105.mp4	0.0	153.58902215957642	
18	48.43033790588379	movie	1		301.0	16.0	2.5	/experiments/knapen_aot/videos/S_yt-CZ2qiY-kS7Y_105.mp4	0.0	153.59713506698608	2.5083959102630615
18	50.93873381614685	fix_post	2		12.0	16.0	2.5	/experiments/knapen_aot/videos/S_yt-CZ2qiY-kS7Y_105.mp4	0.0	156.10553097724915	0.1000361442565918
19	51.03876996040344	fix_pre	0		3.0	17.0	2.5	/experiments/knapen_aot/videos/S_ahJft-G235A_122.mp4	0.0	156.20556712150574	0.0249788761138916
19	51.05545997619629	response	0	4		17.0	2.5	/experiments/knapen_aot/videos/S_ahJft-G235A_122.mp4	0.0	156.22225713729858	
19	51.063748836517334	movie	1		301.0	17.0	2.5	/experiments/knapen_aot/videos/S_ahJft-G235A_122.mp4	0.0	156.23054599761963	2.508316993713379
19	53.3670699596405	response	1	4		17.0	2.5	/experiments/knapen_aot/videos/S_ahJft-G235A_122.mp4	0.0	158.5338671207428	
19	53.57206583023071	fix_post	2		12.0	17.0	2.5	/experiments/knapen_aot/videos/S_ahJft-G235A_122.mp4	0.0	158.738862991333	0.09996509552001953
20	53.67203092575073	fix_pre	0		34.0	18.0	2.5	/experiments/knapen_aot/videos/R_S_yt-BqJHT4K7Qf8_127.mp4	0.0	158.83882808685303	0.2833399772644043
20	53.94718384742737	response	0	4		18.0	2.5	/experiments/knapen_aot/videos/R_S_yt-BqJHT4K7Qf8_127.mp4	0.0	159.11398100852966	
20	53.95537090301514	movie	1		301.0	18.0	2.5	/experiments/knapen_aot/videos/R_S_yt-BqJHT4K7Qf8_127.mp4	0.0	159.12216806411743	2.5085599422454834
20	56.46393084526062	fix_post	2		12.0	18.0	2.5	/experiments/knapen_aot/videos/R_S_yt-BqJHT4K7Qf8_127.mp4	0.0	161.63072800636292	0.09983301162719727
21	56.56376385688782	fix_pre	0		12.0	19.0	2.5	blank	1.0	161.7305610179901	0.0999441146850586
21	56.655431032180786	response	0	4		19.0	2.5	blank	1.0	161.82222819328308	
21	56.663707971572876	movie	1		301.0	19.0	2.5	blank	1.0	161.83050513267517	2.5083649158477783
21	59.172072887420654	fix_post	2		12.0	19.0	2.5	blank	1.0	164.33887004852295	0.10003900527954102
22	59.272111892700195	fix_pre	0		25.0	20.0	2.5	/experiments/knapen_aot/videos/R_S_yt-hdZEAsVBEEM_19.mp4	0.0	164.4389090538025	0.20819401741027832
22	59.47218680381775	response	0	4		20.0	2.5	/experiments/knapen_aot/videos/R_S_yt-hdZEAsVBEEM_19.mp4	0.0	164.63898396492004	
22	59.480305910110474	movie	1		301.0	20.0	2.5	/experiments/knapen_aot/videos/R_S_yt-hdZEAsVBEEM_19.mp4	0.0	164.64710307121277	2.5083889961242676
22	61.98869490623474	fix_post	2		12.0	20.0	2.5	/experiments/knapen_aot/videos/R_S_yt-hdZEAsVBEEM_19.mp4	0.0	167.15549206733704	0.10021209716796875
23	62.08890700340271	fix_pre	0		16.0	21.0	2.5	/experiments/knapen_aot/videos/R_S_BO_A014_C008_SDR_20190719_SDR_2K_AVC.mp4	0.0	167.255704164505	0.13312983512878418
23	62.206387996673584	response	0	4		21.0	2.5	/experiments/knapen_aot/videos/R_S_BO_A014_C008_SDR_20190719_SDR_2K_AVC.mp4	0.0	167.37318515777588	
23	62.222036838531494	movie	1		182.0	21.0	2.5	/experiments/knapen_aot/videos/R_S_BO_A014_C008_SDR_20190719_SDR_2K_AVC.mp4	0.0	167.3888339996338	2.508373975753784
23	64.3223569393158	response	1	4		21.0	2.5	/experiments/knapen_aot/videos/R_S_BO_A014_C008_SDR_20190719_SDR_2K_AVC.mp4	0.0	169.4891541004181	
23	64.73041081428528	fix_post	2		12.0	21.0	2.5	/experiments/knapen_aot/videos/R_S_BO_A014_C008_SDR_20190719_SDR_2K_AVC.mp4	0.0	169.89720797538757	0.09991908073425293
24	64.83032989501953	fix_pre	0		111.0	22.0	2.5	/experiments/knapen_aot/videos/S_yt-z16pdVTZK1o_3.mp4	0.0	169.99712705612183	0.9256319999694824
24	65.74715900421143	response	0	4		22.0	2.5	/experiments/knapen_aot/videos/S_yt-z16pdVTZK1o_3.mp4	0.0	170.91395616531372	
24	65.75596189498901	movie	1		301.0	22.0	2.5	/experiments/knapen_aot/videos/S_yt-z16pdVTZK1o_3.mp4	0.0	170.9227590560913	2.507791042327881
24	68.2637529373169	fix_post	2		12.0	22.0	2.5	/experiments/knapen_aot/videos/S_yt-z16pdVTZK1o_3.mp4	0.0	173.4305500984192	0.0999760627746582
25	68.36372900009155	fix_pre	0		28.0	23.0	2.5	/experiments/knapen_aot/videos/S_yt-bH4nJibL4Jo_164.mp4	0.0	173.53052616119385	0.23333191871643066
25	68.58881998062134	response	0	4		23.0	2.5	/experiments/knapen_aot/videos/S_yt-bH4nJibL4Jo_164.mp4	0.0	173.75561714172363	
25	68.59706091880798	movie	1		301.0	23.0	2.5	/experiments/knapen_aot/videos/S_yt-bH4nJibL4Jo_164.mp4	0.0	173.76385807991028	2.5083940029144287
25	71.10545492172241	fix_post	2		12.0	23.0	2.5	/experiments/knapen_aot/videos/S_yt-bH4nJibL4Jo_164.mp4	0.0	176.2722520828247	0.09989595413208008
25	71.11377501487732	response	2	4		23.0	2.5	/experiments/knapen_aot/videos/S_yt-bH4nJibL4Jo_164.mp4	0.0	176.28057217597961	
26	71.20535087585449	fix_pre	0		53.0	24.0	2.5	/experiments/knapen_aot/videos/R_S_yt-XRQ_LSGGr3Y_712.mp4	0.0	176.3721480369568	0.44165611267089844
26	71.63876795768738	response	0	4		24.0	2.5	/experiments/knapen_aot/videos/R_S_yt-XRQ_LSGGr3Y_712.mp4	0.0	176.80556511878967	
26	71.64700698852539	movie	1		301.0	24.0	2.5	/experiments/knapen_aot/videos/R_S_yt-XRQ_LSGGr3Y_712.mp4	0.0	176.81380414962769	2.508330821990967
26	74.15533781051636	fix_post	2		12.0	24.0	2.5	/experiments/knapen_aot/videos/R_S_yt-XRQ_LSGGr3Y_712.mp4	0.0	179.32213497161865	0.09998202323913574
27	74.2553198337555	fix_pre	0		167.0	25.0	2.5	/experiments/knapen_aot/videos/R_S_yt-BLmwmX-mni8_1030.mp4	0.0	179.4221169948578	1.3916630744934082
27	75.63881301879883	response	0	4		25.0	2.5	/experiments/knapen_aot/videos/R_S_yt-BLmwmX-mni8_1030.mp4	0.0	180.80561017990112	
27	75.6469829082489	movie	1		301.0	25.0	2.5	/experiments/knapen_aot/videos/R_S_yt-BLmwmX-mni8_1030.mp4	0.0	180.8137800693512	2.508430004119873
27	78.15541291236877	fix_post	2		12.0	25.0	2.5	/experiments/knapen_aot/videos/R_S_yt-BLmwmX-mni8_1030.mp4	0.0	183.32221007347107	0.1006309986114502
28	78.25604391098022	fix_pre	0		33.0	26.0	2.5	blank	1.0	183.42284107208252	0.27431702613830566
28	78.5221049785614	response	0	4		26.0	2.5	blank	1.0	183.6889021396637	
28	78.53036093711853	movie	1		301.0	26.0	2.5	blank	1.0	183.69715809822083	2.508296012878418
28	81.03865694999695	fix_post	2		12.0	26.0	2.5	blank	1.0	186.20545411109924	0.09996891021728516
29	81.13862586021423	fix_pre	0		29.0	27.0	2.5	/experiments/knapen_aot/videos/S_production_ID_4121250.mp4	0.0	186.30542302131653	0.2420639991760254
29	81.37206196784973	response	0	4		27.0	2.5	/experiments/knapen_aot/videos/S_production_ID_4121250.mp4	0.0	186.53885912895203	
29	81.38068985939026	movie	1		181.0	27.0	2.5	/experiments/knapen_aot/videos/S_production_ID_4121250.mp4	0.0	186.54748702049255	2.5079309940338135
29	83.0540509223938	response	1	4		27.0	2.5	/experiments/knapen_aot/videos/S_production_ID_4121250.mp4	0.0	188.2208480834961	
29	83.63765597343445	response	1	4		27.0	2.5	/experiments/knapen_aot/videos/S_production_ID_4121250.mp4	0.0	188.80445313453674	
29	83.88862085342407	fix_post	2		12.0	27.0	2.5	/experiments/knapen_aot/videos/S_production_ID_4121250.mp4	0.0	189.05541801452637	0.09999608993530273
30	83.98861694335938	fix_pre	0		51.0	28.0	2.5	/experiments/knapen_aot/videos/R_S_yt-DmlSN7mzczI_62.mp4	0.0	189.15541410446167	0.4249279499053955
30	84.40541195869446	response	0	4		28.0	2.5	/experiments/knapen_aot/videos/R_S_yt-DmlSN7mzczI_62.mp4	0.0	189.57220911979675	
30	84.41354489326477	movie	1		301.0	28.0	2.5	/experiments/knapen_aot/videos/R_S_yt-DmlSN7mzczI_62.mp4	0.0	189.58034205436707	2.5084049701690674
30	85.6836998462677	response	1	4		28.0	2.5	/experiments/knapen_aot/videos/R_S_yt-DmlSN7mzczI_62.mp4	0.0	190.85049700737	
30	86.92194986343384	fix_post	2		12.0	28.0	2.5	/experiments/knapen_aot/videos/R_S_yt-DmlSN7mzczI_62.mp4	0.0	192.08874702453613	0.10001206398010254
31	87.02196192741394	fix_pre	0		305.0	29.0	2.5	/experiments/knapen_aot/videos/S_flickr-southeasternstar-3464778323_10.mp4	0.0	192.18875908851624	2.5415918827056885
31	89.55544400215149	response	0	4		29.0	2.5	/experiments/knapen_aot/videos/S_flickr-southeasternstar-3464778323_10.mp4	0.0	194.72224116325378	
31	89.56355381011963	movie	1		301.0	29.0	2.5	/experiments/knapen_aot/videos/S_flickr-southeasternstar-3464778323_10.mp4	0.0	194.73035097122192	2.508371114730835
31	92.07192492485046	fix_post	2		12.0	29.0	2.5	/experiments/knapen_aot/videos/S_flickr-southeasternstar-3464778323_10.mp4	0.0	197.23872208595276	0.10043001174926758
32	92.17235493659973	fix_pre	0		215.0	30.0	2.5	/experiments/knapen_aot/videos/R_S_yt-H611SOb1T78_189.mp4	0.0	197.33915209770203	1.791579008102417
32	93.95541596412659	response	0	4		30.0	2.5	/experiments/knapen_aot/videos/R_S_yt-H611SOb1T78_189.mp4	0.0	199.12221312522888	
32	93.96393394470215	movie	1		301.0	30.0	2.5	/experiments/knapen_aot/videos/R_S_yt-H611SOb1T78_189.mp4	0.0	199.13073110580444	2.5080249309539795
32	96.47195887565613	fix_post	2		12.0	30.0	2.5	/experiments/knapen_aot/videos/R_S_yt-H611SOb1T78_189.mp4	0.0	201.63875603675842	0.09995913505554199
33	96.57191801071167	fix_pre	0		25.0	31.0	2.5	/experiments/knapen_aot/videos/S_yt-IigHVUksnw8_7.mp4	0.0	201.73871517181396	0.2082958221435547
33	96.77205085754395	response	0	4		31.0	2.5	/experiments/knapen_aot/videos/S_yt-IigHVUksnw8_7.mp4	0.0	201.93884801864624	
33	96.78021383285522	movie	1		301.0	31.0	2.5	/experiments/knapen_aot/videos/S_yt-IigHVUksnw8_7.mp4	0.0	201.94701099395752	2.5082921981811523
33	99.28850603103638	fix_post	2		12.0	31.0	2.5	/experiments/knapen_aot/videos/S_yt-IigHVUksnw8_7.mp4	0.0	204.45530319213867	0.10004281997680664
34	99.38854885101318	fix_pre	0		45.0	32.0	2.5	/experiments/knapen_aot/videos/S_yt-Jro_TRE8NUQ_234.mp4	0.0	204.55534601211548	0.3749840259552002
34	99.75534296035767	response	0	4		32.0	2.5	/experiments/knapen_aot/videos/S_yt-Jro_TRE8NUQ_234.mp4	0.0	204.92214012145996	
34	99.76353287696838	movie	1		301.0	32.0	2.5	/experiments/knapen_aot/videos/S_yt-Jro_TRE8NUQ_234.mp4	0.0	204.93033003807068	2.5084331035614014
34	102.27196598052979	fix_post	2		12.0	32.0	2.5	/experiments/knapen_aot/videos/S_yt-Jro_TRE8NUQ_234.mp4	0.0	207.43876314163208	0.09996604919433594
35	102.37193202972412	fix_pre	0		19.0	33.0	2.5	/experiments/knapen_aot/videos/R_S_yt-isJga8ec5UM_32.mp4	0.0	207.53872919082642	0.15826082229614258
35	102.51443290710449	response	0	4		33.0	2.5	/experiments/knapen_aot/videos/R_S_yt-isJga8ec5UM_32.mp4	0.0	207.6812300682068	
35	102.53019285202026	movie	1		301.0	33.0	2.5	/experiments/knapen_aot/videos/R_S_yt-isJga8ec5UM_32.mp4	0.0	207.69699001312256	2.508327007293701
35	105.03851985931396	fix_post	2		12.0	33.0	2.5	/experiments/knapen_aot/videos/R_S_yt-isJga8ec5UM_32.mp4	0.0	210.20531702041626	0.10004997253417969
36	105.13856983184814	fix_pre	0		29.0	34.0	2.5	/experiments/knapen_aot/videos/S_comp_HK_H004_C008_PSNK_v19_SDR_PS_20180914_SDR_2K_AVC.mp4	0.0	210.30536699295044	0.24189114570617676
36	105.37190580368042	response	0	4		34.0	2.5	/experiments/knapen_aot/videos/S_comp_HK_H004_C008_PSNK_v19_SDR_PS_20180914_SDR_2K_AVC.mp4	0.0	210.53870296478271	
36	105.38046097755432	movie	1		165.0	34.0	2.5	/experiments/knapen_aot/videos/S_comp_HK_H004_C008_PSNK_v19_SDR_PS_20180914_SDR_2K_AVC.mp4	0.0	210.54725813865662	2.5080559253692627
36	107.88851690292358	fix_post	2		12.0	34.0	2.5	/experiments/knapen_aot/videos/S_comp_HK_H004_C008_PSNK_v19_SDR_PS_20180914_SDR_2K_AVC.mp4	0.0	213.05531406402588	0.10002994537353516
37	107.98854684829712	fix_pre	0		35.0	35.0	2.5	blank	1.0	213.1553440093994	0.2916381359100342
37	108.2719898223877	response	0	4		35.0	2.5	blank	1.0	213.43878698349	
37	108.28018498420715	movie	1		301.0	35.0	2.5	blank	1.0	213.44698214530945	2.508404016494751
37	110.7885890007019	fix_post	2		12.0	35.0	2.5	blank	1.0	215.9553861618042	0.09995388984680176
38	110.8885428905487	fix_pre	0		349.0	36.0	2.5	/experiments/knapen_aot/videos/R_S_yt-jy7rAnpu0u8_128.mp4	0.0	216.055340051651	2.9085190296173096
38	113.78854298591614	response	0	4		36.0	2.5	/experiments/knapen_aot/videos/R_S_yt-jy7rAnpu0u8_128.mp4	0.0	218.95534014701843	
38	113.79706192016602	movie	1		301.0	36.0	2.5	/experiments/knapen_aot/videos/R_S_yt-jy7rAnpu0u8_128.mp4	0.0	218.9638590812683	2.5081300735473633
38	116.30519199371338	fix_post	2		12.0	36.0	2.5	/experiments/knapen_aot/videos/R_S_yt-jy7rAnpu0u8_128.mp4	0.0	221.47198915481567	0.1000368595123291
39	116.40522885322571	fix_pre	0		31.0	37.0	2.5	/experiments/knapen_aot/videos/S_yt-XYULt48onn4_6.mp4	0.0	221.572026014328	0.2581920623779297
39	116.65523386001587	response	0	4		37.0	2.5	/experiments/knapen_aot/videos/S_yt-XYULt48onn4_6.mp4	0.0	221.82203102111816	
39	116.66342091560364	movie	1		301.0	37.0	2.5	/experiments/knapen_aot/videos/S_yt-XYULt48onn4_6.mp4	0.0	221.83021807670593	2.5083229541778564
39	119.1717438697815	fix_post	2		12.0	37.0	2.5	/experiments/knapen_aot/videos/S_yt-XYULt48onn4_6.mp4	0.0	224.3385410308838	0.10015416145324707
40	119.27189803123474	fix_pre	0		59.0	38.0	2.5	/experiments/knapen_aot/videos/S_yt-BDCyXL5e9S4_223.mp4	0.0	224.43869519233704	0.4915449619293213
40	119.75525689125061	response	0	4		38.0	2.5	/experiments/knapen_aot/videos/S_yt-BDCyXL5e9S4_223.mp4	0.0	224.9220540523529	
40	119.76344299316406	movie	1		301.0	38.0	2.5	/experiments/knapen_aot/videos/S_yt-BDCyXL5e9S4_223.mp4	0.0	224.93024015426636	2.5084288120269775
40	122.27187180519104	fix_post	2		12.0	38.0	2.5	/experiments/knapen_aot/videos/S_yt-BDCyXL5e9S4_223.mp4	0.0	227.43866896629333	0.10005617141723633
41	122.37192797660828	fix_pre	0		52.0	39.0	2.5	/experiments/knapen_aot/videos/S_comp_GL_G004_C010_PSNK_v04_SDR_PS_FINAL_20180709_SDR_2K_AVC.mp4	0.0	227.53872513771057	0.4332308769226074
41	122.7969069480896	response	0	4		39.0	2.5	/experiments/knapen_aot/videos/S_comp_GL_G004_C010_PSNK_v04_SDR_PS_FINAL_20180709_SDR_2K_AVC.mp4	0.0	227.9637041091919	
41	122.80515885353088	movie	1		166.0	39.0	2.5	/experiments/knapen_aot/videos/S_comp_GL_G004_C010_PSNK_v04_SDR_PS_FINAL_20180709_SDR_2K_AVC.mp4	0.0	227.97195601463318	2.5085270404815674
41	125.31368589401245	fix_post	2		12.0	39.0	2.5	/experiments/knapen_aot/videos/S_comp_GL_G004_C010_PSNK_v04_SDR_PS_FINAL_20180709_SDR_2K_AVC.mp4	0.0	230.48048305511475	0.09982013702392578
42	125.41350603103638	fix_pre	0		40.0	40.0	2.5	/experiments/knapen_aot/videos/S_yt-6MwA-jx56AQ_612.mp4	0.0	230.58030319213867	0.3332939147949219
42	125.73861002922058	response	0	4		40.0	2.5	/experiments/knapen_aot/videos/S_yt-6MwA-jx56AQ_612.mp4	0.0	230.90540719032288	
42	125.7467999458313	movie	1		301.0	40.0	2.5	/experiments/knapen_aot/videos/S_yt-6MwA-jx56AQ_612.mp4	0.0	230.9135971069336	2.5083699226379395
42	128.25516986846924	fix_post	2		12.0	40.0	2.5	/experiments/knapen_aot/videos/S_yt-6MwA-jx56AQ_612.mp4	0.0	233.42196702957153	0.09989714622497559
43	128.3550670146942	fix_pre	0		159.0	41.0	2.5	blank	1.0	233.5218641757965	1.3249709606170654
43	129.67190885543823	response	0	4		41.0	2.5	blank	1.0	234.83870601654053	
43	129.68003797531128	movie	1		301.0	41.0	2.5	blank	1.0	234.84683513641357	2.508430004119873
43	132.18846797943115	fix_post	2		12.0	41.0	2.5	blank	1.0	237.35526514053345	0.1000669002532959
43	132.2301619052887	response	2	4		41.0	2.5	blank	1.0	237.396959066391	
44	132.28853487968445	fix_pre	0		58.0	42.0	2.5	/experiments/knapen_aot/videos/S_flickr-53807584@N00-5565833509_7.mp4	0.0	237.45533204078674	0.4831111431121826
44	132.76356101036072	response	0	4		42.0	2.5	/experiments/knapen_aot/videos/S_flickr-53807584@N00-5565833509_7.mp4	0.0	237.930358171463	
44	132.77164602279663	movie	1		301.0	42.0	2.5	/experiments/knapen_aot/videos/S_flickr-53807584@N00-5565833509_7.mp4	0.0	237.93844318389893	2.508657932281494
44	135.28030395507812	fix_post	2		12.0	42.0	2.5	/experiments/knapen_aot/videos/S_flickr-53807584@N00-5565833509_7.mp4	0.0	240.44710111618042	0.09998703002929688
45	135.38029098510742	fix_pre	0		45.0	43.0	2.5	/experiments/knapen_aot/videos/R_S_video_inspire_nevada_lasvegas_northstrip_021.1080-h264.mp4	0.0	240.54708814620972	0.3748910427093506
45	135.74681496620178	response	0	4		43.0	2.5	/experiments/knapen_aot/videos/R_S_video_inspire_nevada_lasvegas_northstrip_021.1080-h264.mp4	0.0	240.91361212730408	
45	135.75518202781677	movie	1		168.0	43.0	2.5	/experiments/knapen_aot/videos/R_S_video_inspire_nevada_lasvegas_northstrip_021.1080-h264.mp4	0.0	240.92197918891907	2.508197784423828
45	137.66359782218933	response	1	4		43.0	2.5	/experiments/knapen_aot/videos/R_S_video_inspire_nevada_lasvegas_northstrip_021.1080-h264.mp4	0.0	242.83039498329163	
45	138.2633798122406	fix_post	2		12.0	43.0	2.5	/experiments/knapen_aot/videos/R_S_video_inspire_nevada_lasvegas_northstrip_021.1080-h264.mp4	0.0	243.4301769733429	0.09997010231018066
46	138.36334991455078	fix_pre	0		44.0	44.0	2.5	/experiments/knapen_aot/videos/R_S_yt-Fm97IY0Z2LU_79.mp4	0.0	243.53014707565308	0.3666059970855713
46	138.7218418121338	response	0	4		44.0	2.5	/experiments/knapen_aot/videos/R_S_yt-Fm97IY0Z2LU_79.mp4	0.0	243.88863897323608	
46	138.72995591163635	movie	1		301.0	44.0	2.5	/experiments/knapen_aot/videos/R_S_yt-Fm97IY0Z2LU_79.mp4	0.0	243.89675307273865	2.508466958999634
46	141.0135519504547	response	1	4		44.0	2.5	/experiments/knapen_aot/videos/R_S_yt-Fm97IY0Z2LU_79.mp4	0.0	246.180349111557	
46	141.238422870636	fix_post	2		12.0	44.0	2.5	/experiments/knapen_aot/videos/R_S_yt-Fm97IY0Z2LU_79.mp4	0.0	246.40522003173828	0.10014104843139648
47	141.33856391906738	fix_pre	0		218.0	45.0	2.5	/experiments/knapen_aot/videos/R_S_yt-e1RAhIW6WAs_535.mp4	0.0	246.50536108016968	1.8164410591125488
47	143.14677691459656	response	0	4		45.0	2.5	/experiments/knapen_aot/videos/R_S_yt-e1RAhIW6WAs_535.mp4	0.0	248.31357407569885	
47	143.15500497817993	movie	1		301.0	45.0	2.5	/experiments/knapen_aot/videos/R_S_yt-e1RAhIW6WAs_535.mp4	0.0	248.32180213928223	2.508359909057617
47	145.66336488723755	fix_post	2		12.0	45.0	2.5	/experiments/knapen_aot/videos/R_S_yt-e1RAhIW6WAs_535.mp4	0.0	250.83016204833984	0.10002708435058594
48	145.76339197158813	fix_pre	0		26.0	46.0	2.5	/experiments/knapen_aot/videos/R_S_yt-tX5U0Lyo6Gs_376.mp4	0.0	250.93018913269043	0.21663689613342285
48	145.971834897995	response	0	4		46.0	2.5	/experiments/knapen_aot/videos/R_S_yt-tX5U0Lyo6Gs_376.mp4	0.0	251.1386320590973	
48	145.98002886772156	movie	1		300.0	46.0	2.5	/experiments/knapen_aot/videos/R_S_yt-tX5U0Lyo6Gs_376.mp4	0.0	251.14682602882385	2.5083460807800293
48	147.41498398780823	response	1	4		46.0	2.5	/experiments/knapen_aot/videos/R_S_yt-tX5U0Lyo6Gs_376.mp4	0.0	252.58178114891052	
48	148.4883749485016	fix_post	2		12.0	46.0	2.5	/experiments/knapen_aot/videos/R_S_yt-tX5U0Lyo6Gs_376.mp4	0.0	253.65517210960388	0.10008907318115234
49	148.58846402168274	fix_pre	0		18.0	47.0	2.5	/experiments/knapen_aot/videos/R_S_yt-IigHVUksnw8_7.mp4	0.0	253.75526118278503	0.1499018669128418
49	148.7301149368286	response	0	4		47.0	2.5	/experiments/knapen_aot/videos/R_S_yt-IigHVUksnw8_7.mp4	0.0	253.8969120979309	
49	148.73836588859558	movie	1		301.0	47.0	2.5	/experiments/knapen_aot/videos/R_S_yt-IigHVUksnw8_7.mp4	0.0	253.90516304969788	2.50826096534729
49	151.24662685394287	fix_post	2		12.0	47.0	2.5	/experiments/knapen_aot/videos/R_S_yt-IigHVUksnw8_7.mp4	0.0	256.41342401504517	0.10004711151123047
50	151.3466739654541	fix_pre	0		16.0	48.0	2.5	/experiments/knapen_aot/videos/S_Pexels_Videos_2795171.mp4	0.0	256.5134711265564	0.13345003128051758
50	151.47177600860596	response	0	4		48.0	2.5	/experiments/knapen_aot/videos/S_Pexels_Videos_2795171.mp4	0.0	256.63857316970825	
50	151.48012399673462	movie	1		165.0	48.0	2.5	/experiments/knapen_aot/videos/S_Pexels_Videos_2795171.mp4	0.0	256.6469211578369	2.508253812789917
50	153.98837780952454	fix_post	2		12.0	48.0	2.5	/experiments/knapen_aot/videos/S_Pexels_Videos_2795171.mp4	0.0	259.15517497062683	0.10028815269470215
51	154.08866596221924	fix_pre	0		18.0	49.0	2.5	blank	1.0	259.25546312332153	0.14957189559936523
51	154.230153799057	response	0	4		49.0	2.5	blank	1.0	259.3969509601593	
51	154.2382378578186	movie	1		301.0	49.0	2.5	blank	1.0	259.4050350189209	2.508424997329712
51	156.74666285514832	fix_post	2		12.0	49.0	2.5	blank	1.0	261.9134600162506	0.10003113746643066
52	156.84669399261475	fix_pre	0		47.0	50.0	2.5	/experiments/knapen_aot/videos/R_S_production_ID_5144823.mp4	0.0	262.01349115371704	0.3916299343109131
52	157.2300899028778	response	0	4		50.0	2.5	/experiments/knapen_aot/videos/R_S_production_ID_5144823.mp4	0.0	262.3968870639801	
52	157.23832392692566	movie	1		175.0	50.0	2.5	/experiments/knapen_aot/videos/R_S_production_ID_5144823.mp4	0.0	262.40512108802795	2.5085010528564453
52	159.7468249797821	fix_post	2		12.0	50.0	2.5	/experiments/knapen_aot/videos/R_S_production_ID_5144823.mp4	0.0	264.9136221408844	0.09980988502502441
53	159.84663486480713	fix_pre	0		10.0	51.0	2.5	/experiments/knapen_aot/videos/R_S_yt-o_Hakzj8PRg_2864.mp4	0.0	265.0134320259094	0.08334612846374512
53	159.92176795005798	response	0	4		51.0	2.5	/experiments/knapen_aot/videos/R_S_yt-o_Hakzj8PRg_2864.mp4	0.0	265.0885651111603	
53	159.92998099327087	movie	1		301.0	51.0	2.5	/experiments/knapen_aot/videos/R_S_yt-o_Hakzj8PRg_2864.mp4	0.0	265.09677815437317	2.508319854736328
53	162.4383008480072	fix_post	2		12.0	51.0	2.5	/experiments/knapen_aot/videos/R_S_yt-o_Hakzj8PRg_2864.mp4	0.0	267.6050980091095	0.09998297691345215
54	162.53828382492065	fix_pre	0		37.0	52.0	2.5	/experiments/knapen_aot/videos/R_S_yt-35i8UeYXjGw_47.mp4	0.0	267.70508098602295	0.30832600593566895
54	162.8384130001068	response	0	4		52.0	2.5	/experiments/knapen_aot/videos/R_S_yt-35i8UeYXjGw_47.mp4	0.0	268.0052101612091	
54	162.84660983085632	movie	1		301.0	52.0	2.5	/experiments/knapen_aot/videos/R_S_yt-35i8UeYXjGw_47.mp4	0.0	268.0134069919586	2.508341073989868
54	165.3549509048462	fix_post	2		12.0	52.0	2.5	/experiments/knapen_aot/videos/R_S_yt-35i8UeYXjGw_47.mp4	0.0	270.5217480659485	0.09996199607849121
55	165.45491290092468	fix_pre	0		378.0	53.0	2.5	/experiments/knapen_aot/videos/S_yt-9aKqMX9IHPg_242.mp4	0.0	270.621710062027	3.1499691009521484
55	168.59666800498962	response	0	4		53.0	2.5	/experiments/knapen_aot/videos/S_yt-9aKqMX9IHPg_242.mp4	0.0	273.7634651660919	
55	168.60488200187683	movie	1		301.0	53.0	2.5	/experiments/knapen_aot/videos/S_yt-9aKqMX9IHPg_242.mp4	0.0	273.7716791629791	2.508419990539551
55	171.11330199241638	fix_post	2		12.0	53.0	2.5	/experiments/knapen_aot/videos/S_yt-9aKqMX9IHPg_242.mp4	0.0	276.2800991535187	0.1000828742980957
56	171.21338486671448	fix_pre	0		34.0	54.0	2.5	/experiments/knapen_aot/videos/R_S_pexels-roman-odintsov-8233166.mp4	0.0	276.3801820278168	0.2832190990447998
56	171.48838591575623	response	0	4		54.0	2.5	/experiments/knapen_aot/videos/R_S_pexels-roman-odintsov-8233166.mp4	0.0	276.6551830768585	
56	171.49660396575928	movie	1		184.0	54.0	2.5	/experiments/knapen_aot/videos/R_S_pexels-roman-odintsov-8233166.mp4	0.0	276.6634011268616	2.5083038806915283
56	174.0049078464508	fix_post	2		12.0	54.0	2.5	/experiments/knapen_aot/videos/R_S_pexels-roman-odintsov-8233166.mp4	0.0	279.1717050075531	0.10000205039978027
57	174.1049098968506	fix_pre	0		34.0	55.0	2.5	blank	1.0	279.2717070579529	0.28336191177368164
57	174.38002586364746	response	0	4		55.0	2.5	blank	1.0	279.54682302474976	
57	174.38827180862427	movie	1		301.0	55.0	2.5	blank	1.0	279.55506896972656	2.50829815864563
57	176.8965699672699	fix_post	2		12.0	55.0	2.5	blank	1.0	282.0633671283722	0.10001087188720703
58	176.9965808391571	fix_pre	0		31.0	56.0	2.5	/experiments/knapen_aot/videos/S_BsNCrwV7d8Q_9.mp4	0.0	282.1633780002594	0.2582991123199463
58	177.24668788909912	response	0	4		56.0	2.5	/experiments/knapen_aot/videos/S_BsNCrwV7d8Q_9.mp4	0.0	282.4134850502014	
58	177.25487995147705	movie	1		301.0	56.0	2.5	/experiments/knapen_aot/videos/S_BsNCrwV7d8Q_9.mp4	0.0	282.42167711257935	2.5084450244903564
58	179.7633249759674	fix_post	2		12.0	56.0	2.5	/experiments/knapen_aot/videos/S_BsNCrwV7d8Q_9.mp4	0.0	284.9301221370697	0.09989190101623535
59	179.86321687698364	fix_pre	0		30.0	57.0	2.5	/experiments/knapen_aot/videos/S_yt-2ftSsLqRQnA_84.mp4	0.0	285.03001403808594	0.24993205070495605
59	180.1050260066986	response	0	4		57.0	2.5	/experiments/knapen_aot/videos/S_yt-2ftSsLqRQnA_84.mp4	0.0	285.2718231678009	
59	180.1131489276886	movie	1		301.0	57.0	2.5	/experiments/knapen_aot/videos/S_yt-2ftSsLqRQnA_84.mp4	0.0	285.2799460887909	2.50838303565979
59	182.6215319633484	fix_post	2		12.0	57.0	2.5	/experiments/knapen_aot/videos/S_yt-2ftSsLqRQnA_84.mp4	0.0	287.7883291244507	0.10000896453857422
60	182.72154092788696	fix_pre	0		44.0	58.0	2.5	/experiments/knapen_aot/videos/S_yt-BqJHT4K7Qf8_127.mp4	0.0	287.88833808898926	0.3666529655456543
60	183.07241892814636	response	0	4		58.0	2.5	/experiments/knapen_aot/videos/S_yt-BqJHT4K7Qf8_127.mp4	0.0	288.23921608924866	
60	183.08819389343262	movie	1		301.0	58.0	2.5	/experiments/knapen_aot/videos/S_yt-BqJHT4K7Qf8_127.mp4	0.0	288.2549910545349	2.508280038833618
60	185.59647393226624	fix_post	2		12.0	58.0	2.5	/experiments/knapen_aot/videos/S_yt-BqJHT4K7Qf8_127.mp4	0.0	290.76327109336853	0.10020804405212402
61	185.69668197631836	fix_pre	0		41.0	59.0	2.5	/experiments/knapen_aot/videos/R_S_yt-9Z9-RT-ysEE_85.mp4	0.0	290.86347913742065	0.34143495559692383
61	186.02998399734497	response	0	4		59.0	2.5	/experiments/knapen_aot/videos/R_S_yt-9Z9-RT-ysEE_85.mp4	0.0	291.19678115844727	
61	186.03811693191528	movie	1		301.0	59.0	2.5	/experiments/knapen_aot/videos/R_S_yt-9Z9-RT-ysEE_85.mp4	0.0	291.2049140930176	2.508450984954834
61	188.54656791687012	fix_post	2		12.0	59.0	2.5	/experiments/knapen_aot/videos/R_S_yt-9Z9-RT-ysEE_85.mp4	0.0	293.7133650779724	0.09998297691345215
62	188.64655089378357	fix_pre	0		5.0	60.0	2.5	/experiments/knapen_aot/videos/R_S_S006_C007_SDR_2K_AVC.mp4	0.0	293.81334805488586	0.0416719913482666
62	188.67998385429382	response	0	4		60.0	2.5	/experiments/knapen_aot/videos/R_S_S006_C007_SDR_2K_AVC.mp4	0.0	293.8467810153961	
62	188.68822288513184	movie	1		166.0	60.0	2.5	/experiments/knapen_aot/videos/R_S_S006_C007_SDR_2K_AVC.mp4	0.0	293.85502004623413	2.5083179473876953
62	191.19654083251953	fix_post	2		12.0	60.0	2.5	/experiments/knapen_aot/videos/R_S_S006_C007_SDR_2K_AVC.mp4	0.0	296.3633379936218	0.09995603561401367
63	191.29649686813354	fix_pre	0		10.0	61.0	2.5	/experiments/knapen_aot/videos/S_yt-n_eO-7KedAE_21.mp4	0.0	296.46329402923584	0.08333301544189453
63	191.37155389785767	response	0	4		61.0	2.5	/experiments/knapen_aot/videos/S_yt-n_eO-7KedAE_21.mp4	0.0	296.53835105895996	
63	191.37982988357544	movie	1		301.0	61.0	2.5	/experiments/knapen_aot/videos/S_yt-n_eO-7KedAE_21.mp4	0.0	296.54662704467773	2.508378028869629
63	193.88820791244507	fix_post	2		12.0	61.0	2.5	/experiments/knapen_aot/videos/S_yt-n_eO-7KedAE_21.mp4	0.0	299.05500507354736	0.09999299049377441
64	193.98820090293884	fix_pre	0		23.0	62.0	2.5	blank	1.0	299.15499806404114	0.19163894653320312
64	194.17161989212036	response	0	4		62.0	2.5	blank	1.0	299.33841705322266	
64	194.17983984947205	movie	1		301.0	62.0	2.5	blank	1.0	299.34663701057434	2.508315086364746
64	196.6881549358368	fix_post	2		12.0	62.0	2.5	blank	1.0	301.8549520969391	0.09998703002929688
65	196.7881419658661	fix_pre	0		37.0	63.0	2.5	/experiments/knapen_aot/videos/S_yt-lfDIg8kaXhA_169.mp4	0.0	301.9549391269684	0.30826401710510254
65	197.08825993537903	response	0	4		63.0	2.5	/experiments/knapen_aot/videos/S_yt-lfDIg8kaXhA_169.mp4	0.0	302.2550570964813	
65	197.0964059829712	movie	1		301.0	63.0	2.5	/experiments/knapen_aot/videos/S_yt-lfDIg8kaXhA_169.mp4	0.0	302.2632031440735	2.5086300373077393
65	199.60503602027893	fix_post	2		12.0	63.0	2.5	/experiments/knapen_aot/videos/S_yt-lfDIg8kaXhA_169.mp4	0.0	304.7718331813812	0.09980583190917969
66	199.7048418521881	fix_pre	0		52.0	64.0	2.5	/experiments/knapen_aot/videos/R_S_yt-BDCyXL5e9S4_223.mp4	0.0	304.8716390132904	0.4332771301269531
66	200.12994694709778	response	0	4		64.0	2.5	/experiments/knapen_aot/videos/R_S_yt-BDCyXL5e9S4_223.mp4	0.0	305.2967441082001	
66	200.13811898231506	movie	1		301.0	64.0	2.5	/experiments/knapen_aot/videos/R_S_yt-BDCyXL5e9S4_223.mp4	0.0	305.30491614341736	2.5084400177001953
66	202.64655900001526	fix_post	2		12.0	64.0	2.5	/experiments/knapen_aot/videos/R_S_yt-BDCyXL5e9S4_223.mp4	0.0	307.81335616111755	0.09989190101623535
67	202.7464509010315	fix_pre	0		30.0	65.0	2.5	/experiments/knapen_aot/videos/S_video_inspire_nevada_lasvegas_northstrip_021.1080-h264.mp4	0.0	307.9132480621338	0.25127291679382324
67	202.98820090293884	response	0	4		65.0	2.5	/experiments/knapen_aot/videos/S_video_inspire_nevada_lasvegas_northstrip_021.1080-h264.mp4	0.0	308.15499806404114	
67	202.99772381782532	movie	1		167.0	65.0	2.5	/experiments/knapen_aot/videos/S_video_inspire_nevada_lasvegas_northstrip_021.1080-h264.mp4	0.0	308.1645209789276	2.5070221424102783
67	205.5047459602356	fix_post	2		12.0	65.0	2.5	/experiments/knapen_aot/videos/S_video_inspire_nevada_lasvegas_northstrip_021.1080-h264.mp4	0.0	310.6715431213379	0.1001589298248291
68	205.60490489006042	fix_pre	0		22.0	66.0	2.5	/experiments/knapen_aot/videos/R_S_production_ID_4325585.mp4	0.0	310.7717020511627	0.18440008163452148
68	205.779855966568	response	0	4		66.0	2.5	/experiments/knapen_aot/videos/R_S_production_ID_4325585.mp4	0.0	310.9466531276703	
68	205.78930497169495	movie	1		206.0	66.0	2.5	/experiments/knapen_aot/videos/R_S_production_ID_4325585.mp4	0.0	310.95610213279724	2.5071258544921875
68	208.29643082618713	fix_post	2		12.0	66.0	2.5	/experiments/knapen_aot/videos/R_S_production_ID_4325585.mp4	0.0	313.46322798728943	0.10000920295715332
69	208.3964400291443	fix_pre	0		35.0	67.0	2.5	/experiments/knapen_aot/videos/R_S_comp_DB_D002_C003_PSNK_v04_SDR_PS_20180914_SDR_2K_AVC.mp4	0.0	313.5632371902466	0.291733980178833
69	208.6798529624939	response	0	4		67.0	2.5	/experiments/knapen_aot/videos/R_S_comp_DB_D002_C003_PSNK_v04_SDR_PS_20180914_SDR_2K_AVC.mp4	0.0	313.8466501235962	
69	208.68817400932312	movie	1		167.0	67.0	2.5	/experiments/knapen_aot/videos/R_S_comp_DB_D002_C003_PSNK_v04_SDR_PS_20180914_SDR_2K_AVC.mp4	0.0	313.8549711704254	2.5082688331604004
69	211.19644284248352	fix_post	2		12.0	67.0	2.5	/experiments/knapen_aot/videos/R_S_comp_DB_D002_C003_PSNK_v04_SDR_PS_20180914_SDR_2K_AVC.mp4	0.0	316.3632400035858	0.09998106956481934
70	211.29642391204834	fix_pre	0		54.0	68.0	2.5	/experiments/knapen_aot/videos/S_goAwcQiFu1Q_99.mp4	0.0	316.46322107315063	0.4514040946960449
70	211.7381558418274	response	0	4		68.0	2.5	/experiments/knapen_aot/videos/S_goAwcQiFu1Q_99.mp4	0.0	316.9049530029297	
70	211.74782800674438	movie	1		301.0	68.0	2.5	/experiments/knapen_aot/videos/S_goAwcQiFu1Q_99.mp4	0.0	316.9146251678467	2.5069079399108887
70	214.25473594665527	fix_post	2		12.0	68.0	2.5	/experiments/knapen_aot/videos/S_goAwcQiFu1Q_99.mp4	0.0	319.42153310775757	0.09993600845336914
71	214.35467195510864	fix_pre	0		26.0	69.0	2.5	blank	1.0	319.52146911621094	0.2166738510131836
71	214.56310987472534	response	0	4		69.0	2.5	blank	1.0	319.72990703582764	
71	214.57134580612183	movie	1		301.0	69.0	2.5	blank	1.0	319.7381429672241	2.5083980560302734
71	217.0797438621521	fix_post	2		12.0	69.0	2.5	blank	1.0	322.2465410232544	0.09993600845336914
72	217.17967987060547	fix_pre	0		61.0	70.0	2.5	/experiments/knapen_aot/videos/R_S_comp_GL_G002_C002_PSNK_v03_SDR_PS_20180925_SDR_2K_AVC.mp4	0.0	322.34647703170776	0.5083179473876953
72	217.67978382110596	response	0	4		70.0	2.5	/experiments/knapen_aot/videos/R_S_comp_GL_G002_C002_PSNK_v03_SDR_PS_20180925_SDR_2K_AVC.mp4	0.0	322.84658098220825	
72	217.68799781799316	movie	1		169.0	70.0	2.5	/experiments/knapen_aot/videos/R_S_comp_GL_G002_C002_PSNK_v03_SDR_PS_20180925_SDR_2K_AVC.mp4	0.0	322.85479497909546	2.508606195449829
72	219.12148785591125	response	1	4		70.0	2.5	/experiments/knapen_aot/videos/R_S_comp_GL_G002_C002_PSNK_v03_SDR_PS_20180925_SDR_2K_AVC.mp4	0.0	324.28828501701355	
72	220.05482602119446	response	1	4		70.0	2.5	/experiments/knapen_aot/videos/R_S_comp_GL_G002_C002_PSNK_v03_SDR_PS_20180925_SDR_2K_AVC.mp4	0.0	325.22162318229675	
72	220.196604013443	fix_post	2		12.0	70.0	2.5	/experiments/knapen_aot/videos/R_S_comp_GL_G002_C002_PSNK_v03_SDR_PS_20180925_SDR_2K_AVC.mp4	0.0	325.3634011745453	0.09990787506103516
73	220.29651188850403	fix_pre	0		23.0	71.0	2.5	/experiments/knapen_aot/videos/S_yt-RlHmMGUjT9E_130.mp4	0.0	325.4633090496063	0.1914970874786377
73	220.47986102104187	response	0	4		71.0	2.5	/experiments/knapen_aot/videos/S_yt-RlHmMGUjT9E_130.mp4	0.0	325.64665818214417	
73	220.48800897598267	movie	1		301.0	71.0	2.5	/experiments/knapen_aot/videos/S_yt-RlHmMGUjT9E_130.mp4	0.0	325.65480613708496	2.5084478855133057
73	222.03233981132507	response	1	4		71.0	2.5	/experiments/knapen_aot/videos/S_yt-RlHmMGUjT9E_130.mp4	0.0	327.19913697242737	
73	222.99645686149597	fix_post	2		12.0	71.0	2.5	/experiments/knapen_aot/videos/S_yt-RlHmMGUjT9E_130.mp4	0.0	328.16325402259827	0.10003113746643066
74	223.0964879989624	fix_pre	0		186.0	72.0	2.5	/experiments/knapen_aot/videos/S_yt-y6zr69M0yHI_76.mp4	0.0	328.2632851600647	1.5498478412628174
74	224.6381859779358	response	0	4		72.0	2.5	/experiments/knapen_aot/videos/S_yt-y6zr69M0yHI_76.mp4	0.0	329.8049831390381	
74	224.64633584022522	movie	1		301.0	72.0	2.5	/experiments/knapen_aot/videos/S_yt-y6zr69M0yHI_76.mp4	0.0	329.8131330013275	2.5083580017089844
74	227.1546938419342	fix_post	2		12.0	72.0	2.5	/experiments/knapen_aot/videos/S_yt-y6zr69M0yHI_76.mp4	0.0	332.3214910030365	0.10016918182373047
75	227.25486302375793	fix_pre	0		65.0	73.0	2.5	/experiments/knapen_aot/videos/R_S_comp_A012_C014_1223PT_v53_SDR_PS_FINAL_20180709_F0F8700_SDR_2K_AVC.mp4	0.0	332.42166018486023	0.5414459705352783
75	227.78818202018738	response	0	4		73.0	2.5	/experiments/knapen_aot/videos/R_S_comp_A012_C014_1223PT_v53_SDR_PS_FINAL_20180709_F0F8700_SDR_2K_AVC.mp4	0.0	332.9549791812897	
75	227.7963089942932	movie	1		167.0	73.0	2.5	/experiments/knapen_aot/videos/R_S_comp_A012_C014_1223PT_v53_SDR_PS_FINAL_20180709_F0F8700_SDR_2K_AVC.mp4	0.0	332.9631061553955	2.5083038806915283
75	228.51315784454346	response	1	4		73.0	2.5	/experiments/knapen_aot/videos/R_S_comp_A012_C014_1223PT_v53_SDR_PS_FINAL_20180709_F0F8700_SDR_2K_AVC.mp4	0.0	333.67995500564575	
75	229.59650492668152	response	1	4		73.0	2.5	/experiments/knapen_aot/videos/R_S_comp_A012_C014_1223PT_v53_SDR_PS_FINAL_20180709_F0F8700_SDR_2K_AVC.mp4	0.0	334.7633020877838	
75	230.30461287498474	fix_post	2		12.0	73.0	2.5	/experiments/knapen_aot/videos/R_S_comp_A012_C014_1223PT_v53_SDR_PS_FINAL_20180709_F0F8700_SDR_2K_AVC.mp4	0.0	335.47141003608704	0.10008096694946289
76	230.4046938419342	fix_pre	0		12.0	74.0	2.5	/experiments/knapen_aot/videos/S_yt-bH4nJibL4Jo_164.mp4	0.0	335.5714910030365	0.09988903999328613
76	230.4963719844818	response	0	4		74.0	2.5	/experiments/knapen_aot/videos/S_yt-bH4nJibL4Jo_164.mp4	0.0	335.6631691455841	
76	230.5045828819275	movie	1		301.0	74.0	2.5	/experiments/knapen_aot/videos/S_yt-bH4nJibL4Jo_164.mp4	0.0	335.6713800430298	2.5083749294281006
76	233.0129578113556	fix_post	2		12.0	74.0	2.5	/experiments/knapen_aot/videos/S_yt-bH4nJibL4Jo_164.mp4	0.0	338.1797549724579	0.10002899169921875
77	233.1129868030548	fix_pre	0		60.0	75.0	2.5	/experiments/knapen_aot/videos/S_yt-qxtmtMnUfD0_124.mp4	0.0	338.2797839641571	0.4999542236328125
77	233.6047728061676	response	0	4		75.0	2.5	/experiments/knapen_aot/videos/S_yt-qxtmtMnUfD0_124.mp4	0.0	338.7715699672699	
77	233.61294102668762	movie	1		301.0	75.0	2.5	/experiments/knapen_aot/videos/S_yt-qxtmtMnUfD0_124.mp4	0.0	338.7797381877899	2.5083789825439453
77	236.12132000923157	fix_post	2		12.0	75.0	2.5	/experiments/knapen_aot/videos/S_yt-qxtmtMnUfD0_124.mp4	0.0	341.28811717033386	0.09998297691345215
78	236.22130298614502	fix_pre	0		236.0	76.0	2.5	blank	1.0	341.3881001472473	1.9666168689727783
78	238.17237782478333	response	0	4		76.0	2.5	blank	1.0	343.3391749858856	
78	238.1879198551178	movie	1		301.0	76.0	2.5	blank	1.0	343.3547170162201	2.508310079574585
78	240.69622993469238	fix_post	2		12.0	76.0	2.5	blank	1.0	345.8630270957947	0.1001749038696289
79	240.796404838562	fix_pre	0		25.0	77.0	2.5	/experiments/knapen_aot/videos/S_BsNCrwV7d8Q_9.mp4	0.0	345.9632019996643	0.20817208290100098
79	240.99639987945557	response	0	4		77.0	2.5	/experiments/knapen_aot/videos/S_BsNCrwV7d8Q_9.mp4	0.0	346.16319704055786	
79	241.004576921463	movie	1		301.0	77.0	2.5	/experiments/knapen_aot/videos/S_BsNCrwV7d8Q_9.mp4	0.0	346.1713740825653	2.5083529949188232
79	243.51292991638184	fix_post	2		12.0	77.0	2.5	/experiments/knapen_aot/videos/S_BsNCrwV7d8Q_9.mp4	0.0	348.67972707748413	0.10003900527954102
80	243.61296892166138	fix_pre	0		35.0	78.0	2.5	/experiments/knapen_aot/videos/S_yt-6MwA-jx56AQ_612.mp4	0.0	348.7797660827637	0.2916300296783447
80	243.8963508605957	response	0	4		78.0	2.5	/experiments/knapen_aot/videos/S_yt-6MwA-jx56AQ_612.mp4	0.0	349.063148021698	
80	243.90459895133972	movie	1		301.0	78.0	2.5	/experiments/knapen_aot/videos/S_yt-6MwA-jx56AQ_612.mp4	0.0	349.071396112442	2.5083670616149902
80	246.4129660129547	fix_post	2		12.0	78.0	2.5	/experiments/knapen_aot/videos/S_yt-6MwA-jx56AQ_612.mp4	0.0	351.579763174057	0.1000068187713623
81	246.51297283172607	fix_pre	0		86.0	79.0	2.5	/experiments/knapen_aot/videos/R_S_yt-aD-EAuBdpUo_163.mp4	0.0	351.67976999282837	0.7165851593017578
81	247.2213418483734	response	0	4		79.0	2.5	/experiments/knapen_aot/videos/R_S_yt-aD-EAuBdpUo_163.mp4	0.0	352.3881390094757	
81	247.22955799102783	movie	1		301.0	79.0	2.5	/experiments/knapen_aot/videos/R_S_yt-aD-EAuBdpUo_163.mp4	0.0	352.3963551521301	2.508445978164673
81	249.7380039691925	fix_post	2		12.0	79.0	2.5	/experiments/knapen_aot/videos/R_S_yt-aD-EAuBdpUo_163.mp4	0.0	354.9048011302948	0.09990882873535156
82	249.83791279792786	fix_pre	0		13.0	80.0	2.5	/experiments/knapen_aot/videos/R_S_yt-vQ-rd-1gwH4_238.mp4	0.0	355.00470995903015	0.10832715034484863
82	249.93806385993958	response	0	4		80.0	2.5	/experiments/knapen_aot/videos/R_S_yt-vQ-rd-1gwH4_238.mp4	0.0	355.10486102104187	
82	249.9462399482727	movie	1		301.0	80.0	2.5	/experiments/knapen_aot/videos/R_S_yt-vQ-rd-1gwH4_238.mp4	0.0	355.113037109375	2.5083298683166504
82	252.45456981658936	fix_post	2		12.0	80.0	2.5	/experiments/knapen_aot/videos/R_S_yt-vQ-rd-1gwH4_238.mp4	0.0	357.62136697769165	0.10007619857788086
83	252.55464601516724	fix_pre	0		41.0	81.0	2.5	/experiments/knapen_aot/videos/R_S_yt-9aKqMX9IHPg_242.mp4	0.0	357.72144317626953	0.3415257930755615
83	252.88802695274353	response	0	4		81.0	2.5	/experiments/knapen_aot/videos/R_S_yt-9aKqMX9IHPg_242.mp4	0.0	358.0548241138458	
83	252.8961718082428	movie	1		301.0	81.0	2.5	/experiments/knapen_aot/videos/R_S_yt-9aKqMX9IHPg_242.mp4	0.0	358.0629689693451	2.508418083190918
83	255.40458989143372	fix_post	2		12.0	81.0	2.5	/experiments/knapen_aot/videos/R_S_yt-9aKqMX9IHPg_242.mp4	0.0	360.571387052536	0.09999394416809082
84	255.5045838356018	fix_pre	0		32.0	82.0	2.5	blank	1.0	360.6713809967041	0.26664304733276367
84	255.7630100250244	response	0	4		82.0	2.5	blank	1.0	360.9298071861267	
84	255.77122688293457	movie	1		301.0	82.0	2.5	blank	1.0	360.93802404403687	2.5082991123199463
84	258.2795259952545	fix_post	2		12.0	82.0	2.5	blank	1.0	363.4463231563568	0.10001492500305176
85	258.37954092025757	fix_pre	0		70.0	83.0	2.5	/experiments/knapen_aot/videos/S_yt-iAQ98zgVlds_97.mp4	0.0	363.54633808135986	0.5833210945129395
85	258.9546089172363	response	0	4		83.0	2.5	/experiments/knapen_aot/videos/S_yt-iAQ98zgVlds_97.mp4	0.0	364.1214060783386	
85	258.9628620147705	movie	1		301.0	83.0	2.5	/experiments/knapen_aot/videos/S_yt-iAQ98zgVlds_97.mp4	0.0	364.1296591758728	2.5083699226379395
85	261.47123193740845	fix_post	2		12.0	83.0	2.5	/experiments/knapen_aot/videos/S_yt-iAQ98zgVlds_97.mp4	0.0	366.63802909851074	0.09997797012329102
87	261.57120990753174	stim	0		117.0					366.73800706863403	0.9749419689178467
87	262.25463795661926	response	0	4						367.42143511772156	
87	262.539263010025	response	0	space						367.7060601711273	
