trial_nr	onset	event_type	phase	response	nr_frames	movie_index	movie_duration	movie_file	blank	onset_abs	duration
0	0.13409090042114258	stim	0		176.0					81.69493699073792	1.4656031131744385
0	1.584244966506958	response	0	space						83.14509105682373	
1	1.599694013595581	stim	0		121.0					83.16054010391235	1.0083420276641846
1	2.6080360412597656	stim	1		120.0					84.16888213157654	1.0003538131713867
2	3.6083898544311523	fix_pre	0		94.0	0.0	2.5	/experiments/knapen_aot/videos/S_yt-Xegmd8whqBs_230.mp4	0.0	85.16923594474792	0.7829821109771729
2	4.383127927780151	response	0	space		0.0	2.5	/experiments/knapen_aot/videos/S_yt-Xegmd8whqBs_230.mp4	0.0	85.94397401809692	
2	4.391371965408325	movie	1		300.0	0.0	2.5	/experiments/knapen_aot/videos/S_yt-Xegmd8whqBs_230.mp4	0.0	85.9522180557251	2.5083279609680176
2	6.899699926376343	fix_post	2		12.0	0.0	2.5	/experiments/knapen_aot/videos/S_yt-Xegmd8whqBs_230.mp4	0.0	88.46054601669312	0.0999610424041748
3	6.999660968780518	fix_pre	0		73.0	1.0	2.5	/experiments/knapen_aot/videos/R_S_yt-CH4HfNRC1hY_40.mp4	0.0	88.56050705909729	0.6086859703063965
3	7.603118896484375	response	0	2		1.0	2.5	/experiments/knapen_aot/videos/R_S_yt-CH4HfNRC1hY_40.mp4	0.0	89.16396498680115	
3	7.608346939086914	movie	1		298.0	1.0	2.5	/experiments/knapen_aot/videos/R_S_yt-CH4HfNRC1hY_40.mp4	0.0	89.16919302940369	2.5079641342163086
3	10.116311073303223	fix_post	2		12.0	1.0	2.5	/experiments/knapen_aot/videos/R_S_yt-CH4HfNRC1hY_40.mp4	0.0	91.67715716362	0.09993100166320801
4	10.21624207496643	fix_pre	0		32.0	2.0	2.5	/experiments/knapen_aot/videos/R_S_yt-GFcuvjHJmS4_86.mp4	0.0	91.7770881652832	0.26700687408447266
4	10.474762916564941	response	0	2		2.0	2.5	/experiments/knapen_aot/videos/R_S_yt-GFcuvjHJmS4_86.mp4	0.0	92.03560900688171	
4	10.483248949050903	movie	1		301.0	2.0	2.5	/experiments/knapen_aot/videos/R_S_yt-GFcuvjHJmS4_86.mp4	0.0	92.04409503936768	2.5080759525299072
4	12.99132490158081	fix_post	2		12.0	2.0	2.5	/experiments/knapen_aot/videos/R_S_yt-GFcuvjHJmS4_86.mp4	0.0	94.55217099189758	0.09992408752441406
5	13.091248989105225	fix_pre	0		17.0	3.0	2.5	/experiments/knapen_aot/videos/S_ILSVRC2015_train_00682003.mp4	0.0	94.652095079422	0.14198994636535645
5	13.224837064743042	response	0	2		3.0	2.5	/experiments/knapen_aot/videos/S_ILSVRC2015_train_00682003.mp4	0.0	94.78568315505981	
5	13.233238935470581	movie	1		301.0	3.0	2.5	/experiments/knapen_aot/videos/S_ILSVRC2015_train_00682003.mp4	0.0	94.79408502578735	2.5080480575561523
5	15.741286993026733	fix_post	2		12.0	3.0	2.5	/experiments/knapen_aot/videos/S_ILSVRC2015_train_00682003.mp4	0.0	97.3021330833435	0.10002899169921875
6	15.841315984725952	fix_pre	0		60.0	4.0	2.5	/experiments/knapen_aot/videos/S_yt-aqrdb6BiFx4_12.mp4	0.0	97.40216207504272	0.4999260902404785
6	16.333006858825684	response	0	2		4.0	2.5	/experiments/knapen_aot/videos/S_yt-aqrdb6BiFx4_12.mp4	0.0	97.89385294914246	
6	16.34124207496643	movie	1		301.0	4.0	2.5	/experiments/knapen_aot/videos/S_yt-aqrdb6BiFx4_12.mp4	0.0	97.9020881652832	2.508370876312256
6	18.849612951278687	fix_post	2		12.0	4.0	2.5	/experiments/knapen_aot/videos/S_yt-aqrdb6BiFx4_12.mp4	0.0	100.41045904159546	0.10001611709594727
7	18.949629068374634	fix_pre	0		56.0	5.0	2.5	/experiments/knapen_aot/videos/S_yt-lzXao6Reec4_14.mp4	0.0	100.5104751586914	0.4665977954864502
7	19.400556087493896	response	0	2		5.0	2.5	/experiments/knapen_aot/videos/S_yt-lzXao6Reec4_14.mp4	0.0	100.96140217781067	
7	19.416226863861084	movie	1		300.0	5.0	2.5	/experiments/knapen_aot/videos/S_yt-lzXao6Reec4_14.mp4	0.0	100.97707295417786	2.5083870887756348
7	21.92461395263672	fix_post	2		12.0	5.0	2.5	/experiments/knapen_aot/videos/S_yt-lzXao6Reec4_14.mp4	0.0	103.48546004295349	0.10024404525756836
8	22.024857997894287	fix_pre	0		33.0	6.0	2.5	blank	1.0	103.58570408821106	0.2747628688812256
8	22.29138493537903	response	0	2		6.0	2.5	blank	1.0	103.8522310256958	
8	22.299620866775513	movie	1		301.0	6.0	2.5	blank	1.0	103.86046695709229	2.508291006088257
8	24.80791187286377	fix_post	2		12.0	6.0	2.5	blank	1.0	106.36875796318054	0.09996199607849121
9	24.90787386894226	fix_pre	0		28.0	7.0	2.5	/experiments/knapen_aot/videos/R_S_yt-8fQ9LaF8U10_382.mp4	0.0	106.46871995925903	0.2333831787109375
9	25.13301992416382	response	0	2		7.0	2.5	/experiments/knapen_aot/videos/R_S_yt-8fQ9LaF8U10_382.mp4	0.0	106.69386601448059	
9	25.1412570476532	movie	1		301.0	7.0	2.5	/experiments/knapen_aot/videos/R_S_yt-8fQ9LaF8U10_382.mp4	0.0	106.70210313796997	2.5085608959198
9	27.649817943572998	fix_post	2		12.0	7.0	2.5	/experiments/knapen_aot/videos/R_S_yt-8fQ9LaF8U10_382.mp4	0.0	109.21066403388977	0.0997459888458252
10	27.749563932418823	fix_pre	0		54.0	8.0	2.5	/experiments/knapen_aot/videos/S_video_inspire_california_big-sur_bixby_005.1080-h264.mp4	0.0	109.3104100227356	0.4499659538269043
10	28.191418886184692	response	0	2		8.0	2.5	/experiments/knapen_aot/videos/S_video_inspire_california_big-sur_bixby_005.1080-h264.mp4	0.0	109.75226497650146	
10	28.199529886245728	movie	1		169.0	8.0	2.5	/experiments/knapen_aot/videos/S_video_inspire_california_big-sur_bixby_005.1080-h264.mp4	0.0	109.7603759765625	2.5083870887756348
10	30.707916975021362	fix_post	2		12.0	8.0	2.5	/experiments/knapen_aot/videos/S_video_inspire_california_big-sur_bixby_005.1080-h264.mp4	0.0	112.26876306533813	0.09992003440856934
11	30.80783700942993	fix_pre	0		41.0	9.0	2.5	/experiments/knapen_aot/videos/R_S_yt-VinOD6g7xEc_135.mp4	0.0	112.3686830997467	0.34197092056274414
11	31.141393899917603	response	0	2		9.0	2.5	/experiments/knapen_aot/videos/R_S_yt-VinOD6g7xEc_135.mp4	0.0	112.70223999023438	
11	31.149807929992676	movie	1		301.0	9.0	2.5	/experiments/knapen_aot/videos/R_S_yt-VinOD6g7xEc_135.mp4	0.0	112.71065402030945	2.508103132247925
11	33.6579110622406	fix_post	2		12.0	9.0	2.5	/experiments/knapen_aot/videos/R_S_yt-VinOD6g7xEc_135.mp4	0.0	115.21875715255737	0.09993195533752441
12	33.757843017578125	fix_pre	0		46.0	10.0	2.5	/experiments/knapen_aot/videos/S_yt-Rsfo57AlpLA_332.mp4	0.0	115.3186891078949	0.3833458423614502
12	34.133041858673096	response	0	2		10.0	2.5	/experiments/knapen_aot/videos/S_yt-Rsfo57AlpLA_332.mp4	0.0	115.69388794898987	
12	34.141188859939575	movie	1		301.0	10.0	2.5	/experiments/knapen_aot/videos/S_yt-Rsfo57AlpLA_332.mp4	0.0	115.70203495025635	2.5085291862487793
12	36.649718046188354	fix_post	2		12.0	10.0	2.5	/experiments/knapen_aot/videos/S_yt-Rsfo57AlpLA_332.mp4	0.0	118.21056413650513	0.09984898567199707
13	36.74956703186035	fix_pre	0		57.0	11.0	2.5	/experiments/knapen_aot/videos/S_ILSVRC2015_train_00599000.mp4	0.0	118.31041312217712	0.47497987747192383
13	37.21632194519043	response	0	2		11.0	2.5	/experiments/knapen_aot/videos/S_ILSVRC2015_train_00599000.mp4	0.0	118.7771680355072	
13	37.224546909332275	movie	1		299.0	11.0	2.5	/experiments/knapen_aot/videos/S_ILSVRC2015_train_00599000.mp4	0.0	118.78539299964905	2.5084781646728516
13	39.73302507400513	fix_post	2		12.0	11.0	2.5	/experiments/knapen_aot/videos/S_ILSVRC2015_train_00599000.mp4	0.0	121.2938711643219	0.0998377799987793
14	39.832862854003906	fix_pre	0		60.0	12.0	2.5	blank	1.0	121.39370894432068	0.4999551773071289
14	40.324655055999756	response	0	2		12.0	2.5	blank	1.0	121.88550114631653	
14	40.332818031311035	movie	1		301.0	12.0	2.5	blank	1.0	121.89366412162781	2.508349895477295
14	42.84116792678833	fix_post	2		12.0	12.0	2.5	blank	1.0	124.4020140171051	0.10014510154724121
15	42.94131302833557	fix_pre	0		38.0	13.0	2.5	/experiments/knapen_aot/videos/R_S_pexels-tima-miroshnichenko-6077718.mp4	0.0	124.50215911865234	0.3164989948272705
15	43.249664068222046	response	0	2		13.0	2.5	/experiments/knapen_aot/videos/R_S_pexels-tima-miroshnichenko-6077718.mp4	0.0	124.81051015853882	
15	43.25781202316284	movie	1		165.0	13.0	2.5	/experiments/knapen_aot/videos/R_S_pexels-tima-miroshnichenko-6077718.mp4	0.0	124.81865811347961	2.508388042449951
15	45.76620006561279	fix_post	2		12.0	13.0	2.5	/experiments/knapen_aot/videos/R_S_pexels-tima-miroshnichenko-6077718.mp4	0.0	127.32704615592957	0.0999908447265625
16	45.866190910339355	fix_pre	0		80.0	14.0	2.5	/experiments/knapen_aot/videos/S_yt-gC3my54_ChQ_58.mp4	0.0	127.42703700065613	0.6666231155395508
16	46.52460694313049	response	0	2		14.0	2.5	/experiments/knapen_aot/videos/S_yt-gC3my54_ChQ_58.mp4	0.0	128.08545303344727	
16	46.532814025878906	movie	1		301.0	14.0	2.5	/experiments/knapen_aot/videos/S_yt-gC3my54_ChQ_58.mp4	0.0	128.09366011619568	2.5083630084991455
16	49.04117703437805	fix_post	2		12.0	14.0	2.5	/experiments/knapen_aot/videos/S_yt-gC3my54_ChQ_58.mp4	0.0	130.60202312469482	0.09997296333312988
17	49.14114999771118	fix_pre	0		62.0	15.0	2.5	/experiments/knapen_aot/videos/R_S_pexels-polina-tankilevitch-8203088.mp4	0.0	130.70199608802795	0.5166840553283691
17	49.64964199066162	response	0	2		15.0	2.5	/experiments/knapen_aot/videos/R_S_pexels-polina-tankilevitch-8203088.mp4	0.0	131.2104880809784	
17	49.65783405303955	movie	1		166.0	15.0	2.5	/experiments/knapen_aot/videos/R_S_pexels-polina-tankilevitch-8203088.mp4	0.0	131.21868014335632	2.5083508491516113
17	52.16618490219116	fix_post	2		12.0	15.0	2.5	/experiments/knapen_aot/videos/R_S_pexels-polina-tankilevitch-8203088.mp4	0.0	133.72703099250793	0.09996199607849121
18	52.26614689826965	fix_pre	0		61.0	16.0	2.5	/experiments/knapen_aot/videos/R_S_yt-UojTppgtyCE_121.mp4	0.0	133.82699298858643	0.508450984954834
18	52.76632595062256	response	0	2		16.0	2.5	/experiments/knapen_aot/videos/R_S_yt-UojTppgtyCE_121.mp4	0.0	134.32717204093933	
18	52.77459788322449	movie	1		301.0	16.0	2.5	/experiments/knapen_aot/videos/R_S_yt-UojTppgtyCE_121.mp4	0.0	134.33544397354126	2.508211135864258
18	55.282809019088745	fix_post	2		12.0	16.0	2.5	/experiments/knapen_aot/videos/R_S_yt-UojTppgtyCE_121.mp4	0.0	136.84365510940552	0.10003995895385742
19	55.3828489780426	fix_pre	0		57.0	17.0	2.5	/experiments/knapen_aot/videos/R_S_ILSVRC2015_train_00066005.mp4	0.0	136.94369506835938	0.4750199317932129
19	55.849613904953	response	0	2		17.0	2.5	/experiments/knapen_aot/videos/R_S_ILSVRC2015_train_00066005.mp4	0.0	137.41045999526978	
19	55.857868909835815	movie	1		301.0	17.0	2.5	/experiments/knapen_aot/videos/R_S_ILSVRC2015_train_00066005.mp4	0.0	137.4187150001526	2.5082390308380127
19	58.36610794067383	fix_post	2		12.0	17.0	2.5	/experiments/knapen_aot/videos/R_S_ILSVRC2015_train_00066005.mp4	0.0	139.9269540309906	0.0999760627746582
20	58.466084003448486	fix_pre	0		231.0	18.0	2.5	/experiments/knapen_aot/videos/S_yt-Xegmd8whqBs_230.mp4	0.0	140.02693009376526	1.9249379634857178
20	60.3829300403595	response	0	2		18.0	2.5	/experiments/knapen_aot/videos/S_yt-Xegmd8whqBs_230.mp4	0.0	141.94377613067627	
20	60.391021966934204	movie	1		301.0	18.0	2.5	/experiments/knapen_aot/videos/S_yt-Xegmd8whqBs_230.mp4	0.0	141.95186805725098	2.5084939002990723
20	62.899515867233276	fix_post	2		12.0	18.0	2.5	/experiments/knapen_aot/videos/S_yt-Xegmd8whqBs_230.mp4	0.0	144.46036195755005	0.09996819496154785
21	62.999484062194824	fix_pre	0		120.0	19.0	2.5	/experiments/knapen_aot/videos/R_S_yt-jcuaf9iSEkI_169.mp4	0.0	144.5603301525116	0.9999518394470215
21	63.99126386642456	response	0	2		19.0	2.5	/experiments/knapen_aot/videos/R_S_yt-jcuaf9iSEkI_169.mp4	0.0	145.55210995674133	
21	63.999435901641846	movie	1		301.0	19.0	2.5	/experiments/knapen_aot/videos/R_S_yt-jcuaf9iSEkI_169.mp4	0.0	145.56028199195862	2.5083541870117188
21	66.50779008865356	fix_post	2		12.0	19.0	2.5	/experiments/knapen_aot/videos/R_S_yt-jcuaf9iSEkI_169.mp4	0.0	148.06863617897034	0.09999585151672363
22	66.60778594017029	fix_pre	0		75.0	20.0	2.5	blank	1.0	148.16863203048706	0.6250209808349609
22	67.2246310710907	response	0	2		20.0	2.5	blank	1.0	148.78547716140747	
22	67.23280692100525	movie	1		301.0	20.0	2.5	blank	1.0	148.79365301132202	2.5082859992980957
22	69.74109292030334	fix_post	2		12.0	20.0	2.5	blank	1.0	151.30193901062012	0.09996294975280762
23	69.84105587005615	fix_pre	0		31.0	21.0	2.5	/experiments/knapen_aot/videos/R_S_yt-2jVJb1PR2XA_16.mp4	0.0	151.40190196037292	0.258342981338501
23	70.09117794036865	response	0	2		21.0	2.5	/experiments/knapen_aot/videos/R_S_yt-2jVJb1PR2XA_16.mp4	0.0	151.65202403068542	
23	70.09939885139465	movie	1		300.0	21.0	2.5	/experiments/knapen_aot/videos/R_S_yt-2jVJb1PR2XA_16.mp4	0.0	151.66024494171143	2.5083460807800293
23	72.60774493217468	fix_post	2		12.0	21.0	2.5	/experiments/knapen_aot/videos/R_S_yt-2jVJb1PR2XA_16.mp4	0.0	154.16859102249146	0.09993505477905273
24	72.70767998695374	fix_pre	0		55.0	22.0	2.5	/experiments/knapen_aot/videos/S_yt-kuzdrmHa-W0_39.mp4	0.0	154.2685260772705	0.45830392837524414
24	73.15792393684387	response	0	2		22.0	2.5	/experiments/knapen_aot/videos/S_yt-kuzdrmHa-W0_39.mp4	0.0	154.71877002716064	
24	73.16598391532898	movie	1		301.0	22.0	2.5	/experiments/knapen_aot/videos/S_yt-kuzdrmHa-W0_39.mp4	0.0	154.72683000564575	2.5084331035614014
24	75.67441701889038	fix_post	2		12.0	22.0	2.5	/experiments/knapen_aot/videos/S_yt-kuzdrmHa-W0_39.mp4	0.0	157.23526310920715	0.09999990463256836
25	75.77441692352295	fix_pre	0		57.0	23.0	2.5	/experiments/knapen_aot/videos/R_S_ILSVRC2015_train_00689000.mp4	0.0	157.33526301383972	0.47498512268066406
25	76.24115896224976	response	0	2		23.0	2.5	/experiments/knapen_aot/videos/R_S_ILSVRC2015_train_00689000.mp4	0.0	157.80200505256653	
25	76.24940204620361	movie	1		297.0	23.0	2.5	/experiments/knapen_aot/videos/R_S_ILSVRC2015_train_00689000.mp4	0.0	157.81024813652039	2.5082898139953613
25	78.75769186019897	fix_post	2		12.0	23.0	2.5	/experiments/knapen_aot/videos/R_S_ILSVRC2015_train_00689000.mp4	0.0	160.31853795051575	0.1000370979309082
26	78.85772895812988	fix_pre	0		58.0	24.0	2.5	/experiments/knapen_aot/videos/R_S_yt-26obL-Z5obg_131.mp4	0.0	160.41857504844666	0.48333191871643066
26	79.33285808563232	response	0	2		24.0	2.5	/experiments/knapen_aot/videos/R_S_yt-26obL-Z5obg_131.mp4	0.0	160.8937041759491	
26	79.34106087684631	movie	1		301.0	24.0	2.5	/experiments/knapen_aot/videos/R_S_yt-26obL-Z5obg_131.mp4	0.0	160.9019069671631	2.5082900524139404
26	81.84935092926025	fix_post	2		12.0	24.0	2.5	/experiments/knapen_aot/videos/R_S_yt-26obL-Z5obg_131.mp4	0.0	163.41019701957703	0.09996414184570312
27	81.94931507110596	fix_pre	0		42.0	25.0	2.5	/experiments/knapen_aot/videos/R_S_yt-osz-TXlRdXs_2.mp4	0.0	163.51016116142273	0.3500368595123291
27	82.29124808311462	response	0	2		25.0	2.5	/experiments/knapen_aot/videos/R_S_yt-osz-TXlRdXs_2.mp4	0.0	163.8520941734314	
27	82.29935193061829	movie	1		301.0	25.0	2.5	/experiments/knapen_aot/videos/R_S_yt-osz-TXlRdXs_2.mp4	0.0	163.86019802093506	2.50826096534729
27	84.80761289596558	fix_post	2		12.0	25.0	2.5	/experiments/knapen_aot/videos/R_S_yt-osz-TXlRdXs_2.mp4	0.0	166.36845898628235	0.10008716583251953
28	84.9077000617981	fix_pre	0		40.0	26.0	2.5	blank	1.0	166.46854615211487	0.333266019821167
28	85.23284006118774	response	0	2		26.0	2.5	blank	1.0	166.79368615150452	
28	85.24096608161926	movie	1		301.0	26.0	2.5	blank	1.0	166.80181217193604	2.5083799362182617
28	87.74934601783752	fix_post	2		12.0	26.0	2.5	blank	1.0	169.3101921081543	0.09995388984680176
29	87.84929990768433	fix_pre	0		25.0	27.0	2.5	/experiments/knapen_aot/videos/S_yt-RWN5qOIgqec_25.mp4	0.0	169.4101459980011	0.20831799507141113
29	88.04942989349365	response	0	2		27.0	2.5	/experiments/knapen_aot/videos/S_yt-RWN5qOIgqec_25.mp4	0.0	169.61027598381042	
29	88.05761790275574	movie	1		300.0	27.0	2.5	/experiments/knapen_aot/videos/S_yt-RWN5qOIgqec_25.mp4	0.0	169.6184639930725	2.5083789825439453
29	90.56599688529968	fix_post	2		12.0	27.0	2.5	/experiments/knapen_aot/videos/S_yt-RWN5qOIgqec_25.mp4	0.0	172.12684297561646	0.09997415542602539
30	90.66597104072571	fix_pre	0		77.0	28.0	2.5	/experiments/knapen_aot/videos/S_ILSVRC2015_train_00066005.mp4	0.0	172.22681713104248	0.6429588794708252
30	91.29944086074829	response	0	2		28.0	2.5	/experiments/knapen_aot/videos/S_ILSVRC2015_train_00066005.mp4	0.0	172.86028695106506	
30	91.30892992019653	movie	1		301.0	28.0	2.5	/experiments/knapen_aot/videos/S_ILSVRC2015_train_00066005.mp4	0.0	172.8697760105133	2.507081985473633
30	93.81601190567017	fix_post	2		12.0	28.0	2.5	/experiments/knapen_aot/videos/S_ILSVRC2015_train_00066005.mp4	0.0	175.37685799598694	0.099945068359375
31	93.91595697402954	fix_pre	0		53.0	29.0	2.5	/experiments/knapen_aot/videos/R_S_wc-b4Oquu3WQPRz_45.mp4	0.0	175.4768030643463	0.44173097610473633
31	94.34950399398804	response	0	2		29.0	2.5	/experiments/knapen_aot/videos/R_S_wc-b4Oquu3WQPRz_45.mp4	0.0	175.9103500843048	
31	94.35768795013428	movie	1		187.0	29.0	2.5	/experiments/knapen_aot/videos/R_S_wc-b4Oquu3WQPRz_45.mp4	0.0	175.91853404045105	2.5081889629364014
31	96.86587691307068	fix_post	2		12.0	29.0	2.5	/experiments/knapen_aot/videos/R_S_wc-b4Oquu3WQPRz_45.mp4	0.0	178.42672300338745	0.10007810592651367
32	96.96595501899719	fix_pre	0		53.0	30.0	2.5	/experiments/knapen_aot/videos/R_S_8amznWxLS04_212.mp4	0.0	178.52680110931396	0.4416530132293701
32	97.3994619846344	response	0	2		30.0	2.5	/experiments/knapen_aot/videos/R_S_8amznWxLS04_212.mp4	0.0	178.96030807495117	
32	97.40760803222656	movie	1		301.0	30.0	2.5	/experiments/knapen_aot/videos/R_S_8amznWxLS04_212.mp4	0.0	178.96845412254333	2.508358955383301
32	99.91596698760986	fix_post	2		12.0	30.0	2.5	/experiments/knapen_aot/videos/R_S_8amznWxLS04_212.mp4	0.0	181.47681307792664	0.09993886947631836
33	100.01590585708618	fix_pre	0		104.0	31.0	2.5	/experiments/knapen_aot/videos/R_S_yt-Z0nfPTEEOLo_85.mp4	0.0	181.57675194740295	0.8667051792144775
33	100.87437701225281	response	0	2		31.0	2.5	/experiments/knapen_aot/videos/R_S_yt-Z0nfPTEEOLo_85.mp4	0.0	182.43522310256958	
33	100.88261103630066	movie	1		301.0	31.0	2.5	/experiments/knapen_aot/videos/R_S_yt-Z0nfPTEEOLo_85.mp4	0.0	182.44345712661743	2.5083110332489014
33	103.39092206954956	fix_post	2		12.0	31.0	2.5	/experiments/knapen_aot/videos/R_S_yt-Z0nfPTEEOLo_85.mp4	0.0	184.95176815986633	0.10003399848937988
34	103.49095606803894	fix_pre	0		53.0	32.0	2.5	/experiments/knapen_aot/videos/S_yt-BqJHT4K7Qf8_127.mp4	0.0	185.0518021583557	0.44284486770629883
34	103.92448496818542	response	0	2		32.0	2.5	/experiments/knapen_aot/videos/S_yt-BqJHT4K7Qf8_127.mp4	0.0	185.4853310585022	
34	103.93380093574524	movie	1		301.0	32.0	2.5	/experiments/knapen_aot/videos/S_yt-BqJHT4K7Qf8_127.mp4	0.0	185.494647026062	2.507153034210205
34	106.44095396995544	fix_post	2		12.0	32.0	2.5	/experiments/knapen_aot/videos/S_yt-BqJHT4K7Qf8_127.mp4	0.0	188.00180006027222	0.10005497932434082
35	106.54100894927979	fix_pre	0		50.0	33.0	2.5	/experiments/knapen_aot/videos/R_S_yt-G_eNNzNB-hU_1.mp4	0.0	188.10185503959656	0.41657590866088867
35	106.94939494132996	response	0	2		33.0	2.5	/experiments/knapen_aot/videos/R_S_yt-G_eNNzNB-hU_1.mp4	0.0	188.51024103164673	
35	106.95758485794067	movie	1		301.0	33.0	2.5	/experiments/knapen_aot/videos/R_S_yt-G_eNNzNB-hU_1.mp4	0.0	188.51843094825745	2.5083670616149902
35	109.46595191955566	fix_post	2		12.0	33.0	2.5	/experiments/knapen_aot/videos/R_S_yt-G_eNNzNB-hU_1.mp4	0.0	191.02679800987244	0.0999901294708252
36	109.56594204902649	fix_pre	0		33.0	34.0	2.5	blank	1.0	191.12678813934326	0.27496981620788574
36	109.83270597457886	response	0	2		34.0	2.5	blank	1.0	191.39355206489563	
36	109.84091186523438	movie	1		301.0	34.0	2.5	blank	1.0	191.40175795555115	2.508324146270752
36	112.34923601150513	fix_post	2		12.0	34.0	2.5	blank	1.0	193.9100821018219	0.10001301765441895
37	112.44924902915955	fix_pre	0		29.0	35.0	2.5	/experiments/knapen_aot/videos/S_yt-_HuBzj8EPBc_62.mp4	0.0	194.01009511947632	0.2416539192199707
37	112.68269300460815	response	0	2		35.0	2.5	/experiments/knapen_aot/videos/S_yt-_HuBzj8EPBc_62.mp4	0.0	194.24353909492493	
37	112.69090294837952	movie	1		301.0	35.0	2.5	/experiments/knapen_aot/videos/S_yt-_HuBzj8EPBc_62.mp4	0.0	194.2517490386963	2.5083510875701904
37	115.1992540359497	fix_post	2		12.0	35.0	2.5	/experiments/knapen_aot/videos/S_yt-_HuBzj8EPBc_62.mp4	0.0	196.76010012626648	0.09994292259216309
38	115.29919695854187	fix_pre	0		83.0	36.0	2.5	/experiments/knapen_aot/videos/S_yt-Snha8C5YOiY_26.mp4	0.0	196.86004304885864	0.6916849613189697
38	115.9827139377594	response	0	2		36.0	2.5	/experiments/knapen_aot/videos/S_yt-Snha8C5YOiY_26.mp4	0.0	197.54356002807617	
38	115.99088191986084	movie	1		301.0	36.0	2.5	/experiments/knapen_aot/videos/S_yt-Snha8C5YOiY_26.mp4	0.0	197.5517280101776	2.508280038833618
38	118.49916195869446	fix_post	2		12.0	36.0	2.5	/experiments/knapen_aot/videos/S_yt-Snha8C5YOiY_26.mp4	0.0	200.06000804901123	0.10004997253417969
39	118.59921193122864	fix_pre	0		47.0	37.0	2.5	/experiments/knapen_aot/videos/R_S_yt-w5lh_rKyKtE_21.mp4	0.0	200.1600580215454	0.39163994789123535
39	118.98265600204468	response	0	2		37.0	2.5	/experiments/knapen_aot/videos/R_S_yt-w5lh_rKyKtE_21.mp4	0.0	200.54350209236145	
39	118.99085187911987	movie	1		301.0	37.0	2.5	/experiments/knapen_aot/videos/R_S_yt-w5lh_rKyKtE_21.mp4	0.0	200.55169796943665	2.508347988128662
39	121.49919986724854	fix_post	2		12.0	37.0	2.5	/experiments/knapen_aot/videos/R_S_yt-w5lh_rKyKtE_21.mp4	0.0	203.0600459575653	0.09991908073425293
40	121.59911894798279	fix_pre	0		50.0	38.0	2.5	/experiments/knapen_aot/videos/S_yt-Id-f63kUHsE_20.mp4	0.0	203.15996503829956	0.4178650379180908
40	122.0076789855957	response	0	2		38.0	2.5	/experiments/knapen_aot/videos/S_yt-Id-f63kUHsE_20.mp4	0.0	203.56852507591248	
40	122.01698398590088	movie	1		301.0	38.0	2.5	/experiments/knapen_aot/videos/S_yt-Id-f63kUHsE_20.mp4	0.0	203.57783007621765	2.5071840286254883
40	124.52416801452637	fix_post	2		12.0	38.0	2.5	/experiments/knapen_aot/videos/S_yt-Id-f63kUHsE_20.mp4	0.0	206.08501410484314	0.09993505477905273
41	124.62410306930542	fix_pre	0		51.0	39.0	2.5	/experiments/knapen_aot/videos/S_yt-WFiEvQuOqqg_18.mp4	0.0	206.1849491596222	0.4250319004058838
41	125.03357005119324	response	0	2		39.0	2.5	/experiments/knapen_aot/videos/S_yt-WFiEvQuOqqg_18.mp4	0.0	206.59441614151	
41	125.0491349697113	movie	1		301.0	39.0	2.5	/experiments/knapen_aot/videos/S_yt-WFiEvQuOqqg_18.mp4	0.0	206.60998106002808	2.5083770751953125
41	127.55751204490662	fix_post	2		12.0	39.0	2.5	/experiments/knapen_aot/videos/S_yt-WFiEvQuOqqg_18.mp4	0.0	209.1183581352234	0.09999203681945801
42	127.65750408172607	fix_pre	0		59.0	40.0	2.5	/experiments/knapen_aot/videos/R_S_yt-oPq1uvbw-lQ_62.mp4	0.0	209.21835017204285	0.49167585372924805
42	128.14090394973755	response	0	2		40.0	2.5	/experiments/knapen_aot/videos/R_S_yt-oPq1uvbw-lQ_62.mp4	0.0	209.70175004005432	
42	128.14917993545532	movie	1		301.0	40.0	2.5	/experiments/knapen_aot/videos/R_S_yt-oPq1uvbw-lQ_62.mp4	0.0	209.7100260257721	2.5083200931549072
42	130.65750002861023	fix_post	2		12.0	40.0	2.5	/experiments/knapen_aot/videos/R_S_yt-oPq1uvbw-lQ_62.mp4	0.0	212.218346118927	0.1000058650970459
43	130.75750589370728	fix_pre	0		46.0	41.0	2.5	/experiments/knapen_aot/videos/S_ILSVRC2015_train_00324001.mp4	0.0	212.31835198402405	0.3843801021575928
43	131.13265585899353	response	0	2		41.0	2.5	/experiments/knapen_aot/videos/S_ILSVRC2015_train_00324001.mp4	0.0	212.6935019493103	
43	131.14188599586487	movie	1		301.0	41.0	2.5	/experiments/knapen_aot/videos/S_ILSVRC2015_train_00324001.mp4	0.0	212.70273208618164	2.507279872894287
43	133.64916586875916	fix_post	2		12.0	41.0	2.5	/experiments/knapen_aot/videos/S_ILSVRC2015_train_00324001.mp4	0.0	215.21001195907593	0.09997010231018066
44	133.74913597106934	fix_pre	0		47.0	42.0	2.5	blank	1.0	215.3099820613861	0.39170002937316895
44	134.13256406784058	response	0	2		42.0	2.5	blank	1.0	215.69341015815735	
44	134.1408360004425	movie	1		301.0	42.0	2.5	blank	1.0	215.70168209075928	2.508312940597534
44	136.64914894104004	fix_post	2		12.0	42.0	2.5	blank	1.0	218.2099950313568	0.10012602806091309
45	136.74927496910095	fix_pre	0		26.0	43.0	2.5	/experiments/knapen_aot/videos/S_pexels-tima-miroshnichenko-6077718.mp4	0.0	218.31012105941772	0.21654200553894043
45	136.95760202407837	response	0	2		43.0	2.5	/experiments/knapen_aot/videos/S_pexels-tima-miroshnichenko-6077718.mp4	0.0	218.51844811439514	
45	136.9658169746399	movie	1		169.0	43.0	2.5	/experiments/knapen_aot/videos/S_pexels-tima-miroshnichenko-6077718.mp4	0.0	218.52666306495667	2.5083088874816895
45	139.47412586212158	fix_post	2		12.0	43.0	2.5	/experiments/knapen_aot/videos/S_pexels-tima-miroshnichenko-6077718.mp4	0.0	221.03497195243835	0.0999290943145752
46	139.57405495643616	fix_pre	0		59.0	44.0	2.5	/experiments/knapen_aot/videos/R_S_yt-3EZOeAbiMQE_10.mp4	0.0	221.13490104675293	0.4916839599609375
46	140.0576000213623	response	0	2		44.0	2.5	/experiments/knapen_aot/videos/R_S_yt-3EZOeAbiMQE_10.mp4	0.0	221.61844611167908	
46	140.0657389163971	movie	1		301.0	44.0	2.5	/experiments/knapen_aot/videos/R_S_yt-3EZOeAbiMQE_10.mp4	0.0	221.62658500671387	2.508384943008423
46	142.57412385940552	fix_post	2		12.0	44.0	2.5	/experiments/knapen_aot/videos/R_S_yt-3EZOeAbiMQE_10.mp4	0.0	224.1349699497223	0.09995317459106445
47	142.67407703399658	fix_pre	0		47.0	45.0	2.5	/experiments/knapen_aot/videos/R_S_yt--koo4FOfZE0_86.mp4	0.0	224.23492312431335	0.3916769027709961
47	143.05751490592957	response	0	2		45.0	2.5	/experiments/knapen_aot/videos/R_S_yt--koo4FOfZE0_86.mp4	0.0	224.61836099624634	
47	143.06575393676758	movie	1		301.0	45.0	2.5	/experiments/knapen_aot/videos/R_S_yt--koo4FOfZE0_86.mp4	0.0	224.62660002708435	2.508358955383301
47	145.57411289215088	fix_post	2		12.0	45.0	2.5	/experiments/knapen_aot/videos/R_S_yt--koo4FOfZE0_86.mp4	0.0	227.13495898246765	0.0999910831451416
48	145.67410397529602	fix_pre	0		86.0	46.0	2.5	/experiments/knapen_aot/videos/R_S_video_inspire_oregon_portland_00064.1080-h264.mp4	0.0	227.2349500656128	0.7176179885864258
48	146.38257694244385	response	0	2		46.0	2.5	/experiments/knapen_aot/videos/R_S_video_inspire_oregon_portland_00064.1080-h264.mp4	0.0	227.94342303276062	
48	146.39172196388245	movie	1		170.0	46.0	2.5	/experiments/knapen_aot/videos/R_S_video_inspire_oregon_portland_00064.1080-h264.mp4	0.0	227.95256805419922	2.5073299407958984
48	148.89905190467834	fix_post	2		12.0	46.0	2.5	/experiments/knapen_aot/videos/R_S_video_inspire_oregon_portland_00064.1080-h264.mp4	0.0	230.45989799499512	0.09998703002929688
49	148.99903893470764	fix_pre	0		123.0	47.0	2.5	/experiments/knapen_aot/videos/R_S_m-aeoYPMqfg_185.mp4	0.0	230.5598850250244	1.0249440670013428
49	150.01588892936707	response	0	2		47.0	2.5	/experiments/knapen_aot/videos/R_S_m-aeoYPMqfg_185.mp4	0.0	231.57673501968384	
49	150.02398300170898	movie	1		301.0	47.0	2.5	/experiments/knapen_aot/videos/R_S_m-aeoYPMqfg_185.mp4	0.0	231.58482909202576	2.5083980560302734
49	152.53238105773926	fix_post	2		12.0	47.0	2.5	/experiments/knapen_aot/videos/R_S_m-aeoYPMqfg_185.mp4	0.0	234.09322714805603	0.10005784034729004
50	152.63243889808655	fix_pre	0		63.0	48.0	2.5	/experiments/knapen_aot/videos/R_S_P005_C002_UHD_SDR_2K_AVC.mp4	0.0	234.19328498840332	0.5250000953674316
50	153.14927101135254	response	0	2		48.0	2.5	/experiments/knapen_aot/videos/R_S_P005_C002_UHD_SDR_2K_AVC.mp4	0.0	234.7101171016693	
50	153.15743899345398	movie	1		172.0	48.0	2.5	/experiments/knapen_aot/videos/R_S_P005_C002_UHD_SDR_2K_AVC.mp4	0.0	234.71828508377075	2.5083389282226562
50	155.66577792167664	fix_post	2		12.0	48.0	2.5	/experiments/knapen_aot/videos/R_S_P005_C002_UHD_SDR_2K_AVC.mp4	0.0	237.2266240119934	0.09998703002929688
51	155.76576495170593	fix_pre	0		206.0	49.0	2.5	blank	1.0	237.3266110420227	1.724992036819458
51	157.48254799842834	response	0	2		49.0	2.5	blank	1.0	239.04339408874512	
51	157.4907569885254	movie	1		301.0	49.0	2.5	blank	1.0	239.05160307884216	2.5083060264587402
51	159.99906301498413	fix_post	2		12.0	49.0	2.5	blank	1.0	241.5599091053009	0.09995484352111816
52	160.09901785850525	fix_pre	0		43.0	50.0	2.5	/experiments/knapen_aot/videos/S_yt-GETRVzxihhM_74.mp4	0.0	241.65986394882202	0.3583991527557373
52	160.4491970539093	response	0	2		50.0	2.5	/experiments/knapen_aot/videos/S_yt-GETRVzxihhM_74.mp4	0.0	242.01004314422607	
52	160.457417011261	movie	1		301.0	50.0	2.5	/experiments/knapen_aot/videos/S_yt-GETRVzxihhM_74.mp4	0.0	242.01826310157776	2.508319854736328
52	162.96573686599731	fix_post	2		12.0	50.0	2.5	/experiments/knapen_aot/videos/S_yt-GETRVzxihhM_74.mp4	0.0	244.5265829563141	0.09994912147521973
53	163.06568598747253	fix_pre	0		38.0	51.0	2.5	/experiments/knapen_aot/videos/S_ILSVRC2015_train_00473001.mp4	0.0	244.6265320777893	0.31671595573425293
53	163.37425208091736	response	0	2		51.0	2.5	/experiments/knapen_aot/videos/S_ILSVRC2015_train_00473001.mp4	0.0	244.93509817123413	
53	163.3824019432068	movie	1		301.0	51.0	2.5	/experiments/knapen_aot/videos/S_ILSVRC2015_train_00473001.mp4	0.0	244.94324803352356	2.5083279609680176
53	165.8907299041748	fix_post	2		12.0	51.0	2.5	/experiments/knapen_aot/videos/S_ILSVRC2015_train_00473001.mp4	0.0	247.45157599449158	0.10000014305114746
54	165.99073004722595	fix_pre	0		84.0	52.0	2.5	/experiments/knapen_aot/videos/S_yt-MsSEF0krKE4_149.mp4	0.0	247.55157613754272	0.6999328136444092
54	166.6825020313263	response	0	2		52.0	2.5	/experiments/knapen_aot/videos/S_yt-MsSEF0krKE4_149.mp4	0.0	248.24334812164307	
54	166.69066286087036	movie	1		298.0	52.0	2.5	/experiments/knapen_aot/videos/S_yt-MsSEF0krKE4_149.mp4	0.0	248.25150895118713	2.508432149887085
54	169.19909501075745	fix_post	2		12.0	52.0	2.5	/experiments/knapen_aot/videos/S_yt-MsSEF0krKE4_149.mp4	0.0	250.75994110107422	0.09994888305664062
55	169.2990438938141	fix_pre	0		83.0	53.0	2.5	/experiments/knapen_aot/videos/S_yt-s-J3C6e5A3Q_18.mp4	0.0	250.85988998413086	0.6916160583496094
55	169.98252296447754	response	0	2		53.0	2.5	/experiments/knapen_aot/videos/S_yt-s-J3C6e5A3Q_18.mp4	0.0	251.5433690547943	
55	169.9906599521637	movie	1		300.0	53.0	2.5	/experiments/knapen_aot/videos/S_yt-s-J3C6e5A3Q_18.mp4	0.0	251.55150604248047	2.508312940597534
55	172.49897289276123	fix_post	2		12.0	53.0	2.5	/experiments/knapen_aot/videos/S_yt-s-J3C6e5A3Q_18.mp4	0.0	254.059818983078	0.10004711151123047
56	172.59902000427246	fix_pre	0		41.0	54.0	2.5	/experiments/knapen_aot/videos/R_S_yt-RWN5qOIgqec_25.mp4	0.0	254.15986609458923	0.34165287017822266
56	172.93257594108582	response	0	2		54.0	2.5	/experiments/knapen_aot/videos/R_S_yt-RWN5qOIgqec_25.mp4	0.0	254.4934220314026	
56	172.94067287445068	movie	1		301.0	54.0	2.5	/experiments/knapen_aot/videos/R_S_yt-RWN5qOIgqec_25.mp4	0.0	254.50151896476746	2.508294105529785
56	175.44896697998047	fix_post	2		12.0	54.0	2.5	/experiments/knapen_aot/videos/R_S_yt-RWN5qOIgqec_25.mp4	0.0	257.00981307029724	0.10005903244018555
57	175.54902601242065	fix_pre	0		38.0	55.0	2.5	blank	1.0	257.1098721027374	0.31667184829711914
57	175.85746502876282	response	0	2		55.0	2.5	blank	1.0	257.4183111190796	
57	175.86569786071777	movie	1		301.0	55.0	2.5	blank	1.0	257.42654395103455	2.508204221725464
57	178.37390208244324	fix_post	2		12.0	55.0	2.5	blank	1.0	259.93474817276	0.10010600090026855
58	178.4740080833435	fix_pre	0		31.0	56.0	2.5	/experiments/knapen_aot/videos/S_yt-G_eNNzNB-hU_1.mp4	0.0	260.0348541736603	0.2583317756652832
58	178.7240879535675	response	0	2		56.0	2.5	/experiments/knapen_aot/videos/S_yt-G_eNNzNB-hU_1.mp4	0.0	260.2849340438843	
58	178.7323398590088	movie	1		301.0	56.0	2.5	/experiments/knapen_aot/videos/S_yt-G_eNNzNB-hU_1.mp4	0.0	260.29318594932556	2.5083420276641846
58	181.24068188667297	fix_post	2		12.0	56.0	2.5	/experiments/knapen_aot/videos/S_yt-G_eNNzNB-hU_1.mp4	0.0	262.80152797698975	0.09998798370361328
59	181.3406698703766	fix_pre	0		46.0	57.0	2.5	/experiments/knapen_aot/videos/S_wc-0SAXOWjdNVGC_8.mp4	0.0	262.90151596069336	0.38407111167907715
59	181.7157380580902	response	0	2		57.0	2.5	/experiments/knapen_aot/videos/S_wc-0SAXOWjdNVGC_8.mp4	0.0	263.276584148407	
59	181.72474098205566	movie	1		164.0	57.0	2.5	/experiments/knapen_aot/videos/S_wc-0SAXOWjdNVGC_8.mp4	0.0	263.28558707237244	2.5075180530548096
59	184.23225903511047	fix_post	2		12.0	57.0	2.5	/experiments/knapen_aot/videos/S_wc-0SAXOWjdNVGC_8.mp4	0.0	265.79310512542725	0.10002994537353516
60	184.332288980484	fix_pre	0		37.0	58.0	2.5	/experiments/knapen_aot/videos/S_yt-rIQoRErqnlI_17.mp4	0.0	265.8931350708008	0.3090789318084717
60	184.632395029068	response	0	2		58.0	2.5	/experiments/knapen_aot/videos/S_yt-rIQoRErqnlI_17.mp4	0.0	266.19324111938477	
60	184.64136791229248	movie	1		301.0	58.0	2.5	/experiments/knapen_aot/videos/S_yt-rIQoRErqnlI_17.mp4	0.0	266.20221400260925	2.5074901580810547
60	187.14885807037354	fix_post	2		12.0	58.0	2.5	/experiments/knapen_aot/videos/S_yt-rIQoRErqnlI_17.mp4	0.0	268.7097041606903	0.10005879402160645
61	187.24891686439514	fix_pre	0		21.0	59.0	2.5	/experiments/knapen_aot/videos/R_S_yt-Snha8C5YOiY_26.mp4	0.0	268.8097629547119	0.174943208694458
61	187.41580390930176	response	0	2		59.0	2.5	/experiments/knapen_aot/videos/R_S_yt-Snha8C5YOiY_26.mp4	0.0	268.97664999961853	
61	187.4238600730896	movie	1		301.0	59.0	2.5	/experiments/knapen_aot/videos/R_S_yt-Snha8C5YOiY_26.mp4	0.0	268.9847061634064	2.508323907852173
61	189.93218398094177	fix_post	2		12.0	59.0	2.5	/experiments/knapen_aot/videos/R_S_yt-Snha8C5YOiY_26.mp4	0.0	271.49303007125854	0.10006999969482422
62	190.0322539806366	fix_pre	0		43.0	60.0	2.5	/experiments/knapen_aot/videos/R_S_yt-Xegmd8whqBs_230.mp4	0.0	271.59310007095337	0.3590579032897949
62	190.38236808776855	response	0	2		60.0	2.5	/experiments/knapen_aot/videos/R_S_yt-Xegmd8whqBs_230.mp4	0.0	271.9432141780853	
62	190.3913118839264	movie	1		301.0	60.0	2.5	/experiments/knapen_aot/videos/R_S_yt-Xegmd8whqBs_230.mp4	0.0	271.95215797424316	2.507534980773926
62	192.89884686470032	fix_post	2		12.0	60.0	2.5	/experiments/knapen_aot/videos/R_S_yt-Xegmd8whqBs_230.mp4	0.0	274.4596929550171	0.10007715225219727
63	192.99892401695251	fix_pre	0		47.0	61.0	2.5	/experiments/knapen_aot/videos/R_S_ILSVRC2015_train_00251004.mp4	0.0	274.5597701072693	0.3923819065093994
63	193.38236594200134	response	0	2		61.0	2.5	/experiments/knapen_aot/videos/R_S_ILSVRC2015_train_00251004.mp4	0.0	274.9432120323181	
63	193.3913059234619	movie	1		301.0	61.0	2.5	/experiments/knapen_aot/videos/R_S_ILSVRC2015_train_00251004.mp4	0.0	274.9521520137787	2.507718086242676
63	195.8990240097046	fix_post	2		12.0	61.0	2.5	/experiments/knapen_aot/videos/R_S_ILSVRC2015_train_00251004.mp4	0.0	277.45987010002136	0.09987497329711914
64	195.9988989830017	fix_pre	0		50.0	62.0	2.5	/experiments/knapen_aot/videos/S_yt-_zDYi2P-QxY_128.mp4	0.0	277.5597450733185	0.41655993461608887
64	196.40737295150757	response	0	2		62.0	2.5	/experiments/knapen_aot/videos/S_yt-_zDYi2P-QxY_128.mp4	0.0	277.96821904182434	
64	196.4154589176178	movie	1		301.0	62.0	2.5	/experiments/knapen_aot/videos/S_yt-_zDYi2P-QxY_128.mp4	0.0	277.97630500793457	2.508470058441162
64	198.92392897605896	fix_post	2		12.0	62.0	2.5	/experiments/knapen_aot/videos/S_yt-_zDYi2P-QxY_128.mp4	0.0	280.48477506637573	0.0999898910522461
65	199.0239188671112	fix_pre	0		185.0	63.0	2.5	blank	1.0	280.584764957428	1.541612148284912
65	200.55728602409363	response	0	2		63.0	2.5	blank	1.0	282.1181321144104	
65	200.56553101539612	movie	1		301.0	63.0	2.5	blank	1.0	282.1263771057129	2.50838303565979
65	203.0739140510559	fix_post	2		12.0	63.0	2.5	blank	1.0	284.6347601413727	0.09994697570800781
66	203.17386102676392	fix_pre	0		25.0	64.0	2.5	/experiments/knapen_aot/videos/R_S_pexels-marcus-aurelius-6785014.mp4	0.0	284.7347071170807	0.2083890438079834
66	203.3739550113678	response	0	2		64.0	2.5	/experiments/knapen_aot/videos/R_S_pexels-marcus-aurelius-6785014.mp4	0.0	284.93480110168457	
66	203.3822500705719	movie	1		172.0	64.0	2.5	/experiments/knapen_aot/videos/R_S_pexels-marcus-aurelius-6785014.mp4	0.0	284.9430961608887	2.5082669258117676
66	205.89051699638367	fix_post	2		12.0	64.0	2.5	/experiments/knapen_aot/videos/R_S_pexels-marcus-aurelius-6785014.mp4	0.0	287.45136308670044	0.10001492500305176
67	205.99053192138672	fix_pre	0		62.0	65.0	2.5	/experiments/knapen_aot/videos/S_comp_LA_A005_C009_PSNK_ALT_v09_SDR_PS_201809134_SDR_2K_AVC.mp4	0.0	287.5513780117035	0.5165879726409912
67	206.4990050792694	response	0	2		65.0	2.5	/experiments/knapen_aot/videos/S_comp_LA_A005_C009_PSNK_ALT_v09_SDR_PS_201809134_SDR_2K_AVC.mp4	0.0	288.0598511695862	
67	206.5071198940277	movie	1		170.0	65.0	2.5	/experiments/knapen_aot/videos/S_comp_LA_A005_C009_PSNK_ALT_v09_SDR_PS_201809134_SDR_2K_AVC.mp4	0.0	288.0679659843445	2.5083680152893066
67	209.01548790931702	fix_post	2		12.0	65.0	2.5	/experiments/knapen_aot/videos/S_comp_LA_A005_C009_PSNK_ALT_v09_SDR_PS_201809134_SDR_2K_AVC.mp4	0.0	290.5763339996338	0.10000300407409668
68	209.1154909133911	fix_pre	0		106.0	66.0	2.5	/experiments/knapen_aot/videos/R_S_yt-z5rxY-WhFNw_15.mp4	0.0	290.6763370037079	0.8832809925079346
68	209.99061703681946	response	0	2		66.0	2.5	/experiments/knapen_aot/videos/R_S_yt-z5rxY-WhFNw_15.mp4	0.0	291.55146312713623	
68	209.99877190589905	movie	1		300.0	66.0	2.5	/experiments/knapen_aot/videos/R_S_yt-z5rxY-WhFNw_15.mp4	0.0	291.5596179962158	2.508419990539551
68	212.5071918964386	fix_post	2		12.0	66.0	2.5	/experiments/knapen_aot/videos/R_S_yt-z5rxY-WhFNw_15.mp4	0.0	294.06803798675537	0.0999150276184082
69	212.607106924057	fix_pre	0		52.0	67.0	2.5	/experiments/knapen_aot/videos/R_S_ILSVRC2015_train_00507000.mp4	0.0	294.1679530143738	0.4332900047302246
69	213.0323028564453	response	0	2		67.0	2.5	/experiments/knapen_aot/videos/R_S_ILSVRC2015_train_00507000.mp4	0.0	294.5931489467621	
69	213.04039692878723	movie	1		301.0	67.0	2.5	/experiments/knapen_aot/videos/R_S_ILSVRC2015_train_00507000.mp4	0.0	294.601243019104	2.50839900970459
69	215.54879593849182	fix_post	2		12.0	67.0	2.5	/experiments/knapen_aot/videos/R_S_ILSVRC2015_train_00507000.mp4	0.0	297.1096420288086	0.10004997253417969
70	215.648845911026	fix_pre	0		131.0	68.0	2.5	blank	1.0	297.2096920013428	1.0915660858154297
70	216.7322690486908	response	0	2		68.0	2.5	blank	1.0	298.29311513900757	
70	216.74041199684143	movie	1		301.0	68.0	2.5	blank	1.0	298.3012580871582	2.508404016494751
70	219.24881601333618	fix_post	2		12.0	68.0	2.5	blank	1.0	300.80966210365295	0.09999990463256836
71	219.34881591796875	fix_pre	0		25.0	69.0	2.5	/experiments/knapen_aot/videos/R_S_yt-ayx4rU9bJrU_179.mp4	0.0	300.9096620082855	0.20891714096069336
71	219.54883098602295	response	0	2		69.0	2.5	/experiments/knapen_aot/videos/R_S_yt-ayx4rU9bJrU_179.mp4	0.0	301.1096770763397	
71	219.55773305892944	movie	1		301.0	69.0	2.5	/experiments/knapen_aot/videos/R_S_yt-ayx4rU9bJrU_179.mp4	0.0	301.1185791492462	2.5076498985290527
71	222.0653829574585	fix_post	2		12.0	69.0	2.5	/experiments/knapen_aot/videos/R_S_yt-ayx4rU9bJrU_179.mp4	0.0	303.62622904777527	0.10005307197570801
72	222.1654360294342	fix_pre	0		227.0	70.0	2.5	/experiments/knapen_aot/videos/S_wc-b4Oquu3WQPRz_45.mp4	0.0	303.726282119751	1.8922638893127441
72	224.04886198043823	response	0	2		70.0	2.5	/experiments/knapen_aot/videos/S_wc-b4Oquu3WQPRz_45.mp4	0.0	305.609708070755	
72	224.05769991874695	movie	1		167.0	70.0	2.5	/experiments/knapen_aot/videos/S_wc-b4Oquu3WQPRz_45.mp4	0.0	305.6185460090637	2.507662057876587
72	226.56536197662354	fix_post	2		12.0	70.0	2.5	/experiments/knapen_aot/videos/S_wc-b4Oquu3WQPRz_45.mp4	0.0	308.1262080669403	0.10003089904785156
73	226.6653928756714	fix_pre	0		63.0	71.0	2.5	/experiments/knapen_aot/videos/R_S_yt-lv6mhnH7_g4_134.mp4	0.0	308.22623896598816	0.5250210762023926
73	227.18226599693298	response	0	2		71.0	2.5	/experiments/knapen_aot/videos/R_S_yt-lv6mhnH7_g4_134.mp4	0.0	308.74311208724976	
73	227.19041395187378	movie	1		301.0	71.0	2.5	/experiments/knapen_aot/videos/R_S_yt-lv6mhnH7_g4_134.mp4	0.0	308.75126004219055	2.5083351135253906
73	229.69874906539917	fix_post	2		12.0	71.0	2.5	/experiments/knapen_aot/videos/R_S_yt-lv6mhnH7_g4_134.mp4	0.0	311.25959515571594	0.10005998611450195
74	229.79880905151367	fix_pre	0		50.0	72.0	2.5	/experiments/knapen_aot/videos/R_S_yt-LdHRVIb4nIE_6.mp4	0.0	311.35965514183044	0.4165818691253662
74	230.2072229385376	response	0	2		72.0	2.5	/experiments/knapen_aot/videos/R_S_yt-LdHRVIb4nIE_6.mp4	0.0	311.76806902885437	
74	230.21539092063904	movie	1		297.0	72.0	2.5	/experiments/knapen_aot/videos/R_S_yt-LdHRVIb4nIE_6.mp4	0.0	311.7762370109558	2.5083329677581787
74	232.72372388839722	fix_post	2		12.0	72.0	2.5	/experiments/knapen_aot/videos/R_S_yt-LdHRVIb4nIE_6.mp4	0.0	314.284569978714	0.10003113746643066
75	232.82375502586365	fix_pre	0		74.0	73.0	2.5	/experiments/knapen_aot/videos/S_video_inspire_oregon_portland_00064.1080-h264.mp4	0.0	314.3846011161804	0.6165988445281982
75	233.43221402168274	response	0	2		73.0	2.5	/experiments/knapen_aot/videos/S_video_inspire_oregon_portland_00064.1080-h264.mp4	0.0	314.9930601119995	
75	233.44035387039185	movie	1		170.0	73.0	2.5	/experiments/knapen_aot/videos/S_video_inspire_oregon_portland_00064.1080-h264.mp4	0.0	315.0011999607086	2.5083930492401123
75	235.94874691963196	fix_post	2		12.0	73.0	2.5	/experiments/knapen_aot/videos/S_video_inspire_oregon_portland_00064.1080-h264.mp4	0.0	317.50959300994873	0.10004401206970215
76	236.04879093170166	fix_pre	0		54.0	74.0	2.5	/experiments/knapen_aot/videos/S_yt-CH4HfNRC1hY_40.mp4	0.0	317.60963702201843	0.4498751163482666
76	236.49056005477905	response	0	2		74.0	2.5	/experiments/knapen_aot/videos/S_yt-CH4HfNRC1hY_40.mp4	0.0	318.0514061450958	
76	236.49866604804993	movie	1		301.0	74.0	2.5	/experiments/knapen_aot/videos/S_yt-CH4HfNRC1hY_40.mp4	0.0	318.0595121383667	2.508358955383301
76	239.00702500343323	fix_post	2		12.0	74.0	2.5	/experiments/knapen_aot/videos/S_yt-CH4HfNRC1hY_40.mp4	0.0	320.56787109375	0.10007500648498535
77	239.1071000099182	fix_pre	0		60.0	75.0	2.5	/experiments/knapen_aot/videos/R_S_ILSVRC2015_train_00405001.mp4	0.0	320.667946100235	0.4999098777770996
77	239.5988450050354	response	0	2		75.0	2.5	/experiments/knapen_aot/videos/R_S_ILSVRC2015_train_00405001.mp4	0.0	321.1596910953522	
77	239.6070098876953	movie	1		301.0	75.0	2.5	/experiments/knapen_aot/videos/R_S_ILSVRC2015_train_00405001.mp4	0.0	321.1678559780121	2.508355140686035
77	242.11536502838135	fix_post	2		12.0	75.0	2.5	/experiments/knapen_aot/videos/R_S_ILSVRC2015_train_00405001.mp4	0.0	323.6762111186981	0.09999895095825195
78	242.2153639793396	fix_pre	0		37.0	76.0	2.5	blank	1.0	323.7762100696564	0.30826902389526367
78	242.51552295684814	response	0	2		76.0	2.5	blank	1.0	324.0763690471649	
78	242.52363300323486	movie	1		301.0	76.0	2.5	blank	1.0	324.08447909355164	2.5083670616149902
78	245.03200006484985	fix_post	2		12.0	76.0	2.5	blank	1.0	326.5928461551666	0.10003900527954102
79	245.1320390701294	fix_pre	0		23.0	77.0	2.5	/experiments/knapen_aot/videos/S_yt-Uv0dt_-fWJU_40.mp4	0.0	326.69288516044617	0.19157791137695312
79	245.31545186042786	response	0	2		77.0	2.5	/experiments/knapen_aot/videos/S_yt-Uv0dt_-fWJU_40.mp4	0.0	326.87629795074463	
79	245.32361698150635	movie	1		301.0	77.0	2.5	/experiments/knapen_aot/videos/S_yt-Uv0dt_-fWJU_40.mp4	0.0	326.8844630718231	2.5084149837493896
79	247.83203196525574	fix_post	2		12.0	77.0	2.5	/experiments/knapen_aot/videos/S_yt-Uv0dt_-fWJU_40.mp4	0.0	329.3928780555725	0.0999760627746582
80	247.9320080280304	fix_pre	0		55.0	78.0	2.5	/experiments/knapen_aot/videos/R_S_production_ID_4802710.mp4	0.0	329.49285411834717	0.4587700366973877
80	248.38206601142883	response	0	2		78.0	2.5	/experiments/knapen_aot/videos/R_S_production_ID_4802710.mp4	0.0	329.9429121017456	
80	248.39077806472778	movie	1		168.0	78.0	2.5	/experiments/knapen_aot/videos/R_S_production_ID_4802710.mp4	0.0	329.95162415504456	2.5078859329223633
80	250.89866399765015	fix_post	2		12.0	78.0	2.5	/experiments/knapen_aot/videos/R_S_production_ID_4802710.mp4	0.0	332.4595100879669	0.1000058650970459
81	250.9986698627472	fix_pre	0		61.0	79.0	2.5	/experiments/knapen_aot/videos/S_pexels-roman-odintsov-8232443_1.mp4	0.0	332.55951595306396	0.5083332061767578
81	251.4988899230957	response	0	2		79.0	2.5	/experiments/knapen_aot/videos/S_pexels-roman-odintsov-8232443_1.mp4	0.0	333.0597360134125	
81	251.50700306892395	movie	1		205.0	79.0	2.5	/experiments/knapen_aot/videos/S_pexels-roman-odintsov-8232443_1.mp4	0.0	333.0678491592407	2.5083508491516113
81	254.01535391807556	fix_post	2		12.0	79.0	2.5	/experiments/knapen_aot/videos/S_pexels-roman-odintsov-8232443_1.mp4	0.0	335.57620000839233	0.09994816780090332
82	254.11530208587646	fix_pre	0		142.0	80.0	2.5	/experiments/knapen_aot/videos/S_4_D1iUb87uE_15.mp4	0.0	335.67614817619324	1.1833398342132568
82	255.29049587249756	response	0	2		80.0	2.5	/experiments/knapen_aot/videos/S_4_D1iUb87uE_15.mp4	0.0	336.85134196281433	
82	255.29864192008972	movie	1		301.0	80.0	2.5	/experiments/knapen_aot/videos/S_4_D1iUb87uE_15.mp4	0.0	336.8594880104065	2.5083179473876953
82	257.8069598674774	fix_post	2		12.0	80.0	2.5	/experiments/knapen_aot/videos/S_4_D1iUb87uE_15.mp4	0.0	339.3678059577942	0.10007405281066895
83	257.9070339202881	fix_pre	0		35.0	81.0	2.5	/experiments/knapen_aot/videos/R_S_yt-z16pdVTZK1o_3.mp4	0.0	339.46788001060486	0.2915821075439453
83	258.19033694267273	response	0	2		81.0	2.5	/experiments/knapen_aot/videos/R_S_yt-z16pdVTZK1o_3.mp4	0.0	339.7511830329895	
83	258.19861602783203	movie	1		301.0	81.0	2.5	/experiments/knapen_aot/videos/R_S_yt-z16pdVTZK1o_3.mp4	0.0	339.7594621181488	2.5083160400390625
83	260.7069320678711	fix_post	2		12.0	81.0	2.5	/experiments/knapen_aot/videos/R_S_yt-z16pdVTZK1o_3.mp4	0.0	342.26777815818787	0.09996581077575684
84	260.80689787864685	fix_pre	0		97.0	82.0	2.5	blank	1.0	342.3677439689636	0.8083710670471191
84	261.60711193084717	response	0	2		82.0	2.5	blank	1.0	343.16795802116394	
84	261.61526894569397	movie	1		301.0	82.0	2.5	blank	1.0	343.17611503601074	2.508355140686035
84	264.12362408638	fix_post	2		12.0	82.0	2.5	blank	1.0	345.6844701766968	0.09997892379760742
85	264.2236030101776	fix_pre	0		29.0	83.0	2.5	/experiments/knapen_aot/videos/R_S_yt-WhQMF3WM0Ig_29.mp4	0.0	345.7844491004944	0.24164104461669922
85	264.4570050239563	response	0	2		83.0	2.5	/experiments/knapen_aot/videos/R_S_yt-WhQMF3WM0Ig_29.mp4	0.0	346.01785111427307	
85	264.4652440547943	movie	1		301.0	83.0	2.5	/experiments/knapen_aot/videos/R_S_yt-WhQMF3WM0Ig_29.mp4	0.0	346.0260901451111	2.5083799362182617
85	266.9736239910126	fix_post	2		12.0	83.0	2.5	/experiments/knapen_aot/videos/R_S_yt-WhQMF3WM0Ig_29.mp4	0.0	348.53447008132935	0.10005497932434082
87	267.0736789703369	stim	0		453.0					348.6345250606537	3.775278091430664
87	270.8413419723511	response	0	space						352.40218806266785	
