trial_nr	onset	event_type	phase	response	nr_frames	movie_index	movie_duration	movie_file	blank	onset_abs	duration
0	0.15097999572753906	stim	0		84.0					194.0833580493927	0.6985259056091309
0	0.4249000549316406	response	0	escape						194.3572781085968	
0	0.8411538600921631	response	0	space						194.77353191375732	
1	0.8495059013366699	stim	0		121.0					194.78188395500183	1.0081441402435303
1	1.8576500415802002	stim	1		120.0					195.79002809524536	1.0001049041748047
2	2.857754945755005	fix_pre	0		91.0	0.0	2.5	/experiments/knapen_aot/videos/R_S_g201_WH_D004_L014_SDR_20191031_SDR_2K_AVC.mp4	0.0	196.79013299942017	0.758310079574585
2	3.6088368892669678	response	0	2		0.0	2.5	/experiments/knapen_aot/videos/R_S_g201_WH_D004_L014_SDR_20191031_SDR_2K_AVC.mp4	0.0	197.54121494293213	
2	3.61606502532959	movie	1		165.0	0.0	2.5	/experiments/knapen_aot/videos/R_S_g201_WH_D004_L014_SDR_20191031_SDR_2K_AVC.mp4	0.0	197.54844307899475	2.508392810821533
2	6.124457836151123	fix_post	2		12.0	0.0	2.5	/experiments/knapen_aot/videos/R_S_g201_WH_D004_L014_SDR_20191031_SDR_2K_AVC.mp4	0.0	200.05683588981628	0.10003805160522461
3	6.224495887756348	fix_pre	0		42.0	1.0	2.5	/experiments/knapen_aot/videos/S_yt-hWXr5bv2_uA_48.mp4	0.0	200.1568739414215	0.3499259948730469
3	6.566208839416504	response	0	2		1.0	2.5	/experiments/knapen_aot/videos/S_yt-hWXr5bv2_uA_48.mp4	0.0	200.49858689308167	
3	6.5744218826293945	movie	1		298.0	1.0	2.5	/experiments/knapen_aot/videos/S_yt-hWXr5bv2_uA_48.mp4	0.0	200.50679993629456	2.508277177810669
3	9.082699060440063	fix_post	2		12.0	1.0	2.5	/experiments/knapen_aot/videos/S_yt-hWXr5bv2_uA_48.mp4	0.0	203.01507711410522	0.10005593299865723
4	9.18275499343872	fix_pre	0		21.0	2.0	2.5	/experiments/knapen_aot/videos/S_wc-6or3Gl2Fif0m_13.mp4	0.0	203.11513304710388	0.1760549545288086
4	9.349424839019775	response	0	2		2.0	2.5	/experiments/knapen_aot/videos/S_wc-6or3Gl2Fif0m_13.mp4	0.0	203.28180289268494	
4	9.35880994796753	movie	1		164.0	2.0	2.5	/experiments/knapen_aot/videos/S_wc-6or3Gl2Fif0m_13.mp4	0.0	203.2911880016327	2.5072240829467773
4	11.866034030914307	fix_post	2		12.0	2.0	2.5	/experiments/knapen_aot/videos/S_wc-6or3Gl2Fif0m_13.mp4	0.0	205.79841208457947	0.10004186630249023
5	11.966075897216797	fix_pre	0		8.0	3.0	2.5	/experiments/knapen_aot/videos/S_yt-4x2eUikn9rw_212.mp4	0.0	205.89845395088196	0.06661701202392578
5	12.02452802658081	response	0	2		3.0	2.5	/experiments/knapen_aot/videos/S_yt-4x2eUikn9rw_212.mp4	0.0	205.95690608024597	
5	12.032692909240723	movie	1		301.0	3.0	2.5	/experiments/knapen_aot/videos/S_yt-4x2eUikn9rw_212.mp4	0.0	205.96507096290588	2.5084221363067627
5	14.541115045547485	fix_post	2		12.0	3.0	2.5	/experiments/knapen_aot/videos/S_yt-4x2eUikn9rw_212.mp4	0.0	208.47349309921265	0.09993886947631836
6	14.641053915023804	fix_pre	0		30.0	4.0	2.5	/experiments/knapen_aot/videos/S_yt-wIZprsJwxBM_298.mp4	0.0	208.57343196868896	0.2500340938568115
6	14.875253915786743	response	0	2		4.0	2.5	/experiments/knapen_aot/videos/S_yt-wIZprsJwxBM_298.mp4	0.0	208.8076319694519	
6	14.891088008880615	movie	1		301.0	4.0	2.5	/experiments/knapen_aot/videos/S_yt-wIZprsJwxBM_298.mp4	0.0	208.82346606254578	2.508281946182251
6	17.399369955062866	fix_post	2		12.0	4.0	2.5	/experiments/knapen_aot/videos/S_yt-wIZprsJwxBM_298.mp4	0.0	211.33174800872803	0.10007810592651367
7	17.49944806098938	fix_pre	0		34.0	5.0	2.5	/experiments/knapen_aot/videos/R_S_yt-etQaTgGOhR4_69.mp4	0.0	211.43182611465454	0.2832019329071045
7	17.774528980255127	response	0	2		5.0	2.5	/experiments/knapen_aot/videos/R_S_yt-etQaTgGOhR4_69.mp4	0.0	211.7069070339203	
7	17.782649993896484	movie	1		301.0	5.0	2.5	/experiments/knapen_aot/videos/R_S_yt-etQaTgGOhR4_69.mp4	0.0	211.71502804756165	2.508363962173462
7	20.291013956069946	fix_post	2		12.0	5.0	2.5	/experiments/knapen_aot/videos/R_S_yt-etQaTgGOhR4_69.mp4	0.0	214.2233920097351	0.09997010231018066
8	20.390984058380127	fix_pre	0		24.0	6.0	2.5	blank	1.0	214.3233621120453	0.19996881484985352
8	20.582876920700073	response	0	2		6.0	2.5	blank	1.0	214.51525497436523	
8	20.59095287322998	movie	1		301.0	6.0	2.5	blank	1.0	214.52333092689514	2.5083980560302734
8	23.099350929260254	fix_post	2		12.0	6.0	2.5	blank	1.0	217.03172898292542	0.10001802444458008
9	23.199368953704834	fix_pre	0		18.0	7.0	2.5	/experiments/knapen_aot/videos/R_S_yt-iT6jsSikmGM_4.mp4	0.0	217.13174700737	0.14997196197509766
9	23.341119050979614	response	0	2		7.0	2.5	/experiments/knapen_aot/videos/R_S_yt-iT6jsSikmGM_4.mp4	0.0	217.27349710464478	
9	23.34934091567993	movie	1		301.0	7.0	2.5	/experiments/knapen_aot/videos/R_S_yt-iT6jsSikmGM_4.mp4	0.0	217.2817189693451	2.5082919597625732
9	25.857632875442505	fix_post	2		12.0	7.0	2.5	/experiments/knapen_aot/videos/R_S_yt-iT6jsSikmGM_4.mp4	0.0	219.79001092910767	0.10008001327514648
10	25.95771288871765	fix_pre	0		30.0	8.0	2.5	/experiments/knapen_aot/videos/R_S_yt-GaJaxp546lc_22.mp4	0.0	219.8900909423828	0.2499711513519287
10	26.199383020401	response	0	2		8.0	2.5	/experiments/knapen_aot/videos/R_S_yt-GaJaxp546lc_22.mp4	0.0	220.13176107406616	
10	26.20768404006958	movie	1		300.0	8.0	2.5	/experiments/knapen_aot/videos/R_S_yt-GaJaxp546lc_22.mp4	0.0	220.14006209373474	2.508358955383301
10	28.71604299545288	fix_post	2		12.0	8.0	2.5	/experiments/knapen_aot/videos/R_S_yt-GaJaxp546lc_22.mp4	0.0	222.64842104911804	0.09993886947631836
11	28.8159818649292	fix_pre	0		26.0	9.0	2.5	/experiments/knapen_aot/videos/S_yt-gMqeZkpA_1Q_61.mp4	0.0	222.74835991859436	0.21663999557495117
11	29.02449083328247	response	0	2		9.0	2.5	/experiments/knapen_aot/videos/S_yt-gMqeZkpA_1Q_61.mp4	0.0	222.95686888694763	
11	29.03262186050415	movie	1		301.0	9.0	2.5	/experiments/knapen_aot/videos/S_yt-gMqeZkpA_1Q_61.mp4	0.0	222.9649999141693	2.508345127105713
11	31.540966987609863	fix_post	2		12.0	9.0	2.5	/experiments/knapen_aot/videos/S_yt-gMqeZkpA_1Q_61.mp4	0.0	225.47334504127502	0.09996891021728516
12	31.64093589782715	fix_pre	0		49.0	10.0	2.5	/experiments/knapen_aot/videos/S_yt-gMqeZkpA_1Q_61.mp4	0.0	225.5733139514923	0.4083399772644043
12	32.0411319732666	response	0	2		10.0	2.5	/experiments/knapen_aot/videos/S_yt-gMqeZkpA_1Q_61.mp4	0.0	225.97351002693176	
12	32.04927587509155	movie	1		301.0	10.0	2.5	/experiments/knapen_aot/videos/S_yt-gMqeZkpA_1Q_61.mp4	0.0	225.9816539287567	2.508357048034668
12	34.55763292312622	fix_post	2		12.0	10.0	2.5	/experiments/knapen_aot/videos/S_yt-gMqeZkpA_1Q_61.mp4	0.0	228.49001097679138	0.1000220775604248
13	34.657655000686646	fix_pre	0		22.0	11.0	2.5	/experiments/knapen_aot/videos/R_S_yt-EKPrSw5xF7k_112.mp4	0.0	228.5900330543518	0.1832258701324463
13	34.83271503448486	response	0	2		11.0	2.5	/experiments/knapen_aot/videos/R_S_yt-EKPrSw5xF7k_112.mp4	0.0	228.76509308815002	
13	34.84088087081909	movie	1		299.0	11.0	2.5	/experiments/knapen_aot/videos/R_S_yt-EKPrSw5xF7k_112.mp4	0.0	228.77325892448425	2.5084290504455566
13	37.34930992126465	fix_post	2		12.0	11.0	2.5	/experiments/knapen_aot/videos/R_S_yt-EKPrSw5xF7k_112.mp4	0.0	231.2816879749298	0.10004591941833496
14	37.44935584068298	fix_pre	0		31.0	12.0	2.5	blank	1.0	231.38173389434814	0.25829100608825684
14	37.69944405555725	response	0	2		12.0	2.5	blank	1.0	231.6318221092224	
14	37.70764684677124	movie	1		301.0	12.0	2.5	blank	1.0	231.6400249004364	2.5082170963287354
14	40.215863943099976	fix_post	2		12.0	12.0	2.5	blank	1.0	234.14824199676514	0.10010194778442383
15	40.3159658908844	fix_pre	0		31.0	13.0	2.5	/experiments/knapen_aot/videos/R_S_video-11.mp4	0.0	234.24834394454956	0.2583479881286621
15	40.56603789329529	response	0	2		13.0	2.5	/experiments/knapen_aot/videos/R_S_video-11.mp4	0.0	234.49841594696045	
15	40.57431387901306	movie	1		165.0	13.0	2.5	/experiments/knapen_aot/videos/R_S_video-11.mp4	0.0	234.50669193267822	2.508294105529785
15	43.08260798454285	fix_post	2		12.0	13.0	2.5	/experiments/knapen_aot/videos/R_S_video-11.mp4	0.0	237.014986038208	0.09992003440856934
16	43.182528018951416	fix_pre	0		8.0	14.0	2.5	/experiments/knapen_aot/videos/S_yt-FzMLLmcD1mE_19.mp4	0.0	237.11490607261658	0.06691503524780273
16	43.24111604690552	response	0	2		14.0	2.5	/experiments/knapen_aot/videos/S_yt-FzMLLmcD1mE_19.mp4	0.0	237.17349410057068	
16	43.24944305419922	movie	1		301.0	14.0	2.5	/experiments/knapen_aot/videos/S_yt-FzMLLmcD1mE_19.mp4	0.0	237.18182110786438	2.5081889629364014
16	45.75763201713562	fix_post	2		12.0	14.0	2.5	/experiments/knapen_aot/videos/S_yt-FzMLLmcD1mE_19.mp4	0.0	239.69001007080078	0.09994697570800781
17	45.85757899284363	fix_pre	0		29.0	15.0	2.5	/experiments/knapen_aot/videos/S_yt-BLmwmX-mni8_56.mp4	0.0	239.7899570465088	0.24164104461669922
17	46.091094970703125	response	0	2		15.0	2.5	/experiments/knapen_aot/videos/S_yt-BLmwmX-mni8_56.mp4	0.0	240.0234730243683	
17	46.09922003746033	movie	1		301.0	15.0	2.5	/experiments/knapen_aot/videos/S_yt-BLmwmX-mni8_56.mp4	0.0	240.0315980911255	2.5084049701690674
17	48.607625007629395	fix_post	2		12.0	15.0	2.5	/experiments/knapen_aot/videos/S_yt-BLmwmX-mni8_56.mp4	0.0	242.54000306129456	0.09990596771240234
18	48.7075309753418	fix_pre	0		326.0	16.0	2.5	/experiments/knapen_aot/videos/R_S_production_ID_4673611.mp4	0.0	242.63990902900696	2.7165610790252686
18	51.41598987579346	response	0	2		16.0	2.5	/experiments/knapen_aot/videos/R_S_production_ID_4673611.mp4	0.0	245.34836792945862	
18	51.424092054367065	movie	1		171.0	16.0	2.5	/experiments/knapen_aot/videos/R_S_production_ID_4673611.mp4	0.0	245.35647010803223	2.508485794067383
18	53.93257784843445	fix_post	2		12.0	16.0	2.5	/experiments/knapen_aot/videos/R_S_production_ID_4673611.mp4	0.0	247.8649559020996	0.0999901294708252
19	54.03256797790527	fix_pre	0		18.0	17.0	2.5	/experiments/knapen_aot/videos/R_S_yt-_zDYi2P-QxY_128.mp4	0.0	247.96494603157043	0.1499180793762207
19	54.17430305480957	response	0	2		17.0	2.5	/experiments/knapen_aot/videos/R_S_yt-_zDYi2P-QxY_128.mp4	0.0	248.10668110847473	
19	54.182486057281494	movie	1		301.0	17.0	2.5	/experiments/knapen_aot/videos/R_S_yt-_zDYi2P-QxY_128.mp4	0.0	248.11486411094666	2.5084009170532227
19	56.69088697433472	fix_post	2		12.0	17.0	2.5	/experiments/knapen_aot/videos/R_S_yt-_zDYi2P-QxY_128.mp4	0.0	250.62326502799988	0.09997892379760742
20	56.790865898132324	fix_pre	0		126.0	18.0	2.5	/experiments/knapen_aot/videos/S_yt-GWgG8PVM1iw_34.mp4	0.0	250.72324395179749	1.0499720573425293
20	57.83272194862366	response	0	2		18.0	2.5	/experiments/knapen_aot/videos/S_yt-GWgG8PVM1iw_34.mp4	0.0	251.76510000228882	
20	57.84083795547485	movie	1		298.0	18.0	2.5	/experiments/knapen_aot/videos/S_yt-GWgG8PVM1iw_34.mp4	0.0	251.77321600914001	2.508375883102417
20	60.34921383857727	fix_post	2		12.0	18.0	2.5	/experiments/knapen_aot/videos/S_yt-GWgG8PVM1iw_34.mp4	0.0	254.28159189224243	0.09996199607849121
21	60.44917583465576	fix_pre	0		30.0	19.0	2.5	/experiments/knapen_aot/videos/R_S_yt-WrwPgZYBXlA_34.mp4	0.0	254.38155388832092	0.24989604949951172
21	60.690979957580566	response	0	2		19.0	2.5	/experiments/knapen_aot/videos/R_S_yt-WrwPgZYBXlA_34.mp4	0.0	254.62335801124573	
21	60.69907188415527	movie	1		301.0	19.0	2.5	/experiments/knapen_aot/videos/R_S_yt-WrwPgZYBXlA_34.mp4	0.0	254.63144993782043	2.5084640979766846
21	63.20753598213196	fix_post	2		12.0	19.0	2.5	/experiments/knapen_aot/videos/R_S_yt-WrwPgZYBXlA_34.mp4	0.0	257.1399140357971	0.10002684593200684
22	63.307562828063965	fix_pre	0		19.0	20.0	2.5	blank	1.0	257.2399408817291	0.15824222564697266
22	63.4575879573822	response	0	2		20.0	2.5	blank	1.0	257.38996601104736	
22	63.46580505371094	movie	1		301.0	20.0	2.5	blank	1.0	257.3981831073761	2.508375883102417
22	65.97418093681335	fix_post	2		12.0	20.0	2.5	blank	1.0	259.9065589904785	0.09996891021728516
23	66.07414984703064	fix_pre	0		59.0	21.0	2.5	/experiments/knapen_aot/videos/S_yt-UKrWbJEs7pw_74.mp4	0.0	260.0065279006958	0.4924890995025635
23	66.55009388923645	response	0	2		21.0	2.5	/experiments/knapen_aot/videos/S_yt-UKrWbJEs7pw_74.mp4	0.0	260.4824719429016	
23	66.5666389465332	movie	1		301.0	21.0	2.5	/experiments/knapen_aot/videos/S_yt-UKrWbJEs7pw_74.mp4	0.0	260.49901700019836	2.5075299739837646
23	69.07416892051697	fix_post	2		12.0	21.0	2.5	/experiments/knapen_aot/videos/S_yt-UKrWbJEs7pw_74.mp4	0.0	263.00654697418213	0.09993910789489746
24	69.17410802841187	fix_pre	0		26.0	22.0	2.5	/experiments/knapen_aot/videos/S_fHdEaNT0gA0_35.mp4	0.0	263.106486082077	0.21669387817382812
24	69.38260793685913	response	0	2		22.0	2.5	/experiments/knapen_aot/videos/S_fHdEaNT0gA0_35.mp4	0.0	263.3149859905243	
24	69.3908019065857	movie	1		301.0	22.0	2.5	/experiments/knapen_aot/videos/S_fHdEaNT0gA0_35.mp4	0.0	263.32317996025085	2.508342981338501
24	71.8991448879242	fix_post	2		12.0	22.0	2.5	/experiments/knapen_aot/videos/S_fHdEaNT0gA0_35.mp4	0.0	265.83152294158936	0.10004806518554688
25	71.99919295310974	fix_pre	0		87.0	23.0	2.5	/experiments/knapen_aot/videos/S_pexels-cottonbro-10640532.mp4	0.0	265.9315710067749	0.7249069213867188
25	72.71601486206055	response	0	2		23.0	2.5	/experiments/knapen_aot/videos/S_pexels-cottonbro-10640532.mp4	0.0	266.6483929157257	
25	72.72409987449646	movie	1		196.0	23.0	2.5	/experiments/knapen_aot/videos/S_pexels-cottonbro-10640532.mp4	0.0	266.6564779281616	2.5083560943603516
25	75.23245596885681	fix_post	2		12.0	23.0	2.5	/experiments/knapen_aot/videos/S_pexels-cottonbro-10640532.mp4	0.0	269.164834022522	0.10001897811889648
26	75.33247494697571	fix_pre	0		45.0	24.0	2.5	/experiments/knapen_aot/videos/S_pexels-roman-odintsov-8231493.mp4	0.0	269.26485300064087	0.37496495246887207
26	75.69929194450378	response	0	2		24.0	2.5	/experiments/knapen_aot/videos/S_pexels-roman-odintsov-8231493.mp4	0.0	269.63166999816895	
26	75.70743989944458	movie	1		195.0	24.0	2.5	/experiments/knapen_aot/videos/S_pexels-roman-odintsov-8231493.mp4	0.0	269.63981795310974	2.508341073989868
26	78.21578097343445	fix_post	2		12.0	24.0	2.5	/experiments/knapen_aot/videos/S_pexels-roman-odintsov-8231493.mp4	0.0	272.1481590270996	0.10087704658508301
27	78.31665802001953	fix_pre	0		20.0	25.0	2.5	/experiments/knapen_aot/videos/R_S_yt-fja6A_3ys_w_116.mp4	0.0	272.2490360736847	0.16642403602600098
27	78.4742660522461	response	0	2		25.0	2.5	/experiments/knapen_aot/videos/R_S_yt-fja6A_3ys_w_116.mp4	0.0	272.40664410591125	
27	78.48308205604553	movie	1		300.0	25.0	2.5	/experiments/knapen_aot/videos/R_S_yt-fja6A_3ys_w_116.mp4	0.0	272.4154601097107	2.507640838623047
27	80.99072289466858	fix_post	2		12.0	25.0	2.5	/experiments/knapen_aot/videos/R_S_yt-fja6A_3ys_w_116.mp4	0.0	274.92310094833374	0.1000521183013916
27	81.07422804832458	response	2	2		25.0	2.5	/experiments/knapen_aot/videos/R_S_yt-fja6A_3ys_w_116.mp4	0.0	275.00660610198975	
28	81.09077501296997	fix_pre	0		200.0	26.0	2.5	blank	1.0	275.02315306663513	1.6665349006652832
28	82.74922895431519	response	0	2		26.0	2.5	blank	1.0	276.68160700798035	
28	82.75730991363525	movie	1		301.0	26.0	2.5	blank	1.0	276.6896879673004	2.508430004119873
28	85.26573991775513	fix_post	2		12.0	26.0	2.5	blank	1.0	279.1981179714203	0.10006213188171387
29	85.36580204963684	fix_pre	0		77.0	27.0	2.5	/experiments/knapen_aot/videos/S_video-5.mp4	0.0	279.298180103302	0.6415719985961914
29	85.99923706054688	response	0	2		27.0	2.5	/experiments/knapen_aot/videos/S_video-5.mp4	0.0	279.93161511421204	
29	86.00737404823303	movie	1		169.0	27.0	2.5	/experiments/knapen_aot/videos/S_video-5.mp4	0.0	279.9397521018982	2.5083699226379395
29	88.51574397087097	fix_post	2		12.0	27.0	2.5	/experiments/knapen_aot/videos/S_video-5.mp4	0.0	282.44812202453613	0.10002303123474121
30	88.61576700210571	fix_pre	0		19.0	28.0	2.5	/experiments/knapen_aot/videos/R_S_yt-STL3ejY9u_Q_73.mp4	0.0	282.5481450557709	0.15900802612304688
30	88.76583886146545	response	0	2		28.0	2.5	/experiments/knapen_aot/videos/R_S_yt-STL3ejY9u_Q_73.mp4	0.0	282.6982169151306	
30	88.77477502822876	movie	1		301.0	28.0	2.5	/experiments/knapen_aot/videos/R_S_yt-STL3ejY9u_Q_73.mp4	0.0	282.7071530818939	2.507612943649292
30	91.28238797187805	fix_post	2		12.0	28.0	2.5	/experiments/knapen_aot/videos/R_S_yt-STL3ejY9u_Q_73.mp4	0.0	285.2147660255432	0.10002708435058594
31	91.38241505622864	fix_pre	0		29.0	29.0	2.5	/experiments/knapen_aot/videos/R_S_pexels-roman-odintsov-8231493.mp4	0.0	285.3147931098938	0.24164891242980957
31	91.61582803726196	response	0	2		29.0	2.5	/experiments/knapen_aot/videos/R_S_pexels-roman-odintsov-8231493.mp4	0.0	285.5482060909271	
31	91.62406396865845	movie	1		196.0	29.0	2.5	/experiments/knapen_aot/videos/R_S_pexels-roman-odintsov-8231493.mp4	0.0	285.5564420223236	2.50826096534729
31	94.13232493400574	fix_post	2		12.0	29.0	2.5	/experiments/knapen_aot/videos/R_S_pexels-roman-odintsov-8231493.mp4	0.0	288.0647029876709	0.1000370979309082
32	94.23236203193665	fix_pre	0		13.0	30.0	2.5	/experiments/knapen_aot/videos/S_yt-qjg6kRxNXK8_217.mp4	0.0	288.1647400856018	0.10830283164978027
32	94.33246898651123	response	0	2		30.0	2.5	/experiments/knapen_aot/videos/S_yt-qjg6kRxNXK8_217.mp4	0.0	288.2648470401764	
32	94.34066486358643	movie	1		301.0	30.0	2.5	/experiments/knapen_aot/videos/S_yt-qjg6kRxNXK8_217.mp4	0.0	288.2730429172516	2.5083751678466797
32	96.8490400314331	fix_post	2		12.0	30.0	2.5	/experiments/knapen_aot/videos/S_yt-qjg6kRxNXK8_217.mp4	0.0	290.78141808509827	0.09998798370361328
33	96.94902801513672	fix_pre	0		102.0	31.0	2.5	/experiments/knapen_aot/videos/R_S_yt-M8wvzt_BMXM_173.mp4	0.0	290.8814060688019	0.8499870300292969
33	97.79083204269409	response	0	2		31.0	2.5	/experiments/knapen_aot/videos/R_S_yt-M8wvzt_BMXM_173.mp4	0.0	291.72321009635925	
33	97.79901504516602	movie	1		301.0	31.0	2.5	/experiments/knapen_aot/videos/R_S_yt-M8wvzt_BMXM_173.mp4	0.0	291.7313930988312	2.5082318782806396
33	100.30724692344666	fix_post	2		12.0	31.0	2.5	/experiments/knapen_aot/videos/R_S_yt-M8wvzt_BMXM_173.mp4	0.0	294.2396249771118	0.10012102127075195
34	100.40736794471741	fix_pre	0		73.0	32.0	2.5	/experiments/knapen_aot/videos/S_ILSVRC2015_train_00479000.mp4	0.0	294.33974599838257	0.6083118915557861
34	100.99989199638367	response	0	2		32.0	2.5	/experiments/knapen_aot/videos/S_ILSVRC2015_train_00479000.mp4	0.0	294.9322700500488	
34	101.0156798362732	movie	1		301.0	32.0	2.5	/experiments/knapen_aot/videos/S_ILSVRC2015_train_00479000.mp4	0.0	294.94805788993835	2.508327007293701
34	103.5240068435669	fix_post	2		12.0	32.0	2.5	/experiments/knapen_aot/videos/S_ILSVRC2015_train_00479000.mp4	0.0	297.45638489723206	0.09999203681945801
35	103.62399888038635	fix_pre	0		84.0	33.0	2.5	/experiments/knapen_aot/videos/R_S_gHYomsO1dSU_5.mp4	0.0	297.5563769340515	0.6999220848083496
35	104.31578397750854	response	0	2		33.0	2.5	/experiments/knapen_aot/videos/R_S_gHYomsO1dSU_5.mp4	0.0	298.2481620311737	
35	104.3239209651947	movie	1		301.0	33.0	2.5	/experiments/knapen_aot/videos/R_S_gHYomsO1dSU_5.mp4	0.0	298.25629901885986	2.5084149837493896
35	106.83233594894409	fix_post	2		12.0	33.0	2.5	/experiments/knapen_aot/videos/R_S_gHYomsO1dSU_5.mp4	0.0	300.76471400260925	0.10000491142272949
36	106.93234086036682	fix_pre	0		267.0	34.0	2.5	blank	1.0	300.864718914032	2.224925994873047
36	109.14903283119202	response	0	2		34.0	2.5	blank	1.0	303.0814108848572	
36	109.15726685523987	movie	1		301.0	34.0	2.5	blank	1.0	303.08964490890503	2.5083119869232178
36	111.66557884216309	fix_post	2		12.0	34.0	2.5	blank	1.0	305.59795689582825	0.10002899169921875
37	111.7656078338623	fix_pre	0		18.0	35.0	2.5	/experiments/knapen_aot/videos/R_S_g201_WH_D004_L014_SDR_20191031_SDR_2K_AVC.mp4	0.0	305.69798588752747	0.1500251293182373
37	111.90741086006165	response	0	2		35.0	2.5	/experiments/knapen_aot/videos/R_S_g201_WH_D004_L014_SDR_20191031_SDR_2K_AVC.mp4	0.0	305.8397889137268	
37	111.91563296318054	movie	1		163.0	35.0	2.5	/experiments/knapen_aot/videos/R_S_g201_WH_D004_L014_SDR_20191031_SDR_2K_AVC.mp4	0.0	305.8480110168457	2.5083138942718506
37	114.42394685745239	fix_post	2		12.0	35.0	2.5	/experiments/knapen_aot/videos/R_S_g201_WH_D004_L014_SDR_20191031_SDR_2K_AVC.mp4	0.0	308.35632491111755	0.1005551815032959
38	114.52450203895569	fix_pre	0		7.0	36.0	2.5	/experiments/knapen_aot/videos/R_S_yt-fIEGqReekCM_10.mp4	0.0	308.45688009262085	0.0577549934387207
38	114.57426691055298	response	0	2		36.0	2.5	/experiments/knapen_aot/videos/R_S_yt-fIEGqReekCM_10.mp4	0.0	308.50664496421814	
38	114.58225703239441	movie	1		301.0	36.0	2.5	/experiments/knapen_aot/videos/R_S_yt-fIEGqReekCM_10.mp4	0.0	308.51463508605957	2.508404016494751
38	117.09066104888916	fix_post	2		12.0	36.0	2.5	/experiments/knapen_aot/videos/R_S_yt-fIEGqReekCM_10.mp4	0.0	311.0230391025543	0.10051488876342773
39	117.19117593765259	fix_pre	0		11.0	37.0	2.5	/experiments/knapen_aot/videos/R_S_yt-4x2eUikn9rw_212.mp4	0.0	311.12355399131775	0.09108400344848633
39	117.27405595779419	response	0	2		37.0	2.5	/experiments/knapen_aot/videos/R_S_yt-4x2eUikn9rw_212.mp4	0.0	311.20643401145935	
39	117.28225994110107	movie	1		301.0	37.0	2.5	/experiments/knapen_aot/videos/R_S_yt-4x2eUikn9rw_212.mp4	0.0	311.21463799476624	2.5083460807800293
39	119.7906060218811	fix_post	2		12.0	37.0	2.5	/experiments/knapen_aot/videos/R_S_yt-4x2eUikn9rw_212.mp4	0.0	313.72298407554626	0.10003399848937988
40	119.89064002037048	fix_pre	0		38.0	38.0	2.5	/experiments/knapen_aot/videos/S_pexels-mikhail-nilov-8410063.mp4	0.0	313.82301807403564	0.31659603118896484
40	120.199147939682	response	0	2		38.0	2.5	/experiments/knapen_aot/videos/S_pexels-mikhail-nilov-8410063.mp4	0.0	314.13152599334717	
40	120.20723605155945	movie	1		164.0	38.0	2.5	/experiments/knapen_aot/videos/S_pexels-mikhail-nilov-8410063.mp4	0.0	314.1396141052246	2.5082287788391113
40	122.71546483039856	fix_post	2		12.0	38.0	2.5	/experiments/knapen_aot/videos/S_pexels-mikhail-nilov-8410063.mp4	0.0	316.6478428840637	0.10008406639099121
41	122.81554889678955	fix_pre	0		103.0	39.0	2.5	/experiments/knapen_aot/videos/S_yt-J8E_BpSJMpk_5.mp4	0.0	316.7479269504547	0.8583500385284424
41	123.66567993164062	response	0	2		39.0	2.5	/experiments/knapen_aot/videos/S_yt-J8E_BpSJMpk_5.mp4	0.0	317.5980579853058	
41	123.673898935318	movie	1		301.0	39.0	2.5	/experiments/knapen_aot/videos/S_yt-J8E_BpSJMpk_5.mp4	0.0	317.60627698898315	2.5083839893341064
41	126.1822829246521	fix_post	2		12.0	39.0	2.5	/experiments/knapen_aot/videos/S_yt-J8E_BpSJMpk_5.mp4	0.0	320.11466097831726	0.09994912147521973
42	126.28223204612732	fix_pre	0		41.0	40.0	2.5	/experiments/knapen_aot/videos/R_S_yt-rY_ra5Tb9XU_51.mp4	0.0	320.2146100997925	0.34155988693237305
42	126.61569094657898	response	0	2		40.0	2.5	/experiments/knapen_aot/videos/R_S_yt-rY_ra5Tb9XU_51.mp4	0.0	320.54806900024414	
42	126.62379193305969	movie	1		299.0	40.0	2.5	/experiments/knapen_aot/videos/R_S_yt-rY_ra5Tb9XU_51.mp4	0.0	320.55616998672485	2.508436918258667
42	129.13222885131836	fix_post	2		12.0	40.0	2.5	/experiments/knapen_aot/videos/R_S_yt-rY_ra5Tb9XU_51.mp4	0.0	323.0646069049835	0.10058712959289551
43	129.23281598091125	fix_pre	0		149.0	41.0	2.5	blank	1.0	323.1651940345764	1.241034984588623
43	130.46567487716675	response	0	2		41.0	2.5	blank	1.0	324.3980529308319	
43	130.47385096549988	movie	1		301.0	41.0	2.5	blank	1.0	324.40622901916504	2.5083789825439453
43	132.98222994804382	fix_post	2		12.0	41.0	2.5	blank	1.0	326.914608001709	0.09999608993530273
44	133.08222603797913	fix_pre	0		20.0	42.0	2.5	/experiments/knapen_aot/videos/R_S_pexels-koolshooters-7327401.mp4	0.0	327.0146040916443	0.16665387153625488
44	133.2406439781189	response	0	2		42.0	2.5	/experiments/knapen_aot/videos/R_S_pexels-koolshooters-7327401.mp4	0.0	327.17302203178406	
44	133.24887990951538	movie	1		164.0	42.0	2.5	/experiments/knapen_aot/videos/R_S_pexels-koolshooters-7327401.mp4	0.0	327.18125796318054	2.508281946182251
44	135.75716185569763	fix_post	2		12.0	42.0	2.5	/experiments/knapen_aot/videos/R_S_pexels-koolshooters-7327401.mp4	0.0	329.6895399093628	0.10005712509155273
45	135.85721898078918	fix_pre	0		103.0	43.0	2.5	/experiments/knapen_aot/videos/S_yt-RXqc3JAmmPM_72.mp4	0.0	329.78959703445435	0.8582000732421875
45	136.70732402801514	response	0	2		43.0	2.5	/experiments/knapen_aot/videos/S_yt-RXqc3JAmmPM_72.mp4	0.0	330.6397020816803	
45	136.71541905403137	movie	1		301.0	43.0	2.5	/experiments/knapen_aot/videos/S_yt-RXqc3JAmmPM_72.mp4	0.0	330.64779710769653	2.508445978164673
45	139.22386503219604	fix_post	2		12.0	43.0	2.5	/experiments/knapen_aot/videos/S_yt-RXqc3JAmmPM_72.mp4	0.0	333.1562430858612	0.10015487670898438
46	139.32401990890503	fix_pre	0		22.0	44.0	2.5	/experiments/knapen_aot/videos/R_S_ILSVRC2015_train_00565000.mp4	0.0	333.2563979625702	0.18314599990844727
46	139.49898099899292	response	0	2		44.0	2.5	/experiments/knapen_aot/videos/R_S_ILSVRC2015_train_00565000.mp4	0.0	333.4313590526581	
46	139.50716590881348	movie	1		301.0	44.0	2.5	/experiments/knapen_aot/videos/R_S_ILSVRC2015_train_00565000.mp4	0.0	333.43954396247864	2.508291006088257
46	142.01545691490173	fix_post	2		12.0	44.0	2.5	/experiments/knapen_aot/videos/R_S_ILSVRC2015_train_00565000.mp4	0.0	335.9478349685669	0.10003495216369629
47	142.11549186706543	fix_pre	0		33.0	45.0	2.5	/experiments/knapen_aot/videos/R_S_yt-GOgS--rzmKQ_51.mp4	0.0	336.0478699207306	0.27512311935424805
47	142.3823070526123	response	0	2		45.0	2.5	/experiments/knapen_aot/videos/R_S_yt-GOgS--rzmKQ_51.mp4	0.0	336.31468510627747	
47	142.39061498641968	movie	1		301.0	45.0	2.5	/experiments/knapen_aot/videos/R_S_yt-GOgS--rzmKQ_51.mp4	0.0	336.32299304008484	2.5081300735473633
47	144.89874505996704	fix_post	2		12.0	45.0	2.5	/experiments/knapen_aot/videos/R_S_yt-GOgS--rzmKQ_51.mp4	0.0	338.8311231136322	0.10011792182922363
48	144.99886298179626	fix_pre	0		77.0	46.0	2.5	/experiments/knapen_aot/videos/R_S_yt-0n0uppNuUus_15.mp4	0.0	338.9312410354614	0.641685962677002
48	145.63234901428223	response	0	2		46.0	2.5	/experiments/knapen_aot/videos/R_S_yt-0n0uppNuUus_15.mp4	0.0	339.5647270679474	
48	145.64054894447327	movie	1		301.0	46.0	2.5	/experiments/knapen_aot/videos/R_S_yt-0n0uppNuUus_15.mp4	0.0	339.5729269981384	2.5086829662323
48	148.14923191070557	fix_post	2		12.0	46.0	2.5	/experiments/knapen_aot/videos/R_S_yt-0n0uppNuUus_15.mp4	0.0	342.0816099643707	0.09961915016174316
49	148.2488510608673	fix_pre	0		29.0	47.0	2.5	blank	1.0	342.18122911453247	0.2416839599609375
49	148.48230385780334	response	0	2		47.0	2.5	blank	1.0	342.4146819114685	
49	148.49053502082825	movie	1		301.0	47.0	2.5	blank	1.0	342.4229130744934	2.508239984512329
49	150.99877500534058	fix_post	2		12.0	47.0	2.5	blank	1.0	344.93115305900574	0.10009503364562988
50	151.0988700389862	fix_pre	0		43.0	48.0	2.5	/experiments/knapen_aot/videos/R_S_yt-qF-69JWJX_Y_55.mp4	0.0	345.03124809265137	0.35829997062683105
50	151.44899702072144	response	0	2		48.0	2.5	/experiments/knapen_aot/videos/R_S_yt-qF-69JWJX_Y_55.mp4	0.0	345.3813750743866	
50	151.45717000961304	movie	1		301.0	48.0	2.5	/experiments/knapen_aot/videos/R_S_yt-qF-69JWJX_Y_55.mp4	0.0	345.3895480632782	2.5083529949188232
50	153.96552300453186	fix_post	2		12.0	48.0	2.5	/experiments/knapen_aot/videos/R_S_yt-qF-69JWJX_Y_55.mp4	0.0	347.897901058197	0.10033082962036133
51	154.06585383415222	fix_pre	0		33.0	49.0	2.5	/experiments/knapen_aot/videos/S_yt-aqrdb6BiFx4_12.mp4	0.0	347.9982318878174	0.2745981216430664
51	154.3323450088501	response	0	2		49.0	2.5	/experiments/knapen_aot/videos/S_yt-aqrdb6BiFx4_12.mp4	0.0	348.26472306251526	
51	154.3404519557953	movie	1		301.0	49.0	2.5	/experiments/knapen_aot/videos/S_yt-aqrdb6BiFx4_12.mp4	0.0	348.27283000946045	2.508352041244507
51	156.8488039970398	fix_post	2		12.0	49.0	2.5	/experiments/knapen_aot/videos/S_yt-aqrdb6BiFx4_12.mp4	0.0	350.78118205070496	0.10000991821289062
52	156.94881391525269	fix_pre	0		30.0	50.0	2.5	/experiments/knapen_aot/videos/R_S_yt-BLmwmX-mni8_1030.mp4	0.0	350.88119196891785	0.24998903274536133
52	157.1905689239502	response	0	2		50.0	2.5	/experiments/knapen_aot/videos/R_S_yt-BLmwmX-mni8_1030.mp4	0.0	351.12294697761536	
52	157.19880294799805	movie	1		301.0	50.0	2.5	/experiments/knapen_aot/videos/R_S_yt-BLmwmX-mni8_1030.mp4	0.0	351.1311810016632	2.508378028869629
52	159.70718097686768	fix_post	2		12.0	50.0	2.5	/experiments/knapen_aot/videos/R_S_yt-BLmwmX-mni8_1030.mp4	0.0	353.63955903053284	0.09994888305664062
53	159.80712985992432	fix_pre	0		12.0	51.0	2.5	/experiments/knapen_aot/videos/S_yt-r7PeFd-hIp0_378.mp4	0.0	353.7395079135895	0.09997200965881348
53	159.89896488189697	response	0	2		51.0	2.5	/experiments/knapen_aot/videos/S_yt-r7PeFd-hIp0_378.mp4	0.0	353.83134293556213	
53	159.90710186958313	movie	1		301.0	51.0	2.5	/experiments/knapen_aot/videos/S_yt-r7PeFd-hIp0_378.mp4	0.0	353.8394799232483	2.5083541870117188
53	162.41545605659485	fix_post	2		12.0	51.0	2.5	/experiments/knapen_aot/videos/S_yt-r7PeFd-hIp0_378.mp4	0.0	356.34783411026	0.10006093978881836
54	162.51551699638367	fix_pre	0		177.0	52.0	2.5	/experiments/knapen_aot/videos/R_S_yt-XHYYkaHcEtM_72.mp4	0.0	356.4478950500488	1.4748399257659912
54	163.98225903511047	response	0	2		52.0	2.5	/experiments/knapen_aot/videos/R_S_yt-XHYYkaHcEtM_72.mp4	0.0	357.91463708877563	
54	163.99035692214966	movie	1		301.0	52.0	2.5	/experiments/knapen_aot/videos/R_S_yt-XHYYkaHcEtM_72.mp4	0.0	357.9227349758148	2.508410930633545
54	166.4987678527832	fix_post	2		12.0	52.0	2.5	/experiments/knapen_aot/videos/R_S_yt-XHYYkaHcEtM_72.mp4	0.0	360.43114590644836	0.09997105598449707
55	166.5987389087677	fix_pre	0		12.0	53.0	2.5	/experiments/knapen_aot/videos/S_yt-7bSTxOajpjc_58.mp4	0.0	360.53111696243286	0.09996604919433594
55	166.69053983688354	response	0	2		53.0	2.5	/experiments/knapen_aot/videos/S_yt-7bSTxOajpjc_58.mp4	0.0	360.6229178905487	
55	166.69870495796204	movie	1		301.0	53.0	2.5	/experiments/knapen_aot/videos/S_yt-7bSTxOajpjc_58.mp4	0.0	360.6310830116272	2.508344888687134
55	169.20704984664917	fix_post	2		12.0	53.0	2.5	/experiments/knapen_aot/videos/S_yt-7bSTxOajpjc_58.mp4	0.0	363.13942790031433	0.10005712509155273
56	169.30710697174072	fix_pre	0		21.0	54.0	2.5	blank	1.0	363.2394850254059	0.17528891563415527
56	169.47386503219604	response	0	2		54.0	2.5	blank	1.0	363.4062430858612	
56	169.48239588737488	movie	1		301.0	54.0	2.5	blank	1.0	363.41477394104004	2.50797700881958
56	171.99037289619446	fix_post	2		12.0	54.0	2.5	blank	1.0	365.9227509498596	0.10007715225219727
57	172.09045004844666	fix_pre	0		32.0	55.0	2.5	/experiments/knapen_aot/videos/R_S_fHdEaNT0gA0_35.mp4	0.0	366.0228281021118	0.2668437957763672
57	172.34872198104858	response	0	2		55.0	2.5	/experiments/knapen_aot/videos/R_S_fHdEaNT0gA0_35.mp4	0.0	366.28110003471375	
57	172.35729384422302	movie	1		301.0	55.0	2.5	/experiments/knapen_aot/videos/R_S_fHdEaNT0gA0_35.mp4	0.0	366.2896718978882	2.5079472064971924
57	174.86524105072021	fix_post	2		12.0	55.0	2.5	/experiments/knapen_aot/videos/R_S_fHdEaNT0gA0_35.mp4	0.0	368.7976191043854	0.10011482238769531
58	174.9653558731079	fix_pre	0		32.0	56.0	2.5	/experiments/knapen_aot/videos/S_ILSVRC2015_train_00661001.mp4	0.0	368.89773392677307	0.26680803298950195
58	175.223788022995	response	0	2		56.0	2.5	/experiments/knapen_aot/videos/S_ILSVRC2015_train_00661001.mp4	0.0	369.15616607666016	
58	175.2321639060974	movie	1		300.0	56.0	2.5	/experiments/knapen_aot/videos/S_ILSVRC2015_train_00661001.mp4	0.0	369.1645419597626	2.5081851482391357
58	177.74034905433655	fix_post	2		12.0	56.0	2.5	/experiments/knapen_aot/videos/S_ILSVRC2015_train_00661001.mp4	0.0	371.6727271080017	0.10011696815490723
59	177.84046602249146	fix_pre	0		148.0	57.0	2.5	/experiments/knapen_aot/videos/S_comp_DB_D011_C010_PSNK_DENOISE_v19_SDR_PS_20180914_SDR_2K_AVC.mp4	0.0	371.7728440761566	1.2331879138946533
59	179.06550097465515	response	0	2		57.0	2.5	/experiments/knapen_aot/videos/S_comp_DB_D011_C010_PSNK_DENOISE_v19_SDR_PS_20180914_SDR_2K_AVC.mp4	0.0	372.9978790283203	
59	179.0736539363861	movie	1		165.0	57.0	2.5	/experiments/knapen_aot/videos/S_comp_DB_D011_C010_PSNK_DENOISE_v19_SDR_PS_20180914_SDR_2K_AVC.mp4	0.0	373.00603199005127	2.5083680152893066
59	181.58202195167542	fix_post	2		12.0	57.0	2.5	/experiments/knapen_aot/videos/S_comp_DB_D011_C010_PSNK_DENOISE_v19_SDR_PS_20180914_SDR_2K_AVC.mp4	0.0	375.5144000053406	0.10001206398010254
60	181.68203401565552	fix_pre	0		10.0	58.0	2.5	/experiments/knapen_aot/videos/S_ILSVRC2015_train_00042002.mp4	0.0	375.6144120693207	0.08331084251403809
60	181.75714492797852	response	0	2		58.0	2.5	/experiments/knapen_aot/videos/S_ILSVRC2015_train_00042002.mp4	0.0	375.6895229816437	
60	181.76534485816956	movie	1		299.0	58.0	2.5	/experiments/knapen_aot/videos/S_ILSVRC2015_train_00042002.mp4	0.0	375.6977229118347	2.5085301399230957
60	184.27387499809265	fix_post	2		12.0	58.0	2.5	/experiments/knapen_aot/videos/S_ILSVRC2015_train_00042002.mp4	0.0	378.2062530517578	0.09984493255615234
61	184.3737199306488	fix_pre	0		35.0	59.0	2.5	/experiments/knapen_aot/videos/S_ILSVRC2015_train_00087003.mp4	0.0	378.30609798431396	0.2916429042816162
61	184.65707802772522	response	0	2		59.0	2.5	/experiments/knapen_aot/videos/S_ILSVRC2015_train_00087003.mp4	0.0	378.5894560813904	
61	184.66536283493042	movie	1		301.0	59.0	2.5	/experiments/knapen_aot/videos/S_ILSVRC2015_train_00087003.mp4	0.0	378.5977408885956	2.5082311630249023
61	187.17359399795532	fix_post	2		12.0	59.0	2.5	/experiments/knapen_aot/videos/S_ILSVRC2015_train_00087003.mp4	0.0	381.1059720516205	0.10028791427612305
62	187.27388191223145	fix_pre	0		131.0	60.0	2.5	/experiments/knapen_aot/videos/R_S_yt-y6zr69M0yHI_76.mp4	0.0	381.2062599658966	1.0914061069488525
62	188.35724902153015	response	0	2		60.0	2.5	/experiments/knapen_aot/videos/R_S_yt-y6zr69M0yHI_76.mp4	0.0	382.2896270751953	
62	188.3652880191803	movie	1		301.0	60.0	2.5	/experiments/knapen_aot/videos/R_S_yt-y6zr69M0yHI_76.mp4	0.0	382.29766607284546	2.508328914642334
62	190.87361693382263	fix_post	2		12.0	60.0	2.5	/experiments/knapen_aot/videos/R_S_yt-y6zr69M0yHI_76.mp4	0.0	384.8059949874878	0.10001707077026367
63	190.9736340045929	fix_pre	0		24.0	61.0	2.5	blank	1.0	384.90601205825806	0.19999289512634277
63	191.1654770374298	response	0	2		61.0	2.5	blank	1.0	385.09785509109497	
63	191.17362689971924	movie	1		301.0	61.0	2.5	blank	1.0	385.1060049533844	2.508319139480591
63	193.68194603919983	fix_post	2		12.0	61.0	2.5	blank	1.0	387.614324092865	0.09993600845336914
64	193.7818820476532	fix_pre	0		30.0	62.0	2.5	/experiments/knapen_aot/videos/R_S_yt-2IxVZeiSv3g_28.mp4	0.0	387.71426010131836	0.2500479221343994
64	194.02374982833862	response	0	2		62.0	2.5	/experiments/knapen_aot/videos/R_S_yt-2IxVZeiSv3g_28.mp4	0.0	387.9561278820038	
64	194.0319299697876	movie	1		301.0	62.0	2.5	/experiments/knapen_aot/videos/R_S_yt-2IxVZeiSv3g_28.mp4	0.0	387.96430802345276	2.5084259510040283
64	196.54035592079163	fix_post	2		12.0	62.0	2.5	/experiments/knapen_aot/videos/R_S_yt-2IxVZeiSv3g_28.mp4	0.0	390.4727339744568	0.09990310668945312
65	196.64025902748108	fix_pre	0		46.0	63.0	2.5	/experiments/knapen_aot/videos/R_S_yt-4Qz0m5IYh10_167.mp4	0.0	390.57263708114624	0.38341689109802246
65	197.0154139995575	response	0	2		63.0	2.5	/experiments/knapen_aot/videos/R_S_yt-4Qz0m5IYh10_167.mp4	0.0	390.94779205322266	
65	197.0236759185791	movie	1		301.0	63.0	2.5	/experiments/knapen_aot/videos/R_S_yt-4Qz0m5IYh10_167.mp4	0.0	390.95605397224426	2.508284091949463
65	199.53196001052856	fix_post	2		12.0	63.0	2.5	/experiments/knapen_aot/videos/R_S_yt-4Qz0m5IYh10_167.mp4	0.0	393.4643380641937	0.0999448299407959
66	199.63190484046936	fix_pre	0		99.0	64.0	2.5	/experiments/knapen_aot/videos/R_S_yt-UBqUhu-GEVg_6.mp4	0.0	393.5642828941345	0.8250110149383545
66	200.4487190246582	response	0	2		64.0	2.5	/experiments/knapen_aot/videos/R_S_yt-UBqUhu-GEVg_6.mp4	0.0	394.38109707832336	
66	200.45691585540771	movie	1		301.0	64.0	2.5	/experiments/knapen_aot/videos/R_S_yt-UBqUhu-GEVg_6.mp4	0.0	394.3892939090729	2.5083529949188232
66	202.96526885032654	fix_post	2		12.0	64.0	2.5	/experiments/knapen_aot/videos/R_S_yt-UBqUhu-GEVg_6.mp4	0.0	396.8976469039917	0.10015606880187988
67	203.06542491912842	fix_pre	0		32.0	65.0	2.5	/experiments/knapen_aot/videos/R_S_wc-AJxbR6daLxMM_5.mp4	0.0	396.9978029727936	0.2664649486541748
67	203.32365894317627	response	0	2		65.0	2.5	/experiments/knapen_aot/videos/R_S_wc-AJxbR6daLxMM_5.mp4	0.0	397.25603699684143	
67	203.3318898677826	movie	1		169.0	65.0	2.5	/experiments/knapen_aot/videos/R_S_wc-AJxbR6daLxMM_5.mp4	0.0	397.26426792144775	2.5083370208740234
67	205.84022688865662	fix_post	2		12.0	65.0	2.5	/experiments/knapen_aot/videos/R_S_wc-AJxbR6daLxMM_5.mp4	0.0	399.7726049423218	0.10004210472106934
68	205.94026899337769	fix_pre	0		60.0	66.0	2.5	/experiments/knapen_aot/videos/S_yt-zlbtESb7Fcw_28.mp4	0.0	399.87264704704285	0.49998998641967773
68	206.42452597618103	response	0	2		66.0	2.5	/experiments/knapen_aot/videos/S_yt-zlbtESb7Fcw_28.mp4	0.0	400.3569040298462	
68	206.44025897979736	movie	1		301.0	66.0	2.5	/experiments/knapen_aot/videos/S_yt-zlbtESb7Fcw_28.mp4	0.0	400.3726370334625	2.5082828998565674
68	208.94854187965393	fix_post	2		12.0	66.0	2.5	/experiments/knapen_aot/videos/S_yt-zlbtESb7Fcw_28.mp4	0.0	402.8809199333191	0.09994697570800781
69	209.04848885536194	fix_pre	0		44.0	67.0	2.5	/experiments/knapen_aot/videos/R_S_yt-8vm83GUgYxI_1.mp4	0.0	402.9808669090271	0.3666090965270996
69	209.4069800376892	response	0	2		67.0	2.5	/experiments/knapen_aot/videos/R_S_yt-8vm83GUgYxI_1.mp4	0.0	403.33935809135437	
69	209.41509795188904	movie	1		301.0	67.0	2.5	/experiments/knapen_aot/videos/R_S_yt-8vm83GUgYxI_1.mp4	0.0	403.3474760055542	2.508435010910034
69	211.92353296279907	fix_post	2		12.0	67.0	2.5	/experiments/knapen_aot/videos/R_S_yt-8vm83GUgYxI_1.mp4	0.0	405.85591101646423	0.10018587112426758
70	212.02371883392334	fix_pre	0		21.0	68.0	2.5	/experiments/knapen_aot/videos/S_ILSVRC2015_train_00538001.mp4	0.0	405.9560968875885	0.17477703094482422
70	212.19028997421265	response	0	2		68.0	2.5	/experiments/knapen_aot/videos/S_ILSVRC2015_train_00538001.mp4	0.0	406.1226680278778	
70	212.19849586486816	movie	1		301.0	68.0	2.5	/experiments/knapen_aot/videos/S_ILSVRC2015_train_00538001.mp4	0.0	406.1308739185333	2.50835919380188
70	214.70685505867004	fix_post	2		12.0	68.0	2.5	/experiments/knapen_aot/videos/S_ILSVRC2015_train_00538001.mp4	0.0	408.6392331123352	0.09988093376159668
71	214.80673599243164	fix_pre	0		104.0	69.0	2.5	blank	1.0	408.7391140460968	0.8668198585510254
71	215.6652979850769	response	0	2		69.0	2.5	blank	1.0	409.59767603874207	
71	215.67355585098267	movie	1		301.0	69.0	2.5	blank	1.0	409.6059339046478	2.5082921981811523
71	218.18184804916382	fix_post	2		12.0	69.0	2.5	blank	1.0	412.114226102829	0.10000896453857422
72	218.2818570137024	fix_pre	0		29.0	70.0	2.5	/experiments/knapen_aot/videos/S_yt-fIEGqReekCM_10.mp4	0.0	412.21423506736755	0.24162793159484863
72	218.51519203186035	response	0	2		70.0	2.5	/experiments/knapen_aot/videos/S_yt-fIEGqReekCM_10.mp4	0.0	412.4475700855255	
72	218.52348494529724	movie	1		301.0	70.0	2.5	/experiments/knapen_aot/videos/S_yt-fIEGqReekCM_10.mp4	0.0	412.4558629989624	2.5084519386291504
72	221.0319368839264	fix_post	2		12.0	70.0	2.5	/experiments/knapen_aot/videos/S_yt-fIEGqReekCM_10.mp4	0.0	414.96431493759155	0.09990715980529785
73	221.1318440437317	fix_pre	0		29.0	71.0	2.5	/experiments/knapen_aot/videos/S_wc-oyG6AjP_W2EL_15.mp4	0.0	415.06422209739685	0.24161481857299805
73	221.35786390304565	response	0	2		71.0	2.5	/experiments/knapen_aot/videos/S_wc-oyG6AjP_W2EL_15.mp4	0.0	415.2902419567108	
73	221.3734588623047	movie	1		301.0	71.0	2.5	/experiments/knapen_aot/videos/S_wc-oyG6AjP_W2EL_15.mp4	0.0	415.30583691596985	2.508439064025879
73	223.88189792633057	fix_post	2		12.0	71.0	2.5	/experiments/knapen_aot/videos/S_wc-oyG6AjP_W2EL_15.mp4	0.0	417.8142759799957	0.09991908073425293
74	223.98181700706482	fix_pre	0		22.0	72.0	2.5	/experiments/knapen_aot/videos/S_yt-VrEuTDQxtD0_226.mp4	0.0	417.91419506073	0.18332982063293457
74	224.156977891922	response	0	2		72.0	2.5	/experiments/knapen_aot/videos/S_yt-VrEuTDQxtD0_226.mp4	0.0	418.08935594558716	
74	224.16514682769775	movie	1		300.0	72.0	2.5	/experiments/knapen_aot/videos/S_yt-VrEuTDQxtD0_226.mp4	0.0	418.0975248813629	2.5083611011505127
74	226.67350792884827	fix_post	2		12.0	72.0	2.5	/experiments/knapen_aot/videos/S_yt-VrEuTDQxtD0_226.mp4	0.0	420.6058859825134	0.10000491142272949
75	226.773512840271	fix_pre	0		35.0	73.0	2.5	/experiments/knapen_aot/videos/R_S_ILSVRC2015_train_00479001.mp4	0.0	420.70589089393616	0.2916710376739502
75	227.05697202682495	response	0	2		73.0	2.5	/experiments/knapen_aot/videos/R_S_ILSVRC2015_train_00479001.mp4	0.0	420.9893500804901	
75	227.06518387794495	movie	1		301.0	73.0	2.5	/experiments/knapen_aot/videos/R_S_ILSVRC2015_train_00479001.mp4	0.0	420.9975619316101	2.508305072784424
75	229.57348895072937	fix_post	2		12.0	73.0	2.5	/experiments/knapen_aot/videos/R_S_ILSVRC2015_train_00479001.mp4	0.0	423.50586700439453	0.09999799728393555
76	229.6734869480133	fix_pre	0		34.0	74.0	2.5	/experiments/knapen_aot/videos/S_pexels-koolshooters-7689098.mp4	0.0	423.60586500167847	0.28329896926879883
76	229.94860005378723	response	0	2		74.0	2.5	/experiments/knapen_aot/videos/S_pexels-koolshooters-7689098.mp4	0.0	423.8809781074524	
76	229.9567859172821	movie	1		166.0	74.0	2.5	/experiments/knapen_aot/videos/S_pexels-koolshooters-7689098.mp4	0.0	423.88916397094727	2.508312940597534
76	232.46509885787964	fix_post	2		12.0	74.0	2.5	/experiments/knapen_aot/videos/S_pexels-koolshooters-7689098.mp4	0.0	426.3974769115448	0.10005307197570801
77	232.56515192985535	fix_pre	0		10.0	75.0	2.5	/experiments/knapen_aot/videos/S_yt-rZA9zXR-A6s_426.mp4	0.0	426.4975299835205	0.0832509994506836
77	232.64046096801758	response	0	2		75.0	2.5	/experiments/knapen_aot/videos/S_yt-rZA9zXR-A6s_426.mp4	0.0	426.57283902168274	
77	232.64840292930603	movie	1		301.0	75.0	2.5	/experiments/knapen_aot/videos/S_yt-rZA9zXR-A6s_426.mp4	0.0	426.5807809829712	2.5083940029144287
77	235.15679693222046	fix_post	2		12.0	75.0	2.5	/experiments/knapen_aot/videos/S_yt-rZA9zXR-A6s_426.mp4	0.0	429.0891749858856	0.10008001327514648
78	235.2568769454956	fix_pre	0		129.0	76.0	2.5	/experiments/knapen_aot/videos/R_S_yt-y6zr69M0yHI_76.mp4	0.0	429.18925499916077	1.0749139785766602
78	236.32360196113586	response	0	2		76.0	2.5	/experiments/knapen_aot/videos/R_S_yt-y6zr69M0yHI_76.mp4	0.0	430.255980014801	
78	236.33179092407227	movie	1		301.0	76.0	2.5	/experiments/knapen_aot/videos/R_S_yt-y6zr69M0yHI_76.mp4	0.0	430.2641689777374	2.508378028869629
78	238.8401689529419	fix_post	2		12.0	76.0	2.5	/experiments/knapen_aot/videos/R_S_yt-y6zr69M0yHI_76.mp4	0.0	432.77254700660706	0.09995794296264648
79	238.94012689590454	fix_pre	0		77.0	77.0	2.5	blank	1.0	432.8725049495697	0.6416821479797363
79	239.57358288764954	response	0	2		77.0	2.5	blank	1.0	433.5059609413147	
79	239.58180904388428	movie	1		301.0	77.0	2.5	blank	1.0	433.51418709754944	2.5083320140838623
79	242.09014105796814	fix_post	2		12.0	77.0	2.5	blank	1.0	436.0225191116333	0.09998488426208496
80	242.19012594223022	fix_pre	0		25.0	78.0	2.5	/experiments/knapen_aot/videos/S_yt-iT6jsSikmGM_4.mp4	0.0	436.1225039958954	0.20855093002319336
80	242.39024901390076	response	0	2		78.0	2.5	/experiments/knapen_aot/videos/S_yt-iT6jsSikmGM_4.mp4	0.0	436.3226270675659	
80	242.39867687225342	movie	1		300.0	78.0	2.5	/experiments/knapen_aot/videos/S_yt-iT6jsSikmGM_4.mp4	0.0	436.3310549259186	2.508056163787842
80	244.90673303604126	fix_post	2		12.0	78.0	2.5	/experiments/knapen_aot/videos/S_yt-iT6jsSikmGM_4.mp4	0.0	438.8391110897064	0.09999895095825195
81	245.0067319869995	fix_pre	0		20.0	79.0	2.5	/experiments/knapen_aot/videos/R_S_yt-Ev39pXXfr1Y_152.mp4	0.0	438.9391100406647	0.16661906242370605
81	245.16510796546936	response	0	2		79.0	2.5	/experiments/knapen_aot/videos/R_S_yt-Ev39pXXfr1Y_152.mp4	0.0	439.0974860191345	
81	245.17335104942322	movie	1		301.0	79.0	2.5	/experiments/knapen_aot/videos/R_S_yt-Ev39pXXfr1Y_152.mp4	0.0	439.1057291030884	2.5083978176116943
81	247.6817488670349	fix_post	2		12.0	79.0	2.5	/experiments/knapen_aot/videos/R_S_yt-Ev39pXXfr1Y_152.mp4	0.0	441.6141269207001	0.09990811347961426
82	247.78165698051453	fix_pre	0		34.0	80.0	2.5	/experiments/knapen_aot/videos/R_S_KP_A010_C002_SDR_20190717_SDR_2K_AVC.mp4	0.0	441.7140350341797	0.2833869457244873
82	248.05689883232117	response	0	2		80.0	2.5	/experiments/knapen_aot/videos/R_S_KP_A010_C002_SDR_20190717_SDR_2K_AVC.mp4	0.0	441.9892768859863	
82	248.065043926239	movie	1		166.0	80.0	2.5	/experiments/knapen_aot/videos/R_S_KP_A010_C002_SDR_20190717_SDR_2K_AVC.mp4	0.0	441.9974219799042	2.5083580017089844
82	250.573401927948	fix_post	2		12.0	80.0	2.5	/experiments/knapen_aot/videos/R_S_KP_A010_C002_SDR_20190717_SDR_2K_AVC.mp4	0.0	444.50577998161316	0.09987092018127441
83	250.67327284812927	fix_pre	0		33.0	81.0	2.5	/experiments/knapen_aot/videos/R_S_yt-LB9LoYfH_EA_15.mp4	0.0	444.60565090179443	0.27501606941223145
83	250.94016098976135	response	0	2		81.0	2.5	/experiments/knapen_aot/videos/R_S_yt-LB9LoYfH_EA_15.mp4	0.0	444.8725390434265	
83	250.9482889175415	movie	1		301.0	81.0	2.5	/experiments/knapen_aot/videos/R_S_yt-LB9LoYfH_EA_15.mp4	0.0	444.88066697120667	2.508388042449951
83	253.45667695999146	fix_post	2		12.0	81.0	2.5	/experiments/knapen_aot/videos/R_S_yt-LB9LoYfH_EA_15.mp4	0.0	447.3890550136566	0.1000669002532959
84	253.55674386024475	fix_pre	0		12.0	82.0	2.5	/experiments/knapen_aot/videos/R_S_yt-wjBwgccZM5k_150.mp4	0.0	447.4891219139099	0.09993910789489746
84	253.64194893836975	response	0	2		82.0	2.5	/experiments/knapen_aot/videos/R_S_yt-wjBwgccZM5k_150.mp4	0.0	447.5743269920349	
84	253.65668296813965	movie	1		301.0	82.0	2.5	/experiments/knapen_aot/videos/R_S_yt-wjBwgccZM5k_150.mp4	0.0	447.5890610218048	2.5083630084991455
84	256.1650459766388	fix_post	2		12.0	82.0	2.5	/experiments/knapen_aot/videos/R_S_yt-wjBwgccZM5k_150.mp4	0.0	450.09742403030396	0.09993600845336914
85	256.26498198509216	fix_pre	0		101.0	83.0	2.5	blank	1.0	450.1973600387573	0.841649055480957
85	257.0984969139099	response	0	2		83.0	2.5	blank	1.0	451.0308749675751	
85	257.1066310405731	movie	1		301.0	83.0	2.5	blank	1.0	451.0390090942383	2.508419990539551
85	259.61505103111267	fix_post	2		12.0	83.0	2.5	blank	1.0	453.54742908477783	0.09998393058776855
87	259.71503496170044	stim	0		240.0					453.6474130153656	1.9998838901519775
87	259.9067540168762	response	0	2						453.8391320705414	
87	261.7082300186157	response	0	space						455.6406080722809	
