trial_nr	onset	event_type	phase	response	nr_frames	movie_index	movie_duration	movie_file	blank	onset_abs	duration
0	0.15836501121520996	stim	0		40.0					106.46386814117432	0.3332099914550781
0	0.4834940433502197	response	0	space						106.78899717330933	
1	0.4915750026702881	stim	0		121.0					106.7970781326294	1.0081658363342285
1	1.3163249492645264	response	0	space						107.62182807922363	
1	1.4997408390045166	stim	1		120.0					107.80524396896362	0.9998781681060791
1	1.867262840270996	response	1	2						108.1727659702301	
1	2.1281578540802	response	1	space						108.4336609840393	
2	2.4996190071105957	fix_pre	0		9.0	0.0	2.5	/experiments/knapen_aot/videos/S_ILSVRC2015_train_00538001.mp4	0.0	108.8051221370697	0.07491302490234375
2	2.5588629245758057	response	0	space		0.0	2.5	/experiments/knapen_aot/videos/S_ILSVRC2015_train_00538001.mp4	0.0	108.86436605453491	
2	2.5745320320129395	movie	1		301.0	0.0	2.5	/experiments/knapen_aot/videos/S_ILSVRC2015_train_00538001.mp4	0.0	108.88003516197205	2.5084328651428223
2	5.082964897155762	fix_post	2		12.0	0.0	2.5	/experiments/knapen_aot/videos/S_ILSVRC2015_train_00538001.mp4	0.0	111.38846802711487	0.10001206398010254
3	5.182976961135864	fix_pre	0		32.0	1.0	2.5	/experiments/knapen_aot/videos/S_g201_TH_803_A001_8_SDR_20191031_SDR_2K_AVC.mp4	0.0	111.48848009109497	0.2665729522705078
3	5.445781946182251	response	0	2		1.0	2.5	/experiments/knapen_aot/videos/S_g201_TH_803_A001_8_SDR_20191031_SDR_2K_AVC.mp4	0.0	111.75128507614136	
3	5.449549913406372	movie	1		163.0	1.0	2.5	/experiments/knapen_aot/videos/S_g201_TH_803_A001_8_SDR_20191031_SDR_2K_AVC.mp4	0.0	111.75505304336548	2.508319139480591
3	7.957869052886963	fix_post	2		12.0	1.0	2.5	/experiments/knapen_aot/videos/S_g201_TH_803_A001_8_SDR_20191031_SDR_2K_AVC.mp4	0.0	114.26337218284607	0.10002994537353516
4	8.057898998260498	fix_pre	0		18.0	2.0	2.5	/experiments/knapen_aot/videos/R_S_yt-nYi_FfCjepk_74.mp4	0.0	114.3634021282196	0.15011286735534668
4	8.199700832366943	response	0	2		2.0	2.5	/experiments/knapen_aot/videos/R_S_yt-nYi_FfCjepk_74.mp4	0.0	114.50520396232605	
4	8.208011865615845	movie	1		301.0	2.0	2.5	/experiments/knapen_aot/videos/R_S_yt-nYi_FfCjepk_74.mp4	0.0	114.51351499557495	2.5084140300750732
4	10.716425895690918	fix_post	2		12.0	2.0	2.5	/experiments/knapen_aot/videos/R_S_yt-nYi_FfCjepk_74.mp4	0.0	117.02192902565002	0.09979796409606934
5	10.816223859786987	fix_pre	0		13.0	3.0	2.5	/experiments/knapen_aot/videos/R_S_production_ID_5049072.mp4	0.0	117.1217269897461	0.1082620620727539
5	10.916363954544067	response	0	2		3.0	2.5	/experiments/knapen_aot/videos/R_S_production_ID_5049072.mp4	0.0	117.22186708450317	
5	10.924485921859741	movie	1		167.0	3.0	2.5	/experiments/knapen_aot/videos/R_S_production_ID_5049072.mp4	0.0	117.22998905181885	2.5083789825439453
5	13.432864904403687	fix_post	2		12.0	3.0	2.5	/experiments/knapen_aot/videos/R_S_production_ID_5049072.mp4	0.0	119.7383680343628	0.09995508193969727
5	13.52463698387146	response	2	2		3.0	2.5	/experiments/knapen_aot/videos/R_S_production_ID_5049072.mp4	0.0	119.83014011383057	
6	13.532819986343384	fix_pre	0		40.0	4.0	2.5	/experiments/knapen_aot/videos/S_ILSVRC2015_train_00756000.mp4	0.0	119.83832311630249	0.33333706855773926
6	13.858012914657593	response	0	2		4.0	2.5	/experiments/knapen_aot/videos/S_ILSVRC2015_train_00756000.mp4	0.0	120.1635160446167	
6	13.866157054901123	movie	1		301.0	4.0	2.5	/experiments/knapen_aot/videos/S_ILSVRC2015_train_00756000.mp4	0.0	120.17166018486023	2.5085678100585938
6	16.374724864959717	fix_post	2		12.0	4.0	2.5	/experiments/knapen_aot/videos/S_ILSVRC2015_train_00756000.mp4	0.0	122.68022799491882	0.09981799125671387
7	16.47454285621643	fix_pre	0		10.0	5.0	2.5	/experiments/knapen_aot/videos/R_S_pexels-koolshooters-7327412.mp4	0.0	122.78004598617554	0.08333206176757812
7	16.54210901260376	response	0	2		5.0	2.5	/experiments/knapen_aot/videos/R_S_pexels-koolshooters-7327412.mp4	0.0	122.84761214256287	
7	16.55787491798401	movie	1		162.0	5.0	2.5	/experiments/knapen_aot/videos/R_S_pexels-koolshooters-7327412.mp4	0.0	122.86337804794312	2.5083141326904297
7	19.06618905067444	fix_post	2		12.0	5.0	2.5	/experiments/knapen_aot/videos/R_S_pexels-koolshooters-7327412.mp4	0.0	125.37169218063354	0.10007691383361816
7	19.0831139087677	response	2	2		5.0	2.5	/experiments/knapen_aot/videos/R_S_pexels-koolshooters-7327412.mp4	0.0	125.3886170387268	
8	19.166265964508057	fix_pre	0		30.0	6.0	2.5	/experiments/knapen_aot/videos/S_yt-2SVpSaBAxsw_78.mp4	0.0	125.47176909446716	0.24985408782958984
8	19.407920837402344	response	0	2		6.0	2.5	/experiments/knapen_aot/videos/S_yt-2SVpSaBAxsw_78.mp4	0.0	125.71342396736145	
8	19.416120052337646	movie	1		301.0	6.0	2.5	/experiments/knapen_aot/videos/S_yt-2SVpSaBAxsw_78.mp4	0.0	125.72162318229675	2.508431911468506
8	21.924551963806152	fix_post	2		12.0	6.0	2.5	/experiments/knapen_aot/videos/S_yt-2SVpSaBAxsw_78.mp4	0.0	128.23005509376526	0.09997391700744629
9	22.0245258808136	fix_pre	0		13.0	7.0	2.5	blank	1.0	128.3300290107727	0.10831809043884277
9	22.124637842178345	response	0	2		7.0	2.5	blank	1.0	128.43014097213745	
9	22.13284397125244	movie	1		301.0	7.0	2.5	blank	1.0	128.43834710121155	2.5083088874816895
9	24.64115285873413	fix_post	2		12.0	7.0	2.5	blank	1.0	130.94665598869324	0.10003900527954102
10	24.741191864013672	fix_pre	0		28.0	8.0	2.5	/experiments/knapen_aot/videos/S_yt-zam74qlzGtQ_122.mp4	0.0	131.04669499397278	0.23325395584106445
10	24.966254949569702	response	0	2		8.0	2.5	/experiments/knapen_aot/videos/S_yt-zam74qlzGtQ_122.mp4	0.0	131.2717580795288	
10	24.974445819854736	movie	1		301.0	8.0	2.5	/experiments/knapen_aot/videos/S_yt-zam74qlzGtQ_122.mp4	0.0	131.27994894981384	2.5083601474761963
10	27.482805967330933	fix_post	2		12.0	8.0	2.5	/experiments/knapen_aot/videos/S_yt-zam74qlzGtQ_122.mp4	0.0	133.78830909729004	0.10001707077026367
11	27.582823038101196	fix_pre	0		8.0	9.0	2.5	/experiments/knapen_aot/videos/R_S_yt-uE9XoCLZlFo_1.mp4	0.0	133.8883261680603	0.06733083724975586
11	27.641276836395264	response	0	2		9.0	2.5	/experiments/knapen_aot/videos/R_S_yt-uE9XoCLZlFo_1.mp4	0.0	133.94677996635437	
11	27.650153875350952	movie	1		301.0	9.0	2.5	/experiments/knapen_aot/videos/R_S_yt-uE9XoCLZlFo_1.mp4	0.0	133.95565700531006	2.5076091289520264
11	30.15776300430298	fix_post	2		12.0	9.0	2.5	/experiments/knapen_aot/videos/R_S_yt-uE9XoCLZlFo_1.mp4	0.0	136.46326613426208	0.10004901885986328
12	30.257812023162842	fix_pre	0		14.0	10.0	2.5	/experiments/knapen_aot/videos/R_S_wc-7ugQ0V4lxYkJ_131.mp4	0.0	136.56331515312195	0.11663985252380371
12	30.366266012191772	response	0	2		10.0	2.5	/experiments/knapen_aot/videos/R_S_wc-7ugQ0V4lxYkJ_131.mp4	0.0	136.67176914215088	
12	30.374451875686646	movie	1		301.0	10.0	2.5	/experiments/knapen_aot/videos/R_S_wc-7ugQ0V4lxYkJ_131.mp4	0.0	136.67995500564575	2.5083911418914795
12	32.882843017578125	fix_post	2		12.0	10.0	2.5	/experiments/knapen_aot/videos/R_S_wc-7ugQ0V4lxYkJ_131.mp4	0.0	139.18834614753723	0.09995889663696289
13	32.98280191421509	fix_pre	0		17.0	11.0	2.5	/experiments/knapen_aot/videos/S_yt-jQrMcUCmAaM_44.mp4	0.0	139.2883050441742	0.14161205291748047
13	33.11622190475464	response	0	2		11.0	2.5	/experiments/knapen_aot/videos/S_yt-jQrMcUCmAaM_44.mp4	0.0	139.42172503471375	
13	33.12441396713257	movie	1		301.0	11.0	2.5	/experiments/knapen_aot/videos/S_yt-jQrMcUCmAaM_44.mp4	0.0	139.42991709709167	2.508478879928589
13	35.63289284706116	fix_post	2		12.0	11.0	2.5	/experiments/knapen_aot/videos/S_yt-jQrMcUCmAaM_44.mp4	0.0	141.93839597702026	0.1000680923461914
14	35.73296093940735	fix_pre	0		9.0	12.0	2.5	/experiments/knapen_aot/videos/S_yt-fymgyhmYnMI_76.mp4	0.0	142.03846406936646	0.07476091384887695
14	35.79954290390015	response	0	2		12.0	2.5	/experiments/knapen_aot/videos/S_yt-fymgyhmYnMI_76.mp4	0.0	142.10504603385925	
14	35.807721853256226	movie	1		301.0	12.0	2.5	/experiments/knapen_aot/videos/S_yt-fymgyhmYnMI_76.mp4	0.0	142.11322498321533	2.508625030517578
14	38.316346883773804	fix_post	2		12.0	12.0	2.5	/experiments/knapen_aot/videos/S_yt-fymgyhmYnMI_76.mp4	0.0	144.6218500137329	0.09981894493103027
15	38.416165828704834	fix_pre	0		23.0	13.0	2.5	blank	1.0	144.72166895866394	0.19229912757873535
15	38.59960603713989	response	0	2		13.0	2.5	blank	1.0	144.905109167099	
15	38.60846495628357	movie	1		301.0	13.0	2.5	blank	1.0	144.91396808624268	2.507615089416504
15	41.11608004570007	fix_post	2		12.0	13.0	2.5	blank	1.0	147.42158317565918	0.10006594657897949
16	41.21614599227905	fix_pre	0		22.0	14.0	2.5	/experiments/knapen_aot/videos/R_S_yt--xKSTYy9mcA_54.mp4	0.0	147.52164912223816	0.1839749813079834
16	41.391149044036865	response	0	2		14.0	2.5	/experiments/knapen_aot/videos/R_S_yt--xKSTYy9mcA_54.mp4	0.0	147.69665217399597	
16	41.400120973587036	movie	1		301.0	14.0	2.5	/experiments/knapen_aot/videos/R_S_yt--xKSTYy9mcA_54.mp4	0.0	147.70562410354614	2.507699966430664
16	43.9078209400177	fix_post	2		12.0	14.0	2.5	/experiments/knapen_aot/videos/R_S_yt--xKSTYy9mcA_54.mp4	0.0	150.2133240699768	0.1001119613647461
17	44.007932901382446	fix_pre	0		20.0	15.0	2.5	/experiments/knapen_aot/videos/R_S_comp_A007_C017_01156B_v02_SDR_PS_20180925_SDR_2K_AVC.mp4	0.0	150.31343603134155	0.166456937789917
17	44.16623902320862	response	0	2		15.0	2.5	/experiments/knapen_aot/videos/R_S_comp_A007_C017_01156B_v02_SDR_PS_20180925_SDR_2K_AVC.mp4	0.0	150.47174215316772	
17	44.17438983917236	movie	1		166.0	15.0	2.5	/experiments/knapen_aot/videos/R_S_comp_A007_C017_01156B_v02_SDR_PS_20180925_SDR_2K_AVC.mp4	0.0	150.47989296913147	2.5083870887756348
17	46.682776927948	fix_post	2		12.0	15.0	2.5	/experiments/knapen_aot/videos/R_S_comp_A007_C017_01156B_v02_SDR_PS_20180925_SDR_2K_AVC.mp4	0.0	152.9882800579071	0.0999600887298584
18	46.782737016677856	fix_pre	0		18.0	16.0	2.5	/experiments/knapen_aot/videos/S_comp_LA_A006_C004_v01_SDR_FINAL_PS_20180730_SDR_2K_AVC.mp4	0.0	153.08824014663696	0.15000295639038086
18	46.92445993423462	response	0	2		16.0	2.5	/experiments/knapen_aot/videos/S_comp_LA_A006_C004_v01_SDR_FINAL_PS_20180730_SDR_2K_AVC.mp4	0.0	153.22996306419373	
18	46.93273997306824	movie	1		168.0	16.0	2.5	/experiments/knapen_aot/videos/S_comp_LA_A006_C004_v01_SDR_FINAL_PS_20180730_SDR_2K_AVC.mp4	0.0	153.23824310302734	2.5082778930664062
18	49.441017866134644	fix_post	2		12.0	16.0	2.5	/experiments/knapen_aot/videos/S_comp_LA_A006_C004_v01_SDR_FINAL_PS_20180730_SDR_2K_AVC.mp4	0.0	155.74652099609375	0.10001897811889648
19	49.54103684425354	fix_pre	0		13.0	17.0	2.5	/experiments/knapen_aot/videos/R_S_production_ID_5049072.mp4	0.0	155.84653997421265	0.1089479923248291
19	49.641132831573486	response	0	2		17.0	2.5	/experiments/knapen_aot/videos/R_S_production_ID_5049072.mp4	0.0	155.9466359615326	
19	49.64998483657837	movie	1		169.0	17.0	2.5	/experiments/knapen_aot/videos/R_S_production_ID_5049072.mp4	0.0	155.95548796653748	2.5076491832733154
19	52.157634019851685	fix_post	2		12.0	17.0	2.5	/experiments/knapen_aot/videos/R_S_production_ID_5049072.mp4	0.0	158.4631371498108	0.10027599334716797
20	52.25791001319885	fix_pre	0		4.0	18.0	2.5	/experiments/knapen_aot/videos/R_S_yt-CeOZeB1LXwE_79.mp4	0.0	158.56341314315796	0.03312993049621582
20	52.27635884284973	response	0	2		18.0	2.5	/experiments/knapen_aot/videos/R_S_yt-CeOZeB1LXwE_79.mp4	0.0	158.58186197280884	
20	52.29103994369507	movie	1		301.0	18.0	2.5	/experiments/knapen_aot/videos/R_S_yt-CeOZeB1LXwE_79.mp4	0.0	158.59654307365417	2.5083439350128174
20	54.799383878707886	fix_post	2		12.0	18.0	2.5	/experiments/knapen_aot/videos/R_S_yt-CeOZeB1LXwE_79.mp4	0.0	161.104887008667	0.10035014152526855
21	54.899734020233154	fix_pre	0		7.0	19.0	2.5	/experiments/knapen_aot/videos/R_S_yt-FsXOl6JjzSY_15.mp4	0.0	161.20523715019226	0.057901859283447266
21	54.94943690299988	response	0	2		19.0	2.5	/experiments/knapen_aot/videos/R_S_yt-FsXOl6JjzSY_15.mp4	0.0	161.25494003295898	
21	54.9576358795166	movie	1		301.0	19.0	2.5	/experiments/knapen_aot/videos/R_S_yt-FsXOl6JjzSY_15.mp4	0.0	161.2631390094757	2.508308172225952
21	57.465944051742554	fix_post	2		12.0	19.0	2.5	/experiments/knapen_aot/videos/R_S_yt-FsXOl6JjzSY_15.mp4	0.0	163.77144718170166	0.10004782676696777
22	57.56599187850952	fix_pre	0		12.0	20.0	2.5	blank	1.0	163.87149500846863	0.09998512268066406
22	57.65781283378601	response	0	2		20.0	2.5	blank	1.0	163.96331596374512	
22	57.665977001190186	movie	1		301.0	20.0	2.5	blank	1.0	163.9714801311493	2.508405923843384
22	60.17438292503357	fix_post	2		12.0	20.0	2.5	blank	1.0	166.47988605499268	0.09997797012329102
23	60.27436089515686	fix_pre	0		19.0	21.0	2.5	/experiments/knapen_aot/videos/R_S_flickr-clarkstonscamp-4863427159_1.mp4	0.0	166.57986402511597	0.15822601318359375
23	60.4244589805603	response	0	2		21.0	2.5	/experiments/knapen_aot/videos/R_S_flickr-clarkstonscamp-4863427159_1.mp4	0.0	166.7299621105194	
23	60.432586908340454	movie	1		301.0	21.0	2.5	/experiments/knapen_aot/videos/R_S_flickr-clarkstonscamp-4863427159_1.mp4	0.0	166.73809003829956	2.5084569454193115
23	62.941043853759766	fix_post	2		12.0	21.0	2.5	/experiments/knapen_aot/videos/R_S_flickr-clarkstonscamp-4863427159_1.mp4	0.0	169.24654698371887	0.0999751091003418
24	63.04101896286011	fix_pre	0		36.0	22.0	2.5	/experiments/knapen_aot/videos/S_yt-BG-G7m5wLZ4_94.mp4	0.0	169.3465220928192	0.2999999523162842
24	63.325284004211426	response	0	2		22.0	2.5	/experiments/knapen_aot/videos/S_yt-BG-G7m5wLZ4_94.mp4	0.0	169.63078713417053	
24	63.34101891517639	movie	1		301.0	22.0	2.5	/experiments/knapen_aot/videos/S_yt-BG-G7m5wLZ4_94.mp4	0.0	169.6465220451355	2.5102131366729736
24	65.85123205184937	fix_post	2		12.0	22.0	2.5	/experiments/knapen_aot/videos/S_yt-BG-G7m5wLZ4_94.mp4	0.0	172.15673518180847	0.09813189506530762
25	65.94936394691467	fix_pre	0		6.0	23.0	2.5	/experiments/knapen_aot/videos/S_comp_A007_C017_01156B_v02_SDR_PS_20180925_SDR_2K_AVC.mp4	0.0	172.25486707687378	0.04996609687805176
25	65.9909770488739	response	0	2		23.0	2.5	/experiments/knapen_aot/videos/S_comp_A007_C017_01156B_v02_SDR_PS_20180925_SDR_2K_AVC.mp4	0.0	172.296480178833	
25	65.99933004379272	movie	1		166.0	23.0	2.5	/experiments/knapen_aot/videos/S_comp_A007_C017_01156B_v02_SDR_PS_20180925_SDR_2K_AVC.mp4	0.0	172.30483317375183	2.5083229541778564
25	68.50765299797058	fix_post	2		12.0	23.0	2.5	/experiments/knapen_aot/videos/S_comp_A007_C017_01156B_v02_SDR_PS_20180925_SDR_2K_AVC.mp4	0.0	174.8131561279297	0.09995889663696289
26	68.60761189460754	fix_pre	0		12.0	24.0	2.5	/experiments/knapen_aot/videos/S_ILSVRC2015_train_00569003.mp4	0.0	174.91311502456665	0.10001111030578613
26	68.69935393333435	response	0	2		24.0	2.5	/experiments/knapen_aot/videos/S_ILSVRC2015_train_00569003.mp4	0.0	175.00485706329346	
26	68.70762300491333	movie	1		301.0	24.0	2.5	/experiments/knapen_aot/videos/S_ILSVRC2015_train_00569003.mp4	0.0	175.01312613487244	2.508335828781128
26	71.21595883369446	fix_post	2		12.0	24.0	2.5	/experiments/knapen_aot/videos/S_ILSVRC2015_train_00569003.mp4	0.0	177.52146196365356	0.10001015663146973
27	71.31596899032593	fix_pre	0		16.0	25.0	2.5	/experiments/knapen_aot/videos/R_S_yt-3NMDWrZr1Z4_255.mp4	0.0	177.62147212028503	0.13325095176696777
27	71.44112086296082	response	0	2		25.0	2.5	/experiments/knapen_aot/videos/R_S_yt-3NMDWrZr1Z4_255.mp4	0.0	177.74662399291992	
27	71.4492199420929	movie	1		301.0	25.0	2.5	/experiments/knapen_aot/videos/R_S_yt-3NMDWrZr1Z4_255.mp4	0.0	177.754723072052	2.508392095565796
27	73.95761203765869	fix_post	2		12.0	25.0	2.5	/experiments/knapen_aot/videos/R_S_yt-3NMDWrZr1Z4_255.mp4	0.0	180.2631151676178	0.10001778602600098
28	74.05762982368469	fix_pre	0		8.0	26.0	2.5	/experiments/knapen_aot/videos/R_S_G009_C014_UHD_SDR_2K_AVC.mp4	0.0	180.3631329536438	0.06657218933105469
28	74.10841989517212	response	0	2		26.0	2.5	/experiments/knapen_aot/videos/R_S_G009_C014_UHD_SDR_2K_AVC.mp4	0.0	180.41392302513123	
28	74.12420201301575	movie	1		196.0	26.0	2.5	/experiments/knapen_aot/videos/R_S_G009_C014_UHD_SDR_2K_AVC.mp4	0.0	180.42970514297485	2.5083868503570557
28	76.6325888633728	fix_post	2		12.0	26.0	2.5	/experiments/knapen_aot/videos/R_S_G009_C014_UHD_SDR_2K_AVC.mp4	0.0	182.9380919933319	0.09999918937683105
28	76.6835298538208	response	2	2		26.0	2.5	/experiments/knapen_aot/videos/R_S_G009_C014_UHD_SDR_2K_AVC.mp4	0.0	182.9890329837799	
29	76.73258805274963	fix_pre	0		38.0	27.0	2.5	/experiments/knapen_aot/videos/R_S_yt-2cwARrUMj40_67.mp4	0.0	183.03809118270874	0.3166539669036865
29	77.04099893569946	response	0	2		27.0	2.5	/experiments/knapen_aot/videos/R_S_yt-2cwARrUMj40_67.mp4	0.0	183.34650206565857	
29	77.04924201965332	movie	1		301.0	27.0	2.5	/experiments/knapen_aot/videos/R_S_yt-2cwARrUMj40_67.mp4	0.0	183.35474514961243	2.5083789825439453
29	79.55762100219727	fix_post	2		12.0	27.0	2.5	/experiments/knapen_aot/videos/R_S_yt-2cwARrUMj40_67.mp4	0.0	185.86312413215637	0.09989786148071289
30	79.65751886367798	fix_pre	0		14.0	28.0	2.5	blank	1.0	185.96302199363708	0.11721515655517578
30	79.758465051651	response	0	2		28.0	2.5	blank	1.0	186.0639681816101	
30	79.77473402023315	movie	1		301.0	28.0	2.5	blank	1.0	186.08023715019226	2.5078518390655518
30	82.2825858592987	fix_post	2		12.0	28.0	2.5	blank	1.0	188.5880889892578	0.09998607635498047
31	82.38257193565369	fix_pre	0		24.0	29.0	2.5	/experiments/knapen_aot/videos/R_S_yt-iHmshS63rBc_329.mp4	0.0	188.6880750656128	0.19997191429138184
31	82.57437896728516	response	0	2		29.0	2.5	/experiments/knapen_aot/videos/R_S_yt-iHmshS63rBc_329.mp4	0.0	188.87988209724426	
31	82.58254384994507	movie	1		301.0	29.0	2.5	/experiments/knapen_aot/videos/R_S_yt-iHmshS63rBc_329.mp4	0.0	188.88804697990417	2.5083420276641846
31	85.09088587760925	fix_post	2		12.0	29.0	2.5	/experiments/knapen_aot/videos/R_S_yt-iHmshS63rBc_329.mp4	0.0	191.39638900756836	0.09992599487304688
32	85.1908118724823	fix_pre	0		2.0	30.0	2.5	/experiments/knapen_aot/videos/S_yt-TbdZrcl_Jso_5.mp4	0.0	191.4963150024414	0.016700029373168945
32	85.19932699203491	response	0	2		30.0	2.5	/experiments/knapen_aot/videos/S_yt-TbdZrcl_Jso_5.mp4	0.0	191.50483012199402	
32	85.20751190185547	movie	1		301.0	30.0	2.5	/experiments/knapen_aot/videos/S_yt-TbdZrcl_Jso_5.mp4	0.0	191.51301503181458	2.5083091259002686
32	87.71582102775574	fix_post	2		12.0	30.0	2.5	/experiments/knapen_aot/videos/S_yt-TbdZrcl_Jso_5.mp4	0.0	194.02132415771484	0.10007691383361816
33	87.81589794158936	fix_pre	0		14.0	31.0	2.5	/experiments/knapen_aot/videos/S_yt-Xs7TCzdnUJQ_79.mp4	0.0	194.12140107154846	0.11672806739807129
33	87.92433500289917	response	0	2		31.0	2.5	/experiments/knapen_aot/videos/S_yt-Xs7TCzdnUJQ_79.mp4	0.0	194.22983813285828	
33	87.93262600898743	movie	1		301.0	31.0	2.5	/experiments/knapen_aot/videos/S_yt-Xs7TCzdnUJQ_79.mp4	0.0	194.23812913894653	2.5084609985351562
33	90.44108700752258	fix_post	2		12.0	31.0	2.5	/experiments/knapen_aot/videos/S_yt-Xs7TCzdnUJQ_79.mp4	0.0	196.7465901374817	0.09981298446655273
34	90.54089999198914	fix_pre	0		19.0	32.0	2.5	/experiments/knapen_aot/videos/R_S_ILSVRC2015_train_00756000.mp4	0.0	196.84640312194824	0.15820598602294922
34	90.690927028656	response	0	2		32.0	2.5	/experiments/knapen_aot/videos/R_S_ILSVRC2015_train_00756000.mp4	0.0	196.9964301586151	
34	90.69910597801208	movie	1		301.0	32.0	2.5	/experiments/knapen_aot/videos/R_S_ILSVRC2015_train_00756000.mp4	0.0	197.0046091079712	2.508488893508911
34	93.207594871521	fix_post	2		12.0	32.0	2.5	/experiments/knapen_aot/videos/R_S_ILSVRC2015_train_00756000.mp4	0.0	199.5130980014801	0.09995508193969727
35	93.3075499534607	fix_pre	0		6.0	33.0	2.5	/experiments/knapen_aot/videos/S_yt--xKSTYy9mcA_54.mp4	0.0	199.6130530834198	0.050280094146728516
35	93.34934782981873	response	0	2		33.0	2.5	/experiments/knapen_aot/videos/S_yt--xKSTYy9mcA_54.mp4	0.0	199.65485095977783	
35	93.35783004760742	movie	1		301.0	33.0	2.5	/experiments/knapen_aot/videos/S_yt--xKSTYy9mcA_54.mp4	0.0	199.66333317756653	2.5080127716064453
35	95.86584281921387	fix_post	2		12.0	33.0	2.5	/experiments/knapen_aot/videos/S_yt--xKSTYy9mcA_54.mp4	0.0	202.17134594917297	0.10001206398010254
36	95.96585488319397	fix_pre	0		13.0	34.0	2.5	blank	1.0	202.27135801315308	0.1083230972290039
36	96.06593203544617	response	0	2		34.0	2.5	blank	1.0	202.37143516540527	
36	96.07417798042297	movie	1		301.0	34.0	2.5	blank	1.0	202.37968111038208	2.508328914642334
36	98.58250689506531	fix_post	2		12.0	34.0	2.5	blank	1.0	204.8880100250244	0.1000051498413086
37	98.68251204490662	fix_pre	0		19.0	35.0	2.5	/experiments/knapen_aot/videos/S_yt--5ls65Ue1RA_52.mp4	0.0	204.98801517486572	0.1583268642425537
37	98.83259987831116	response	0	2		35.0	2.5	/experiments/knapen_aot/videos/S_yt--5ls65Ue1RA_52.mp4	0.0	205.13810300827026	
37	98.84083890914917	movie	1		301.0	35.0	2.5	/experiments/knapen_aot/videos/S_yt--5ls65Ue1RA_52.mp4	0.0	205.14634203910828	2.5083260536193848
37	101.34916496276855	fix_post	2		12.0	35.0	2.5	/experiments/knapen_aot/videos/S_yt--5ls65Ue1RA_52.mp4	0.0	207.65466809272766	0.10000300407409668
38	101.44916796684265	fix_pre	0		29.0	36.0	2.5	/experiments/knapen_aot/videos/S_MEX_A006_C008_SDR_20190923_SDR_2K_AVC.mp4	0.0	207.75467109680176	0.24181699752807617
38	101.68262505531311	response	0	2		36.0	2.5	/experiments/knapen_aot/videos/S_MEX_A006_C008_SDR_20190923_SDR_2K_AVC.mp4	0.0	207.98812818527222	
38	101.69098496437073	movie	1		163.0	36.0	2.5	/experiments/knapen_aot/videos/S_MEX_A006_C008_SDR_20190923_SDR_2K_AVC.mp4	0.0	207.99648809432983	2.5082309246063232
38	104.19921588897705	fix_post	2		12.0	36.0	2.5	/experiments/knapen_aot/videos/S_MEX_A006_C008_SDR_20190923_SDR_2K_AVC.mp4	0.0	210.50471901893616	0.10005402565002441
39	104.29926991462708	fix_pre	0		10.0	37.0	2.5	/experiments/knapen_aot/videos/R_S_yt-PCSXJ5YB_AE_3.mp4	0.0	210.60477304458618	0.08326411247253418
39	104.3742949962616	response	0	2		37.0	2.5	/experiments/knapen_aot/videos/R_S_yt-PCSXJ5YB_AE_3.mp4	0.0	210.6797981262207	
39	104.38253402709961	movie	1		301.0	37.0	2.5	/experiments/knapen_aot/videos/R_S_yt-PCSXJ5YB_AE_3.mp4	0.0	210.68803715705872	2.5083258152008057
39	106.83262300491333	response	1	2		37.0	2.5	/experiments/knapen_aot/videos/R_S_yt-PCSXJ5YB_AE_3.mp4	0.0	213.13812613487244	
39	106.89085984230042	fix_post	2		12.0	37.0	2.5	/experiments/knapen_aot/videos/R_S_yt-PCSXJ5YB_AE_3.mp4	0.0	213.19636297225952	0.09991598129272461
40	106.99077582359314	fix_pre	0		17.0	38.0	2.5	/experiments/knapen_aot/videos/S_video_inspire_california_vineyard_sierra-mar_sunrise_110.1080-h264.mp4	0.0	213.29627895355225	0.14173102378845215
40	107.12428498268127	response	0	2		38.0	2.5	/experiments/knapen_aot/videos/S_video_inspire_california_vineyard_sierra-mar_sunrise_110.1080-h264.mp4	0.0	213.42978811264038	
40	107.13250684738159	movie	1		170.0	38.0	2.5	/experiments/knapen_aot/videos/S_video_inspire_california_vineyard_sierra-mar_sunrise_110.1080-h264.mp4	0.0	213.4380099773407	2.508289098739624
40	109.64079594612122	fix_post	2		12.0	38.0	2.5	/experiments/knapen_aot/videos/S_video_inspire_california_vineyard_sierra-mar_sunrise_110.1080-h264.mp4	0.0	215.94629907608032	0.09991288185119629
41	109.74070882797241	fix_pre	0		9.0	39.0	2.5	/experiments/knapen_aot/videos/S_yt-PyO8-WsbaLU_43.mp4	0.0	216.04621195793152	0.07519721984863281
41	109.80758905410767	response	0	2		39.0	2.5	/experiments/knapen_aot/videos/S_yt-PyO8-WsbaLU_43.mp4	0.0	216.11309218406677	
41	109.81590604782104	movie	1		301.0	39.0	2.5	/experiments/knapen_aot/videos/S_yt-PyO8-WsbaLU_43.mp4	0.0	216.12140917778015	2.508331775665283
41	112.32423782348633	fix_post	2		12.0	39.0	2.5	/experiments/knapen_aot/videos/S_yt-PyO8-WsbaLU_43.mp4	0.0	218.62974095344543	0.09991717338562012
42	112.42415499687195	fix_pre	0		3.0	40.0	2.5	/experiments/knapen_aot/videos/R_S_yt-bOgChEHiroI_20.mp4	0.0	218.72965812683105	0.02503800392150879
42	112.44147801399231	response	0	2		40.0	2.5	/experiments/knapen_aot/videos/R_S_yt-bOgChEHiroI_20.mp4	0.0	218.74698114395142	
42	112.44919300079346	movie	1		301.0	40.0	2.5	/experiments/knapen_aot/videos/R_S_yt-bOgChEHiroI_20.mp4	0.0	218.75469613075256	2.5084519386291504
42	114.95764493942261	fix_post	2		12.0	40.0	2.5	/experiments/knapen_aot/videos/R_S_yt-bOgChEHiroI_20.mp4	0.0	221.2631480693817	0.09978508949279785
43	115.0574300289154	fix_pre	0		11.0	41.0	2.5	/experiments/knapen_aot/videos/R_S_yt-AuQ_WxaNy4Y_255.mp4	0.0	221.3629331588745	0.09179091453552246
43	115.14081382751465	response	0	2		41.0	2.5	/experiments/knapen_aot/videos/R_S_yt-AuQ_WxaNy4Y_255.mp4	0.0	221.44631695747375	
43	115.14922094345093	movie	1		301.0	41.0	2.5	/experiments/knapen_aot/videos/R_S_yt-AuQ_WxaNy4Y_255.mp4	0.0	221.45472407341003	2.5082170963287354
43	117.65743803977966	fix_post	2		12.0	41.0	2.5	/experiments/knapen_aot/videos/R_S_yt-AuQ_WxaNy4Y_255.mp4	0.0	223.96294116973877	0.09997081756591797
44	117.75740885734558	fix_pre	0		22.0	42.0	2.5	blank	1.0	224.0629119873047	0.1835010051727295
44	117.93252801895142	response	0	2		42.0	2.5	blank	1.0	224.23803114891052	
44	117.94090986251831	movie	1		301.0	42.0	2.5	blank	1.0	224.24641299247742	2.5081729888916016
44	120.44908285140991	fix_post	2		12.0	42.0	2.5	blank	1.0	226.75458598136902	0.09996318817138672
45	120.5490460395813	fix_pre	0		19.0	43.0	2.5	/experiments/knapen_aot/videos/R_S_pexels-rodnae-productions-5993654.mp4	0.0	226.8545491695404	0.15836691856384277
45	120.69918203353882	response	0	2		43.0	2.5	/experiments/knapen_aot/videos/R_S_pexels-rodnae-productions-5993654.mp4	0.0	227.00468516349792	
45	120.70741295814514	movie	1		168.0	43.0	2.5	/experiments/knapen_aot/videos/R_S_pexels-rodnae-productions-5993654.mp4	0.0	227.01291608810425	2.508316993713379
45	123.21572995185852	fix_post	2		12.0	43.0	2.5	/experiments/knapen_aot/videos/R_S_pexels-rodnae-productions-5993654.mp4	0.0	229.52123308181763	0.10027098655700684
46	123.31600093841553	fix_pre	0		7.0	44.0	2.5	/experiments/knapen_aot/videos/R_S_ILSVRC2015_train_00638001.mp4	0.0	229.62150406837463	0.058103084564208984
46	123.36586904525757	response	0	2		44.0	2.5	/experiments/knapen_aot/videos/R_S_ILSVRC2015_train_00638001.mp4	0.0	229.67137217521667	
46	123.37410402297974	movie	1		301.0	44.0	2.5	/experiments/knapen_aot/videos/R_S_ILSVRC2015_train_00638001.mp4	0.0	229.67960715293884	2.5082688331604004
46	125.88237285614014	fix_post	2		12.0	44.0	2.5	/experiments/knapen_aot/videos/R_S_ILSVRC2015_train_00638001.mp4	0.0	232.18787598609924	0.10065317153930664
47	125.98302602767944	fix_pre	0		12.0	45.0	2.5	/experiments/knapen_aot/videos/S_flickr-hapanine-31880782705_22.mp4	0.0	232.28852915763855	0.09932899475097656
47	126.07414698600769	response	0	2		45.0	2.5	/experiments/knapen_aot/videos/S_flickr-hapanine-31880782705_22.mp4	0.0	232.3796501159668	
47	126.08235502243042	movie	1		172.0	45.0	2.5	/experiments/knapen_aot/videos/S_flickr-hapanine-31880782705_22.mp4	0.0	232.38785815238953	2.508359909057617
47	128.59071493148804	fix_post	2		12.0	45.0	2.5	/experiments/knapen_aot/videos/S_flickr-hapanine-31880782705_22.mp4	0.0	234.89621806144714	0.10012507438659668
48	128.69084000587463	fix_pre	0		6.0	46.0	2.5	/experiments/knapen_aot/videos/R_S_yt-pB9w3AA-woE_37.mp4	0.0	234.99634313583374	0.04993295669555664
48	128.73262786865234	response	0	4		46.0	2.5	/experiments/knapen_aot/videos/R_S_yt-pB9w3AA-woE_37.mp4	0.0	235.03813099861145	
48	128.7407729625702	movie	1		301.0	46.0	2.5	/experiments/knapen_aot/videos/R_S_yt-pB9w3AA-woE_37.mp4	0.0	235.0462760925293	2.5083320140838623
48	131.24910497665405	fix_post	2		12.0	46.0	2.5	/experiments/knapen_aot/videos/R_S_yt-pB9w3AA-woE_37.mp4	0.0	237.55460810661316	0.09986996650695801
48	131.33236503601074	response	2	4		46.0	2.5	/experiments/knapen_aot/videos/R_S_yt-pB9w3AA-woE_37.mp4	0.0	237.63786816596985	
49	131.348974943161	fix_pre	0		45.0	47.0	2.5	/experiments/knapen_aot/videos/S_pexels-cottonbro-10639398.mp4	0.0	237.65447807312012	0.3750309944152832
49	131.71568083763123	response	0	4		47.0	2.5	/experiments/knapen_aot/videos/S_pexels-cottonbro-10639398.mp4	0.0	238.02118396759033	
49	131.7240059375763	movie	1		190.0	47.0	2.5	/experiments/knapen_aot/videos/S_pexels-cottonbro-10639398.mp4	0.0	238.0295090675354	2.5084619522094727
49	134.23246788978577	fix_post	2		12.0	47.0	2.5	/experiments/knapen_aot/videos/S_pexels-cottonbro-10639398.mp4	0.0	240.53797101974487	0.09994912147521973
50	134.332417011261	fix_pre	0		14.0	48.0	2.5	/experiments/knapen_aot/videos/R_S_yt-VMUSo8E_Fj8_171.mp4	0.0	240.6379201412201	0.11654186248779297
50	134.4407570362091	response	0	4		48.0	2.5	/experiments/knapen_aot/videos/R_S_yt-VMUSo8E_Fj8_171.mp4	0.0	240.7462601661682	
50	134.44895887374878	movie	1		301.0	48.0	2.5	/experiments/knapen_aot/videos/R_S_yt-VMUSo8E_Fj8_171.mp4	0.0	240.75446200370789	2.508388042449951
50	136.95734691619873	fix_post	2		11.0	48.0	2.5	/experiments/knapen_aot/videos/R_S_yt-VMUSo8E_Fj8_171.mp4	0.0	243.26285004615784	0.09164810180664062
50	137.04076600074768	response	2	4		48.0	2.5	/experiments/knapen_aot/videos/R_S_yt-VMUSo8E_Fj8_171.mp4	0.0	243.3462691307068	
51	137.04899501800537	fix_pre	0		41.0	49.0	2.5	blank	1.0	243.35449814796448	0.3416178226470947
51	137.38240003585815	response	0	4		49.0	2.5	blank	1.0	243.68790316581726	
51	137.39061284065247	movie	1		301.0	49.0	2.5	blank	1.0	243.69611597061157	2.5084691047668457
51	139.8990819454193	fix_post	2		12.0	49.0	2.5	blank	1.0	246.20458507537842	0.09997296333312988
52	139.99905490875244	fix_pre	0		13.0	50.0	2.5	/experiments/knapen_aot/videos/S_G009_C014_UHD_SDR_2K_AVC.mp4	0.0	246.30455803871155	0.1082620620727539
52	140.0991189479828	response	0	4		50.0	2.5	/experiments/knapen_aot/videos/S_G009_C014_UHD_SDR_2K_AVC.mp4	0.0	246.4046220779419	
52	140.1073169708252	movie	1		167.0	50.0	2.5	/experiments/knapen_aot/videos/S_G009_C014_UHD_SDR_2K_AVC.mp4	0.0	246.4128201007843	2.508418083190918
52	142.6157350540161	fix_post	2		12.0	50.0	2.5	/experiments/knapen_aot/videos/S_G009_C014_UHD_SDR_2K_AVC.mp4	0.0	248.92123818397522	0.09993791580200195
53	142.71567296981812	fix_pre	0		15.0	51.0	2.5	/experiments/knapen_aot/videos/R_S_comp_A007_C017_01156B_v02_SDR_PS_20180925_SDR_2K_AVC.mp4	0.0	249.02117609977722	0.12494802474975586
53	142.8324499130249	response	0	4		51.0	2.5	/experiments/knapen_aot/videos/R_S_comp_A007_C017_01156B_v02_SDR_PS_20180925_SDR_2K_AVC.mp4	0.0	249.137953042984	
53	142.84062099456787	movie	1		168.0	51.0	2.5	/experiments/knapen_aot/videos/R_S_comp_A007_C017_01156B_v02_SDR_PS_20180925_SDR_2K_AVC.mp4	0.0	249.14612412452698	2.5084378719329834
53	145.34905886650085	fix_post	2		12.0	51.0	2.5	/experiments/knapen_aot/videos/R_S_comp_A007_C017_01156B_v02_SDR_PS_20180925_SDR_2K_AVC.mp4	0.0	251.65456199645996	0.10030007362365723
54	145.4493589401245	fix_pre	0		17.0	52.0	2.5	/experiments/knapen_aot/videos/R_S_yt-Dwgpjoikt84_122.mp4	0.0	251.75486207008362	0.14123106002807617
54	145.58245491981506	response	0	4		52.0	2.5	/experiments/knapen_aot/videos/R_S_yt-Dwgpjoikt84_122.mp4	0.0	251.88795804977417	
54	145.5905900001526	movie	1		301.0	52.0	2.5	/experiments/knapen_aot/videos/R_S_yt-Dwgpjoikt84_122.mp4	0.0	251.8960931301117	2.5083398818969727
54	148.09892988204956	fix_post	2		12.0	52.0	2.5	/experiments/knapen_aot/videos/R_S_yt-Dwgpjoikt84_122.mp4	0.0	254.40443301200867	0.09998011589050293
55	148.19890999794006	fix_pre	0		7.0	53.0	2.5	/experiments/knapen_aot/videos/S_ILSVRC2015_train_00446000.mp4	0.0	254.50441312789917	0.05837583541870117
55	148.24899196624756	response	0	4		53.0	2.5	/experiments/knapen_aot/videos/S_ILSVRC2015_train_00446000.mp4	0.0	254.55449509620667	
55	148.25728583335876	movie	1		301.0	53.0	2.5	/experiments/knapen_aot/videos/S_ILSVRC2015_train_00446000.mp4	0.0	254.56278896331787	2.5082712173461914
55	150.76555705070496	fix_post	2		12.0	53.0	2.5	/experiments/knapen_aot/videos/S_ILSVRC2015_train_00446000.mp4	0.0	257.07106018066406	0.10003781318664551
56	150.8655948638916	fix_pre	0		21.0	54.0	2.5	/experiments/knapen_aot/videos/R_S_yt-aiWUhl8MCto_71.mp4	0.0	257.1710979938507	0.17500901222229004
56	151.0323748588562	response	0	4		54.0	2.5	/experiments/knapen_aot/videos/R_S_yt-aiWUhl8MCto_71.mp4	0.0	257.3378779888153	
56	151.0406038761139	movie	1		301.0	54.0	2.5	/experiments/knapen_aot/videos/R_S_yt-aiWUhl8MCto_71.mp4	0.0	257.346107006073	2.508239984512329
56	153.54884386062622	fix_post	2		12.0	54.0	2.5	/experiments/knapen_aot/videos/R_S_yt-aiWUhl8MCto_71.mp4	0.0	259.8543469905853	0.10010600090026855
57	153.6489498615265	fix_pre	0		21.0	55.0	2.5	blank	1.0	259.9544529914856	0.1748371124267578
57	153.8156669139862	response	0	4		55.0	2.5	blank	1.0	260.1211700439453	
57	153.82378697395325	movie	1		301.0	55.0	2.5	blank	1.0	260.12929010391235	2.5084710121154785
57	156.33225798606873	fix_post	2		12.0	55.0	2.5	blank	1.0	262.63776111602783	0.09997105598449707
58	156.43222904205322	fix_pre	0		16.0	56.0	2.5	/experiments/knapen_aot/videos/S_wc-PqINyFk_ku4u_18.mp4	0.0	262.73773217201233	0.13332390785217285
58	156.55734395980835	response	0	4		56.0	2.5	/experiments/knapen_aot/videos/S_wc-PqINyFk_ku4u_18.mp4	0.0	262.86284708976746	
58	156.5655529499054	movie	1		161.0	56.0	2.5	/experiments/knapen_aot/videos/S_wc-PqINyFk_ku4u_18.mp4	0.0	262.8710560798645	2.508323907852173
58	159.07387685775757	fix_post	2		12.0	56.0	2.5	/experiments/knapen_aot/videos/S_wc-PqINyFk_ku4u_18.mp4	0.0	265.3793799877167	0.10002517700195312
59	159.17390203475952	fix_pre	0		20.0	57.0	2.5	/experiments/knapen_aot/videos/R_S_ILSVRC2015_train_00067005.mp4	0.0	265.4794051647186	0.1665658950805664
59	159.3323678970337	response	0	4		57.0	2.5	/experiments/knapen_aot/videos/R_S_ILSVRC2015_train_00067005.mp4	0.0	265.6378710269928	
59	159.3404679298401	movie	1		301.0	57.0	2.5	/experiments/knapen_aot/videos/R_S_ILSVRC2015_train_00067005.mp4	0.0	265.6459710597992	2.508481979370117
59	161.8489499092102	fix_post	2		12.0	57.0	2.5	/experiments/knapen_aot/videos/R_S_ILSVRC2015_train_00067005.mp4	0.0	268.1544530391693	0.09995913505554199
60	161.94890904426575	fix_pre	0		15.0	58.0	2.5	/experiments/knapen_aot/videos/R_S_yt-4i1b6NQ9NKs_5.mp4	0.0	268.25441217422485	0.12492990493774414
60	162.06566500663757	response	0	4		58.0	2.5	/experiments/knapen_aot/videos/R_S_yt-4i1b6NQ9NKs_5.mp4	0.0	268.3711681365967	
60	162.0738389492035	movie	1		301.0	58.0	2.5	/experiments/knapen_aot/videos/R_S_yt-4i1b6NQ9NKs_5.mp4	0.0	268.3793420791626	2.508349895477295
60	164.5821888446808	fix_post	2		12.0	58.0	2.5	/experiments/knapen_aot/videos/R_S_yt-4i1b6NQ9NKs_5.mp4	0.0	270.8876919746399	0.09998202323913574
60	164.64898705482483	response	2	4		58.0	2.5	/experiments/knapen_aot/videos/R_S_yt-4i1b6NQ9NKs_5.mp4	0.0	270.95449018478394	
61	164.68217086791992	fix_pre	0		34.0	59.0	2.5	/experiments/knapen_aot/videos/S_yt-5rIpe3xc5rQ_18.mp4	0.0	270.987673997879	0.2833211421966553
61	164.95727682113647	response	0	4		59.0	2.5	/experiments/knapen_aot/videos/S_yt-5rIpe3xc5rQ_18.mp4	0.0	271.2627799510956	
61	164.96549201011658	movie	1		301.0	59.0	2.5	/experiments/knapen_aot/videos/S_yt-5rIpe3xc5rQ_18.mp4	0.0	271.2709951400757	2.508370876312256
61	167.47386288642883	fix_post	2		12.0	59.0	2.5	/experiments/knapen_aot/videos/S_yt-5rIpe3xc5rQ_18.mp4	0.0	273.77936601638794	0.09999704360961914
62	167.57385993003845	fix_pre	0		7.0	60.0	2.5	/experiments/knapen_aot/videos/R_S_yt-8RmEimCI80g_35.mp4	0.0	273.87936305999756	0.058316946029663086
62	167.62394285202026	response	0	4		60.0	2.5	/experiments/knapen_aot/videos/R_S_yt-8RmEimCI80g_35.mp4	0.0	273.92944598197937	
62	167.63217687606812	movie	1		301.0	60.0	2.5	/experiments/knapen_aot/videos/R_S_yt-8RmEimCI80g_35.mp4	0.0	273.9376800060272	2.508334159851074
62	170.1405110359192	fix_post	2		12.0	60.0	2.5	/experiments/knapen_aot/videos/R_S_yt-8RmEimCI80g_35.mp4	0.0	276.4460141658783	0.09999489784240723
63	170.2405059337616	fix_pre	0		4.0	61.0	2.5	/experiments/knapen_aot/videos/R_S_yt-l_pvPAznG1A_20.mp4	0.0	276.5460090637207	0.03332805633544922
63	170.26563096046448	response	0	4		61.0	2.5	/experiments/knapen_aot/videos/R_S_yt-l_pvPAznG1A_20.mp4	0.0	276.5711340904236	
63	170.27383399009705	movie	1		301.0	61.0	2.5	/experiments/knapen_aot/videos/R_S_yt-l_pvPAznG1A_20.mp4	0.0	276.57933712005615	2.5083489418029785
63	172.59053993225098	response	1	4		61.0	2.5	/experiments/knapen_aot/videos/R_S_yt-l_pvPAznG1A_20.mp4	0.0	278.8960430622101	
63	172.78218293190002	fix_post	2		12.0	61.0	2.5	/experiments/knapen_aot/videos/R_S_yt-l_pvPAznG1A_20.mp4	0.0	279.08768606185913	0.0999150276184082
64	172.88209795951843	fix_pre	0		3.0	62.0	2.5	blank	1.0	279.18760108947754	0.025081872940063477
64	172.899080991745	response	0	4		62.0	2.5	blank	1.0	279.2045841217041	
64	172.9071798324585	movie	1		301.0	62.0	2.5	blank	1.0	279.2126829624176	2.5083441734313965
64	175.4155240058899	fix_post	2		12.0	62.0	2.5	blank	1.0	281.721027135849	0.09996485710144043
65	175.51548886299133	fix_pre	0		13.0	63.0	2.5	/experiments/knapen_aot/videos/S_yt-4i1b6NQ9NKs_5.mp4	0.0	281.82099199295044	0.10834312438964844
65	175.6156530380249	response	0	4		63.0	2.5	/experiments/knapen_aot/videos/S_yt-4i1b6NQ9NKs_5.mp4	0.0	281.921156167984	
65	175.62383198738098	movie	1		301.0	63.0	2.5	/experiments/knapen_aot/videos/S_yt-4i1b6NQ9NKs_5.mp4	0.0	281.9293351173401	2.5083248615264893
65	178.13215684890747	fix_post	2		12.0	63.0	2.5	/experiments/knapen_aot/videos/S_yt-4i1b6NQ9NKs_5.mp4	0.0	284.4376599788666	0.09995102882385254
66	178.23210787773132	fix_pre	0		7.0	64.0	2.5	/experiments/knapen_aot/videos/R_S_pexels-kampus-production-5991896.mp4	0.0	284.53761100769043	0.05832505226135254
66	178.2822608947754	response	0	4		64.0	2.5	/experiments/knapen_aot/videos/R_S_pexels-kampus-production-5991896.mp4	0.0	284.5877640247345	
66	178.29043292999268	movie	1		166.0	64.0	2.5	/experiments/knapen_aot/videos/R_S_pexels-kampus-production-5991896.mp4	0.0	284.5959360599518	2.5083799362182617
66	180.79881286621094	fix_post	2		12.0	64.0	2.5	/experiments/knapen_aot/videos/R_S_pexels-kampus-production-5991896.mp4	0.0	287.10431599617004	0.0999901294708252
67	180.89880299568176	fix_pre	0		13.0	65.0	2.5	/experiments/knapen_aot/videos/R_S_yt-yAtHuDsadu8_102.mp4	0.0	287.20430612564087	0.10828399658203125
67	180.99893283843994	response	0	4		65.0	2.5	/experiments/knapen_aot/videos/R_S_yt-yAtHuDsadu8_102.mp4	0.0	287.30443596839905	
67	181.0070869922638	movie	1		301.0	65.0	2.5	/experiments/knapen_aot/videos/R_S_yt-yAtHuDsadu8_102.mp4	0.0	287.3125901222229	2.508352041244507
67	183.5154390335083	fix_post	2		12.0	65.0	2.5	/experiments/knapen_aot/videos/R_S_yt-yAtHuDsadu8_102.mp4	0.0	289.8209421634674	0.10007095336914062
68	183.61550998687744	fix_pre	0		18.0	66.0	2.5	/experiments/knapen_aot/videos/S_yt-WASlRH1zA8c_175.mp4	0.0	289.92101311683655	0.14995193481445312
68	183.75725483894348	response	0	4		66.0	2.5	/experiments/knapen_aot/videos/S_yt-WASlRH1zA8c_175.mp4	0.0	290.0627579689026	
68	183.7654619216919	movie	1		301.0	66.0	2.5	/experiments/knapen_aot/videos/S_yt-WASlRH1zA8c_175.mp4	0.0	290.070965051651	2.508565902709961
68	186.27402782440186	fix_post	2		12.0	66.0	2.5	/experiments/knapen_aot/videos/S_yt-WASlRH1zA8c_175.mp4	0.0	292.57953095436096	0.09974122047424316
69	186.3737690448761	fix_pre	0		33.0	67.0	2.5	/experiments/knapen_aot/videos/R_S_comp_DB_D011_D009_SIGNCMP_v15_6Mbps.mp4	0.0	292.6792721748352	0.2749979496002197
69	186.6406328678131	response	0	4		67.0	2.5	/experiments/knapen_aot/videos/R_S_comp_DB_D011_D009_SIGNCMP_v15_6Mbps.mp4	0.0	292.9461359977722	
69	186.64876699447632	movie	1		169.0	67.0	2.5	/experiments/knapen_aot/videos/R_S_comp_DB_D011_D009_SIGNCMP_v15_6Mbps.mp4	0.0	292.9542701244354	2.50832200050354
69	189.15708899497986	fix_post	2		12.0	67.0	2.5	/experiments/knapen_aot/videos/R_S_comp_DB_D011_D009_SIGNCMP_v15_6Mbps.mp4	0.0	295.46259212493896	0.09998798370361328
69	189.190593957901	response	2	4		67.0	2.5	/experiments/knapen_aot/videos/R_S_comp_DB_D011_D009_SIGNCMP_v15_6Mbps.mp4	0.0	295.4960970878601	
70	189.25707697868347	fix_pre	0		43.0	68.0	2.5	/experiments/knapen_aot/videos/S_yt-Dwgpjoikt84_122.mp4	0.0	295.5625801086426	0.3585090637207031
70	189.60712695121765	response	0	4		68.0	2.5	/experiments/knapen_aot/videos/S_yt-Dwgpjoikt84_122.mp4	0.0	295.91263008117676	
70	189.61558604240417	movie	1		301.0	68.0	2.5	/experiments/knapen_aot/videos/S_yt-Dwgpjoikt84_122.mp4	0.0	295.9210891723633	2.5082128047943115
70	192.1237988471985	fix_post	2		12.0	68.0	2.5	/experiments/knapen_aot/videos/S_yt-Dwgpjoikt84_122.mp4	0.0	298.4293019771576	0.09994316101074219
71	192.22374200820923	fix_pre	0		13.0	69.0	2.5	blank	1.0	298.52924513816833	0.10830283164978027
71	192.32391500473022	response	0	4		69.0	2.5	blank	1.0	298.62941813468933	
71	192.332044839859	movie	1		301.0	69.0	2.5	blank	1.0	298.6375479698181	2.508324146270752
71	194.84036898612976	fix_post	2		12.0	69.0	2.5	blank	1.0	301.14587211608887	0.10001897811889648
72	194.94038796424866	fix_pre	0		13.0	70.0	2.5	/experiments/knapen_aot/videos/R_S_yt-4wjGeLyvfjY_223.mp4	0.0	301.24589109420776	0.10827398300170898
72	195.04041004180908	response	0	4		70.0	2.5	/experiments/knapen_aot/videos/R_S_yt-4wjGeLyvfjY_223.mp4	0.0	301.3459131717682	
72	195.04866194725037	movie	1		301.0	70.0	2.5	/experiments/knapen_aot/videos/R_S_yt-4wjGeLyvfjY_223.mp4	0.0	301.3541650772095	2.508375883102417
72	197.55703783035278	fix_post	2		12.0	70.0	2.5	/experiments/knapen_aot/videos/R_S_yt-4wjGeLyvfjY_223.mp4	0.0	303.8625409603119	0.10003113746643066
73	197.6570689678192	fix_pre	0		7.0	71.0	2.5	/experiments/knapen_aot/videos/S_yt-SgiTZNjCPCo_19.mp4	0.0	303.9625720977783	0.05826687812805176
73	197.70715999603271	response	0	4		71.0	2.5	/experiments/knapen_aot/videos/S_yt-SgiTZNjCPCo_19.mp4	0.0	304.0126631259918	
73	197.71533584594727	movie	1		301.0	71.0	2.5	/experiments/knapen_aot/videos/S_yt-SgiTZNjCPCo_19.mp4	0.0	304.0208389759064	2.508416175842285
73	200.22375202178955	fix_post	2		12.0	71.0	2.5	/experiments/knapen_aot/videos/S_yt-SgiTZNjCPCo_19.mp4	0.0	306.52925515174866	0.09996581077575684
74	200.3237178325653	fix_pre	0		18.0	72.0	2.5	/experiments/knapen_aot/videos/R_S_yt-lkpfs_4qAGE_50.mp4	0.0	306.6292209625244	0.14994406700134277
74	200.46541285514832	response	0	2		72.0	2.5	/experiments/knapen_aot/videos/R_S_yt-lkpfs_4qAGE_50.mp4	0.0	306.7709159851074	
74	200.47366189956665	movie	1		301.0	72.0	2.5	/experiments/knapen_aot/videos/R_S_yt-lkpfs_4qAGE_50.mp4	0.0	306.77916502952576	2.5087621212005615
74	202.9824240207672	fix_post	2		12.0	72.0	2.5	/experiments/knapen_aot/videos/R_S_yt-lkpfs_4qAGE_50.mp4	0.0	309.2879271507263	0.0995488166809082
75	203.08197283744812	fix_pre	0		3.0	73.0	2.5	/experiments/knapen_aot/videos/R_S_yt-fymgyhmYnMI_557.mp4	0.0	309.3874759674072	0.025031089782714844
75	203.0988290309906	response	0	2		73.0	2.5	/experiments/knapen_aot/videos/R_S_yt-fymgyhmYnMI_557.mp4	0.0	309.4043321609497	
75	203.10700392723083	movie	1		301.0	73.0	2.5	/experiments/knapen_aot/videos/R_S_yt-fymgyhmYnMI_557.mp4	0.0	309.41250705718994	2.5083470344543457
75	205.61535096168518	fix_post	2		12.0	73.0	2.5	/experiments/knapen_aot/videos/R_S_yt-fymgyhmYnMI_557.mp4	0.0	311.9208540916443	0.09999489784240723
76	205.7153458595276	fix_pre	0		20.0	74.0	2.5	/experiments/knapen_aot/videos/S_yt-cjndulbUtRc_51.mp4	0.0	312.0208489894867	0.1667029857635498
76	205.87374091148376	response	0	4		74.0	2.5	/experiments/knapen_aot/videos/S_yt-cjndulbUtRc_51.mp4	0.0	312.17924404144287	
76	205.88204884529114	movie	1		301.0	74.0	2.5	/experiments/knapen_aot/videos/S_yt-cjndulbUtRc_51.mp4	0.0	312.18755197525024	2.5082759857177734
76	208.3903248310089	fix_post	2		12.0	74.0	2.5	/experiments/knapen_aot/videos/S_yt-cjndulbUtRc_51.mp4	0.0	314.695827960968	0.10000014305114746
77	208.49032497406006	fix_pre	0		24.0	75.0	2.5	/experiments/knapen_aot/videos/S_pexels-c-technical-6753390.mp4	0.0	314.79582810401917	0.19995784759521484
77	208.68218302726746	response	0	4		75.0	2.5	/experiments/knapen_aot/videos/S_pexels-c-technical-6753390.mp4	0.0	314.98768615722656	
77	208.69028282165527	movie	1		199.0	75.0	2.5	/experiments/knapen_aot/videos/S_pexels-c-technical-6753390.mp4	0.0	314.9957859516144	2.508392095565796
77	211.19867491722107	fix_post	2		12.0	75.0	2.5	/experiments/knapen_aot/videos/S_pexels-c-technical-6753390.mp4	0.0	317.5041780471802	0.10002493858337402
78	211.29869985580444	fix_pre	0		18.0	76.0	2.5	blank	1.0	317.60420298576355	0.14990806579589844
78	211.44043898582458	response	0	4		76.0	2.5	blank	1.0	317.7459421157837	
78	211.44860792160034	movie	1		301.0	76.0	2.5	blank	1.0	317.75411105155945	2.508366107940674
78	213.95697402954102	fix_post	2		12.0	76.0	2.5	blank	1.0	320.2624771595001	0.09998798370361328
79	214.05696201324463	fix_pre	0		16.0	77.0	2.5	/experiments/knapen_aot/videos/S_DV6V38rplag_215.mp4	0.0	320.36246514320374	0.13331294059753418
79	214.18205499649048	response	0	4		77.0	2.5	/experiments/knapen_aot/videos/S_DV6V38rplag_215.mp4	0.0	320.4875581264496	
79	214.19027495384216	movie	1		301.0	77.0	2.5	/experiments/knapen_aot/videos/S_DV6V38rplag_215.mp4	0.0	320.49577808380127	2.508357048034668
79	216.69863200187683	fix_post	2		12.0	77.0	2.5	/experiments/knapen_aot/videos/S_DV6V38rplag_215.mp4	0.0	323.00413513183594	0.10004496574401855
80	216.79867696762085	fix_pre	0		26.0	78.0	2.5	/experiments/knapen_aot/videos/S_yt--5ls65Ue1RA_52.mp4	0.0	323.10418009757996	0.21773386001586914
80	217.0070559978485	response	0	4		78.0	2.5	/experiments/knapen_aot/videos/S_yt--5ls65Ue1RA_52.mp4	0.0	323.3125591278076	
80	217.01641082763672	movie	1		301.0	78.0	2.5	/experiments/knapen_aot/videos/S_yt--5ls65Ue1RA_52.mp4	0.0	323.3219139575958	2.5071890354156494
80	219.52359986305237	fix_post	2		12.0	78.0	2.5	/experiments/knapen_aot/videos/S_yt--5ls65Ue1RA_52.mp4	0.0	325.8291029930115	0.10000300407409668
81	219.62360286712646	fix_pre	0		2.0	79.0	2.5	/experiments/knapen_aot/videos/S_pexels-rodnae-productions-5993654.mp4	0.0	325.92910599708557	0.017892122268676758
81	219.6321189403534	response	0	4		79.0	2.5	/experiments/knapen_aot/videos/S_pexels-rodnae-productions-5993654.mp4	0.0	325.9376220703125	
81	219.64149498939514	movie	1		162.0	79.0	2.5	/experiments/knapen_aot/videos/S_pexels-rodnae-productions-5993654.mp4	0.0	325.94699811935425	2.5071258544921875
81	222.14862084388733	fix_post	2		12.0	79.0	2.5	/experiments/knapen_aot/videos/S_pexels-rodnae-productions-5993654.mp4	0.0	328.45412397384644	0.09994816780090332
82	222.24856901168823	fix_pre	0		12.0	80.0	2.5	/experiments/knapen_aot/videos/R_S_yt-J1dw4AznwmQ_7.mp4	0.0	328.55407214164734	0.10111498832702637
82	222.3402760028839	response	0	2		80.0	2.5	/experiments/knapen_aot/videos/R_S_yt-J1dw4AznwmQ_7.mp4	0.0	328.645779132843	
82	222.34968400001526	movie	1		301.0	80.0	2.5	/experiments/knapen_aot/videos/R_S_yt-J1dw4AznwmQ_7.mp4	0.0	328.65518712997437	2.507422924041748
82	224.857106924057	fix_post	2		12.0	80.0	2.5	/experiments/knapen_aot/videos/R_S_yt-J1dw4AznwmQ_7.mp4	0.0	331.1626100540161	0.09979605674743652
83	224.95690298080444	fix_pre	0		36.0	81.0	2.5	/experiments/knapen_aot/videos/S_yt-RHPOCG1mII0_138.mp4	0.0	331.26240611076355	0.2999880313873291
83	225.2487189769745	response	0	2		81.0	2.5	/experiments/knapen_aot/videos/S_yt-RHPOCG1mII0_138.mp4	0.0	331.5542221069336	
83	225.25689101219177	movie	1		301.0	81.0	2.5	/experiments/knapen_aot/videos/S_yt-RHPOCG1mII0_138.mp4	0.0	331.5623941421509	2.508436918258667
83	227.76532793045044	fix_post	2		12.0	81.0	2.5	/experiments/knapen_aot/videos/S_yt-RHPOCG1mII0_138.mp4	0.0	334.07083106040955	0.09992599487304688
84	227.8652539253235	fix_pre	0		24.0	82.0	2.5	blank	1.0	334.1707570552826	0.199937105178833
84	228.0570249557495	response	0	2		82.0	2.5	blank	1.0	334.3625280857086	
84	228.06519103050232	movie	1		301.0	82.0	2.5	blank	1.0	334.3706941604614	2.50833797454834
84	230.57352900505066	fix_post	2		12.0	82.0	2.5	blank	1.0	336.87903213500977	0.10018181800842285
85	230.67371082305908	fix_pre	0		27.0	83.0	2.5	/experiments/knapen_aot/videos/R_S_wc-PsidKmkEV7Km_14.mp4	0.0	336.9792139530182	0.22479701042175293
85	230.89032196998596	response	0	2		83.0	2.5	/experiments/knapen_aot/videos/R_S_wc-PsidKmkEV7Km_14.mp4	0.0	337.19582509994507	
85	230.89850783348083	movie	1		167.0	83.0	2.5	/experiments/knapen_aot/videos/R_S_wc-PsidKmkEV7Km_14.mp4	0.0	337.20401096343994	2.5082921981811523
85	233.406800031662	fix_post	2		12.0	83.0	2.5	/experiments/knapen_aot/videos/R_S_wc-PsidKmkEV7Km_14.mp4	0.0	339.7123031616211	0.10009598731994629
87	233.50689601898193	stim	0		211.0					339.81239914894104	1.7592618465423584
87	233.64866089820862	response	0	2						339.9541640281677	
87	235.25443983078003	response	0	space						341.55994296073914	
