trial_nr	onset	event_type	phase	response	nr_frames	movie_index	movie_duration	movie_file	blank	onset_abs	duration
0	0.1669931411743164	stim	0		23.0					111.77123999595642	0.5624558925628662
0	0.7168991565704346	response	0	space						112.32114601135254	
1	0.7294490337371826	stim	0		121.0					112.33369588851929	1.0034780502319336
1	1.7329270839691162	stim	1		120.0					113.33717393875122	0.9999699592590332
1	2.4413721561431885	response	1	space						114.0456190109253	
2	2.7328970432281494	fix_pre	0		17.0	0.0	2.5	/experiments/knapen_aot/videos/R_S_yt-b29VtKvlnWE_430.mp4	0.0	114.33714389801025	0.1837139129638672
2	2.900424003601074	response	0	space		0.0	2.5	/experiments/knapen_aot/videos/R_S_yt-b29VtKvlnWE_430.mp4	0.0	114.50467085838318	
2	2.9166109561920166	movie	1		300.0	0.0	2.5	/experiments/knapen_aot/videos/R_S_yt-b29VtKvlnWE_430.mp4	0.0	114.52085781097412	2.5079450607299805
2	5.424556016921997	fix_post	2		12.0	0.0	2.5	/experiments/knapen_aot/videos/R_S_yt-b29VtKvlnWE_430.mp4	0.0	117.0288028717041	0.10003495216369629
3	5.524590969085693	fix_pre	0		11.0	1.0	2.5	/experiments/knapen_aot/videos/R_S_pexels-cottonbro-5310858.mp4	0.0	117.1288378238678	0.09339308738708496
3	5.610384941101074	response	0	2		1.0	2.5	/experiments/knapen_aot/videos/R_S_pexels-cottonbro-5310858.mp4	0.0	117.21463179588318	
3	5.617984056472778	movie	1		167.0	1.0	2.5	/experiments/knapen_aot/videos/R_S_pexels-cottonbro-5310858.mp4	0.0	117.22223091125488	2.506463050842285
3	8.124447107315063	fix_post	2		12.0	1.0	2.5	/experiments/knapen_aot/videos/R_S_pexels-cottonbro-5310858.mp4	0.0	119.72869396209717	0.10012292861938477
3	8.174837112426758	response	2	2		1.0	2.5	/experiments/knapen_aot/videos/R_S_pexels-cottonbro-5310858.mp4	0.0	119.77908396720886	
4	8.224570035934448	fix_pre	0		36.0	2.0	2.5	/experiments/knapen_aot/videos/R_S_wc-ujHd_fPVcSlX_10.mp4	0.0	119.82881689071655	0.299954891204834
4	8.51633906364441	response	0	2		2.0	2.5	/experiments/knapen_aot/videos/R_S_wc-ujHd_fPVcSlX_10.mp4	0.0	120.12058591842651	
4	8.524524927139282	movie	1		168.0	2.0	2.5	/experiments/knapen_aot/videos/R_S_wc-ujHd_fPVcSlX_10.mp4	0.0	120.12877178192139	2.508319139480591
4	11.032844066619873	fix_post	2		12.0	2.0	2.5	/experiments/knapen_aot/videos/R_S_wc-ujHd_fPVcSlX_10.mp4	0.0	122.63709092140198	0.099945068359375
5	11.132789134979248	fix_pre	0		3.0	3.0	2.5	/experiments/knapen_aot/videos/R_S_yt-K_gHa2x2OQA_319.mp4	0.0	122.73703598976135	0.02508091926574707
5	11.142122030258179	response	0	2		3.0	2.5	/experiments/knapen_aot/videos/R_S_yt-K_gHa2x2OQA_319.mp4	0.0	122.74636888504028	
5	11.157870054244995	movie	1		301.0	3.0	2.5	/experiments/knapen_aot/videos/R_S_yt-K_gHa2x2OQA_319.mp4	0.0	122.7621169090271	2.5086770057678223
5	13.457935094833374	response	1	2		3.0	2.5	/experiments/knapen_aot/videos/R_S_yt-K_gHa2x2OQA_319.mp4	0.0	125.06218194961548	
5	13.666547060012817	fix_post	2		12.0	3.0	2.5	/experiments/knapen_aot/videos/R_S_yt-K_gHa2x2OQA_319.mp4	0.0	125.27079391479492	0.0996389389038086
6	13.766185998916626	fix_pre	0		5.0	4.0	2.5	/experiments/knapen_aot/videos/S_ILSVRC2015_train_00661001.mp4	0.0	125.37043285369873	0.04169106483459473
6	13.799730062484741	response	0	2		4.0	2.5	/experiments/knapen_aot/videos/S_ILSVRC2015_train_00661001.mp4	0.0	125.40397691726685	
6	13.80787706375122	movie	1		301.0	4.0	2.5	/experiments/knapen_aot/videos/S_ILSVRC2015_train_00661001.mp4	0.0	125.41212391853333	2.5082550048828125
6	16.316132068634033	fix_post	2		12.0	4.0	2.5	/experiments/knapen_aot/videos/S_ILSVRC2015_train_00661001.mp4	0.0	127.92037892341614	0.10035991668701172
7	16.416491985321045	fix_pre	0		6.0	5.0	2.5	/experiments/knapen_aot/videos/R_S_yt-VQtbKGzI9SE_431.mp4	0.0	128.02073884010315	0.04966902732849121
7	16.45845603942871	response	0	2		5.0	2.5	/experiments/knapen_aot/videos/R_S_yt-VQtbKGzI9SE_431.mp4	0.0	128.06270289421082	
7	16.466161012649536	movie	1		301.0	5.0	2.5	/experiments/knapen_aot/videos/R_S_yt-VQtbKGzI9SE_431.mp4	0.0	128.07040786743164	2.5084409713745117
7	18.974601984024048	fix_post	2		12.0	5.0	2.5	/experiments/knapen_aot/videos/R_S_yt-VQtbKGzI9SE_431.mp4	0.0	130.57884883880615	0.09986710548400879
8	19.074469089508057	fix_pre	0		6.0	6.0	2.5	/experiments/knapen_aot/videos/R_S_yt-GETRVzxihhM_74.mp4	0.0	130.67871594429016	0.05031299591064453
8	19.116361141204834	response	0	2		6.0	2.5	/experiments/knapen_aot/videos/R_S_yt-GETRVzxihhM_74.mp4	0.0	130.72060799598694	
8	19.1247820854187	movie	1		301.0	6.0	2.5	/experiments/knapen_aot/videos/R_S_yt-GETRVzxihhM_74.mp4	0.0	130.7290289402008	2.507956027984619
8	21.63273811340332	fix_post	2		12.0	6.0	2.5	/experiments/knapen_aot/videos/R_S_yt-GETRVzxihhM_74.mp4	0.0	133.23698496818542	0.10005688667297363
9	21.732795000076294	fix_pre	0		23.0	7.0	2.5	blank	1.0	133.3370418548584	0.19160103797912598
9	21.916259050369263	response	0	2		7.0	2.5	blank	1.0	133.52050590515137	
9	21.92439603805542	movie	1		301.0	7.0	2.5	blank	1.0	133.52864289283752	2.5084569454193115
9	24.43285298347473	fix_post	2		12.0	7.0	2.5	blank	1.0	136.03709983825684	0.09992194175720215
10	24.532774925231934	fix_pre	0		31.0	8.0	2.5	/experiments/knapen_aot/videos/S_yt-0n0uppNuUus_15.mp4	0.0	136.13702178001404	0.25861501693725586
10	24.78288507461548	response	0	2		8.0	2.5	/experiments/knapen_aot/videos/S_yt-0n0uppNuUus_15.mp4	0.0	136.38713192939758	
10	24.79138994216919	movie	1		301.0	8.0	2.5	/experiments/knapen_aot/videos/S_yt-0n0uppNuUus_15.mp4	0.0	136.3956367969513	2.5080761909484863
10	27.299466133117676	fix_post	2		12.0	8.0	2.5	/experiments/knapen_aot/videos/S_yt-0n0uppNuUus_15.mp4	0.0	138.90371298789978	0.10004281997680664
11	27.399508953094482	fix_pre	0		20.0	9.0	2.5	/experiments/knapen_aot/videos/S_ILSVRC2015_train_00423000.mp4	0.0	139.0037558078766	0.16664409637451172
11	27.557883977890015	response	0	2		9.0	2.5	/experiments/knapen_aot/videos/S_ILSVRC2015_train_00423000.mp4	0.0	139.16213083267212	
11	27.566153049468994	movie	1		301.0	9.0	2.5	/experiments/knapen_aot/videos/S_ILSVRC2015_train_00423000.mp4	0.0	139.1703999042511	2.5083301067352295
11	30.074483156204224	fix_post	2		12.0	9.0	2.5	/experiments/knapen_aot/videos/S_ILSVRC2015_train_00423000.mp4	0.0	141.67873001098633	0.09998393058776855
12	30.174467086791992	fix_pre	0		3.0	10.0	2.5	/experiments/knapen_aot/videos/R_S_production_ID_3927047.mp4	0.0	141.7787139415741	0.025055885314941406
12	30.191415071487427	response	0	2		10.0	2.5	/experiments/knapen_aot/videos/R_S_production_ID_3927047.mp4	0.0	141.79566192626953	
12	30.199522972106934	movie	1		195.0	10.0	2.5	/experiments/knapen_aot/videos/R_S_production_ID_3927047.mp4	0.0	141.80376982688904	2.5083141326904297
12	32.5663480758667	response	1	2		10.0	2.5	/experiments/knapen_aot/videos/R_S_production_ID_3927047.mp4	0.0	144.1705949306488	
12	32.70783710479736	fix_post	2		12.0	10.0	2.5	/experiments/knapen_aot/videos/R_S_production_ID_3927047.mp4	0.0	144.31208395957947	0.09995102882385254
13	32.807788133621216	fix_pre	0		23.0	11.0	2.5	/experiments/knapen_aot/videos/R_S_video-3.mp4	0.0	144.41203498840332	0.19190597534179688
13	32.9912109375	response	0	2		11.0	2.5	/experiments/knapen_aot/videos/R_S_video-3.mp4	0.0	144.5954577922821	
13	32.99969410896301	movie	1		166.0	11.0	2.5	/experiments/knapen_aot/videos/R_S_video-3.mp4	0.0	144.60394096374512	2.5081489086151123
13	35.507843017578125	fix_post	2		12.0	11.0	2.5	/experiments/knapen_aot/videos/R_S_video-3.mp4	0.0	147.11208987236023	0.10002303123474121
14	35.607866048812866	fix_pre	0		8.0	12.0	2.5	/experiments/knapen_aot/videos/R_S_ILSVRC2015_train_00661001.mp4	0.0	147.21211290359497	0.06653404235839844
14	35.66619396209717	response	0	2		12.0	2.5	/experiments/knapen_aot/videos/R_S_ILSVRC2015_train_00661001.mp4	0.0	147.27044081687927	
14	35.674400091171265	movie	1		301.0	12.0	2.5	/experiments/knapen_aot/videos/R_S_ILSVRC2015_train_00661001.mp4	0.0	147.27864694595337	2.5083539485931396
14	38.182754039764404	fix_post	2		12.0	12.0	2.5	/experiments/knapen_aot/videos/R_S_ILSVRC2015_train_00661001.mp4	0.0	149.7870008945465	0.10007810592651367
15	38.28283214569092	fix_pre	0		26.0	13.0	2.5	/experiments/knapen_aot/videos/S_yt-LdHRVIb4nIE_6.mp4	0.0	149.88707900047302	0.21674585342407227
15	38.48375391960144	response	0	2		13.0	2.5	/experiments/knapen_aot/videos/S_yt-LdHRVIb4nIE_6.mp4	0.0	150.08800077438354	
15	38.49957799911499	movie	1		301.0	13.0	2.5	/experiments/knapen_aot/videos/S_yt-LdHRVIb4nIE_6.mp4	0.0	150.1038248538971	2.5081310272216797
15	41.00770902633667	fix_post	2		12.0	13.0	2.5	/experiments/knapen_aot/videos/S_yt-LdHRVIb4nIE_6.mp4	0.0	152.61195588111877	0.10001993179321289
16	41.10772895812988	fix_pre	0		29.0	14.0	2.5	blank	1.0	152.711975812912	0.24162507057189941
16	41.34119200706482	response	0	2		14.0	2.5	blank	1.0	152.94543886184692	
16	41.34935402870178	movie	1		301.0	14.0	2.5	blank	1.0	152.9536008834839	2.508327007293701
16	43.85768103599548	fix_post	2		12.0	14.0	2.5	blank	1.0	155.4619278907776	0.10021305084228516
17	43.95789408683777	fix_pre	0		24.0	15.0	2.5	/experiments/knapen_aot/videos/S_yt-F3hhts3bwWg_25.mp4	0.0	155.56214094161987	0.19982695579528809
17	44.14947009086609	response	0	2		15.0	2.5	/experiments/knapen_aot/videos/S_yt-F3hhts3bwWg_25.mp4	0.0	155.7537169456482	
17	44.15772104263306	movie	1		301.0	15.0	2.5	/experiments/knapen_aot/videos/S_yt-F3hhts3bwWg_25.mp4	0.0	155.76196789741516	2.508527994155884
17	46.66624903678894	fix_post	2		12.0	15.0	2.5	/experiments/knapen_aot/videos/S_yt-F3hhts3bwWg_25.mp4	0.0	158.27049589157104	0.09981799125671387
18	46.766067028045654	fix_pre	0		25.0	16.0	2.5	/experiments/knapen_aot/videos/R_S_pexels-cottonbro-10640532.mp4	0.0	158.37031388282776	0.2083439826965332
18	46.966150999069214	response	0	2		16.0	2.5	/experiments/knapen_aot/videos/R_S_pexels-cottonbro-10640532.mp4	0.0	158.57039785385132	
18	46.97441101074219	movie	1		200.0	16.0	2.5	/experiments/knapen_aot/videos/R_S_pexels-cottonbro-10640532.mp4	0.0	158.5786578655243	2.508281946182251
18	49.48269295692444	fix_post	2		12.0	16.0	2.5	/experiments/knapen_aot/videos/R_S_pexels-cottonbro-10640532.mp4	0.0	161.08693981170654	0.10017204284667969
19	49.58286499977112	fix_pre	0		12.0	17.0	2.5	/experiments/knapen_aot/videos/S_yt-rlVzHENWufE_61.mp4	0.0	161.18711185455322	0.09981513023376465
19	49.67451000213623	response	0	2		17.0	2.5	/experiments/knapen_aot/videos/S_yt-rlVzHENWufE_61.mp4	0.0	161.27875685691833	
19	49.68268013000488	movie	1		301.0	17.0	2.5	/experiments/knapen_aot/videos/S_yt-rlVzHENWufE_61.mp4	0.0	161.286926984787	2.508335828781128
19	52.19101595878601	fix_post	2		12.0	17.0	2.5	/experiments/knapen_aot/videos/S_yt-rlVzHENWufE_61.mp4	0.0	163.79526281356812	0.10016608238220215
20	52.29118204116821	fix_pre	0		26.0	18.0	2.5	/experiments/knapen_aot/videos/R_S_xq822dX6DDM_1.mp4	0.0	163.89542889595032	0.21646904945373535
20	52.499627113342285	response	0	2		18.0	2.5	/experiments/knapen_aot/videos/R_S_xq822dX6DDM_1.mp4	0.0	164.1038739681244	
20	52.50765109062195	movie	1		301.0	18.0	2.5	/experiments/knapen_aot/videos/R_S_xq822dX6DDM_1.mp4	0.0	164.11189794540405	2.5083959102630615
20	55.01604700088501	fix_post	2		12.0	18.0	2.5	/experiments/knapen_aot/videos/R_S_xq822dX6DDM_1.mp4	0.0	166.62029385566711	0.09995412826538086
21	55.11600112915039	fix_pre	0		9.0	19.0	2.5	blank	1.0	166.7202479839325	0.07497286796569824
21	55.182801961898804	response	0	2		19.0	2.5	blank	1.0	166.7870488166809	
21	55.19097399711609	movie	1		301.0	19.0	2.5	blank	1.0	166.7952208518982	2.508376121520996
21	57.699350118637085	fix_post	2		12.0	19.0	2.5	blank	1.0	169.3035969734192	0.09995698928833008
22	57.799307107925415	fix_pre	0		29.0	20.0	2.5	/experiments/knapen_aot/videos/S_bing-www_dailymotion_com_video_x64hzm7_8.mp4	0.0	169.40355396270752	0.24176502227783203
22	58.03281593322754	response	0	2		20.0	2.5	/experiments/knapen_aot/videos/S_bing-www_dailymotion_com_video_x64hzm7_8.mp4	0.0	169.63706278800964	
22	58.04107213020325	movie	1		170.0	20.0	2.5	/experiments/knapen_aot/videos/S_bing-www_dailymotion_com_video_x64hzm7_8.mp4	0.0	169.64531898498535	2.508188009262085
22	60.54926013946533	fix_post	2		12.0	20.0	2.5	/experiments/knapen_aot/videos/S_bing-www_dailymotion_com_video_x64hzm7_8.mp4	0.0	172.15350699424744	0.10009098052978516
23	60.64935111999512	fix_pre	0		61.0	21.0	2.5	/experiments/knapen_aot/videos/S_yt-CeOZeB1LXwE_79.mp4	0.0	172.25359797477722	0.5098018646240234
23	61.14947199821472	response	0	2		21.0	2.5	/experiments/knapen_aot/videos/S_yt-CeOZeB1LXwE_79.mp4	0.0	172.75371885299683	
23	61.15915298461914	movie	1		301.0	21.0	2.5	/experiments/knapen_aot/videos/S_yt-CeOZeB1LXwE_79.mp4	0.0	172.76339983940125	2.506865978240967
23	63.66601896286011	fix_post	2		12.0	21.0	2.5	/experiments/knapen_aot/videos/S_yt-CeOZeB1LXwE_79.mp4	0.0	175.2702658176422	0.09992098808288574
24	63.76593995094299	fix_pre	0		12.0	22.0	2.5	/experiments/knapen_aot/videos/S_production_ID_4122384.mp4	0.0	175.3701868057251	0.09993600845336914
24	63.850120067596436	response	0	2		22.0	2.5	/experiments/knapen_aot/videos/S_production_ID_4122384.mp4	0.0	175.45436692237854	
24	63.86587595939636	movie	1		183.0	22.0	2.5	/experiments/knapen_aot/videos/S_production_ID_4122384.mp4	0.0	175.47012281417847	2.5085370540618896
24	66.37441301345825	fix_post	2		12.0	22.0	2.5	/experiments/knapen_aot/videos/S_production_ID_4122384.mp4	0.0	177.97865986824036	0.09991192817687988
25	66.47432494163513	fix_pre	0		3.0	23.0	2.5	/experiments/knapen_aot/videos/R_S_yt-AHbFln6blfE_36.mp4	0.0	178.07857179641724	0.03334212303161621
25	66.49113893508911	response	0	2		23.0	2.5	/experiments/knapen_aot/videos/R_S_yt-AHbFln6blfE_36.mp4	0.0	178.09538578987122	
25	66.50766706466675	movie	1		300.0	23.0	2.5	/experiments/knapen_aot/videos/R_S_yt-AHbFln6blfE_36.mp4	0.0	178.11191391944885	2.500001907348633
25	69.00766897201538	fix_post	2		12.0	23.0	2.5	/experiments/knapen_aot/videos/R_S_yt-AHbFln6blfE_36.mp4	0.0	180.61191582679749	0.09998798370361328
26	69.107656955719	fix_pre	0		18.0	24.0	2.5	/experiments/knapen_aot/videos/R_S_bing-www_msn_com_en-us_video_news_tommy-lasorda-salutes-national-league-champs_vp-AAtLThQ_4.mp4	0.0	180.7119038105011	0.14996910095214844
26	69.24948501586914	response	0	2		24.0	2.5	/experiments/knapen_aot/videos/R_S_bing-www_msn_com_en-us_video_news_tommy-lasorda-salutes-national-league-champs_vp-AAtLThQ_4.mp4	0.0	180.85373187065125	
26	69.25762605667114	movie	1		167.0	24.0	2.5	/experiments/knapen_aot/videos/R_S_bing-www_msn_com_en-us_video_news_tommy-lasorda-salutes-national-league-champs_vp-AAtLThQ_4.mp4	0.0	180.86187291145325	2.508344888687134
26	71.76597094535828	fix_post	2		12.0	24.0	2.5	/experiments/knapen_aot/videos/R_S_bing-www_msn_com_en-us_video_news_tommy-lasorda-salutes-national-league-champs_vp-AAtLThQ_4.mp4	0.0	183.37021780014038	0.10000419616699219
27	71.86597514152527	fix_pre	0		8.0	25.0	2.5	/experiments/knapen_aot/videos/R_S_yt-XUnZ7FbBtvk_162.mp4	0.0	183.47022199630737	0.06670999526977539
27	71.92449593544006	response	0	2		25.0	2.5	/experiments/knapen_aot/videos/R_S_yt-XUnZ7FbBtvk_162.mp4	0.0	183.52874279022217	
27	71.93268513679504	movie	1		301.0	25.0	2.5	/experiments/knapen_aot/videos/R_S_yt-XUnZ7FbBtvk_162.mp4	0.0	183.53693199157715	2.508314847946167
27	74.44099998474121	fix_post	2		12.0	25.0	2.5	/experiments/knapen_aot/videos/R_S_yt-XUnZ7FbBtvk_162.mp4	0.0	186.04524683952332	0.09999394416809082
28	74.5409939289093	fix_pre	0		29.0	26.0	2.5	/experiments/knapen_aot/videos/R_S_yt-I2n2eo2zoZs_94.mp4	0.0	186.1452407836914	0.24300599098205566
28	74.77436399459839	response	0	2		26.0	2.5	/experiments/knapen_aot/videos/R_S_yt-I2n2eo2zoZs_94.mp4	0.0	186.3786108493805	
28	74.78399991989136	movie	1		301.0	26.0	2.5	/experiments/knapen_aot/videos/R_S_yt-I2n2eo2zoZs_94.mp4	0.0	186.38824677467346	2.506977081298828
28	77.29097700119019	fix_post	2		12.0	26.0	2.5	/experiments/knapen_aot/videos/R_S_yt-I2n2eo2zoZs_94.mp4	0.0	188.8952238559723	0.09994912147521973
29	77.3909261226654	fix_pre	0		20.0	27.0	2.5	/experiments/knapen_aot/videos/S_yt-MsSEF0krKE4_149.mp4	0.0	188.9951729774475	0.16659188270568848
29	77.54940605163574	response	0	2		27.0	2.5	/experiments/knapen_aot/videos/S_yt-MsSEF0krKE4_149.mp4	0.0	189.15365290641785	
29	77.5575180053711	movie	1		301.0	27.0	2.5	/experiments/knapen_aot/videos/S_yt-MsSEF0krKE4_149.mp4	0.0	189.1617648601532	2.5084450244903564
29	80.06596302986145	fix_post	2		12.0	27.0	2.5	/experiments/knapen_aot/videos/S_yt-MsSEF0krKE4_149.mp4	0.0	191.67020988464355	0.09998512268066406
30	80.16594815254211	fix_pre	0		5.0	28.0	2.5	blank	1.0	191.77019500732422	0.041821956634521484
30	80.19938206672668	response	0	2		28.0	2.5	blank	1.0	191.8036289215088	
30	80.20777010917664	movie	1		301.0	28.0	2.5	blank	1.0	191.81201696395874	2.5080769062042236
30	82.71584701538086	fix_post	2		12.0	28.0	2.5	blank	1.0	194.32009387016296	0.09995007514953613
31	82.8157970905304	fix_pre	0		24.0	29.0	2.5	/experiments/knapen_aot/videos/S_ILSVRC2015_train_00628000.mp4	0.0	194.4200439453125	0.20006299018859863
31	83.00771498680115	response	0	2		29.0	2.5	/experiments/knapen_aot/videos/S_ILSVRC2015_train_00628000.mp4	0.0	194.61196184158325	
31	83.015860080719	movie	1		301.0	29.0	2.5	/experiments/knapen_aot/videos/S_ILSVRC2015_train_00628000.mp4	0.0	194.6201069355011	2.5083470344543457
31	85.52420711517334	fix_post	2		12.0	29.0	2.5	/experiments/knapen_aot/videos/S_ILSVRC2015_train_00628000.mp4	0.0	197.12845396995544	0.0999898910522461
32	85.62419700622559	fix_pre	0		15.0	30.0	2.5	/experiments/knapen_aot/videos/S_yt-H45g6700wbc_159.mp4	0.0	197.2284438610077	0.12493300437927246
32	85.74101710319519	response	0	2		30.0	2.5	/experiments/knapen_aot/videos/S_yt-H45g6700wbc_159.mp4	0.0	197.3452639579773	
32	85.74913001060486	movie	1		301.0	30.0	2.5	/experiments/knapen_aot/videos/S_yt-H45g6700wbc_159.mp4	0.0	197.35337686538696	2.508420944213867
32	88.25755095481873	fix_post	2		12.0	30.0	2.5	/experiments/knapen_aot/videos/S_yt-H45g6700wbc_159.mp4	0.0	199.86179780960083	0.10001206398010254
33	88.35756301879883	fix_pre	0		19.0	31.0	2.5	/experiments/knapen_aot/videos/R_S_yt-IT741UWKVzg_34.mp4	0.0	199.96180987358093	0.1582190990447998
33	88.50765013694763	response	0	2		31.0	2.5	/experiments/knapen_aot/videos/R_S_yt-IT741UWKVzg_34.mp4	0.0	200.11189699172974	
33	88.51578211784363	movie	1		301.0	31.0	2.5	/experiments/knapen_aot/videos/R_S_yt-IT741UWKVzg_34.mp4	0.0	200.12002897262573	2.508354902267456
33	91.02413702011108	fix_post	2		12.0	31.0	2.5	/experiments/knapen_aot/videos/R_S_yt-IT741UWKVzg_34.mp4	0.0	202.6283838748932	0.10005497932434082
34	91.12419199943542	fix_pre	0		13.0	32.0	2.5	/experiments/knapen_aot/videos/R_S_yt-4BAsE47kJNk_88.mp4	0.0	202.72843885421753	0.10832810401916504
34	91.22428297996521	response	0	2		32.0	2.5	/experiments/knapen_aot/videos/R_S_yt-4BAsE47kJNk_88.mp4	0.0	202.82852983474731	
34	91.23252010345459	movie	1		301.0	32.0	2.5	/experiments/knapen_aot/videos/R_S_yt-4BAsE47kJNk_88.mp4	0.0	202.8367669582367	2.5083658695220947
34	93.74088597297668	fix_post	2		12.0	32.0	2.5	/experiments/knapen_aot/videos/R_S_yt-4BAsE47kJNk_88.mp4	0.0	205.3451328277588	0.09992408752441406
34	93.82425904273987	response	2	2		32.0	2.5	/experiments/knapen_aot/videos/R_S_yt-4BAsE47kJNk_88.mp4	0.0	205.42850589752197	
35	93.8408100605011	fix_pre	0		53.0	33.0	2.5	/experiments/knapen_aot/videos/S_pexels-kampus-production-5991896.mp4	0.0	205.4450569152832	0.4417150020599365
35	94.27427911758423	response	0	2		33.0	2.5	/experiments/knapen_aot/videos/S_pexels-kampus-production-5991896.mp4	0.0	205.87852597236633	
35	94.28252506256104	movie	1		180.0	33.0	2.5	/experiments/knapen_aot/videos/S_pexels-kampus-production-5991896.mp4	0.0	205.88677191734314	2.5083670616149902
35	96.79089212417603	fix_post	2		12.0	33.0	2.5	/experiments/knapen_aot/videos/S_pexels-kampus-production-5991896.mp4	0.0	208.39513897895813	0.10000181198120117
36	96.89089393615723	fix_pre	0		12.0	34.0	2.5	/experiments/knapen_aot/videos/S_yt-IT741UWKVzg_34.mp4	0.0	208.49514079093933	0.09994912147521973
36	96.9826591014862	response	0	2		34.0	2.5	/experiments/knapen_aot/videos/S_yt-IT741UWKVzg_34.mp4	0.0	208.5869059562683	
36	96.99084305763245	movie	1		301.0	34.0	2.5	/experiments/knapen_aot/videos/S_yt-IT741UWKVzg_34.mp4	0.0	208.59508991241455	2.5084080696105957
36	99.49925112724304	fix_post	2		12.0	34.0	2.5	/experiments/knapen_aot/videos/S_yt-IT741UWKVzg_34.mp4	0.0	211.10349798202515	0.09994888305664062
37	99.59920001029968	fix_pre	0		17.0	35.0	2.5	blank	1.0	211.2034468650818	0.14155197143554688
37	99.73265600204468	response	0	2		35.0	2.5	blank	1.0	211.33690285682678	
37	99.74075198173523	movie	1		301.0	35.0	2.5	blank	1.0	211.34499883651733	2.5084030628204346
37	102.24915504455566	fix_post	2		12.0	35.0	2.5	blank	1.0	213.85340189933777	0.09995508193969727
38	102.34911012649536	fix_pre	0		24.0	36.0	2.5	/experiments/knapen_aot/videos/R_S_yt-_WFwhcmbXXY_51.mp4	0.0	213.95335698127747	0.19998383522033691
38	102.54092001914978	response	0	2		36.0	2.5	/experiments/knapen_aot/videos/R_S_yt-_WFwhcmbXXY_51.mp4	0.0	214.14516687393188	
38	102.5490939617157	movie	1		301.0	36.0	2.5	/experiments/knapen_aot/videos/R_S_yt-_WFwhcmbXXY_51.mp4	0.0	214.1533408164978	2.508439064025879
38	105.05753302574158	fix_post	2		12.0	36.0	2.5	/experiments/knapen_aot/videos/R_S_yt-_WFwhcmbXXY_51.mp4	0.0	216.66177988052368	0.09997200965881348
39	105.15750503540039	fix_pre	0		12.0	37.0	2.5	/experiments/knapen_aot/videos/R_S_yt-n6aLw10f2Yw_317.mp4	0.0	216.7617518901825	0.09996390342712402
39	105.24930906295776	response	0	2		37.0	2.5	/experiments/knapen_aot/videos/R_S_yt-n6aLw10f2Yw_317.mp4	0.0	216.85355591773987	
39	105.25746893882751	movie	1		301.0	37.0	2.5	/experiments/knapen_aot/videos/R_S_yt-n6aLw10f2Yw_317.mp4	0.0	216.86171579360962	2.5083839893341064
39	107.76585292816162	fix_post	2		12.0	37.0	2.5	/experiments/knapen_aot/videos/R_S_yt-n6aLw10f2Yw_317.mp4	0.0	219.37009978294373	0.09999203681945801
40	107.86584496498108	fix_pre	0		11.0	38.0	2.5	/experiments/knapen_aot/videos/R_S_video-2_copy.mp4	0.0	219.47009181976318	0.09163212776184082
40	107.94177913665771	response	0	2		38.0	2.5	/experiments/knapen_aot/videos/R_S_video-2_copy.mp4	0.0	219.54602599143982	
40	107.95747709274292	movie	1		170.0	38.0	2.5	/experiments/knapen_aot/videos/R_S_video-2_copy.mp4	0.0	219.56172394752502	2.508342981338501
40	110.46582007408142	fix_post	2		12.0	38.0	2.5	/experiments/knapen_aot/videos/R_S_video-2_copy.mp4	0.0	222.07006692886353	0.10001897811889648
41	110.56583905220032	fix_pre	0		15.0	39.0	2.5	/experiments/knapen_aot/videos/R_S_PA_A002_C009_SDR_20190730_ALT01_SDR_2K_AVC.mp4	0.0	222.17008590698242	0.1249539852142334
41	110.68261408805847	response	0	2		39.0	2.5	/experiments/knapen_aot/videos/R_S_PA_A002_C009_SDR_20190730_ALT01_SDR_2K_AVC.mp4	0.0	222.28686094284058	
41	110.69079303741455	movie	1		167.0	39.0	2.5	/experiments/knapen_aot/videos/R_S_PA_A002_C009_SDR_20190730_ALT01_SDR_2K_AVC.mp4	0.0	222.29503989219666	2.508331060409546
41	113.1991240978241	fix_post	2		12.0	39.0	2.5	/experiments/knapen_aot/videos/R_S_PA_A002_C009_SDR_20190730_ALT01_SDR_2K_AVC.mp4	0.0	224.8033709526062	0.10000491142272949
42	113.29912900924683	fix_pre	0		7.0	40.0	2.5	/experiments/knapen_aot/videos/R_S_yt-IC62JSYpq9w_71.mp4	0.0	224.90337586402893	0.05827808380126953
42	113.34928393363953	response	0	2		40.0	2.5	/experiments/knapen_aot/videos/R_S_yt-IC62JSYpq9w_71.mp4	0.0	224.95353078842163	
42	113.3574070930481	movie	1		301.0	40.0	2.5	/experiments/knapen_aot/videos/R_S_yt-IC62JSYpq9w_71.mp4	0.0	224.9616539478302	2.50834584236145
42	115.86575293540955	fix_post	2		12.0	40.0	2.5	/experiments/knapen_aot/videos/R_S_yt-IC62JSYpq9w_71.mp4	0.0	227.46999979019165	0.10003900527954102
43	115.96579194068909	fix_pre	0		16.0	41.0	2.5	blank	1.0	227.5700387954712	0.1333320140838623
43	116.09092998504639	response	0	2		41.0	2.5	blank	1.0	227.6951768398285	
43	116.09912395477295	movie	1		301.0	41.0	2.5	blank	1.0	227.70337080955505	2.5083069801330566
43	118.607430934906	fix_post	2		12.0	41.0	2.5	blank	1.0	230.2116777896881	0.10002017021179199
44	118.7074511051178	fix_pre	0		27.0	42.0	2.5	/experiments/knapen_aot/videos/R_S_ux8Mvi8P16k_168.mp4	0.0	230.3116979598999	0.22496485710144043
44	118.92418694496155	response	0	2		42.0	2.5	/experiments/knapen_aot/videos/R_S_ux8Mvi8P16k_168.mp4	0.0	230.52843379974365	
44	118.93241596221924	movie	1		301.0	42.0	2.5	/experiments/knapen_aot/videos/R_S_ux8Mvi8P16k_168.mp4	0.0	230.53666281700134	2.508308172225952
44	121.44072413444519	fix_post	2		11.0	42.0	2.5	/experiments/knapen_aot/videos/R_S_ux8Mvi8P16k_168.mp4	0.0	233.0449709892273	0.09283900260925293
44	121.52422904968262	response	2	2		42.0	2.5	/experiments/knapen_aot/videos/R_S_ux8Mvi8P16k_168.mp4	0.0	233.12847590446472	
45	121.53356313705444	fix_pre	0		54.0	43.0	2.5	/experiments/knapen_aot/videos/S_comp_HK_H004_C008_PSNK_v19_SDR_PS_20180914_SDR_2K_AVC.mp4	0.0	233.13780999183655	0.44879579544067383
45	121.97411799430847	response	0	2		43.0	2.5	/experiments/knapen_aot/videos/S_comp_HK_H004_C008_PSNK_v19_SDR_PS_20180914_SDR_2K_AVC.mp4	0.0	233.57836484909058	
45	121.98235893249512	movie	1		171.0	43.0	2.5	/experiments/knapen_aot/videos/S_comp_HK_H004_C008_PSNK_v19_SDR_PS_20180914_SDR_2K_AVC.mp4	0.0	233.58660578727722	2.5084280967712402
45	124.49078702926636	fix_post	2		12.0	43.0	2.5	/experiments/knapen_aot/videos/S_comp_HK_H004_C008_PSNK_v19_SDR_PS_20180914_SDR_2K_AVC.mp4	0.0	236.09503388404846	0.09996604919433594
46	124.5907530784607	fix_pre	0		20.0	44.0	2.5	/experiments/knapen_aot/videos/R_S_yt-vY49oIv_dWg_73.mp4	0.0	236.1949999332428	0.1666569709777832
46	124.74924802780151	response	0	2		44.0	2.5	/experiments/knapen_aot/videos/R_S_yt-vY49oIv_dWg_73.mp4	0.0	236.35349488258362	
46	124.75741004943848	movie	1		301.0	44.0	2.5	/experiments/knapen_aot/videos/R_S_yt-vY49oIv_dWg_73.mp4	0.0	236.36165690422058	2.5083260536193848
46	127.26573610305786	fix_post	2		12.0	44.0	2.5	/experiments/knapen_aot/videos/R_S_yt-vY49oIv_dWg_73.mp4	0.0	238.86998295783997	0.1000058650970459
47	127.36574196815491	fix_pre	0		25.0	45.0	2.5	/experiments/knapen_aot/videos/R_S_yt-zSSnQYeO_DE_338.mp4	0.0	238.969988822937	0.2094411849975586
47	127.56590795516968	response	0	2		45.0	2.5	/experiments/knapen_aot/videos/R_S_yt-zSSnQYeO_DE_338.mp4	0.0	239.17015480995178	
47	127.57518315315247	movie	1		301.0	45.0	2.5	/experiments/knapen_aot/videos/R_S_yt-zSSnQYeO_DE_338.mp4	0.0	239.17943000793457	2.507229804992676
47	130.08241295814514	fix_post	2		12.0	45.0	2.5	/experiments/knapen_aot/videos/R_S_yt-zSSnQYeO_DE_338.mp4	0.0	241.68665981292725	0.09998011589050293
48	130.18239307403564	fix_pre	0		8.0	46.0	2.5	/experiments/knapen_aot/videos/S_ILSVRC2015_train_00578001.mp4	0.0	241.78663992881775	0.06663894653320312
48	130.24086594581604	response	0	2		46.0	2.5	/experiments/knapen_aot/videos/S_ILSVRC2015_train_00578001.mp4	0.0	241.84511280059814	
48	130.24903202056885	movie	1		301.0	46.0	2.5	/experiments/knapen_aot/videos/S_ILSVRC2015_train_00578001.mp4	0.0	241.85327887535095	2.5083210468292236
48	132.75735306739807	fix_post	2		12.0	46.0	2.5	/experiments/knapen_aot/videos/S_ILSVRC2015_train_00578001.mp4	0.0	244.36159992218018	0.10004091262817383
48	132.84915494918823	response	2	2		46.0	2.5	/experiments/knapen_aot/videos/S_ILSVRC2015_train_00578001.mp4	0.0	244.45340180397034	
49	132.85739398002625	fix_pre	0		125.0	47.0	2.5	/experiments/knapen_aot/videos/S_yt-wPXrAuiiRZg_1062.mp4	0.0	244.46164083480835	1.0416271686553955
49	133.89082407951355	response	0	2		47.0	2.5	/experiments/knapen_aot/videos/S_yt-wPXrAuiiRZg_1062.mp4	0.0	245.49507093429565	
49	133.89902114868164	movie	1		301.0	47.0	2.5	/experiments/knapen_aot/videos/S_yt-wPXrAuiiRZg_1062.mp4	0.0	245.50326800346375	2.508331775665283
49	136.40735292434692	fix_post	2		12.0	47.0	2.5	/experiments/knapen_aot/videos/S_yt-wPXrAuiiRZg_1062.mp4	0.0	248.01159977912903	0.10003113746643066
50	136.50738406181335	fix_pre	0		22.0	48.0	2.5	/experiments/knapen_aot/videos/S_comp_A001_C001_120530_v04_SDR_FINAL_20180706_SDR_2K_AVC.mp4	0.0	248.11163091659546	0.183305025100708
50	136.6824939250946	response	0	2		48.0	2.5	/experiments/knapen_aot/videos/S_comp_A001_C001_120530_v04_SDR_FINAL_20180706_SDR_2K_AVC.mp4	0.0	248.2867407798767	
50	136.69068908691406	movie	1		169.0	48.0	2.5	/experiments/knapen_aot/videos/S_comp_A001_C001_120530_v04_SDR_FINAL_20180706_SDR_2K_AVC.mp4	0.0	248.29493594169617	2.5083370208740234
50	139.1990261077881	fix_post	2		12.0	48.0	2.5	/experiments/knapen_aot/videos/S_comp_A001_C001_120530_v04_SDR_FINAL_20180706_SDR_2K_AVC.mp4	0.0	250.8032729625702	0.09996294975280762
50	139.24088597297668	response	2	2		48.0	2.5	/experiments/knapen_aot/videos/S_comp_A001_C001_120530_v04_SDR_FINAL_20180706_SDR_2K_AVC.mp4	0.0	250.8451328277588	
51	139.2989890575409	fix_pre	0		45.0	49.0	2.5	blank	1.0	250.903235912323	0.37505507469177246
51	139.66574907302856	response	0	2		49.0	2.5	blank	1.0	251.26999592781067	
51	139.67404413223267	movie	1		301.0	49.0	2.5	blank	1.0	251.27829098701477	2.5083119869232178
51	142.18235611915588	fix_post	2		12.0	49.0	2.5	blank	1.0	253.786602973938	0.09998488426208496
52	142.28234100341797	fix_pre	0		25.0	50.0	2.5	/experiments/knapen_aot/videos/S_yt-gmiyqQDGN78_7.mp4	0.0	253.88658785820007	0.2093651294708252
52	142.4824481010437	response	0	2		50.0	2.5	/experiments/knapen_aot/videos/S_yt-gmiyqQDGN78_7.mp4	0.0	254.0866949558258	
52	142.4917061328888	movie	1		301.0	50.0	2.5	/experiments/knapen_aot/videos/S_yt-gmiyqQDGN78_7.mp4	0.0	254.0959529876709	2.5072150230407715
52	144.99892115592957	fix_post	2		12.0	50.0	2.5	/experiments/knapen_aot/videos/S_yt-gmiyqQDGN78_7.mp4	0.0	256.60316801071167	0.10004091262817383
53	145.09896206855774	fix_pre	0		19.0	51.0	2.5	/experiments/knapen_aot/videos/R_S_comp_A351_C001_v06_SDR_PS_20180725_SDR_2K_AVC.mp4	0.0	256.70320892333984	0.15831303596496582
53	145.24908900260925	response	0	2		51.0	2.5	/experiments/knapen_aot/videos/R_S_comp_A351_C001_v06_SDR_PS_20180725_SDR_2K_AVC.mp4	0.0	256.85333585739136	
53	145.2572751045227	movie	1		169.0	51.0	2.5	/experiments/knapen_aot/videos/R_S_comp_A351_C001_v06_SDR_PS_20180725_SDR_2K_AVC.mp4	0.0	256.8615219593048	2.508281946182251
53	147.76555705070496	fix_post	2		12.0	51.0	2.5	/experiments/knapen_aot/videos/R_S_comp_A351_C001_v06_SDR_PS_20180725_SDR_2K_AVC.mp4	0.0	259.36980390548706	0.10004997253417969
54	147.86560702323914	fix_pre	0		15.0	52.0	2.5	/experiments/knapen_aot/videos/R_S_pexels-pavel-danilyuk-8057714.mp4	0.0	259.46985387802124	0.12600111961364746
54	147.98249292373657	response	0	2		52.0	2.5	/experiments/knapen_aot/videos/R_S_pexels-pavel-danilyuk-8057714.mp4	0.0	259.5867397785187	
54	147.99160814285278	movie	1		169.0	52.0	2.5	/experiments/knapen_aot/videos/R_S_pexels-pavel-danilyuk-8057714.mp4	0.0	259.5958549976349	2.507220983505249
54	150.49882912635803	fix_post	2		12.0	52.0	2.5	/experiments/knapen_aot/videos/R_S_pexels-pavel-danilyuk-8057714.mp4	0.0	262.10307598114014	0.10004401206970215
55	150.59887313842773	fix_pre	0		9.0	53.0	2.5	/experiments/knapen_aot/videos/R_S_yt-VQtbKGzI9SE_431.mp4	0.0	262.20311999320984	0.07520294189453125
55	150.66570806503296	response	0	2		53.0	2.5	/experiments/knapen_aot/videos/R_S_yt-VQtbKGzI9SE_431.mp4	0.0	262.26995491981506	
55	150.67407608032227	movie	1		300.0	53.0	2.5	/experiments/knapen_aot/videos/R_S_yt-VQtbKGzI9SE_431.mp4	0.0	262.27832293510437	2.508220911026001
55	153.18229699134827	fix_post	2		12.0	53.0	2.5	/experiments/knapen_aot/videos/R_S_yt-VQtbKGzI9SE_431.mp4	0.0	264.78654384613037	0.09995508193969727
56	153.28225207328796	fix_pre	0		3.0	54.0	2.5	/experiments/knapen_aot/videos/R_S_yt-osdlC1buTaM_4.mp4	0.0	264.88649892807007	0.025023937225341797
56	153.29908204078674	response	0	2		54.0	2.5	/experiments/knapen_aot/videos/R_S_yt-osdlC1buTaM_4.mp4	0.0	264.90332889556885	
56	153.3072760105133	movie	1		301.0	54.0	2.5	/experiments/knapen_aot/videos/R_S_yt-osdlC1buTaM_4.mp4	0.0	264.9115228652954	2.5083560943603516
56	155.81563210487366	fix_post	2		12.0	54.0	2.5	/experiments/knapen_aot/videos/R_S_yt-osdlC1buTaM_4.mp4	0.0	267.41987895965576	0.10005784034729004
57	155.91568994522095	fix_pre	0		17.0	55.0	2.5	/experiments/knapen_aot/videos/R_S_yt-BIDHmbneB10_998.mp4	0.0	267.51993680000305	0.14158320426940918
57	156.04906797409058	response	0	2		55.0	2.5	/experiments/knapen_aot/videos/R_S_yt-BIDHmbneB10_998.mp4	0.0	267.6533148288727	
57	156.05727314949036	movie	1		301.0	55.0	2.5	/experiments/knapen_aot/videos/R_S_yt-BIDHmbneB10_998.mp4	0.0	267.66152000427246	2.5083298683166504
57	158.565603017807	fix_post	2		12.0	55.0	2.5	/experiments/knapen_aot/videos/R_S_yt-BIDHmbneB10_998.mp4	0.0	270.1698498725891	0.09995913505554199
58	158.66556215286255	fix_pre	0		25.0	56.0	2.5	blank	1.0	270.26980900764465	0.20835399627685547
58	158.86571407318115	response	0	2		56.0	2.5	blank	1.0	270.46996092796326	
58	158.8739161491394	movie	1		301.0	56.0	2.5	blank	1.0	270.4781630039215	2.5083248615264893
58	161.3822410106659	fix_post	2		12.0	56.0	2.5	blank	1.0	272.986487865448	0.09998011589050293
59	161.4822211265564	fix_pre	0		26.0	57.0	2.5	/experiments/knapen_aot/videos/S_pexels-cottonbro-5310858.mp4	0.0	273.0864679813385	0.21758484840393066
59	161.69060015678406	response	0	2		57.0	2.5	/experiments/knapen_aot/videos/S_pexels-cottonbro-5310858.mp4	0.0	273.29484701156616	
59	161.69980597496033	movie	1		167.0	57.0	2.5	/experiments/knapen_aot/videos/S_pexels-cottonbro-5310858.mp4	0.0	273.30405282974243	2.507385015487671
59	164.207190990448	fix_post	2		12.0	57.0	2.5	/experiments/knapen_aot/videos/S_pexels-cottonbro-5310858.mp4	0.0	275.8114378452301	0.10003900527954102
60	164.30722999572754	fix_pre	0		21.0	58.0	2.5	/experiments/knapen_aot/videos/S_yt-wE0cEswyaaM_53.mp4	0.0	275.91147685050964	0.1750049591064453
60	164.46647596359253	response	0	2		58.0	2.5	/experiments/knapen_aot/videos/S_yt-wE0cEswyaaM_53.mp4	0.0	276.07072281837463	
60	164.48223495483398	movie	1		301.0	58.0	2.5	/experiments/knapen_aot/videos/S_yt-wE0cEswyaaM_53.mp4	0.0	276.0864818096161	2.5082550048828125
60	166.9904899597168	fix_post	2		12.0	58.0	2.5	/experiments/knapen_aot/videos/S_yt-wE0cEswyaaM_53.mp4	0.0	278.5947368144989	0.10007405281066895
61	167.09056401252747	fix_pre	0		6.0	59.0	2.5	/experiments/knapen_aot/videos/S_yt-Tt_LkR4iAt4_11.mp4	0.0	278.69481086730957	0.050414085388183594
61	167.13231015205383	response	0	2		59.0	2.5	/experiments/knapen_aot/videos/S_yt-Tt_LkR4iAt4_11.mp4	0.0	278.73655700683594	
61	167.14097809791565	movie	1		300.0	59.0	2.5	/experiments/knapen_aot/videos/S_yt-Tt_LkR4iAt4_11.mp4	0.0	278.74522495269775	2.5078718662261963
61	169.64884996414185	fix_post	2		12.0	59.0	2.5	/experiments/knapen_aot/videos/S_yt-Tt_LkR4iAt4_11.mp4	0.0	281.25309681892395	0.09995603561401367
62	169.74880599975586	fix_pre	0		8.0	60.0	2.5	/experiments/knapen_aot/videos/S_yt-4BAsE47kJNk_88.mp4	0.0	281.35305285453796	0.06668901443481445
62	169.80729413032532	response	0	2		60.0	2.5	/experiments/knapen_aot/videos/S_yt-4BAsE47kJNk_88.mp4	0.0	281.4115409851074	
62	169.81549501419067	movie	1		301.0	60.0	2.5	/experiments/knapen_aot/videos/S_yt-4BAsE47kJNk_88.mp4	0.0	281.4197418689728	2.508378028869629
62	172.3238730430603	fix_post	2		12.0	60.0	2.5	/experiments/knapen_aot/videos/S_yt-4BAsE47kJNk_88.mp4	0.0	283.9281198978424	0.10001111030578613
63	172.4238841533661	fix_pre	0		4.0	61.0	2.5	/experiments/knapen_aot/videos/S_comp_A006_C003_1219EE_CC_v01_SDR_PS_FINAL_20180709_SDR_2K_AVC.mp4	0.0	284.0281310081482	0.03363990783691406
63	172.44899606704712	response	0	2		61.0	2.5	/experiments/knapen_aot/videos/S_comp_A006_C003_1219EE_CC_v01_SDR_PS_FINAL_20180709_SDR_2K_AVC.mp4	0.0	284.0532429218292	
63	172.457524061203	movie	1		171.0	61.0	2.5	/experiments/knapen_aot/videos/S_comp_A006_C003_1219EE_CC_v01_SDR_PS_FINAL_20180709_SDR_2K_AVC.mp4	0.0	284.0617709159851	2.5079519748687744
63	174.96547603607178	fix_post	2		12.0	61.0	2.5	/experiments/knapen_aot/videos/S_comp_A006_C003_1219EE_CC_v01_SDR_PS_FINAL_20180709_SDR_2K_AVC.mp4	0.0	286.5697228908539	0.10001301765441895
63	174.99066996574402	response	2	2		61.0	2.5	/experiments/knapen_aot/videos/S_comp_A006_C003_1219EE_CC_v01_SDR_PS_FINAL_20180709_SDR_2K_AVC.mp4	0.0	286.5949168205261	
64	175.0654890537262	fix_pre	0		34.0	62.0	2.5	blank	1.0	286.6697359085083	0.28327107429504395
64	175.34055495262146	response	0	2		62.0	2.5	blank	1.0	286.94480180740356	
64	175.34876012802124	movie	1		301.0	62.0	2.5	blank	1.0	286.95300698280334	2.508382797241211
64	177.85714292526245	fix_post	2		12.0	62.0	2.5	blank	1.0	289.46138978004456	0.09999608993530273
65	177.95713901519775	fix_pre	0		45.0	63.0	2.5	/experiments/knapen_aot/videos/S_yt-fymgyhmYnMI_76.mp4	0.0	289.56138586997986	0.3749880790710449
65	178.32397603988647	response	0	2		63.0	2.5	/experiments/knapen_aot/videos/S_yt-fymgyhmYnMI_76.mp4	0.0	289.9282228946686	
65	178.3321270942688	movie	1		301.0	63.0	2.5	/experiments/knapen_aot/videos/S_yt-fymgyhmYnMI_76.mp4	0.0	289.9363739490509	2.5082828998565674
65	180.84040999412537	fix_post	2		12.0	63.0	2.5	/experiments/knapen_aot/videos/S_yt-fymgyhmYnMI_76.mp4	0.0	292.44465684890747	0.10008811950683594
66	180.9404981136322	fix_pre	0		6.0	64.0	2.5	/experiments/knapen_aot/videos/S_yt-PYHK810V_n8_1375.mp4	0.0	292.5447449684143	0.05096888542175293
66	180.982351064682	response	0	2		64.0	2.5	/experiments/knapen_aot/videos/S_yt-PYHK810V_n8_1375.mp4	0.0	292.5865979194641	
66	180.99146699905396	movie	1		301.0	64.0	2.5	/experiments/knapen_aot/videos/S_yt-PYHK810V_n8_1375.mp4	0.0	292.59571385383606	2.5073230266571045
66	183.49879002571106	fix_post	2		12.0	64.0	2.5	/experiments/knapen_aot/videos/S_yt-PYHK810V_n8_1375.mp4	0.0	295.10303688049316	0.09996199607849121
67	183.59875202178955	fix_pre	0		28.0	65.0	2.5	/experiments/knapen_aot/videos/R_S_ILSVRC2015_train_00364000.mp4	0.0	295.20299887657166	0.23333096504211426
67	183.8239290714264	response	0	2		65.0	2.5	/experiments/knapen_aot/videos/R_S_ILSVRC2015_train_00364000.mp4	0.0	295.4281759262085	
67	183.83208298683167	movie	1		301.0	65.0	2.5	/experiments/knapen_aot/videos/R_S_ILSVRC2015_train_00364000.mp4	0.0	295.43632984161377	2.50838303565979
67	186.34046602249146	fix_post	2		12.0	65.0	2.5	/experiments/knapen_aot/videos/R_S_ILSVRC2015_train_00364000.mp4	0.0	297.94471287727356	0.09994292259216309
68	186.44040894508362	fix_pre	0		15.0	66.0	2.5	/experiments/knapen_aot/videos/S_yt-SCzpSxzt0TA_46.mp4	0.0	298.0446557998657	0.12507200241088867
68	186.5571939945221	response	0	2		66.0	2.5	/experiments/knapen_aot/videos/S_yt-SCzpSxzt0TA_46.mp4	0.0	298.1614408493042	
68	186.5654809474945	movie	1		301.0	66.0	2.5	/experiments/knapen_aot/videos/S_yt-SCzpSxzt0TA_46.mp4	0.0	298.1697278022766	2.5082671642303467
68	189.07374811172485	fix_post	2		12.0	66.0	2.5	/experiments/knapen_aot/videos/S_yt-SCzpSxzt0TA_46.mp4	0.0	300.67799496650696	0.09993982315063477
69	189.1736879348755	fix_pre	0		15.0	67.0	2.5	/experiments/knapen_aot/videos/R_S_comp_CH_C002_C005_PSNK_v05_SDR_PS_FINAL_20180709_SDR_2K_AVC.mp4	0.0	300.7779347896576	0.1249990463256836
69	189.29059314727783	response	0	2		67.0	2.5	/experiments/knapen_aot/videos/R_S_comp_CH_C002_C005_PSNK_v05_SDR_PS_FINAL_20180709_SDR_2K_AVC.mp4	0.0	300.89484000205994	
69	189.29868698120117	movie	1		178.0	67.0	2.5	/experiments/knapen_aot/videos/R_S_comp_CH_C002_C005_PSNK_v05_SDR_PS_FINAL_20180709_SDR_2K_AVC.mp4	0.0	300.9029338359833	2.508411169052124
69	191.8070981502533	fix_post	2		12.0	67.0	2.5	/experiments/knapen_aot/videos/R_S_comp_CH_C002_C005_PSNK_v05_SDR_PS_FINAL_20180709_SDR_2K_AVC.mp4	0.0	303.4113450050354	0.1007847785949707
70	191.90788292884827	fix_pre	0		4.0	68.0	2.5	/experiments/knapen_aot/videos/S_yt-VQtbKGzI9SE_431.mp4	0.0	303.51212978363037	0.032523155212402344
70	191.932284116745	response	0	2		68.0	2.5	/experiments/knapen_aot/videos/S_yt-VQtbKGzI9SE_431.mp4	0.0	303.5365309715271	
70	191.94040608406067	movie	1		301.0	68.0	2.5	/experiments/knapen_aot/videos/S_yt-VQtbKGzI9SE_431.mp4	0.0	303.5446529388428	2.5082809925079346
70	194.4486870765686	fix_post	2		12.0	68.0	2.5	/experiments/knapen_aot/videos/S_yt-VQtbKGzI9SE_431.mp4	0.0	306.0529339313507	0.10000395774841309
71	194.54869103431702	fix_pre	0		15.0	69.0	2.5	/experiments/knapen_aot/videos/S_comp_GMT329_113NC_396B_1105_CHINA_v04_SDR_FINAL_20180706_F900F2700_SDR_2K_AVC.mp4	0.0	306.1529378890991	0.1250019073486328
71	194.6654989719391	response	0	2		69.0	2.5	/experiments/knapen_aot/videos/S_comp_GMT329_113NC_396B_1105_CHINA_v04_SDR_FINAL_20180706_F900F2700_SDR_2K_AVC.mp4	0.0	306.2697458267212	
71	194.67369294166565	movie	1		171.0	69.0	2.5	/experiments/knapen_aot/videos/S_comp_GMT329_113NC_396B_1105_CHINA_v04_SDR_FINAL_20180706_F900F2700_SDR_2K_AVC.mp4	0.0	306.27793979644775	2.5082931518554688
71	197.18198609352112	fix_post	2		12.0	69.0	2.5	/experiments/knapen_aot/videos/S_comp_GMT329_113NC_396B_1105_CHINA_v04_SDR_FINAL_20180706_F900F2700_SDR_2K_AVC.mp4	0.0	308.7862329483032	0.10007190704345703
72	197.28205800056458	fix_pre	0		1.0	70.0	2.5	blank	1.0	308.8863048553467	0.00826406478881836
72	197.2840440273285	response	0	2		70.0	2.5	blank	1.0	308.8882908821106	
72	197.2903220653534	movie	1		301.0	70.0	2.5	blank	1.0	308.8945689201355	2.508347988128662
72	199.79867005348206	fix_post	2		12.0	70.0	2.5	blank	1.0	311.40291690826416	0.10004496574401855
73	199.89871501922607	fix_pre	0		27.0	71.0	2.5	/experiments/knapen_aot/videos/S_BO_A014_C023_SDR_20190717_F240F3709_SDR_2K_AVC.mp4	0.0	311.5029618740082	0.22497892379760742
73	200.11546111106873	response	0	2		71.0	2.5	/experiments/knapen_aot/videos/S_BO_A014_C023_SDR_20190717_F240F3709_SDR_2K_AVC.mp4	0.0	311.71970796585083	
73	200.12369394302368	movie	1		170.0	71.0	2.5	/experiments/knapen_aot/videos/S_BO_A014_C023_SDR_20190717_F240F3709_SDR_2K_AVC.mp4	0.0	311.7279407978058	2.508376121520996
73	202.63207006454468	fix_post	2		12.0	71.0	2.5	/experiments/knapen_aot/videos/S_BO_A014_C023_SDR_20190717_F240F3709_SDR_2K_AVC.mp4	0.0	314.2363169193268	0.09999704360961914
74	202.7320671081543	fix_pre	0		6.0	72.0	2.5	/experiments/knapen_aot/videos/R_S_yt-wE0cEswyaaM_53.mp4	0.0	314.3363139629364	0.05076003074645996
74	202.77386903762817	response	0	2		72.0	2.5	/experiments/knapen_aot/videos/R_S_yt-wE0cEswyaaM_53.mp4	0.0	314.3781158924103	
74	202.78282713890076	movie	1		301.0	72.0	2.5	/experiments/knapen_aot/videos/R_S_yt-wE0cEswyaaM_53.mp4	0.0	314.38707399368286	2.5075550079345703
74	205.29038214683533	fix_post	2		12.0	72.0	2.5	/experiments/knapen_aot/videos/R_S_yt-wE0cEswyaaM_53.mp4	0.0	316.89462900161743	0.09986495971679688
75	205.39024710655212	fix_pre	0		30.0	73.0	2.5	/experiments/knapen_aot/videos/R_S_ILSVRC2015_train_00601000.mp4	0.0	316.99449396133423	0.2500948905944824
75	205.62472414970398	response	0	2		73.0	2.5	/experiments/knapen_aot/videos/R_S_ILSVRC2015_train_00601000.mp4	0.0	317.2289710044861	
75	205.6403419971466	movie	1		301.0	73.0	2.5	/experiments/knapen_aot/videos/R_S_ILSVRC2015_train_00601000.mp4	0.0	317.2445888519287	2.5083091259002686
75	208.14865112304688	fix_post	2		12.0	73.0	2.5	/experiments/knapen_aot/videos/R_S_ILSVRC2015_train_00601000.mp4	0.0	319.752897977829	0.09995293617248535
76	208.24860405921936	fix_pre	0		18.0	74.0	2.5	/experiments/knapen_aot/videos/R_S_wc-DcFDe419cL3d_17.mp4	0.0	319.85285091400146	0.15006399154663086
76	208.39061903953552	response	0	2		74.0	2.5	/experiments/knapen_aot/videos/R_S_wc-DcFDe419cL3d_17.mp4	0.0	319.9948658943176	
76	208.398668050766	movie	1		164.0	74.0	2.5	/experiments/knapen_aot/videos/R_S_wc-DcFDe419cL3d_17.mp4	0.0	320.0029149055481	2.5083138942718506
76	210.90698194503784	fix_post	2		12.0	74.0	2.5	/experiments/knapen_aot/videos/R_S_wc-DcFDe419cL3d_17.mp4	0.0	322.51122879981995	0.09999608993530273
77	211.00697803497314	fix_pre	0		19.0	75.0	2.5	/experiments/knapen_aot/videos/R_S_comp_DB_D001_C001_PSNK_v06_SDR_PS_20180824_SDR_2K_AVC.mp4	0.0	322.61122488975525	0.15832996368408203
77	211.1571490764618	response	0	2		75.0	2.5	/experiments/knapen_aot/videos/R_S_comp_DB_D001_C001_PSNK_v06_SDR_PS_20180824_SDR_2K_AVC.mp4	0.0	322.7613959312439	
77	211.16530799865723	movie	1		175.0	75.0	2.5	/experiments/knapen_aot/videos/R_S_comp_DB_D001_C001_PSNK_v06_SDR_PS_20180824_SDR_2K_AVC.mp4	0.0	322.76955485343933	2.508378028869629
77	213.64885807037354	response	1	2		75.0	2.5	/experiments/knapen_aot/videos/R_S_comp_DB_D001_C001_PSNK_v06_SDR_PS_20180824_SDR_2K_AVC.mp4	0.0	325.25310492515564	
77	213.67368602752686	fix_post	2		12.0	75.0	2.5	/experiments/knapen_aot/videos/R_S_comp_DB_D001_C001_PSNK_v06_SDR_PS_20180824_SDR_2K_AVC.mp4	0.0	325.27793288230896	0.10001301765441895
78	213.77369904518127	fix_pre	0		42.0	76.0	2.5	blank	1.0	325.3779458999634	0.34998607635498047
78	214.10790300369263	response	0	2		76.0	2.5	blank	1.0	325.71214985847473	
78	214.12368512153625	movie	1		301.0	76.0	2.5	blank	1.0	325.72793197631836	2.5082998275756836
78	216.63198494911194	fix_post	2		12.0	76.0	2.5	blank	1.0	328.23623180389404	0.10003209114074707
79	216.73201704025269	fix_pre	0		11.0	77.0	2.5	/experiments/knapen_aot/videos/R_S_yt-8vm83GUgYxI_1.mp4	0.0	328.3362638950348	0.09245896339416504
79	216.80800914764404	response	0	2		77.0	2.5	/experiments/knapen_aot/videos/R_S_yt-8vm83GUgYxI_1.mp4	0.0	328.41225600242615	
79	216.82447600364685	movie	1		301.0	77.0	2.5	/experiments/knapen_aot/videos/R_S_yt-8vm83GUgYxI_1.mp4	0.0	328.42872285842896	2.5074479579925537
79	219.3319239616394	fix_post	2		12.0	77.0	2.5	/experiments/knapen_aot/videos/R_S_yt-8vm83GUgYxI_1.mp4	0.0	330.9361708164215	0.1000211238861084
80	219.4319450855255	fix_pre	0		2.0	78.0	2.5	/experiments/knapen_aot/videos/S_pexels-rodnae-productions-5993671.mp4	0.0	331.0361919403076	0.017869949340820312
80	219.440416097641	response	0	2		78.0	2.5	/experiments/knapen_aot/videos/S_pexels-rodnae-productions-5993671.mp4	0.0	331.0446629524231	
80	219.44981503486633	movie	1		167.0	78.0	2.5	/experiments/knapen_aot/videos/S_pexels-rodnae-productions-5993671.mp4	0.0	331.05406188964844	2.5070950984954834
80	221.95691013336182	fix_post	2		11.0	78.0	2.5	/experiments/knapen_aot/videos/S_pexels-rodnae-productions-5993671.mp4	0.0	333.5611569881439	0.0999908447265625
81	222.05690097808838	fix_pre	0		1.0	79.0	2.5	/experiments/knapen_aot/videos/S_yt-MsSEF0krKE4_149.mp4	0.0	333.6611478328705	0.01047515869140625
81	222.05877304077148	response	0	2		79.0	2.5	/experiments/knapen_aot/videos/S_yt-MsSEF0krKE4_149.mp4	0.0	333.6630198955536	
81	222.06737613677979	movie	1		301.0	79.0	2.5	/experiments/knapen_aot/videos/S_yt-MsSEF0krKE4_149.mp4	0.0	333.6716229915619	2.5062079429626465
81	224.57358407974243	fix_post	2		12.0	79.0	2.5	/experiments/knapen_aot/videos/S_yt-MsSEF0krKE4_149.mp4	0.0	336.17783093452454	0.10000205039978027
81	224.5752899646759	response	2	2		79.0	2.5	/experiments/knapen_aot/videos/S_yt-MsSEF0krKE4_149.mp4	0.0	336.179536819458	
82	224.6735861301422	fix_pre	0		67.0	80.0	2.5	/experiments/knapen_aot/videos/R_S_yt-dj0XQUJos38_14.mp4	0.0	336.2778329849243	0.5583229064941406
82	225.22362112998962	response	0	2		80.0	2.5	/experiments/knapen_aot/videos/R_S_yt-dj0XQUJos38_14.mp4	0.0	336.82786798477173	
82	225.23190903663635	movie	1		301.0	80.0	2.5	/experiments/knapen_aot/videos/R_S_yt-dj0XQUJos38_14.mp4	0.0	336.83615589141846	2.5083460807800293
82	227.74025511741638	fix_post	2		12.0	80.0	2.5	/experiments/knapen_aot/videos/R_S_yt-dj0XQUJos38_14.mp4	0.0	339.3445019721985	0.09993386268615723
83	227.84018898010254	fix_pre	0		29.0	81.0	2.5	/experiments/knapen_aot/videos/S_wc-DcFDe419cL3d_17.mp4	0.0	339.44443583488464	0.241685152053833
83	228.0737659931183	response	0	2		81.0	2.5	/experiments/knapen_aot/videos/S_wc-DcFDe419cL3d_17.mp4	0.0	339.6780128479004	
83	228.08187413215637	movie	1		163.0	81.0	2.5	/experiments/knapen_aot/videos/S_wc-DcFDe419cL3d_17.mp4	0.0	339.6861209869385	2.5083749294281006
83	230.59024906158447	fix_post	2		12.0	81.0	2.5	/experiments/knapen_aot/videos/S_wc-DcFDe419cL3d_17.mp4	0.0	342.1944959163666	0.10001587867736816
84	230.69026494026184	fix_pre	0		10.0	82.0	2.5	/experiments/knapen_aot/videos/S_yt-lv6mhnH7_g4_134.mp4	0.0	342.29451179504395	0.08533120155334473
84	230.76559805870056	response	0	2		82.0	2.5	/experiments/knapen_aot/videos/S_yt-lv6mhnH7_g4_134.mp4	0.0	342.36984491348267	
84	230.77559614181519	movie	1		301.0	82.0	2.5	/experiments/knapen_aot/videos/S_yt-lv6mhnH7_g4_134.mp4	0.0	342.3798429965973	2.506265878677368
84	233.28186202049255	fix_post	2		12.0	82.0	2.5	/experiments/knapen_aot/videos/S_yt-lv6mhnH7_g4_134.mp4	0.0	344.88610887527466	0.09999299049377441
85	233.38185501098633	fix_pre	0		19.0	83.0	2.5	blank	1.0	344.98610186576843	0.15836310386657715
85	233.53199410438538	response	0	2		83.0	2.5	blank	1.0	345.1362409591675	
85	233.5402181148529	movie	1		301.0	83.0	2.5	blank	1.0	345.144464969635	2.5083320140838623
85	236.04855012893677	fix_post	2		12.0	83.0	2.5	blank	1.0	347.6527969837189	0.10001492500305176
87	236.14856505393982	stim	0		450.0					347.7528119087219	3.7519190311431885
87	236.27368092536926	response	0	2						347.87792778015137	
87	239.8929579257965	response	0	space						351.4972047805786	
