trial_nr	onset	event_type	phase	response	nr_frames	movie_index	movie_duration	movie_file	blank	onset_abs	duration
0	0.1538550853729248	stim	0		22.0					123.23467516899109	0.18319106101989746
0	0.32902097702026367	response	0	space						123.40984106063843	
1	0.33704614639282227	stim	0		121.0					123.41786623001099	1.0081219673156738
1	1.345168113708496	stim	1		120.0					124.42598819732666	1.0000450611114502
1	2.1119511127471924	response	1	space						125.19277119636536	
2	2.3452131748199463	fix_pre	0		38.0	0.0	2.5	/experiments/knapen_aot/videos/S_yt-j-ifVbxZePQ_70.mp4	0.0	125.42603325843811	0.31655097007751465
2	2.6536190509796143	response	0	space		0.0	2.5	/experiments/knapen_aot/videos/S_yt-j-ifVbxZePQ_70.mp4	0.0	125.73443913459778	
2	2.661764144897461	movie	1		300.0	0.0	2.5	/experiments/knapen_aot/videos/S_yt-j-ifVbxZePQ_70.mp4	0.0	125.74258422851562	2.5083398818969727
2	5.170104026794434	fix_post	2		12.0	0.0	2.5	/experiments/knapen_aot/videos/S_yt-j-ifVbxZePQ_70.mp4	0.0	128.2509241104126	0.10036897659301758
3	5.270473003387451	fix_pre	0		582.0	1.0	2.5	/experiments/knapen_aot/videos/R_S_yt-hmtcRLNoYZc_17.mp4	0.0	128.35129308700562	4.849501132965088
3	10.114887952804565	response	0	2		1.0	2.5	/experiments/knapen_aot/videos/R_S_yt-hmtcRLNoYZc_17.mp4	0.0	133.19570803642273	
3	10.119974136352539	movie	1		297.0	1.0	2.5	/experiments/knapen_aot/videos/R_S_yt-hmtcRLNoYZc_17.mp4	0.0	133.2007942199707	2.5083940029144287
3	12.628368139266968	fix_post	2		12.0	1.0	2.5	/experiments/knapen_aot/videos/R_S_yt-hmtcRLNoYZc_17.mp4	0.0	135.70918822288513	0.10009002685546875
4	12.728458166122437	fix_pre	0		85.0	2.0	2.5	/experiments/knapen_aot/videos/S_yt-TZ107yBhXoA_1.mp4	0.0	135.8092782497406	0.708500862121582
4	13.428471088409424	response	0	2		2.0	2.5	/experiments/knapen_aot/videos/S_yt-TZ107yBhXoA_1.mp4	0.0	136.5092911720276	
4	13.436959028244019	movie	1		298.0	2.0	2.5	/experiments/knapen_aot/videos/S_yt-TZ107yBhXoA_1.mp4	0.0	136.51777911186218	2.5080249309539795
4	15.944983959197998	fix_post	2		12.0	2.0	2.5	/experiments/knapen_aot/videos/S_yt-TZ107yBhXoA_1.mp4	0.0	139.02580404281616	0.10000920295715332
5	16.04499316215515	fix_pre	0		82.0	3.0	2.5	/experiments/knapen_aot/videos/S_yt-M5qZo3CUXYE_27.mp4	0.0	139.12581324577332	0.6836349964141846
5	16.72015404701233	response	0	2		3.0	2.5	/experiments/knapen_aot/videos/S_yt-M5qZo3CUXYE_27.mp4	0.0	139.8009741306305	
5	16.728628158569336	movie	1		301.0	3.0	2.5	/experiments/knapen_aot/videos/S_yt-M5qZo3CUXYE_27.mp4	0.0	139.8094482421875	2.5080947875976562
5	19.236722946166992	fix_post	2		12.0	3.0	2.5	/experiments/knapen_aot/videos/S_yt-M5qZo3CUXYE_27.mp4	0.0	142.31754302978516	0.09997820854187012
6	19.336701154708862	fix_pre	0		76.0	4.0	2.5	/experiments/knapen_aot/videos/R_S_yt-hmtcRLNoYZc_17.mp4	0.0	142.41752123832703	0.6333060264587402
6	19.961860179901123	response	0	2		4.0	2.5	/experiments/knapen_aot/videos/R_S_yt-hmtcRLNoYZc_17.mp4	0.0	143.0426802635193	
6	19.970007181167603	movie	1		301.0	4.0	2.5	/experiments/knapen_aot/videos/R_S_yt-hmtcRLNoYZc_17.mp4	0.0	143.05082726478577	2.5083818435668945
6	22.478389024734497	fix_post	2		12.0	4.0	2.5	/experiments/knapen_aot/videos/R_S_yt-hmtcRLNoYZc_17.mp4	0.0	145.55920910835266	0.10003399848937988
7	22.578423023223877	fix_pre	0		27.0	5.0	2.5	/experiments/knapen_aot/videos/R_S_pexels-kindel-media-8165572.mp4	0.0	145.65924310684204	0.22485709190368652
7	22.795212984085083	response	0	2		5.0	2.5	/experiments/knapen_aot/videos/R_S_pexels-kindel-media-8165572.mp4	0.0	145.87603306770325	
7	22.803280115127563	movie	1		167.0	5.0	2.5	/experiments/knapen_aot/videos/R_S_pexels-kindel-media-8165572.mp4	0.0	145.88410019874573	2.5083179473876953
7	25.31159806251526	fix_post	2		12.0	5.0	2.5	/experiments/knapen_aot/videos/R_S_pexels-kindel-media-8165572.mp4	0.0	148.39241814613342	0.10004997253417969
8	25.41164803504944	fix_pre	0		214.0	6.0	2.5	/experiments/knapen_aot/videos/R_S_yt-aiWUhl8MCto_71.mp4	0.0	148.4924681186676	1.783323049545288
8	27.186787128448486	response	0	2		6.0	2.5	/experiments/knapen_aot/videos/R_S_yt-aiWUhl8MCto_71.mp4	0.0	150.26760721206665	
8	27.194971084594727	movie	1		301.0	6.0	2.5	/experiments/knapen_aot/videos/R_S_yt-aiWUhl8MCto_71.mp4	0.0	150.2757911682129	2.5083088874816895
8	29.703279972076416	fix_post	2		12.0	6.0	2.5	/experiments/knapen_aot/videos/R_S_yt-aiWUhl8MCto_71.mp4	0.0	152.78410005569458	0.09995102882385254
9	29.80323100090027	fix_pre	0		79.0	7.0	2.5	blank	1.0	152.88405108451843	0.6584219932556152
9	30.445866107940674	response	0	4		7.0	2.5	blank	1.0	153.52668619155884	
9	30.461652994155884	movie	1		301.0	7.0	2.5	blank	1.0	153.54247307777405	2.5082521438598633
9	32.96990513801575	fix_post	2		12.0	7.0	2.5	blank	1.0	156.0507252216339	0.10004591941833496
10	33.06995105743408	fix_pre	0		139.0	8.0	2.5	/experiments/knapen_aot/videos/S_yt-3TF_RGo9cLs_541.mp4	0.0	156.15077114105225	1.1584899425506592
10	34.21999716758728	response	0	4		8.0	2.5	/experiments/knapen_aot/videos/S_yt-3TF_RGo9cLs_541.mp4	0.0	157.30081725120544	
10	34.22844099998474	movie	1		300.0	8.0	2.5	/experiments/knapen_aot/videos/S_yt-3TF_RGo9cLs_541.mp4	0.0	157.3092610836029	2.5081660747528076
10	36.73660707473755	fix_post	2		12.0	8.0	2.5	/experiments/knapen_aot/videos/S_yt-3TF_RGo9cLs_541.mp4	0.0	159.8174271583557	0.09999203681945801
11	36.83659911155701	fix_pre	0		39.0	9.0	2.5	/experiments/knapen_aot/videos/S_yt-iKe-0YNR5Eo_164.mp4	0.0	159.91741919517517	0.32497191429138184
11	37.15347194671631	response	0	4		9.0	2.5	/experiments/knapen_aot/videos/S_yt-iKe-0YNR5Eo_164.mp4	0.0	160.23429203033447	
11	37.16157102584839	movie	1		301.0	9.0	2.5	/experiments/knapen_aot/videos/S_yt-iKe-0YNR5Eo_164.mp4	0.0	160.24239110946655	2.5083401203155518
11	39.66991114616394	fix_post	2		12.0	9.0	2.5	/experiments/knapen_aot/videos/S_yt-iKe-0YNR5Eo_164.mp4	0.0	162.7507312297821	0.10016489028930664
12	39.77007603645325	fix_pre	0		77.0	10.0	2.5	/experiments/knapen_aot/videos/R_S_yt-Dwgpjoikt84_122.mp4	0.0	162.8508961200714	0.6414859294891357
12	40.40339803695679	response	0	4		10.0	2.5	/experiments/knapen_aot/videos/R_S_yt-Dwgpjoikt84_122.mp4	0.0	163.48421812057495	
12	40.41156196594238	movie	1		301.0	10.0	2.5	/experiments/knapen_aot/videos/R_S_yt-Dwgpjoikt84_122.mp4	0.0	163.49238204956055	2.508380174636841
12	42.919942140579224	fix_post	2		12.0	10.0	2.5	/experiments/knapen_aot/videos/R_S_yt-Dwgpjoikt84_122.mp4	0.0	166.0007622241974	0.10028386116027832
13	43.0202260017395	fix_pre	0		23.0	11.0	2.5	/experiments/knapen_aot/videos/R_S_pexels-cottonbro-10639398.mp4	0.0	166.10104608535767	0.19139504432678223
13	43.20340394973755	response	0	4		11.0	2.5	/experiments/knapen_aot/videos/R_S_pexels-cottonbro-10639398.mp4	0.0	166.2842240333557	
13	43.211621046066284	movie	1		193.0	11.0	2.5	/experiments/knapen_aot/videos/R_S_pexels-cottonbro-10639398.mp4	0.0	166.29244112968445	2.5083019733428955
13	45.71992301940918	fix_post	2		12.0	11.0	2.5	/experiments/knapen_aot/videos/R_S_pexels-cottonbro-10639398.mp4	0.0	168.80074310302734	0.09992814064025879
14	45.81985116004944	fix_pre	0		56.0	12.0	2.5	/experiments/knapen_aot/videos/S_yt-wrxk7fFkxHg_177.mp4	0.0	168.9006712436676	0.4666898250579834
14	46.27081894874573	response	0	4		12.0	2.5	/experiments/knapen_aot/videos/S_yt-wrxk7fFkxHg_177.mp4	0.0	169.3516390323639	
14	46.28654098510742	movie	1		301.0	12.0	2.5	/experiments/knapen_aot/videos/S_yt-wrxk7fFkxHg_177.mp4	0.0	169.3673610687256	2.5083470344543457
14	48.79488801956177	fix_post	2		12.0	12.0	2.5	/experiments/knapen_aot/videos/S_yt-wrxk7fFkxHg_177.mp4	0.0	171.87570810317993	0.10011816024780273
15	48.89500617980957	fix_pre	0		257.0	13.0	2.5	blank	1.0	171.97582626342773	2.141502857208252
15	51.02829098701477	response	0	4		13.0	2.5	blank	1.0	174.10911107063293	
15	51.03650903701782	movie	1		301.0	13.0	2.5	blank	1.0	174.117329120636	2.5083770751953125
15	53.544886112213135	fix_post	2		12.0	13.0	2.5	blank	1.0	176.6257061958313	0.10005402565002441
16	53.64494013786316	fix_pre	0		24.0	14.0	2.5	/experiments/knapen_aot/videos/R_S_m-aeoYPMqfg_185.mp4	0.0	176.72576022148132	0.19988799095153809
16	53.836694955825806	response	0	4		14.0	2.5	/experiments/knapen_aot/videos/R_S_m-aeoYPMqfg_185.mp4	0.0	176.91751503944397	
16	53.8448281288147	movie	1		301.0	14.0	2.5	/experiments/knapen_aot/videos/R_S_m-aeoYPMqfg_185.mp4	0.0	176.92564821243286	2.5084869861602783
16	56.353315114974976	fix_post	2		12.0	14.0	2.5	/experiments/knapen_aot/videos/R_S_m-aeoYPMqfg_185.mp4	0.0	179.43413519859314	0.09989285469055176
17	56.45320796966553	fix_pre	0		24.0	15.0	2.5	/experiments/knapen_aot/videos/R_S_JApTAOdfunE_1251.mp4	0.0	179.5340280532837	0.19998717308044434
17	56.645228147506714	response	0	4		15.0	2.5	/experiments/knapen_aot/videos/R_S_JApTAOdfunE_1251.mp4	0.0	179.72604823112488	
17	56.65319514274597	movie	1		301.0	15.0	2.5	/experiments/knapen_aot/videos/R_S_JApTAOdfunE_1251.mp4	0.0	179.73401522636414	2.5083258152008057
17	59.16152095794678	fix_post	2		12.0	15.0	2.5	/experiments/knapen_aot/videos/R_S_JApTAOdfunE_1251.mp4	0.0	182.24234104156494	0.10002517700195312
18	59.26154613494873	fix_pre	0		28.0	16.0	2.5	/experiments/knapen_aot/videos/R_S_JApTAOdfunE_1251.mp4	0.0	182.3423662185669	0.2332780361175537
18	59.48664212226868	response	0	4		16.0	2.5	/experiments/knapen_aot/videos/R_S_JApTAOdfunE_1251.mp4	0.0	182.56746220588684	
18	59.494824171066284	movie	1		301.0	16.0	2.5	/experiments/knapen_aot/videos/R_S_JApTAOdfunE_1251.mp4	0.0	182.57564425468445	2.5083539485931396
18	62.003178119659424	fix_post	2		12.0	16.0	2.5	/experiments/knapen_aot/videos/R_S_JApTAOdfunE_1251.mp4	0.0	185.0839982032776	0.1000669002532959
19	62.10324501991272	fix_pre	0		33.0	17.0	2.5	/experiments/knapen_aot/videos/S_video_inspire_oregon_portland_00064.1080-h264.mp4	0.0	185.18406510353088	0.27492308616638184
19	62.369940996170044	response	0	4		17.0	2.5	/experiments/knapen_aot/videos/S_video_inspire_oregon_portland_00064.1080-h264.mp4	0.0	185.4507610797882	
19	62.3781681060791	movie	1		166.0	17.0	2.5	/experiments/knapen_aot/videos/S_video_inspire_oregon_portland_00064.1080-h264.mp4	0.0	185.45898818969727	2.508471965789795
19	64.8866400718689	fix_post	2		12.0	17.0	2.5	/experiments/knapen_aot/videos/S_video_inspire_oregon_portland_00064.1080-h264.mp4	0.0	187.96746015548706	0.09986305236816406
20	64.98650312423706	fix_pre	0		46.0	18.0	2.5	/experiments/knapen_aot/videos/R_S_yt-nE8YJOhW4e4_171.mp4	0.0	188.06732320785522	0.3832998275756836
20	65.3616030216217	response	0	4		18.0	2.5	/experiments/knapen_aot/videos/R_S_yt-nE8YJOhW4e4_171.mp4	0.0	188.44242310523987	
20	65.36980295181274	movie	1		300.0	18.0	2.5	/experiments/knapen_aot/videos/R_S_yt-nE8YJOhW4e4_171.mp4	0.0	188.4506230354309	2.508216142654419
20	67.87801909446716	fix_post	2		12.0	18.0	2.5	/experiments/knapen_aot/videos/R_S_yt-nE8YJOhW4e4_171.mp4	0.0	190.95883917808533	0.10020804405212402
21	67.97822713851929	fix_pre	0		31.0	19.0	2.5	blank	1.0	191.05904722213745	0.25827884674072266
21	68.22825002670288	response	0	4		19.0	2.5	blank	1.0	191.30907011032104	
21	68.23650598526001	movie	1		301.0	19.0	2.5	blank	1.0	191.31732606887817	2.508303165435791
21	70.7448091506958	fix_post	2		12.0	19.0	2.5	blank	1.0	193.82562923431396	0.09996581077575684
22	70.84477496147156	fix_pre	0		26.0	20.0	2.5	/experiments/knapen_aot/videos/R_S_yt-vacON8rxZaI_168.mp4	0.0	193.92559504508972	0.21668410301208496
22	71.0532341003418	response	0	4		20.0	2.5	/experiments/knapen_aot/videos/R_S_yt-vacON8rxZaI_168.mp4	0.0	194.13405418395996	
22	71.06145906448364	movie	1		300.0	20.0	2.5	/experiments/knapen_aot/videos/R_S_yt-vacON8rxZaI_168.mp4	0.0	194.1422791481018	2.5083069801330566
22	73.5697660446167	fix_post	2		12.0	20.0	2.5	/experiments/knapen_aot/videos/R_S_yt-vacON8rxZaI_168.mp4	0.0	196.65058612823486	0.10000896453857422
23	73.66977500915527	fix_pre	0		51.0	21.0	2.5	/experiments/knapen_aot/videos/R_S_ILSVRC2015_train_00219003.mp4	0.0	196.75059509277344	0.42496800422668457
23	74.08649015426636	response	0	4		21.0	2.5	/experiments/knapen_aot/videos/R_S_ILSVRC2015_train_00219003.mp4	0.0	197.16731023788452	
23	74.09474301338196	movie	1		301.0	21.0	2.5	/experiments/knapen_aot/videos/R_S_ILSVRC2015_train_00219003.mp4	0.0	197.17556309700012	2.5083789825439453
23	76.6031219959259	fix_post	2		12.0	21.0	2.5	/experiments/knapen_aot/videos/R_S_ILSVRC2015_train_00219003.mp4	0.0	199.68394207954407	0.10011601448059082
24	76.7032380104065	fix_pre	0		48.0	22.0	2.5	/experiments/knapen_aot/videos/S_comp_CH_C007_C004_PSNK_v02_SDR_PS_FINAL_20180709_SDR_2K_AVC.mp4	0.0	199.78405809402466	0.399852991104126
24	77.09490513801575	response	0	4		22.0	2.5	/experiments/knapen_aot/videos/S_comp_CH_C007_C004_PSNK_v02_SDR_PS_FINAL_20180709_SDR_2K_AVC.mp4	0.0	200.1757252216339	
24	77.10309100151062	movie	1		167.0	22.0	2.5	/experiments/knapen_aot/videos/S_comp_CH_C007_C004_PSNK_v02_SDR_PS_FINAL_20180709_SDR_2K_AVC.mp4	0.0	200.18391108512878	2.5083401203155518
24	79.61143112182617	fix_post	2		12.0	22.0	2.5	/experiments/knapen_aot/videos/S_comp_CH_C007_C004_PSNK_v02_SDR_PS_FINAL_20180709_SDR_2K_AVC.mp4	0.0	202.69225120544434	0.09998703002929688
25	79.71141815185547	fix_pre	0		459.0	23.0	2.5	/experiments/knapen_aot/videos/S_yt-Gam0NeyyG8w_22.mp4	0.0	202.79223823547363	3.8249800205230713
25	83.52070713043213	response	0	4		23.0	2.5	/experiments/knapen_aot/videos/S_yt-Gam0NeyyG8w_22.mp4	0.0	206.6015272140503	
25	83.53639817237854	movie	1		301.0	23.0	2.5	/experiments/knapen_aot/videos/S_yt-Gam0NeyyG8w_22.mp4	0.0	206.6172182559967	2.5083718299865723
25	86.04477000236511	fix_post	2		12.0	23.0	2.5	/experiments/knapen_aot/videos/S_yt-Gam0NeyyG8w_22.mp4	0.0	209.12559008598328	0.09999799728393555
26	86.14476799964905	fix_pre	0		50.0	24.0	2.5	/experiments/knapen_aot/videos/R_S_yt-O_6CyqHeJig_132.mp4	0.0	209.2255880832672	0.41662096977233887
26	86.55324101448059	response	0	4		24.0	2.5	/experiments/knapen_aot/videos/R_S_yt-O_6CyqHeJig_132.mp4	0.0	209.63406109809875	
26	86.56138896942139	movie	1		301.0	24.0	2.5	/experiments/knapen_aot/videos/R_S_yt-O_6CyqHeJig_132.mp4	0.0	209.64220905303955	2.5083370208740234
26	89.06972599029541	fix_post	2		12.0	24.0	2.5	/experiments/knapen_aot/videos/R_S_yt-O_6CyqHeJig_132.mp4	0.0	212.15054607391357	0.0999760627746582
27	89.16970205307007	fix_pre	0		95.0	25.0	2.5	/experiments/knapen_aot/videos/S_video-7.mp4	0.0	212.25052213668823	0.7917490005493164
27	89.95319604873657	response	0	4		25.0	2.5	/experiments/knapen_aot/videos/S_video-7.mp4	0.0	213.03401613235474	
27	89.96145105361938	movie	1		163.0	25.0	2.5	/experiments/knapen_aot/videos/S_video-7.mp4	0.0	213.04227113723755	2.5082309246063232
27	92.46968197822571	fix_post	2		12.0	25.0	2.5	/experiments/knapen_aot/videos/S_video-7.mp4	0.0	215.55050206184387	0.1000220775604248
28	92.56970405578613	fix_pre	0		30.0	26.0	2.5	/experiments/knapen_aot/videos/S_ILSVRC2015_train_00074011.mp4	0.0	215.6505241394043	0.2499370574951172
28	92.81152510643005	response	0	4		26.0	2.5	/experiments/knapen_aot/videos/S_ILSVRC2015_train_00074011.mp4	0.0	215.89234519004822	
28	92.81964111328125	movie	1		301.0	26.0	2.5	/experiments/knapen_aot/videos/S_ILSVRC2015_train_00074011.mp4	0.0	215.9004611968994	2.5083539485931396
28	95.32799506187439	fix_post	2		12.0	26.0	2.5	/experiments/knapen_aot/videos/S_ILSVRC2015_train_00074011.mp4	0.0	218.40881514549255	0.10001802444458008
29	95.42801308631897	fix_pre	0		13.0	27.0	2.5	/experiments/knapen_aot/videos/S_yt-3roniRu6w58_10.mp4	0.0	218.50883316993713	0.10831689834594727
29	95.52814602851868	response	0	4		27.0	2.5	/experiments/knapen_aot/videos/S_yt-3roniRu6w58_10.mp4	0.0	218.60896611213684	
29	95.53632998466492	movie	1		300.0	27.0	2.5	/experiments/knapen_aot/videos/S_yt-3roniRu6w58_10.mp4	0.0	218.61715006828308	2.5083200931549072
29	98.04465007781982	fix_post	2		12.0	27.0	2.5	/experiments/knapen_aot/videos/S_yt-3roniRu6w58_10.mp4	0.0	221.125470161438	0.10005903244018555
30	98.14470911026001	fix_pre	0		58.0	28.0	2.5	blank	1.0	221.22552919387817	0.4831528663635254
30	98.61982607841492	response	0	4		28.0	2.5	blank	1.0	221.70064616203308	
30	98.62786197662354	movie	1		301.0	28.0	2.5	blank	1.0	221.7086820602417	2.508334159851074
30	101.13619613647461	fix_post	2		12.0	28.0	2.5	blank	1.0	224.21701622009277	0.10013198852539062
31	101.236328125	fix_pre	0		21.0	29.0	2.5	/experiments/knapen_aot/videos/S_yt-vacON8rxZaI_168.mp4	0.0	224.31714820861816	0.17489194869995117
31	101.40298914909363	response	0	4		29.0	2.5	/experiments/knapen_aot/videos/S_yt-vacON8rxZaI_168.mp4	0.0	224.4838092327118	
31	101.41122007369995	movie	1		301.0	29.0	2.5	/experiments/knapen_aot/videos/S_yt-vacON8rxZaI_168.mp4	0.0	224.49204015731812	2.50838303565979
31	103.91960310935974	fix_post	2		12.0	29.0	2.5	/experiments/knapen_aot/videos/S_yt-vacON8rxZaI_168.mp4	0.0	227.0004231929779	0.10000991821289062
32	104.01961302757263	fix_pre	0		14.0	30.0	2.5	/experiments/knapen_aot/videos/S_yt-PreGL81PEP4_61.mp4	0.0	227.1004331111908	0.11668014526367188
32	104.12807416915894	response	0	4		30.0	2.5	/experiments/knapen_aot/videos/S_yt-PreGL81PEP4_61.mp4	0.0	227.2088942527771	
32	104.1362931728363	movie	1		301.0	30.0	2.5	/experiments/knapen_aot/videos/S_yt-PreGL81PEP4_61.mp4	0.0	227.21711325645447	2.5082738399505615
32	106.64456701278687	fix_post	2		12.0	30.0	2.5	/experiments/knapen_aot/videos/S_yt-PreGL81PEP4_61.mp4	0.0	229.72538709640503	0.09996414184570312
33	106.74453115463257	fix_pre	0		76.0	31.0	2.5	/experiments/knapen_aot/videos/R_S_pexels-anastasia-shuraeva-601407_2.mp4	0.0	229.82535123825073	0.6333909034729004
33	107.36971116065979	response	0	4		31.0	2.5	/experiments/knapen_aot/videos/R_S_pexels-anastasia-shuraeva-601407_2.mp4	0.0	230.45053124427795	
33	107.37792205810547	movie	1		197.0	31.0	2.5	/experiments/knapen_aot/videos/R_S_pexels-anastasia-shuraeva-601407_2.mp4	0.0	230.45874214172363	2.508296012878418
33	109.88621807098389	fix_post	2		12.0	31.0	2.5	/experiments/knapen_aot/videos/R_S_pexels-anastasia-shuraeva-601407_2.mp4	0.0	232.96703815460205	0.10003805160522461
34	109.98625612258911	fix_pre	0		329.0	32.0	2.5	/experiments/knapen_aot/videos/R_S_yt-lkpfs_4qAGE_50.mp4	0.0	233.06707620620728	2.7415828704833984
34	112.7121090888977	response	0	4		32.0	2.5	/experiments/knapen_aot/videos/R_S_yt-lkpfs_4qAGE_50.mp4	0.0	235.79292917251587	
34	112.72783899307251	movie	1		301.0	32.0	2.5	/experiments/knapen_aot/videos/R_S_yt-lkpfs_4qAGE_50.mp4	0.0	235.80865907669067	2.5083560943603516
34	115.23619508743286	fix_post	2		12.0	32.0	2.5	/experiments/knapen_aot/videos/R_S_yt-lkpfs_4qAGE_50.mp4	0.0	238.31701517105103	0.10000300407409668
35	115.33619809150696	fix_pre	0		48.0	33.0	2.5	blank	1.0	238.41701817512512	0.3999919891357422
35	115.72800016403198	response	0	4		33.0	2.5	blank	1.0	238.80882024765015	
35	115.7361900806427	movie	1		301.0	33.0	2.5	blank	1.0	238.81701016426086	2.5083370208740234
35	118.24452710151672	fix_post	2		12.0	33.0	2.5	blank	1.0	241.3253471851349	0.09996390342712402
36	118.34449100494385	fix_pre	0		67.0	34.0	2.5	/experiments/knapen_aot/videos/R_S_ILSVRC2015_train_00371006.mp4	0.0	241.425311088562	0.5583901405334473
36	118.8946361541748	response	0	4		34.0	2.5	/experiments/knapen_aot/videos/R_S_ILSVRC2015_train_00371006.mp4	0.0	241.97545623779297	
36	118.9028811454773	movie	1		301.0	34.0	2.5	/experiments/knapen_aot/videos/R_S_ILSVRC2015_train_00371006.mp4	0.0	241.98370122909546	2.5083119869232178
36	121.41119313240051	fix_post	2		12.0	34.0	2.5	/experiments/knapen_aot/videos/R_S_ILSVRC2015_train_00371006.mp4	0.0	244.49201321601868	0.09993696212768555
37	121.5111300945282	fix_pre	0		18.0	35.0	2.5	/experiments/knapen_aot/videos/R_S_yt-a9bnYU0Gnxg_59.mp4	0.0	244.59195017814636	0.15003299713134766
37	121.65303301811218	response	0	4		35.0	2.5	/experiments/knapen_aot/videos/R_S_yt-a9bnYU0Gnxg_59.mp4	0.0	244.73385310173035	
37	121.66116309165955	movie	1		301.0	35.0	2.5	/experiments/knapen_aot/videos/R_S_yt-a9bnYU0Gnxg_59.mp4	0.0	244.7419831752777	2.5083398818969727
37	124.16950297355652	fix_post	2		12.0	35.0	2.5	/experiments/knapen_aot/videos/R_S_yt-a9bnYU0Gnxg_59.mp4	0.0	247.25032305717468	0.1000070571899414
38	124.26951003074646	fix_pre	0		31.0	36.0	2.5	/experiments/knapen_aot/videos/R_S_yt-vacON8rxZaI_168.mp4	0.0	247.35033011436462	0.2583169937133789
38	124.51964211463928	response	0	4		36.0	2.5	/experiments/knapen_aot/videos/R_S_yt-vacON8rxZaI_168.mp4	0.0	247.60046219825745	
38	124.52782702445984	movie	1		300.0	36.0	2.5	/experiments/knapen_aot/videos/R_S_yt-vacON8rxZaI_168.mp4	0.0	247.608647108078	2.50823712348938
38	127.03606414794922	fix_post	2		12.0	36.0	2.5	/experiments/knapen_aot/videos/R_S_yt-vacON8rxZaI_168.mp4	0.0	250.11688423156738	0.1000368595123291
39	127.13610100746155	fix_pre	0		168.0	37.0	2.5	/experiments/knapen_aot/videos/R_S_yt-83nimFMNhrM_131.mp4	0.0	250.2169210910797	1.3999691009521484
39	128.52797198295593	response	0	4		37.0	2.5	/experiments/knapen_aot/videos/R_S_yt-83nimFMNhrM_131.mp4	0.0	251.6087920665741	
39	128.5360701084137	movie	1		301.0	37.0	2.5	/experiments/knapen_aot/videos/R_S_yt-83nimFMNhrM_131.mp4	0.0	251.61689019203186	2.5084340572357178
39	131.0445041656494	fix_post	2		12.0	37.0	2.5	/experiments/knapen_aot/videos/R_S_yt-83nimFMNhrM_131.mp4	0.0	254.12532424926758	0.09996795654296875
40	131.14447212219238	fix_pre	0		39.0	38.0	2.5	/experiments/knapen_aot/videos/R_S_yt-5ws2gxbcjs4_381.mp4	0.0	254.22529220581055	0.3260529041290283
40	131.461275100708	response	0	4		38.0	2.5	/experiments/knapen_aot/videos/R_S_yt-5ws2gxbcjs4_381.mp4	0.0	254.54209518432617	
40	131.4705250263214	movie	1		301.0	38.0	2.5	/experiments/knapen_aot/videos/R_S_yt-5ws2gxbcjs4_381.mp4	0.0	254.55134510993958	2.5072741508483887
40	133.9777991771698	fix_post	2		12.0	38.0	2.5	/experiments/knapen_aot/videos/R_S_yt-5ws2gxbcjs4_381.mp4	0.0	257.05861926078796	0.09998893737792969
41	134.07778811454773	fix_pre	0		61.0	39.0	2.5	/experiments/knapen_aot/videos/S_yt-WhQMF3WM0Ig_29.mp4	0.0	257.1586081981659	0.5082778930664062
41	134.57792806625366	response	0	4		39.0	2.5	/experiments/knapen_aot/videos/S_yt-WhQMF3WM0Ig_29.mp4	0.0	257.6587481498718	
41	134.58606600761414	movie	1		301.0	39.0	2.5	/experiments/knapen_aot/videos/S_yt-WhQMF3WM0Ig_29.mp4	0.0	257.6668860912323	2.5084049701690674
41	137.0944709777832	fix_post	2		12.0	39.0	2.5	/experiments/knapen_aot/videos/S_yt-WhQMF3WM0Ig_29.mp4	0.0	260.17529106140137	0.09999608993530273
42	137.1944670677185	fix_pre	0		48.0	40.0	2.5	/experiments/knapen_aot/videos/S_ILSVRC2015_train_00394000.mp4	0.0	260.27528715133667	0.40105199813842773
42	137.5862729549408	response	0	4		40.0	2.5	/experiments/knapen_aot/videos/S_ILSVRC2015_train_00394000.mp4	0.0	260.66709303855896	
42	137.59551906585693	movie	1		301.0	40.0	2.5	/experiments/knapen_aot/videos/S_ILSVRC2015_train_00394000.mp4	0.0	260.6763391494751	2.5072009563446045
42	140.10272002220154	fix_post	2		12.0	40.0	2.5	/experiments/knapen_aot/videos/S_ILSVRC2015_train_00394000.mp4	0.0	263.1835401058197	0.10001397132873535
43	140.20273399353027	fix_pre	0		54.0	41.0	2.5	blank	1.0	263.28355407714844	0.44997215270996094
43	140.64456605911255	response	0	4		41.0	2.5	blank	1.0	263.7253861427307	
43	140.65270614624023	movie	1		301.0	41.0	2.5	blank	1.0	263.7335262298584	2.5083048343658447
43	143.16101098060608	fix_post	2		12.0	41.0	2.5	blank	1.0	266.24183106422424	0.10010218620300293
44	143.26111316680908	fix_pre	0		38.0	42.0	2.5	/experiments/knapen_aot/videos/S_yt-OTNdgakSIJE_97.mp4	0.0	266.34193325042725	0.31664395332336426
44	143.56950998306274	response	0	4		42.0	2.5	/experiments/knapen_aot/videos/S_yt-OTNdgakSIJE_97.mp4	0.0	266.6503300666809	
44	143.57775712013245	movie	1		301.0	42.0	2.5	/experiments/knapen_aot/videos/S_yt-OTNdgakSIJE_97.mp4	0.0	266.6585772037506	2.50839900970459
44	146.08615612983704	fix_post	2		12.0	42.0	2.5	/experiments/knapen_aot/videos/S_yt-OTNdgakSIJE_97.mp4	0.0	269.1669762134552	0.09989094734191895
45	146.18604707717896	fix_pre	0		42.0	43.0	2.5	/experiments/knapen_aot/videos/R_S_yt-YMI27rk5qUQ_117.mp4	0.0	269.2668671607971	0.3499748706817627
45	146.5278730392456	response	0	4		43.0	2.5	/experiments/knapen_aot/videos/R_S_yt-YMI27rk5qUQ_117.mp4	0.0	269.60869312286377	
45	146.53602194786072	movie	1		301.0	43.0	2.5	/experiments/knapen_aot/videos/R_S_yt-YMI27rk5qUQ_117.mp4	0.0	269.6168420314789	2.508327007293701
45	149.04434895515442	fix_post	2		12.0	43.0	2.5	/experiments/knapen_aot/videos/R_S_yt-YMI27rk5qUQ_117.mp4	0.0	272.1251690387726	0.0999901294708252
46	149.14433908462524	fix_pre	0		47.0	44.0	2.5	/experiments/knapen_aot/videos/S_video_inspire_uk_edinburgh_arthursseat_010.1080-h264.mp4	0.0	272.2251591682434	0.39162397384643555
46	149.52785897254944	response	0	4		44.0	2.5	/experiments/knapen_aot/videos/S_video_inspire_uk_edinburgh_arthursseat_010.1080-h264.mp4	0.0	272.6086790561676	
46	149.53596305847168	movie	1		169.0	44.0	2.5	/experiments/knapen_aot/videos/S_video_inspire_uk_edinburgh_arthursseat_010.1080-h264.mp4	0.0	272.61678314208984	2.508445978164673
46	152.04440903663635	fix_post	2		12.0	44.0	2.5	/experiments/knapen_aot/videos/S_video_inspire_uk_edinburgh_arthursseat_010.1080-h264.mp4	0.0	275.1252291202545	0.10002613067626953
47	152.14443516731262	fix_pre	0		11.0	45.0	2.5	/experiments/knapen_aot/videos/R_S_wc-__wCAtivIDG3_93.mp4	0.0	275.2252552509308	0.09161686897277832
47	152.22787809371948	response	0	4		45.0	2.5	/experiments/knapen_aot/videos/R_S_wc-__wCAtivIDG3_93.mp4	0.0	275.30869817733765	
47	152.2360520362854	movie	1		166.0	45.0	2.5	/experiments/knapen_aot/videos/R_S_wc-__wCAtivIDG3_93.mp4	0.0	275.31687211990356	2.5083730220794678
47	154.74442505836487	fix_post	2		12.0	45.0	2.5	/experiments/knapen_aot/videos/R_S_wc-__wCAtivIDG3_93.mp4	0.0	277.82524514198303	0.09998106956481934
48	154.8444061279297	fix_pre	0		4.0	46.0	2.5	/experiments/knapen_aot/videos/R_S_yt-YLcmfyfIokU_64.mp4	0.0	277.92522621154785	0.033360958099365234
48	154.86956906318665	response	0	4		46.0	2.5	/experiments/knapen_aot/videos/R_S_yt-YLcmfyfIokU_64.mp4	0.0	277.9503891468048	
48	154.87776708602905	movie	1		301.0	46.0	2.5	/experiments/knapen_aot/videos/R_S_yt-YLcmfyfIokU_64.mp4	0.0	277.9585871696472	2.5082240104675293
48	157.38599109649658	fix_post	2		12.0	46.0	2.5	/experiments/knapen_aot/videos/R_S_yt-YLcmfyfIokU_64.mp4	0.0	280.46681118011475	0.1000509262084961
49	157.48604202270508	fix_pre	0		216.0	47.0	2.5	/experiments/knapen_aot/videos/R_S_yt-GOgS--rzmKQ_51.mp4	0.0	280.56686210632324	1.799968957901001
49	159.27787613868713	response	0	4		47.0	2.5	/experiments/knapen_aot/videos/R_S_yt-GOgS--rzmKQ_51.mp4	0.0	282.3586962223053	
49	159.28601098060608	movie	1		301.0	47.0	2.5	/experiments/knapen_aot/videos/R_S_yt-GOgS--rzmKQ_51.mp4	0.0	282.36683106422424	2.5083131790161133
49	161.7943241596222	fix_post	2		12.0	47.0	2.5	/experiments/knapen_aot/videos/R_S_yt-GOgS--rzmKQ_51.mp4	0.0	284.87514424324036	0.10002994537353516
50	161.89435410499573	fix_pre	0		17.0	48.0	2.5	blank	1.0	284.9751741886139	0.14165091514587402
50	162.02789402008057	response	0	4		48.0	2.5	blank	1.0	285.10871410369873	
50	162.0360050201416	movie	1		301.0	48.0	2.5	blank	1.0	285.11682510375977	2.508310079574585
50	164.5443150997162	fix_post	2		12.0	48.0	2.5	blank	1.0	287.62513518333435	0.09999799728393555
51	164.64431309700012	fix_pre	0		37.0	49.0	2.5	/experiments/knapen_aot/videos/R_S_yt--DXkjCUzThU_413.mp4	0.0	287.7251331806183	0.30831408500671387
51	164.94443607330322	response	0	4		49.0	2.5	/experiments/knapen_aot/videos/R_S_yt--DXkjCUzThU_413.mp4	0.0	288.0252561569214	
51	164.95262718200684	movie	1		299.0	49.0	2.5	/experiments/knapen_aot/videos/R_S_yt--DXkjCUzThU_413.mp4	0.0	288.033447265625	2.5084049701690674
51	167.4610321521759	fix_post	2		12.0	49.0	2.5	/experiments/knapen_aot/videos/R_S_yt--DXkjCUzThU_413.mp4	0.0	290.54185223579407	0.09996485710144043
52	167.56099700927734	fix_pre	0		36.0	50.0	2.5	/experiments/knapen_aot/videos/S_yt-14tjqjjjAEI_15.mp4	0.0	290.6418170928955	0.2999851703643799
52	167.85287308692932	response	0	4		50.0	2.5	/experiments/knapen_aot/videos/S_yt-14tjqjjjAEI_15.mp4	0.0	290.9336931705475	
52	167.86098217964172	movie	1		301.0	50.0	2.5	/experiments/knapen_aot/videos/S_yt-14tjqjjjAEI_15.mp4	0.0	290.9418022632599	2.50827693939209
52	170.3692591190338	fix_post	2		12.0	50.0	2.5	/experiments/knapen_aot/videos/S_yt-14tjqjjjAEI_15.mp4	0.0	293.450079202652	0.10012102127075195
53	170.46938014030457	fix_pre	0		37.0	51.0	2.5	/experiments/knapen_aot/videos/S_yt-06XMUn9DTKc_35.mp4	0.0	293.55020022392273	0.3082859516143799
53	170.76947617530823	response	0	4		51.0	2.5	/experiments/knapen_aot/videos/S_yt-06XMUn9DTKc_35.mp4	0.0	293.8502962589264	
53	170.77766609191895	movie	1		301.0	51.0	2.5	/experiments/knapen_aot/videos/S_yt-06XMUn9DTKc_35.mp4	0.0	293.8584861755371	2.5083529949188232
53	173.28601908683777	fix_post	2		12.0	51.0	2.5	/experiments/knapen_aot/videos/S_yt-06XMUn9DTKc_35.mp4	0.0	296.36683917045593	0.09995198249816895
54	173.38597106933594	fix_pre	0		33.0	52.0	2.5	/experiments/knapen_aot/videos/R_S_yt-x6tYi0lRGqU_114.mp4	0.0	296.4667911529541	0.274975061416626
54	173.6452100276947	response	0	4		52.0	2.5	/experiments/knapen_aot/videos/R_S_yt-x6tYi0lRGqU_114.mp4	0.0	296.72603011131287	
54	173.66094613075256	movie	1		301.0	52.0	2.5	/experiments/knapen_aot/videos/R_S_yt-x6tYi0lRGqU_114.mp4	0.0	296.7417662143707	2.508280038833618
54	176.16922616958618	fix_post	2		12.0	52.0	2.5	/experiments/knapen_aot/videos/R_S_yt-x6tYi0lRGqU_114.mp4	0.0	299.25004625320435	0.10004687309265137
55	176.26927304267883	fix_pre	0		50.0	53.0	2.5	/experiments/knapen_aot/videos/S_production_ID_5139371.mp4	0.0	299.350093126297	0.41657209396362305
55	176.67772603034973	response	0	4		53.0	2.5	/experiments/knapen_aot/videos/S_production_ID_5139371.mp4	0.0	299.7585461139679	
55	176.68584513664246	movie	1		163.0	53.0	2.5	/experiments/knapen_aot/videos/S_production_ID_5139371.mp4	0.0	299.7666652202606	2.508457899093628
55	179.19430303573608	fix_post	2		12.0	53.0	2.5	/experiments/knapen_aot/videos/S_production_ID_5139371.mp4	0.0	302.27512311935425	0.0999460220336914
56	179.29424905776978	fix_pre	0		28.0	54.0	2.5	blank	1.0	302.37506914138794	0.23326992988586426
56	179.51935505867004	response	0	4		54.0	2.5	blank	1.0	302.6001751422882	
56	179.52751898765564	movie	1		301.0	54.0	2.5	blank	1.0	302.6083390712738	2.508406162261963
56	182.0359251499176	fix_post	2		12.0	54.0	2.5	blank	1.0	305.11674523353577	0.10001683235168457
57	182.1359419822693	fix_pre	0		17.0	55.0	2.5	/experiments/knapen_aot/videos/S_yt-kxWtOXNIsRA_329.mp4	0.0	305.21676206588745	0.14158201217651367
57	182.26935815811157	response	0	4		55.0	2.5	/experiments/knapen_aot/videos/S_yt-kxWtOXNIsRA_329.mp4	0.0	305.35017824172974	
57	182.2775239944458	movie	1		300.0	55.0	2.5	/experiments/knapen_aot/videos/S_yt-kxWtOXNIsRA_329.mp4	0.0	305.35834407806396	2.5084240436553955
57	184.7859480381012	fix_post	2		12.0	55.0	2.5	/experiments/knapen_aot/videos/S_yt-kxWtOXNIsRA_329.mp4	0.0	307.86676812171936	0.10000896453857422
58	184.88595700263977	fix_pre	0		45.0	56.0	2.5	/experiments/knapen_aot/videos/S_ILSVRC2015_train_00165012.mp4	0.0	307.96677708625793	0.37578606605529785
58	185.2526831626892	response	0	4		56.0	2.5	/experiments/knapen_aot/videos/S_ILSVRC2015_train_00165012.mp4	0.0	308.3335032463074	
58	185.26174306869507	movie	1		301.0	56.0	2.5	/experiments/knapen_aot/videos/S_ILSVRC2015_train_00165012.mp4	0.0	308.34256315231323	2.5074260234832764
58	187.76916909217834	fix_post	2		12.0	56.0	2.5	/experiments/knapen_aot/videos/S_ILSVRC2015_train_00165012.mp4	0.0	310.8499891757965	0.1001119613647461
59	187.8692810535431	fix_pre	0		150.0	57.0	2.5	/experiments/knapen_aot/videos/R_S_video-7.mp4	0.0	310.95010113716125	1.2498869895935059
59	189.11088705062866	response	0	4		57.0	2.5	/experiments/knapen_aot/videos/R_S_video-7.mp4	0.0	312.1917071342468	
59	189.1191680431366	movie	1		166.0	57.0	2.5	/experiments/knapen_aot/videos/R_S_video-7.mp4	0.0	312.19998812675476	2.5083000659942627
59	191.62746810913086	fix_post	2		12.0	57.0	2.5	/experiments/knapen_aot/videos/R_S_video-7.mp4	0.0	314.708288192749	0.10007405281066895
60	191.72754216194153	fix_pre	0		13.0	58.0	2.5	/experiments/knapen_aot/videos/S_yt-NQSCGMpo-p8_118.mp4	0.0	314.8083622455597	0.1083228588104248
60	191.8201961517334	response	0	4		58.0	2.5	/experiments/knapen_aot/videos/S_yt-NQSCGMpo-p8_118.mp4	0.0	314.90101623535156	
60	191.83586502075195	movie	1		301.0	58.0	2.5	/experiments/knapen_aot/videos/S_yt-NQSCGMpo-p8_118.mp4	0.0	314.9166851043701	2.50832200050354
60	194.3441870212555	fix_post	2		12.0	58.0	2.5	/experiments/knapen_aot/videos/S_yt-NQSCGMpo-p8_118.mp4	0.0	317.42500710487366	0.09999895095825195
61	194.44418597221375	fix_pre	0		71.0	59.0	2.5	/experiments/knapen_aot/videos/S_yt-7WYXuBHeorw_188.mp4	0.0	317.5250060558319	0.5916461944580078
61	195.02765607833862	response	0	4		59.0	2.5	/experiments/knapen_aot/videos/S_yt-7WYXuBHeorw_188.mp4	0.0	318.1084761619568	
61	195.03583216667175	movie	1		301.0	59.0	2.5	/experiments/knapen_aot/videos/S_yt-7WYXuBHeorw_188.mp4	0.0	318.1166522502899	2.508241891860962
61	197.54407405853271	fix_post	2		12.0	59.0	2.5	/experiments/knapen_aot/videos/S_yt-7WYXuBHeorw_188.mp4	0.0	320.6248941421509	0.10003805160522461
62	197.64411211013794	fix_pre	0		94.0	60.0	2.5	/experiments/knapen_aot/videos/S_yt-IPiZqn4dG9k_9.mp4	0.0	320.7249321937561	0.7841320037841797
62	198.41933012008667	response	0	4		60.0	2.5	/experiments/knapen_aot/videos/S_yt-IPiZqn4dG9k_9.mp4	0.0	321.50015020370483	
62	198.42824411392212	movie	1		301.0	60.0	2.5	/experiments/knapen_aot/videos/S_yt-IPiZqn4dG9k_9.mp4	0.0	321.5090641975403	2.507539987564087
62	200.9357841014862	fix_post	2		12.0	60.0	2.5	/experiments/knapen_aot/videos/S_yt-IPiZqn4dG9k_9.mp4	0.0	324.01660418510437	0.10006904602050781
63	201.0358531475067	fix_pre	0		55.0	61.0	2.5	blank	1.0	324.1166732311249	0.45830392837524414
63	201.4858911037445	response	0	4		61.0	2.5	blank	1.0	324.56671118736267	
63	201.49415707588196	movie	1		301.0	61.0	2.5	blank	1.0	324.5749771595001	2.508275032043457
63	204.00243210792542	fix_post	2		12.0	61.0	2.5	blank	1.0	327.0832521915436	0.1000368595123291
64	204.10246896743774	fix_pre	0		26.0	62.0	2.5	/experiments/knapen_aot/videos/R_S_yt-mJzkLd3Mr_c_35.mp4	0.0	327.1832890510559	0.21670818328857422
64	204.31096601486206	response	0	4		62.0	2.5	/experiments/knapen_aot/videos/R_S_yt-mJzkLd3Mr_c_35.mp4	0.0	327.3917860984802	
64	204.31917715072632	movie	1		298.0	62.0	2.5	/experiments/knapen_aot/videos/R_S_yt-mJzkLd3Mr_c_35.mp4	0.0	327.3999972343445	2.5083298683166504
64	206.82750701904297	fix_post	2		12.0	62.0	2.5	/experiments/knapen_aot/videos/R_S_yt-mJzkLd3Mr_c_35.mp4	0.0	329.90832710266113	0.09994101524353027
65	206.9274480342865	fix_pre	0		68.0	63.0	2.5	/experiments/knapen_aot/videos/R_S_yt-BLmwmX-mni8_56.mp4	0.0	330.00826811790466	0.5666401386260986
65	207.48596215248108	response	0	4		63.0	2.5	/experiments/knapen_aot/videos/R_S_yt-BLmwmX-mni8_56.mp4	0.0	330.56678223609924	
65	207.4940881729126	movie	1		301.0	63.0	2.5	/experiments/knapen_aot/videos/R_S_yt-BLmwmX-mni8_56.mp4	0.0	330.57490825653076	2.5083858966827393
65	210.00247406959534	fix_post	2		12.0	63.0	2.5	/experiments/knapen_aot/videos/R_S_yt-BLmwmX-mni8_56.mp4	0.0	333.0832941532135	0.09999704360961914
66	210.10247111320496	fix_pre	0		22.0	64.0	2.5	/experiments/knapen_aot/videos/S_yt-x7TqP8l4lCA_39.mp4	0.0	333.1832911968231	0.18333196640014648
66	210.2775959968567	response	0	4		64.0	2.5	/experiments/knapen_aot/videos/S_yt-x7TqP8l4lCA_39.mp4	0.0	333.35841608047485	
66	210.2858030796051	movie	1		301.0	64.0	2.5	/experiments/knapen_aot/videos/S_yt-x7TqP8l4lCA_39.mp4	0.0	333.36662316322327	2.5082759857177734
66	212.79407906532288	fix_post	2		12.0	64.0	2.5	/experiments/knapen_aot/videos/S_yt-x7TqP8l4lCA_39.mp4	0.0	335.87489914894104	0.09995698928833008
67	212.8940360546112	fix_pre	0		350.0	65.0	2.5	/experiments/knapen_aot/videos/R_S_yt-GytLOB9Qjro_76.mp4	0.0	335.97485613822937	2.9167490005493164
67	215.80258917808533	response	0	4		65.0	2.5	/experiments/knapen_aot/videos/R_S_yt-GytLOB9Qjro_76.mp4	0.0	338.8834092617035	
67	215.81078505516052	movie	1		301.0	65.0	2.5	/experiments/knapen_aot/videos/R_S_yt-GytLOB9Qjro_76.mp4	0.0	338.8916051387787	2.5082430839538574
67	218.31902813911438	fix_post	2		12.0	65.0	2.5	/experiments/knapen_aot/videos/R_S_yt-GytLOB9Qjro_76.mp4	0.0	341.39984822273254	0.10004591941833496
68	218.41907405853271	fix_pre	0		22.0	66.0	2.5	/experiments/knapen_aot/videos/S_comp_HK_H004_C008_PSNK_v19_SDR_PS_20180914_SDR_2K_AVC.mp4	0.0	341.4998941421509	0.18326306343078613
68	218.59420013427734	response	0	4		66.0	2.5	/experiments/knapen_aot/videos/S_comp_HK_H004_C008_PSNK_v19_SDR_PS_20180914_SDR_2K_AVC.mp4	0.0	341.6750202178955	
68	218.6023371219635	movie	1		171.0	66.0	2.5	/experiments/knapen_aot/videos/S_comp_HK_H004_C008_PSNK_v19_SDR_PS_20180914_SDR_2K_AVC.mp4	0.0	341.68315720558167	2.5083768367767334
68	221.11071395874023	fix_post	2		12.0	66.0	2.5	/experiments/knapen_aot/videos/S_comp_HK_H004_C008_PSNK_v19_SDR_PS_20180914_SDR_2K_AVC.mp4	0.0	344.1915340423584	0.10001921653747559
69	221.2107331752777	fix_pre	0		78.0	67.0	2.5	/experiments/knapen_aot/videos/R_S_yt-AOP7QYQntPI_28.mp4	0.0	344.2915532588959	0.649925947189331
69	221.84499597549438	response	0	4		67.0	2.5	/experiments/knapen_aot/videos/R_S_yt-AOP7QYQntPI_28.mp4	0.0	344.92581605911255	
69	221.86065912246704	movie	1		301.0	67.0	2.5	/experiments/knapen_aot/videos/R_S_yt-AOP7QYQntPI_28.mp4	0.0	344.9414792060852	2.508349895477295
69	224.36900901794434	fix_post	2		12.0	67.0	2.5	/experiments/knapen_aot/videos/R_S_yt-AOP7QYQntPI_28.mp4	0.0	347.4498291015625	0.09992313385009766
70	224.46893215179443	fix_pre	0		12.0	68.0	2.5	/experiments/knapen_aot/videos/R_S_yt-7Fyu2vr7zbA_31.mp4	0.0	347.5497522354126	0.10007786750793457
70	224.56071615219116	response	0	4		68.0	2.5	/experiments/knapen_aot/videos/R_S_yt-7Fyu2vr7zbA_31.mp4	0.0	347.6415362358093	
70	224.56901001930237	movie	1		301.0	68.0	2.5	/experiments/knapen_aot/videos/R_S_yt-7Fyu2vr7zbA_31.mp4	0.0	347.64983010292053	2.5083889961242676
70	227.07739901542664	fix_post	2		12.0	68.0	2.5	/experiments/knapen_aot/videos/R_S_yt-7Fyu2vr7zbA_31.mp4	0.0	350.1582190990448	0.09992408752441406
71	227.17732310295105	fix_pre	0		185.0	69.0	2.5	blank	1.0	350.2581431865692	1.5422699451446533
71	228.71080613136292	response	0	4		69.0	2.5	blank	1.0	351.7916262149811	
71	228.7195930480957	movie	1		301.0	69.0	2.5	blank	1.0	351.80041313171387	2.507678985595703
71	231.2272720336914	fix_post	2		12.0	69.0	2.5	blank	1.0	354.30809211730957	0.10005712509155273
72	231.32732915878296	fix_pre	0		97.0	70.0	2.5	/experiments/knapen_aot/videos/S_ILSVRC2015_train_00485001.mp4	0.0	354.4081492424011	0.8089249134063721
72	232.12749314308167	response	0	4		70.0	2.5	/experiments/knapen_aot/videos/S_ILSVRC2015_train_00485001.mp4	0.0	355.20831322669983	
72	232.13625407218933	movie	1		301.0	70.0	2.5	/experiments/knapen_aot/videos/S_ILSVRC2015_train_00485001.mp4	0.0	355.2170741558075	2.5076799392700195
72	234.64393401145935	fix_post	2		12.0	70.0	2.5	/experiments/knapen_aot/videos/S_ILSVRC2015_train_00485001.mp4	0.0	357.7247540950775	0.09995102882385254
73	234.7438850402832	fix_pre	0		24.0	71.0	2.5	/experiments/knapen_aot/videos/R_S_ILSVRC2015_train_00405001.mp4	0.0	357.82470512390137	0.20000505447387695
73	234.93582010269165	response	0	4		71.0	2.5	/experiments/knapen_aot/videos/R_S_ILSVRC2015_train_00405001.mp4	0.0	358.0166401863098	
73	234.94389009475708	movie	1		301.0	71.0	2.5	/experiments/knapen_aot/videos/R_S_ILSVRC2015_train_00405001.mp4	0.0	358.02471017837524	2.508327007293701
73	237.45221710205078	fix_post	2		12.0	71.0	2.5	/experiments/knapen_aot/videos/R_S_ILSVRC2015_train_00405001.mp4	0.0	360.53303718566895	0.10063695907592773
74	237.5528540611267	fix_pre	0		215.0	72.0	2.5	/experiments/knapen_aot/videos/S_ILSVRC2015_train_00371006.mp4	0.0	360.6336741447449	1.7915561199188232
74	239.33575415611267	response	0	4		72.0	2.5	/experiments/knapen_aot/videos/S_ILSVRC2015_train_00371006.mp4	0.0	362.41657423973083	
74	239.34441018104553	movie	1		301.0	72.0	2.5	/experiments/knapen_aot/videos/S_ILSVRC2015_train_00371006.mp4	0.0	362.4252302646637	2.5077948570251465
74	241.85220503807068	fix_post	2		12.0	72.0	2.5	/experiments/knapen_aot/videos/S_ILSVRC2015_train_00371006.mp4	0.0	364.93302512168884	0.10002708435058594
75	241.95223212242126	fix_pre	0		36.0	73.0	2.5	/experiments/knapen_aot/videos/S_yt-lkpfs_4qAGE_50.mp4	0.0	365.03305220603943	0.2999739646911621
75	242.24414610862732	response	0	4		73.0	2.5	/experiments/knapen_aot/videos/S_yt-lkpfs_4qAGE_50.mp4	0.0	365.3249661922455	
75	242.25220608711243	movie	1		301.0	73.0	2.5	/experiments/knapen_aot/videos/S_yt-lkpfs_4qAGE_50.mp4	0.0	365.3330261707306	2.508357048034668
75	244.7605631351471	fix_post	2		12.0	73.0	2.5	/experiments/knapen_aot/videos/S_yt-lkpfs_4qAGE_50.mp4	0.0	367.84138321876526	0.10001182556152344
76	244.86057496070862	fix_pre	0		163.0	74.0	2.5	/experiments/knapen_aot/videos/R_S_yt-Dj42sI_Z-kQ_38.mp4	0.0	367.9413950443268	1.3588252067565918
76	246.21070408821106	response	0	4		74.0	2.5	/experiments/knapen_aot/videos/R_S_yt-Dj42sI_Z-kQ_38.mp4	0.0	369.2915241718292	
76	246.2194001674652	movie	1		301.0	74.0	2.5	/experiments/knapen_aot/videos/R_S_yt-Dj42sI_Z-kQ_38.mp4	0.0	369.3002202510834	2.5079028606414795
76	247.79602098464966	response	1	4		74.0	2.5	/experiments/knapen_aot/videos/R_S_yt-Dj42sI_Z-kQ_38.mp4	0.0	370.8768410682678	
76	248.7273030281067	fix_post	2		12.0	74.0	2.5	/experiments/knapen_aot/videos/R_S_yt-Dj42sI_Z-kQ_38.mp4	0.0	371.80812311172485	0.09998011589050293
77	248.8272831439972	fix_pre	0		17.0	75.0	2.5	blank	1.0	371.90810322761536	0.14212298393249512
77	248.9531810283661	response	0	4		75.0	2.5	blank	1.0	372.03400111198425	
77	248.9694061279297	movie	1		301.0	75.0	2.5	blank	1.0	372.05022621154785	2.5078959465026855
77	251.47730207443237	fix_post	2		12.0	75.0	2.5	blank	1.0	374.55812215805054	0.09999608993530273
78	251.57729816436768	fix_pre	0		67.0	76.0	2.5	/experiments/knapen_aot/videos/R_S_Y004_C015_SDR_2K_AVC.mp4	0.0	374.65811824798584	0.5586869716644287
78	252.1274061203003	response	0	4		76.0	2.5	/experiments/knapen_aot/videos/R_S_Y004_C015_SDR_2K_AVC.mp4	0.0	375.20822620391846	
78	252.1359851360321	movie	1		172.0	76.0	2.5	/experiments/knapen_aot/videos/R_S_Y004_C015_SDR_2K_AVC.mp4	0.0	375.21680521965027	2.5079379081726074
78	254.6439230442047	fix_post	2		12.0	76.0	2.5	/experiments/knapen_aot/videos/R_S_Y004_C015_SDR_2K_AVC.mp4	0.0	377.7247431278229	0.10000801086425781
79	254.74393105506897	fix_pre	0		67.0	77.0	2.5	/experiments/knapen_aot/videos/S_JApTAOdfunE_1251.mp4	0.0	377.82475113868713	0.5587630271911621
79	255.29406809806824	response	0	4		77.0	2.5	/experiments/knapen_aot/videos/S_JApTAOdfunE_1251.mp4	0.0	378.3748881816864	
79	255.30269408226013	movie	1		301.0	77.0	2.5	/experiments/knapen_aot/videos/S_JApTAOdfunE_1251.mp4	0.0	378.3835141658783	2.507901906967163
79	257.8105959892273	fix_post	2		12.0	77.0	2.5	/experiments/knapen_aot/videos/S_JApTAOdfunE_1251.mp4	0.0	380.89141607284546	0.09993505477905273
80	257.91053104400635	fix_pre	0		12.0	78.0	2.5	/experiments/knapen_aot/videos/S_yt-83nimFMNhrM_131.mp4	0.0	380.9913511276245	0.10046696662902832
80	258.0023741722107	response	0	4		78.0	2.5	/experiments/knapen_aot/videos/S_yt-83nimFMNhrM_131.mp4	0.0	381.08319425582886	
80	258.0109980106354	movie	1		301.0	78.0	2.5	/experiments/knapen_aot/videos/S_yt-83nimFMNhrM_131.mp4	0.0	381.09181809425354	2.507902145385742
80	260.5189001560211	fix_post	2		12.0	78.0	2.5	/experiments/knapen_aot/videos/S_yt-83nimFMNhrM_131.mp4	0.0	383.5997202396393	0.0999898910522461
81	260.61889004707336	fix_pre	0		76.0	79.0	2.5	/experiments/knapen_aot/videos/S_yt-fryIS5Itzig_124.mp4	0.0	383.6997101306915	0.6333250999450684
81	261.2440071105957	response	0	4		79.0	2.5	/experiments/knapen_aot/videos/S_yt-fryIS5Itzig_124.mp4	0.0	384.32482719421387	
81	261.25221514701843	movie	1		301.0	79.0	2.5	/experiments/knapen_aot/videos/S_yt-fryIS5Itzig_124.mp4	0.0	384.3330352306366	2.508356809616089
81	263.7605719566345	fix_post	2		12.0	79.0	2.5	/experiments/knapen_aot/videos/S_yt-fryIS5Itzig_124.mp4	0.0	386.8413920402527	0.09997415542602539
82	263.86054611206055	fix_pre	0		72.0	80.0	2.5	/experiments/knapen_aot/videos/R_S_yt-zgimmOcW5Mc_127.mp4	0.0	386.9413661956787	0.5999670028686523
82	264.452397108078	response	0	4		80.0	2.5	/experiments/knapen_aot/videos/R_S_yt-zgimmOcW5Mc_127.mp4	0.0	387.53321719169617	
82	264.4605131149292	movie	1		301.0	80.0	2.5	/experiments/knapen_aot/videos/R_S_yt-zgimmOcW5Mc_127.mp4	0.0	387.54133319854736	2.5083298683166504
82	266.96884298324585	fix_post	2		12.0	80.0	2.5	/experiments/knapen_aot/videos/R_S_yt-zgimmOcW5Mc_127.mp4	0.0	390.049663066864	0.09995913505554199
83	267.0688021183014	fix_pre	0		19.0	81.0	2.5	/experiments/knapen_aot/videos/R_S_yt-kQpE9L-fsNE_55.mp4	0.0	390.14962220191956	0.15832996368408203
83	267.2114100456238	response	0	4		81.0	2.5	/experiments/knapen_aot/videos/R_S_yt-kQpE9L-fsNE_55.mp4	0.0	390.29223012924194	
83	267.2271320819855	movie	1		298.0	81.0	2.5	/experiments/knapen_aot/videos/R_S_yt-kQpE9L-fsNE_55.mp4	0.0	390.30795216560364	2.5083699226379395
83	269.7355020046234	fix_post	2		12.0	81.0	2.5	/experiments/knapen_aot/videos/R_S_yt-kQpE9L-fsNE_55.mp4	0.0	392.8163220882416	0.0999300479888916
84	269.8354320526123	fix_pre	0		29.0	82.0	2.5	/experiments/knapen_aot/videos/R_S_yt-fryIS5Itzig_124.mp4	0.0	392.91625213623047	0.2416679859161377
84	270.06896114349365	response	0	4		82.0	2.5	/experiments/knapen_aot/videos/R_S_yt-fryIS5Itzig_124.mp4	0.0	393.1497812271118	
84	270.07710003852844	movie	1		301.0	82.0	2.5	/experiments/knapen_aot/videos/R_S_yt-fryIS5Itzig_124.mp4	0.0	393.1579201221466	2.5083389282226562
84	272.5854389667511	fix_post	2		12.0	82.0	2.5	/experiments/knapen_aot/videos/R_S_yt-fryIS5Itzig_124.mp4	0.0	395.66625905036926	0.10004901885986328
85	272.68548798561096	fix_pre	0		259.0	83.0	2.5	blank	1.0	395.7663080692291	2.158668041229248
85	274.8356111049652	response	0	4		83.0	2.5	blank	1.0	397.9164311885834	
85	274.8441560268402	movie	1		301.0	83.0	2.5	blank	1.0	397.9249761104584	2.507910966873169
85	277.3520669937134	fix_post	2		12.0	83.0	2.5	blank	1.0	400.43288707733154	0.10001516342163086
87	277.452082157135	stim	0		370.0					400.5329022407532	3.08646297454834
87	280.5244650840759	response	0	space						403.6052851676941	
