trial_nr	onset	event_type	phase	response	nr_frames	movie_index	movie_duration	movie_file	blank	onset_abs	duration
0	0.15145587921142578	stim	0		82.0					63.05543804168701	0.6816940307617188
0	0.8253347873687744	response	0	space						63.72931694984436	
1	0.8331499099731445	stim	0		121.0					63.73713207244873	1.0080480575561523
1	1.6663718223571777	response	0	space						64.57035398483276	
1	1.8411979675292969	stim	1		120.0					64.74518013000488	0.9999129772186279
1	2.1745898723602295	response	1	space						65.07857203483582	
2	2.841110944747925	fix_pre	0		13.0	0.0	2.5	/experiments/knapen_aot/videos/S_production_ID_4720614.mp4	0.0	65.74509310722351	0.10861492156982422
2	2.94136381149292	response	0	space		0.0	2.5	/experiments/knapen_aot/videos/S_production_ID_4720614.mp4	0.0	65.8453459739685	
2	2.949725866317749	movie	1		203.0	0.0	2.5	/experiments/knapen_aot/videos/S_production_ID_4720614.mp4	0.0	65.85370802879333	2.5081229209899902
2	5.457848787307739	fix_post	2		12.0	0.0	2.5	/experiments/knapen_aot/videos/S_production_ID_4720614.mp4	0.0	68.36183094978333	0.1000051498413086
3	5.557853937149048	fix_pre	0		8.0	1.0	2.5	/experiments/knapen_aot/videos/R_S_yt-lGQ3wMI5-Yg_140.mp4	0.0	68.46183609962463	0.06666302680969238
3	5.6168248653411865	response	0	2		1.0	2.5	/experiments/knapen_aot/videos/R_S_yt-lGQ3wMI5-Yg_140.mp4	0.0	68.52080702781677	
3	5.62451696395874	movie	1		301.0	1.0	2.5	/experiments/knapen_aot/videos/R_S_yt-lGQ3wMI5-Yg_140.mp4	0.0	68.52849912643433	2.5083019733428955
3	8.132818937301636	fix_post	2		12.0	1.0	2.5	/experiments/knapen_aot/videos/R_S_yt-lGQ3wMI5-Yg_140.mp4	0.0	71.03680109977722	0.10007905960083008
4	8.232897996902466	fix_pre	0		3.0	2.0	2.5	/experiments/knapen_aot/videos/R_S_yt-GjFQxAklviE_25.mp4	0.0	71.13688015937805	0.025005817413330078
4	8.249704837799072	response	0	2		2.0	2.5	/experiments/knapen_aot/videos/R_S_yt-GjFQxAklviE_25.mp4	0.0	71.15368700027466	
4	8.257903814315796	movie	1		301.0	2.0	2.5	/experiments/knapen_aot/videos/R_S_yt-GjFQxAklviE_25.mp4	0.0	71.16188597679138	2.5083470344543457
4	10.766250848770142	fix_post	2		12.0	2.0	2.5	/experiments/knapen_aot/videos/R_S_yt-GjFQxAklviE_25.mp4	0.0	73.67023301124573	0.10014605522155762
5	10.8663969039917	fix_pre	0		12.0	3.0	2.5	/experiments/knapen_aot/videos/R_S_ILSVRC2015_train_00743006.mp4	0.0	73.77037906646729	0.09982109069824219
5	10.958057880401611	response	0	2		3.0	2.5	/experiments/knapen_aot/videos/R_S_ILSVRC2015_train_00743006.mp4	0.0	73.8620400428772	
5	10.966217994689941	movie	1		301.0	3.0	2.5	/experiments/knapen_aot/videos/R_S_ILSVRC2015_train_00743006.mp4	0.0	73.87020015716553	2.508312940597534
5	13.474530935287476	fix_post	2		12.0	3.0	2.5	/experiments/knapen_aot/videos/R_S_ILSVRC2015_train_00743006.mp4	0.0	76.37851309776306	0.10019087791442871
6	13.574721813201904	fix_pre	0		8.0	4.0	2.5	/experiments/knapen_aot/videos/R_S_comp_GMT306_139NC_139J_3066_CALI_TO_VEGAS_v08_SDR_PS_20180824_SDR_2K_AVC.mp4	0.0	76.47870397567749	0.0664980411529541
6	13.632967948913574	response	0	2		4.0	2.5	/experiments/knapen_aot/videos/R_S_comp_GMT306_139NC_139J_3066_CALI_TO_VEGAS_v08_SDR_PS_20180824_SDR_2K_AVC.mp4	0.0	76.53695011138916	
6	13.641219854354858	movie	1		165.0	4.0	2.5	/experiments/knapen_aot/videos/R_S_comp_GMT306_139NC_139J_3066_CALI_TO_VEGAS_v08_SDR_PS_20180824_SDR_2K_AVC.mp4	0.0	76.54520201683044	2.5083940029144287
6	16.149613857269287	fix_post	2		12.0	4.0	2.5	/experiments/knapen_aot/videos/R_S_comp_GMT306_139NC_139J_3066_CALI_TO_VEGAS_v08_SDR_PS_20180824_SDR_2K_AVC.mp4	0.0	79.05359601974487	0.09991192817687988
7	16.249525785446167	fix_pre	0		10.0	5.0	2.5	blank	1.0	79.15350794792175	0.08333802223205566
7	16.324659824371338	response	0	2		5.0	2.5	blank	1.0	79.22864198684692	
7	16.332863807678223	movie	1		301.0	5.0	2.5	blank	1.0	79.23684597015381	2.5082950592041016
7	18.841158866882324	fix_post	2		12.0	5.0	2.5	blank	1.0	81.74514102935791	0.10004091262817383
8	18.941199779510498	fix_pre	0		13.0	6.0	2.5	/experiments/knapen_aot/videos/R_S_yt-gzjV6YoK6X0_3.mp4	0.0	81.84518194198608	0.10830903053283691
8	19.041284799575806	response	0	2		6.0	2.5	/experiments/knapen_aot/videos/R_S_yt-gzjV6YoK6X0_3.mp4	0.0	81.94526696205139	
8	19.049508810043335	movie	1		301.0	6.0	2.5	/experiments/knapen_aot/videos/R_S_yt-gzjV6YoK6X0_3.mp4	0.0	81.95349097251892	2.5082690715789795
8	21.382858991622925	response	1	2		6.0	2.5	/experiments/knapen_aot/videos/R_S_yt-gzjV6YoK6X0_3.mp4	0.0	84.28684115409851	
8	21.557777881622314	fix_post	2		12.0	6.0	2.5	/experiments/knapen_aot/videos/R_S_yt-gzjV6YoK6X0_3.mp4	0.0	84.4617600440979	0.10013103485107422
9	21.65790891647339	fix_pre	0		33.0	7.0	2.5	/experiments/knapen_aot/videos/R_S_S003_C020_SDR_2K_AVC.mp4	0.0	84.56189107894897	0.27486085891723633
9	21.924577951431274	response	0	2		7.0	2.5	/experiments/knapen_aot/videos/R_S_S003_C020_SDR_2K_AVC.mp4	0.0	84.82856011390686	
9	21.932769775390625	movie	1		174.0	7.0	2.5	/experiments/knapen_aot/videos/R_S_S003_C020_SDR_2K_AVC.mp4	0.0	84.83675193786621	2.508388042449951
9	24.357914924621582	response	1	2		7.0	2.5	/experiments/knapen_aot/videos/R_S_S003_C020_SDR_2K_AVC.mp4	0.0	87.26189708709717	
9	24.441157817840576	fix_post	2		12.0	7.0	2.5	/experiments/knapen_aot/videos/R_S_S003_C020_SDR_2K_AVC.mp4	0.0	87.34513998031616	0.10001707077026367
10	24.54117488861084	fix_pre	0		22.0	8.0	2.5	/experiments/knapen_aot/videos/R_S_ILSVRC2015_train_00485001.mp4	0.0	87.44515705108643	0.1832590103149414
10	24.708897829055786	response	0	2		8.0	2.5	/experiments/knapen_aot/videos/R_S_ILSVRC2015_train_00485001.mp4	0.0	87.61287999153137	
10	24.72443389892578	movie	1		301.0	8.0	2.5	/experiments/knapen_aot/videos/R_S_ILSVRC2015_train_00485001.mp4	0.0	87.62841606140137	2.508358955383301
10	27.232792854309082	fix_post	2		12.0	8.0	2.5	/experiments/knapen_aot/videos/R_S_ILSVRC2015_train_00485001.mp4	0.0	90.13677501678467	0.10002994537353516
11	27.332822799682617	fix_pre	0		8.0	9.0	2.5	/experiments/knapen_aot/videos/R_S_3WAnGcPubBY_143.mp4	0.0	90.2368049621582	0.06821608543395996
11	27.39133095741272	response	0	2		9.0	2.5	/experiments/knapen_aot/videos/R_S_3WAnGcPubBY_143.mp4	0.0	90.2953131198883	
11	27.401038885116577	movie	1		301.0	9.0	2.5	/experiments/knapen_aot/videos/R_S_3WAnGcPubBY_143.mp4	0.0	90.30502104759216	2.506793975830078
11	29.907832860946655	fix_post	2		12.0	9.0	2.5	/experiments/knapen_aot/videos/R_S_3WAnGcPubBY_143.mp4	0.0	92.81181502342224	0.10002493858337402
12	30.00785779953003	fix_pre	0		4.0	10.0	2.5	/experiments/knapen_aot/videos/S_yt-j-ifVbxZePQ_70.mp4	0.0	92.91183996200562	0.03324317932128906
12	30.032890796661377	response	0	2		10.0	2.5	/experiments/knapen_aot/videos/S_yt-j-ifVbxZePQ_70.mp4	0.0	92.93687295913696	
12	30.04110097885132	movie	1		301.0	10.0	2.5	/experiments/knapen_aot/videos/S_yt-j-ifVbxZePQ_70.mp4	0.0	92.9450831413269	2.5082759857177734
12	32.54937696456909	fix_post	2		12.0	10.0	2.5	/experiments/knapen_aot/videos/S_yt-j-ifVbxZePQ_70.mp4	0.0	95.45335912704468	0.10003781318664551
13	32.64941477775574	fix_pre	0		9.0	11.0	2.5	/experiments/knapen_aot/videos/S_CR_A009_C007_SDR_20191113_SDR_2K_AVC.mp4	0.0	95.55339694023132	0.0749812126159668
13	32.716187953948975	response	0	2		11.0	2.5	/experiments/knapen_aot/videos/S_CR_A009_C007_SDR_20191113_SDR_2K_AVC.mp4	0.0	95.62017011642456	
13	32.724395990371704	movie	1		162.0	11.0	2.5	/experiments/knapen_aot/videos/S_CR_A009_C007_SDR_20191113_SDR_2K_AVC.mp4	0.0	95.62837815284729	2.508391857147217
13	35.23278784751892	fix_post	2		12.0	11.0	2.5	/experiments/knapen_aot/videos/S_CR_A009_C007_SDR_20191113_SDR_2K_AVC.mp4	0.0	98.1367700099945	0.09998106956481934
14	35.33276891708374	fix_pre	0		23.0	12.0	2.5	/experiments/knapen_aot/videos/R_S_yt-fP2JRJAFGZ4_25.mp4	0.0	98.23675107955933	0.19165897369384766
14	35.5161919593811	response	0	2		12.0	2.5	/experiments/knapen_aot/videos/R_S_yt-fP2JRJAFGZ4_25.mp4	0.0	98.42017412185669	
14	35.52442789077759	movie	1		301.0	12.0	2.5	/experiments/knapen_aot/videos/R_S_yt-fP2JRJAFGZ4_25.mp4	0.0	98.42841005325317	2.508323907852173
14	38.03275179862976	fix_post	2		12.0	12.0	2.5	/experiments/knapen_aot/videos/R_S_yt-fP2JRJAFGZ4_25.mp4	0.0	100.93673396110535	0.10001516342163086
15	38.13276696205139	fix_pre	0		9.0	13.0	2.5	blank	1.0	101.03674912452698	0.07497501373291016
15	38.19969296455383	response	0	2		13.0	2.5	blank	1.0	101.10367512702942	
15	38.2077419757843	movie	1		301.0	13.0	2.5	blank	1.0	101.11172413825989	2.5083248615264893
15	40.71606683731079	fix_post	2		12.0	13.0	2.5	blank	1.0	103.62004899978638	0.09996914863586426
16	40.816035985946655	fix_pre	0		18.0	14.0	2.5	/experiments/knapen_aot/videos/S_yt-RMjo2PPEPEA_112.mp4	0.0	103.72001814842224	0.15000391006469727
16	40.950307846069336	response	0	2		14.0	2.5	/experiments/knapen_aot/videos/S_yt-RMjo2PPEPEA_112.mp4	0.0	103.85429000854492	
16	40.96603989601135	movie	1		301.0	14.0	2.5	/experiments/knapen_aot/videos/S_yt-RMjo2PPEPEA_112.mp4	0.0	103.87002205848694	2.5082859992980957
16	43.47432589530945	fix_post	2		12.0	14.0	2.5	/experiments/knapen_aot/videos/S_yt-RMjo2PPEPEA_112.mp4	0.0	106.37830805778503	0.1000208854675293
17	43.57434678077698	fix_pre	0		30.0	15.0	2.5	/experiments/knapen_aot/videos/R_S_yt-X6ivH9SqGu8_306.mp4	0.0	106.47832894325256	0.2500190734863281
17	43.816149950027466	response	0	2		15.0	2.5	/experiments/knapen_aot/videos/R_S_yt-X6ivH9SqGu8_306.mp4	0.0	106.72013211250305	
17	43.824365854263306	movie	1		301.0	15.0	2.5	/experiments/knapen_aot/videos/R_S_yt-X6ivH9SqGu8_306.mp4	0.0	106.72834801673889	2.5083529949188232
17	46.33271884918213	fix_post	2		12.0	15.0	2.5	/experiments/knapen_aot/videos/R_S_yt-X6ivH9SqGu8_306.mp4	0.0	109.23670101165771	0.09998297691345215
18	46.43270182609558	fix_pre	0		35.0	16.0	2.5	/experiments/knapen_aot/videos/R_S_S006_C007_SDR_2K_AVC.mp4	0.0	109.33668398857117	0.2916109561920166
18	46.71623086929321	response	0	2		16.0	2.5	/experiments/knapen_aot/videos/R_S_S006_C007_SDR_2K_AVC.mp4	0.0	109.6202130317688	
18	46.7243127822876	movie	1		165.0	16.0	2.5	/experiments/knapen_aot/videos/R_S_S006_C007_SDR_2K_AVC.mp4	0.0	109.62829494476318	2.508348226547241
18	49.23266100883484	fix_post	2		12.0	16.0	2.5	/experiments/knapen_aot/videos/R_S_S006_C007_SDR_2K_AVC.mp4	0.0	112.13664317131042	0.10003876686096191
19	49.3326997756958	fix_pre	0		8.0	17.0	2.5	/experiments/knapen_aot/videos/R_S_yt-j-ifVbxZePQ_70.mp4	0.0	112.23668193817139	0.06807518005371094
19	49.391167879104614	response	0	2		17.0	2.5	/experiments/knapen_aot/videos/R_S_yt-j-ifVbxZePQ_70.mp4	0.0	112.2951500415802	
19	49.40077495574951	movie	1		301.0	17.0	2.5	/experiments/knapen_aot/videos/R_S_yt-j-ifVbxZePQ_70.mp4	0.0	112.3047571182251	2.5069029331207275
19	51.90767788887024	fix_post	2		12.0	17.0	2.5	/experiments/knapen_aot/videos/R_S_yt-j-ifVbxZePQ_70.mp4	0.0	114.81166005134583	0.09997105598449707
20	52.007648944854736	fix_pre	0		18.0	18.0	2.5	/experiments/knapen_aot/videos/R_S_Pexels_Videos_2795171.mp4	0.0	114.91163110733032	0.15002989768981934
20	52.14932298660278	response	0	2		18.0	2.5	/experiments/knapen_aot/videos/R_S_Pexels_Videos_2795171.mp4	0.0	115.05330514907837	
20	52.157678842544556	movie	1		165.0	18.0	2.5	/experiments/knapen_aot/videos/R_S_Pexels_Videos_2795171.mp4	0.0	115.06166100502014	2.5083370208740234
20	54.66601586341858	fix_post	2		12.0	18.0	2.5	/experiments/knapen_aot/videos/R_S_Pexels_Videos_2795171.mp4	0.0	117.56999802589417	0.09998202323913574
21	54.765997886657715	fix_pre	0		11.0	19.0	2.5	/experiments/knapen_aot/videos/R_S_SE_A016_C009_SDR_20190717_SDR_2K_AVC.mp4	0.0	117.6699800491333	0.09169602394104004
21	54.849480867385864	response	0	2		19.0	2.5	/experiments/knapen_aot/videos/R_S_SE_A016_C009_SDR_20190717_SDR_2K_AVC.mp4	0.0	117.75346302986145	
21	54.857693910598755	movie	1		170.0	19.0	2.5	/experiments/knapen_aot/videos/R_S_SE_A016_C009_SDR_20190717_SDR_2K_AVC.mp4	0.0	117.76167607307434	2.5082778930664062
21	57.36597180366516	fix_post	2		12.0	19.0	2.5	/experiments/knapen_aot/videos/R_S_SE_A016_C009_SDR_20190717_SDR_2K_AVC.mp4	0.0	120.26995396614075	0.09998011589050293
22	57.465951919555664	fix_pre	0		13.0	20.0	2.5	/experiments/knapen_aot/videos/S_comp_A001_C004_1207W5_v23_SDR_FINAL_20180706_SDR_2K_AVC.mp4	0.0	120.36993408203125	0.10831189155578613
22	57.56608200073242	response	0	2		20.0	2.5	/experiments/knapen_aot/videos/S_comp_A001_C004_1207W5_v23_SDR_FINAL_20180706_SDR_2K_AVC.mp4	0.0	120.47006416320801	
22	57.57426381111145	movie	1		165.0	20.0	2.5	/experiments/knapen_aot/videos/S_comp_A001_C004_1207W5_v23_SDR_FINAL_20180706_SDR_2K_AVC.mp4	0.0	120.47824597358704	2.5084571838378906
22	60.08272099494934	fix_post	2		12.0	20.0	2.5	/experiments/knapen_aot/videos/S_comp_A001_C004_1207W5_v23_SDR_FINAL_20180706_SDR_2K_AVC.mp4	0.0	122.98670315742493	0.09997296333312988
23	60.18269395828247	fix_pre	0		6.0	21.0	2.5	blank	1.0	123.08667612075806	0.049983978271484375
23	60.22446799278259	response	0	2		21.0	2.5	blank	1.0	123.12845015525818	
23	60.232677936553955	movie	1		301.0	21.0	2.5	blank	1.0	123.13666009902954	2.508291006088257
23	62.74096894264221	fix_post	2		12.0	21.0	2.5	blank	1.0	125.6449511051178	0.10005497932434082
24	62.84102392196655	fix_pre	0		24.0	22.0	2.5	/experiments/knapen_aot/videos/S_ILSVRC2015_train_00067003.mp4	0.0	125.74500608444214	0.19998598098754883
24	63.03279399871826	response	0	2		22.0	2.5	/experiments/knapen_aot/videos/S_ILSVRC2015_train_00067003.mp4	0.0	125.93677616119385	
24	63.0410099029541	movie	1		301.0	22.0	2.5	/experiments/knapen_aot/videos/S_ILSVRC2015_train_00067003.mp4	0.0	125.94499206542969	2.5083088874816895
24	65.54931879043579	fix_post	2		12.0	22.0	2.5	/experiments/knapen_aot/videos/S_ILSVRC2015_train_00067003.mp4	0.0	128.45330095291138	0.09999203681945801
25	65.64931082725525	fix_pre	0		13.0	23.0	2.5	/experiments/knapen_aot/videos/R_S_pexels-mart-production-7698911_1.mp4	0.0	128.55329298973083	0.10834598541259766
25	65.7495129108429	response	0	2		23.0	2.5	/experiments/knapen_aot/videos/R_S_pexels-mart-production-7698911_1.mp4	0.0	128.65349507331848	
25	65.75765681266785	movie	1		166.0	23.0	2.5	/experiments/knapen_aot/videos/R_S_pexels-mart-production-7698911_1.mp4	0.0	128.66163897514343	2.5083181858062744
25	68.26597499847412	fix_post	2		12.0	23.0	2.5	/experiments/knapen_aot/videos/R_S_pexels-mart-production-7698911_1.mp4	0.0	131.1699571609497	0.09999799728393555
26	68.36597299575806	fix_pre	0		17.0	24.0	2.5	/experiments/knapen_aot/videos/R_S_yt-GBt59U0KUR0_6.mp4	0.0	131.26995515823364	0.1416769027709961
26	68.49192690849304	response	0	2		24.0	2.5	/experiments/knapen_aot/videos/R_S_yt-GBt59U0KUR0_6.mp4	0.0	131.39590907096863	
26	68.50764989852905	movie	1		300.0	24.0	2.5	/experiments/knapen_aot/videos/R_S_yt-GBt59U0KUR0_6.mp4	0.0	131.41163206100464	2.508500099182129
26	71.01614999771118	fix_post	2		12.0	24.0	2.5	/experiments/knapen_aot/videos/R_S_yt-GBt59U0KUR0_6.mp4	0.0	133.92013216018677	0.09981894493103027
27	71.11596894264221	fix_pre	0		18.0	25.0	2.5	/experiments/knapen_aot/videos/S_S006_C007_SDR_2K_AVC.mp4	0.0	134.0199511051178	0.14999794960021973
27	71.25773000717163	response	0	2		25.0	2.5	/experiments/knapen_aot/videos/S_S006_C007_SDR_2K_AVC.mp4	0.0	134.16171216964722	
27	71.26596689224243	movie	1		165.0	25.0	2.5	/experiments/knapen_aot/videos/S_S006_C007_SDR_2K_AVC.mp4	0.0	134.16994905471802	2.5082530975341797
27	73.77421998977661	fix_post	2		12.0	25.0	2.5	/experiments/knapen_aot/videos/S_S006_C007_SDR_2K_AVC.mp4	0.0	136.6782021522522	0.10002779960632324
28	73.87424778938293	fix_pre	0		26.0	26.0	2.5	blank	1.0	136.77822995185852	0.21664905548095703
28	74.0827260017395	response	0	2		26.0	2.5	blank	1.0	136.9867081642151	
28	74.09089684486389	movie	1		301.0	26.0	2.5	blank	1.0	136.99487900733948	2.5083301067352295
28	76.59922695159912	fix_post	2		12.0	26.0	2.5	blank	1.0	139.5032091140747	0.10003900527954102
29	76.69926595687866	fix_pre	0		48.0	27.0	2.5	/experiments/knapen_aot/videos/R_S_yt--Ra34zJ69AU_68.mp4	0.0	139.60324811935425	0.3999600410461426
29	77.09088087081909	response	0	2		27.0	2.5	/experiments/knapen_aot/videos/R_S_yt--Ra34zJ69AU_68.mp4	0.0	139.99486303329468	
29	77.0992259979248	movie	1		301.0	27.0	2.5	/experiments/knapen_aot/videos/R_S_yt--Ra34zJ69AU_68.mp4	0.0	140.0032081604004	2.5083258152008057
29	79.60755181312561	fix_post	2		12.0	27.0	2.5	/experiments/knapen_aot/videos/R_S_yt--Ra34zJ69AU_68.mp4	0.0	142.5115339756012	0.10003018379211426
30	79.70758199691772	fix_pre	0		29.0	28.0	2.5	/experiments/knapen_aot/videos/S_yt-HFiRYTnMZxE_338.mp4	0.0	142.6115641593933	0.24168992042541504
30	79.94109177589417	response	0	2		28.0	2.5	/experiments/knapen_aot/videos/S_yt-HFiRYTnMZxE_338.mp4	0.0	142.84507393836975	
30	79.94927191734314	movie	1		301.0	28.0	2.5	/experiments/knapen_aot/videos/S_yt-HFiRYTnMZxE_338.mp4	0.0	142.85325407981873	2.508275032043457
30	82.4575469493866	fix_post	2		12.0	28.0	2.5	/experiments/knapen_aot/videos/S_yt-HFiRYTnMZxE_338.mp4	0.0	145.36152911186218	0.10003900527954102
31	82.55758595466614	fix_pre	0		48.0	29.0	2.5	/experiments/knapen_aot/videos/R_S_wc-WgOBK5IL7vex_4.mp4	0.0	145.46156811714172	0.3999669551849365
31	82.94926881790161	response	0	2		29.0	2.5	/experiments/knapen_aot/videos/R_S_wc-WgOBK5IL7vex_4.mp4	0.0	145.8532509803772	
31	82.95755290985107	movie	1		166.0	29.0	2.5	/experiments/knapen_aot/videos/R_S_wc-WgOBK5IL7vex_4.mp4	0.0	145.86153507232666	2.5083279609680176
31	85.46588087081909	fix_post	2		12.0	29.0	2.5	/experiments/knapen_aot/videos/R_S_wc-WgOBK5IL7vex_4.mp4	0.0	148.36986303329468	0.10005402565002441
32	85.56593489646912	fix_pre	0		7.0	30.0	2.5	/experiments/knapen_aot/videos/R_S_yt-JGKdBO2Ldzo_93.mp4	0.0	148.4699170589447	0.05831289291381836
32	85.6160159111023	response	0	2		30.0	2.5	/experiments/knapen_aot/videos/R_S_yt-JGKdBO2Ldzo_93.mp4	0.0	148.51999807357788	
32	85.62424778938293	movie	1		301.0	30.0	2.5	/experiments/knapen_aot/videos/R_S_yt-JGKdBO2Ldzo_93.mp4	0.0	148.52822995185852	2.508316993713379
32	88.13256478309631	fix_post	2		12.0	30.0	2.5	/experiments/knapen_aot/videos/R_S_yt-JGKdBO2Ldzo_93.mp4	0.0	151.0365469455719	0.1011199951171875
33	88.2336847782135	fix_pre	0		27.0	31.0	2.5	/experiments/knapen_aot/videos/R_S_ILSVRC2015_train_00165008.mp4	0.0	151.1376669406891	0.22384119033813477
33	88.44937682151794	response	0	2		31.0	2.5	/experiments/knapen_aot/videos/R_S_ILSVRC2015_train_00165008.mp4	0.0	151.35335898399353	
33	88.45752596855164	movie	1		300.0	31.0	2.5	/experiments/knapen_aot/videos/R_S_ILSVRC2015_train_00165008.mp4	0.0	151.36150813102722	2.508323907852173
33	90.96584987640381	fix_post	2		12.0	31.0	2.5	/experiments/knapen_aot/videos/R_S_ILSVRC2015_train_00165008.mp4	0.0	153.8698320388794	0.10000896453857422
34	91.06585884094238	fix_pre	0		14.0	32.0	2.5	/experiments/knapen_aot/videos/R_S_ILSVRC2015_train_00165008.mp4	0.0	153.96984100341797	0.11661195755004883
34	91.17429089546204	response	0	2		32.0	2.5	/experiments/knapen_aot/videos/R_S_ILSVRC2015_train_00165008.mp4	0.0	154.07827305793762	
34	91.18247079849243	movie	1		301.0	32.0	2.5	/experiments/knapen_aot/videos/R_S_ILSVRC2015_train_00165008.mp4	0.0	154.08645296096802	2.508308172225952
34	93.69077897071838	fix_post	2		12.0	32.0	2.5	/experiments/knapen_aot/videos/R_S_ILSVRC2015_train_00165008.mp4	0.0	156.59476113319397	0.1000518798828125
35	93.7908308506012	fix_pre	0		10.0	33.0	2.5	blank	1.0	156.69481301307678	0.08324193954467773
35	93.85840892791748	response	0	2		33.0	2.5	blank	1.0	156.76239109039307	
35	93.87407279014587	movie	1		301.0	33.0	2.5	blank	1.0	156.77805495262146	2.508334159851074
35	96.38240694999695	fix_post	2		12.0	33.0	2.5	blank	1.0	159.28638911247253	0.10002589225769043
36	96.48243284225464	fix_pre	0		14.0	34.0	2.5	/experiments/knapen_aot/videos/S__9v_wUywaAA_35.mp4	0.0	159.38641500473022	0.11668705940246582
36	96.59096479415894	response	0	2		34.0	2.5	/experiments/knapen_aot/videos/S__9v_wUywaAA_35.mp4	0.0	159.49494695663452	
36	96.5991199016571	movie	1		301.0	34.0	2.5	/experiments/knapen_aot/videos/S__9v_wUywaAA_35.mp4	0.0	159.5031020641327	2.508392095565796
36	99.1075119972229	fix_post	2		12.0	34.0	2.5	/experiments/knapen_aot/videos/S__9v_wUywaAA_35.mp4	0.0	162.0114941596985	0.0999598503112793
37	99.20747184753418	fix_pre	0		25.0	35.0	2.5	/experiments/knapen_aot/videos/S_yt-lazG9z4VQAw_99.mp4	0.0	162.11145401000977	0.20832109451293945
37	99.40003490447998	response	0	2		35.0	2.5	/experiments/knapen_aot/videos/S_yt-lazG9z4VQAw_99.mp4	0.0	162.30401706695557	
37	99.41579294204712	movie	1		301.0	35.0	2.5	/experiments/knapen_aot/videos/S_yt-lazG9z4VQAw_99.mp4	0.0	162.3197751045227	2.508347988128662
37	101.92414093017578	fix_post	2		12.0	35.0	2.5	/experiments/knapen_aot/videos/S_yt-lazG9z4VQAw_99.mp4	0.0	164.82812309265137	0.09988784790039062
38	102.02402877807617	fix_pre	0		14.0	36.0	2.5	/experiments/knapen_aot/videos/R_S_ILSVRC2015_train_00066005.mp4	0.0	164.92801094055176	0.11671900749206543
38	102.12501883506775	response	0	2		36.0	2.5	/experiments/knapen_aot/videos/R_S_ILSVRC2015_train_00066005.mp4	0.0	165.02900099754333	
38	102.14074778556824	movie	1		300.0	36.0	2.5	/experiments/knapen_aot/videos/R_S_ILSVRC2015_train_00066005.mp4	0.0	165.04472994804382	2.5083792209625244
38	104.64912700653076	fix_post	2		12.0	36.0	2.5	/experiments/knapen_aot/videos/R_S_ILSVRC2015_train_00066005.mp4	0.0	167.55310916900635	0.0999608039855957
39	104.74908781051636	fix_pre	0		24.0	37.0	2.5	/experiments/knapen_aot/videos/R_S_comp_A351_C001_v06_SDR_PS_20180725_SDR_2K_AVC.mp4	0.0	167.65306997299194	0.1999800205230713
39	104.94090485572815	response	0	2		37.0	2.5	/experiments/knapen_aot/videos/R_S_comp_A351_C001_v06_SDR_PS_20180725_SDR_2K_AVC.mp4	0.0	167.84488701820374	
39	104.94906783103943	movie	1		165.0	37.0	2.5	/experiments/knapen_aot/videos/R_S_comp_A351_C001_v06_SDR_PS_20180725_SDR_2K_AVC.mp4	0.0	167.85304999351501	2.5083770751953125
39	107.45744490623474	fix_post	2		12.0	37.0	2.5	/experiments/knapen_aot/videos/R_S_comp_A351_C001_v06_SDR_PS_20180725_SDR_2K_AVC.mp4	0.0	170.36142706871033	0.10004806518554688
39	107.54922080039978	response	2	2		37.0	2.5	/experiments/knapen_aot/videos/R_S_comp_A351_C001_v06_SDR_PS_20180725_SDR_2K_AVC.mp4	0.0	170.45320296287537	
40	107.55749297142029	fix_pre	0		40.0	38.0	2.5	/experiments/knapen_aot/videos/R_S_yt-GOgS--rzmKQ_51.mp4	0.0	170.46147513389587	0.33323001861572266
40	107.88251996040344	response	0	2		38.0	2.5	/experiments/knapen_aot/videos/R_S_yt-GOgS--rzmKQ_51.mp4	0.0	170.78650212287903	
40	107.89072299003601	movie	1		301.0	38.0	2.5	/experiments/knapen_aot/videos/R_S_yt-GOgS--rzmKQ_51.mp4	0.0	170.7947051525116	2.5083119869232178
40	110.39903497695923	fix_post	2		12.0	38.0	2.5	/experiments/knapen_aot/videos/R_S_yt-GOgS--rzmKQ_51.mp4	0.0	173.30301713943481	0.10009193420410156
41	110.49912691116333	fix_pre	0		8.0	39.0	2.5	/experiments/knapen_aot/videos/R_S_yt-RO4mhuXBVrY_67.mp4	0.0	173.40310907363892	0.06768107414245605
41	110.55764293670654	response	0	2		39.0	2.5	/experiments/knapen_aot/videos/R_S_yt-RO4mhuXBVrY_67.mp4	0.0	173.46162509918213	
41	110.56680798530579	movie	1		301.0	39.0	2.5	/experiments/knapen_aot/videos/R_S_yt-RO4mhuXBVrY_67.mp4	0.0	173.47079014778137	2.507255792617798
41	113.07406377792358	fix_post	2		12.0	39.0	2.5	/experiments/knapen_aot/videos/R_S_yt-RO4mhuXBVrY_67.mp4	0.0	175.97804594039917	0.10003805160522461
42	113.17410182952881	fix_pre	0		10.0	40.0	2.5	/experiments/knapen_aot/videos/R_S_production_ID_3712945.mp4	0.0	176.0780839920044	0.08335709571838379
42	113.24936890602112	response	0	2		40.0	2.5	/experiments/knapen_aot/videos/R_S_production_ID_3712945.mp4	0.0	176.1533510684967	
42	113.25745892524719	movie	1		185.0	40.0	2.5	/experiments/knapen_aot/videos/R_S_production_ID_3712945.mp4	0.0	176.16144108772278	2.5083060264587402
42	115.76576495170593	fix_post	2		12.0	40.0	2.5	/experiments/knapen_aot/videos/R_S_production_ID_3712945.mp4	0.0	178.66974711418152	0.09997296333312988
43	115.86573791503906	fix_pre	0		12.0	41.0	2.5	/experiments/knapen_aot/videos/R_S_yt-l_pvPAznG1A_20.mp4	0.0	178.76972007751465	0.10001492500305176
43	115.95751595497131	response	0	2		41.0	2.5	/experiments/knapen_aot/videos/R_S_yt-l_pvPAznG1A_20.mp4	0.0	178.8614981174469	
43	115.96575284004211	movie	1		301.0	41.0	2.5	/experiments/knapen_aot/videos/R_S_yt-l_pvPAznG1A_20.mp4	0.0	178.8697350025177	2.5083439350128174
43	118.47409677505493	fix_post	2		12.0	41.0	2.5	/experiments/knapen_aot/videos/R_S_yt-l_pvPAznG1A_20.mp4	0.0	181.37807893753052	0.09994721412658691
44	118.57404398918152	fix_pre	0		7.0	42.0	2.5	blank	1.0	181.4780261516571	0.058365821838378906
44	118.61677193641663	response	0	2		42.0	2.5	blank	1.0	181.5207540988922	
44	118.6324098110199	movie	1		301.0	42.0	2.5	blank	1.0	181.53639197349548	2.5083000659942627
44	121.14070987701416	fix_post	2		12.0	42.0	2.5	blank	1.0	184.04469203948975	0.10013413429260254
45	121.24084401130676	fix_pre	0		6.0	43.0	2.5	/experiments/knapen_aot/videos/R_S_yt-QFGyhhr1KSQ_9.mp4	0.0	184.14482617378235	0.049922943115234375
45	121.28258800506592	response	0	2		43.0	2.5	/experiments/knapen_aot/videos/R_S_yt-QFGyhhr1KSQ_9.mp4	0.0	184.1865701675415	
45	121.290766954422	movie	1		301.0	43.0	2.5	/experiments/knapen_aot/videos/R_S_yt-QFGyhhr1KSQ_9.mp4	0.0	184.19474911689758	2.508319854736328
45	123.79908680915833	fix_post	2		12.0	43.0	2.5	/experiments/knapen_aot/videos/R_S_yt-QFGyhhr1KSQ_9.mp4	0.0	186.7030689716339	0.09999799728393555
45	123.88253498077393	response	2	2		43.0	2.5	/experiments/knapen_aot/videos/R_S_yt-QFGyhhr1KSQ_9.mp4	0.0	186.7865171432495	
46	123.89908480644226	fix_pre	0		37.0	44.0	2.5	/experiments/knapen_aot/videos/R_S_yt-gzjV6YoK6X0_3.mp4	0.0	186.80306696891785	0.30824899673461914
46	124.19905686378479	response	0	2		44.0	2.5	/experiments/knapen_aot/videos/R_S_yt-gzjV6YoK6X0_3.mp4	0.0	187.10303902626038	
46	124.20733380317688	movie	1		301.0	44.0	2.5	/experiments/knapen_aot/videos/R_S_yt-gzjV6YoK6X0_3.mp4	0.0	187.11131596565247	2.5084002017974854
46	126.71573400497437	fix_post	2		12.0	44.0	2.5	/experiments/knapen_aot/videos/R_S_yt-gzjV6YoK6X0_3.mp4	0.0	189.61971616744995	0.0999908447265625
47	126.81572484970093	fix_pre	0		2.0	45.0	2.5	/experiments/knapen_aot/videos/S_yt-TNtO8RPd3iE_25.mp4	0.0	189.7197070121765	0.01666998863220215
47	126.82415890693665	response	0	2		45.0	2.5	/experiments/knapen_aot/videos/S_yt-TNtO8RPd3iE_25.mp4	0.0	189.72814106941223	
47	126.83239483833313	movie	1		301.0	45.0	2.5	/experiments/knapen_aot/videos/S_yt-TNtO8RPd3iE_25.mp4	0.0	189.73637700080872	2.50832200050354
47	129.34071683883667	fix_post	2		12.0	45.0	2.5	/experiments/knapen_aot/videos/S_yt-TNtO8RPd3iE_25.mp4	0.0	192.24469900131226	0.09999799728393555
48	129.4407148361206	fix_pre	0		22.0	46.0	2.5	/experiments/knapen_aot/videos/R_S_pexels-rodnae-productions-5617905.mp4	0.0	192.3446969985962	0.18333697319030762
48	129.61588191986084	response	0	2		46.0	2.5	/experiments/knapen_aot/videos/R_S_pexels-rodnae-productions-5617905.mp4	0.0	192.51986408233643	
48	129.6240518093109	movie	1		164.0	46.0	2.5	/experiments/knapen_aot/videos/R_S_pexels-rodnae-productions-5617905.mp4	0.0	192.5280339717865	2.5082430839538574
48	132.13229489326477	fix_post	2		12.0	46.0	2.5	/experiments/knapen_aot/videos/R_S_pexels-rodnae-productions-5617905.mp4	0.0	195.03627705574036	0.10008096694946289
49	132.23237586021423	fix_pre	0		9.0	47.0	2.5	blank	1.0	195.13635802268982	0.07500910758972168
49	132.2990849018097	response	0	2		47.0	2.5	blank	1.0	195.20306706428528	
49	132.30738496780396	movie	1		301.0	47.0	2.5	blank	1.0	195.21136713027954	2.5082859992980957
49	134.81567096710205	fix_post	2		12.0	47.0	2.5	blank	1.0	197.71965312957764	0.0999448299407959
50	134.91561579704285	fix_pre	0		46.0	48.0	2.5	/experiments/knapen_aot/videos/S_yt-lazG9z4VQAw_99.mp4	0.0	197.81959795951843	0.3833620548248291
50	135.29078078269958	response	0	2		48.0	2.5	/experiments/knapen_aot/videos/S_yt-lazG9z4VQAw_99.mp4	0.0	198.19476294517517	
50	135.29897785186768	movie	1		301.0	48.0	2.5	/experiments/knapen_aot/videos/S_yt-lazG9z4VQAw_99.mp4	0.0	198.20296001434326	2.5083351135253906
50	137.80731296539307	fix_post	2		12.0	48.0	2.5	/experiments/knapen_aot/videos/S_yt-lazG9z4VQAw_99.mp4	0.0	200.71129512786865	0.09995102882385254
51	137.90726399421692	fix_pre	0		21.0	49.0	2.5	/experiments/knapen_aot/videos/R_S_pexels-anastasia-shuraeva-6014070.mp4	0.0	200.8112461566925	0.17502593994140625
51	138.0740828514099	response	0	2		49.0	2.5	/experiments/knapen_aot/videos/R_S_pexels-anastasia-shuraeva-6014070.mp4	0.0	200.9780650138855	
51	138.08228993415833	movie	1		195.0	49.0	2.5	/experiments/knapen_aot/videos/R_S_pexels-anastasia-shuraeva-6014070.mp4	0.0	200.9862720966339	2.508453845977783
51	140.5907437801361	fix_post	2		12.0	49.0	2.5	/experiments/knapen_aot/videos/R_S_pexels-anastasia-shuraeva-6014070.mp4	0.0	203.4947259426117	0.10084009170532227
52	140.69158387184143	fix_pre	0		1.0	50.0	2.5	/experiments/knapen_aot/videos/R_S_ILSVRC2015_train_00463000.mp4	0.0	203.59556603431702	0.0074310302734375
52	140.6932888031006	response	0	2		50.0	2.5	/experiments/knapen_aot/videos/R_S_ILSVRC2015_train_00463000.mp4	0.0	203.59727096557617	
52	140.69901490211487	movie	1		301.0	50.0	2.5	/experiments/knapen_aot/videos/R_S_ILSVRC2015_train_00463000.mp4	0.0	203.60299706459045	2.508263111114502
52	143.20727801322937	fix_post	2		12.0	50.0	2.5	/experiments/knapen_aot/videos/R_S_ILSVRC2015_train_00463000.mp4	0.0	206.11126017570496	0.1000368595123291
53	143.3073148727417	fix_pre	0		26.0	51.0	2.5	/experiments/knapen_aot/videos/R_S_yt-T7RmOAme5dU_213.mp4	0.0	206.21129703521729	0.21753811836242676
53	143.5157949924469	response	0	2		51.0	2.5	/experiments/knapen_aot/videos/R_S_yt-T7RmOAme5dU_213.mp4	0.0	206.41977715492249	
53	143.52485299110413	movie	1		301.0	51.0	2.5	/experiments/knapen_aot/videos/R_S_yt-T7RmOAme5dU_213.mp4	0.0	206.4288351535797	2.5074520111083984
53	146.03230500221252	fix_post	2		12.0	51.0	2.5	/experiments/knapen_aot/videos/R_S_yt-T7RmOAme5dU_213.mp4	0.0	208.9362871646881	0.09996891021728516
54	146.1322739124298	fix_pre	0		9.0	52.0	2.5	/experiments/knapen_aot/videos/S_yt-eczLsCTIyn0_553.mp4	0.0	209.0362560749054	0.07502198219299316
54	146.19173789024353	response	0	2		52.0	2.5	/experiments/knapen_aot/videos/S_yt-eczLsCTIyn0_553.mp4	0.0	209.09572005271912	
54	146.2072958946228	movie	1		301.0	52.0	2.5	/experiments/knapen_aot/videos/S_yt-eczLsCTIyn0_553.mp4	0.0	209.1112780570984	2.50826096534729
54	148.7155568599701	fix_post	2		12.0	52.0	2.5	/experiments/knapen_aot/videos/S_yt-eczLsCTIyn0_553.mp4	0.0	211.61953902244568	0.09999513626098633
55	148.81555199623108	fix_pre	0		16.0	53.0	2.5	/experiments/knapen_aot/videos/R_S_wc-WgOBK5IL7vex_4.mp4	0.0	211.71953415870667	0.13338780403137207
55	148.940771818161	response	0	2		53.0	2.5	/experiments/knapen_aot/videos/R_S_wc-WgOBK5IL7vex_4.mp4	0.0	211.8447539806366	
55	148.94893980026245	movie	1		189.0	53.0	2.5	/experiments/knapen_aot/videos/R_S_wc-WgOBK5IL7vex_4.mp4	0.0	211.85292196273804	2.508261203765869
55	151.44895696640015	response	1	2		53.0	2.5	/experiments/knapen_aot/videos/R_S_wc-WgOBK5IL7vex_4.mp4	0.0	214.35293912887573	
55	151.45720100402832	fix_post	2		12.0	53.0	2.5	/experiments/knapen_aot/videos/R_S_wc-WgOBK5IL7vex_4.mp4	0.0	214.3611831665039	0.10003781318664551
56	151.55723881721497	fix_pre	0		44.0	54.0	2.5	/experiments/knapen_aot/videos/R_S_yt-kuzdrmHa-W0_39.mp4	0.0	214.46122097969055	0.3666980266571045
56	151.9156458377838	response	0	2		54.0	2.5	/experiments/knapen_aot/videos/R_S_yt-kuzdrmHa-W0_39.mp4	0.0	214.8196280002594	
56	151.92393684387207	movie	1		301.0	54.0	2.5	/experiments/knapen_aot/videos/R_S_yt-kuzdrmHa-W0_39.mp4	0.0	214.82791900634766	2.5083460807800293
56	154.4322829246521	fix_post	2		12.0	54.0	2.5	/experiments/knapen_aot/videos/R_S_yt-kuzdrmHa-W0_39.mp4	0.0	217.33626508712769	0.09997296333312988
57	154.53225588798523	fix_pre	0		16.0	55.0	2.5	/experiments/knapen_aot/videos/R_S_yt-wLylWnZs3z0_27.mp4	0.0	217.43623805046082	0.13328790664672852
57	154.65737891197205	response	0	2		55.0	2.5	/experiments/knapen_aot/videos/R_S_yt-wLylWnZs3z0_27.mp4	0.0	217.56136107444763	
57	154.66554379463196	movie	1		301.0	55.0	2.5	/experiments/knapen_aot/videos/R_S_yt-wLylWnZs3z0_27.mp4	0.0	217.56952595710754	2.50838303565979
57	157.17392683029175	fix_post	2		12.0	55.0	2.5	/experiments/knapen_aot/videos/R_S_yt-wLylWnZs3z0_27.mp4	0.0	220.07790899276733	0.09995007514953613
57	157.22404980659485	response	2	2		55.0	2.5	/experiments/knapen_aot/videos/R_S_yt-wLylWnZs3z0_27.mp4	0.0	220.12803196907043	
58	157.27387690544128	fix_pre	0		41.0	56.0	2.5	blank	1.0	220.17785906791687	0.34166789054870605
58	157.60727882385254	response	0	2		56.0	2.5	blank	1.0	220.51126098632812	
58	157.61554479599	movie	1		301.0	56.0	2.5	blank	1.0	220.51952695846558	2.508316993713379
58	160.12386178970337	fix_post	2		12.0	56.0	2.5	blank	1.0	223.02784395217896	0.10004901885986328
59	160.22391080856323	fix_pre	0		21.0	57.0	2.5	/experiments/knapen_aot/videos/S_yt--DXkjCUzThU_413.mp4	0.0	223.12789297103882	0.1757361888885498
59	160.39053893089294	response	0	2		57.0	2.5	/experiments/knapen_aot/videos/S_yt--DXkjCUzThU_413.mp4	0.0	223.29452109336853	
59	160.39964699745178	movie	1		301.0	57.0	2.5	/experiments/knapen_aot/videos/S_yt--DXkjCUzThU_413.mp4	0.0	223.30362915992737	2.507530927658081
59	162.90717792510986	fix_post	2		12.0	57.0	2.5	/experiments/knapen_aot/videos/S_yt--DXkjCUzThU_413.mp4	0.0	225.81116008758545	0.09998202323913574
60	163.007159948349	fix_pre	0		6.0	58.0	2.5	/experiments/knapen_aot/videos/R_S_yt--WPE_4bqQXc_26.mp4	0.0	225.91114211082458	0.050050973892211914
60	163.048978805542	response	0	2		58.0	2.5	/experiments/knapen_aot/videos/R_S_yt--WPE_4bqQXc_26.mp4	0.0	225.95296096801758	
60	163.0572109222412	movie	1		301.0	58.0	2.5	/experiments/knapen_aot/videos/R_S_yt--WPE_4bqQXc_26.mp4	0.0	225.9611930847168	2.508327007293701
60	165.5655379295349	fix_post	2		12.0	58.0	2.5	/experiments/knapen_aot/videos/R_S_yt--WPE_4bqQXc_26.mp4	0.0	228.4695200920105	0.0999000072479248
61	165.66543793678284	fix_pre	0		13.0	59.0	2.5	/experiments/knapen_aot/videos/S_ILSVRC2015_train_00473001.mp4	0.0	228.56942009925842	0.10925602912902832
61	165.76564383506775	response	0	2		59.0	2.5	/experiments/knapen_aot/videos/S_ILSVRC2015_train_00473001.mp4	0.0	228.66962599754333	
61	165.77469396591187	movie	1		301.0	59.0	2.5	/experiments/knapen_aot/videos/S_ILSVRC2015_train_00473001.mp4	0.0	228.67867612838745	2.507503032684326
61	168.2821969985962	fix_post	2		12.0	59.0	2.5	/experiments/knapen_aot/videos/S_ILSVRC2015_train_00473001.mp4	0.0	231.18617916107178	0.09999895095825195
62	168.38219594955444	fix_pre	0		126.0	60.0	2.5	/experiments/knapen_aot/videos/S_yt-BLmwmX-mni8_56.mp4	0.0	231.28617811203003	1.0500409603118896
62	169.42396998405457	response	0	2		60.0	2.5	/experiments/knapen_aot/videos/S_yt-BLmwmX-mni8_56.mp4	0.0	232.32795214653015	
62	169.43223690986633	movie	1		301.0	60.0	2.5	/experiments/knapen_aot/videos/S_yt-BLmwmX-mni8_56.mp4	0.0	232.33621907234192	2.5082199573516846
62	171.94045686721802	fix_post	2		12.0	60.0	2.5	/experiments/knapen_aot/videos/S_yt-BLmwmX-mni8_56.mp4	0.0	234.8444390296936	0.09994196891784668
63	172.04039883613586	fix_pre	0		66.0	61.0	2.5	blank	1.0	234.94438099861145	0.5499889850616455
63	172.58230781555176	response	0	2		61.0	2.5	blank	1.0	235.48628997802734	
63	172.5903878211975	movie	1		301.0	61.0	2.5	blank	1.0	235.4943699836731	2.5083630084991455
63	175.09875082969666	fix_post	2		12.0	61.0	2.5	blank	1.0	238.00273299217224	0.10007405281066895
64	175.19882488250732	fix_pre	0		19.0	62.0	2.5	/experiments/knapen_aot/videos/S_yt-rZA9zXR-A6s_426.mp4	0.0	238.1028070449829	0.1589970588684082
64	175.3489170074463	response	0	2		62.0	2.5	/experiments/knapen_aot/videos/S_yt-rZA9zXR-A6s_426.mp4	0.0	238.25289916992188	
64	175.35782194137573	movie	1		301.0	62.0	2.5	/experiments/knapen_aot/videos/S_yt-rZA9zXR-A6s_426.mp4	0.0	238.26180410385132	2.5075929164886475
64	177.86541485786438	fix_post	2		12.0	62.0	2.5	/experiments/knapen_aot/videos/S_yt-rZA9zXR-A6s_426.mp4	0.0	240.76939702033997	0.10001707077026367
65	177.96543192863464	fix_pre	0		13.0	63.0	2.5	/experiments/knapen_aot/videos/S_yt-2l6VKd94eAI_151.mp4	0.0	240.86941409111023	0.10836386680603027
65	178.05810594558716	response	0	2		63.0	2.5	/experiments/knapen_aot/videos/S_yt-2l6VKd94eAI_151.mp4	0.0	240.96208810806274	
65	178.07379579544067	movie	1		301.0	63.0	2.5	/experiments/knapen_aot/videos/S_yt-2l6VKd94eAI_151.mp4	0.0	240.97777795791626	2.5082921981811523
65	180.58208799362183	fix_post	2		12.0	63.0	2.5	/experiments/knapen_aot/videos/S_yt-2l6VKd94eAI_151.mp4	0.0	243.4860701560974	0.10003900527954102
66	180.68212699890137	fix_pre	0		22.0	64.0	2.5	/experiments/knapen_aot/videos/S_yt-5hgLXyLw82w_23.mp4	0.0	243.58610916137695	0.18329191207885742
66	180.8497669696808	response	0	2		64.0	2.5	/experiments/knapen_aot/videos/S_yt-5hgLXyLw82w_23.mp4	0.0	243.75374913215637	
66	180.86541891098022	movie	1		301.0	64.0	2.5	/experiments/knapen_aot/videos/S_yt-5hgLXyLw82w_23.mp4	0.0	243.7694010734558	2.5084140300750732
66	183.3738329410553	fix_post	2		12.0	64.0	2.5	/experiments/knapen_aot/videos/S_yt-5hgLXyLw82w_23.mp4	0.0	246.27781510353088	0.09997200965881348
67	183.4738049507141	fix_pre	0		10.0	65.0	2.5	/experiments/knapen_aot/videos/S_yt-GOgS--rzmKQ_51.mp4	0.0	246.3777871131897	0.08326983451843262
67	183.54887986183167	response	0	2		65.0	2.5	/experiments/knapen_aot/videos/S_yt-GOgS--rzmKQ_51.mp4	0.0	246.45286202430725	
67	183.55707478523254	movie	1		300.0	65.0	2.5	/experiments/knapen_aot/videos/S_yt-GOgS--rzmKQ_51.mp4	0.0	246.46105694770813	2.508334159851074
67	186.06540894508362	fix_post	2		12.0	65.0	2.5	/experiments/knapen_aot/videos/S_yt-GOgS--rzmKQ_51.mp4	0.0	248.9693911075592	0.09996986389160156
67	186.1572368144989	response	2	2		65.0	2.5	/experiments/knapen_aot/videos/S_yt-GOgS--rzmKQ_51.mp4	0.0	249.0612189769745	
68	186.16537880897522	fix_pre	0		42.0	66.0	2.5	/experiments/knapen_aot/videos/R_S_yt-SS7pSyb0_d0_32.mp4	0.0	249.0693609714508	0.34996700286865234
68	186.50718998908997	response	0	2		66.0	2.5	/experiments/knapen_aot/videos/R_S_yt-SS7pSyb0_d0_32.mp4	0.0	249.41117215156555	
68	186.51534581184387	movie	1		301.0	66.0	2.5	/experiments/knapen_aot/videos/R_S_yt-SS7pSyb0_d0_32.mp4	0.0	249.41932797431946	2.5083789825439453
68	189.02372479438782	fix_post	2		12.0	66.0	2.5	/experiments/knapen_aot/videos/R_S_yt-SS7pSyb0_d0_32.mp4	0.0	251.9277069568634	0.10001015663146973
69	189.1237349510193	fix_pre	0		25.0	67.0	2.5	/experiments/knapen_aot/videos/S_ILSVRC2015_train_00067003.mp4	0.0	252.02771711349487	0.20835185050964355
69	189.32383799552917	response	0	2		67.0	2.5	/experiments/knapen_aot/videos/S_ILSVRC2015_train_00067003.mp4	0.0	252.22782015800476	
69	189.33208680152893	movie	1		301.0	67.0	2.5	/experiments/knapen_aot/videos/S_ILSVRC2015_train_00067003.mp4	0.0	252.23606896400452	2.5083701610565186
69	191.84045696258545	fix_post	2		12.0	67.0	2.5	/experiments/knapen_aot/videos/S_ILSVRC2015_train_00067003.mp4	0.0	254.74443912506104	0.09995198249816895
70	191.94040894508362	fix_pre	0		29.0	68.0	2.5	blank	1.0	254.8443911075592	0.24172091484069824
70	192.17378687858582	response	0	2		68.0	2.5	blank	1.0	255.0777690410614	
70	192.18212985992432	movie	1		301.0	68.0	2.5	blank	1.0	255.0861120223999	2.5083069801330566
70	194.69043684005737	fix_post	2		12.0	68.0	2.5	blank	1.0	257.59441900253296	0.09998011589050293
71	194.79041695594788	fix_pre	0		18.0	69.0	2.5	/experiments/knapen_aot/videos/S_yt-HMAa2QbfFPI_216.mp4	0.0	257.69439911842346	0.15052485466003418
71	194.93217492103577	response	0	2		69.0	2.5	/experiments/knapen_aot/videos/S_yt-HMAa2QbfFPI_216.mp4	0.0	257.83615708351135	
71	194.9409418106079	movie	1		301.0	69.0	2.5	/experiments/knapen_aot/videos/S_yt-HMAa2QbfFPI_216.mp4	0.0	257.8449239730835	2.5076839923858643
71	197.44862580299377	fix_post	2		12.0	69.0	2.5	/experiments/knapen_aot/videos/S_yt-HMAa2QbfFPI_216.mp4	0.0	260.35260796546936	0.10004806518554688
72	197.54867386817932	fix_pre	0		7.0	70.0	2.5	/experiments/knapen_aot/videos/S_yt-LZS1RrEtTeQ_136.mp4	0.0	260.4526560306549	0.058982133865356445
72	197.598867893219	response	0	2		70.0	2.5	/experiments/knapen_aot/videos/S_yt-LZS1RrEtTeQ_136.mp4	0.0	260.5028500556946	
72	197.60765600204468	movie	1		301.0	70.0	2.5	/experiments/knapen_aot/videos/S_yt-LZS1RrEtTeQ_136.mp4	0.0	260.51163816452026	2.507730007171631
72	200.1153860092163	fix_post	2		12.0	70.0	2.5	/experiments/knapen_aot/videos/S_yt-LZS1RrEtTeQ_136.mp4	0.0	263.0193681716919	0.10004687309265137
73	200.21543288230896	fix_pre	0		7.0	71.0	2.5	/experiments/knapen_aot/videos/R_S_yt-fjOsq03OC2c_188.mp4	0.0	263.11941504478455	0.05882000923156738
73	200.26549983024597	response	0	2		71.0	2.5	/experiments/knapen_aot/videos/R_S_yt-fjOsq03OC2c_188.mp4	0.0	263.16948199272156	
73	200.27425289154053	movie	1		301.0	71.0	2.5	/experiments/knapen_aot/videos/R_S_yt-fjOsq03OC2c_188.mp4	0.0	263.1782350540161	2.5078229904174805
73	202.782075881958	fix_post	2		12.0	71.0	2.5	/experiments/knapen_aot/videos/R_S_yt-fjOsq03OC2c_188.mp4	0.0	265.6860580444336	0.099945068359375
74	202.88202095031738	fix_pre	0		11.0	72.0	2.5	/experiments/knapen_aot/videos/S_yt-RKo978aBdzw_173.mp4	0.0	265.78600311279297	0.09167599678039551
74	202.96549487113953	response	0	2		72.0	2.5	/experiments/knapen_aot/videos/S_yt-RKo978aBdzw_173.mp4	0.0	265.8694770336151	
74	202.97369694709778	movie	1		301.0	72.0	2.5	/experiments/knapen_aot/videos/S_yt-RKo978aBdzw_173.mp4	0.0	265.87767910957336	2.5083210468292236
74	205.482017993927	fix_post	2		12.0	72.0	2.5	/experiments/knapen_aot/videos/S_yt-RKo978aBdzw_173.mp4	0.0	268.3860001564026	0.10002493858337402
75	205.58204293251038	fix_pre	0		12.0	73.0	2.5	/experiments/knapen_aot/videos/S_meta-11482036_235.mp4	0.0	268.48602509498596	0.0999598503112793
75	205.673889875412	response	0	2		73.0	2.5	/experiments/knapen_aot/videos/S_meta-11482036_235.mp4	0.0	268.5778720378876	
75	205.68200278282166	movie	1		301.0	73.0	2.5	/experiments/knapen_aot/videos/S_meta-11482036_235.mp4	0.0	268.58598494529724	2.5083391666412354
75	208.1903419494629	fix_post	2		12.0	73.0	2.5	/experiments/knapen_aot/videos/S_meta-11482036_235.mp4	0.0	271.0943241119385	0.10002994537353516
76	208.29037189483643	fix_pre	0		11.0	74.0	2.5	/experiments/knapen_aot/videos/S_yt-r7brAHgxZSU_248.mp4	0.0	271.194354057312	0.09163403511047363
76	208.3663477897644	response	0	2		74.0	2.5	/experiments/knapen_aot/videos/S_yt-r7brAHgxZSU_248.mp4	0.0	271.27032995224	
76	208.3820059299469	movie	1		300.0	74.0	2.5	/experiments/knapen_aot/videos/S_yt-r7brAHgxZSU_248.mp4	0.0	271.2859880924225	2.5083370208740234
76	210.89034295082092	fix_post	2		12.0	74.0	2.5	/experiments/knapen_aot/videos/S_yt-r7brAHgxZSU_248.mp4	0.0	273.7943251132965	0.0999908447265625
77	210.99033379554749	fix_pre	0		13.0	75.0	2.5	blank	1.0	273.89431595802307	0.10825300216674805
77	211.08287286758423	response	0	2		75.0	2.5	blank	1.0	273.9868550300598	
77	211.09858679771423	movie	1		301.0	75.0	2.5	blank	1.0	274.0025689601898	2.5083110332489014
77	213.60689783096313	fix_post	2		12.0	75.0	2.5	blank	1.0	276.5108799934387	0.10007715225219727
78	213.70697498321533	fix_pre	0		13.0	76.0	2.5	/experiments/knapen_aot/videos/R_S_yt-WCT9dyz0-gQ_36.mp4	0.0	276.6109571456909	0.10883784294128418
78	213.80703377723694	response	0	2		76.0	2.5	/experiments/knapen_aot/videos/R_S_yt-WCT9dyz0-gQ_36.mp4	0.0	276.7110159397125	
78	213.81581282615662	movie	1		301.0	76.0	2.5	/experiments/knapen_aot/videos/R_S_yt-WCT9dyz0-gQ_36.mp4	0.0	276.7197949886322	2.507812023162842
78	216.32362484931946	fix_post	2		12.0	76.0	2.5	/experiments/knapen_aot/videos/R_S_yt-WCT9dyz0-gQ_36.mp4	0.0	279.22760701179504	0.09998893737792969
79	216.4236137866974	fix_pre	0		14.0	77.0	2.5	/experiments/knapen_aot/videos/S_yt-wz2opOBqClo_14.mp4	0.0	279.327595949173	0.11670207977294922
79	216.5320999622345	response	0	2		77.0	2.5	/experiments/knapen_aot/videos/S_yt-wz2opOBqClo_14.mp4	0.0	279.4360821247101	
79	216.54031586647034	movie	1		301.0	77.0	2.5	/experiments/knapen_aot/videos/S_yt-wz2opOBqClo_14.mp4	0.0	279.4442980289459	2.5082831382751465
79	219.04859900474548	fix_post	2		12.0	77.0	2.5	/experiments/knapen_aot/videos/S_yt-wz2opOBqClo_14.mp4	0.0	281.95258116722107	0.10005688667297363
80	219.14865589141846	fix_pre	0		9.0	78.0	2.5	/experiments/knapen_aot/videos/S_yt-JTVyt-eu4VI_1.mp4	0.0	282.05263805389404	0.07502603530883789
80	219.21533489227295	response	0	2		78.0	2.5	/experiments/knapen_aot/videos/S_yt-JTVyt-eu4VI_1.mp4	0.0	282.11931705474854	
80	219.2236819267273	movie	1		301.0	78.0	2.5	/experiments/knapen_aot/videos/S_yt-JTVyt-eu4VI_1.mp4	0.0	282.1276640892029	2.5083088874816895
80	221.73199081420898	fix_post	2		12.0	78.0	2.5	/experiments/knapen_aot/videos/S_yt-JTVyt-eu4VI_1.mp4	0.0	284.63597297668457	0.10003304481506348
81	221.83202385902405	fix_pre	0		17.0	79.0	2.5	/experiments/knapen_aot/videos/S_yt--DXkjCUzThU_413.mp4	0.0	284.73600602149963	0.14159202575683594
81	221.96540999412537	response	0	2		79.0	2.5	/experiments/knapen_aot/videos/S_yt--DXkjCUzThU_413.mp4	0.0	284.86939215660095	
81	221.97361588478088	movie	1		301.0	79.0	2.5	/experiments/knapen_aot/videos/S_yt--DXkjCUzThU_413.mp4	0.0	284.87759804725647	2.508342981338501
81	224.48195886611938	fix_post	2		12.0	79.0	2.5	/experiments/knapen_aot/videos/S_yt--DXkjCUzThU_413.mp4	0.0	287.38594102859497	0.09992599487304688
82	224.58188486099243	fix_pre	0		16.0	80.0	2.5	/experiments/knapen_aot/videos/R_S_-IkGMlLHrOI_108.mp4	0.0	287.485867023468	0.13336491584777832
82	224.69953680038452	response	0	2		80.0	2.5	/experiments/knapen_aot/videos/R_S_-IkGMlLHrOI_108.mp4	0.0	287.6035189628601	
82	224.7152497768402	movie	1		301.0	80.0	2.5	/experiments/knapen_aot/videos/R_S_-IkGMlLHrOI_108.mp4	0.0	287.6192319393158	2.508380174636841
82	227.22362995147705	fix_post	2		12.0	80.0	2.5	/experiments/knapen_aot/videos/R_S_-IkGMlLHrOI_108.mp4	0.0	290.12761211395264	0.10000491142272949
83	227.32363486289978	fix_pre	0		8.0	81.0	2.5	/experiments/knapen_aot/videos/S_yt-Q9fI2ar05IE_77.mp4	0.0	290.22761702537537	0.06664395332336426
83	227.3821268081665	response	0	2		81.0	2.5	/experiments/knapen_aot/videos/S_yt-Q9fI2ar05IE_77.mp4	0.0	290.2861089706421	
83	227.39027881622314	movie	1		300.0	81.0	2.5	/experiments/knapen_aot/videos/S_yt-Q9fI2ar05IE_77.mp4	0.0	290.29426097869873	2.508355140686035
83	229.89863395690918	fix_post	2		12.0	81.0	2.5	/experiments/knapen_aot/videos/S_yt-Q9fI2ar05IE_77.mp4	0.0	292.80261611938477	0.10010695457458496
84	229.99874091148376	fix_pre	0		20.0	82.0	2.5	blank	1.0	292.90272307395935	0.16655707359313965
84	230.1571660041809	response	0	2		82.0	2.5	blank	1.0	293.0611481666565	
84	230.1652979850769	movie	1		301.0	82.0	2.5	blank	1.0	293.0692801475525	2.5083107948303223
84	232.67360877990723	fix_post	2		12.0	82.0	2.5	blank	1.0	295.5775909423828	0.10003209114074707
85	232.77364087104797	fix_pre	0		20.0	83.0	2.5	/experiments/knapen_aot/videos/R_S_yt-xCh0LI9VKeI_28.mp4	0.0	295.67762303352356	0.16703295707702637
85	232.9245638847351	response	0	2		83.0	2.5	/experiments/knapen_aot/videos/R_S_yt-xCh0LI9VKeI_28.mp4	0.0	295.8285460472107	
85	232.940673828125	movie	1		301.0	83.0	2.5	/experiments/knapen_aot/videos/R_S_yt-xCh0LI9VKeI_28.mp4	0.0	295.8446559906006	2.5079519748687744
85	235.44862580299377	fix_post	2		12.0	83.0	2.5	/experiments/knapen_aot/videos/R_S_yt-xCh0LI9VKeI_28.mp4	0.0	298.35260796546936	0.100006103515625
87	235.5486319065094	stim	0		374.0					298.452614068985	3.12119197845459
87	235.59883999824524	response	0	2						298.5028221607208	
87	238.66159391403198	response	0	space						301.56557607650757	
