trial_nr	onset	event_type	phase	response	nr_frames	movie_index	movie_duration	movie_file	blank	onset_abs	duration
0	0.13356399536132812	stim	0		222.0					133.54563283920288	1.851032018661499
0	0.3252551555633545	response	0	escape						133.7373239994049	
0	1.97475004196167	response	0	space						135.38681888580322	
1	1.9845960140228271	stim	0		121.0					135.39666485786438	1.0066630840301514
1	2.9912590980529785	stim	1		120.0					136.40332794189453	1.0001718997955322
1	3.3748440742492676	response	1	space						136.78691291809082	
1	3.8829569816589355	response	1	space						137.2950258255005	
2	3.9914309978485107	fix_pre	0		628.0	0.0	2.5	/experiments/knapen_aot/videos/S_yt-TvU-aYjNa2c_21.mp4	0.0	137.40349984169006	5.235980033874512
2	9.218788146972656	response	0	2		0.0	2.5	/experiments/knapen_aot/videos/S_yt-TvU-aYjNa2c_21.mp4	0.0	142.6308569908142	
2	9.227411031723022	movie	1		300.0	0.0	2.5	/experiments/knapen_aot/videos/S_yt-TvU-aYjNa2c_21.mp4	0.0	142.63947987556458	2.505511999130249
2	11.732923030853271	fix_post	2		12.0	0.0	2.5	/experiments/knapen_aot/videos/S_yt-TvU-aYjNa2c_21.mp4	0.0	145.14499187469482	0.10001111030578613
3	11.832934141159058	fix_pre	0		41.0	1.0	2.5	/experiments/knapen_aot/videos/R_S_yt-GyMWMiWvuiA_237.mp4	0.0	145.2450029850006	0.34163999557495117
3	12.16646409034729	response	0	2		1.0	2.5	/experiments/knapen_aot/videos/R_S_yt-GyMWMiWvuiA_237.mp4	0.0	145.57853293418884	
3	12.174574136734009	movie	1		301.0	1.0	2.5	/experiments/knapen_aot/videos/R_S_yt-GyMWMiWvuiA_237.mp4	0.0	145.58664298057556	2.508495807647705
3	14.683069944381714	fix_post	2		12.0	1.0	2.5	/experiments/knapen_aot/videos/R_S_yt-GyMWMiWvuiA_237.mp4	0.0	148.09513878822327	0.09992408752441406
4	14.782994031906128	fix_pre	0		11.0	2.0	2.5	/experiments/knapen_aot/videos/S_yt-DmlSN7mzczI_62.mp4	0.0	148.19506287574768	0.09155392646789551
4	14.866379976272583	response	0	2		2.0	2.5	/experiments/knapen_aot/videos/S_yt-DmlSN7mzczI_62.mp4	0.0	148.27844882011414	
4	14.874547958374023	movie	1		301.0	2.0	2.5	/experiments/knapen_aot/videos/S_yt-DmlSN7mzczI_62.mp4	0.0	148.28661680221558	2.5083961486816406
4	17.382944107055664	fix_post	2		12.0	2.0	2.5	/experiments/knapen_aot/videos/S_yt-DmlSN7mzczI_62.mp4	0.0	150.79501295089722	0.09996485710144043
5	17.482908964157104	fix_pre	0		32.0	3.0	2.5	/experiments/knapen_aot/videos/R_S_ILSVRC2015_train_00446000.mp4	0.0	150.89497780799866	0.2666740417480469
5	17.74131417274475	response	0	2		3.0	2.5	/experiments/knapen_aot/videos/R_S_ILSVRC2015_train_00446000.mp4	0.0	151.1533830165863	
5	17.74958300590515	movie	1		301.0	3.0	2.5	/experiments/knapen_aot/videos/R_S_ILSVRC2015_train_00446000.mp4	0.0	151.1616518497467	2.508378028869629
5	20.25796103477478	fix_post	2		12.0	3.0	2.5	/experiments/knapen_aot/videos/R_S_ILSVRC2015_train_00446000.mp4	0.0	153.67002987861633	0.09993600845336914
6	20.35789704322815	fix_pre	0		24.0	4.0	2.5	/experiments/knapen_aot/videos/S_g201_AK_A003_C014_SDR_20191113_SDR_2K_AVC.mp4	0.0	153.7699658870697	0.19997096061706543
6	20.549699068069458	response	0	2		4.0	2.5	/experiments/knapen_aot/videos/S_g201_AK_A003_C014_SDR_20191113_SDR_2K_AVC.mp4	0.0	153.961767911911	
6	20.557868003845215	movie	1		165.0	4.0	2.5	/experiments/knapen_aot/videos/S_g201_AK_A003_C014_SDR_20191113_SDR_2K_AVC.mp4	0.0	153.96993684768677	2.5084340572357178
6	23.066302061080933	fix_post	2		12.0	4.0	2.5	/experiments/knapen_aot/videos/S_g201_AK_A003_C014_SDR_20191113_SDR_2K_AVC.mp4	0.0	156.47837090492249	0.10001397132873535
6	23.1081280708313	response	2	2		4.0	2.5	/experiments/knapen_aot/videos/S_g201_AK_A003_C014_SDR_20191113_SDR_2K_AVC.mp4	0.0	156.52019691467285	
7	23.166316032409668	fix_pre	0		48.0	5.0	2.5	/experiments/knapen_aot/videos/R_S_yt-K0CzoUy_uIA_22.mp4	0.0	156.57838487625122	0.3998749256134033
7	23.557964086532593	response	0	2		5.0	2.5	/experiments/knapen_aot/videos/R_S_yt-K0CzoUy_uIA_22.mp4	0.0	156.97003293037415	
7	23.56619095802307	movie	1		301.0	5.0	2.5	/experiments/knapen_aot/videos/R_S_yt-K0CzoUy_uIA_22.mp4	0.0	156.97825980186462	2.5084011554718018
7	26.074592113494873	fix_post	2		12.0	5.0	2.5	/experiments/knapen_aot/videos/R_S_yt-K0CzoUy_uIA_22.mp4	0.0	159.48666095733643	0.09991192817687988
8	26.174504041671753	fix_pre	0		1.0	6.0	2.5	blank	1.0	159.5865728855133	0.011183023452758789
8	26.176737070083618	response	0	2		6.0	2.5	blank	1.0	159.58880591392517	
8	26.18568706512451	movie	1		301.0	6.0	2.5	blank	1.0	159.59775590896606	2.505465030670166
8	28.691152095794678	fix_post	2		12.0	6.0	2.5	blank	1.0	162.10322093963623	0.10005402565002441
9	28.791206121444702	fix_pre	0		47.0	7.0	2.5	/experiments/knapen_aot/videos/S_yt-AjyR9--Mx3A_44.mp4	0.0	162.20327496528625	0.3915989398956299
9	29.17454195022583	response	0	2		7.0	2.5	/experiments/knapen_aot/videos/S_yt-AjyR9--Mx3A_44.mp4	0.0	162.58661079406738	
9	29.182805061340332	movie	1		301.0	7.0	2.5	/experiments/knapen_aot/videos/S_yt-AjyR9--Mx3A_44.mp4	0.0	162.59487390518188	2.5083279609680176
9	31.202988147735596	response	1	2		7.0	2.5	/experiments/knapen_aot/videos/S_yt-AjyR9--Mx3A_44.mp4	0.0	164.61505699157715	
9	31.69113302230835	fix_post	2		12.0	7.0	2.5	/experiments/knapen_aot/videos/S_yt-AjyR9--Mx3A_44.mp4	0.0	165.1032018661499	0.10002398490905762
10	31.791157007217407	fix_pre	0		26.0	8.0	2.5	/experiments/knapen_aot/videos/S_yt-tX3slAQb9yY_13.mp4	0.0	165.20322585105896	0.21660900115966797
10	31.99959707260132	response	0	2		8.0	2.5	/experiments/knapen_aot/videos/S_yt-tX3slAQb9yY_13.mp4	0.0	165.41166591644287	
10	32.007766008377075	movie	1		301.0	8.0	2.5	/experiments/knapen_aot/videos/S_yt-tX3slAQb9yY_13.mp4	0.0	165.41983485221863	2.508427143096924
10	34.516193151474	fix_post	2		12.0	8.0	2.5	/experiments/knapen_aot/videos/S_yt-tX3slAQb9yY_13.mp4	0.0	167.92826199531555	0.10003399848937988
11	34.61622714996338	fix_pre	0		51.0	9.0	2.5	/experiments/knapen_aot/videos/S_ioSkDvwpEaU_35.mp4	0.0	168.02829599380493	0.42484593391418457
11	35.03287601470947	response	0	2		9.0	2.5	/experiments/knapen_aot/videos/S_ioSkDvwpEaU_35.mp4	0.0	168.44494485855103	
11	35.04107308387756	movie	1		301.0	9.0	2.5	/experiments/knapen_aot/videos/S_ioSkDvwpEaU_35.mp4	0.0	168.45314192771912	2.508368968963623
11	37.54944205284119	fix_post	2		12.0	9.0	2.5	/experiments/knapen_aot/videos/S_ioSkDvwpEaU_35.mp4	0.0	170.96151089668274	0.09999394416809082
12	37.64943599700928	fix_pre	0		45.0	10.0	2.5	/experiments/knapen_aot/videos/S_yt-fqbi4rGc9dk_65.mp4	0.0	171.06150484085083	0.37495899200439453
12	38.01621603965759	response	0	2		10.0	2.5	/experiments/knapen_aot/videos/S_yt-fqbi4rGc9dk_65.mp4	0.0	171.42828488349915	
12	38.02439498901367	movie	1		301.0	10.0	2.5	/experiments/knapen_aot/videos/S_yt-fqbi4rGc9dk_65.mp4	0.0	171.43646383285522	2.508538007736206
12	40.53293299674988	fix_post	2		12.0	10.0	2.5	/experiments/knapen_aot/videos/S_yt-fqbi4rGc9dk_65.mp4	0.0	173.94500184059143	0.0998389720916748
13	40.63277196884155	fix_pre	0		33.0	11.0	2.5	/experiments/knapen_aot/videos/R_S_yt-44ip3uFe4YM_30.mp4	0.0	174.0448408126831	0.27498602867126465
13	40.89952206611633	response	0	2		11.0	2.5	/experiments/knapen_aot/videos/R_S_yt-44ip3uFe4YM_30.mp4	0.0	174.31159090995789	
13	40.90775799751282	movie	1		301.0	11.0	2.5	/experiments/knapen_aot/videos/R_S_yt-44ip3uFe4YM_30.mp4	0.0	174.31982684135437	2.50832200050354
13	43.41607999801636	fix_post	2		12.0	11.0	2.5	/experiments/knapen_aot/videos/R_S_yt-44ip3uFe4YM_30.mp4	0.0	176.8281488418579	0.1000070571899414
14	43.5160870552063	fix_pre	0		35.0	12.0	2.5	/experiments/knapen_aot/videos/S_yt-WTxvvlP8xnw_113.mp4	0.0	176.92815589904785	0.291640043258667
14	43.799577951431274	response	0	2		12.0	2.5	/experiments/knapen_aot/videos/S_yt-WTxvvlP8xnw_113.mp4	0.0	177.21164679527283	
14	43.807727098464966	movie	1		301.0	12.0	2.5	/experiments/knapen_aot/videos/S_yt-WTxvvlP8xnw_113.mp4	0.0	177.21979594230652	2.5083999633789062
14	46.31612706184387	fix_post	2		12.0	12.0	2.5	/experiments/knapen_aot/videos/S_yt-WTxvvlP8xnw_113.mp4	0.0	179.72819590568542	0.09986996650695801
15	46.41599702835083	fix_pre	0		30.0	13.0	2.5	blank	1.0	179.82806587219238	0.2501051425933838
15	46.65786004066467	response	0	2		13.0	2.5	blank	1.0	180.06992888450623	
15	46.666102170944214	movie	1		301.0	13.0	2.5	blank	1.0	180.07817101478577	2.5083119869232178
15	48.874484062194824	response	1	2		13.0	2.5	blank	1.0	182.28655290603638	
15	49.17441415786743	fix_post	2		12.0	13.0	2.5	blank	1.0	182.58648300170898	0.09994888305664062
16	49.27436304092407	fix_pre	0		246.0	14.0	2.5	/experiments/knapen_aot/videos/S_yt-2l6VKd94eAI_151.mp4	0.0	182.68643188476562	2.0499229431152344
16	51.3161940574646	response	0	2		14.0	2.5	/experiments/knapen_aot/videos/S_yt-2l6VKd94eAI_151.mp4	0.0	184.72826290130615	
16	51.32428598403931	movie	1		301.0	14.0	2.5	/experiments/knapen_aot/videos/S_yt-2l6VKd94eAI_151.mp4	0.0	184.73635482788086	2.508510112762451
16	53.83279609680176	fix_post	2		12.0	14.0	2.5	/experiments/knapen_aot/videos/S_yt-2l6VKd94eAI_151.mp4	0.0	187.2448649406433	0.09995102882385254
17	53.93274712562561	fix_pre	0		48.0	15.0	2.5	/experiments/knapen_aot/videos/R_S_yt-k-MRlbCOzZU_163.mp4	0.0	187.34481596946716	0.39995503425598145
17	54.32450008392334	response	0	2		15.0	2.5	/experiments/knapen_aot/videos/R_S_yt-k-MRlbCOzZU_163.mp4	0.0	187.7365689277649	
17	54.33270215988159	movie	1		301.0	15.0	2.5	/experiments/knapen_aot/videos/R_S_yt-k-MRlbCOzZU_163.mp4	0.0	187.74477100372314	2.5082859992980957
17	56.84098815917969	fix_post	2		12.0	15.0	2.5	/experiments/knapen_aot/videos/R_S_yt-k-MRlbCOzZU_163.mp4	0.0	190.25305700302124	0.10020279884338379
18	56.94119095802307	fix_pre	0		44.0	16.0	2.5	/experiments/knapen_aot/videos/R_S_yt-lv6mhnH7_g4_134.mp4	0.0	190.35325980186462	0.3665120601654053
18	57.2993950843811	response	0	2		16.0	2.5	/experiments/knapen_aot/videos/R_S_yt-lv6mhnH7_g4_134.mp4	0.0	190.71146392822266	
18	57.30770301818848	movie	1		301.0	16.0	2.5	/experiments/knapen_aot/videos/R_S_yt-lv6mhnH7_g4_134.mp4	0.0	190.71977186203003	2.508427143096924
18	59.8161301612854	fix_post	2		12.0	16.0	2.5	/experiments/knapen_aot/videos/R_S_yt-lv6mhnH7_g4_134.mp4	0.0	193.22819900512695	0.09989094734191895
19	59.91602110862732	fix_pre	0		83.0	17.0	2.5	/experiments/knapen_aot/videos/S_ILSVRC2015_train_00405000.mp4	0.0	193.32808995246887	0.6916849613189697
19	60.59936714172363	response	0	2		17.0	2.5	/experiments/knapen_aot/videos/S_ILSVRC2015_train_00405000.mp4	0.0	194.01143598556519	
19	60.60770606994629	movie	1		301.0	17.0	2.5	/experiments/knapen_aot/videos/S_ILSVRC2015_train_00405000.mp4	0.0	194.01977491378784	2.5083398818969727
19	63.11604595184326	fix_post	2		12.0	17.0	2.5	/experiments/knapen_aot/videos/S_ILSVRC2015_train_00405000.mp4	0.0	196.52811479568481	0.09998011589050293
20	63.216026067733765	fix_pre	0		48.0	18.0	2.5	/experiments/knapen_aot/videos/R_S_yt-o_CT2MjZ9fA_216.mp4	0.0	196.62809491157532	0.4083220958709717
20	63.60787606239319	response	0	2		18.0	2.5	/experiments/knapen_aot/videos/R_S_yt-o_CT2MjZ9fA_216.mp4	0.0	197.01994490623474	
20	63.624348163604736	movie	1		300.0	18.0	2.5	/experiments/knapen_aot/videos/R_S_yt-o_CT2MjZ9fA_216.mp4	0.0	197.0364170074463	2.5002269744873047
20	66.12457513809204	fix_post	2		12.0	18.0	2.5	/experiments/knapen_aot/videos/R_S_yt-o_CT2MjZ9fA_216.mp4	0.0	199.5366439819336	0.09966301918029785
21	66.22423815727234	fix_pre	0		203.0	19.0	2.5	/experiments/knapen_aot/videos/R_S_pexels-kampus-production-6022792.mp4	0.0	199.6363070011139	1.691741943359375
21	67.90778112411499	response	0	2		19.0	2.5	/experiments/knapen_aot/videos/R_S_pexels-kampus-production-6022792.mp4	0.0	201.31984996795654	
21	67.91598010063171	movie	1		164.0	19.0	2.5	/experiments/knapen_aot/videos/R_S_pexels-kampus-production-6022792.mp4	0.0	201.32804894447327	2.5083420276641846
21	70.4243221282959	fix_post	2		12.0	19.0	2.5	/experiments/knapen_aot/videos/R_S_pexels-kampus-production-6022792.mp4	0.0	203.83639097213745	0.09998083114624023
22	70.52430295944214	fix_pre	0		17.0	20.0	2.5	blank	1.0	203.9363718032837	0.14181208610534668
22	70.6502890586853	response	0	2		20.0	2.5	blank	1.0	204.06235790252686	
22	70.66611504554749	movie	1		301.0	20.0	2.5	blank	1.0	204.07818388938904	2.5082600116729736
22	73.17437505722046	fix_post	2		12.0	20.0	2.5	blank	1.0	206.586443901062	0.1001129150390625
23	73.27448797225952	fix_pre	0		38.0	21.0	2.5	/experiments/knapen_aot/videos/R_S_yt-J2PiBa1MXI0_210.mp4	0.0	206.68655681610107	0.31647515296936035
23	73.58276700973511	response	0	2		21.0	2.5	/experiments/knapen_aot/videos/R_S_yt-J2PiBa1MXI0_210.mp4	0.0	206.99483585357666	
23	73.59096312522888	movie	1		301.0	21.0	2.5	/experiments/knapen_aot/videos/R_S_yt-J2PiBa1MXI0_210.mp4	0.0	207.00303196907043	2.5084338188171387
23	76.09939694404602	fix_post	2		12.0	21.0	2.5	/experiments/knapen_aot/videos/R_S_yt-J2PiBa1MXI0_210.mp4	0.0	209.51146578788757	0.09986114501953125
24	76.19925808906555	fix_pre	0		57.0	22.0	2.5	/experiments/knapen_aot/videos/S_yt-GWlwb2QsxIA_48.mp4	0.0	209.6113269329071	0.47490906715393066
24	76.6660521030426	response	0	2		22.0	2.5	/experiments/knapen_aot/videos/S_yt-GWlwb2QsxIA_48.mp4	0.0	210.07812094688416	
24	76.67416715621948	movie	1		301.0	22.0	2.5	/experiments/knapen_aot/videos/S_yt-GWlwb2QsxIA_48.mp4	0.0	210.08623600006104	2.5085999965667725
24	79.18276715278625	fix_post	2		12.0	22.0	2.5	/experiments/knapen_aot/videos/S_yt-GWlwb2QsxIA_48.mp4	0.0	212.5948359966278	0.0998389720916748
25	79.28260612487793	fix_pre	0		33.0	23.0	2.5	/experiments/knapen_aot/videos/S_yt-cgwHIb9LAFc_336.mp4	0.0	212.69467496871948	0.27498483657836914
25	79.54929804801941	response	0	2		23.0	2.5	/experiments/knapen_aot/videos/S_yt-cgwHIb9LAFc_336.mp4	0.0	212.96136689186096	
25	79.5575909614563	movie	1		301.0	23.0	2.5	/experiments/knapen_aot/videos/S_yt-cgwHIb9LAFc_336.mp4	0.0	212.96965980529785	2.508366107940674
25	82.06595706939697	fix_post	2		12.0	23.0	2.5	/experiments/knapen_aot/videos/S_yt-cgwHIb9LAFc_336.mp4	0.0	215.47802591323853	0.09992289543151855
26	82.16587996482849	fix_pre	0		28.0	24.0	2.5	/experiments/knapen_aot/videos/R_S_yt-SgiTZNjCPCo_19.mp4	0.0	215.57794880867004	0.2344660758972168
26	82.3909981250763	response	0	2		24.0	2.5	/experiments/knapen_aot/videos/R_S_yt-SgiTZNjCPCo_19.mp4	0.0	215.80306696891785	
26	82.40034604072571	movie	1		301.0	24.0	2.5	/experiments/knapen_aot/videos/R_S_yt-SgiTZNjCPCo_19.mp4	0.0	215.81241488456726	2.5073211193084717
26	84.90766716003418	fix_post	2		12.0	24.0	2.5	/experiments/knapen_aot/videos/R_S_yt-SgiTZNjCPCo_19.mp4	0.0	218.31973600387573	0.09994292259216309
26	84.98276615142822	response	2	2		24.0	2.5	/experiments/knapen_aot/videos/R_S_yt-SgiTZNjCPCo_19.mp4	0.0	218.39483499526978	
27	85.00761008262634	fix_pre	0		55.0	25.0	2.5	/experiments/knapen_aot/videos/R_S_yt-6DJulOrg2-8_122.mp4	0.0	218.4196789264679	0.45828700065612793
27	85.45764803886414	response	0	2		25.0	2.5	/experiments/knapen_aot/videos/R_S_yt-6DJulOrg2-8_122.mp4	0.0	218.8697168827057	
27	85.46589708328247	movie	1		301.0	25.0	2.5	/experiments/knapen_aot/videos/R_S_yt-6DJulOrg2-8_122.mp4	0.0	218.87796592712402	2.5084259510040283
27	87.9743230342865	fix_post	2		12.0	25.0	2.5	/experiments/knapen_aot/videos/R_S_yt-6DJulOrg2-8_122.mp4	0.0	221.38639187812805	0.09989690780639648
28	88.0742199420929	fix_pre	0		10.0	26.0	2.5	blank	1.0	221.48628878593445	0.08360505104064941
28	88.14180898666382	response	0	2		26.0	2.5	blank	1.0	221.55387783050537	
28	88.15782499313354	movie	1		301.0	26.0	2.5	blank	1.0	221.5698938369751	2.508100986480713
28	90.66592597961426	fix_post	2		12.0	26.0	2.5	blank	1.0	224.0779948234558	0.09994912147521973
29	90.76587510108948	fix_pre	0		32.0	27.0	2.5	/experiments/knapen_aot/videos/R_S_yt-cvwUZbYSd4Q_35.mp4	0.0	224.17794394493103	0.2666449546813965
29	91.02425599098206	response	0	2		27.0	2.5	/experiments/knapen_aot/videos/R_S_yt-cvwUZbYSd4Q_35.mp4	0.0	224.4363248348236	
29	91.03252005577087	movie	1		301.0	27.0	2.5	/experiments/knapen_aot/videos/R_S_yt-cvwUZbYSd4Q_35.mp4	0.0	224.44458889961243	2.5084190368652344
29	93.54093909263611	fix_post	2		12.0	27.0	2.5	/experiments/knapen_aot/videos/R_S_yt-cvwUZbYSd4Q_35.mp4	0.0	226.95300793647766	0.09993386268615723
30	93.64087295532227	fix_pre	0		23.0	28.0	2.5	/experiments/knapen_aot/videos/R_S_ILSVRC2015_train_00549000.mp4	0.0	227.05294179916382	0.19176602363586426
30	93.81678414344788	response	0	2		28.0	2.5	/experiments/knapen_aot/videos/R_S_ILSVRC2015_train_00549000.mp4	0.0	227.22885298728943	
30	93.83263897895813	movie	1		301.0	28.0	2.5	/experiments/knapen_aot/videos/R_S_ILSVRC2015_train_00549000.mp4	0.0	227.24470782279968	2.5081610679626465
30	96.12437105178833	response	1	2		28.0	2.5	/experiments/knapen_aot/videos/R_S_ILSVRC2015_train_00549000.mp4	0.0	229.53643989562988	
30	96.34080004692078	fix_post	2		12.0	28.0	2.5	/experiments/knapen_aot/videos/R_S_ILSVRC2015_train_00549000.mp4	0.0	229.75286889076233	0.10013699531555176
31	96.44093704223633	fix_pre	0		418.0	29.0	2.5	/experiments/knapen_aot/videos/R_S_yt-mI9voWol7cE_104.mp4	0.0	229.85300588607788	3.4831929206848145
31	99.91603493690491	response	0	2		29.0	2.5	/experiments/knapen_aot/videos/R_S_yt-mI9voWol7cE_104.mp4	0.0	233.32810378074646	
31	99.92412996292114	movie	1		301.0	29.0	2.5	/experiments/knapen_aot/videos/R_S_yt-mI9voWol7cE_104.mp4	0.0	233.3361988067627	2.508406162261963
31	102.4325361251831	fix_post	2		12.0	29.0	2.5	/experiments/knapen_aot/videos/R_S_yt-mI9voWol7cE_104.mp4	0.0	235.84460496902466	0.10001397132873535
32	102.53255009651184	fix_pre	0		59.0	30.0	2.5	/experiments/knapen_aot/videos/S_ILSVRC2015_train_00354001.mp4	0.0	235.9446189403534	0.49156689643859863
32	103.0084900856018	response	0	2		30.0	2.5	/experiments/knapen_aot/videos/S_ILSVRC2015_train_00354001.mp4	0.0	236.42055892944336	
32	103.02411699295044	movie	1		301.0	30.0	2.5	/experiments/knapen_aot/videos/S_ILSVRC2015_train_00354001.mp4	0.0	236.436185836792	2.5084071159362793
32	105.53252410888672	fix_post	2		12.0	30.0	2.5	/experiments/knapen_aot/videos/S_ILSVRC2015_train_00354001.mp4	0.0	238.94459295272827	0.10025286674499512
33	105.63277697563171	fix_pre	0		38.0	31.0	2.5	/experiments/knapen_aot/videos/S_yt-UPgF4YAHBQY_33.mp4	0.0	239.04484581947327	0.3163261413574219
33	105.94097113609314	response	0	2		31.0	2.5	/experiments/knapen_aot/videos/S_yt-UPgF4YAHBQY_33.mp4	0.0	239.3530399799347	
33	105.94910311698914	movie	1		301.0	31.0	2.5	/experiments/knapen_aot/videos/S_yt-UPgF4YAHBQY_33.mp4	0.0	239.3611719608307	2.508410930633545
33	108.45751404762268	fix_post	2		12.0	31.0	2.5	/experiments/knapen_aot/videos/S_yt-UPgF4YAHBQY_33.mp4	0.0	241.86958289146423	0.0999760627746582
34	108.55749011039734	fix_pre	0		40.0	32.0	2.5	/experiments/knapen_aot/videos/R_S_yt-fP2JRJAFGZ4_25.mp4	0.0	241.9695589542389	0.33332300186157227
34	108.88262701034546	response	0	2		32.0	2.5	/experiments/knapen_aot/videos/R_S_yt-fP2JRJAFGZ4_25.mp4	0.0	242.294695854187	
34	108.89081311225891	movie	1		301.0	32.0	2.5	/experiments/knapen_aot/videos/R_S_yt-fP2JRJAFGZ4_25.mp4	0.0	242.30288195610046	2.5083260536193848
34	111.09088611602783	response	1	2		32.0	2.5	/experiments/knapen_aot/videos/R_S_yt-fP2JRJAFGZ4_25.mp4	0.0	244.50295495986938	
34	111.3991391658783	fix_post	2		12.0	32.0	2.5	/experiments/knapen_aot/videos/R_S_yt-fP2JRJAFGZ4_25.mp4	0.0	244.81120800971985	0.10009479522705078
35	111.49923396110535	fix_pre	0		61.0	33.0	2.5	/experiments/knapen_aot/videos/S_yt-MSdNCUWOp4o_4.mp4	0.0	244.9113028049469	0.5082290172576904
35	111.99918413162231	response	0	2		33.0	2.5	/experiments/knapen_aot/videos/S_yt-MSdNCUWOp4o_4.mp4	0.0	245.41125297546387	
35	112.00746297836304	movie	1		301.0	33.0	2.5	/experiments/knapen_aot/videos/S_yt-MSdNCUWOp4o_4.mp4	0.0	245.4195318222046	2.5083601474761963
35	114.51582312583923	fix_post	2		12.0	33.0	2.5	/experiments/knapen_aot/videos/S_yt-MSdNCUWOp4o_4.mp4	0.0	247.9278919696808	0.10002493858337402
36	114.61584806442261	fix_pre	0		53.0	34.0	2.5	blank	1.0	248.02791690826416	0.4416189193725586
36	115.04924297332764	response	0	2		34.0	2.5	blank	1.0	248.4613118171692	
36	115.05746698379517	movie	1		301.0	34.0	2.5	blank	1.0	248.46953582763672	2.5083730220794678
36	117.56584000587463	fix_post	2		12.0	34.0	2.5	blank	1.0	250.9779088497162	0.09997010231018066
37	117.66581010818481	fix_pre	0		110.0	35.0	2.5	/experiments/knapen_aot/videos/S_yt-Rsfo57AlpLA_332.mp4	0.0	251.07787895202637	0.9166300296783447
37	118.57426905632019	response	0	2		35.0	2.5	/experiments/knapen_aot/videos/S_yt-Rsfo57AlpLA_332.mp4	0.0	251.98633790016174	
37	118.58244013786316	movie	1		301.0	35.0	2.5	/experiments/knapen_aot/videos/S_yt-Rsfo57AlpLA_332.mp4	0.0	251.9945089817047	2.50832200050354
37	121.0907621383667	fix_post	2		12.0	35.0	2.5	/experiments/knapen_aot/videos/S_yt-Rsfo57AlpLA_332.mp4	0.0	254.50283098220825	0.10001492500305176
38	121.19077706336975	fix_pre	0		35.0	36.0	2.5	/experiments/knapen_aot/videos/R_S_comp_GMT306_139NC_139J_3066_CALI_TO_VEGAS_v08_SDR_PS_20180824_SDR_2K_AVC.mp4	0.0	254.6028459072113	0.29251599311828613
38	121.47417211532593	response	0	2		36.0	2.5	/experiments/knapen_aot/videos/R_S_comp_GMT306_139NC_139J_3066_CALI_TO_VEGAS_v08_SDR_PS_20180824_SDR_2K_AVC.mp4	0.0	254.88624095916748	
38	121.48329305648804	movie	1		163.0	36.0	2.5	/experiments/knapen_aot/videos/R_S_comp_GMT306_139NC_139J_3066_CALI_TO_VEGAS_v08_SDR_PS_20180824_SDR_2K_AVC.mp4	0.0	254.8953619003296	2.5074679851531982
38	123.99076104164124	fix_post	2		12.0	36.0	2.5	/experiments/knapen_aot/videos/R_S_comp_GMT306_139NC_139J_3066_CALI_TO_VEGAS_v08_SDR_PS_20180824_SDR_2K_AVC.mp4	0.0	257.4028298854828	0.09997010231018066
39	124.09073114395142	fix_pre	0		50.0	37.0	2.5	/experiments/knapen_aot/videos/R_S_82eJpVKGnC0_188.mp4	0.0	257.50279998779297	0.41666388511657715
39	124.49160194396973	response	0	2		37.0	2.5	/experiments/knapen_aot/videos/R_S_82eJpVKGnC0_188.mp4	0.0	257.9036707878113	
39	124.507395029068	movie	1		301.0	37.0	2.5	/experiments/knapen_aot/videos/R_S_82eJpVKGnC0_188.mp4	0.0	257.91946387290955	2.508394956588745
39	127.01578998565674	fix_post	2		12.0	37.0	2.5	/experiments/knapen_aot/videos/R_S_82eJpVKGnC0_188.mp4	0.0	260.4278588294983	0.09995102882385254
40	127.11574101448059	fix_pre	0		5.0	38.0	2.5	/experiments/knapen_aot/videos/R_S_yt-iKe-0YNR5Eo_164.mp4	0.0	260.52780985832214	0.04177498817443848
40	127.14916014671326	response	0	2		38.0	2.5	/experiments/knapen_aot/videos/R_S_yt-iKe-0YNR5Eo_164.mp4	0.0	260.5612289905548	
40	127.15751600265503	movie	1		301.0	38.0	2.5	/experiments/knapen_aot/videos/R_S_yt-iKe-0YNR5Eo_164.mp4	0.0	260.5695848464966	2.50816011428833
40	129.66567611694336	fix_post	2		12.0	38.0	2.5	/experiments/knapen_aot/videos/R_S_yt-iKe-0YNR5Eo_164.mp4	0.0	263.0777449607849	0.10009598731994629
41	129.7657721042633	fix_pre	0		38.0	39.0	2.5	/experiments/knapen_aot/videos/R_S_pexels-koolshooters-7327401_1.mp4	0.0	263.17784094810486	0.31657886505126953
41	130.07417607307434	response	0	2		39.0	2.5	/experiments/knapen_aot/videos/R_S_pexels-koolshooters-7327401_1.mp4	0.0	263.4862449169159	
41	130.08235096931458	movie	1		172.0	39.0	2.5	/experiments/knapen_aot/videos/R_S_pexels-koolshooters-7327401_1.mp4	0.0	263.4944198131561	2.5083701610565186
41	132.5907211303711	fix_post	2		12.0	39.0	2.5	/experiments/knapen_aot/videos/R_S_pexels-koolshooters-7327401_1.mp4	0.0	266.00278997421265	0.09995484352111816
42	132.6906759738922	fix_pre	0		21.0	40.0	2.5	/experiments/knapen_aot/videos/S_yt-AbJBxqEYoMg_27.mp4	0.0	266.10274481773376	0.1749720573425293
42	132.85752296447754	response	0	2		40.0	2.5	/experiments/knapen_aot/videos/S_yt-AbJBxqEYoMg_27.mp4	0.0	266.2695918083191	
42	132.86564803123474	movie	1		301.0	40.0	2.5	/experiments/knapen_aot/videos/S_yt-AbJBxqEYoMg_27.mp4	0.0	266.2777168750763	2.5083730220794678
42	135.3740210533142	fix_post	2		12.0	40.0	2.5	/experiments/knapen_aot/videos/S_yt-AbJBxqEYoMg_27.mp4	0.0	268.78608989715576	0.10004997253417969
43	135.4740710258484	fix_pre	0		37.0	41.0	2.5	/experiments/knapen_aot/videos/R_S_ILSVRC2015_train_00479001.mp4	0.0	268.88613986968994	0.3082709312438965
43	135.7741460800171	response	0	2		41.0	2.5	/experiments/knapen_aot/videos/R_S_ILSVRC2015_train_00479001.mp4	0.0	269.18621492385864	
43	135.78234195709229	movie	1		301.0	41.0	2.5	/experiments/knapen_aot/videos/R_S_ILSVRC2015_train_00479001.mp4	0.0	269.19441080093384	2.508345127105713
43	138.290687084198	fix_post	2		12.0	41.0	2.5	/experiments/knapen_aot/videos/R_S_ILSVRC2015_train_00479001.mp4	0.0	271.70275592803955	0.09991288185119629
44	138.3905999660492	fix_pre	0		29.0	42.0	2.5	blank	1.0	271.80266880989075	0.241685152053833
44	138.6241590976715	response	0	2		42.0	2.5	blank	1.0	272.03622794151306	
44	138.63228511810303	movie	1		301.0	42.0	2.5	blank	1.0	272.0443539619446	2.508431911468506
44	141.14071702957153	fix_post	2		12.0	42.0	2.5	blank	1.0	274.5527858734131	0.09999704360961914
45	141.24071407318115	fix_pre	0		49.0	43.0	2.5	/experiments/knapen_aot/videos/S_yt-5fZZrdwkFx0_28.mp4	0.0	274.6527829170227	0.4091300964355469
45	141.64092803001404	response	0	2		43.0	2.5	/experiments/knapen_aot/videos/S_yt-5fZZrdwkFx0_28.mp4	0.0	275.0529968738556	
45	141.6498441696167	movie	1		301.0	43.0	2.5	/experiments/knapen_aot/videos/S_yt-5fZZrdwkFx0_28.mp4	0.0	275.06191301345825	2.507567882537842
45	144.15741205215454	fix_post	2		12.0	43.0	2.5	/experiments/knapen_aot/videos/S_yt-5fZZrdwkFx0_28.mp4	0.0	277.5694808959961	0.09991693496704102
46	144.25732898712158	fix_pre	0		29.0	44.0	2.5	/experiments/knapen_aot/videos/S_yt-OLDm2slgfA4_3.mp4	0.0	277.66939783096313	0.24160313606262207
46	144.49080610275269	response	0	2		44.0	2.5	/experiments/knapen_aot/videos/S_yt-OLDm2slgfA4_3.mp4	0.0	277.90287494659424	
46	144.4989321231842	movie	1		301.0	44.0	2.5	/experiments/knapen_aot/videos/S_yt-OLDm2slgfA4_3.mp4	0.0	277.91100096702576	2.5083959102630615
46	147.00732803344727	fix_post	2		12.0	44.0	2.5	/experiments/knapen_aot/videos/S_yt-OLDm2slgfA4_3.mp4	0.0	280.4193968772888	0.10000205039978027
47	147.10733008384705	fix_pre	0		37.0	45.0	2.5	/experiments/knapen_aot/videos/R_S_yt-7W50lcw5FCo_37.mp4	0.0	280.5193989276886	0.30830907821655273
47	147.4073941707611	response	0	2		45.0	2.5	/experiments/knapen_aot/videos/R_S_yt-7W50lcw5FCo_37.mp4	0.0	280.81946301460266	
47	147.4156391620636	movie	1		301.0	45.0	2.5	/experiments/knapen_aot/videos/R_S_yt-7W50lcw5FCo_37.mp4	0.0	280.82770800590515	2.5083608627319336
47	149.67412900924683	response	1	2		45.0	2.5	/experiments/knapen_aot/videos/R_S_yt-7W50lcw5FCo_37.mp4	0.0	283.0861978530884	
47	149.92400002479553	fix_post	2		12.0	45.0	2.5	/experiments/knapen_aot/videos/R_S_yt-7W50lcw5FCo_37.mp4	0.0	283.3360688686371	0.10021305084228516
48	150.02421307563782	fix_pre	0		89.0	46.0	2.5	/experiments/knapen_aot/videos/R_S_yt-lEPoNlKWibA_1.mp4	0.0	283.43628191947937	0.7413768768310547
48	150.75742411613464	response	0	2		46.0	2.5	/experiments/knapen_aot/videos/R_S_yt-lEPoNlKWibA_1.mp4	0.0	284.1694929599762	
48	150.76558995246887	movie	1		301.0	46.0	2.5	/experiments/knapen_aot/videos/R_S_yt-lEPoNlKWibA_1.mp4	0.0	284.1776587963104	2.50832200050354
48	153.2739119529724	fix_post	2		12.0	46.0	2.5	/experiments/knapen_aot/videos/R_S_yt-lEPoNlKWibA_1.mp4	0.0	286.68598079681396	0.10014605522155762
49	153.37405800819397	fix_pre	0		188.0	47.0	2.5	blank	1.0	286.7861268520355	1.567389965057373
49	154.93241906166077	response	0	2		47.0	2.5	blank	1.0	288.3444879055023	
49	154.94144797325134	movie	1		301.0	47.0	2.5	blank	1.0	288.3535168170929	2.5075290203094482
49	157.4489769935608	fix_post	2		12.0	47.0	2.5	blank	1.0	290.86104583740234	0.09998297691345215
50	157.54895997047424	fix_pre	0		41.0	48.0	2.5	/experiments/knapen_aot/videos/S_wc-oyG6AjP_W2EL_15.mp4	0.0	290.9610288143158	0.3416001796722412
50	157.88240909576416	response	0	2		48.0	2.5	/experiments/knapen_aot/videos/S_wc-oyG6AjP_W2EL_15.mp4	0.0	291.2944779396057	
50	157.89056015014648	movie	1		301.0	48.0	2.5	/experiments/knapen_aot/videos/S_wc-oyG6AjP_W2EL_15.mp4	0.0	291.30262899398804	2.5083730220794678
50	160.39893317222595	fix_post	2		12.0	48.0	2.5	/experiments/knapen_aot/videos/S_wc-oyG6AjP_W2EL_15.mp4	0.0	293.8110020160675	0.09999990463256836
51	160.49893307685852	fix_pre	0		31.0	49.0	2.5	/experiments/knapen_aot/videos/S_82eJpVKGnC0_188.mp4	0.0	293.9110019207001	0.2582869529724121
51	160.74905109405518	response	0	2		49.0	2.5	/experiments/knapen_aot/videos/S_82eJpVKGnC0_188.mp4	0.0	294.16111993789673	
51	160.75722002983093	movie	1		301.0	49.0	2.5	/experiments/knapen_aot/videos/S_82eJpVKGnC0_188.mp4	0.0	294.1692888736725	2.508430004119873
51	163.1240770816803	response	1	2		49.0	2.5	/experiments/knapen_aot/videos/S_82eJpVKGnC0_188.mp4	0.0	296.53614592552185	
51	163.2656500339508	fix_post	2		12.0	49.0	2.5	/experiments/knapen_aot/videos/S_82eJpVKGnC0_188.mp4	0.0	296.67771887779236	0.09998297691345215
52	163.36563301086426	fix_pre	0		220.0	50.0	2.5	/experiments/knapen_aot/videos/R_S_yt-hRAqAwRhmwE_58.mp4	0.0	296.7777018547058	1.8332910537719727
52	165.1907501220703	response	0	2		50.0	2.5	/experiments/knapen_aot/videos/R_S_yt-hRAqAwRhmwE_58.mp4	0.0	298.60281896591187	
52	165.19892406463623	movie	1		301.0	50.0	2.5	/experiments/knapen_aot/videos/R_S_yt-hRAqAwRhmwE_58.mp4	0.0	298.6109929084778	2.508333921432495
52	167.70725798606873	fix_post	2		12.0	50.0	2.5	/experiments/knapen_aot/videos/R_S_yt-hRAqAwRhmwE_58.mp4	0.0	301.1193268299103	0.1000521183013916
53	167.80731010437012	fix_pre	0		57.0	51.0	2.5	/experiments/knapen_aot/videos/R_S_production_ID_3944248.mp4	0.0	301.21937894821167	0.47496795654296875
53	168.27416396141052	response	0	2		51.0	2.5	/experiments/knapen_aot/videos/R_S_production_ID_3944248.mp4	0.0	301.6862328052521	
53	168.2822780609131	movie	1		174.0	51.0	2.5	/experiments/knapen_aot/videos/R_S_production_ID_3944248.mp4	0.0	301.69434690475464	2.5082919597625732
53	170.79057002067566	fix_post	2		12.0	51.0	2.5	/experiments/knapen_aot/videos/R_S_production_ID_3944248.mp4	0.0	304.2026388645172	0.1000361442565918
54	170.89060616493225	fix_pre	0		68.0	52.0	2.5	/experiments/knapen_aot/videos/S_yt-NOnR6C2sjpI_97.mp4	0.0	304.3026750087738	0.5666029453277588
54	171.44902110099792	response	0	2		52.0	2.5	/experiments/knapen_aot/videos/S_yt-NOnR6C2sjpI_97.mp4	0.0	304.8610899448395	
54	171.45720911026	movie	1		300.0	52.0	2.5	/experiments/knapen_aot/videos/S_yt-NOnR6C2sjpI_97.mp4	0.0	304.86927795410156	2.5087170600891113
54	173.96592617034912	fix_post	2		12.0	52.0	2.5	/experiments/knapen_aot/videos/S_yt-NOnR6C2sjpI_97.mp4	0.0	307.3779950141907	0.09967589378356934
55	174.0656020641327	fix_pre	0		135.0	53.0	2.5	/experiments/knapen_aot/videos/R_S_yt-g_CLzrCYHoc_7.mp4	0.0	307.47767090797424	1.1255989074707031
55	175.182284116745	response	0	2		53.0	2.5	/experiments/knapen_aot/videos/R_S_yt-g_CLzrCYHoc_7.mp4	0.0	308.59435296058655	
55	175.1912009716034	movie	1		301.0	53.0	2.5	/experiments/knapen_aot/videos/R_S_yt-g_CLzrCYHoc_7.mp4	0.0	308.60326981544495	2.507737159729004
55	177.6989381313324	fix_post	2		12.0	53.0	2.5	/experiments/knapen_aot/videos/R_S_yt-g_CLzrCYHoc_7.mp4	0.0	311.11100697517395	0.09993290901184082
56	177.79887104034424	fix_pre	0		45.0	54.0	2.5	blank	1.0	311.2109398841858	0.37494397163391113
56	178.1656551361084	response	0	2		54.0	2.5	blank	1.0	311.57772397994995	
56	178.17381501197815	movie	1		301.0	54.0	2.5	blank	1.0	311.5858838558197	2.5083091259002686
56	180.68212413787842	fix_post	2		12.0	54.0	2.5	blank	1.0	314.09419298171997	0.10013890266418457
57	180.7822630405426	fix_pre	0		28.0	55.0	2.5	/experiments/knapen_aot/videos/R_S_wc-q23aBNJMZbnZ_27.mp4	0.0	314.19433188438416	0.23319697380065918
57	181.0072841644287	response	0	2		55.0	2.5	/experiments/knapen_aot/videos/R_S_wc-q23aBNJMZbnZ_27.mp4	0.0	314.41935300827026	
57	181.01546001434326	movie	1		163.0	55.0	2.5	/experiments/knapen_aot/videos/R_S_wc-q23aBNJMZbnZ_27.mp4	0.0	314.4275288581848	2.5083889961242676
57	183.52384901046753	fix_post	2		12.0	55.0	2.5	/experiments/knapen_aot/videos/R_S_wc-q23aBNJMZbnZ_27.mp4	0.0	316.9359178543091	0.10004115104675293
58	183.62389016151428	fix_pre	0		40.0	56.0	2.5	/experiments/knapen_aot/videos/R_S_IrGYVLkWeQs_9.mp4	0.0	317.03595900535583	0.33327293395996094
58	183.94896411895752	response	0	2		56.0	2.5	/experiments/knapen_aot/videos/R_S_IrGYVLkWeQs_9.mp4	0.0	317.3610329627991	
58	183.95716309547424	movie	1		301.0	56.0	2.5	/experiments/knapen_aot/videos/R_S_IrGYVLkWeQs_9.mp4	0.0	317.3692319393158	2.508349895477295
58	186.46551299095154	fix_post	2		12.0	56.0	2.5	/experiments/knapen_aot/videos/R_S_IrGYVLkWeQs_9.mp4	0.0	319.8775818347931	0.1000220775604248
59	186.56553506851196	fix_pre	0		21.0	57.0	2.5	/experiments/knapen_aot/videos/R_S_yt-IlW1U39Dga4_5.mp4	0.0	319.9776039123535	0.1749410629272461
59	186.73216199874878	response	0	2		57.0	2.5	/experiments/knapen_aot/videos/R_S_yt-IlW1U39Dga4_5.mp4	0.0	320.14423084259033	
59	186.7404761314392	movie	1		301.0	57.0	2.5	/experiments/knapen_aot/videos/R_S_yt-IlW1U39Dga4_5.mp4	0.0	320.15254497528076	2.508363962173462
59	189.24884009361267	fix_post	2		12.0	57.0	2.5	/experiments/knapen_aot/videos/R_S_yt-IlW1U39Dga4_5.mp4	0.0	322.6609089374542	0.09991192817687988
60	189.34875202178955	fix_pre	0		34.0	58.0	2.5	/experiments/knapen_aot/videos/S_yt-M5qZo3CUXYE_27.mp4	0.0	322.7608208656311	0.2833740711212158
60	189.62386298179626	response	0	2		58.0	2.5	/experiments/knapen_aot/videos/S_yt-M5qZo3CUXYE_27.mp4	0.0	323.0359318256378	
60	189.63212609291077	movie	1		298.0	58.0	2.5	/experiments/knapen_aot/videos/S_yt-M5qZo3CUXYE_27.mp4	0.0	323.0441949367523	2.508347988128662
60	192.14047408103943	fix_post	2		12.0	58.0	2.5	/experiments/knapen_aot/videos/S_yt-M5qZo3CUXYE_27.mp4	0.0	325.552542924881	0.09999895095825195
61	192.24047303199768	fix_pre	0		101.0	59.0	2.5	/experiments/knapen_aot/videos/S_yt-uT4MXm0UBJM_64.mp4	0.0	325.65254187583923	0.8416171073913574
61	193.07391715049744	response	0	2		59.0	2.5	/experiments/knapen_aot/videos/S_yt-uT4MXm0UBJM_64.mp4	0.0	326.485985994339	
61	193.08209013938904	movie	1		301.0	59.0	2.5	/experiments/knapen_aot/videos/S_yt-uT4MXm0UBJM_64.mp4	0.0	326.4941589832306	2.5087778568267822
61	195.59086799621582	fix_post	2		12.0	59.0	2.5	/experiments/knapen_aot/videos/S_yt-uT4MXm0UBJM_64.mp4	0.0	329.0029368400574	0.0995171070098877
62	195.6903851032257	fix_pre	0		29.0	60.0	2.5	/experiments/knapen_aot/videos/S_pexels-koolshooters-7327401_1.mp4	0.0	329.10245394706726	0.24170589447021484
62	195.92389607429504	response	0	2		60.0	2.5	/experiments/knapen_aot/videos/S_pexels-koolshooters-7327401_1.mp4	0.0	329.3359649181366	
62	195.93209099769592	movie	1		166.0	60.0	2.5	/experiments/knapen_aot/videos/S_pexels-koolshooters-7327401_1.mp4	0.0	329.3441598415375	2.5083730220794678
62	198.12251996994019	response	1	2		60.0	2.5	/experiments/knapen_aot/videos/S_pexels-koolshooters-7327401_1.mp4	0.0	331.53458881378174	
62	198.4404640197754	fix_post	2		12.0	60.0	2.5	/experiments/knapen_aot/videos/S_pexels-koolshooters-7327401_1.mp4	0.0	331.85253286361694	0.10003304481506348
63	198.54049706459045	fix_pre	0		72.0	61.0	2.5	blank	1.0	331.952565908432	0.599963903427124
63	199.13226294517517	response	0	2		61.0	2.5	blank	1.0	332.5443317890167	
63	199.14046096801758	movie	1		301.0	61.0	2.5	blank	1.0	332.55252981185913	2.5084500312805176
63	201.6489109992981	fix_post	2		12.0	61.0	2.5	blank	1.0	335.06097984313965	0.09996509552001953
64	201.74887609481812	fix_pre	0		21.0	62.0	2.5	/experiments/knapen_aot/videos/R_S_yt-hRAqAwRhmwE_58.mp4	0.0	335.16094493865967	0.17487788200378418
64	201.9155490398407	response	0	2		62.0	2.5	/experiments/knapen_aot/videos/R_S_yt-hRAqAwRhmwE_58.mp4	0.0	335.32761788368225	
64	201.9237539768219	movie	1		301.0	62.0	2.5	/experiments/knapen_aot/videos/R_S_yt-hRAqAwRhmwE_58.mp4	0.0	335.33582282066345	2.508324146270752
64	202.39590311050415	response	1	2		62.0	2.5	/experiments/knapen_aot/videos/R_S_yt-hRAqAwRhmwE_58.mp4	0.0	335.8079719543457	
64	204.43207812309265	fix_post	2		12.0	62.0	2.5	/experiments/knapen_aot/videos/R_S_yt-hRAqAwRhmwE_58.mp4	0.0	337.8441469669342	0.10003805160522461
65	204.53211617469788	fix_pre	0		24.0	63.0	2.5	/experiments/knapen_aot/videos/R_S_ILSVRC2015_train_00613000.mp4	0.0	337.94418501853943	0.20041799545288086
65	204.72381806373596	response	0	2		63.0	2.5	/experiments/knapen_aot/videos/R_S_ILSVRC2015_train_00613000.mp4	0.0	338.1358869075775	
65	204.73253417015076	movie	1		301.0	63.0	2.5	/experiments/knapen_aot/videos/R_S_ILSVRC2015_train_00613000.mp4	0.0	338.1446030139923	2.507910966873169
65	207.24044513702393	fix_post	2		12.0	63.0	2.5	/experiments/knapen_aot/videos/R_S_ILSVRC2015_train_00613000.mp4	0.0	340.6525139808655	0.09998893737792969
66	207.34043407440186	fix_pre	0		45.0	64.0	2.5	/experiments/knapen_aot/videos/S_pexels-cottonbro-10639398.mp4	0.0	340.7525029182434	0.3749349117279053
66	207.70718812942505	response	0	2		64.0	2.5	/experiments/knapen_aot/videos/S_pexels-cottonbro-10639398.mp4	0.0	341.1192569732666	
66	207.71536898612976	movie	1		187.0	64.0	2.5	/experiments/knapen_aot/videos/S_pexels-cottonbro-10639398.mp4	0.0	341.1274378299713	2.5083181858062744
66	210.22368717193604	fix_post	2		12.0	64.0	2.5	/experiments/knapen_aot/videos/S_pexels-cottonbro-10639398.mp4	0.0	343.6357560157776	0.10004997253417969
67	210.32373714447021	fix_pre	0		33.0	65.0	2.5	/experiments/knapen_aot/videos/R_S_production_ID_4269182.mp4	0.0	343.73580598831177	0.274960994720459
67	210.59043407440186	response	0	2		65.0	2.5	/experiments/knapen_aot/videos/R_S_production_ID_4269182.mp4	0.0	344.0025029182434	
67	210.59869813919067	movie	1		197.0	65.0	2.5	/experiments/knapen_aot/videos/R_S_production_ID_4269182.mp4	0.0	344.0107669830322	2.5083799362182617
67	213.10707807540894	fix_post	2		12.0	65.0	2.5	/experiments/knapen_aot/videos/R_S_production_ID_4269182.mp4	0.0	346.5191469192505	0.10012006759643555
68	213.20719814300537	fix_pre	0		70.0	66.0	2.5	/experiments/knapen_aot/videos/R_S_video-3.mp4	0.0	346.6192669868469	0.5832309722900391
68	213.7822070121765	response	0	2		66.0	2.5	/experiments/knapen_aot/videos/R_S_video-3.mp4	0.0	347.19427585601807	
68	213.7904291152954	movie	1		167.0	66.0	2.5	/experiments/knapen_aot/videos/R_S_video-3.mp4	0.0	347.20249795913696	2.508335828781128
68	216.19060707092285	response	1	2		66.0	2.5	/experiments/knapen_aot/videos/R_S_video-3.mp4	0.0	349.6026759147644	
68	216.29876494407654	fix_post	2		12.0	66.0	2.5	/experiments/knapen_aot/videos/R_S_video-3.mp4	0.0	349.7108337879181	0.10042309761047363
69	216.399188041687	fix_pre	0		165.0	67.0	2.5	/experiments/knapen_aot/videos/S_yt-cM5PvgE7aJs_243.mp4	0.0	349.81125688552856	1.3748939037322998
69	217.76554107666016	response	0	2		67.0	2.5	/experiments/knapen_aot/videos/S_yt-cM5PvgE7aJs_243.mp4	0.0	351.1776099205017	
69	217.7740819454193	movie	1		301.0	67.0	2.5	/experiments/knapen_aot/videos/S_yt-cM5PvgE7aJs_243.mp4	0.0	351.18615078926086	2.5079710483551025
69	220.2820529937744	fix_post	2		12.0	67.0	2.5	/experiments/knapen_aot/videos/S_yt-cM5PvgE7aJs_243.mp4	0.0	353.69412183761597	0.09997701644897461
70	220.3820300102234	fix_pre	0		24.0	68.0	2.5	blank	1.0	353.79409885406494	0.20003199577331543
70	220.56627011299133	response	0	2		68.0	2.5	blank	1.0	353.9783389568329	
70	220.5820620059967	movie	1		301.0	68.0	2.5	blank	1.0	353.99413084983826	2.5083210468292236
70	223.09038305282593	fix_post	2		12.0	68.0	2.5	blank	1.0	356.5024518966675	0.10055088996887207
71	223.1909339427948	fix_pre	0		44.0	69.0	2.5	/experiments/knapen_aot/videos/R_S_yt-9t5-3Qe_t9A_591.mp4	0.0	356.60300278663635	0.3660571575164795
71	223.54879307746887	response	0	2		69.0	2.5	/experiments/knapen_aot/videos/R_S_yt-9t5-3Qe_t9A_591.mp4	0.0	356.9608619213104	
71	223.55699110031128	movie	1		301.0	69.0	2.5	/experiments/knapen_aot/videos/R_S_yt-9t5-3Qe_t9A_591.mp4	0.0	356.96905994415283	2.5083680152893066
71	226.0653591156006	fix_post	2		12.0	69.0	2.5	/experiments/knapen_aot/videos/R_S_yt-9t5-3Qe_t9A_591.mp4	0.0	359.47742795944214	0.09993386268615723
72	226.16529297828674	fix_pre	0		4.0	70.0	2.5	/experiments/knapen_aot/videos/S_yt-tX5U0Lyo6Gs_376.mp4	0.0	359.5773618221283	0.03340601921081543
72	226.19056606292725	response	0	2		70.0	2.5	/experiments/knapen_aot/videos/S_yt-tX5U0Lyo6Gs_376.mp4	0.0	359.6026349067688	
72	226.19869899749756	movie	1		301.0	70.0	2.5	/experiments/knapen_aot/videos/S_yt-tX5U0Lyo6Gs_376.mp4	0.0	359.6107678413391	2.508371114730835
72	228.7070701122284	fix_post	2		12.0	70.0	2.5	/experiments/knapen_aot/videos/S_yt-tX5U0Lyo6Gs_376.mp4	0.0	362.11913895606995	0.09994983673095703
73	228.80701994895935	fix_pre	0		25.0	71.0	2.5	/experiments/knapen_aot/videos/R_S_yt-Ryb0K9lGPrg_5.mp4	0.0	362.2190887928009	0.20826220512390137
73	229.0069751739502	response	0	2		71.0	2.5	/experiments/knapen_aot/videos/R_S_yt-Ryb0K9lGPrg_5.mp4	0.0	362.41904401779175	
73	229.01528215408325	movie	1		301.0	71.0	2.5	/experiments/knapen_aot/videos/R_S_yt-Ryb0K9lGPrg_5.mp4	0.0	362.4273509979248	2.508356809616089
73	230.86543107032776	response	1	2		71.0	2.5	/experiments/knapen_aot/videos/R_S_yt-Ryb0K9lGPrg_5.mp4	0.0	364.2774999141693	
73	231.52363896369934	fix_post	2		12.0	71.0	2.5	/experiments/knapen_aot/videos/R_S_yt-Ryb0K9lGPrg_5.mp4	0.0	364.9357078075409	0.09994101524353027
74	231.62357997894287	fix_pre	0		147.0	72.0	2.5	/experiments/knapen_aot/videos/R_S_yt-bH4nJibL4Jo_164.mp4	0.0	365.0356488227844	1.2250239849090576
74	232.84034895896912	response	0	2		72.0	2.5	/experiments/knapen_aot/videos/R_S_yt-bH4nJibL4Jo_164.mp4	0.0	366.25241780281067	
74	232.84860396385193	movie	1		301.0	72.0	2.5	/experiments/knapen_aot/videos/R_S_yt-bH4nJibL4Jo_164.mp4	0.0	366.2606728076935	2.5084002017974854
74	235.24042797088623	response	1	2		72.0	2.5	/experiments/knapen_aot/videos/R_S_yt-bH4nJibL4Jo_164.mp4	0.0	368.6524968147278	
74	235.3570041656494	fix_post	2		12.0	72.0	2.5	/experiments/knapen_aot/videos/R_S_yt-bH4nJibL4Jo_164.mp4	0.0	368.76907300949097	0.09996581077575684
75	235.45696997642517	fix_pre	0		191.0	73.0	2.5	/experiments/knapen_aot/videos/R_S_yt-11S5tcT2Tm0_254.mp4	0.0	368.8690388202667	1.5916240215301514
75	237.0403380393982	response	0	2		73.0	2.5	/experiments/knapen_aot/videos/R_S_yt-11S5tcT2Tm0_254.mp4	0.0	370.45240688323975	
75	237.04859399795532	movie	1		301.0	73.0	2.5	/experiments/knapen_aot/videos/R_S_yt-11S5tcT2Tm0_254.mp4	0.0	370.4606628417969	2.508350133895874
75	239.1354329586029	response	1	2		73.0	2.5	/experiments/knapen_aot/videos/R_S_yt-11S5tcT2Tm0_254.mp4	0.0	372.54750180244446	
75	239.5569441318512	fix_post	2		12.0	73.0	2.5	/experiments/knapen_aot/videos/R_S_yt-11S5tcT2Tm0_254.mp4	0.0	372.96901297569275	0.10000991821289062
76	239.6569540500641	fix_pre	0		292.0	74.0	2.5	/experiments/knapen_aot/videos/R_S_comp_H004_C007_PS_v02_SDR_PS_20180925_SDR_2K_AVC.mp4	0.0	373.06902289390564	2.433259963989258
76	242.0820951461792	response	0	2		74.0	2.5	/experiments/knapen_aot/videos/R_S_comp_H004_C007_PS_v02_SDR_PS_20180925_SDR_2K_AVC.mp4	0.0	375.49416399002075	
76	242.09021401405334	movie	1		164.0	74.0	2.5	/experiments/knapen_aot/videos/R_S_comp_H004_C007_PS_v02_SDR_PS_20180925_SDR_2K_AVC.mp4	0.0	375.5022828578949	2.5083799362182617
76	242.69036602973938	response	1	2		74.0	2.5	/experiments/knapen_aot/videos/R_S_comp_H004_C007_PS_v02_SDR_PS_20180925_SDR_2K_AVC.mp4	0.0	376.10243487358093	
76	244.5985939502716	fix_post	2		12.0	74.0	2.5	/experiments/knapen_aot/videos/R_S_comp_H004_C007_PS_v02_SDR_PS_20180925_SDR_2K_AVC.mp4	0.0	378.01066279411316	0.0999901294708252
77	244.69858407974243	fix_pre	0		1.0	75.0	2.5	blank	1.0	378.110652923584	0.008300065994262695
77	244.69159507751465	response	0	2		75.0	2.5	blank	1.0	378.1036639213562	
77	244.7068841457367	movie	1		301.0	75.0	2.5	blank	1.0	378.11895298957825	2.5083680152893066
77	246.69037699699402	response	1	2		75.0	2.5	blank	1.0	380.10244584083557	
77	247.215252161026	fix_post	2		12.0	75.0	2.5	blank	1.0	380.62732100486755	0.10001492500305176
78	247.31526708602905	fix_pre	0		51.0	76.0	2.5	/experiments/knapen_aot/videos/R_S_pexels-cottonbro-9499408.mp4	0.0	380.7273359298706	0.4249088764190674
78	247.73207712173462	response	0	2		76.0	2.5	/experiments/knapen_aot/videos/R_S_pexels-cottonbro-9499408.mp4	0.0	381.1441459655762	
78	247.74017596244812	movie	1		177.0	76.0	2.5	/experiments/knapen_aot/videos/R_S_pexels-cottonbro-9499408.mp4	0.0	381.1522448062897	2.508376121520996
78	250.24855208396912	fix_post	2		12.0	76.0	2.5	/experiments/knapen_aot/videos/R_S_pexels-cottonbro-9499408.mp4	0.0	383.66062092781067	0.10001301765441895
79	250.34856510162354	fix_pre	0		40.0	77.0	2.5	/experiments/knapen_aot/videos/R_S_bing-www_msn_com_en-us_video_news_tommy-lasorda-salutes-national-league-champs_vp-AAtLThQ_4.mp4	0.0	383.7606339454651	0.33321690559387207
79	250.6736719608307	response	0	2		77.0	2.5	/experiments/knapen_aot/videos/R_S_bing-www_msn_com_en-us_video_news_tommy-lasorda-salutes-national-league-champs_vp-AAtLThQ_4.mp4	0.0	384.08574080467224	
79	250.6817820072174	movie	1		163.0	77.0	2.5	/experiments/knapen_aot/videos/R_S_bing-www_msn_com_en-us_video_news_tommy-lasorda-salutes-national-league-champs_vp-AAtLThQ_4.mp4	0.0	384.09385085105896	2.5086171627044678
79	252.65603113174438	response	1	2		77.0	2.5	/experiments/knapen_aot/videos/R_S_bing-www_msn_com_en-us_video_news_tommy-lasorda-salutes-national-league-champs_vp-AAtLThQ_4.mp4	0.0	386.06809997558594	
79	253.19039916992188	fix_post	2		12.0	77.0	2.5	/experiments/knapen_aot/videos/R_S_bing-www_msn_com_en-us_video_news_tommy-lasorda-salutes-national-league-champs_vp-AAtLThQ_4.mp4	0.0	386.6024680137634	0.09981489181518555
80	253.29021406173706	fix_pre	0		35.0	78.0	2.5	/experiments/knapen_aot/videos/S_yt-c5_SFS4aaJI_1102.mp4	0.0	386.7022829055786	0.29160189628601074
80	253.5736379623413	response	0	2		78.0	2.5	/experiments/knapen_aot/videos/S_yt-c5_SFS4aaJI_1102.mp4	0.0	386.98570680618286	
80	253.58181595802307	movie	1		301.0	78.0	2.5	/experiments/knapen_aot/videos/S_yt-c5_SFS4aaJI_1102.mp4	0.0	386.9938848018646	2.5084149837493896
80	256.09023094177246	fix_post	2		12.0	78.0	2.5	/experiments/knapen_aot/videos/S_yt-c5_SFS4aaJI_1102.mp4	0.0	389.502299785614	0.10031819343566895
81	256.19054913520813	fix_pre	0		71.0	79.0	2.5	/experiments/knapen_aot/videos/S_yt-t-wpKypNysg_27.mp4	0.0	389.6026179790497	0.591282844543457
81	256.77365708351135	response	0	2		79.0	2.5	/experiments/knapen_aot/videos/S_yt-t-wpKypNysg_27.mp4	0.0	390.1857259273529	
81	256.7818319797516	movie	1		301.0	79.0	2.5	/experiments/knapen_aot/videos/S_yt-t-wpKypNysg_27.mp4	0.0	390.19390082359314	2.5083811283111572
81	259.29021310806274	fix_post	2		12.0	79.0	2.5	/experiments/knapen_aot/videos/S_yt-t-wpKypNysg_27.mp4	0.0	392.7022819519043	0.09996700286865234
82	259.3901801109314	fix_pre	0		8.0	80.0	2.5	/experiments/knapen_aot/videos/R_S_yt-IlW1U39Dga4_5.mp4	0.0	392.80224895477295	0.06679105758666992
82	259.44865107536316	response	0	2		80.0	2.5	/experiments/knapen_aot/videos/R_S_yt-IlW1U39Dga4_5.mp4	0.0	392.8607199192047	
82	259.45697116851807	movie	1		301.0	80.0	2.5	/experiments/knapen_aot/videos/R_S_yt-IlW1U39Dga4_5.mp4	0.0	392.8690400123596	2.5082178115844727
82	261.96518898010254	fix_post	2		12.0	80.0	2.5	/experiments/knapen_aot/videos/R_S_yt-IlW1U39Dga4_5.mp4	0.0	395.3772578239441	0.10018801689147949
83	262.065376996994	fix_pre	0		14.0	81.0	2.5	/experiments/knapen_aot/videos/S_ga8dBJH_qK8_765.mp4	0.0	395.47744584083557	0.11644697189331055
83	262.1736249923706	response	0	2		81.0	2.5	/experiments/knapen_aot/videos/S_ga8dBJH_qK8_765.mp4	0.0	395.58569383621216	
83	262.18182396888733	movie	1		301.0	81.0	2.5	/experiments/knapen_aot/videos/S_ga8dBJH_qK8_765.mp4	0.0	395.5938928127289	2.5085501670837402
83	264.69037413597107	fix_post	2		12.0	81.0	2.5	/experiments/knapen_aot/videos/S_ga8dBJH_qK8_765.mp4	0.0	398.1024429798126	0.09982490539550781
84	264.7901990413666	fix_pre	0		30.0	82.0	2.5	/experiments/knapen_aot/videos/R_S_yt-bOgChEHiroI_20.mp4	0.0	398.20226788520813	0.24990010261535645
84	265.0318491458893	response	0	2		82.0	2.5	/experiments/knapen_aot/videos/R_S_yt-bOgChEHiroI_20.mp4	0.0	398.44391798973083	
84	265.04009914398193	movie	1		301.0	82.0	2.5	/experiments/knapen_aot/videos/R_S_yt-bOgChEHiroI_20.mp4	0.0	398.4521679878235	2.5084388256073
84	267.54853796958923	fix_post	2		12.0	82.0	2.5	/experiments/knapen_aot/videos/R_S_yt-bOgChEHiroI_20.mp4	0.0	400.9606068134308	0.10018420219421387
85	267.64872217178345	fix_pre	0		6.0	83.0	2.5	blank	1.0	401.060791015625	0.04974985122680664
85	267.6902940273285	response	0	2		83.0	2.5	blank	1.0	401.10236287117004	
85	267.69847202301025	movie	1		301.0	83.0	2.5	blank	1.0	401.1105408668518	2.5083329677581787
85	270.20680499076843	fix_post	2		12.0	83.0	2.5	blank	1.0	403.61887383461	0.10001206398010254
87	270.30681705474854	stim	0		93.0					403.7188858985901	0.7749359607696533
87	271.0742151737213	response	0	space						404.48628401756287	
