trial_nr	onset	event_type	phase	response	nr_frames	movie_index	movie_duration	movie_file	blank	onset_abs	duration
0	0.12493300437927246	stim	0		37.0					66.86930894851685	0.3108201026916504
0	0.42505693435668945	response	0	space						67.16943287849426	
1	0.43575310707092285	stim	0		121.0					67.1801290512085	1.005492925643921
1	1.0000550746917725	response	0	space						67.74443101882935	
1	1.4412460327148438	stim	1		120.0					68.18562197685242	0.9999799728393555
1	1.4496960639953613	response	1	space						68.19407200813293	
1	1.7330470085144043	response	1	space						68.47742295265198	
2	2.441226005554199	fix_pre	0		32.0	0.0	2.5	/experiments/knapen_aot/videos/R_S_comp_A013_C012_0122D6_CC_v01_SDR_PS_FINAL_20180709_SDR_2K_AVC.mp4	0.0	69.18560194969177	0.2667989730834961
2	2.692183017730713	response	0	space		0.0	2.5	/experiments/knapen_aot/videos/R_S_comp_A013_C012_0122D6_CC_v01_SDR_PS_FINAL_20180709_SDR_2K_AVC.mp4	0.0	69.43655896186829	
2	2.7080249786376953	movie	1		166.0	0.0	2.5	/experiments/knapen_aot/videos/R_S_comp_A013_C012_0122D6_CC_v01_SDR_PS_FINAL_20180709_SDR_2K_AVC.mp4	0.0	69.45240092277527	2.5082080364227295
2	5.216233015060425	fix_post	2		12.0	0.0	2.5	/experiments/knapen_aot/videos/R_S_comp_A013_C012_0122D6_CC_v01_SDR_PS_FINAL_20180709_SDR_2K_AVC.mp4	0.0	71.960608959198	0.09995293617248535
3	5.31618595123291	fix_pre	0		56.0	1.0	2.5	/experiments/knapen_aot/videos/R_S_yt-G_eNNzNB-hU_1.mp4	0.0	72.06056189537048	0.466655969619751
3	5.776660919189453	response	0	2		1.0	2.5	/experiments/knapen_aot/videos/R_S_yt-G_eNNzNB-hU_1.mp4	0.0	72.52103686332703	
3	5.782841920852661	movie	1		299.0	1.0	2.5	/experiments/knapen_aot/videos/R_S_yt-G_eNNzNB-hU_1.mp4	0.0	72.52721786499023	2.5083510875701904
3	8.291193008422852	fix_post	2		12.0	1.0	2.5	/experiments/knapen_aot/videos/R_S_yt-G_eNNzNB-hU_1.mp4	0.0	75.03556895256042	0.10009312629699707
4	8.391286134719849	fix_pre	0		49.0	2.0	2.5	/experiments/knapen_aot/videos/S_yt-BAQ3Xhm_PPE_23.mp4	0.0	75.13566207885742	0.4082210063934326
4	8.791321039199829	response	0	2		2.0	2.5	/experiments/knapen_aot/videos/S_yt-BAQ3Xhm_PPE_23.mp4	0.0	75.5356969833374	
4	8.799507141113281	movie	1		301.0	2.0	2.5	/experiments/knapen_aot/videos/S_yt-BAQ3Xhm_PPE_23.mp4	0.0	75.54388308525085	2.5082788467407227
4	11.307785987854004	fix_post	2		12.0	2.0	2.5	/experiments/knapen_aot/videos/S_yt-BAQ3Xhm_PPE_23.mp4	0.0	78.05216193199158	0.10002613067626953
5	11.407812118530273	fix_pre	0		238.0	3.0	2.5	/experiments/knapen_aot/videos/R_S_production_ID_3923518.mp4	0.0	78.15218806266785	1.9833238124847412
5	13.38299298286438	response	0	2		3.0	2.5	/experiments/knapen_aot/videos/R_S_production_ID_3923518.mp4	0.0	80.12736892700195	
5	13.391135931015015	movie	1		164.0	3.0	2.5	/experiments/knapen_aot/videos/R_S_production_ID_3923518.mp4	0.0	80.13551187515259	2.508496046066284
5	15.899631977081299	fix_post	2		12.0	3.0	2.5	/experiments/knapen_aot/videos/R_S_production_ID_3923518.mp4	0.0	82.64400792121887	0.09984898567199707
6	15.999480962753296	fix_pre	0		42.0	4.0	2.5	/experiments/knapen_aot/videos/R_S_yt-y2RUPYKfBZs_12.mp4	0.0	82.74385690689087	0.3500211238861084
6	16.341339111328125	response	0	2		4.0	2.5	/experiments/knapen_aot/videos/R_S_yt-y2RUPYKfBZs_12.mp4	0.0	83.0857150554657	
6	16.349502086639404	movie	1		301.0	4.0	2.5	/experiments/knapen_aot/videos/R_S_yt-y2RUPYKfBZs_12.mp4	0.0	83.09387803077698	2.5082719326019287
6	18.857774019241333	fix_post	2		12.0	4.0	2.5	/experiments/knapen_aot/videos/R_S_yt-y2RUPYKfBZs_12.mp4	0.0	85.6021499633789	0.10000109672546387
7	18.957775115966797	fix_pre	0		116.0	5.0	2.5	blank	1.0	85.70215106010437	0.9667088985443115
7	19.91628408432007	response	0	2		5.0	2.5	blank	1.0	86.66066002845764	
7	19.92448401451111	movie	1		301.0	5.0	2.5	blank	1.0	86.66885995864868	2.5082850456237793
7	22.432769060134888	fix_post	2		12.0	5.0	2.5	blank	1.0	89.17714500427246	0.0999898910522461
8	22.532758951187134	fix_pre	0		25.0	6.0	2.5	/experiments/knapen_aot/videos/R_S_yt-s2tZ2NIQrxg_175.mp4	0.0	89.2771348953247	0.20840096473693848
8	22.72540807723999	response	0	2		6.0	2.5	/experiments/knapen_aot/videos/R_S_yt-s2tZ2NIQrxg_175.mp4	0.0	89.46978402137756	
8	22.741159915924072	movie	1		301.0	6.0	2.5	/experiments/knapen_aot/videos/R_S_yt-s2tZ2NIQrxg_175.mp4	0.0	89.48553586006165	2.508348226547241
8	25.249508142471313	fix_post	2		12.0	6.0	2.5	/experiments/knapen_aot/videos/R_S_yt-s2tZ2NIQrxg_175.mp4	0.0	91.99388408660889	0.10019397735595703
9	25.34970211982727	fix_pre	0		55.0	7.0	2.5	/experiments/knapen_aot/videos/S_yt--C2DDZ7LOQA_95.mp4	0.0	92.09407806396484	0.45819592475891113
9	25.79965901374817	response	0	2		7.0	2.5	/experiments/knapen_aot/videos/S_yt--C2DDZ7LOQA_95.mp4	0.0	92.54403495788574	
9	25.80789804458618	movie	1		301.0	7.0	2.5	/experiments/knapen_aot/videos/S_yt--C2DDZ7LOQA_95.mp4	0.0	92.55227398872375	2.508270025253296
9	28.316168069839478	fix_post	2		12.0	7.0	2.5	/experiments/knapen_aot/videos/S_yt--C2DDZ7LOQA_95.mp4	0.0	95.06054401397705	0.09995198249816895
10	28.416120052337646	fix_pre	0		84.0	8.0	2.5	/experiments/knapen_aot/videos/S_production_ID_4325516.mp4	0.0	95.16049599647522	0.6999940872192383
10	29.10805606842041	response	0	2		8.0	2.5	/experiments/knapen_aot/videos/S_production_ID_4325516.mp4	0.0	95.85243201255798	
10	29.116114139556885	movie	1		194.0	8.0	2.5	/experiments/knapen_aot/videos/S_production_ID_4325516.mp4	0.0	95.86049008369446	2.5083158016204834
10	31.624429941177368	fix_post	2		12.0	8.0	2.5	/experiments/knapen_aot/videos/S_production_ID_4325516.mp4	0.0	98.36880588531494	0.10005497932434082
11	31.72448492050171	fix_pre	0		88.0	9.0	2.5	/experiments/knapen_aot/videos/R_S_yt-UPgF4YAHBQY_33.mp4	0.0	98.46886086463928	0.7332890033721924
11	32.44961094856262	response	0	2		9.0	2.5	/experiments/knapen_aot/videos/R_S_yt-UPgF4YAHBQY_33.mp4	0.0	99.1939868927002	
11	32.4577739238739	movie	1		301.0	9.0	2.5	/experiments/knapen_aot/videos/R_S_yt-UPgF4YAHBQY_33.mp4	0.0	99.20214986801147	2.5083231925964355
11	34.96609711647034	fix_post	2		12.0	9.0	2.5	/experiments/knapen_aot/videos/R_S_yt-UPgF4YAHBQY_33.mp4	0.0	101.71047306060791	0.0999758243560791
12	35.066072940826416	fix_pre	0		45.0	10.0	2.5	/experiments/knapen_aot/videos/S_Pz_NXxhQCJc_70.mp4	0.0	101.81044888496399	0.3759040832519531
12	35.43282413482666	response	0	2		10.0	2.5	/experiments/knapen_aot/videos/S_Pz_NXxhQCJc_70.mp4	0.0	102.17720007896423	
12	35.44197702407837	movie	1		301.0	10.0	2.5	/experiments/knapen_aot/videos/S_Pz_NXxhQCJc_70.mp4	0.0	102.18635296821594	2.507457971572876
12	37.949434995651245	fix_post	2		12.0	10.0	2.5	/experiments/knapen_aot/videos/S_Pz_NXxhQCJc_70.mp4	0.0	104.69381093978882	0.09998011589050293
13	38.04941511154175	fix_pre	0		71.0	11.0	2.5	/experiments/knapen_aot/videos/R_S_yt-SRozDkhwx28_1463.mp4	0.0	104.79379105567932	0.5916638374328613
13	38.6253719329834	response	0	2		11.0	2.5	/experiments/knapen_aot/videos/R_S_yt-SRozDkhwx28_1463.mp4	0.0	105.36974787712097	
13	38.64107894897461	movie	1		301.0	11.0	2.5	/experiments/knapen_aot/videos/R_S_yt-SRozDkhwx28_1463.mp4	0.0	105.38545489311218	2.5083091259002686
13	41.14938807487488	fix_post	2		12.0	11.0	2.5	/experiments/knapen_aot/videos/R_S_yt-SRozDkhwx28_1463.mp4	0.0	107.89376401901245	0.10003185272216797
14	41.249419927597046	fix_pre	0		49.0	12.0	2.5	/experiments/knapen_aot/videos/R_S_yt-rqYMMAU_GJs_91.mp4	0.0	107.99379587173462	0.40827512741088867
14	41.64955401420593	response	0	2		12.0	2.5	/experiments/knapen_aot/videos/R_S_yt-rqYMMAU_GJs_91.mp4	0.0	108.3939299583435	
14	41.657695055007935	movie	1		301.0	12.0	2.5	/experiments/knapen_aot/videos/R_S_yt-rqYMMAU_GJs_91.mp4	0.0	108.40207099914551	2.5083820819854736
14	44.16607713699341	fix_post	2		12.0	12.0	2.5	/experiments/knapen_aot/videos/R_S_yt-rqYMMAU_GJs_91.mp4	0.0	110.91045308113098	0.09999895095825195
15	44.26607608795166	fix_pre	0		80.0	13.0	2.5	blank	1.0	111.01045203208923	0.6666598320007324
15	44.924602031707764	response	0	2		13.0	2.5	blank	1.0	111.66897797584534	
15	44.93273591995239	movie	1		301.0	13.0	2.5	blank	1.0	111.67711186408997	2.5083160400390625
15	47.441051959991455	fix_post	2		12.0	13.0	2.5	blank	1.0	114.18542790412903	0.10000300407409668
16	47.54105496406555	fix_pre	0		22.0	14.0	2.5	/experiments/knapen_aot/videos/R_S_yt-UPgF4YAHBQY_33.mp4	0.0	114.28543090820312	0.18331098556518555
16	47.70862793922424	response	0	2		14.0	2.5	/experiments/knapen_aot/videos/R_S_yt-UPgF4YAHBQY_33.mp4	0.0	114.45300388336182	
16	47.72436594963074	movie	1		301.0	14.0	2.5	/experiments/knapen_aot/videos/R_S_yt-UPgF4YAHBQY_33.mp4	0.0	114.46874189376831	2.508239984512329
16	50.232605934143066	fix_post	2		12.0	14.0	2.5	/experiments/knapen_aot/videos/R_S_yt-UPgF4YAHBQY_33.mp4	0.0	116.97698187828064	0.10013818740844727
17	50.332744121551514	fix_pre	0		65.0	15.0	2.5	/experiments/knapen_aot/videos/S_yt-c5KPuyzO-50_4.mp4	0.0	117.07712006568909	0.5415828227996826
17	50.86624813079834	response	0	2		15.0	2.5	/experiments/knapen_aot/videos/S_yt-c5KPuyzO-50_4.mp4	0.0	117.61062407493591	
17	50.874326944351196	movie	1		301.0	15.0	2.5	/experiments/knapen_aot/videos/S_yt-c5KPuyzO-50_4.mp4	0.0	117.61870288848877	2.508373975753784
17	53.38270092010498	fix_post	2		12.0	15.0	2.5	/experiments/knapen_aot/videos/S_yt-c5KPuyzO-50_4.mp4	0.0	120.12707686424255	0.09992718696594238
18	53.48262810707092	fix_pre	0		174.0	16.0	2.5	/experiments/knapen_aot/videos/S_yt-yJmHtBFyhH4_15.mp4	0.0	120.2270040512085	1.4500470161437988
18	54.92450404167175	response	0	2		16.0	2.5	/experiments/knapen_aot/videos/S_yt-yJmHtBFyhH4_15.mp4	0.0	121.66887998580933	
18	54.93267512321472	movie	1		301.0	16.0	2.5	/experiments/knapen_aot/videos/S_yt-yJmHtBFyhH4_15.mp4	0.0	121.6770510673523	2.508281946182251
18	57.44095706939697	fix_post	2		12.0	16.0	2.5	/experiments/knapen_aot/videos/S_yt-yJmHtBFyhH4_15.mp4	0.0	124.18533301353455	0.09997200965881348
19	57.540929079055786	fix_pre	0		31.0	17.0	2.5	/experiments/knapen_aot/videos/R_S_yt-I2n2eo2zoZs_94.mp4	0.0	124.28530502319336	0.25835299491882324
19	57.791099071502686	response	0	2		17.0	2.5	/experiments/knapen_aot/videos/R_S_yt-I2n2eo2zoZs_94.mp4	0.0	124.53547501564026	
19	57.79928207397461	movie	1		301.0	17.0	2.5	/experiments/knapen_aot/videos/R_S_yt-I2n2eo2zoZs_94.mp4	0.0	124.54365801811218	2.508357048034668
19	60.30763912200928	fix_post	2		12.0	17.0	2.5	/experiments/knapen_aot/videos/R_S_yt-I2n2eo2zoZs_94.mp4	0.0	127.05201506614685	0.09996795654296875
20	60.407607078552246	fix_pre	0		118.0	18.0	2.5	/experiments/knapen_aot/videos/R_S_yt-FzMLLmcD1mE_19.mp4	0.0	127.15198302268982	0.9833569526672363
20	61.38281011581421	response	0	2		18.0	2.5	/experiments/knapen_aot/videos/R_S_yt-FzMLLmcD1mE_19.mp4	0.0	128.12718605995178	
20	61.39096403121948	movie	1		301.0	18.0	2.5	/experiments/knapen_aot/videos/R_S_yt-FzMLLmcD1mE_19.mp4	0.0	128.13533997535706	2.5082480907440186
20	63.8992121219635	fix_post	2		12.0	18.0	2.5	/experiments/knapen_aot/videos/R_S_yt-FzMLLmcD1mE_19.mp4	0.0	130.64358806610107	0.10008502006530762
21	63.99929714202881	fix_pre	0		72.0	19.0	2.5	/experiments/knapen_aot/videos/R_S_yt-0qfEA1ZFWjA_123.mp4	0.0	130.74367308616638	0.599977970123291
21	64.59104108810425	response	0	2		19.0	2.5	/experiments/knapen_aot/videos/R_S_yt-0qfEA1ZFWjA_123.mp4	0.0	131.33541703224182	
21	64.5992751121521	movie	1		301.0	19.0	2.5	/experiments/knapen_aot/videos/R_S_yt-0qfEA1ZFWjA_123.mp4	0.0	131.34365105628967	2.508335828781128
21	67.10761094093323	fix_post	2		12.0	19.0	2.5	/experiments/knapen_aot/videos/R_S_yt-0qfEA1ZFWjA_123.mp4	0.0	133.8519868850708	0.0999760627746582
22	67.20758700370789	fix_pre	0		80.0	20.0	2.5	blank	1.0	133.95196294784546	0.6665749549865723
22	67.86605095863342	response	0	2		20.0	2.5	blank	1.0	134.610426902771	
22	67.87416195869446	movie	1		301.0	20.0	2.5	blank	1.0	134.61853790283203	2.508352041244507
22	70.38251399993896	fix_post	2		12.0	20.0	2.5	blank	1.0	137.12688994407654	0.10003495216369629
23	70.48254895210266	fix_pre	0		82.0	21.0	2.5	/experiments/knapen_aot/videos/S_yt-4Qz0m5IYh10_167.mp4	0.0	137.22692489624023	0.6833791732788086
23	71.15773105621338	response	0	2		21.0	2.5	/experiments/knapen_aot/videos/S_yt-4Qz0m5IYh10_167.mp4	0.0	137.90210700035095	
23	71.16592812538147	movie	1		300.0	21.0	2.5	/experiments/knapen_aot/videos/S_yt-4Qz0m5IYh10_167.mp4	0.0	137.91030406951904	2.508286952972412
23	73.67421507835388	fix_post	2		12.0	21.0	2.5	/experiments/knapen_aot/videos/S_yt-4Qz0m5IYh10_167.mp4	0.0	140.41859102249146	0.1000208854675293
24	73.77423596382141	fix_pre	0		124.0	22.0	2.5	/experiments/knapen_aot/videos/S_yt-EZCX42e_bkc_78.mp4	0.0	140.51861190795898	1.0332989692687988
24	74.79933714866638	response	0	2		22.0	2.5	/experiments/knapen_aot/videos/S_yt-EZCX42e_bkc_78.mp4	0.0	141.54371309280396	
24	74.80753493309021	movie	1		301.0	22.0	2.5	/experiments/knapen_aot/videos/S_yt-EZCX42e_bkc_78.mp4	0.0	141.55191087722778	2.508404016494751
24	77.31593894958496	fix_post	2		12.0	22.0	2.5	/experiments/knapen_aot/videos/S_yt-EZCX42e_bkc_78.mp4	0.0	144.06031489372253	0.0999600887298584
25	77.41589903831482	fix_pre	0		247.0	23.0	2.5	/experiments/knapen_aot/videos/S_pexels-cottonbro-6844209.mp4	0.0	144.1602749824524	2.058337926864624
25	79.46601414680481	response	0	2		23.0	2.5	/experiments/knapen_aot/videos/S_pexels-cottonbro-6844209.mp4	0.0	146.21039009094238	
25	79.47423696517944	movie	1		195.0	23.0	2.5	/experiments/knapen_aot/videos/S_pexels-cottonbro-6844209.mp4	0.0	146.21861290931702	2.5083041191101074
25	81.98254108428955	fix_post	2		12.0	23.0	2.5	/experiments/knapen_aot/videos/S_pexels-cottonbro-6844209.mp4	0.0	148.72691702842712	0.09999203681945801
26	82.08253312110901	fix_pre	0		323.0	24.0	2.5	/experiments/knapen_aot/videos/S_yt-mMnlzv6cfH4_134.mp4	0.0	148.82690906524658	2.692272901535034
26	84.76588797569275	response	0	2		24.0	2.5	/experiments/knapen_aot/videos/S_yt-mMnlzv6cfH4_134.mp4	0.0	151.51026391983032	
26	84.77480602264404	movie	1		301.0	24.0	2.5	/experiments/knapen_aot/videos/S_yt-mMnlzv6cfH4_134.mp4	0.0	151.51918196678162	2.507699966430664
26	87.2825059890747	fix_post	2		12.0	24.0	2.5	/experiments/knapen_aot/videos/S_yt-mMnlzv6cfH4_134.mp4	0.0	154.02688193321228	0.09996509552001953
27	87.38247108459473	fix_pre	0		50.0	25.0	2.5	/experiments/knapen_aot/videos/S_yt-ThT8utBaywI_68.mp4	0.0	154.1268470287323	0.4166910648345947
27	87.79097104072571	response	0	2		25.0	2.5	/experiments/knapen_aot/videos/S_yt-ThT8utBaywI_68.mp4	0.0	154.53534698486328	
27	87.79916214942932	movie	1		301.0	25.0	2.5	/experiments/knapen_aot/videos/S_yt-ThT8utBaywI_68.mp4	0.0	154.5435380935669	2.5083799362182617
27	90.30754208564758	fix_post	2		12.0	25.0	2.5	/experiments/knapen_aot/videos/S_yt-ThT8utBaywI_68.mp4	0.0	157.05191802978516	0.09994983673095703
28	90.40749192237854	fix_pre	0		88.0	26.0	2.5	blank	1.0	157.1518678665161	0.733335018157959
28	91.13267207145691	response	0	2		26.0	2.5	blank	1.0	157.87704801559448	
28	91.1408269405365	movie	1		301.0	26.0	2.5	blank	1.0	157.88520288467407	2.5083041191101074
28	93.6491310596466	fix_post	2		12.0	26.0	2.5	blank	1.0	160.39350700378418	0.10001802444458008
29	93.74914908409119	fix_pre	0		12.0	27.0	2.5	/experiments/knapen_aot/videos/S_yt-NLfzvAJgyJ4_120.mp4	0.0	160.49352502822876	0.10006594657897949
29	93.84088802337646	response	0	2		27.0	2.5	/experiments/knapen_aot/videos/S_yt-NLfzvAJgyJ4_120.mp4	0.0	160.58526396751404	
29	93.84921503067017	movie	1		301.0	27.0	2.5	/experiments/knapen_aot/videos/S_yt-NLfzvAJgyJ4_120.mp4	0.0	160.59359097480774	2.508254051208496
29	96.35746908187866	fix_post	2		12.0	27.0	2.5	/experiments/knapen_aot/videos/S_yt-NLfzvAJgyJ4_120.mp4	0.0	163.10184502601624	0.09999704360961914
30	96.45746612548828	fix_pre	0		57.0	28.0	2.5	/experiments/knapen_aot/videos/R_S_yt-ZBk_XFb5PGo_25.mp4	0.0	163.20184206962585	0.4749948978424072
30	96.92424607276917	response	0	2		28.0	2.5	/experiments/knapen_aot/videos/R_S_yt-ZBk_XFb5PGo_25.mp4	0.0	163.66862201690674	
30	96.93246102333069	movie	1		301.0	28.0	2.5	/experiments/knapen_aot/videos/R_S_yt-ZBk_XFb5PGo_25.mp4	0.0	163.67683696746826	2.5082950592041016
30	99.44075608253479	fix_post	2		12.0	28.0	2.5	/experiments/knapen_aot/videos/R_S_yt-ZBk_XFb5PGo_25.mp4	0.0	166.18513202667236	0.09999394416809082
31	99.54075002670288	fix_pre	0		35.0	29.0	2.5	/experiments/knapen_aot/videos/S_yt-urJgH6tpfkU_204.mp4	0.0	166.28512597084045	0.2916550636291504
31	99.8242609500885	response	0	2		29.0	2.5	/experiments/knapen_aot/videos/S_yt-urJgH6tpfkU_204.mp4	0.0	166.56863689422607	
31	99.83240509033203	movie	1		301.0	29.0	2.5	/experiments/knapen_aot/videos/S_yt-urJgH6tpfkU_204.mp4	0.0	166.5767810344696	2.508384943008423
31	102.34079003334045	fix_post	2		12.0	29.0	2.5	/experiments/knapen_aot/videos/S_yt-urJgH6tpfkU_204.mp4	0.0	169.08516597747803	0.09994792938232422
32	102.44073796272278	fix_pre	0		38.0	30.0	2.5	/experiments/knapen_aot/videos/S_yt-LGwEki4ghNw_69.mp4	0.0	169.18511390686035	0.3166821002960205
32	102.74915909767151	response	0	2		30.0	2.5	/experiments/knapen_aot/videos/S_yt-LGwEki4ghNw_69.mp4	0.0	169.49353504180908	
32	102.7574200630188	movie	1		301.0	30.0	2.5	/experiments/knapen_aot/videos/S_yt-LGwEki4ghNw_69.mp4	0.0	169.50179600715637	2.508342981338501
32	105.2657630443573	fix_post	2		12.0	30.0	2.5	/experiments/knapen_aot/videos/S_yt-LGwEki4ghNw_69.mp4	0.0	172.01013898849487	0.10003089904785156
33	105.36579394340515	fix_pre	0		47.0	31.0	2.5	/experiments/knapen_aot/videos/R_S_yt-mHLTJkMrkZI_143.mp4	0.0	172.11016988754272	0.3916051387786865
33	105.74174809455872	response	0	2		31.0	2.5	/experiments/knapen_aot/videos/R_S_yt-mHLTJkMrkZI_143.mp4	0.0	172.4861240386963	
33	105.75739908218384	movie	1		301.0	31.0	2.5	/experiments/knapen_aot/videos/R_S_yt-mHLTJkMrkZI_143.mp4	0.0	172.5017750263214	2.5083489418029785
33	108.26574802398682	fix_post	2		12.0	31.0	2.5	/experiments/knapen_aot/videos/R_S_yt-mHLTJkMrkZI_143.mp4	0.0	175.0101239681244	0.10002398490905762
34	108.36577200889587	fix_pre	0		23.0	32.0	2.5	/experiments/knapen_aot/videos/S_yt-lzXao6Reec4_14.mp4	0.0	175.11014795303345	0.1916210651397705
34	108.54917693138123	response	0	2		32.0	2.5	/experiments/knapen_aot/videos/S_yt-lzXao6Reec4_14.mp4	0.0	175.2935528755188	
34	108.55739307403564	movie	1		301.0	32.0	2.5	/experiments/knapen_aot/videos/S_yt-lzXao6Reec4_14.mp4	0.0	175.30176901817322	2.508302927017212
34	111.06569600105286	fix_post	2		12.0	32.0	2.5	/experiments/knapen_aot/videos/S_yt-lzXao6Reec4_14.mp4	0.0	177.81007194519043	0.10001993179321289
35	111.16571593284607	fix_pre	0		39.0	33.0	2.5	blank	1.0	177.91009187698364	0.3249530792236328
35	111.48250198364258	response	0	2		33.0	2.5	blank	1.0	178.22687792778015	
35	111.4906690120697	movie	1		301.0	33.0	2.5	blank	1.0	178.23504495620728	2.5083909034729004
35	113.9990599155426	fix_post	2		12.0	33.0	2.5	blank	1.0	180.74343585968018	0.09993720054626465
36	114.09899711608887	fix_pre	0		23.0	34.0	2.5	/experiments/knapen_aot/videos/S_yt-JDHApyT5ngs_128.mp4	0.0	180.84337306022644	0.19165301322937012
36	114.28248810768127	response	0	2		34.0	2.5	/experiments/knapen_aot/videos/S_yt-JDHApyT5ngs_128.mp4	0.0	181.02686405181885	
36	114.29065012931824	movie	1		300.0	34.0	2.5	/experiments/knapen_aot/videos/S_yt-JDHApyT5ngs_128.mp4	0.0	181.0350260734558	2.5083680152893066
36	116.79901814460754	fix_post	2		12.0	34.0	2.5	/experiments/knapen_aot/videos/S_yt-JDHApyT5ngs_128.mp4	0.0	183.54339408874512	0.10004186630249023
37	116.89906001091003	fix_pre	0		40.0	35.0	2.5	/experiments/knapen_aot/videos/S_pexels-c-technical-6753390.mp4	0.0	183.6434359550476	0.33369994163513184
37	117.22415113449097	response	0	2		35.0	2.5	/experiments/knapen_aot/videos/S_pexels-c-technical-6753390.mp4	0.0	183.96852707862854	
37	117.23275995254517	movie	1		201.0	35.0	2.5	/experiments/knapen_aot/videos/S_pexels-c-technical-6753390.mp4	0.0	183.97713589668274	2.507894992828369
37	119.74065494537354	fix_post	2		12.0	35.0	2.5	/experiments/knapen_aot/videos/S_pexels-c-technical-6753390.mp4	0.0	186.4850308895111	0.09997797012329102
38	119.84063291549683	fix_pre	0		27.0	36.0	2.5	/experiments/knapen_aot/videos/R_S_pexels-pavel-danilyuk-8057714.mp4	0.0	186.5850088596344	0.22547101974487305
38	120.05748200416565	response	0	2		36.0	2.5	/experiments/knapen_aot/videos/R_S_pexels-pavel-danilyuk-8057714.mp4	0.0	186.80185794830322	
38	120.0661039352417	movie	1		165.0	36.0	2.5	/experiments/knapen_aot/videos/R_S_pexels-pavel-danilyuk-8057714.mp4	0.0	186.81047987937927	2.5079331398010254
38	122.57403707504272	fix_post	2		12.0	36.0	2.5	/experiments/knapen_aot/videos/R_S_pexels-pavel-danilyuk-8057714.mp4	0.0	189.3184130191803	0.1000070571899414
39	122.67404413223267	fix_pre	0		40.0	37.0	2.5	/experiments/knapen_aot/videos/S_pexels-mart-production-7698911_1.mp4	0.0	189.41842007637024	0.33324599266052246
39	122.9993679523468	response	0	2		37.0	2.5	/experiments/knapen_aot/videos/S_pexels-mart-production-7698911_1.mp4	0.0	189.74374389648438	
39	123.00729012489319	movie	1		204.0	37.0	2.5	/experiments/knapen_aot/videos/S_pexels-mart-production-7698911_1.mp4	0.0	189.75166606903076	2.5083208084106445
39	125.51561093330383	fix_post	2		12.0	37.0	2.5	/experiments/knapen_aot/videos/S_pexels-mart-production-7698911_1.mp4	0.0	192.2599868774414	0.10001611709594727
40	125.61562705039978	fix_pre	0		103.0	38.0	2.5	/experiments/knapen_aot/videos/S_pexels-polina-tankilevitch-8203088.mp4	0.0	192.36000299453735	0.8583300113677979
40	126.46575093269348	response	0	2		38.0	2.5	/experiments/knapen_aot/videos/S_pexels-polina-tankilevitch-8203088.mp4	0.0	193.21012687683105	
40	126.47395706176758	movie	1		162.0	38.0	2.5	/experiments/knapen_aot/videos/S_pexels-polina-tankilevitch-8203088.mp4	0.0	193.21833300590515	2.508389949798584
40	128.98234701156616	fix_post	2		12.0	38.0	2.5	/experiments/knapen_aot/videos/S_pexels-polina-tankilevitch-8203088.mp4	0.0	195.72672295570374	0.09995412826538086
41	129.08230113983154	fix_pre	0		33.0	39.0	2.5	/experiments/knapen_aot/videos/S_yt-eLQydFSMGCU_75.mp4	0.0	195.82667708396912	0.27537989616394043
41	129.3490059375763	response	0	2		39.0	2.5	/experiments/knapen_aot/videos/S_yt-eLQydFSMGCU_75.mp4	0.0	196.09338188171387	
41	129.35768103599548	movie	1		301.0	39.0	2.5	/experiments/knapen_aot/videos/S_yt-eLQydFSMGCU_75.mp4	0.0	196.10205698013306	2.507917881011963
41	131.86559891700745	fix_post	2		12.0	39.0	2.5	/experiments/knapen_aot/videos/S_yt-eLQydFSMGCU_75.mp4	0.0	198.60997486114502	0.10013723373413086
42	131.96573615074158	fix_pre	0		63.0	40.0	2.5	/experiments/knapen_aot/videos/R_S_yt-mMnlzv6cfH4_134.mp4	0.0	198.71011209487915	0.524871826171875
42	132.48242592811584	response	0	2		40.0	2.5	/experiments/knapen_aot/videos/R_S_yt-mMnlzv6cfH4_134.mp4	0.0	199.22680187225342	
42	132.49060797691345	movie	1		301.0	40.0	2.5	/experiments/knapen_aot/videos/R_S_yt-mMnlzv6cfH4_134.mp4	0.0	199.23498392105103	2.508362054824829
42	134.99897003173828	fix_post	2		12.0	40.0	2.5	/experiments/knapen_aot/videos/R_S_yt-mMnlzv6cfH4_134.mp4	0.0	201.74334597587585	0.09999704360961914
43	135.0989670753479	fix_pre	0		136.0	41.0	2.5	/experiments/knapen_aot/videos/R_S_yt-lazG9z4VQAw_99.mp4	0.0	201.84334301948547	1.1338129043579102
43	136.22409009933472	response	0	2		41.0	2.5	/experiments/knapen_aot/videos/R_S_yt-lazG9z4VQAw_99.mp4	0.0	202.9684660434723	
43	136.2327799797058	movie	1		301.0	41.0	2.5	/experiments/knapen_aot/videos/R_S_yt-lazG9z4VQAw_99.mp4	0.0	202.97715592384338	2.5078389644622803
43	138.7406189441681	fix_post	2		12.0	41.0	2.5	/experiments/knapen_aot/videos/R_S_yt-lazG9z4VQAw_99.mp4	0.0	205.48499488830566	0.09999418258666992
44	138.84061312675476	fix_pre	0		42.0	42.0	2.5	blank	1.0	205.58498907089233	0.35035085678100586
44	139.18247413635254	response	0	2		42.0	2.5	blank	1.0	205.9268500804901	
44	139.19096398353577	movie	1		301.0	42.0	2.5	blank	1.0	205.93533992767334	2.5079779624938965
44	141.69894194602966	fix_post	2		12.0	42.0	2.5	blank	1.0	208.44331789016724	0.10000205039978027
45	141.79894399642944	fix_pre	0		47.0	43.0	2.5	/experiments/knapen_aot/videos/R_S_yt-eLQydFSMGCU_75.mp4	0.0	208.54331994056702	0.39196109771728516
45	142.18232607841492	response	0	2		43.0	2.5	/experiments/knapen_aot/videos/R_S_yt-eLQydFSMGCU_75.mp4	0.0	208.9267020225525	
45	142.19090509414673	movie	1		301.0	43.0	2.5	/experiments/knapen_aot/videos/R_S_yt-eLQydFSMGCU_75.mp4	0.0	208.9352810382843	2.508012056350708
45	144.69891715049744	fix_post	2		12.0	43.0	2.5	/experiments/knapen_aot/videos/R_S_yt-eLQydFSMGCU_75.mp4	0.0	211.443293094635	0.1000218391418457
46	144.79893898963928	fix_pre	0		285.0	44.0	2.5	/experiments/knapen_aot/videos/S_comp_LA_A006_C008_PSNK_ALL_LOGOS_v10_SDR_PS_FINAL_20180801_SDR_2K_AVC.mp4	0.0	211.54331493377686	2.374891996383667
46	147.16569304466248	response	0	2		44.0	2.5	/experiments/knapen_aot/videos/S_comp_LA_A006_C008_PSNK_ALL_LOGOS_v10_SDR_PS_FINAL_20180801_SDR_2K_AVC.mp4	0.0	213.91006898880005	
46	147.17383098602295	movie	1		194.0	44.0	2.5	/experiments/knapen_aot/videos/S_comp_LA_A006_C008_PSNK_ALL_LOGOS_v10_SDR_PS_FINAL_20180801_SDR_2K_AVC.mp4	0.0	213.91820693016052	2.508402109146118
46	149.68223309516907	fix_post	2		12.0	44.0	2.5	/experiments/knapen_aot/videos/S_comp_LA_A006_C008_PSNK_ALL_LOGOS_v10_SDR_PS_FINAL_20180801_SDR_2K_AVC.mp4	0.0	216.42660903930664	0.09997200965881348
47	149.78220510482788	fix_pre	0		65.0	45.0	2.5	/experiments/knapen_aot/videos/S_1y-EvnfGO9Y_70.mp4	0.0	216.52658104896545	0.5416238307952881
47	150.31567811965942	response	0	2		45.0	2.5	/experiments/knapen_aot/videos/S_1y-EvnfGO9Y_70.mp4	0.0	217.060054063797	
47	150.32382893562317	movie	1		301.0	45.0	2.5	/experiments/knapen_aot/videos/S_1y-EvnfGO9Y_70.mp4	0.0	217.06820487976074	2.508341073989868
47	152.83217000961304	fix_post	2		12.0	45.0	2.5	/experiments/knapen_aot/videos/S_1y-EvnfGO9Y_70.mp4	0.0	219.5765459537506	0.10002303123474121
48	152.93219304084778	fix_pre	0		19.0	46.0	2.5	/experiments/knapen_aot/videos/R_S_yt--5ls65Ue1RA_52.mp4	0.0	219.67656898498535	0.1582798957824707
48	153.08235812187195	response	0	2		46.0	2.5	/experiments/knapen_aot/videos/R_S_yt--5ls65Ue1RA_52.mp4	0.0	219.82673406600952	
48	153.09047293663025	movie	1		298.0	46.0	2.5	/experiments/knapen_aot/videos/R_S_yt--5ls65Ue1RA_52.mp4	0.0	219.83484888076782	2.50838303565979
48	155.59885597229004	fix_post	2		12.0	46.0	2.5	/experiments/knapen_aot/videos/R_S_yt--5ls65Ue1RA_52.mp4	0.0	222.3432319164276	0.09997701644897461
49	155.698832988739	fix_pre	0		46.0	47.0	2.5	/experiments/knapen_aot/videos/S_pexels-cottonbro-6844209.mp4	0.0	222.4432089328766	0.3833029270172119
49	156.07394099235535	response	0	2		47.0	2.5	/experiments/knapen_aot/videos/S_pexels-cottonbro-6844209.mp4	0.0	222.81831693649292	
49	156.08213591575623	movie	1		200.0	47.0	2.5	/experiments/knapen_aot/videos/S_pexels-cottonbro-6844209.mp4	0.0	222.8265118598938	2.5084331035614014
49	158.59056901931763	fix_post	2		12.0	47.0	2.5	/experiments/knapen_aot/videos/S_pexels-cottonbro-6844209.mp4	0.0	225.3349449634552	0.10019707679748535
50	158.6907660961151	fix_pre	0		29.0	48.0	2.5	blank	1.0	225.43514204025269	0.2413468360900879
50	158.9239809513092	response	0	2		48.0	2.5	blank	1.0	225.66835689544678	
50	158.9321129322052	movie	1		301.0	48.0	2.5	blank	1.0	225.67648887634277	2.50835919380188
50	161.1488869190216	response	1	2		48.0	2.5	blank	1.0	227.89326286315918	
50	161.44047212600708	fix_post	2		12.0	48.0	2.5	blank	1.0	228.18484807014465	0.09992790222167969
51	161.54040002822876	fix_pre	0		31.0	49.0	2.5	/experiments/knapen_aot/videos/R_S_yt-nfDPFHUDq8g_136.mp4	0.0	228.28477597236633	0.2583930492401123
51	161.79064297676086	response	0	2		49.0	2.5	/experiments/knapen_aot/videos/R_S_yt-nfDPFHUDq8g_136.mp4	0.0	228.53501892089844	
51	161.79879307746887	movie	1		301.0	49.0	2.5	/experiments/knapen_aot/videos/R_S_yt-nfDPFHUDq8g_136.mp4	0.0	228.54316902160645	2.508305072784424
51	164.3070981502533	fix_post	2		12.0	49.0	2.5	/experiments/knapen_aot/videos/R_S_yt-nfDPFHUDq8g_136.mp4	0.0	231.05147409439087	0.10003995895385742
52	164.40713810920715	fix_pre	0		104.0	50.0	2.5	/experiments/knapen_aot/videos/R_S_ILSVRC2015_train_00363000.mp4	0.0	231.15151405334473	0.8669929504394531
52	165.26562309265137	response	0	2		50.0	2.5	/experiments/knapen_aot/videos/R_S_ILSVRC2015_train_00363000.mp4	0.0	232.00999903678894	
52	165.2741310596466	movie	1		300.0	50.0	2.5	/experiments/knapen_aot/videos/R_S_ILSVRC2015_train_00363000.mp4	0.0	232.01850700378418	2.5079948902130127
52	167.2254500389099	response	1	2		50.0	2.5	/experiments/knapen_aot/videos/R_S_ILSVRC2015_train_00363000.mp4	0.0	233.96982598304749	
52	167.78212594985962	fix_post	2		12.0	50.0	2.5	/experiments/knapen_aot/videos/R_S_ILSVRC2015_train_00363000.mp4	0.0	234.5265018939972	0.09993910789489746
53	167.88206505775452	fix_pre	0		469.0	51.0	2.5	/experiments/knapen_aot/videos/S_yt-ZzC953ahaxs_195.mp4	0.0	234.6264410018921	3.9083268642425537
53	171.78218412399292	response	0	2		51.0	2.5	/experiments/knapen_aot/videos/S_yt-ZzC953ahaxs_195.mp4	0.0	238.5265600681305	
53	171.79039192199707	movie	1		301.0	51.0	2.5	/experiments/knapen_aot/videos/S_yt-ZzC953ahaxs_195.mp4	0.0	238.53476786613464	2.5083889961242676
53	174.29878091812134	fix_post	2		12.0	51.0	2.5	/experiments/knapen_aot/videos/S_yt-ZzC953ahaxs_195.mp4	0.0	241.0431568622589	0.10017800331115723
54	174.3989589214325	fix_pre	0		28.0	52.0	2.5	/experiments/knapen_aot/videos/R_S_yt-1V0KJEc4cJ4_203.mp4	0.0	241.14333486557007	0.23312807083129883
54	174.6238570213318	response	0	2		52.0	2.5	/experiments/knapen_aot/videos/R_S_yt-1V0KJEc4cJ4_203.mp4	0.0	241.36823296546936	
54	174.6320869922638	movie	1		301.0	52.0	2.5	/experiments/knapen_aot/videos/R_S_yt-1V0KJEc4cJ4_203.mp4	0.0	241.37646293640137	2.5083651542663574
54	177.14045214653015	fix_post	2		12.0	52.0	2.5	/experiments/knapen_aot/videos/R_S_yt-1V0KJEc4cJ4_203.mp4	0.0	243.88482809066772	0.0998997688293457
55	177.2403519153595	fix_pre	0		210.0	53.0	2.5	/experiments/knapen_aot/videos/S_yt-OLDm2slgfA4_3.mp4	0.0	243.98472785949707	1.750035047531128
55	178.9747669696808	response	0	2		53.0	2.5	/experiments/knapen_aot/videos/S_yt-OLDm2slgfA4_3.mp4	0.0	245.71914291381836	
55	178.99038696289062	movie	1		301.0	53.0	2.5	/experiments/knapen_aot/videos/S_yt-OLDm2slgfA4_3.mp4	0.0	245.7347629070282	2.5082831382751465
55	181.49867010116577	fix_post	2		12.0	53.0	2.5	/experiments/knapen_aot/videos/S_yt-OLDm2slgfA4_3.mp4	0.0	248.24304604530334	0.10001397132873535
56	181.5986840724945	fix_pre	0		47.0	54.0	2.5	/experiments/knapen_aot/videos/S_pexels-kindel-media-7147375.mp4	0.0	248.34306001663208	0.391618013381958
56	181.98220705986023	response	0	2		54.0	2.5	/experiments/knapen_aot/videos/S_pexels-kindel-media-7147375.mp4	0.0	248.7265830039978	
56	181.99030208587646	movie	1		167.0	54.0	2.5	/experiments/knapen_aot/videos/S_pexels-kindel-media-7147375.mp4	0.0	248.73467803001404	2.5083699226379395
56	184.4986720085144	fix_post	2		12.0	54.0	2.5	/experiments/knapen_aot/videos/S_pexels-kindel-media-7147375.mp4	0.0	251.24304795265198	0.09999799728393555
57	184.59867000579834	fix_pre	0		275.0	55.0	2.5	blank	1.0	251.3430459499359	2.2917139530181885
57	186.88213205337524	response	0	2		55.0	2.5	blank	1.0	253.62650799751282	
57	186.89038395881653	movie	1		301.0	55.0	2.5	blank	1.0	253.6347599029541	2.508413076400757
57	189.39879703521729	fix_post	2		12.0	55.0	2.5	blank	1.0	256.14317297935486	0.09991288185119629
58	189.49870991706848	fix_pre	0		47.0	56.0	2.5	/experiments/knapen_aot/videos/S_yt-83nimFMNhrM_131.mp4	0.0	256.24308586120605	0.39154911041259766
58	189.8821849822998	response	0	2		56.0	2.5	/experiments/knapen_aot/videos/S_yt-83nimFMNhrM_131.mp4	0.0	256.6265609264374	
58	189.89025902748108	movie	1		301.0	56.0	2.5	/experiments/knapen_aot/videos/S_yt-83nimFMNhrM_131.mp4	0.0	256.63463497161865	2.5084590911865234
58	192.3987181186676	fix_post	2		12.0	56.0	2.5	/experiments/knapen_aot/videos/S_yt-83nimFMNhrM_131.mp4	0.0	259.1430940628052	0.09995794296264648
59	192.49867606163025	fix_pre	0		43.0	57.0	2.5	/experiments/knapen_aot/videos/R_S_yt-JTVyt-eu4VI_1.mp4	0.0	259.2430520057678	0.35838890075683594
59	192.84890508651733	response	0	2		57.0	2.5	/experiments/knapen_aot/videos/R_S_yt-JTVyt-eu4VI_1.mp4	0.0	259.5932810306549	
59	192.85706496238708	movie	1		301.0	57.0	2.5	/experiments/knapen_aot/videos/R_S_yt-JTVyt-eu4VI_1.mp4	0.0	259.60144090652466	2.5082061290740967
59	195.36527109146118	fix_post	2		12.0	57.0	2.5	/experiments/knapen_aot/videos/R_S_yt-JTVyt-eu4VI_1.mp4	0.0	262.10964703559875	0.1000819206237793
60	195.46535301208496	fix_pre	0		339.0	58.0	2.5	/experiments/knapen_aot/videos/R_S_yt-5MyvZYFlc9g_125.mp4	0.0	262.20972895622253	2.824942111968994
60	198.28208303451538	response	0	2		58.0	2.5	/experiments/knapen_aot/videos/R_S_yt-5MyvZYFlc9g_125.mp4	0.0	265.02645897865295	
60	198.29029512405396	movie	1		299.0	58.0	2.5	/experiments/knapen_aot/videos/R_S_yt-5MyvZYFlc9g_125.mp4	0.0	265.0346710681915	2.5083439350128174
60	200.79863905906677	fix_post	2		12.0	58.0	2.5	/experiments/knapen_aot/videos/R_S_yt-5MyvZYFlc9g_125.mp4	0.0	267.54301500320435	0.10004901885986328
61	200.89868807792664	fix_pre	0		37.0	59.0	2.5	/experiments/knapen_aot/videos/S_yt-EApB0DJ3ECg_119.mp4	0.0	267.6430640220642	0.30820393562316895
61	201.19882202148438	response	0	2		59.0	2.5	/experiments/knapen_aot/videos/S_yt-EApB0DJ3ECg_119.mp4	0.0	267.94319796562195	
61	201.2068920135498	movie	1		301.0	59.0	2.5	/experiments/knapen_aot/videos/S_yt-EApB0DJ3ECg_119.mp4	0.0	267.9512679576874	2.508418083190918
61	203.71531009674072	fix_post	2		12.0	59.0	2.5	/experiments/knapen_aot/videos/S_yt-EApB0DJ3ECg_119.mp4	0.0	270.4596860408783	0.10000085830688477
62	203.8153109550476	fix_pre	0		48.0	60.0	2.5	/experiments/knapen_aot/videos/S_yt-mMnlzv6cfH4_134.mp4	0.0	270.5596868991852	0.3999621868133545
62	204.20735001564026	response	0	2		60.0	2.5	/experiments/knapen_aot/videos/S_yt-mMnlzv6cfH4_134.mp4	0.0	270.95172595977783	
62	204.21527314186096	movie	1		301.0	60.0	2.5	/experiments/knapen_aot/videos/S_yt-mMnlzv6cfH4_134.mp4	0.0	270.95964908599854	2.508295774459839
62	206.7235689163208	fix_post	2		12.0	60.0	2.5	/experiments/knapen_aot/videos/S_yt-mMnlzv6cfH4_134.mp4	0.0	273.4679448604584	0.10005021095275879
63	206.82361912727356	fix_pre	0		42.0	61.0	2.5	/experiments/knapen_aot/videos/R_S_ILSVRC2015_train_00495000.mp4	0.0	273.56799507141113	0.3499739170074463
63	207.1653790473938	response	0	2		61.0	2.5	/experiments/knapen_aot/videos/R_S_ILSVRC2015_train_00495000.mp4	0.0	273.9097549915314	
63	207.173593044281	movie	1		301.0	61.0	2.5	/experiments/knapen_aot/videos/R_S_ILSVRC2015_train_00495000.mp4	0.0	273.9179689884186	2.5083820819854736
63	209.68197512626648	fix_post	2		12.0	61.0	2.5	/experiments/knapen_aot/videos/R_S_ILSVRC2015_train_00495000.mp4	0.0	276.42635107040405	0.09998679161071777
64	209.7819619178772	fix_pre	0		49.0	62.0	2.5	blank	1.0	276.52633786201477	0.40830421447753906
64	210.18210697174072	response	0	2		62.0	2.5	blank	1.0	276.9264829158783	
64	210.19026613235474	movie	1		301.0	62.0	2.5	blank	1.0	276.9346420764923	2.508366823196411
64	212.30691003799438	response	1	2		62.0	2.5	blank	1.0	279.05128598213196	
64	212.69863295555115	fix_post	2		12.0	62.0	2.5	blank	1.0	279.4430088996887	0.09995412826538086
65	212.79858708381653	fix_pre	0		27.0	63.0	2.5	/experiments/knapen_aot/videos/R_S_ILSVRC2015_train_00495000.mp4	0.0	279.5429630279541	0.2249438762664795
65	213.01540899276733	response	0	2		63.0	2.5	/experiments/knapen_aot/videos/R_S_ILSVRC2015_train_00495000.mp4	0.0	279.7597849369049	
65	213.023530960083	movie	1		301.0	63.0	2.5	/experiments/knapen_aot/videos/R_S_ILSVRC2015_train_00495000.mp4	0.0	279.7679069042206	2.5083460807800293
65	215.53187704086304	fix_post	2		12.0	63.0	2.5	/experiments/knapen_aot/videos/R_S_ILSVRC2015_train_00495000.mp4	0.0	282.2762529850006	0.09999608993530273
66	215.63187313079834	fix_pre	0		32.0	64.0	2.5	/experiments/knapen_aot/videos/S_yt-0qfEA1ZFWjA_123.mp4	0.0	282.3762490749359	0.2666938304901123
66	215.8903350830078	response	0	2		64.0	2.5	/experiments/knapen_aot/videos/S_yt-0qfEA1ZFWjA_123.mp4	0.0	282.6347110271454	
66	215.89856696128845	movie	1		301.0	64.0	2.5	/experiments/knapen_aot/videos/S_yt-0qfEA1ZFWjA_123.mp4	0.0	282.642942905426	2.5082900524139404
66	218.4068570137024	fix_post	2		12.0	64.0	2.5	/experiments/knapen_aot/videos/S_yt-0qfEA1ZFWjA_123.mp4	0.0	285.15123295783997	0.0999910831451416
67	218.50684809684753	fix_pre	0		70.0	65.0	2.5	/experiments/knapen_aot/videos/S_yt-Rybd-sKJFz0_78.mp4	0.0	285.2512240409851	0.5832760334014893
67	219.08202815055847	response	0	2		65.0	2.5	/experiments/knapen_aot/videos/S_yt-Rybd-sKJFz0_78.mp4	0.0	285.82640409469604	
67	219.09012413024902	movie	1		301.0	65.0	2.5	/experiments/knapen_aot/videos/S_yt-Rybd-sKJFz0_78.mp4	0.0	285.8345000743866	2.508435010910034
67	221.59855914115906	fix_post	2		12.0	65.0	2.5	/experiments/knapen_aot/videos/S_yt-Rybd-sKJFz0_78.mp4	0.0	288.34293508529663	0.10002398490905762
68	221.69858312606812	fix_pre	0		239.0	66.0	2.5	/experiments/knapen_aot/videos/S_pexels-koolshooters-7689098.mp4	0.0	288.4429590702057	1.9916348457336426
68	223.68204593658447	response	0	2		66.0	2.5	/experiments/knapen_aot/videos/S_pexels-koolshooters-7689098.mp4	0.0	290.42642188072205	
68	223.69021797180176	movie	1		163.0	66.0	2.5	/experiments/knapen_aot/videos/S_pexels-koolshooters-7689098.mp4	0.0	290.43459391593933	2.5082781314849854
68	226.19849610328674	fix_post	2		12.0	66.0	2.5	/experiments/knapen_aot/videos/S_pexels-koolshooters-7689098.mp4	0.0	292.9428720474243	0.10004401206970215
69	226.29854011535645	fix_pre	0		73.0	67.0	2.5	/experiments/knapen_aot/videos/S_yt-WrwPgZYBXlA_34.mp4	0.0	293.042916059494	0.608259916305542
69	226.89111995697021	response	0	2		67.0	2.5	/experiments/knapen_aot/videos/S_yt-WrwPgZYBXlA_34.mp4	0.0	293.6354959011078	
69	226.906800031662	movie	1		301.0	67.0	2.5	/experiments/knapen_aot/videos/S_yt-WrwPgZYBXlA_34.mp4	0.0	293.65117597579956	2.5083680152893066
69	229.4151680469513	fix_post	2		12.0	67.0	2.5	/experiments/knapen_aot/videos/S_yt-WrwPgZYBXlA_34.mp4	0.0	296.15954399108887	0.10002303123474121
70	229.51519107818604	fix_pre	0		95.0	68.0	2.5	blank	1.0	296.2595670223236	0.7916028499603271
70	230.29859399795532	response	0	2		68.0	2.5	blank	1.0	297.0429699420929	
70	230.30679392814636	movie	1		301.0	68.0	2.5	blank	1.0	297.05116987228394	2.5083839893341064
70	232.81517791748047	fix_post	2		12.0	68.0	2.5	blank	1.0	299.55955386161804	0.09999322891235352
71	232.91517114639282	fix_pre	0		34.0	69.0	2.5	/experiments/knapen_aot/videos/S_flickr-csgzs-8144064966_10.mp4	0.0	299.6595470905304	0.28328800201416016
71	233.19026708602905	response	0	2		69.0	2.5	/experiments/knapen_aot/videos/S_flickr-csgzs-8144064966_10.mp4	0.0	299.9346430301666	
71	233.19845914840698	movie	1		299.0	69.0	2.5	/experiments/knapen_aot/videos/S_flickr-csgzs-8144064966_10.mp4	0.0	299.94283509254456	2.5083959102630615
71	235.70685505867004	fix_post	2		12.0	69.0	2.5	/experiments/knapen_aot/videos/S_flickr-csgzs-8144064966_10.mp4	0.0	302.4512310028076	0.10000801086425781
72	235.8068630695343	fix_pre	0		54.0	70.0	2.5	/experiments/knapen_aot/videos/R_S_yt-2SVpSaBAxsw_78.mp4	0.0	302.5512390136719	0.44999194145202637
72	236.24867606163025	response	0	2		70.0	2.5	/experiments/knapen_aot/videos/R_S_yt-2SVpSaBAxsw_78.mp4	0.0	302.9930520057678	
72	236.25685501098633	movie	1		301.0	70.0	2.5	/experiments/knapen_aot/videos/R_S_yt-2SVpSaBAxsw_78.mp4	0.0	303.0012309551239	2.508312940597534
72	238.76516795158386	fix_post	2		12.0	70.0	2.5	/experiments/knapen_aot/videos/R_S_yt-2SVpSaBAxsw_78.mp4	0.0	305.50954389572144	0.09999918937683105
73	238.8651671409607	fix_pre	0		34.0	71.0	2.5	/experiments/knapen_aot/videos/R_S_yt-2dRSJcaJIXw_32.mp4	0.0	305.60954308509827	0.2833278179168701
73	239.140310049057	response	0	2		71.0	2.5	/experiments/knapen_aot/videos/R_S_yt-2dRSJcaJIXw_32.mp4	0.0	305.8846859931946	
73	239.14849495887756	movie	1		301.0	71.0	2.5	/experiments/knapen_aot/videos/R_S_yt-2dRSJcaJIXw_32.mp4	0.0	305.89287090301514	2.50829815864563
73	241.6567931175232	fix_post	2		12.0	71.0	2.5	/experiments/knapen_aot/videos/R_S_yt-2dRSJcaJIXw_32.mp4	0.0	308.40116906166077	0.10006499290466309
74	241.75685811042786	fix_pre	0		61.0	72.0	2.5	/experiments/knapen_aot/videos/S_production_ID_4057155.mp4	0.0	308.50123405456543	0.5095109939575195
74	242.25696396827698	response	0	2		72.0	2.5	/experiments/knapen_aot/videos/S_production_ID_4057155.mp4	0.0	309.00133991241455	
74	242.26636910438538	movie	1		192.0	72.0	2.5	/experiments/knapen_aot/videos/S_production_ID_4057155.mp4	0.0	309.01074504852295	2.5070838928222656
74	244.77345299720764	fix_post	2		12.0	72.0	2.5	/experiments/knapen_aot/videos/S_production_ID_4057155.mp4	0.0	311.5178289413452	0.10004210472106934
75	244.8734951019287	fix_pre	0		528.0	73.0	2.5	/experiments/knapen_aot/videos/S_yt-8y7Xhp2_2e0_168.mp4	0.0	311.6178710460663	4.399855852127075
75	249.26523995399475	response	0	2		73.0	2.5	/experiments/knapen_aot/videos/S_yt-8y7Xhp2_2e0_168.mp4	0.0	316.0096158981323	
75	249.2733509540558	movie	1		301.0	73.0	2.5	/experiments/knapen_aot/videos/S_yt-8y7Xhp2_2e0_168.mp4	0.0	316.01772689819336	2.5084030628204346
75	251.78175401687622	fix_post	2		12.0	73.0	2.5	/experiments/knapen_aot/videos/S_yt-8y7Xhp2_2e0_168.mp4	0.0	318.5261299610138	0.09992313385009766
76	251.88167715072632	fix_pre	0		61.0	74.0	2.5	/experiments/knapen_aot/videos/S_yt--5ls65Ue1RA_52.mp4	0.0	318.6260530948639	0.5083467960357666
76	252.3743600845337	response	0	2		74.0	2.5	/experiments/knapen_aot/videos/S_yt--5ls65Ue1RA_52.mp4	0.0	319.11873602867126	
76	252.39002394676208	movie	1		301.0	74.0	2.5	/experiments/knapen_aot/videos/S_yt--5ls65Ue1RA_52.mp4	0.0	319.13439989089966	2.5084471702575684
76	254.89847111701965	fix_post	2		12.0	74.0	2.5	/experiments/knapen_aot/videos/S_yt--5ls65Ue1RA_52.mp4	0.0	321.6428470611572	0.09995484352111816
77	254.99842596054077	fix_pre	0		67.0	75.0	2.5	/experiments/knapen_aot/videos/R_S_yt-tneuR3EtSZE_72.mp4	0.0	321.74280190467834	0.5594570636749268
77	255.54852509498596	response	0	2		75.0	2.5	/experiments/knapen_aot/videos/R_S_yt-tneuR3EtSZE_72.mp4	0.0	322.29290103912354	
77	255.5578830242157	movie	1		301.0	75.0	2.5	/experiments/knapen_aot/videos/R_S_yt-tneuR3EtSZE_72.mp4	0.0	322.30225896835327	2.5072059631347656
77	258.06508898735046	fix_post	2		12.0	75.0	2.5	/experiments/knapen_aot/videos/R_S_yt-tneuR3EtSZE_72.mp4	0.0	324.80946493148804	0.09998512268066406
78	258.1650741100311	fix_pre	0		47.0	76.0	2.5	blank	1.0	324.9094500541687	0.3928248882293701
78	258.5485339164734	response	0	2		76.0	2.5	blank	1.0	325.29290986061096	
78	258.5578989982605	movie	1		301.0	76.0	2.5	blank	1.0	325.30227494239807	2.5071909427642822
78	261.0650899410248	fix_post	2		12.0	76.0	2.5	blank	1.0	327.80946588516235	0.09998297691345215
79	261.16507291793823	fix_pre	0		27.0	77.0	2.5	/experiments/knapen_aot/videos/S_Person_Going_Through_A_Bible.mp4	0.0	327.9094488620758	0.22607803344726562
79	261.3818371295929	response	0	2		77.0	2.5	/experiments/knapen_aot/videos/S_Person_Going_Through_A_Bible.mp4	0.0	328.12621307373047	
79	261.3911509513855	movie	1		164.0	77.0	2.5	/experiments/knapen_aot/videos/S_Person_Going_Through_A_Bible.mp4	0.0	328.13552689552307	2.5072879791259766
79	263.8984389305115	fix_post	2		12.0	77.0	2.5	/experiments/knapen_aot/videos/S_Person_Going_Through_A_Bible.mp4	0.0	330.64281487464905	0.09994816780090332
80	263.9983870983124	fix_pre	0		31.0	78.0	2.5	/experiments/knapen_aot/videos/S_ILSVRC2015_train_00219004.mp4	0.0	330.74276304244995	0.2583498954772949
80	264.2484641075134	response	0	2		78.0	2.5	/experiments/knapen_aot/videos/S_ILSVRC2015_train_00219004.mp4	0.0	330.992840051651	
80	264.2567369937897	movie	1		301.0	78.0	2.5	/experiments/knapen_aot/videos/S_ILSVRC2015_train_00219004.mp4	0.0	331.00111293792725	2.508307933807373
80	266.76504492759705	fix_post	2		12.0	78.0	2.5	/experiments/knapen_aot/videos/S_ILSVRC2015_train_00219004.mp4	0.0	333.5094208717346	0.10010719299316406
80	266.8568561077118	response	2	2		78.0	2.5	/experiments/knapen_aot/videos/S_ILSVRC2015_train_00219004.mp4	0.0	333.60123205184937	
81	266.8651521205902	fix_pre	0		109.0	79.0	2.5	/experiments/knapen_aot/videos/R_S_production_ID_5020960.mp4	0.0	333.6095280647278	0.9081950187683105
81	267.7651860713959	response	0	2		79.0	2.5	/experiments/knapen_aot/videos/R_S_production_ID_5020960.mp4	0.0	334.50956201553345	
81	267.7733471393585	movie	1		194.0	79.0	2.5	/experiments/knapen_aot/videos/R_S_production_ID_5020960.mp4	0.0	334.5177230834961	2.5082859992980957
81	270.2816331386566	fix_post	2		12.0	79.0	2.5	/experiments/knapen_aot/videos/R_S_production_ID_5020960.mp4	0.0	337.0260090827942	0.10001587867736816
82	270.381649017334	fix_pre	0		32.0	80.0	2.5	/experiments/knapen_aot/videos/R_S_yt-s73Xqkcq9Js_285.mp4	0.0	337.12602496147156	0.26665401458740234
82	270.64010405540466	response	0	2		80.0	2.5	/experiments/knapen_aot/videos/R_S_yt-s73Xqkcq9Js_285.mp4	0.0	337.38447999954224	
82	270.6483030319214	movie	1		301.0	80.0	2.5	/experiments/knapen_aot/videos/R_S_yt-s73Xqkcq9Js_285.mp4	0.0	337.39267897605896	2.5082950592041016
82	273.1565980911255	fix_post	2		12.0	80.0	2.5	/experiments/knapen_aot/videos/R_S_yt-s73Xqkcq9Js_285.mp4	0.0	339.90097403526306	0.10005593299865723
83	273.25665402412415	fix_pre	0		21.0	81.0	2.5	/experiments/knapen_aot/videos/S_yt-d5jBQ-LOW2I_17.mp4	0.0	340.0010299682617	0.17607593536376953
83	273.4233739376068	response	0	2		81.0	2.5	/experiments/knapen_aot/videos/S_yt-d5jBQ-LOW2I_17.mp4	0.0	340.1677498817444	
83	273.4327299594879	movie	1		301.0	81.0	2.5	/experiments/knapen_aot/videos/S_yt-d5jBQ-LOW2I_17.mp4	0.0	340.1771059036255	2.507162094116211
83	275.9398920536041	fix_post	2		12.0	81.0	2.5	/experiments/knapen_aot/videos/S_yt-d5jBQ-LOW2I_17.mp4	0.0	342.6842679977417	0.1001138687133789
84	276.0400059223175	fix_pre	0		36.0	82.0	2.5	blank	1.0	342.7843818664551	0.29990315437316895
84	276.3317680358887	response	0	2		82.0	2.5	blank	1.0	343.07614398002625	
84	276.3399090766907	movie	1		301.0	82.0	2.5	blank	1.0	343.08428502082825	2.508375883102417
84	278.8482849597931	fix_post	2		12.0	82.0	2.5	blank	1.0	345.59266090393066	0.1000220775604248
85	278.9483070373535	fix_pre	0		21.0	83.0	2.5	/experiments/knapen_aot/videos/S_yt-mHLTJkMrkZI_143.mp4	0.0	345.6926829814911	0.17497801780700684
85	279.10756492614746	response	0	2		83.0	2.5	/experiments/knapen_aot/videos/S_yt-mHLTJkMrkZI_143.mp4	0.0	345.85194087028503	
85	279.1232850551605	movie	1		299.0	83.0	2.5	/experiments/knapen_aot/videos/S_yt-mHLTJkMrkZI_143.mp4	0.0	345.8676609992981	2.5083119869232178
85	281.63159704208374	fix_post	2		12.0	83.0	2.5	/experiments/knapen_aot/videos/S_yt-mHLTJkMrkZI_143.mp4	0.0	348.3759729862213	0.09997701644897461
87	281.7315740585327	stim	0		590.0					348.4759500026703	4.916697025299072
87	282.43175411224365	response	0	2						349.1761300563812	
87	286.6375789642334	response	0	space						353.381954908371	
