trial_nr	onset	event_type	phase	response	nr_frames	movie_index	movie_duration	movie_file	blank	onset_abs	duration
0	0.12491202354431152	stim	0		71.0					58.583590030670166	0.5916531085968018
0	0.7084879875183105	response	0	space						59.167165994644165	
1	0.7165651321411133	stim	0		121.0					59.17524313926697	1.0084278583526611
1	1.359687089920044	response	0	space						59.8183650970459	
1	1.7249929904937744	stim	1		120.0					60.18367099761963	0.9995942115783691
1	2.1163570880889893	response	1	space						60.575035095214844	
1	2.4173460006713867	response	1	space						60.87602400779724	
2	2.7245872020721436	fix_pre	0		1.0	0.0	2.5	/experiments/knapen_aot/videos/S_yt-r2jZ0zZrqzQ_45.mp4	0.0	61.183265209198	0.011076927185058594
2	2.72745418548584	response	0	space		0.0	2.5	/experiments/knapen_aot/videos/S_yt-r2jZ0zZrqzQ_45.mp4	0.0	61.186132192611694	
2	2.735664129257202	movie	1		301.0	0.0	2.5	/experiments/knapen_aot/videos/S_yt-r2jZ0zZrqzQ_45.mp4	0.0	61.19434213638306	2.505510091781616
2	5.241174221038818	fix_post	2		12.0	0.0	2.5	/experiments/knapen_aot/videos/S_yt-r2jZ0zZrqzQ_45.mp4	0.0	63.69985222816467	0.10011887550354004
3	5.341293096542358	fix_pre	0		56.0	1.0	2.5	/experiments/knapen_aot/videos/S_yt-hTkrnNr39dk_202.mp4	0.0	63.79997110366821	0.4665648937225342
3	5.802311182022095	response	0	2		1.0	2.5	/experiments/knapen_aot/videos/S_yt-hTkrnNr39dk_202.mp4	0.0	64.26098918914795	
3	5.807857990264893	movie	1		299.0	1.0	2.5	/experiments/knapen_aot/videos/S_yt-hTkrnNr39dk_202.mp4	0.0	64.26653599739075	2.5083940029144287
3	8.316251993179321	fix_post	2		12.0	1.0	2.5	/experiments/knapen_aot/videos/S_yt-hTkrnNr39dk_202.mp4	0.0	66.77493000030518	0.0999901294708252
4	8.416242122650146	fix_pre	0		43.0	2.0	2.5	/experiments/knapen_aot/videos/S_Oo8otu7cQ20_112.mp4	0.0	66.874920129776	0.35826897621154785
4	8.766354084014893	response	0	2		2.0	2.5	/experiments/knapen_aot/videos/S_Oo8otu7cQ20_112.mp4	0.0	67.22503209114075	
4	8.774511098861694	movie	1		301.0	2.0	2.5	/experiments/knapen_aot/videos/S_Oo8otu7cQ20_112.mp4	0.0	67.23318910598755	2.508496046066284
4	11.283007144927979	fix_post	2		12.0	2.0	2.5	/experiments/knapen_aot/videos/S_Oo8otu7cQ20_112.mp4	0.0	69.74168515205383	0.09987497329711914
5	11.382882118225098	fix_pre	0		36.0	3.0	2.5	/experiments/knapen_aot/videos/S_ILSVRC2015_train_00373001.mp4	0.0	69.84156012535095	0.29993700981140137
5	11.674641132354736	response	0	2		3.0	2.5	/experiments/knapen_aot/videos/S_ILSVRC2015_train_00373001.mp4	0.0	70.13331913948059	
5	11.682819128036499	movie	1		301.0	3.0	2.5	/experiments/knapen_aot/videos/S_ILSVRC2015_train_00373001.mp4	0.0	70.14149713516235	2.508476972579956
5	14.191296100616455	fix_post	2		12.0	3.0	2.5	/experiments/knapen_aot/videos/S_ILSVRC2015_train_00373001.mp4	0.0	72.64997410774231	0.09993505477905273
6	14.291231155395508	fix_pre	0		20.0	4.0	2.5	/experiments/knapen_aot/videos/S_yt-44ip3uFe4YM_30.mp4	0.0	72.74990916252136	0.16657400131225586
6	14.442047119140625	response	0	2		4.0	2.5	/experiments/knapen_aot/videos/S_yt-44ip3uFe4YM_30.mp4	0.0	72.90072512626648	
6	14.457805156707764	movie	1		301.0	4.0	2.5	/experiments/knapen_aot/videos/S_yt-44ip3uFe4YM_30.mp4	0.0	72.91648316383362	2.5083799362182617
6	16.966185092926025	fix_post	2		12.0	4.0	2.5	/experiments/knapen_aot/videos/S_yt-44ip3uFe4YM_30.mp4	0.0	75.42486310005188	0.09999990463256836
7	17.066184997558594	fix_pre	0		46.0	5.0	2.5	blank	1.0	75.52486300468445	0.3832991123199463
7	17.441290140151978	response	0	2		5.0	2.5	blank	1.0	75.89996814727783	
7	17.44948410987854	movie	1		301.0	5.0	2.5	blank	1.0	75.9081621170044	2.508347988128662
7	19.957832098007202	fix_post	2		12.0	5.0	2.5	blank	1.0	78.41651010513306	0.10003399848937988
8	20.057866096496582	fix_pre	0		30.0	6.0	2.5	/experiments/knapen_aot/videos/R_S_yt-2jVJb1PR2XA_16.mp4	0.0	78.51654410362244	0.2499220371246338
8	20.299610137939453	response	0	2		6.0	2.5	/experiments/knapen_aot/videos/R_S_yt-2jVJb1PR2XA_16.mp4	0.0	78.75828814506531	
8	20.307788133621216	movie	1		301.0	6.0	2.5	/experiments/knapen_aot/videos/R_S_yt-2jVJb1PR2XA_16.mp4	0.0	78.76646614074707	2.5084080696105957
8	22.81619620323181	fix_post	2		12.0	6.0	2.5	/experiments/knapen_aot/videos/R_S_yt-2jVJb1PR2XA_16.mp4	0.0	81.27487421035767	0.09993600845336914
9	22.91613221168518	fix_pre	0		28.0	7.0	2.5	/experiments/knapen_aot/videos/R_S_yt-Ub5Xx5BqIOk_74.mp4	0.0	81.37481021881104	0.23328900337219238
9	23.141321182250977	response	0	2		7.0	2.5	/experiments/knapen_aot/videos/R_S_yt-Ub5Xx5BqIOk_74.mp4	0.0	81.59999918937683	
9	23.149421215057373	movie	1		301.0	7.0	2.5	/experiments/knapen_aot/videos/R_S_yt-Ub5Xx5BqIOk_74.mp4	0.0	81.60809922218323	2.508382797241211
9	25.657804012298584	fix_post	2		12.0	7.0	2.5	/experiments/knapen_aot/videos/R_S_yt-Ub5Xx5BqIOk_74.mp4	0.0	84.11648201942444	0.100006103515625
10	25.75781011581421	fix_pre	0		33.0	8.0	2.5	/experiments/knapen_aot/videos/R_S_yt-mdLT282PVbE_6.mp4	0.0	84.21648812294006	0.2761819362640381
10	26.02458620071411	response	0	2		8.0	2.5	/experiments/knapen_aot/videos/R_S_yt-mdLT282PVbE_6.mp4	0.0	84.48326420783997	
10	26.033992052078247	movie	1		301.0	8.0	2.5	/experiments/knapen_aot/videos/R_S_yt-mdLT282PVbE_6.mp4	0.0	84.4926700592041	2.5071160793304443
10	28.54110813140869	fix_post	2		12.0	8.0	2.5	/experiments/knapen_aot/videos/R_S_yt-mdLT282PVbE_6.mp4	0.0	86.99978613853455	0.10003209114074707
11	28.64114022254944	fix_pre	0		32.0	9.0	2.5	/experiments/knapen_aot/videos/R_S_production_ID_4360158.mp4	0.0	87.0998182296753	0.26783299446105957
11	28.89959406852722	response	0	2		9.0	2.5	/experiments/knapen_aot/videos/R_S_production_ID_4360158.mp4	0.0	87.35827207565308	
11	28.908973217010498	movie	1		167.0	9.0	2.5	/experiments/knapen_aot/videos/R_S_production_ID_4360158.mp4	0.0	87.36765122413635	2.5071427822113037
11	31.4161159992218	fix_post	2		12.0	9.0	2.5	/experiments/knapen_aot/videos/R_S_production_ID_4360158.mp4	0.0	89.87479400634766	0.09999608993530273
12	31.516112089157104	fix_pre	0		30.0	10.0	2.5	/experiments/knapen_aot/videos/R_S_yt-35i8UeYXjGw_47.mp4	0.0	89.97479009628296	0.24994993209838867
12	31.757877111434937	response	0	2		10.0	2.5	/experiments/knapen_aot/videos/R_S_yt-35i8UeYXjGw_47.mp4	0.0	90.21655511856079	
12	31.766062021255493	movie	1		301.0	10.0	2.5	/experiments/knapen_aot/videos/R_S_yt-35i8UeYXjGw_47.mp4	0.0	90.22474002838135	2.508327007293701
12	34.274389028549194	fix_post	2		12.0	10.0	2.5	/experiments/knapen_aot/videos/R_S_yt-35i8UeYXjGw_47.mp4	0.0	92.73306703567505	0.10006904602050781
13	34.3744580745697	fix_pre	0		53.0	11.0	2.5	/experiments/knapen_aot/videos/S_video_inspire_nevada_lasvegas_northstrip_021.1080-h264.mp4	0.0	92.83313608169556	0.4416041374206543
13	34.807913064956665	response	0	2		11.0	2.5	/experiments/knapen_aot/videos/S_video_inspire_nevada_lasvegas_northstrip_021.1080-h264.mp4	0.0	93.26659107208252	
13	34.816062211990356	movie	1		170.0	11.0	2.5	/experiments/knapen_aot/videos/S_video_inspire_nevada_lasvegas_northstrip_021.1080-h264.mp4	0.0	93.27474021911621	2.5083940029144287
13	37.324456214904785	fix_post	2		12.0	11.0	2.5	/experiments/knapen_aot/videos/S_video_inspire_nevada_lasvegas_northstrip_021.1080-h264.mp4	0.0	95.78313422203064	0.1000058650970459
14	37.42446208000183	fix_pre	0		41.0	12.0	2.5	blank	1.0	95.88314008712769	0.3416121006011963
14	37.75778913497925	response	0	2		12.0	2.5	blank	1.0	96.2164671421051	
14	37.76607418060303	movie	1		301.0	12.0	2.5	blank	1.0	96.22475218772888	2.508373975753784
14	40.27444815635681	fix_post	2		12.0	12.0	2.5	blank	1.0	98.73312616348267	0.09996390342712402
15	40.374412059783936	fix_pre	0		49.0	13.0	2.5	/experiments/knapen_aot/videos/R_S_ILSVRC2015_train_00417000.mp4	0.0	98.83309006690979	0.4094071388244629
15	40.774537086486816	response	0	2		13.0	2.5	/experiments/knapen_aot/videos/R_S_ILSVRC2015_train_00417000.mp4	0.0	99.23321509361267	
15	40.7838191986084	movie	1		301.0	13.0	2.5	/experiments/knapen_aot/videos/R_S_ILSVRC2015_train_00417000.mp4	0.0	99.24249720573425	2.5072898864746094
15	43.29110908508301	fix_post	2		12.0	13.0	2.5	/experiments/knapen_aot/videos/R_S_ILSVRC2015_train_00417000.mp4	0.0	101.74978709220886	0.09996604919433594
16	43.391075134277344	fix_pre	0		29.0	14.0	2.5	/experiments/knapen_aot/videos/S_yt-BF80IX4r8x4_106.mp4	0.0	101.8497531414032	0.24161386489868164
16	43.624460220336914	response	0	2		14.0	2.5	/experiments/knapen_aot/videos/S_yt-BF80IX4r8x4_106.mp4	0.0	102.08313822746277	
16	43.632688999176025	movie	1		301.0	14.0	2.5	/experiments/knapen_aot/videos/S_yt-BF80IX4r8x4_106.mp4	0.0	102.09136700630188	2.508686065673828
16	46.14137506484985	fix_post	2		12.0	14.0	2.5	/experiments/knapen_aot/videos/S_yt-BF80IX4r8x4_106.mp4	0.0	104.60005307197571	0.0997159481048584
17	46.24109101295471	fix_pre	0		34.0	15.0	2.5	/experiments/knapen_aot/videos/S_wc-zkO_omg3nTvg_5.mp4	0.0	104.69976902008057	0.2833290100097656
17	46.51624798774719	response	0	2		15.0	2.5	/experiments/knapen_aot/videos/S_wc-zkO_omg3nTvg_5.mp4	0.0	104.97492599487305	
17	46.52442002296448	movie	1		167.0	15.0	2.5	/experiments/knapen_aot/videos/S_wc-zkO_omg3nTvg_5.mp4	0.0	104.98309803009033	2.508342981338501
17	49.03276300430298	fix_post	2		12.0	15.0	2.5	/experiments/knapen_aot/videos/S_wc-zkO_omg3nTvg_5.mp4	0.0	107.49144101142883	0.09999799728393555
18	49.132761001586914	fix_pre	0		44.0	16.0	2.5	/experiments/knapen_aot/videos/S_yt-EApB0DJ3ECg_119.mp4	0.0	107.59143900871277	0.3665940761566162
18	49.49123811721802	response	0	2		16.0	2.5	/experiments/knapen_aot/videos/S_yt-EApB0DJ3ECg_119.mp4	0.0	107.94991612434387	
18	49.49935507774353	movie	1		301.0	16.0	2.5	/experiments/knapen_aot/videos/S_yt-EApB0DJ3ECg_119.mp4	0.0	107.95803308486938	2.5083870887756348
18	52.007742166519165	fix_post	2		12.0	16.0	2.5	/experiments/knapen_aot/videos/S_yt-EApB0DJ3ECg_119.mp4	0.0	110.46642017364502	0.09997701644897461
19	52.10771918296814	fix_pre	0		53.0	17.0	2.5	/experiments/knapen_aot/videos/S_yt-9qXwehMoX7o_50.mp4	0.0	110.566397190094	0.4415888786315918
19	52.54114818572998	response	0	2		17.0	2.5	/experiments/knapen_aot/videos/S_yt-9qXwehMoX7o_50.mp4	0.0	110.99982619285583	
19	52.54930806159973	movie	1		301.0	17.0	2.5	/experiments/knapen_aot/videos/S_yt-9qXwehMoX7o_50.mp4	0.0	111.00798606872559	2.508453130722046
19	55.05776119232178	fix_post	2		12.0	17.0	2.5	/experiments/knapen_aot/videos/S_yt-9qXwehMoX7o_50.mp4	0.0	113.51643919944763	0.09994697570800781
20	55.157708168029785	fix_pre	0		44.0	18.0	2.5	/experiments/knapen_aot/videos/S_yt-Xs-YKSogfak_24.mp4	0.0	113.61638617515564	0.36656999588012695
20	55.5162410736084	response	0	2		18.0	2.5	/experiments/knapen_aot/videos/S_yt-Xs-YKSogfak_24.mp4	0.0	113.97491908073425	
20	55.52427816390991	movie	1		301.0	18.0	2.5	/experiments/knapen_aot/videos/S_yt-Xs-YKSogfak_24.mp4	0.0	113.98295617103577	2.5083470344543457
20	58.03262519836426	fix_post	2		12.0	18.0	2.5	/experiments/knapen_aot/videos/S_yt-Xs-YKSogfak_24.mp4	0.0	116.49130320549011	0.10005998611450195
21	58.13268518447876	fix_pre	0		59.0	19.0	2.5	blank	1.0	116.59136319160461	0.49163198471069336
21	58.61614203453064	response	0	2		19.0	2.5	blank	1.0	117.0748200416565	
21	58.62431716918945	movie	1		301.0	19.0	2.5	blank	1.0	117.08299517631531	2.5083389282226562
21	61.13265609741211	fix_post	2		12.0	19.0	2.5	blank	1.0	119.59133410453796	0.10007405281066895
22	61.23273015022278	fix_pre	0		49.0	20.0	2.5	/experiments/knapen_aot/videos/R_S_ILSVRC2015_train_00363000.mp4	0.0	119.69140815734863	0.40822291374206543
22	61.632779121398926	response	0	2		20.0	2.5	/experiments/knapen_aot/videos/R_S_ILSVRC2015_train_00363000.mp4	0.0	120.09145712852478	
22	61.640953063964844	movie	1		301.0	20.0	2.5	/experiments/knapen_aot/videos/R_S_ILSVRC2015_train_00363000.mp4	0.0	120.0996310710907	2.508389949798584
22	64.14934301376343	fix_post	2		12.0	20.0	2.5	/experiments/knapen_aot/videos/R_S_ILSVRC2015_train_00363000.mp4	0.0	122.60802102088928	0.09998512268066406
23	64.24932813644409	fix_pre	0		53.0	21.0	2.5	/experiments/knapen_aot/videos/S_yt-Xs-YKSogfak_24.mp4	0.0	122.70800614356995	0.4416790008544922
23	64.67525315284729	response	0	2		21.0	2.5	/experiments/knapen_aot/videos/S_yt-Xs-YKSogfak_24.mp4	0.0	123.13393115997314	
23	64.69100713729858	movie	1		301.0	21.0	2.5	/experiments/knapen_aot/videos/S_yt-Xs-YKSogfak_24.mp4	0.0	123.14968514442444	2.5083980560302734
23	67.19940519332886	fix_post	2		12.0	21.0	2.5	/experiments/knapen_aot/videos/S_yt-Xs-YKSogfak_24.mp4	0.0	125.65808320045471	0.09991693496704102
24	67.2993221282959	fix_pre	0		55.0	22.0	2.5	/experiments/knapen_aot/videos/R_S_yt-Xs-YKSogfak_24.mp4	0.0	125.75800013542175	0.45819997787475586
24	67.74945116043091	response	0	2		22.0	2.5	/experiments/knapen_aot/videos/R_S_yt-Xs-YKSogfak_24.mp4	0.0	126.20812916755676	
24	67.75752210617065	movie	1		300.0	22.0	2.5	/experiments/knapen_aot/videos/R_S_yt-Xs-YKSogfak_24.mp4	0.0	126.21620011329651	2.50844407081604
24	70.2659661769867	fix_post	2		12.0	22.0	2.5	/experiments/knapen_aot/videos/R_S_yt-Xs-YKSogfak_24.mp4	0.0	128.72464418411255	0.10001897811889648
25	70.36598515510559	fix_pre	0		39.0	23.0	2.5	/experiments/knapen_aot/videos/S_wc-zkO_omg3nTvg_5.mp4	0.0	128.82466316223145	0.32495903968811035
25	70.68276715278625	response	0	2		23.0	2.5	/experiments/knapen_aot/videos/S_wc-zkO_omg3nTvg_5.mp4	0.0	129.1414451599121	
25	70.6909441947937	movie	1		165.0	23.0	2.5	/experiments/knapen_aot/videos/S_wc-zkO_omg3nTvg_5.mp4	0.0	129.14962220191956	2.5082569122314453
25	73.19920110702515	fix_post	2		12.0	23.0	2.5	/experiments/knapen_aot/videos/S_wc-zkO_omg3nTvg_5.mp4	0.0	131.657879114151	0.10013699531555176
26	73.2993381023407	fix_pre	0		49.0	24.0	2.5	/experiments/knapen_aot/videos/S_yt-n1snPiGfg0A_45.mp4	0.0	131.75801610946655	0.4082610607147217
26	73.69184303283691	response	0	2		24.0	2.5	/experiments/knapen_aot/videos/S_yt-n1snPiGfg0A_45.mp4	0.0	132.15052103996277	
26	73.70759916305542	movie	1		301.0	24.0	2.5	/experiments/knapen_aot/videos/S_yt-n1snPiGfg0A_45.mp4	0.0	132.16627717018127	2.5084898471832275
26	76.21608901023865	fix_post	2		12.0	24.0	2.5	/experiments/knapen_aot/videos/S_yt-n1snPiGfg0A_45.mp4	0.0	134.6747670173645	0.09995102882385254
27	76.3160400390625	fix_pre	0		35.0	25.0	2.5	/experiments/knapen_aot/videos/S_Pexels_Videos_2795737.mp4	0.0	134.77471804618835	0.29147911071777344
27	76.59930109977722	response	0	2		25.0	2.5	/experiments/knapen_aot/videos/S_Pexels_Videos_2795737.mp4	0.0	135.05797910690308	
27	76.60751914978027	movie	1		171.0	25.0	2.5	/experiments/knapen_aot/videos/S_Pexels_Videos_2795737.mp4	0.0	135.06619715690613	2.50858998298645
27	79.11610913276672	fix_post	2		12.0	25.0	2.5	/experiments/knapen_aot/videos/S_Pexels_Videos_2795737.mp4	0.0	137.57478713989258	0.0998079776763916
28	79.21591711044312	fix_pre	0		41.0	26.0	2.5	/experiments/knapen_aot/videos/R_S_yt-Jo6PxivsTOg_247.mp4	0.0	137.67459511756897	0.34163594245910645
28	79.54935622215271	response	0	2		26.0	2.5	/experiments/knapen_aot/videos/R_S_yt-Jo6PxivsTOg_247.mp4	0.0	138.00803422927856	
28	79.55755305290222	movie	1		301.0	26.0	2.5	/experiments/knapen_aot/videos/R_S_yt-Jo6PxivsTOg_247.mp4	0.0	138.01623106002808	2.50833797454834
28	82.06589102745056	fix_post	2		12.0	26.0	2.5	/experiments/knapen_aot/videos/R_S_yt-Jo6PxivsTOg_247.mp4	0.0	140.52456903457642	0.10008406639099121
29	82.16597509384155	fix_pre	0		42.0	27.0	2.5	blank	1.0	140.6246531009674	0.3498721122741699
29	82.50773119926453	response	0	2		27.0	2.5	blank	1.0	140.96640920639038	
29	82.51584720611572	movie	1		301.0	27.0	2.5	blank	1.0	140.97452521324158	2.5083680152893066
29	85.02421522140503	fix_post	2		12.0	27.0	2.5	blank	1.0	143.48289322853088	0.10001683235168457
30	85.12423205375671	fix_pre	0		65.0	28.0	2.5	/experiments/knapen_aot/videos/S_yt-eoASPwIAiHY_244.mp4	0.0	143.58291006088257	0.5416359901428223
30	85.65771508216858	response	0	2		28.0	2.5	/experiments/knapen_aot/videos/S_yt-eoASPwIAiHY_244.mp4	0.0	144.11639308929443	
30	85.66586804389954	movie	1		301.0	28.0	2.5	/experiments/knapen_aot/videos/S_yt-eoASPwIAiHY_244.mp4	0.0	144.1245460510254	2.5083539485931396
30	88.17422199249268	fix_post	2		12.0	28.0	2.5	/experiments/knapen_aot/videos/S_yt-eoASPwIAiHY_244.mp4	0.0	146.63289999961853	0.10009503364562988
31	88.2743170261383	fix_pre	0		36.0	29.0	2.5	/experiments/knapen_aot/videos/S_yt-26009GpQuUg_3.mp4	0.0	146.73299503326416	0.300853967666626
31	88.56599020957947	response	0	2		29.0	2.5	/experiments/knapen_aot/videos/S_yt-26009GpQuUg_3.mp4	0.0	147.02466821670532	
31	88.57517099380493	movie	1		301.0	29.0	2.5	/experiments/knapen_aot/videos/S_yt-26009GpQuUg_3.mp4	0.0	147.0338490009308	2.5073800086975098
31	91.08255100250244	fix_post	2		12.0	29.0	2.5	/experiments/knapen_aot/videos/S_yt-26009GpQuUg_3.mp4	0.0	149.5412290096283	0.10003900527954102
32	91.18259000778198	fix_pre	0		48.0	30.0	2.5	/experiments/knapen_aot/videos/R_S_production_ID_4510883.mp4	0.0	149.64126801490784	0.39990806579589844
32	91.5742781162262	response	0	2		30.0	2.5	/experiments/knapen_aot/videos/R_S_production_ID_4510883.mp4	0.0	150.03295612335205	
32	91.58249807357788	movie	1		164.0	30.0	2.5	/experiments/knapen_aot/videos/R_S_production_ID_4510883.mp4	0.0	150.04117608070374	2.5083870887756348
32	94.09088516235352	fix_post	2		12.0	30.0	2.5	/experiments/knapen_aot/videos/R_S_production_ID_4510883.mp4	0.0	152.54956316947937	0.09997987747192383
33	94.19086503982544	fix_pre	0		35.0	31.0	2.5	/experiments/knapen_aot/videos/S_pexels-cottonbro-10639398.mp4	0.0	152.6495430469513	0.2916879653930664
33	94.47434115409851	response	0	2		31.0	2.5	/experiments/knapen_aot/videos/S_pexels-cottonbro-10639398.mp4	0.0	152.93301916122437	
33	94.4825530052185	movie	1		190.0	31.0	2.5	/experiments/knapen_aot/videos/S_pexels-cottonbro-10639398.mp4	0.0	152.94123101234436	2.5082881450653076
33	96.99084115028381	fix_post	2		12.0	31.0	2.5	/experiments/knapen_aot/videos/S_pexels-cottonbro-10639398.mp4	0.0	155.44951915740967	0.10000991821289062
34	97.0908510684967	fix_pre	0		36.0	32.0	2.5	/experiments/knapen_aot/videos/R_S_yt-C0INfEJ4Awk_53.mp4	0.0	155.54952907562256	0.29999709129333496
34	97.38269019126892	response	0	2		32.0	2.5	/experiments/knapen_aot/videos/R_S_yt-C0INfEJ4Awk_53.mp4	0.0	155.84136819839478	
34	97.39084815979004	movie	1		301.0	32.0	2.5	/experiments/knapen_aot/videos/R_S_yt-C0INfEJ4Awk_53.mp4	0.0	155.8495261669159	2.508302927017212
34	99.89915108680725	fix_post	2		12.0	32.0	2.5	/experiments/knapen_aot/videos/R_S_yt-C0INfEJ4Awk_53.mp4	0.0	158.3578290939331	0.10004591941833496
35	99.99919700622559	fix_pre	0		39.0	33.0	2.5	blank	1.0	158.45787501335144	0.32585811614990234
35	100.31588506698608	response	0	2		33.0	2.5	blank	1.0	158.77456307411194	
35	100.32505512237549	movie	1		301.0	33.0	2.5	blank	1.0	158.78373312950134	2.507467031478882
35	102.83252215385437	fix_post	2		12.0	33.0	2.5	blank	1.0	161.29120016098022	0.10003089904785156
36	102.93255305290222	fix_pre	0		60.0	34.0	2.5	/experiments/knapen_aot/videos/R_S_Pexels_Videos_2795737.mp4	0.0	161.39123106002808	0.5000030994415283
36	103.42426109313965	response	0	2		34.0	2.5	/experiments/knapen_aot/videos/R_S_Pexels_Videos_2795737.mp4	0.0	161.8829391002655	
36	103.43255615234375	movie	1		165.0	34.0	2.5	/experiments/knapen_aot/videos/R_S_Pexels_Videos_2795737.mp4	0.0	161.8912341594696	2.508380889892578
36	105.94093704223633	fix_post	2		12.0	34.0	2.5	/experiments/knapen_aot/videos/R_S_Pexels_Videos_2795737.mp4	0.0	164.39961504936218	0.09987711906433105
37	106.04081416130066	fix_pre	0		32.0	35.0	2.5	/experiments/knapen_aot/videos/R_S_yt-MSdNCUWOp4o_4.mp4	0.0	164.4994921684265	0.26659488677978516
37	106.29928708076477	response	0	2		35.0	2.5	/experiments/knapen_aot/videos/R_S_yt-MSdNCUWOp4o_4.mp4	0.0	164.75796508789062	
37	106.30740904808044	movie	1		301.0	35.0	2.5	/experiments/knapen_aot/videos/R_S_yt-MSdNCUWOp4o_4.mp4	0.0	164.7660870552063	2.5084049701690674
37	108.81581401824951	fix_post	2		12.0	35.0	2.5	/experiments/knapen_aot/videos/R_S_yt-MSdNCUWOp4o_4.mp4	0.0	167.27449202537537	0.09999918937683105
38	108.91581320762634	fix_pre	0		35.0	36.0	2.5	/experiments/knapen_aot/videos/S_yt-I2n2eo2zoZs_112.mp4	0.0	167.3744912147522	0.29160380363464355
38	109.1992781162262	response	0	2		36.0	2.5	/experiments/knapen_aot/videos/S_yt-I2n2eo2zoZs_112.mp4	0.0	167.65795612335205	
38	109.20741701126099	movie	1		301.0	36.0	2.5	/experiments/knapen_aot/videos/S_yt-I2n2eo2zoZs_112.mp4	0.0	167.66609501838684	2.5084550380706787
38	111.71587204933167	fix_post	2		12.0	36.0	2.5	/experiments/knapen_aot/videos/S_yt-I2n2eo2zoZs_112.mp4	0.0	170.17455005645752	0.09995412826538086
39	111.81582617759705	fix_pre	0		43.0	37.0	2.5	/experiments/knapen_aot/videos/S_yt-y6JsUW0eSW8_32.mp4	0.0	170.2745041847229	0.35822486877441406
39	112.16591501235962	response	0	2		37.0	2.5	/experiments/knapen_aot/videos/S_yt-y6JsUW0eSW8_32.mp4	0.0	170.62459301948547	
39	112.17405104637146	movie	1		301.0	37.0	2.5	/experiments/knapen_aot/videos/S_yt-y6JsUW0eSW8_32.mp4	0.0	170.63272905349731	2.5083351135253906
39	114.68238615989685	fix_post	2		12.0	37.0	2.5	/experiments/knapen_aot/videos/S_yt-y6JsUW0eSW8_32.mp4	0.0	173.1410641670227	0.10010385513305664
40	114.78249001502991	fix_pre	0		58.0	38.0	2.5	/experiments/knapen_aot/videos/S_yt-E8EDQCPbBeI_196.mp4	0.0	173.24116802215576	0.48325014114379883
40	115.25757503509521	response	0	2		38.0	2.5	/experiments/knapen_aot/videos/S_yt-E8EDQCPbBeI_196.mp4	0.0	173.71625304222107	
40	115.2657401561737	movie	1		301.0	38.0	2.5	/experiments/knapen_aot/videos/S_yt-E8EDQCPbBeI_196.mp4	0.0	173.72441816329956	2.508368968963623
40	117.77410912513733	fix_post	2		12.0	38.0	2.5	/experiments/knapen_aot/videos/S_yt-E8EDQCPbBeI_196.mp4	0.0	176.23278713226318	0.1002650260925293
41	117.87437415122986	fix_pre	0		41.0	39.0	2.5	/experiments/knapen_aot/videos/S_yt-wIZprsJwxBM_298.mp4	0.0	176.3330521583557	0.34137392044067383
41	118.20753502845764	response	0	2		39.0	2.5	/experiments/knapen_aot/videos/S_yt-wIZprsJwxBM_298.mp4	0.0	176.6662130355835	
41	118.21574807167053	movie	1		301.0	39.0	2.5	/experiments/knapen_aot/videos/S_yt-wIZprsJwxBM_298.mp4	0.0	176.6744260787964	2.5083699226379395
41	120.72411799430847	fix_post	2		12.0	39.0	2.5	/experiments/knapen_aot/videos/S_yt-wIZprsJwxBM_298.mp4	0.0	179.18279600143433	0.0999901294708252
42	120.8241081237793	fix_pre	0		38.0	40.0	2.5	blank	1.0	179.28278613090515	0.31655001640319824
42	121.13251614570618	response	0	2		40.0	2.5	blank	1.0	179.59119415283203	
42	121.1406581401825	movie	1		301.0	40.0	2.5	blank	1.0	179.59933614730835	2.508409023284912
42	123.64906716346741	fix_post	2		12.0	40.0	2.5	blank	1.0	182.10774517059326	0.1000070571899414
43	123.74907422065735	fix_pre	0		58.0	41.0	2.5	/experiments/knapen_aot/videos/R_S_yt-cM5PvgE7aJs_243.mp4	0.0	182.2077522277832	0.48334479331970215
43	124.2242112159729	response	0	2		41.0	2.5	/experiments/knapen_aot/videos/R_S_yt-cM5PvgE7aJs_243.mp4	0.0	182.68288922309875	
43	124.23241901397705	movie	1		301.0	41.0	2.5	/experiments/knapen_aot/videos/R_S_yt-cM5PvgE7aJs_243.mp4	0.0	182.6910970211029	2.5085041522979736
43	126.74092316627502	fix_post	2		12.0	41.0	2.5	/experiments/knapen_aot/videos/R_S_yt-cM5PvgE7aJs_243.mp4	0.0	185.19960117340088	0.09979581832885742
44	126.84071898460388	fix_pre	0		35.0	42.0	2.5	/experiments/knapen_aot/videos/S_yt-2kPrGwVmRfE_169.mp4	0.0	185.29939699172974	0.2916700839996338
44	127.12409710884094	response	0	2		42.0	2.5	/experiments/knapen_aot/videos/S_yt-2kPrGwVmRfE_169.mp4	0.0	185.5827751159668	
44	127.13238906860352	movie	1		301.0	42.0	2.5	/experiments/knapen_aot/videos/S_yt-2kPrGwVmRfE_169.mp4	0.0	185.59106707572937	2.508316993713379
44	129.6407060623169	fix_post	2		12.0	42.0	2.5	/experiments/knapen_aot/videos/S_yt-2kPrGwVmRfE_169.mp4	0.0	188.09938406944275	0.10003304481506348
45	129.74073910713196	fix_pre	0		85.0	43.0	2.5	/experiments/knapen_aot/videos/R_S_yt-kkbtZP78JxQ_96.mp4	0.0	188.1994171142578	0.7089929580688477
45	130.44095516204834	response	0	2		43.0	2.5	/experiments/knapen_aot/videos/R_S_yt-kkbtZP78JxQ_96.mp4	0.0	188.8996331691742	
45	130.4497320652008	movie	1		301.0	43.0	2.5	/experiments/knapen_aot/videos/R_S_yt-kkbtZP78JxQ_96.mp4	0.0	188.90841007232666	2.5076489448547363
45	132.95738101005554	fix_post	2		12.0	43.0	2.5	/experiments/knapen_aot/videos/R_S_yt-kkbtZP78JxQ_96.mp4	0.0	191.4160590171814	0.10005307197570801
46	133.05743408203125	fix_pre	0		62.0	44.0	2.5	/experiments/knapen_aot/videos/S_pexels-cottonbro-5780808.mp4	0.0	191.5161120891571	0.5171849727630615
46	133.5657880306244	response	0	2		44.0	2.5	/experiments/knapen_aot/videos/S_pexels-cottonbro-5780808.mp4	0.0	192.02446603775024	
46	133.5746190547943	movie	1		164.0	44.0	2.5	/experiments/knapen_aot/videos/S_pexels-cottonbro-5780808.mp4	0.0	192.03329706192017	2.5077431201934814
46	136.0823621749878	fix_post	2		12.0	44.0	2.5	/experiments/knapen_aot/videos/S_pexels-cottonbro-5780808.mp4	0.0	194.54104018211365	0.09989690780639648
47	136.1822590827942	fix_pre	0		71.0	45.0	2.5	/experiments/knapen_aot/videos/R_S_yt-F1vQ5nZWhDg_21.mp4	0.0	194.64093708992004	0.5938310623168945
47	136.76719307899475	response	0	2		45.0	2.5	/experiments/knapen_aot/videos/R_S_yt-F1vQ5nZWhDg_21.mp4	0.0	195.2258710861206	
47	136.77609014511108	movie	1		301.0	45.0	2.5	/experiments/knapen_aot/videos/R_S_yt-F1vQ5nZWhDg_21.mp4	0.0	195.23476815223694	2.5062880516052246
47	139.2823781967163	fix_post	2		12.0	45.0	2.5	/experiments/knapen_aot/videos/R_S_yt-F1vQ5nZWhDg_21.mp4	0.0	197.74105620384216	0.09997296333312988
48	139.38235116004944	fix_pre	0		47.0	46.0	2.5	/experiments/knapen_aot/videos/R_S_yt-Jo6PxivsTOg_247.mp4	0.0	197.8410291671753	0.39162588119506836
48	139.76576018333435	response	0	2		46.0	2.5	/experiments/knapen_aot/videos/R_S_yt-Jo6PxivsTOg_247.mp4	0.0	198.2244381904602	
48	139.7739770412445	movie	1		301.0	46.0	2.5	/experiments/knapen_aot/videos/R_S_yt-Jo6PxivsTOg_247.mp4	0.0	198.23265504837036	2.5084569454193115
48	142.28243398666382	fix_post	2		12.0	46.0	2.5	/experiments/knapen_aot/videos/R_S_yt-Jo6PxivsTOg_247.mp4	0.0	200.74111199378967	0.09992122650146484
49	142.38235521316528	fix_pre	0		45.0	47.0	2.5	/experiments/knapen_aot/videos/R_S_yt--WPE_4bqQXc_26.mp4	0.0	200.84103322029114	0.37490296363830566
49	142.7491180896759	response	0	2		47.0	2.5	/experiments/knapen_aot/videos/R_S_yt--WPE_4bqQXc_26.mp4	0.0	201.20779609680176	
49	142.7572581768036	movie	1		301.0	47.0	2.5	/experiments/knapen_aot/videos/R_S_yt--WPE_4bqQXc_26.mp4	0.0	201.21593618392944	2.5084519386291504
49	145.26571011543274	fix_post	2		12.0	47.0	2.5	/experiments/knapen_aot/videos/R_S_yt--WPE_4bqQXc_26.mp4	0.0	203.7243881225586	0.09998488426208496
50	145.36569499969482	fix_pre	0		30.0	48.0	2.5	blank	1.0	203.82437300682068	0.2506110668182373
50	145.60750007629395	response	0	2		48.0	2.5	blank	1.0	204.0661780834198	
50	145.61630606651306	movie	1		301.0	48.0	2.5	blank	1.0	204.07498407363892	2.5076990127563477
50	148.1240050792694	fix_post	2		12.0	48.0	2.5	blank	1.0	206.58268308639526	0.10009098052978516
51	148.2240960597992	fix_pre	0		43.0	49.0	2.5	/experiments/knapen_aot/videos/S_yt-y3tyx6cZjmA_412.mp4	0.0	206.68277406692505	0.3581819534301758
51	148.57411313056946	response	0	2		49.0	2.5	/experiments/knapen_aot/videos/S_yt-y3tyx6cZjmA_412.mp4	0.0	207.0327911376953	
51	148.58227801322937	movie	1		301.0	49.0	2.5	/experiments/knapen_aot/videos/S_yt-y3tyx6cZjmA_412.mp4	0.0	207.04095602035522	2.5083730220794678
51	151.09065103530884	fix_post	2		12.0	49.0	2.5	/experiments/knapen_aot/videos/S_yt-y3tyx6cZjmA_412.mp4	0.0	209.5493290424347	0.10002017021179199
52	151.19067120552063	fix_pre	0		37.0	50.0	2.5	/experiments/knapen_aot/videos/R_S_yt-b7JAHOeiTqU_44.mp4	0.0	209.64934921264648	0.30824899673461914
52	151.4907410144806	response	0	2		50.0	2.5	/experiments/knapen_aot/videos/R_S_yt-b7JAHOeiTqU_44.mp4	0.0	209.94941902160645	
52	151.49892020225525	movie	1		301.0	50.0	2.5	/experiments/knapen_aot/videos/R_S_yt-b7JAHOeiTqU_44.mp4	0.0	209.9575982093811	2.5083799362182617
52	154.0073001384735	fix_post	2		12.0	50.0	2.5	/experiments/knapen_aot/videos/R_S_yt-b7JAHOeiTqU_44.mp4	0.0	212.46597814559937	0.09998607635498047
53	154.1072862148285	fix_pre	0		24.0	51.0	2.5	/experiments/knapen_aot/videos/S_yt-Gokv9ZtV6zo_70.mp4	0.0	212.56596422195435	0.1999959945678711
53	154.2990641593933	response	0	2		51.0	2.5	/experiments/knapen_aot/videos/S_yt-Gokv9ZtV6zo_70.mp4	0.0	212.75774216651917	
53	154.30728220939636	movie	1		301.0	51.0	2.5	/experiments/knapen_aot/videos/S_yt-Gokv9ZtV6zo_70.mp4	0.0	212.76596021652222	2.5083248615264893
53	156.81560707092285	fix_post	2		12.0	51.0	2.5	/experiments/knapen_aot/videos/S_yt-Gokv9ZtV6zo_70.mp4	0.0	215.2742850780487	0.10002303123474121
54	156.9156301021576	fix_pre	0		47.0	52.0	2.5	/experiments/knapen_aot/videos/R_S_production_ID_4325509.mp4	0.0	215.37430810928345	0.3916330337524414
54	157.29906010627747	response	0	2		52.0	2.5	/experiments/knapen_aot/videos/R_S_production_ID_4325509.mp4	0.0	215.75773811340332	
54	157.30726313591003	movie	1		194.0	52.0	2.5	/experiments/knapen_aot/videos/R_S_production_ID_4325509.mp4	0.0	215.7659411430359	2.5083110332489014
54	159.81557416915894	fix_post	2		12.0	52.0	2.5	/experiments/knapen_aot/videos/R_S_production_ID_4325509.mp4	0.0	218.2742521762848	0.10003304481506348
55	159.915607213974	fix_pre	0		37.0	53.0	2.5	/experiments/knapen_aot/videos/S_production_ID_4707837.mp4	0.0	218.37428522109985	0.3082540035247803
55	160.21569919586182	response	0	2		53.0	2.5	/experiments/knapen_aot/videos/S_production_ID_4707837.mp4	0.0	218.67437720298767	
55	160.22386121749878	movie	1		165.0	53.0	2.5	/experiments/knapen_aot/videos/S_production_ID_4707837.mp4	0.0	218.68253922462463	2.5083718299865723
55	162.73223304748535	fix_post	2		12.0	53.0	2.5	/experiments/knapen_aot/videos/S_production_ID_4707837.mp4	0.0	221.1909110546112	0.09998512268066406
56	162.83221817016602	fix_pre	0		45.0	54.0	2.5	/experiments/knapen_aot/videos/S_pexels-mart-production-7698911.mp4	0.0	221.29089617729187	0.37502503395080566
56	163.1989040374756	response	0	2		54.0	2.5	/experiments/knapen_aot/videos/S_pexels-mart-production-7698911.mp4	0.0	221.65758204460144	
56	163.20724320411682	movie	1		197.0	54.0	2.5	/experiments/knapen_aot/videos/S_pexels-mart-production-7698911.mp4	0.0	221.66592121124268	2.508335828781128
56	165.71557903289795	fix_post	2		12.0	54.0	2.5	/experiments/knapen_aot/videos/S_pexels-mart-production-7698911.mp4	0.0	224.1742570400238	0.10018515586853027
57	165.81576418876648	fix_pre	0		41.0	55.0	2.5	/experiments/knapen_aot/videos/R_S_yt-GO26QIueqRw_385.mp4	0.0	224.27444219589233	0.34192395210266113
57	166.14153504371643	response	0	2		55.0	2.5	/experiments/knapen_aot/videos/R_S_yt-GO26QIueqRw_385.mp4	0.0	224.60021305084229	
57	166.15768814086914	movie	1		301.0	55.0	2.5	/experiments/knapen_aot/videos/R_S_yt-GO26QIueqRw_385.mp4	0.0	224.616366147995	2.507852077484131
57	168.66554021835327	fix_post	2		12.0	55.0	2.5	/experiments/knapen_aot/videos/R_S_yt-GO26QIueqRw_385.mp4	0.0	227.12421822547913	0.09997677803039551
58	168.76551699638367	fix_pre	0		39.0	56.0	2.5	blank	1.0	227.22419500350952	0.3250260353088379
58	169.0823380947113	response	0	2		56.0	2.5	blank	1.0	227.54101610183716	
58	169.0905430316925	movie	1		301.0	56.0	2.5	blank	1.0	227.54922103881836	2.508352041244507
58	171.598895072937	fix_post	2		12.0	56.0	2.5	blank	1.0	230.05757308006287	0.09994912147521973
59	171.69884419441223	fix_pre	0		31.0	57.0	2.5	/experiments/knapen_aot/videos/R_S_yt-IlW1U39Dga4_5.mp4	0.0	230.1575222015381	0.2582998275756836
59	171.94892716407776	response	0	2		57.0	2.5	/experiments/knapen_aot/videos/R_S_yt-IlW1U39Dga4_5.mp4	0.0	230.4076051712036	
59	171.95714402198792	movie	1		301.0	57.0	2.5	/experiments/knapen_aot/videos/R_S_yt-IlW1U39Dga4_5.mp4	0.0	230.41582202911377	2.5083839893341064
59	174.46552801132202	fix_post	2		12.0	57.0	2.5	/experiments/knapen_aot/videos/R_S_yt-IlW1U39Dga4_5.mp4	0.0	232.92420601844788	0.10004401206970215
60	174.56557202339172	fix_pre	0		51.0	58.0	2.5	/experiments/knapen_aot/videos/S__6qAy77ODUI_175.mp4	0.0	233.02425003051758	0.42544007301330566
60	174.98232221603394	response	0	2		58.0	2.5	/experiments/knapen_aot/videos/S__6qAy77ODUI_175.mp4	0.0	233.4410002231598	
60	174.99101209640503	movie	1		301.0	58.0	2.5	/experiments/knapen_aot/videos/S__6qAy77ODUI_175.mp4	0.0	233.44969010353088	2.5078179836273193
60	177.49883008003235	fix_post	2		12.0	58.0	2.5	/experiments/knapen_aot/videos/S__6qAy77ODUI_175.mp4	0.0	235.9575080871582	0.1000220775604248
61	177.59885215759277	fix_pre	0		43.0	59.0	2.5	/experiments/knapen_aot/videos/S_yt-QFGyhhr1KSQ_9.mp4	0.0	236.05753016471863	0.3583550453186035
61	177.9489140510559	response	0	2		59.0	2.5	/experiments/knapen_aot/videos/S_yt-QFGyhhr1KSQ_9.mp4	0.0	236.40759205818176	
61	177.95720720291138	movie	1		301.0	59.0	2.5	/experiments/knapen_aot/videos/S_yt-QFGyhhr1KSQ_9.mp4	0.0	236.41588521003723	2.5083909034729004
61	180.46559810638428	fix_post	2		12.0	59.0	2.5	/experiments/knapen_aot/videos/S_yt-QFGyhhr1KSQ_9.mp4	0.0	238.92427611351013	0.099884033203125
62	180.5654821395874	fix_pre	0		35.0	60.0	2.5	/experiments/knapen_aot/videos/S_pexels-mart-production-7698911.mp4	0.0	239.02416014671326	0.2916889190673828
62	180.84898900985718	response	0	2		60.0	2.5	/experiments/knapen_aot/videos/S_pexels-mart-production-7698911.mp4	0.0	239.30766701698303	
62	180.85717105865479	movie	1		174.0	60.0	2.5	/experiments/knapen_aot/videos/S_pexels-mart-production-7698911.mp4	0.0	239.31584906578064	2.508345127105713
62	183.3655161857605	fix_post	2		12.0	60.0	2.5	/experiments/knapen_aot/videos/S_pexels-mart-production-7698911.mp4	0.0	241.82419419288635	0.0999898910522461
63	183.46550607681274	fix_pre	0		35.0	61.0	2.5	/experiments/knapen_aot/videos/S_yt-35i8UeYXjGw_47.mp4	0.0	241.9241840839386	0.2916600704193115
63	183.7489731311798	response	0	2		61.0	2.5	/experiments/knapen_aot/videos/S_yt-35i8UeYXjGw_47.mp4	0.0	242.20765113830566	
63	183.75716614723206	movie	1		301.0	61.0	2.5	/experiments/knapen_aot/videos/S_yt-35i8UeYXjGw_47.mp4	0.0	242.2158441543579	2.508373975753784
63	186.26554012298584	fix_post	2		12.0	61.0	2.5	/experiments/knapen_aot/videos/S_yt-35i8UeYXjGw_47.mp4	0.0	244.7242181301117	0.10032105445861816
64	186.36586117744446	fix_pre	0		46.0	62.0	2.5	/experiments/knapen_aot/videos/S_comp_H007_C003_PS_v01_SDR_PS_20180925_SDR_2K_AVC.mp4	0.0	244.8245391845703	0.3829159736633301
64	186.740581035614	response	0	2		62.0	2.5	/experiments/knapen_aot/videos/S_comp_H007_C003_PS_v01_SDR_PS_20180925_SDR_2K_AVC.mp4	0.0	245.19925904273987	
64	186.7487771511078	movie	1		172.0	62.0	2.5	/experiments/knapen_aot/videos/S_comp_H007_C003_PS_v01_SDR_PS_20180925_SDR_2K_AVC.mp4	0.0	245.20745515823364	2.5084080696105957
64	189.25718522071838	fix_post	2		12.0	62.0	2.5	/experiments/knapen_aot/videos/S_comp_H007_C003_PS_v01_SDR_PS_20180925_SDR_2K_AVC.mp4	0.0	247.71586322784424	0.0998988151550293
65	189.3570840358734	fix_pre	0		53.0	63.0	2.5	blank	1.0	247.81576204299927	0.44170498847961426
65	189.7829351425171	response	0	2		63.0	2.5	blank	1.0	248.24161314964294	
65	189.79878902435303	movie	1		301.0	63.0	2.5	blank	1.0	248.25746703147888	2.5083580017089844
65	192.307147026062	fix_post	2		12.0	63.0	2.5	blank	1.0	250.76582503318787	0.10042905807495117
66	192.40757608413696	fix_pre	0		63.0	64.0	2.5	/experiments/knapen_aot/videos/S_yt-RNPFV7lgAvE_362.mp4	0.0	250.86625409126282	0.5244660377502441
66	192.92390704154968	response	0	2		64.0	2.5	/experiments/knapen_aot/videos/S_yt-RNPFV7lgAvE_362.mp4	0.0	251.38258504867554	
66	192.9320421218872	movie	1		301.0	64.0	2.5	/experiments/knapen_aot/videos/S_yt-RNPFV7lgAvE_362.mp4	0.0	251.39072012901306	2.5083930492401123
66	195.44043517112732	fix_post	2		12.0	64.0	2.5	/experiments/knapen_aot/videos/S_yt-RNPFV7lgAvE_362.mp4	0.0	253.89911317825317	0.10000300407409668
67	195.54043817520142	fix_pre	0		27.0	65.0	2.5	/experiments/knapen_aot/videos/R_S_yt-BAQ3Xhm_PPE_23.mp4	0.0	253.99911618232727	0.22497296333312988
67	195.75724506378174	response	0	2		65.0	2.5	/experiments/knapen_aot/videos/R_S_yt-BAQ3Xhm_PPE_23.mp4	0.0	254.2159230709076	
67	195.76541113853455	movie	1		301.0	65.0	2.5	/experiments/knapen_aot/videos/R_S_yt-BAQ3Xhm_PPE_23.mp4	0.0	254.2240891456604	2.508336067199707
67	198.27374720573425	fix_post	2		12.0	65.0	2.5	/experiments/knapen_aot/videos/R_S_yt-BAQ3Xhm_PPE_23.mp4	0.0	256.7324252128601	0.09999299049377441
68	198.37374019622803	fix_pre	0		31.0	66.0	2.5	/experiments/knapen_aot/videos/R_S_yt-mdLT282PVbE_6.mp4	0.0	256.8324182033539	0.2583279609680176
68	198.623841047287	response	0	2		66.0	2.5	/experiments/knapen_aot/videos/R_S_yt-mdLT282PVbE_6.mp4	0.0	257.08251905441284	
68	198.63206815719604	movie	1		301.0	66.0	2.5	/experiments/knapen_aot/videos/R_S_yt-mdLT282PVbE_6.mp4	0.0	257.0907461643219	2.508344888687134
68	201.14041304588318	fix_post	2		12.0	66.0	2.5	/experiments/knapen_aot/videos/R_S_yt-mdLT282PVbE_6.mp4	0.0	259.59909105300903	0.10002398490905762
69	201.24043703079224	fix_pre	0		27.0	67.0	2.5	/experiments/knapen_aot/videos/S_yt-2XRGfGc0q44_37.mp4	0.0	259.6991150379181	0.22490310668945312
69	201.45723414421082	response	0	2		67.0	2.5	/experiments/knapen_aot/videos/S_yt-2XRGfGc0q44_37.mp4	0.0	259.91591215133667	
69	201.4653401374817	movie	1		301.0	67.0	2.5	/experiments/knapen_aot/videos/S_yt-2XRGfGc0q44_37.mp4	0.0	259.92401814460754	2.508378028869629
69	203.97371816635132	fix_post	2		12.0	67.0	2.5	/experiments/knapen_aot/videos/S_yt-2XRGfGc0q44_37.mp4	0.0	262.4323961734772	0.10037589073181152
70	204.07409405708313	fix_pre	0		48.0	68.0	2.5	blank	1.0	262.532772064209	0.39960598945617676
70	204.46542310714722	response	0	2		68.0	2.5	blank	1.0	262.92410111427307	
70	204.4737000465393	movie	1		301.0	68.0	2.5	blank	1.0	262.93237805366516	2.50839900970459
70	206.9820990562439	fix_post	2		12.0	68.0	2.5	blank	1.0	265.44077706336975	0.09994316101074219
71	207.08204221725464	fix_pre	0		49.0	69.0	2.5	/experiments/knapen_aot/videos/R_S_yt-o_CT2MjZ9fA_216.mp4	0.0	265.5407202243805	0.4085209369659424
71	207.48217916488647	response	0	2		69.0	2.5	/experiments/knapen_aot/videos/R_S_yt-o_CT2MjZ9fA_216.mp4	0.0	265.94085717201233	
71	207.49056315422058	movie	1		301.0	69.0	2.5	/experiments/knapen_aot/videos/R_S_yt-o_CT2MjZ9fA_216.mp4	0.0	265.94924116134644	2.5081570148468018
71	209.99872016906738	fix_post	2		12.0	69.0	2.5	/experiments/knapen_aot/videos/R_S_yt-o_CT2MjZ9fA_216.mp4	0.0	268.45739817619324	0.09998583793640137
72	210.09870600700378	fix_pre	0		39.0	70.0	2.5	/experiments/knapen_aot/videos/S_ILSVRC2015_train_00251005.mp4	0.0	268.55738401412964	0.3250141143798828
72	210.41546607017517	response	0	2		70.0	2.5	/experiments/knapen_aot/videos/S_ILSVRC2015_train_00251005.mp4	0.0	268.874144077301	
72	210.42372012138367	movie	1		301.0	70.0	2.5	/experiments/knapen_aot/videos/S_ILSVRC2015_train_00251005.mp4	0.0	268.8823981285095	2.508328914642334
72	212.932049036026	fix_post	2		12.0	70.0	2.5	/experiments/knapen_aot/videos/S_ILSVRC2015_train_00251005.mp4	0.0	271.39072704315186	0.10026097297668457
73	213.03231000900269	fix_pre	0		34.0	71.0	2.5	/experiments/knapen_aot/videos/S_yt-9qXwehMoX7o_50.mp4	0.0	271.49098801612854	0.28304600715637207
73	213.3071210384369	response	0	2		71.0	2.5	/experiments/knapen_aot/videos/S_yt-9qXwehMoX7o_50.mp4	0.0	271.76579904556274	
73	213.31535601615906	movie	1		301.0	71.0	2.5	/experiments/knapen_aot/videos/S_yt-9qXwehMoX7o_50.mp4	0.0	271.7740340232849	2.5083351135253906
73	215.82369112968445	fix_post	2		12.0	71.0	2.5	/experiments/knapen_aot/videos/S_yt-9qXwehMoX7o_50.mp4	0.0	274.2823691368103	0.09999799728393555
74	215.92368912696838	fix_pre	0		60.0	72.0	2.5	/experiments/knapen_aot/videos/R_S_production_ID_4360158.mp4	0.0	274.38236713409424	0.49999094009399414
74	216.41548204421997	response	0	2		72.0	2.5	/experiments/knapen_aot/videos/R_S_production_ID_4360158.mp4	0.0	274.8741600513458	
74	216.42368006706238	movie	1		166.0	72.0	2.5	/experiments/knapen_aot/videos/R_S_production_ID_4360158.mp4	0.0	274.88235807418823	2.5083110332489014
74	218.93199110031128	fix_post	2		12.0	72.0	2.5	/experiments/knapen_aot/videos/R_S_production_ID_4360158.mp4	0.0	277.39066910743713	0.1002509593963623
75	219.03224205970764	fix_pre	0		40.0	73.0	2.5	/experiments/knapen_aot/videos/R_S_pexels-mart-production-7277934.mp4	0.0	277.4909200668335	0.3346130847930908
75	219.35711908340454	response	0	2		73.0	2.5	/experiments/knapen_aot/videos/R_S_pexels-mart-production-7277934.mp4	0.0	277.8157970905304	
75	219.36685514450073	movie	1		165.0	73.0	2.5	/experiments/knapen_aot/videos/R_S_pexels-mart-production-7277934.mp4	0.0	277.8255331516266	2.5068280696868896
75	221.87368321418762	fix_post	2		12.0	73.0	2.5	/experiments/knapen_aot/videos/R_S_pexels-mart-production-7277934.mp4	0.0	280.3323612213135	0.10000300407409668
76	221.97368621826172	fix_pre	0		38.0	74.0	2.5	/experiments/knapen_aot/videos/S_FK_U009_C004_SDR_20191220_SDR_2K_AVC.mp4	0.0	280.4323642253876	0.31664395332336426
76	222.27449202537537	response	0	2		74.0	2.5	/experiments/knapen_aot/videos/S_FK_U009_C004_SDR_20191220_SDR_2K_AVC.mp4	0.0	280.7331700325012	
76	222.29033017158508	movie	1		163.0	74.0	2.5	/experiments/knapen_aot/videos/S_FK_U009_C004_SDR_20191220_SDR_2K_AVC.mp4	0.0	280.74900817871094	2.5086889266967773
76	224.79901909828186	fix_post	2		12.0	74.0	2.5	/experiments/knapen_aot/videos/S_FK_U009_C004_SDR_20191220_SDR_2K_AVC.mp4	0.0	283.2576971054077	0.0995779037475586
77	224.89859700202942	fix_pre	0		49.0	75.0	2.5	/experiments/knapen_aot/videos/R_S_ahUa35lQM6E_44.mp4	0.0	283.3572750091553	0.4083271026611328
77	225.2987720966339	response	0	2		75.0	2.5	/experiments/knapen_aot/videos/R_S_ahUa35lQM6E_44.mp4	0.0	283.75745010375977	
77	225.30692410469055	movie	1		301.0	75.0	2.5	/experiments/knapen_aot/videos/R_S_ahUa35lQM6E_44.mp4	0.0	283.7656021118164	2.5083870887756348
77	227.8153111934662	fix_post	2		12.0	75.0	2.5	/experiments/knapen_aot/videos/R_S_ahUa35lQM6E_44.mp4	0.0	286.27398920059204	0.09994387626647949
78	227.91525506973267	fix_pre	0		53.0	76.0	2.5	/experiments/knapen_aot/videos/R_S_yt-VbKGc8N_29.mp4	0.0	286.3739330768585	0.44167399406433105
78	228.3487811088562	response	0	2		76.0	2.5	/experiments/knapen_aot/videos/R_S_yt-VbKGc8N_29.mp4	0.0	286.80745911598206	
78	228.356929063797	movie	1		301.0	76.0	2.5	/experiments/knapen_aot/videos/R_S_yt-VbKGc8N_29.mp4	0.0	286.81560707092285	2.508358955383301
78	230.8652880191803	fix_post	2		12.0	76.0	2.5	/experiments/knapen_aot/videos/R_S_yt-VbKGc8N_29.mp4	0.0	289.32396602630615	0.10001707077026367
79	230.96530508995056	fix_pre	0		30.0	77.0	2.5	blank	1.0	289.4239830970764	0.24994802474975586
79	231.20706415176392	response	0	2		77.0	2.5	blank	1.0	289.66574215888977	
79	231.21525311470032	movie	1		301.0	77.0	2.5	blank	1.0	289.6739311218262	2.5083749294281006
79	233.72362804412842	fix_post	2		12.0	77.0	2.5	blank	1.0	292.1823060512543	0.10016107559204102
80	233.82378911972046	fix_pre	0		34.0	78.0	2.5	/experiments/knapen_aot/videos/S_yt-wIZprsJwxBM_298.mp4	0.0	292.2824671268463	0.2831249237060547
80	234.09865021705627	response	0	2		78.0	2.5	/experiments/knapen_aot/videos/S_yt-wIZprsJwxBM_298.mp4	0.0	292.55732822418213	
80	234.1069140434265	movie	1		301.0	78.0	2.5	/experiments/knapen_aot/videos/S_yt-wIZprsJwxBM_298.mp4	0.0	292.56559205055237	2.508371114730835
80	236.61528515815735	fix_post	2		12.0	78.0	2.5	/experiments/knapen_aot/videos/S_yt-wIZprsJwxBM_298.mp4	0.0	295.0739631652832	0.09992289543151855
81	236.71520805358887	fix_pre	0		42.0	79.0	2.5	/experiments/knapen_aot/videos/R_S_yt-s2tZ2NIQrxg_175.mp4	0.0	295.1738860607147	0.35004305839538574
81	237.05714917182922	response	0	2		79.0	2.5	/experiments/knapen_aot/videos/R_S_yt-s2tZ2NIQrxg_175.mp4	0.0	295.5158271789551	
81	237.06525111198425	movie	1		301.0	79.0	2.5	/experiments/knapen_aot/videos/R_S_yt-s2tZ2NIQrxg_175.mp4	0.0	295.5239291191101	2.5084710121154785
81	239.57372212409973	fix_post	2		12.0	79.0	2.5	/experiments/knapen_aot/videos/R_S_yt-s2tZ2NIQrxg_175.mp4	0.0	298.0324001312256	0.09985089302062988
82	239.67357301712036	fix_pre	0		39.0	80.0	2.5	/experiments/knapen_aot/videos/R_S_yt-x7NWmdlvVIQ_183.mp4	0.0	298.1322510242462	0.32497501373291016
82	239.99038314819336	response	0	2		80.0	2.5	/experiments/knapen_aot/videos/R_S_yt-x7NWmdlvVIQ_183.mp4	0.0	298.4490611553192	
82	239.99854803085327	movie	1		301.0	80.0	2.5	/experiments/knapen_aot/videos/R_S_yt-x7NWmdlvVIQ_183.mp4	0.0	298.4572260379791	2.5083110332489014
82	242.50685906410217	fix_post	2		12.0	80.0	2.5	/experiments/knapen_aot/videos/R_S_yt-x7NWmdlvVIQ_183.mp4	0.0	300.965537071228	0.10023093223571777
83	242.6070899963379	fix_pre	0		39.0	81.0	2.5	/experiments/knapen_aot/videos/S_yt-BAQ3Xhm_PPE_23.mp4	0.0	301.06576800346375	0.32480502128601074
83	242.92368721961975	response	0	2		81.0	2.5	/experiments/knapen_aot/videos/S_yt-BAQ3Xhm_PPE_23.mp4	0.0	301.3823652267456	
83	242.9318950176239	movie	1		301.0	81.0	2.5	/experiments/knapen_aot/videos/S_yt-BAQ3Xhm_PPE_23.mp4	0.0	301.39057302474976	2.5083529949188232
83	245.44024801254272	fix_post	2		12.0	81.0	2.5	/experiments/knapen_aot/videos/S_yt-BAQ3Xhm_PPE_23.mp4	0.0	303.8989260196686	0.1000220775604248
84	245.54027009010315	fix_pre	0		43.0	82.0	2.5	blank	1.0	303.998948097229	0.35828089714050293
84	245.89035320281982	response	0	2		82.0	2.5	blank	1.0	304.3490312099457	
84	245.89855098724365	movie	1		301.0	82.0	2.5	blank	1.0	304.3572289943695	2.5083811283111572
84	248.4069321155548	fix_post	2		12.0	82.0	2.5	blank	1.0	306.86561012268066	0.09995293617248535
85	248.5068850517273	fix_pre	0		43.0	83.0	2.5	/experiments/knapen_aot/videos/R_S_production_ID_5020953.mp4	0.0	306.96556305885315	0.3583381175994873
85	248.85699605941772	response	0	2		83.0	2.5	/experiments/knapen_aot/videos/R_S_production_ID_5020953.mp4	0.0	307.3156740665436	
85	248.86522316932678	movie	1		216.0	83.0	2.5	/experiments/knapen_aot/videos/R_S_production_ID_5020953.mp4	0.0	307.32390117645264	2.508363962173462
85	251.37358713150024	fix_post	2		12.0	83.0	2.5	/experiments/knapen_aot/videos/R_S_production_ID_5020953.mp4	0.0	309.8322651386261	0.09996986389160156
87	251.47355699539185	stim	0		250.0					309.9322350025177	2.0861001014709473
87	253.5520761013031	response	0	space						312.01075410842896	
