trial_nr	onset	event_type	phase	response	nr_frames	movie_index	movie_duration	movie_file	blank	onset_abs	duration
0	0.1583089828491211	stim	0		12.0					144.32803201675415	0.10242700576782227
0	0.2501518726348877	response	0	space						144.41987490653992	
1	0.26073598861694336	stim	0		121.0					144.43045902252197	1.00553297996521
1	1.2662689685821533	stim	1		120.0					145.43599200248718	0.9999270439147949
1	1.9997880458831787	response	1	space						146.1695110797882	
2	2.2661960124969482	fix_pre	0		64.0	0.0	2.5	/experiments/knapen_aot/videos/S_yt-mHLTJkMrkZI_143.mp4	0.0	146.43591904640198	0.5333449840545654
2	2.791424036026001	response	0	space		0.0	2.5	/experiments/knapen_aot/videos/S_yt-mHLTJkMrkZI_143.mp4	0.0	146.96114706993103	
2	2.7995409965515137	movie	1		300.0	0.0	2.5	/experiments/knapen_aot/videos/S_yt-mHLTJkMrkZI_143.mp4	0.0	146.96926403045654	2.508363962173462
2	5.307904958724976	fix_post	2		12.0	0.0	2.5	/experiments/knapen_aot/videos/S_yt-mHLTJkMrkZI_143.mp4	0.0	149.47762799263	0.10006308555603027
3	5.407968044281006	fix_pre	0		16.0	1.0	2.5	/experiments/knapen_aot/videos/S_yt-9Ow95khYa_M_91.mp4	0.0	149.57769107818604	0.13709282875061035
3	5.535744905471802	response	0	2		1.0	2.5	/experiments/knapen_aot/videos/S_yt-9Ow95khYa_M_91.mp4	0.0	149.70546793937683	
3	5.545060873031616	movie	1		297.0	1.0	2.5	/experiments/knapen_aot/videos/S_yt-9Ow95khYa_M_91.mp4	0.0	149.71478390693665	2.504599094390869
3	8.049659967422485	fix_post	2		12.0	1.0	2.5	/experiments/knapen_aot/videos/S_yt-9Ow95khYa_M_91.mp4	0.0	152.21938300132751	0.09998798370361328
4	8.149647951126099	fix_pre	0		17.0	2.0	2.5	/experiments/knapen_aot/videos/R_S_yt-BAwvfRmE1LU_79.mp4	0.0	152.31937098503113	0.14159703254699707
4	8.275521993637085	response	0	2		2.0	2.5	/experiments/knapen_aot/videos/R_S_yt-BAwvfRmE1LU_79.mp4	0.0	152.44524502754211	
4	8.291244983673096	movie	1		301.0	2.0	2.5	/experiments/knapen_aot/videos/R_S_yt-BAwvfRmE1LU_79.mp4	0.0	152.46096801757812	2.5083398818969727
4	10.799584865570068	fix_post	2		12.0	2.0	2.5	/experiments/knapen_aot/videos/R_S_yt-BAwvfRmE1LU_79.mp4	0.0	154.9693078994751	0.10004901885986328
5	10.899633884429932	fix_pre	0		9.0	3.0	2.5	/experiments/knapen_aot/videos/R_S_Xq0a2BWE3zA_53.mp4	0.0	155.06935691833496	0.07600116729736328
5	10.966418981552124	response	0	2		3.0	2.5	/experiments/knapen_aot/videos/R_S_Xq0a2BWE3zA_53.mp4	0.0	155.13614201545715	
5	10.975635051727295	movie	1		301.0	3.0	2.5	/experiments/knapen_aot/videos/R_S_Xq0a2BWE3zA_53.mp4	0.0	155.14535808563232	2.507293939590454
5	13.482928991317749	fix_post	2		12.0	3.0	2.5	/experiments/knapen_aot/videos/R_S_Xq0a2BWE3zA_53.mp4	0.0	157.65265202522278	0.0999760627746582
6	13.582905054092407	fix_pre	0		9.0	4.0	2.5	/experiments/knapen_aot/videos/R_S_yt-xQilXyNKsBw_42.mp4	0.0	157.75262808799744	0.07500600814819336
6	13.649708032608032	response	0	2		4.0	2.5	/experiments/knapen_aot/videos/R_S_yt-xQilXyNKsBw_42.mp4	0.0	157.81943106651306	
6	13.6579110622406	movie	1		301.0	4.0	2.5	/experiments/knapen_aot/videos/R_S_yt-xQilXyNKsBw_42.mp4	0.0	157.82763409614563	2.5083069801330566
6	16.166218042373657	fix_post	2		12.0	4.0	2.5	/experiments/knapen_aot/videos/R_S_yt-xQilXyNKsBw_42.mp4	0.0	160.3359410762787	0.10006499290466309
7	16.26628303527832	fix_pre	0		15.0	5.0	2.5	/experiments/knapen_aot/videos/S_comp_A105_C002_v06_SDR_FINAL_25062018_SDR_2K_AVC.mp4	0.0	160.43600606918335	0.12596988677978516
7	16.38305687904358	response	0	2		5.0	2.5	/experiments/knapen_aot/videos/S_comp_A105_C002_v06_SDR_FINAL_25062018_SDR_2K_AVC.mp4	0.0	160.5527799129486	
7	16.392252922058105	movie	1		166.0	5.0	2.5	/experiments/knapen_aot/videos/S_comp_A105_C002_v06_SDR_FINAL_25062018_SDR_2K_AVC.mp4	0.0	160.56197595596313	2.5072779655456543
7	18.89953088760376	fix_post	2		12.0	5.0	2.5	/experiments/knapen_aot/videos/S_comp_A105_C002_v06_SDR_FINAL_25062018_SDR_2K_AVC.mp4	0.0	163.0692539215088	0.09999704360961914
8	18.99952793121338	fix_pre	0		1.0	6.0	2.5	/experiments/knapen_aot/videos/S_yt-YCjbGOPBQHw_131.mp4	0.0	163.1692509651184	0.010738134384155273
8	19.001118898391724	response	0	2		6.0	2.5	/experiments/knapen_aot/videos/S_yt-YCjbGOPBQHw_131.mp4	0.0	163.17084193229675	
8	19.010266065597534	movie	1		301.0	6.0	2.5	/experiments/knapen_aot/videos/S_yt-YCjbGOPBQHw_131.mp4	0.0	163.17998909950256	2.506002902984619
8	21.516268968582153	fix_post	2		12.0	6.0	2.5	/experiments/knapen_aot/videos/S_yt-YCjbGOPBQHw_131.mp4	0.0	165.68599200248718	0.09991097450256348
8	21.541356086730957	response	2	2		6.0	2.5	/experiments/knapen_aot/videos/S_yt-YCjbGOPBQHw_131.mp4	0.0	165.711079120636	
9	21.616179943084717	fix_pre	0		39.0	7.0	2.5	blank	1.0	165.78590297698975	0.32494306564331055
9	21.932957887649536	response	0	2		7.0	2.5	blank	1.0	166.10268092155457	
9	21.941123008728027	movie	1		301.0	7.0	2.5	blank	1.0	166.11084604263306	2.5083370208740234
9	24.44946002960205	fix_post	2		12.0	7.0	2.5	blank	1.0	168.61918306350708	0.10005688667297363
10	24.549516916275024	fix_pre	0		29.0	8.0	2.5	/experiments/knapen_aot/videos/S_yt--jzScB82vKI_212.mp4	0.0	168.71923995018005	0.24162912368774414
10	24.782952070236206	response	0	2		8.0	2.5	/experiments/knapen_aot/videos/S_yt--jzScB82vKI_212.mp4	0.0	168.95267510414124	
10	24.79114603996277	movie	1		301.0	8.0	2.5	/experiments/knapen_aot/videos/S_yt--jzScB82vKI_212.mp4	0.0	168.9608690738678	2.508347988128662
10	27.29949402809143	fix_post	2		12.0	8.0	2.5	/experiments/knapen_aot/videos/S_yt--jzScB82vKI_212.mp4	0.0	171.46921706199646	0.09999489784240723
11	27.399488925933838	fix_pre	0		16.0	9.0	2.5	/experiments/knapen_aot/videos/R_S_yt-PP93D7b7Ni4_10.mp4	0.0	171.56921195983887	0.13333415985107422
11	27.524685859680176	response	0	2		9.0	2.5	/experiments/knapen_aot/videos/R_S_yt-PP93D7b7Ni4_10.mp4	0.0	171.6944088935852	
11	27.532823085784912	movie	1		301.0	9.0	2.5	/experiments/knapen_aot/videos/R_S_yt-PP93D7b7Ni4_10.mp4	0.0	171.70254611968994	2.50827693939209
11	30.007955074310303	response	1	2		9.0	2.5	/experiments/knapen_aot/videos/R_S_yt-PP93D7b7Ni4_10.mp4	0.0	174.17767810821533	
11	30.041100025177002	fix_post	2		12.0	9.0	2.5	/experiments/knapen_aot/videos/R_S_yt-PP93D7b7Ni4_10.mp4	0.0	174.21082305908203	0.10001587867736816
12	30.14111590385437	fix_pre	0		32.0	10.0	2.5	/experiments/knapen_aot/videos/S_production_ID_3943334.mp4	0.0	174.3108389377594	0.2666950225830078
12	30.39952301979065	response	0	2		10.0	2.5	/experiments/knapen_aot/videos/S_production_ID_3943334.mp4	0.0	174.56924605369568	
12	30.407810926437378	movie	1		196.0	10.0	2.5	/experiments/knapen_aot/videos/S_production_ID_3943334.mp4	0.0	174.5775339603424	2.508324146270752
12	32.91613507270813	fix_post	2		12.0	10.0	2.5	/experiments/knapen_aot/videos/S_production_ID_3943334.mp4	0.0	177.08585810661316	0.0999748706817627
12	32.93292498588562	response	2	2		10.0	2.5	/experiments/knapen_aot/videos/S_production_ID_3943334.mp4	0.0	177.10264801979065	
13	33.01610994338989	fix_pre	0		24.0	11.0	2.5	/experiments/knapen_aot/videos/S_yt-QFGyhhr1KSQ_9.mp4	0.0	177.18583297729492	0.19997692108154297
13	33.20794606208801	response	0	2		11.0	2.5	/experiments/knapen_aot/videos/S_yt-QFGyhhr1KSQ_9.mp4	0.0	177.37766909599304	
13	33.216086864471436	movie	1		299.0	11.0	2.5	/experiments/knapen_aot/videos/S_yt-QFGyhhr1KSQ_9.mp4	0.0	177.38580989837646	2.508303165435791
13	35.72439002990723	fix_post	2		12.0	11.0	2.5	/experiments/knapen_aot/videos/S_yt-QFGyhhr1KSQ_9.mp4	0.0	179.89411306381226	0.10007190704345703
14	35.824461936950684	fix_pre	0		6.0	12.0	2.5	blank	1.0	179.9941849708557	0.04996895790100098
14	35.86621904373169	response	0	2		12.0	2.5	blank	1.0	180.03594207763672	
14	35.874430894851685	movie	1		301.0	12.0	2.5	blank	1.0	180.0441539287567	2.5083811283111572
14	38.38281202316284	fix_post	2		12.0	12.0	2.5	blank	1.0	182.55253505706787	0.0999748706817627
15	38.482786893844604	fix_pre	0		39.0	13.0	2.5	/experiments/knapen_aot/videos/R_S_yt-vjed5qyKqZw_1.mp4	0.0	182.65250992774963	0.3258800506591797
15	38.799530029296875	response	0	2		13.0	2.5	/experiments/knapen_aot/videos/R_S_yt-vjed5qyKqZw_1.mp4	0.0	182.9692530632019	
15	38.808666944503784	movie	1		301.0	13.0	2.5	/experiments/knapen_aot/videos/R_S_yt-vjed5qyKqZw_1.mp4	0.0	182.9783899784088	2.5074219703674316
15	41.316088914871216	fix_post	2		12.0	13.0	2.5	/experiments/knapen_aot/videos/R_S_yt-vjed5qyKqZw_1.mp4	0.0	185.48581194877625	0.09996604919433594
15	41.382850885391235	response	2	2		13.0	2.5	/experiments/knapen_aot/videos/R_S_yt-vjed5qyKqZw_1.mp4	0.0	185.55257391929626	
16	41.41605496406555	fix_pre	0		71.0	14.0	2.5	/experiments/knapen_aot/videos/R_S_comp_H012_C009_PS_v01_SDR_PS_20180925_SDR_2K_AVC.mp4	0.0	185.58577799797058	0.5916159152984619
16	41.99956798553467	response	0	2		14.0	2.5	/experiments/knapen_aot/videos/R_S_comp_H012_C009_PS_v01_SDR_PS_20180925_SDR_2K_AVC.mp4	0.0	186.1692910194397	
16	42.007670879364014	movie	1		167.0	14.0	2.5	/experiments/knapen_aot/videos/R_S_comp_H012_C009_PS_v01_SDR_PS_20180925_SDR_2K_AVC.mp4	0.0	186.17739391326904	2.5083720684051514
16	44.516042947769165	fix_post	2		12.0	14.0	2.5	/experiments/knapen_aot/videos/R_S_comp_H012_C009_PS_v01_SDR_PS_20180925_SDR_2K_AVC.mp4	0.0	188.6857659816742	0.09999299049377441
17	44.61603593826294	fix_pre	0		13.0	15.0	2.5	/experiments/knapen_aot/videos/S_yt-kkbtZP78JxQ_96.mp4	0.0	188.78575897216797	0.10927891731262207
17	44.7162709236145	response	0	2		15.0	2.5	/experiments/knapen_aot/videos/S_yt-kkbtZP78JxQ_96.mp4	0.0	188.88599395751953	
17	44.72531485557556	movie	1		301.0	15.0	2.5	/experiments/knapen_aot/videos/S_yt-kkbtZP78JxQ_96.mp4	0.0	188.8950378894806	2.507481098175049
17	47.23279595375061	fix_post	2		12.0	15.0	2.5	/experiments/knapen_aot/videos/S_yt-kkbtZP78JxQ_96.mp4	0.0	191.40251898765564	0.10009193420410156
18	47.33288788795471	fix_pre	0		67.0	16.0	2.5	/experiments/knapen_aot/videos/S_yt-Co4dzHwupRM_18.mp4	0.0	191.50261092185974	0.5590591430664062
18	47.88299298286438	response	0	2		16.0	2.5	/experiments/knapen_aot/videos/S_yt-Co4dzHwupRM_18.mp4	0.0	192.0527160167694	
18	47.89194703102112	movie	1		300.0	16.0	2.5	/experiments/knapen_aot/videos/S_yt-Co4dzHwupRM_18.mp4	0.0	192.06167006492615	2.5075058937072754
18	50.399452924728394	fix_post	2		12.0	16.0	2.5	/experiments/knapen_aot/videos/S_yt-Co4dzHwupRM_18.mp4	0.0	194.56917595863342	0.0999901294708252
19	50.49944305419922	fix_pre	0		21.0	17.0	2.5	/experiments/knapen_aot/videos/R_S_pexels-marcus-aurelius-6785014.mp4	0.0	194.66916608810425	0.1749579906463623
19	50.66626501083374	response	0	2		17.0	2.5	/experiments/knapen_aot/videos/R_S_pexels-marcus-aurelius-6785014.mp4	0.0	194.83598804473877	
19	50.67440104484558	movie	1		170.0	17.0	2.5	/experiments/knapen_aot/videos/R_S_pexels-marcus-aurelius-6785014.mp4	0.0	194.8441240787506	2.508392810821533
19	53.182793855667114	fix_post	2		12.0	17.0	2.5	/experiments/knapen_aot/videos/R_S_pexels-marcus-aurelius-6785014.mp4	0.0	197.35251688957214	0.09996199607849121
19	53.20788908004761	response	2	2		17.0	2.5	/experiments/knapen_aot/videos/R_S_pexels-marcus-aurelius-6785014.mp4	0.0	197.37761211395264	
20	53.282755851745605	fix_pre	0		49.0	18.0	2.5	/experiments/knapen_aot/videos/S_yt-1iB2ofPY1U8_16.mp4	0.0	197.45247888565063	0.40831613540649414
20	53.68284797668457	response	0	2		18.0	2.5	/experiments/knapen_aot/videos/S_yt-1iB2ofPY1U8_16.mp4	0.0	197.8525710105896	
20	53.6910719871521	movie	1		301.0	18.0	2.5	/experiments/knapen_aot/videos/S_yt-1iB2ofPY1U8_16.mp4	0.0	197.86079502105713	2.508362054824829
20	56.19943404197693	fix_post	2		12.0	18.0	2.5	/experiments/knapen_aot/videos/S_yt-1iB2ofPY1U8_16.mp4	0.0	200.36915707588196	0.09999799728393555
21	56.299432039260864	fix_pre	0		20.0	19.0	2.5	/experiments/knapen_aot/videos/R_S_production_ID_4499960.mp4	0.0	200.4691550731659	0.16663193702697754
21	56.45036196708679	response	0	2		19.0	2.5	/experiments/knapen_aot/videos/R_S_production_ID_4499960.mp4	0.0	200.62008500099182	
21	56.46606397628784	movie	1		167.0	19.0	2.5	/experiments/knapen_aot/videos/R_S_production_ID_4499960.mp4	0.0	200.63578701019287	2.5082550048828125
21	58.974318981170654	fix_post	2		12.0	19.0	2.5	/experiments/knapen_aot/videos/R_S_production_ID_4499960.mp4	0.0	203.14404201507568	0.09997987747192383
22	59.07429885864258	fix_pre	0		7.0	20.0	2.5	blank	1.0	203.2440218925476	0.05843520164489746
22	59.12447500228882	response	0	2		20.0	2.5	blank	1.0	203.29419803619385	
22	59.132734060287476	movie	1		301.0	20.0	2.5	blank	1.0	203.3024570941925	2.5082168579101562
22	61.64095091819763	fix_post	2		12.0	20.0	2.5	blank	1.0	205.81067395210266	0.1001119613647461
23	61.74106287956238	fix_pre	0		18.0	21.0	2.5	/experiments/knapen_aot/videos/R_S_yt-11S5tcT2Tm0_254.mp4	0.0	205.9107859134674	0.15084218978881836
23	61.88281202316284	response	0	2		21.0	2.5	/experiments/knapen_aot/videos/R_S_yt-11S5tcT2Tm0_254.mp4	0.0	206.05253505706787	
23	61.891905069351196	movie	1		300.0	21.0	2.5	/experiments/knapen_aot/videos/R_S_yt-11S5tcT2Tm0_254.mp4	0.0	206.06162810325623	2.507405996322632
23	64.39931106567383	fix_post	2		12.0	21.0	2.5	/experiments/knapen_aot/videos/R_S_yt-11S5tcT2Tm0_254.mp4	0.0	208.56903409957886	0.10001683235168457
24	64.49932789802551	fix_pre	0		18.0	22.0	2.5	/experiments/knapen_aot/videos/R_S_comp_CH_C007_C004_PSNK_v02_SDR_PS_FINAL_20180709_SDR_2K_AVC.mp4	0.0	208.66905093193054	0.14997410774230957
24	64.64112997055054	response	0	2		22.0	2.5	/experiments/knapen_aot/videos/R_S_comp_CH_C007_C004_PSNK_v02_SDR_PS_FINAL_20180709_SDR_2K_AVC.mp4	0.0	208.81085300445557	
24	64.64930200576782	movie	1		175.0	22.0	2.5	/experiments/knapen_aot/videos/R_S_comp_CH_C007_C004_PSNK_v02_SDR_PS_FINAL_20180709_SDR_2K_AVC.mp4	0.0	208.81902503967285	2.5083558559417725
24	67.1576578617096	fix_post	2		12.0	22.0	2.5	/experiments/knapen_aot/videos/R_S_comp_CH_C007_C004_PSNK_v02_SDR_PS_FINAL_20180709_SDR_2K_AVC.mp4	0.0	211.32738089561462	0.1000070571899414
25	67.25766491889954	fix_pre	0		1.0	23.0	2.5	/experiments/knapen_aot/videos/S_yt-ycQy_fHCK-U_8.mp4	0.0	211.42738795280457	0.009134054183959961
25	67.25931906700134	response	0	2		23.0	2.5	/experiments/knapen_aot/videos/S_yt-ycQy_fHCK-U_8.mp4	0.0	211.42904210090637	
25	67.2667989730835	movie	1		301.0	23.0	2.5	/experiments/knapen_aot/videos/S_yt-ycQy_fHCK-U_8.mp4	0.0	211.43652200698853	2.507488965988159
25	69.77428793907166	fix_post	2		12.0	23.0	2.5	/experiments/knapen_aot/videos/S_yt-ycQy_fHCK-U_8.mp4	0.0	213.94401097297668	0.10002398490905762
26	69.87431192398071	fix_pre	0		8.0	24.0	2.5	/experiments/knapen_aot/videos/S_production_ID_4153808.mp4	0.0	214.04403495788574	0.06658697128295898
26	69.93282294273376	response	0	2		24.0	2.5	/experiments/knapen_aot/videos/S_production_ID_4153808.mp4	0.0	214.1025459766388	
26	69.94089889526367	movie	1		199.0	24.0	2.5	/experiments/knapen_aot/videos/S_production_ID_4153808.mp4	0.0	214.1106219291687	2.5084421634674072
26	72.35773801803589	response	1	2		24.0	2.5	/experiments/knapen_aot/videos/S_production_ID_4153808.mp4	0.0	216.52746105194092	
26	72.44934105873108	fix_post	2		12.0	24.0	2.5	/experiments/knapen_aot/videos/S_production_ID_4153808.mp4	0.0	216.6190640926361	0.09994387626647949
27	72.54928493499756	fix_pre	0		28.0	25.0	2.5	/experiments/knapen_aot/videos/R_S_production_ID_3943334.mp4	0.0	216.7190079689026	0.2332460880279541
27	72.7744209766388	response	0	2		25.0	2.5	/experiments/knapen_aot/videos/R_S_production_ID_3943334.mp4	0.0	216.94414401054382	
27	72.78253102302551	movie	1		198.0	25.0	2.5	/experiments/knapen_aot/videos/R_S_production_ID_3943334.mp4	0.0	216.95225405693054	2.5084550380706787
27	75.29098606109619	fix_post	2		12.0	25.0	2.5	/experiments/knapen_aot/videos/R_S_production_ID_3943334.mp4	0.0	219.46070909500122	0.09999394416809082
28	75.39098000526428	fix_pre	0		5.0	26.0	2.5	blank	1.0	219.5607030391693	0.042860984802246094
28	75.4243528842926	response	0	2		26.0	2.5	blank	1.0	219.59407591819763	
28	75.43384099006653	movie	1		301.0	26.0	2.5	blank	1.0	219.60356402397156	2.507049083709717
28	77.65779185295105	response	1	2		26.0	2.5	blank	1.0	221.82751488685608	
28	77.94089007377625	fix_post	2		12.0	26.0	2.5	blank	1.0	222.11061310768127	0.10008382797241211
28	77.9494059085846	response	2	2		26.0	2.5	blank	1.0	222.11912894248962	
29	78.04097390174866	fix_pre	0		30.0	27.0	2.5	/experiments/knapen_aot/videos/R_S_yt-z68VLDDCFdw_93.mp4	0.0	222.2106969356537	0.24996113777160645
29	78.28263092041016	response	0	2		27.0	2.5	/experiments/knapen_aot/videos/R_S_yt-z68VLDDCFdw_93.mp4	0.0	222.45235395431519	
29	78.29093503952026	movie	1		297.0	27.0	2.5	/experiments/knapen_aot/videos/R_S_yt-z68VLDDCFdw_93.mp4	0.0	222.4606580734253	2.5084118843078613
29	80.79934692382812	fix_post	2		12.0	27.0	2.5	/experiments/knapen_aot/videos/R_S_yt-z68VLDDCFdw_93.mp4	0.0	224.96906995773315	0.09998106956481934
30	80.89932799339294	fix_pre	0		22.0	28.0	2.5	/experiments/knapen_aot/videos/R_S_ILSVRC2015_train_00303005.mp4	0.0	225.06905102729797	0.183319091796875
30	81.07447290420532	response	0	2		28.0	2.5	/experiments/knapen_aot/videos/R_S_ILSVRC2015_train_00303005.mp4	0.0	225.24419593811035	
30	81.08264708518982	movie	1		301.0	28.0	2.5	/experiments/knapen_aot/videos/R_S_ILSVRC2015_train_00303005.mp4	0.0	225.25237011909485	2.5083529949188232
30	83.59100008010864	fix_post	2		12.0	28.0	2.5	/experiments/knapen_aot/videos/R_S_ILSVRC2015_train_00303005.mp4	0.0	227.76072311401367	0.0999608039855957
31	83.69096088409424	fix_pre	0		14.0	29.0	2.5	/experiments/knapen_aot/videos/S_Y011_C008_SDR_2K_AVC.mp4	0.0	227.86068391799927	0.11737203598022461
31	83.79947996139526	response	0	2		29.0	2.5	/experiments/knapen_aot/videos/S_Y011_C008_SDR_2K_AVC.mp4	0.0	227.9692029953003	
31	83.80833292007446	movie	1		170.0	29.0	2.5	/experiments/knapen_aot/videos/S_Y011_C008_SDR_2K_AVC.mp4	0.0	227.9780559539795	2.507617950439453
31	86.0306670665741	response	1	2		29.0	2.5	/experiments/knapen_aot/videos/S_Y011_C008_SDR_2K_AVC.mp4	0.0	230.20039010047913	
31	86.31595087051392	fix_post	2		12.0	29.0	2.5	/experiments/knapen_aot/videos/S_Y011_C008_SDR_2K_AVC.mp4	0.0	230.48567390441895	0.09999918937683105
32	86.41595005989075	fix_pre	0		4.0	30.0	2.5	/experiments/knapen_aot/videos/S_yt-e9AZJKNv9ow_359.mp4	0.0	230.58567309379578	0.03340888023376465
32	86.44104790687561	response	0	2		30.0	2.5	/experiments/knapen_aot/videos/S_yt-e9AZJKNv9ow_359.mp4	0.0	230.61077094078064	
32	86.44935894012451	movie	1		301.0	30.0	2.5	/experiments/knapen_aot/videos/S_yt-e9AZJKNv9ow_359.mp4	0.0	230.61908197402954	2.5082590579986572
32	88.95761799812317	fix_post	2		12.0	30.0	2.5	/experiments/knapen_aot/videos/S_yt-e9AZJKNv9ow_359.mp4	0.0	233.1273410320282	0.09995698928833008
33	89.0575749874115	fix_pre	0		17.0	31.0	2.5	/experiments/knapen_aot/videos/R_S_yt-uT4MXm0UBJM_64.mp4	0.0	233.22729802131653	0.1416940689086914
33	89.19108605384827	response	0	2		31.0	2.5	/experiments/knapen_aot/videos/R_S_yt-uT4MXm0UBJM_64.mp4	0.0	233.3608090877533	
33	89.19926905632019	movie	1		301.0	31.0	2.5	/experiments/knapen_aot/videos/R_S_yt-uT4MXm0UBJM_64.mp4	0.0	233.36899209022522	2.5083208084106445
33	91.70758986473083	fix_post	2		12.0	31.0	2.5	/experiments/knapen_aot/videos/R_S_yt-uT4MXm0UBJM_64.mp4	0.0	235.87731289863586	0.09996199607849121
34	91.80755186080933	fix_pre	0		37.0	32.0	2.5	/experiments/knapen_aot/videos/R_S_yt-Rsfo57AlpLA_332.mp4	0.0	235.97727489471436	0.30829811096191406
34	92.10768008232117	response	0	2		32.0	2.5	/experiments/knapen_aot/videos/R_S_yt-Rsfo57AlpLA_332.mp4	0.0	236.2774031162262	
34	92.11584997177124	movie	1		301.0	32.0	2.5	/experiments/knapen_aot/videos/R_S_yt-Rsfo57AlpLA_332.mp4	0.0	236.28557300567627	2.5082619190216064
34	94.62411189079285	fix_post	2		12.0	32.0	2.5	/experiments/knapen_aot/videos/R_S_yt-Rsfo57AlpLA_332.mp4	0.0	238.79383492469788	0.10005903244018555
35	94.72417092323303	fix_pre	0		33.0	33.0	2.5	/experiments/knapen_aot/videos/S_yt-LGwEki4ghNw_69.mp4	0.0	238.89389395713806	0.2750380039215088
35	94.99102592468262	response	0	2		33.0	2.5	/experiments/knapen_aot/videos/S_yt-LGwEki4ghNw_69.mp4	0.0	239.16074895858765	
35	94.99920892715454	movie	1		301.0	33.0	2.5	/experiments/knapen_aot/videos/S_yt-LGwEki4ghNw_69.mp4	0.0	239.16893196105957	2.508358955383301
35	97.50756788253784	fix_post	2		12.0	33.0	2.5	/experiments/knapen_aot/videos/S_yt-LGwEki4ghNw_69.mp4	0.0	241.67729091644287	0.09989619255065918
36	97.6074640750885	fix_pre	0		14.0	34.0	2.5	blank	1.0	241.77718710899353	0.11730098724365234
36	97.71600794792175	response	0	2		34.0	2.5	blank	1.0	241.88573098182678	
36	97.72476506233215	movie	1		301.0	34.0	2.5	blank	1.0	241.89448809623718	2.5077438354492188
36	100.23250889778137	fix_post	2		12.0	34.0	2.5	blank	1.0	244.4022319316864	0.10012602806091309
37	100.33263492584229	fix_pre	0		25.0	35.0	2.5	/experiments/knapen_aot/videos/S_yt-2jVJb1PR2XA_16.mp4	0.0	244.50235795974731	0.2081141471862793
37	100.53263807296753	response	0	2		35.0	2.5	/experiments/knapen_aot/videos/S_yt-2jVJb1PR2XA_16.mp4	0.0	244.70236110687256	
37	100.54074907302856	movie	1		301.0	35.0	2.5	/experiments/knapen_aot/videos/S_yt-2jVJb1PR2XA_16.mp4	0.0	244.7104721069336	2.5083489418029785
37	103.04909801483154	fix_post	2		12.0	35.0	2.5	/experiments/knapen_aot/videos/S_yt-2jVJb1PR2XA_16.mp4	0.0	247.21882104873657	0.10002899169921875
38	103.14912700653076	fix_pre	0		9.0	36.0	2.5	/experiments/knapen_aot/videos/R_S_yt-zSSnQYeO_DE_338.mp4	0.0	247.3188500404358	0.07557988166809082
38	103.2159378528595	response	0	2		36.0	2.5	/experiments/knapen_aot/videos/R_S_yt-zSSnQYeO_DE_338.mp4	0.0	247.38566088676453	
38	103.22470688819885	movie	1		301.0	36.0	2.5	/experiments/knapen_aot/videos/R_S_yt-zSSnQYeO_DE_338.mp4	0.0	247.39442992210388	2.5078020095825195
38	105.73250889778137	fix_post	2		11.0	36.0	2.5	/experiments/knapen_aot/videos/R_S_yt-zSSnQYeO_DE_338.mp4	0.0	249.9022319316864	0.09164118766784668
38	105.81613397598267	response	2	2		36.0	2.5	/experiments/knapen_aot/videos/R_S_yt-zSSnQYeO_DE_338.mp4	0.0	249.9858570098877	
39	105.82415008544922	fix_pre	0		60.0	37.0	2.5	/experiments/knapen_aot/videos/S_yt-4GDusA21cEA_170.mp4	0.0	249.99387311935425	0.49998998641967773
39	106.3159670829773	response	0	2		37.0	2.5	/experiments/knapen_aot/videos/S_yt-4GDusA21cEA_170.mp4	0.0	250.48569011688232	
39	106.3241400718689	movie	1		301.0	37.0	2.5	/experiments/knapen_aot/videos/S_yt-4GDusA21cEA_170.mp4	0.0	250.49386310577393	2.5083799362182617
39	108.83252000808716	fix_post	2		12.0	37.0	2.5	/experiments/knapen_aot/videos/S_yt-4GDusA21cEA_170.mp4	0.0	253.0022430419922	0.09998106956481934
40	108.93250107765198	fix_pre	0		7.0	38.0	2.5	/experiments/knapen_aot/videos/S_yt-x7NWmdlvVIQ_183.mp4	0.0	253.102224111557	0.05830097198486328
40	108.98269200325012	response	0	2		38.0	2.5	/experiments/knapen_aot/videos/S_yt-x7NWmdlvVIQ_183.mp4	0.0	253.15241503715515	
40	108.99080204963684	movie	1		301.0	38.0	2.5	/experiments/knapen_aot/videos/S_yt-x7NWmdlvVIQ_183.mp4	0.0	253.16052508354187	2.508302927017212
40	111.49910497665405	fix_post	2		12.0	38.0	2.5	/experiments/knapen_aot/videos/S_yt-x7NWmdlvVIQ_183.mp4	0.0	255.66882801055908	0.1000070571899414
41	111.599112033844	fix_pre	0		17.0	39.0	2.5	/experiments/knapen_aot/videos/S_yt-KpOAdMtPGFs_17.mp4	0.0	255.76883506774902	0.14167094230651855
41	111.7326090335846	response	0	2		39.0	2.5	/experiments/knapen_aot/videos/S_yt-KpOAdMtPGFs_17.mp4	0.0	255.90233206748962	
41	111.74078297615051	movie	1		301.0	39.0	2.5	/experiments/knapen_aot/videos/S_yt-KpOAdMtPGFs_17.mp4	0.0	255.91050601005554	2.5082969665527344
41	114.24907994270325	fix_post	2		12.0	39.0	2.5	/experiments/knapen_aot/videos/S_yt-KpOAdMtPGFs_17.mp4	0.0	258.4188029766083	0.10015392303466797
42	114.34923386573792	fix_pre	0		44.0	40.0	2.5	/experiments/knapen_aot/videos/R_S_production_ID_3709168.mp4	0.0	258.51895689964294	0.366549015045166
42	114.70761585235596	response	0	2		40.0	2.5	/experiments/knapen_aot/videos/R_S_production_ID_3709168.mp4	0.0	258.877338886261	
42	114.71578288078308	movie	1		204.0	40.0	2.5	/experiments/knapen_aot/videos/R_S_production_ID_3709168.mp4	0.0	258.8855059146881	2.5083329677581787
42	117.22411584854126	fix_post	2		12.0	40.0	2.5	/experiments/knapen_aot/videos/R_S_production_ID_3709168.mp4	0.0	261.3938388824463	0.09993505477905273
43	117.32405090332031	fix_pre	0		19.0	41.0	2.5	/experiments/knapen_aot/videos/R_S_yt-e9AZJKNv9ow_359.mp4	0.0	261.49377393722534	0.15837907791137695
43	117.47420597076416	response	0	2		41.0	2.5	/experiments/knapen_aot/videos/R_S_yt-e9AZJKNv9ow_359.mp4	0.0	261.6439290046692	
43	117.48242998123169	movie	1		301.0	41.0	2.5	/experiments/knapen_aot/videos/R_S_yt-e9AZJKNv9ow_359.mp4	0.0	261.6521530151367	2.5083630084991455
43	119.99079298973083	fix_post	2		12.0	41.0	2.5	/experiments/knapen_aot/videos/R_S_yt-e9AZJKNv9ow_359.mp4	0.0	264.16051602363586	0.09991908073425293
44	120.09071207046509	fix_pre	0		48.0	42.0	2.5	blank	1.0	264.2604351043701	0.3999488353729248
44	120.48257303237915	response	0	2		42.0	2.5	blank	1.0	264.6522960662842	
44	120.49066090583801	movie	1		301.0	42.0	2.5	blank	1.0	264.66038393974304	2.508445978164673
44	120.99920701980591	response	1	2		42.0	2.5	blank	1.0	265.16893005371094	
44	121.44086408615112	response	1	2		42.0	2.5	blank	1.0	265.61058712005615	
44	121.7326488494873	response	1	2		42.0	2.5	blank	1.0	265.90237188339233	
44	122.1407790184021	response	1	2		42.0	2.5	blank	1.0	266.31050205230713	
44	122.99910688400269	fix_post	2		12.0	42.0	2.5	blank	1.0	267.1688299179077	0.1004490852355957
45	123.09955596923828	fix_pre	0		26.0	43.0	2.5	/experiments/knapen_aot/videos/R_S_yt-XF0fyyFEgWo_280.mp4	0.0	267.2692790031433	0.2161550521850586
45	123.30752396583557	response	0	2		43.0	2.5	/experiments/knapen_aot/videos/R_S_yt-XF0fyyFEgWo_280.mp4	0.0	267.4772469997406	
45	123.31571102142334	movie	1		301.0	43.0	2.5	/experiments/knapen_aot/videos/R_S_yt-XF0fyyFEgWo_280.mp4	0.0	267.48543405532837	2.508354902267456
45	125.8240659236908	fix_post	2		12.0	43.0	2.5	/experiments/knapen_aot/videos/R_S_yt-XF0fyyFEgWo_280.mp4	0.0	269.9937889575958	0.09995698928833008
46	125.92402291297913	fix_pre	0		9.0	44.0	2.5	/experiments/knapen_aot/videos/R_S_production_ID_4101225.mp4	0.0	270.09374594688416	0.07513713836669922
46	125.990877866745	response	0	2		44.0	2.5	/experiments/knapen_aot/videos/R_S_production_ID_4101225.mp4	0.0	270.16060090065	
46	125.99916005134583	movie	1		200.0	44.0	2.5	/experiments/knapen_aot/videos/R_S_production_ID_4101225.mp4	0.0	270.16888308525085	2.508222818374634
46	128.50738286972046	fix_post	2		12.0	44.0	2.5	/experiments/knapen_aot/videos/R_S_production_ID_4101225.mp4	0.0	272.6771059036255	0.09996700286865234
47	128.6073498725891	fix_pre	0		22.0	45.0	2.5	/experiments/knapen_aot/videos/R_S_yt-WRBmpC-RxIc_678.mp4	0.0	272.77707290649414	0.1833341121673584
47	128.7825698852539	response	0	2		45.0	2.5	/experiments/knapen_aot/videos/R_S_yt-WRBmpC-RxIc_678.mp4	0.0	272.95229291915894	
47	128.79068398475647	movie	1		301.0	45.0	2.5	/experiments/knapen_aot/videos/R_S_yt-WRBmpC-RxIc_678.mp4	0.0	272.9604070186615	2.5083858966827393
47	131.2990698814392	fix_post	2		12.0	45.0	2.5	/experiments/knapen_aot/videos/R_S_yt-WRBmpC-RxIc_678.mp4	0.0	275.46879291534424	0.09993505477905273
48	131.39900493621826	fix_pre	0		14.0	46.0	2.5	/experiments/knapen_aot/videos/R_S_yt-szXWk_X_67Q_10.mp4	0.0	275.5687279701233	0.11707806587219238
48	131.50753593444824	response	0	2		46.0	2.5	/experiments/knapen_aot/videos/R_S_yt-szXWk_X_67Q_10.mp4	0.0	275.67725896835327	
48	131.51608300209045	movie	1		301.0	46.0	2.5	/experiments/knapen_aot/videos/R_S_yt-szXWk_X_67Q_10.mp4	0.0	275.6858060359955	2.5081369876861572
48	134.0242199897766	fix_post	2		12.0	46.0	2.5	/experiments/knapen_aot/videos/R_S_yt-szXWk_X_67Q_10.mp4	0.0	278.19394302368164	0.09980392456054688
49	134.12402391433716	fix_pre	0		22.0	47.0	2.5	/experiments/knapen_aot/videos/S_gX_VbZnZO0k_13.mp4	0.0	278.2937469482422	0.18375301361083984
49	134.2992980480194	response	0	2		47.0	2.5	/experiments/knapen_aot/videos/S_gX_VbZnZO0k_13.mp4	0.0	278.46902108192444	
49	134.307776927948	movie	1		301.0	47.0	2.5	/experiments/knapen_aot/videos/S_gX_VbZnZO0k_13.mp4	0.0	278.477499961853	2.5079269409179688
49	136.81570386886597	fix_post	2		12.0	47.0	2.5	/experiments/knapen_aot/videos/S_gX_VbZnZO0k_13.mp4	0.0	280.985426902771	0.10003209114074707
50	136.9157359600067	fix_pre	0		19.0	48.0	2.5	/experiments/knapen_aot/videos/S_yt-y6JsUW0eSW8_32.mp4	0.0	281.08545899391174	0.15824103355407715
50	137.06583094596863	response	0	2		48.0	2.5	/experiments/knapen_aot/videos/S_yt-y6JsUW0eSW8_32.mp4	0.0	281.23555397987366	
50	137.0739769935608	movie	1		301.0	48.0	2.5	/experiments/knapen_aot/videos/S_yt-y6JsUW0eSW8_32.mp4	0.0	281.2437000274658	2.5083980560302734
50	139.58237504959106	fix_post	2		12.0	48.0	2.5	/experiments/knapen_aot/videos/S_yt-y6JsUW0eSW8_32.mp4	0.0	283.7520980834961	0.09999680519104004
51	139.6823718547821	fix_pre	0		17.0	49.0	2.5	blank	1.0	283.85209488868713	0.141571044921875
51	139.81578087806702	response	0	2		49.0	2.5	blank	1.0	283.98550391197205	
51	139.82394289970398	movie	1		301.0	49.0	2.5	blank	1.0	283.993665933609	2.5083789825439453
51	142.33232188224792	fix_post	2		12.0	49.0	2.5	blank	1.0	286.50204491615295	0.1004490852355957
52	142.43277096748352	fix_pre	0		33.0	50.0	2.5	/experiments/knapen_aot/videos/S_video_inspire_texas_pecos_foggy-landscape_00018.1080-h264.mp4	0.0	286.60249400138855	0.2745490074157715
52	142.69905304908752	response	0	2		50.0	2.5	/experiments/knapen_aot/videos/S_video_inspire_texas_pecos_foggy-landscape_00018.1080-h264.mp4	0.0	286.86877608299255	
52	142.7073199748993	movie	1		169.0	50.0	2.5	/experiments/knapen_aot/videos/S_video_inspire_texas_pecos_foggy-landscape_00018.1080-h264.mp4	0.0	286.8770430088043	2.5082929134368896
52	145.21561288833618	fix_post	2		12.0	50.0	2.5	/experiments/knapen_aot/videos/S_video_inspire_texas_pecos_foggy-landscape_00018.1080-h264.mp4	0.0	289.3853359222412	0.1000661849975586
53	145.31567907333374	fix_pre	0		31.0	51.0	2.5	/experiments/knapen_aot/videos/R_S_yt-nn-8LZcafGs_35.mp4	0.0	289.48540210723877	0.2583198547363281
53	145.55832695960999	response	0	2		51.0	2.5	/experiments/knapen_aot/videos/R_S_yt-nn-8LZcafGs_35.mp4	0.0	289.728049993515	
53	145.57399892807007	movie	1		300.0	51.0	2.5	/experiments/knapen_aot/videos/R_S_yt-nn-8LZcafGs_35.mp4	0.0	289.7437219619751	2.5083041191101074
53	148.08230304718018	fix_post	2		12.0	51.0	2.5	/experiments/knapen_aot/videos/R_S_yt-nn-8LZcafGs_35.mp4	0.0	292.2520260810852	0.10035085678100586
54	148.18265390396118	fix_pre	0		18.0	52.0	2.5	/experiments/knapen_aot/videos/R_S_yt-mDil5vGZb14_4049.mp4	0.0	292.3523769378662	0.14964604377746582
54	148.31658792495728	response	0	2		52.0	2.5	/experiments/knapen_aot/videos/R_S_yt-mDil5vGZb14_4049.mp4	0.0	292.4863109588623	
54	148.33229994773865	movie	1		301.0	52.0	2.5	/experiments/knapen_aot/videos/R_S_yt-mDil5vGZb14_4049.mp4	0.0	292.5020229816437	2.508302927017212
54	150.84060287475586	fix_post	2		12.0	52.0	2.5	/experiments/knapen_aot/videos/R_S_yt-mDil5vGZb14_4049.mp4	0.0	295.0103259086609	0.10004401206970215
55	150.94064688682556	fix_pre	0		5.0	53.0	2.5	/experiments/knapen_aot/videos/S_Oo8otu7cQ20_112.mp4	0.0	295.1103699207306	0.04163217544555664
55	150.97448086738586	response	0	2		53.0	2.5	/experiments/knapen_aot/videos/S_Oo8otu7cQ20_112.mp4	0.0	295.1442039012909	
55	150.98227906227112	movie	1		299.0	53.0	2.5	/experiments/knapen_aot/videos/S_Oo8otu7cQ20_112.mp4	0.0	295.15200209617615	2.5083518028259277
55	153.49063086509705	fix_post	2		12.0	53.0	2.5	/experiments/knapen_aot/videos/S_Oo8otu7cQ20_112.mp4	0.0	297.6603538990021	0.09998798370361328
56	153.59061884880066	fix_pre	0		18.0	54.0	2.5	blank	1.0	297.7603418827057	0.14998602867126465
56	153.73245000839233	response	0	2		54.0	2.5	blank	1.0	297.90217304229736	
56	153.74060487747192	movie	1		301.0	54.0	2.5	blank	1.0	297.91032791137695	2.508352041244507
56	156.07403802871704	response	1	2		54.0	2.5	blank	1.0	300.24376106262207	
56	156.24895691871643	fix_post	2		12.0	54.0	2.5	blank	1.0	300.41867995262146	0.10032105445861816
57	156.34927797317505	fix_pre	0		3.0	55.0	2.5	/experiments/knapen_aot/videos/R_S_yt-xQilXyNKsBw_42.mp4	0.0	300.5190010070801	0.024789094924926758
57	156.3657350540161	response	0	2		55.0	2.5	/experiments/knapen_aot/videos/R_S_yt-xQilXyNKsBw_42.mp4	0.0	300.53545808792114	
57	156.37406706809998	movie	1		301.0	55.0	2.5	/experiments/knapen_aot/videos/R_S_yt-xQilXyNKsBw_42.mp4	0.0	300.543790102005	2.5081470012664795
57	158.88221406936646	fix_post	2		12.0	55.0	2.5	/experiments/knapen_aot/videos/R_S_yt-xQilXyNKsBw_42.mp4	0.0	303.0519371032715	0.10003089904785156
58	158.9822449684143	fix_pre	0		9.0	56.0	2.5	/experiments/knapen_aot/videos/R_S_yt-9Z9-RT-ysEE_85.mp4	0.0	303.15196800231934	0.07529807090759277
58	159.0490698814392	response	0	2		56.0	2.5	/experiments/knapen_aot/videos/R_S_yt-9Z9-RT-ysEE_85.mp4	0.0	303.21879291534424	
58	159.0575430393219	movie	1		301.0	56.0	2.5	/experiments/knapen_aot/videos/R_S_yt-9Z9-RT-ysEE_85.mp4	0.0	303.22726607322693	2.507999897003174
58	161.56554293632507	fix_post	2		12.0	56.0	2.5	/experiments/knapen_aot/videos/R_S_yt-9Z9-RT-ysEE_85.mp4	0.0	305.7352659702301	0.09999299049377441
58	161.6157009601593	response	2	2		56.0	2.5	/experiments/knapen_aot/videos/R_S_yt-9Z9-RT-ysEE_85.mp4	0.0	305.78542399406433	
59	161.66553592681885	fix_pre	0		39.0	57.0	2.5	/experiments/knapen_aot/videos/R_S_yt-R9Iabv0XgOQ_80.mp4	0.0	305.8352589607239	0.32502007484436035
59	161.98253989219666	response	0	2		57.0	2.5	/experiments/knapen_aot/videos/R_S_yt-R9Iabv0XgOQ_80.mp4	0.0	306.1522629261017	
59	161.9905560016632	movie	1		301.0	57.0	2.5	/experiments/knapen_aot/videos/R_S_yt-R9Iabv0XgOQ_80.mp4	0.0	306.16027903556824	2.5083160400390625
59	164.49887204170227	fix_post	2		12.0	57.0	2.5	/experiments/knapen_aot/videos/R_S_yt-R9Iabv0XgOQ_80.mp4	0.0	308.6685950756073	0.1002509593963623
60	164.59912300109863	fix_pre	0		17.0	58.0	2.5	/experiments/knapen_aot/videos/S_yt-rqYMMAU_GJs_91.mp4	0.0	308.76884603500366	0.14142394065856934
60	164.73233008384705	response	0	2		58.0	2.5	/experiments/knapen_aot/videos/S_yt-rqYMMAU_GJs_91.mp4	0.0	308.9020531177521	
60	164.7405469417572	movie	1		301.0	58.0	2.5	/experiments/knapen_aot/videos/S_yt-rqYMMAU_GJs_91.mp4	0.0	308.91026997566223	2.5082969665527344
60	167.24884390830994	fix_post	2		12.0	58.0	2.5	/experiments/knapen_aot/videos/S_yt-rqYMMAU_GJs_91.mp4	0.0	311.41856694221497	0.10030198097229004
61	167.34914588928223	fix_pre	0		22.0	59.0	2.5	/experiments/knapen_aot/videos/S_yt-R-SETZtYWaA_336.mp4	0.0	311.51886892318726	0.18304896354675293
61	167.52401900291443	response	0	2		59.0	2.5	/experiments/knapen_aot/videos/S_yt-R-SETZtYWaA_336.mp4	0.0	311.69374203681946	
61	167.53219485282898	movie	1		301.0	59.0	2.5	/experiments/knapen_aot/videos/S_yt-R-SETZtYWaA_336.mp4	0.0	311.701917886734	2.5084171295166016
61	170.04061198234558	fix_post	2		12.0	59.0	2.5	/experiments/knapen_aot/videos/S_yt-R-SETZtYWaA_336.mp4	0.0	314.2103350162506	0.10013794898986816
62	170.14074993133545	fix_pre	0		12.0	60.0	2.5	/experiments/knapen_aot/videos/S_Pexels_Videos_2791797.mp4	0.0	314.3104729652405	0.09971308708190918
62	170.23231291770935	response	0	2		60.0	2.5	/experiments/knapen_aot/videos/S_Pexels_Videos_2791797.mp4	0.0	314.4020359516144	
62	170.24046301841736	movie	1		169.0	60.0	2.5	/experiments/knapen_aot/videos/S_Pexels_Videos_2791797.mp4	0.0	314.4101860523224	2.508375883102417
62	172.74883890151978	fix_post	2		12.0	60.0	2.5	/experiments/knapen_aot/videos/S_Pexels_Videos_2791797.mp4	0.0	316.9185619354248	0.10029911994934082
63	172.84913802146912	fix_pre	0		5.0	61.0	2.5	/experiments/knapen_aot/videos/S_yt-E8EDQCPbBeI_196.mp4	0.0	317.01886105537415	0.042111873626708984
63	172.88239097595215	response	0	2		61.0	2.5	/experiments/knapen_aot/videos/S_yt-E8EDQCPbBeI_196.mp4	0.0	317.0521140098572	
63	172.89124989509583	movie	1		301.0	61.0	2.5	/experiments/knapen_aot/videos/S_yt-E8EDQCPbBeI_196.mp4	0.0	317.06097292900085	2.507615089416504
63	175.39886498451233	fix_post	2		12.0	61.0	2.5	/experiments/knapen_aot/videos/S_yt-E8EDQCPbBeI_196.mp4	0.0	319.56858801841736	0.10001707077026367
64	175.4988820552826	fix_pre	0		14.0	62.0	2.5	blank	1.0	319.6686050891876	0.11672496795654297
64	175.60741186141968	response	0	2		62.0	2.5	blank	1.0	319.7771348953247	
64	175.61560702323914	movie	1		301.0	62.0	2.5	blank	1.0	319.78533005714417	2.5082919597625732
64	178.1238989830017	fix_post	2		12.0	62.0	2.5	blank	1.0	322.29362201690674	0.10036706924438477
65	178.2242660522461	fix_pre	0		21.0	63.0	2.5	/experiments/knapen_aot/videos/R_S_yt-GaJaxp546lc_22.mp4	0.0	322.3939890861511	0.17459583282470703
65	178.39066290855408	response	0	2		63.0	2.5	/experiments/knapen_aot/videos/R_S_yt-GaJaxp546lc_22.mp4	0.0	322.5603859424591	
65	178.3988618850708	movie	1		301.0	63.0	2.5	/experiments/knapen_aot/videos/R_S_yt-GaJaxp546lc_22.mp4	0.0	322.56858491897583	2.5082881450653076
65	180.9071500301361	fix_post	2		12.0	63.0	2.5	/experiments/knapen_aot/videos/R_S_yt-GaJaxp546lc_22.mp4	0.0	325.07687306404114	0.10006093978881836
66	181.00721096992493	fix_pre	0		16.0	64.0	2.5	/experiments/knapen_aot/videos/R_S_yt-j3Sk8ZnAiEA_32.mp4	0.0	325.17693400382996	0.13345789909362793
66	181.13232493400574	response	0	2		64.0	2.5	/experiments/knapen_aot/videos/R_S_yt-j3Sk8ZnAiEA_32.mp4	0.0	325.30204796791077	
66	181.14066886901855	movie	1		297.0	64.0	2.5	/experiments/knapen_aot/videos/R_S_yt-j3Sk8ZnAiEA_32.mp4	0.0	325.3103919029236	2.508125066757202
66	183.64879393577576	fix_post	2		12.0	64.0	2.5	/experiments/knapen_aot/videos/R_S_yt-j3Sk8ZnAiEA_32.mp4	0.0	327.8185169696808	0.09997296333312988
67	183.7487668991089	fix_pre	0		10.0	65.0	2.5	/experiments/knapen_aot/videos/R_S_yt-q9-_bG9ry3E_5.mp4	0.0	327.9184899330139	0.08335399627685547
67	183.82398104667664	response	0	2		65.0	2.5	/experiments/knapen_aot/videos/R_S_yt-q9-_bG9ry3E_5.mp4	0.0	327.99370408058167	
67	183.83212089538574	movie	1		301.0	65.0	2.5	/experiments/knapen_aot/videos/R_S_yt-q9-_bG9ry3E_5.mp4	0.0	328.00184392929077	2.5083940029144287
67	186.34051489830017	fix_post	2		12.0	65.0	2.5	/experiments/knapen_aot/videos/R_S_yt-q9-_bG9ry3E_5.mp4	0.0	330.5102379322052	0.09994816780090332
68	186.44046306610107	fix_pre	0		1.0	66.0	2.5	/experiments/knapen_aot/videos/S_yt-FE5srhxadno_73.mp4	0.0	330.6101861000061	0.008353948593139648
68	186.44213604927063	response	0	2		66.0	2.5	/experiments/knapen_aot/videos/S_yt-FE5srhxadno_73.mp4	0.0	330.61185908317566	
68	186.4488170146942	movie	1		301.0	66.0	2.5	/experiments/knapen_aot/videos/S_yt-FE5srhxadno_73.mp4	0.0	330.61854004859924	2.5082969665527344
68	188.95711398124695	fix_post	2		12.0	66.0	2.5	/experiments/knapen_aot/videos/S_yt-FE5srhxadno_73.mp4	0.0	333.126837015152	0.10011506080627441
69	189.05722904205322	fix_pre	0		1.0	67.0	2.5	/experiments/knapen_aot/videos/S_yt-BLmwmX-mni8_1030.mp4	0.0	333.22695207595825	0.008314847946166992
69	189.05026698112488	response	0	2		67.0	2.5	/experiments/knapen_aot/videos/S_yt-BLmwmX-mni8_1030.mp4	0.0	333.2199900150299	
69	189.0655438899994	movie	1		301.0	67.0	2.5	/experiments/knapen_aot/videos/S_yt-BLmwmX-mni8_1030.mp4	0.0	333.2352669239044	2.508258104324341
69	191.49902606010437	response	1	2		67.0	2.5	/experiments/knapen_aot/videos/S_yt-BLmwmX-mni8_1030.mp4	0.0	335.6687490940094	
69	191.57380199432373	fix_post	2		12.0	67.0	2.5	/experiments/knapen_aot/videos/S_yt-BLmwmX-mni8_1030.mp4	0.0	335.74352502822876	0.09998893737792969
70	191.67379093170166	fix_pre	0		28.0	68.0	2.5	/experiments/knapen_aot/videos/R_S_S003_C020_SDR_2K_AVC.mp4	0.0	335.8435139656067	0.23328208923339844
70	191.89906191825867	response	0	2		68.0	2.5	/experiments/knapen_aot/videos/R_S_S003_C020_SDR_2K_AVC.mp4	0.0	336.0687849521637	
70	191.90707302093506	movie	1		178.0	68.0	2.5	/experiments/knapen_aot/videos/R_S_S003_C020_SDR_2K_AVC.mp4	0.0	336.0767960548401	2.5083088874816895
70	194.41538190841675	fix_post	2		12.0	68.0	2.5	/experiments/knapen_aot/videos/R_S_S003_C020_SDR_2K_AVC.mp4	0.0	338.5851049423218	0.10013198852539062
70	194.44057297706604	response	2	2		68.0	2.5	/experiments/knapen_aot/videos/R_S_S003_C020_SDR_2K_AVC.mp4	0.0	338.61029601097107	
71	194.51551389694214	fix_pre	0		109.0	69.0	2.5	/experiments/knapen_aot/videos/S_yt-szXWk_X_67Q_10.mp4	0.0	338.68523693084717	0.9082481861114502
71	195.41555094718933	response	0	2		69.0	2.5	/experiments/knapen_aot/videos/S_yt-szXWk_X_67Q_10.mp4	0.0	339.58527398109436	
71	195.4237620830536	movie	1		297.0	69.0	2.5	/experiments/knapen_aot/videos/S_yt-szXWk_X_67Q_10.mp4	0.0	339.5934851169586	2.508354902267456
71	197.93211698532104	fix_post	2		12.0	69.0	2.5	/experiments/knapen_aot/videos/S_yt-szXWk_X_67Q_10.mp4	0.0	342.1018400192261	0.09998393058776855
72	198.0321009159088	fix_pre	0		8.0	70.0	2.5	blank	1.0	342.20182394981384	0.06673407554626465
72	198.09053087234497	response	0	2		70.0	2.5	blank	1.0	342.26025390625	
72	198.09883499145508	movie	1		301.0	70.0	2.5	blank	1.0	342.2685580253601	2.508246898651123
72	200.40710306167603	response	1	2		70.0	2.5	blank	1.0	344.57682609558105	
72	200.6070818901062	fix_post	2		12.0	70.0	2.5	blank	1.0	344.77680492401123	0.09999799728393555
72	200.64181685447693	response	2	2		70.0	2.5	blank	1.0	344.81153988838196	
73	200.70707988739014	fix_pre	0		22.0	71.0	2.5	/experiments/knapen_aot/videos/R_S_pexels-marcus-aurelius-6785014.mp4	0.0	344.87680292129517	0.1833651065826416
73	200.88216590881348	response	0	2		71.0	2.5	/experiments/knapen_aot/videos/R_S_pexels-marcus-aurelius-6785014.mp4	0.0	345.0518889427185	
73	200.89044499397278	movie	1		167.0	71.0	2.5	/experiments/knapen_aot/videos/R_S_pexels-marcus-aurelius-6785014.mp4	0.0	345.0601680278778	2.508280038833618
73	203.3488290309906	response	1	2		71.0	2.5	/experiments/knapen_aot/videos/R_S_pexels-marcus-aurelius-6785014.mp4	0.0	347.51855206489563	
73	203.3987250328064	fix_post	2		12.0	71.0	2.5	/experiments/knapen_aot/videos/R_S_pexels-marcus-aurelius-6785014.mp4	0.0	347.5684480667114	0.09996986389160156
74	203.498694896698	fix_pre	0		137.0	72.0	2.5	/experiments/knapen_aot/videos/R_S_yt-2jVJb1PR2XA_16.mp4	0.0	347.668417930603	1.1417090892791748
74	204.6321680545807	response	0	2		72.0	2.5	/experiments/knapen_aot/videos/R_S_yt-2jVJb1PR2XA_16.mp4	0.0	348.8018910884857	
74	204.64040398597717	movie	1		301.0	72.0	2.5	/experiments/knapen_aot/videos/R_S_yt-2jVJb1PR2XA_16.mp4	0.0	348.8101270198822	2.5083820819854736
74	207.14878606796265	fix_post	2		12.0	72.0	2.5	/experiments/knapen_aot/videos/R_S_yt-2jVJb1PR2XA_16.mp4	0.0	351.3185091018677	0.09992194175720215
75	207.24870800971985	fix_pre	0		11.0	73.0	2.5	/experiments/knapen_aot/videos/S_yt-FzMLLmcD1mE_19.mp4	0.0	351.4184310436249	0.09168887138366699
75	207.32468390464783	response	0	2		73.0	2.5	/experiments/knapen_aot/videos/S_yt-FzMLLmcD1mE_19.mp4	0.0	351.49440693855286	
75	207.34039688110352	movie	1		299.0	73.0	2.5	/experiments/knapen_aot/videos/S_yt-FzMLLmcD1mE_19.mp4	0.0	351.51011991500854	2.508303165435791
75	209.8487000465393	fix_post	2		12.0	73.0	2.5	/experiments/knapen_aot/videos/S_yt-FzMLLmcD1mE_19.mp4	0.0	354.01842308044434	0.10007882118225098
76	209.94877886772156	fix_pre	0		26.0	74.0	2.5	/experiments/knapen_aot/videos/S_yt-wUqpCtBOFBA_89.mp4	0.0	354.1185019016266	0.21663713455200195
76	210.1570999622345	response	0	2		74.0	2.5	/experiments/knapen_aot/videos/S_yt-wUqpCtBOFBA_89.mp4	0.0	354.3268229961395	
76	210.16541600227356	movie	1		301.0	74.0	2.5	/experiments/knapen_aot/videos/S_yt-wUqpCtBOFBA_89.mp4	0.0	354.3351390361786	2.5082390308380127
76	212.67365503311157	fix_post	2		12.0	74.0	2.5	/experiments/knapen_aot/videos/S_yt-wUqpCtBOFBA_89.mp4	0.0	356.8433780670166	0.10002493858337402
77	212.77367997169495	fix_pre	0		17.0	75.0	2.5	blank	1.0	356.9434030056	0.14163708686828613
77	212.9071249961853	response	0	2		75.0	2.5	blank	1.0	357.07684803009033	
77	212.91531705856323	movie	1		301.0	75.0	2.5	blank	1.0	357.08504009246826	2.508349895477295
77	215.42366695404053	fix_post	2		12.0	75.0	2.5	blank	1.0	359.59338998794556	0.10004711151123047
78	215.52371406555176	fix_pre	0		32.0	76.0	2.5	/experiments/knapen_aot/videos/S_yt-Fm97IY0Z2LU_110.mp4	0.0	359.6934370994568	0.26660895347595215
78	215.78208994865417	response	0	2		76.0	2.5	/experiments/knapen_aot/videos/S_yt-Fm97IY0Z2LU_110.mp4	0.0	359.9518129825592	
78	215.7903230190277	movie	1		301.0	76.0	2.5	/experiments/knapen_aot/videos/S_yt-Fm97IY0Z2LU_110.mp4	0.0	359.96004605293274	2.5083718299865723
78	218.29869484901428	fix_post	2		12.0	76.0	2.5	/experiments/knapen_aot/videos/S_yt-Fm97IY0Z2LU_110.mp4	0.0	362.4684178829193	0.1000220775604248
79	218.3987169265747	fix_pre	0		23.0	77.0	2.5	/experiments/knapen_aot/videos/S_production_ID_3761571.mp4	0.0	362.56843996047974	0.19164609909057617
79	218.58209800720215	response	0	2		77.0	2.5	/experiments/knapen_aot/videos/S_production_ID_3761571.mp4	0.0	362.7518210411072	
79	218.59036302566528	movie	1		165.0	77.0	2.5	/experiments/knapen_aot/videos/S_production_ID_3761571.mp4	0.0	362.7600860595703	2.508262872695923
79	221.0986258983612	fix_post	2		12.0	77.0	2.5	/experiments/knapen_aot/videos/S_production_ID_3761571.mp4	0.0	365.26834893226624	0.10009217262268066
80	221.1987180709839	fix_pre	0		27.0	78.0	2.5	/experiments/knapen_aot/videos/R_S_yt-rqYMMAU_GJs_91.mp4	0.0	365.3684411048889	0.22505998611450195
80	221.41546487808228	response	0	2		78.0	2.5	/experiments/knapen_aot/videos/R_S_yt-rqYMMAU_GJs_91.mp4	0.0	365.5851879119873	
80	221.4237780570984	movie	1		301.0	78.0	2.5	/experiments/knapen_aot/videos/R_S_yt-rqYMMAU_GJs_91.mp4	0.0	365.5935010910034	2.508201837539673
80	223.93197989463806	fix_post	2		12.0	78.0	2.5	/experiments/knapen_aot/videos/R_S_yt-rqYMMAU_GJs_91.mp4	0.0	368.1017029285431	0.0999460220336914
81	224.03192591667175	fix_pre	0		36.0	79.0	2.5	/experiments/knapen_aot/videos/S_yt-hvuC_2YXsTQ_73.mp4	0.0	368.2016489505768	0.3000061511993408
81	224.3237428665161	response	0	2		79.0	2.5	/experiments/knapen_aot/videos/S_yt-hvuC_2YXsTQ_73.mp4	0.0	368.49346590042114	
81	224.3319320678711	movie	1		301.0	79.0	2.5	/experiments/knapen_aot/videos/S_yt-hvuC_2YXsTQ_73.mp4	0.0	368.5016551017761	2.50832200050354
81	226.84025406837463	fix_post	2		12.0	79.0	2.5	/experiments/knapen_aot/videos/S_yt-hvuC_2YXsTQ_73.mp4	0.0	371.00997710227966	0.10012698173522949
82	226.94038105010986	fix_pre	0		40.0	80.0	2.5	/experiments/knapen_aot/videos/S_yt-WRBmpC-RxIc_678.mp4	0.0	371.1101040840149	0.33316683769226074
82	227.25792908668518	response	0	2		80.0	2.5	/experiments/knapen_aot/videos/S_yt-WRBmpC-RxIc_678.mp4	0.0	371.4276521205902	
82	227.27354788780212	movie	1		301.0	80.0	2.5	/experiments/knapen_aot/videos/S_yt-WRBmpC-RxIc_678.mp4	0.0	371.44327092170715	2.508418083190918
82	229.78196597099304	fix_post	2		12.0	80.0	2.5	/experiments/knapen_aot/videos/S_yt-WRBmpC-RxIc_678.mp4	0.0	373.95168900489807	0.10001993179321289
83	229.88198590278625	fix_pre	0		33.0	81.0	2.5	/experiments/knapen_aot/videos/R_S_yt-oPq1uvbw-lQ_62.mp4	0.0	374.0517089366913	0.27498507499694824
83	230.1487250328064	response	0	2		81.0	2.5	/experiments/knapen_aot/videos/R_S_yt-oPq1uvbw-lQ_62.mp4	0.0	374.3184480667114	
83	230.1569709777832	movie	1		301.0	81.0	2.5	/experiments/knapen_aot/videos/R_S_yt-oPq1uvbw-lQ_62.mp4	0.0	374.32669401168823	2.5083611011505127
83	232.66533207893372	fix_post	2		12.0	81.0	2.5	/experiments/knapen_aot/videos/R_S_yt-oPq1uvbw-lQ_62.mp4	0.0	376.83505511283875	0.09998488426208496
84	232.7653169631958	fix_pre	0		14.0	82.0	2.5	/experiments/knapen_aot/videos/S_yt-XF0fyyFEgWo_280.mp4	0.0	376.93503999710083	0.11788296699523926
84	232.87376403808594	response	0	2		82.0	2.5	/experiments/knapen_aot/videos/S_yt-XF0fyyFEgWo_280.mp4	0.0	377.04348707199097	
84	232.88319993019104	movie	1		301.0	82.0	2.5	/experiments/knapen_aot/videos/S_yt-XF0fyyFEgWo_280.mp4	0.0	377.05292296409607	2.507094144821167
84	235.3902940750122	fix_post	2		12.0	82.0	2.5	/experiments/knapen_aot/videos/S_yt-XF0fyyFEgWo_280.mp4	0.0	379.56001710891724	0.10004687309265137
85	235.49034094810486	fix_pre	0		7.0	83.0	2.5	blank	1.0	379.6600639820099	0.0583341121673584
85	235.5404510498047	response	0	2		83.0	2.5	blank	1.0	379.7101740837097	
85	235.54867506027222	movie	1		301.0	83.0	2.5	blank	1.0	379.71839809417725	2.5083529949188232
85	238.05702805519104	fix_post	2		12.0	83.0	2.5	blank	1.0	382.22675108909607	0.09995698928833008
87	238.15698504447937	stim	0		284.0					382.3267080783844	2.3666369915008545
87	238.3737359046936	response	0	2						382.54345893859863	
87	240.51578402519226	response	0	space						384.6855070590973	
