trial_nr	onset	event_type	phase	response	nr_frames	movie_index	movie_duration	movie_file	blank	onset_abs	duration
0	0.12483501434326172	stim	0		84.0					157.42667889595032	0.7013938426971436
0	0.8160638809204102	response	0	space						158.11790776252747	
1	0.8262288570404053	stim	0		121.0					158.12807273864746	1.0059731006622314
1	1.8322019577026367	stim	1		120.0					159.1340458393097	0.9999818801879883
1	1.833150863647461	response	1	space						159.13499474525452	
1	2.6906909942626953	response	1	space						159.99253487586975	
2	2.832183837890625	fix_pre	0		91.0	0.0	2.5	/experiments/knapen_aot/videos/S_ahJft-G235A_122.mp4	0.0	160.13402771949768	0.7582941055297852
2	3.582231044769287	response	0	space		0.0	2.5	/experiments/knapen_aot/videos/S_ahJft-G235A_122.mp4	0.0	160.88407492637634	
2	3.59047794342041	movie	1		300.0	0.0	2.5	/experiments/knapen_aot/videos/S_ahJft-G235A_122.mp4	0.0	160.89232182502747	2.50827693939209
2	6.0987548828125	fix_post	2		12.0	0.0	2.5	/experiments/knapen_aot/videos/S_ahJft-G235A_122.mp4	0.0	163.40059876441956	0.09999895095825195
3	6.198753833770752	fix_pre	0		47.0	1.0	2.5	/experiments/knapen_aot/videos/R_S_yt-2IfvnrF3IV0_241.mp4	0.0	163.5005977153778	0.39173316955566406
3	6.579810857772827	response	0	2		1.0	2.5	/experiments/knapen_aot/videos/R_S_yt-2IfvnrF3IV0_241.mp4	0.0	163.88165473937988	
3	6.590487003326416	movie	1		301.0	1.0	2.5	/experiments/knapen_aot/videos/R_S_yt-2IfvnrF3IV0_241.mp4	0.0	163.89233088493347	2.5083558559417725
3	9.098842859268188	fix_post	2		12.0	1.0	2.5	/experiments/knapen_aot/videos/R_S_yt-2IfvnrF3IV0_241.mp4	0.0	166.40068674087524	0.10005712509155273
4	9.198899984359741	fix_pre	0		15.0	2.0	2.5	/experiments/knapen_aot/videos/R_S_59eT4XDXNno_25.mp4	0.0	166.5007438659668	0.12494707107543945
4	9.315558910369873	response	0	2		2.0	2.5	/experiments/knapen_aot/videos/R_S_59eT4XDXNno_25.mp4	0.0	166.61740279197693	
4	9.32384705543518	movie	1		301.0	2.0	2.5	/experiments/knapen_aot/videos/R_S_59eT4XDXNno_25.mp4	0.0	166.62569093704224	2.509016990661621
4	11.823935985565186	response	1	4		2.0	2.5	/experiments/knapen_aot/videos/R_S_59eT4XDXNno_25.mp4	0.0	169.12577986717224	
4	11.832864046096802	fix_post	2		12.0	2.0	2.5	/experiments/knapen_aot/videos/R_S_59eT4XDXNno_25.mp4	0.0	169.13470792770386	0.09926986694335938
5	11.932133913040161	fix_pre	0		27.0	3.0	2.5	/experiments/knapen_aot/videos/R_S_comp_H007_C003_PS_v01_SDR_PS_20180925_SDR_2K_AVC.mp4	0.0	169.23397779464722	0.22500896453857422
5	12.148958921432495	response	0	4		3.0	2.5	/experiments/knapen_aot/videos/R_S_comp_H007_C003_PS_v01_SDR_PS_20180925_SDR_2K_AVC.mp4	0.0	169.45080280303955	
5	12.157142877578735	movie	1		172.0	3.0	2.5	/experiments/knapen_aot/videos/R_S_comp_H007_C003_PS_v01_SDR_PS_20180925_SDR_2K_AVC.mp4	0.0	169.4589867591858	2.508223056793213
5	14.665365934371948	fix_post	2		12.0	3.0	2.5	/experiments/knapen_aot/videos/R_S_comp_H007_C003_PS_v01_SDR_PS_20180925_SDR_2K_AVC.mp4	0.0	171.967209815979	0.10009098052978516
6	14.765456914901733	fix_pre	0		23.0	4.0	2.5	/experiments/knapen_aot/videos/R_S_comp_LW_L001_C006_PSNK_DENOISE_v02_SDR_PS_FINAL_20180709_SDR_2K_AVC.mp4	0.0	172.0673007965088	0.19227194786071777
6	14.94886302947998	response	0	2		4.0	2.5	/experiments/knapen_aot/videos/R_S_comp_LW_L001_C006_PSNK_DENOISE_v02_SDR_PS_FINAL_20180709_SDR_2K_AVC.mp4	0.0	172.25070691108704	
6	14.957728862762451	movie	1		165.0	4.0	2.5	/experiments/knapen_aot/videos/R_S_comp_LW_L001_C006_PSNK_DENOISE_v02_SDR_PS_FINAL_20180709_SDR_2K_AVC.mp4	0.0	172.2595727443695	2.5077431201934814
6	17.465471982955933	fix_post	2		12.0	4.0	2.5	/experiments/knapen_aot/videos/R_S_comp_LW_L001_C006_PSNK_DENOISE_v02_SDR_PS_FINAL_20180709_SDR_2K_AVC.mp4	0.0	174.767315864563	0.10001707077026367
7	17.565489053726196	fix_pre	0		139.0	5.0	2.5	/experiments/knapen_aot/videos/R_S_pexels-sora-shimazaki-5925295.mp4	0.0	174.86733293533325	1.158294916152954
7	18.715616941452026	response	0	2		5.0	2.5	/experiments/knapen_aot/videos/R_S_pexels-sora-shimazaki-5925295.mp4	0.0	176.01746082305908	
7	18.72378396987915	movie	1		162.0	5.0	2.5	/experiments/knapen_aot/videos/R_S_pexels-sora-shimazaki-5925295.mp4	0.0	176.0256278514862	2.508296012878418
7	21.23207998275757	fix_post	2		12.0	5.0	2.5	/experiments/knapen_aot/videos/R_S_pexels-sora-shimazaki-5925295.mp4	0.0	178.53392386436462	0.10003399848937988
8	21.33211398124695	fix_pre	0		40.0	6.0	2.5	/experiments/knapen_aot/videos/R_S_comp_C003_C003_PS_v01_SDR_PS_20180925_SDR_2K_AVC.mp4	0.0	178.633957862854	0.33393001556396484
8	21.649719953536987	response	0	2		6.0	2.5	/experiments/knapen_aot/videos/R_S_comp_C003_C003_PS_v01_SDR_PS_20180925_SDR_2K_AVC.mp4	0.0	178.95156383514404	
8	21.666043996810913	movie	1		164.0	6.0	2.5	/experiments/knapen_aot/videos/R_S_comp_C003_C003_PS_v01_SDR_PS_20180925_SDR_2K_AVC.mp4	0.0	178.96788787841797	2.5077240467071533
8	24.173768043518066	fix_post	2		12.0	6.0	2.5	/experiments/knapen_aot/videos/R_S_comp_C003_C003_PS_v01_SDR_PS_20180925_SDR_2K_AVC.mp4	0.0	181.47561192512512	0.09997797012329102
9	24.273746013641357	fix_pre	0		49.0	7.0	2.5	blank	1.0	181.5755898952484	0.4083688259124756
9	24.673928022384644	response	0	2		7.0	2.5	blank	1.0	181.9757719039917	
9	24.682114839553833	movie	1		301.0	7.0	2.5	blank	1.0	181.9839587211609	2.5082740783691406
9	27.190388917922974	fix_post	2		12.0	7.0	2.5	blank	1.0	184.49223279953003	0.10073709487915039
10	27.291126012802124	fix_pre	0		29.0	8.0	2.5	/experiments/knapen_aot/videos/S_yt-1XfKrSmjtl4_443.mp4	0.0	184.59296989440918	0.24091482162475586
10	27.523814916610718	response	0	2		8.0	2.5	/experiments/knapen_aot/videos/S_yt-1XfKrSmjtl4_443.mp4	0.0	184.82565879821777	
10	27.53204083442688	movie	1		301.0	8.0	2.5	/experiments/knapen_aot/videos/S_yt-1XfKrSmjtl4_443.mp4	0.0	184.83388471603394	2.508317232131958
10	30.040358066558838	fix_post	2		12.0	8.0	2.5	/experiments/knapen_aot/videos/S_yt-1XfKrSmjtl4_443.mp4	0.0	187.3422019481659	0.10001993179321289
11	30.14037799835205	fix_pre	0		82.0	9.0	2.5	/experiments/knapen_aot/videos/S_yt-gPhlnZG-pRY_4.mp4	0.0	187.4422218799591	0.6832809448242188
11	30.807982921600342	response	0	2		9.0	2.5	/experiments/knapen_aot/videos/S_yt-gPhlnZG-pRY_4.mp4	0.0	188.1098268032074	
11	30.82365894317627	movie	1		301.0	9.0	2.5	/experiments/knapen_aot/videos/S_yt-gPhlnZG-pRY_4.mp4	0.0	188.12550282478333	2.5083320140838623
11	33.33199095726013	fix_post	2		12.0	9.0	2.5	/experiments/knapen_aot/videos/S_yt-gPhlnZG-pRY_4.mp4	0.0	190.6338348388672	0.0999460220336914
12	33.43193697929382	fix_pre	0		55.0	10.0	2.5	/experiments/knapen_aot/videos/R_S_PA_A004_C003_SDR_20190719_SDR_2K_AVC.mp4	0.0	190.73378086090088	0.4583559036254883
12	33.8821918964386	response	0	4		10.0	2.5	/experiments/knapen_aot/videos/R_S_PA_A004_C003_SDR_20190719_SDR_2K_AVC.mp4	0.0	191.18403577804565	
12	33.89029288291931	movie	1		166.0	10.0	2.5	/experiments/knapen_aot/videos/R_S_PA_A004_C003_SDR_20190719_SDR_2K_AVC.mp4	0.0	191.19213676452637	2.5083560943603516
12	36.39864897727966	fix_post	2		12.0	10.0	2.5	/experiments/knapen_aot/videos/R_S_PA_A004_C003_SDR_20190719_SDR_2K_AVC.mp4	0.0	193.70049285888672	0.09999799728393555
13	36.4986469745636	fix_pre	0		38.0	11.0	2.5	/experiments/knapen_aot/videos/S_ILSVRC2015_train_00369000.mp4	0.0	193.80049085617065	0.3166930675506592
13	36.8071448802948	response	0	2		11.0	2.5	/experiments/knapen_aot/videos/S_ILSVRC2015_train_00369000.mp4	0.0	194.10898876190186	
13	36.81534004211426	movie	1		301.0	11.0	2.5	/experiments/knapen_aot/videos/S_ILSVRC2015_train_00369000.mp4	0.0	194.1171839237213	2.5083158016204834
13	39.32365584373474	fix_post	2		12.0	11.0	2.5	/experiments/knapen_aot/videos/S_ILSVRC2015_train_00369000.mp4	0.0	196.6254997253418	0.09992408752441406
14	39.423579931259155	fix_pre	0		23.0	12.0	2.5	/experiments/knapen_aot/videos/S_comp_GMT110_112NC_364D_1054_AURORA_ANTARTICA__COMP_FINAL_v34_PS_SDR_20181107_SDR_2K_AVC.mp4	0.0	196.7254238128662	0.19170403480529785
14	39.60705804824829	response	0	4		12.0	2.5	/experiments/knapen_aot/videos/S_comp_GMT110_112NC_364D_1054_AURORA_ANTARTICA__COMP_FINAL_v34_PS_SDR_20181107_SDR_2K_AVC.mp4	0.0	196.90890192985535	
14	39.61528396606445	movie	1		162.0	12.0	2.5	/experiments/knapen_aot/videos/S_comp_GMT110_112NC_364D_1054_AURORA_ANTARTICA__COMP_FINAL_v34_PS_SDR_20181107_SDR_2K_AVC.mp4	0.0	196.9171278476715	2.5082900524139404
14	42.123574018478394	fix_post	2		12.0	12.0	2.5	/experiments/knapen_aot/videos/S_comp_GMT110_112NC_364D_1054_AURORA_ANTARTICA__COMP_FINAL_v34_PS_SDR_20181107_SDR_2K_AVC.mp4	0.0	199.42541790008545	0.10011887550354004
15	42.223692893981934	fix_pre	0		78.0	13.0	2.5	/experiments/knapen_aot/videos/R_S_BO_A014_C008_SDR_20190719_SDR_2K_AVC.mp4	0.0	199.525536775589	0.6504230499267578
15	42.86553692817688	response	0	2		13.0	2.5	/experiments/knapen_aot/videos/R_S_BO_A014_C008_SDR_20190719_SDR_2K_AVC.mp4	0.0	200.16738080978394	
15	42.87411594390869	movie	1		167.0	13.0	2.5	/experiments/knapen_aot/videos/R_S_BO_A014_C008_SDR_20190719_SDR_2K_AVC.mp4	0.0	200.17595982551575	2.507849931716919
15	45.38196587562561	fix_post	2		12.0	13.0	2.5	/experiments/knapen_aot/videos/R_S_BO_A014_C008_SDR_20190719_SDR_2K_AVC.mp4	0.0	202.68380975723267	0.10001516342163086
16	45.48198103904724	fix_pre	0		17.0	14.0	2.5	blank	1.0	202.7838249206543	0.14221692085266113
16	45.61546206474304	response	0	2		14.0	2.5	blank	1.0	202.9173059463501	
16	45.6241979598999	movie	1		301.0	14.0	2.5	blank	1.0	202.92604184150696	2.507788896560669
16	48.13198685646057	fix_post	2		12.0	14.0	2.5	blank	1.0	205.43383073806763	0.09998703002929688
17	48.23197388648987	fix_pre	0		27.0	15.0	2.5	/experiments/knapen_aot/videos/R_S_yt-fjOsq03OC2c_188.mp4	0.0	205.53381776809692	0.22542715072631836
17	48.44867992401123	response	0	2		15.0	2.5	/experiments/knapen_aot/videos/R_S_yt-fjOsq03OC2c_188.mp4	0.0	205.7505238056183	
17	48.45740103721619	movie	1		301.0	15.0	2.5	/experiments/knapen_aot/videos/R_S_yt-fjOsq03OC2c_188.mp4	0.0	205.75924491882324	2.5078840255737305
17	50.96528506278992	fix_post	2		12.0	15.0	2.5	/experiments/knapen_aot/videos/R_S_yt-fjOsq03OC2c_188.mp4	0.0	208.26712894439697	0.0999748706817627
18	51.06525993347168	fix_pre	0		75.0	16.0	2.5	/experiments/knapen_aot/videos/S_video_inspire_oregon_portland_00064.1080-h264.mp4	0.0	208.36710381507874	0.6249499320983887
18	51.682116985321045	response	0	4		16.0	2.5	/experiments/knapen_aot/videos/S_video_inspire_oregon_portland_00064.1080-h264.mp4	0.0	208.9839608669281	
18	51.69020986557007	movie	1		164.0	16.0	2.5	/experiments/knapen_aot/videos/S_video_inspire_oregon_portland_00064.1080-h264.mp4	0.0	208.99205374717712	2.5083811283111572
18	54.198590993881226	fix_post	2		12.0	16.0	2.5	/experiments/knapen_aot/videos/S_video_inspire_oregon_portland_00064.1080-h264.mp4	0.0	211.50043487548828	0.10000896453857422
19	54.2985999584198	fix_pre	0		16.0	17.0	2.5	/experiments/knapen_aot/videos/R_S_yt-fnE8kgUHUMI_64.mp4	0.0	211.60044384002686	0.1333010196685791
19	54.42367696762085	response	0	2		17.0	2.5	/experiments/knapen_aot/videos/R_S_yt-fnE8kgUHUMI_64.mp4	0.0	211.7255208492279	
19	54.43190097808838	movie	1		301.0	17.0	2.5	/experiments/knapen_aot/videos/R_S_yt-fnE8kgUHUMI_64.mp4	0.0	211.73374485969543	2.508349895477295
19	56.940250873565674	fix_post	2		12.0	17.0	2.5	/experiments/knapen_aot/videos/R_S_yt-fnE8kgUHUMI_64.mp4	0.0	214.24209475517273	0.10050511360168457
20	57.04075598716736	fix_pre	0		51.0	18.0	2.5	/experiments/knapen_aot/videos/R_S_comp_A351_C001_v06_SDR_PS_20180725_SDR_2K_AVC.mp4	0.0	214.3425998687744	0.42444491386413574
20	57.457082986831665	response	0	2		18.0	2.5	/experiments/knapen_aot/videos/R_S_comp_A351_C001_v06_SDR_PS_20180725_SDR_2K_AVC.mp4	0.0	214.75892686843872	
20	57.465200901031494	movie	1		166.0	18.0	2.5	/experiments/knapen_aot/videos/R_S_comp_A351_C001_v06_SDR_PS_20180725_SDR_2K_AVC.mp4	0.0	214.76704478263855	2.508394956588745
20	59.97359585762024	fix_post	2		12.0	18.0	2.5	/experiments/knapen_aot/videos/R_S_comp_A351_C001_v06_SDR_PS_20180725_SDR_2K_AVC.mp4	0.0	217.2754397392273	0.10000419616699219
21	60.07360005378723	fix_pre	0		33.0	19.0	2.5	/experiments/knapen_aot/videos/R_S_-IkGMlLHrOI_108.mp4	0.0	217.3754439353943	0.2749760150909424
21	60.34036183357239	response	0	4		19.0	2.5	/experiments/knapen_aot/videos/R_S_-IkGMlLHrOI_108.mp4	0.0	217.64220571517944	
21	60.348576068878174	movie	1		301.0	19.0	2.5	/experiments/knapen_aot/videos/R_S_-IkGMlLHrOI_108.mp4	0.0	217.65041995048523	2.5083699226379395
21	62.85694599151611	fix_post	2		12.0	19.0	2.5	/experiments/knapen_aot/videos/R_S_-IkGMlLHrOI_108.mp4	0.0	220.15878987312317	0.1003868579864502
22	62.95733284950256	fix_pre	0		66.0	20.0	2.5	blank	1.0	220.25917673110962	0.5495190620422363
22	63.49873900413513	response	0	2		20.0	2.5	blank	1.0	220.8005828857422	
22	63.5068519115448	movie	1		301.0	20.0	2.5	blank	1.0	220.80869579315186	2.508376121520996
22	66.0152280330658	fix_post	2		12.0	20.0	2.5	blank	1.0	223.31707191467285	0.09993290901184082
23	66.11516094207764	fix_pre	0		42.0	21.0	2.5	/experiments/knapen_aot/videos/R_S_wc-auTIuWLTxxkn_5.mp4	0.0	223.4170048236847	0.3500211238861084
23	66.45700097084045	response	0	4		21.0	2.5	/experiments/knapen_aot/videos/R_S_wc-auTIuWLTxxkn_5.mp4	0.0	223.7588448524475	
23	66.46518206596375	movie	1		166.0	21.0	2.5	/experiments/knapen_aot/videos/R_S_wc-auTIuWLTxxkn_5.mp4	0.0	223.7670259475708	2.508410930633545
23	68.97359299659729	fix_post	2		12.0	21.0	2.5	/experiments/knapen_aot/videos/R_S_wc-auTIuWLTxxkn_5.mp4	0.0	226.27543687820435	0.09994888305664062
24	69.07354187965393	fix_pre	0		39.0	22.0	2.5	/experiments/knapen_aot/videos/R_S_yt-4Qz0m5IYh10_167.mp4	0.0	226.375385761261	0.32491111755371094
24	69.39032888412476	response	0	2		22.0	2.5	/experiments/knapen_aot/videos/R_S_yt-4Qz0m5IYh10_167.mp4	0.0	226.6921727657318	
24	69.39845299720764	movie	1		301.0	22.0	2.5	/experiments/knapen_aot/videos/R_S_yt-4Qz0m5IYh10_167.mp4	0.0	226.7002968788147	2.508305072784424
24	71.90675806999207	fix_post	2		12.0	22.0	2.5	/experiments/knapen_aot/videos/R_S_yt-4Qz0m5IYh10_167.mp4	0.0	229.20860195159912	0.10008978843688965
25	72.00684785842896	fix_pre	0		67.0	23.0	2.5	/experiments/knapen_aot/videos/R_S_bing-www_msn_com_en-us_video_news_tommy-lasorda-salutes-national-league-champs_vp-AAtLThQ_4.mp4	0.0	229.308691740036	0.5582389831542969
25	72.55697202682495	response	0	2		23.0	2.5	/experiments/knapen_aot/videos/R_S_bing-www_msn_com_en-us_video_news_tommy-lasorda-salutes-national-league-champs_vp-AAtLThQ_4.mp4	0.0	229.858815908432	
25	72.56508684158325	movie	1		165.0	23.0	2.5	/experiments/knapen_aot/videos/R_S_bing-www_msn_com_en-us_video_news_tommy-lasorda-salutes-national-league-champs_vp-AAtLThQ_4.mp4	0.0	229.8669307231903	2.5083861351013184
25	75.07347297668457	fix_post	2		12.0	23.0	2.5	/experiments/knapen_aot/videos/R_S_bing-www_msn_com_en-us_video_news_tommy-lasorda-salutes-national-league-champs_vp-AAtLThQ_4.mp4	0.0	232.37531685829163	0.10003089904785156
26	75.17350387573242	fix_pre	0		84.0	24.0	2.5	/experiments/knapen_aot/videos/S_yt-FR_Y1Mm8BwQ_53.mp4	0.0	232.47534775733948	0.7003190517425537
26	75.86525988578796	response	0	4		24.0	2.5	/experiments/knapen_aot/videos/S_yt-FR_Y1Mm8BwQ_53.mp4	0.0	233.16710376739502	
26	75.87382292747498	movie	1		301.0	24.0	2.5	/experiments/knapen_aot/videos/S_yt-FR_Y1Mm8BwQ_53.mp4	0.0	233.17566680908203	2.5080270767211914
26	78.38185000419617	fix_post	2		12.0	24.0	2.5	/experiments/knapen_aot/videos/S_yt-FR_Y1Mm8BwQ_53.mp4	0.0	235.68369388580322	0.10001301765441895
27	78.48186302185059	fix_pre	0		52.0	25.0	2.5	/experiments/knapen_aot/videos/R_S_yt-JTBXPfbkjsA_11.mp4	0.0	235.78370690345764	0.43358397483825684
27	78.90689706802368	response	0	2		25.0	2.5	/experiments/knapen_aot/videos/R_S_yt-JTBXPfbkjsA_11.mp4	0.0	236.20874094963074	
27	78.91544699668884	movie	1		301.0	25.0	2.5	/experiments/knapen_aot/videos/R_S_yt-JTBXPfbkjsA_11.mp4	0.0	236.2172908782959	2.5080490112304688
27	81.42349600791931	fix_post	2		12.0	25.0	2.5	/experiments/knapen_aot/videos/R_S_yt-JTBXPfbkjsA_11.mp4	0.0	238.72533988952637	0.10003185272216797
28	81.52352786064148	fix_pre	0		24.0	26.0	2.5	blank	1.0	238.82537174224854	0.19994211196899414
28	81.71528387069702	response	0	4		26.0	2.5	blank	1.0	239.01712775230408	
28	81.72346997261047	movie	1		301.0	26.0	2.5	blank	1.0	239.02531385421753	2.5084240436553955
28	84.23189401626587	fix_post	2		12.0	26.0	2.5	blank	1.0	241.53373789787292	0.10026192665100098
29	84.33215594291687	fix_pre	0		22.0	27.0	2.5	/experiments/knapen_aot/videos/S_FK_U009_C004_SDR_20191220_SDR_2K_AVC.mp4	0.0	241.63399982452393	0.18303990364074707
29	84.50689792633057	response	0	2		27.0	2.5	/experiments/knapen_aot/videos/S_FK_U009_C004_SDR_20191220_SDR_2K_AVC.mp4	0.0	241.80874180793762	
29	84.51519584655762	movie	1		162.0	27.0	2.5	/experiments/knapen_aot/videos/S_FK_U009_C004_SDR_20191220_SDR_2K_AVC.mp4	0.0	241.81703972816467	2.5083370208740234
29	87.02353286743164	fix_post	2		12.0	27.0	2.5	/experiments/knapen_aot/videos/S_FK_U009_C004_SDR_20191220_SDR_2K_AVC.mp4	0.0	244.3253767490387	0.10028505325317383
30	87.12381792068481	fix_pre	0		31.0	28.0	2.5	/experiments/knapen_aot/videos/S_yt-gPhlnZG-pRY_4.mp4	0.0	244.42566180229187	0.2579779624938965
30	87.37359499931335	response	0	4		28.0	2.5	/experiments/knapen_aot/videos/S_yt-gPhlnZG-pRY_4.mp4	0.0	244.6754388809204	
30	87.38179588317871	movie	1		301.0	28.0	2.5	/experiments/knapen_aot/videos/S_yt-gPhlnZG-pRY_4.mp4	0.0	244.68363976478577	2.508355140686035
30	89.89015102386475	fix_post	2		12.0	28.0	2.5	/experiments/knapen_aot/videos/S_yt-gPhlnZG-pRY_4.mp4	0.0	247.1919949054718	0.09995603561401367
31	89.99010705947876	fix_pre	0		91.0	29.0	2.5	/experiments/knapen_aot/videos/R_S_ILSVRC2015_train_00369000.mp4	0.0	247.29195094108582	0.7585599422454834
31	90.74024796485901	response	0	2		29.0	2.5	/experiments/knapen_aot/videos/R_S_ILSVRC2015_train_00369000.mp4	0.0	248.04209184646606	
31	90.74866700172424	movie	1		301.0	29.0	2.5	/experiments/knapen_aot/videos/R_S_ILSVRC2015_train_00369000.mp4	0.0	248.0505108833313	2.508172035217285
31	93.25683903694153	fix_post	2		12.0	29.0	2.5	/experiments/knapen_aot/videos/R_S_ILSVRC2015_train_00369000.mp4	0.0	250.55868291854858	0.09991788864135742
32	93.35675692558289	fix_pre	0		25.0	30.0	2.5	/experiments/knapen_aot/videos/S_yt-2IfvnrF3IV0_241.mp4	0.0	250.65860080718994	0.20831608772277832
32	93.5569109916687	response	0	2		30.0	2.5	/experiments/knapen_aot/videos/S_yt-2IfvnrF3IV0_241.mp4	0.0	250.85875487327576	
32	93.56507301330566	movie	1		299.0	30.0	2.5	/experiments/knapen_aot/videos/S_yt-2IfvnrF3IV0_241.mp4	0.0	250.86691689491272	2.5083889961242676
32	96.07346200942993	fix_post	2		12.0	30.0	2.5	/experiments/knapen_aot/videos/S_yt-2IfvnrF3IV0_241.mp4	0.0	253.375305891037	0.10002684593200684
33	96.17348885536194	fix_pre	0		18.0	31.0	2.5	/experiments/knapen_aot/videos/S_yt-thmqgEV-sYY_91.mp4	0.0	253.475332736969	0.14985418319702148
33	96.31522703170776	response	0	4		31.0	2.5	/experiments/knapen_aot/videos/S_yt-thmqgEV-sYY_91.mp4	0.0	253.61707091331482	
33	96.32334303855896	movie	1		301.0	31.0	2.5	/experiments/knapen_aot/videos/S_yt-thmqgEV-sYY_91.mp4	0.0	253.62518692016602	2.508389949798584
33	98.83173298835754	fix_post	2		12.0	31.0	2.5	/experiments/knapen_aot/videos/S_yt-thmqgEV-sYY_91.mp4	0.0	256.1335768699646	0.10001492500305176
34	98.9317479133606	fix_pre	0		11.0	32.0	2.5	/experiments/knapen_aot/videos/S_yt-i-1Gou9SA5U_3.mp4	0.0	256.23359179496765	0.0916299819946289
34	99.01519393920898	response	0	2		32.0	2.5	/experiments/knapen_aot/videos/S_yt-i-1Gou9SA5U_3.mp4	0.0	256.31703782081604	
34	99.02337789535522	movie	1		301.0	32.0	2.5	/experiments/knapen_aot/videos/S_yt-i-1Gou9SA5U_3.mp4	0.0	256.3252217769623	2.5083441734313965
34	101.53172206878662	fix_post	2		12.0	32.0	2.5	/experiments/knapen_aot/videos/S_yt-i-1Gou9SA5U_3.mp4	0.0	258.8335659503937	0.09996199607849121
35	101.63168406486511	fix_pre	0		8.0	33.0	2.5	blank	1.0	258.93352794647217	0.06682491302490234
35	101.6902220249176	response	0	2		33.0	2.5	blank	1.0	258.99206590652466	
35	101.69850897789001	movie	1		301.0	33.0	2.5	blank	1.0	259.00035285949707	2.508193016052246
35	104.20670199394226	fix_post	2		12.0	33.0	2.5	blank	1.0	261.5085458755493	0.09996891021728516
36	104.30667090415955	fix_pre	0		26.0	34.0	2.5	/experiments/knapen_aot/videos/R_S_ILSVRC2015_train_00414000.mp4	0.0	261.6085147857666	0.21665716171264648
36	104.5151469707489	response	0	2		34.0	2.5	/experiments/knapen_aot/videos/R_S_ILSVRC2015_train_00414000.mp4	0.0	261.81699085235596	
36	104.52332806587219	movie	1		301.0	34.0	2.5	/experiments/knapen_aot/videos/R_S_ILSVRC2015_train_00414000.mp4	0.0	261.82517194747925	2.5083677768707275
36	107.03169584274292	fix_post	2		12.0	34.0	2.5	/experiments/knapen_aot/videos/R_S_ILSVRC2015_train_00414000.mp4	0.0	264.33353972435	0.09995007514953613
37	107.13164591789246	fix_pre	0		17.0	35.0	2.5	/experiments/knapen_aot/videos/R_S_yt-VJ65ukWmdxQ_193.mp4	0.0	264.4334897994995	0.14172911643981934
37	107.26512002944946	response	0	2		35.0	2.5	/experiments/knapen_aot/videos/R_S_yt-VJ65ukWmdxQ_193.mp4	0.0	264.5669639110565	
37	107.27337503433228	movie	1		301.0	35.0	2.5	/experiments/knapen_aot/videos/R_S_yt-VJ65ukWmdxQ_193.mp4	0.0	264.57521891593933	2.5082919597625732
37	109.78166699409485	fix_post	2		12.0	35.0	2.5	/experiments/knapen_aot/videos/R_S_yt-VJ65ukWmdxQ_193.mp4	0.0	267.0835108757019	0.10002899169921875
38	109.88169598579407	fix_pre	0		17.0	36.0	2.5	/experiments/knapen_aot/videos/S_yt-ObT9gF8E_tU_250.mp4	0.0	267.1835398674011	0.1416928768157959
38	110.01517486572266	response	0	2		36.0	2.5	/experiments/knapen_aot/videos/S_yt-ObT9gF8E_tU_250.mp4	0.0	267.3170187473297	
38	110.02338886260986	movie	1		301.0	36.0	2.5	/experiments/knapen_aot/videos/S_yt-ObT9gF8E_tU_250.mp4	0.0	267.3252327442169	2.5082530975341797
38	112.53164196014404	fix_post	2		12.0	36.0	2.5	/experiments/knapen_aot/videos/S_yt-ObT9gF8E_tU_250.mp4	0.0	269.8334858417511	0.09999895095825195
39	112.6316409111023	fix_pre	0		9.0	37.0	2.5	/experiments/knapen_aot/videos/R_S_yt-JH6qCYAnX-I_70.mp4	0.0	269.93348479270935	0.07566404342651367
39	112.69875693321228	response	0	2		37.0	2.5	/experiments/knapen_aot/videos/R_S_yt-JH6qCYAnX-I_70.mp4	0.0	270.00060081481934	
39	112.70730495452881	movie	1		301.0	37.0	2.5	/experiments/knapen_aot/videos/R_S_yt-JH6qCYAnX-I_70.mp4	0.0	270.00914883613586	2.507728099822998
39	115.2150330543518	fix_post	2		12.0	37.0	2.5	/experiments/knapen_aot/videos/R_S_yt-JH6qCYAnX-I_70.mp4	0.0	272.51687693595886	0.09997200965881348
40	115.31500506401062	fix_pre	0		41.0	38.0	2.5	/experiments/knapen_aot/videos/S_yt-c5_SFS4aaJI_1102.mp4	0.0	272.6168489456177	0.3416318893432617
40	115.64843893051147	response	0	2		38.0	2.5	/experiments/knapen_aot/videos/S_yt-c5_SFS4aaJI_1102.mp4	0.0	272.95028281211853	
40	115.65663695335388	movie	1		301.0	38.0	2.5	/experiments/knapen_aot/videos/S_yt-c5_SFS4aaJI_1102.mp4	0.0	272.95848083496094	2.508441925048828
40	118.16507887840271	fix_post	2		12.0	38.0	2.5	/experiments/knapen_aot/videos/S_yt-c5_SFS4aaJI_1102.mp4	0.0	275.46692276000977	0.09990715980529785
41	118.26498603820801	fix_pre	0		16.0	39.0	2.5	/experiments/knapen_aot/videos/S_yt-tMP5WhHMtWE_55.mp4	0.0	275.56682991981506	0.13330602645874023
41	118.39012098312378	response	0	2		39.0	2.5	/experiments/knapen_aot/videos/S_yt-tMP5WhHMtWE_55.mp4	0.0	275.69196486473083	
41	118.39829206466675	movie	1		301.0	39.0	2.5	/experiments/knapen_aot/videos/S_yt-tMP5WhHMtWE_55.mp4	0.0	275.7001359462738	2.5083858966827393
41	120.90667796134949	fix_post	2		12.0	39.0	2.5	/experiments/knapen_aot/videos/S_yt-tMP5WhHMtWE_55.mp4	0.0	278.20852184295654	0.09993600845336914
42	121.00661396980286	fix_pre	0		89.0	40.0	2.5	blank	1.0	278.3084578514099	0.7418270111083984
42	121.74015688896179	response	0	2		40.0	2.5	blank	1.0	279.04200077056885	
42	121.74844098091125	movie	1		301.0	40.0	2.5	blank	1.0	279.0502848625183	2.5081799030303955
42	124.25662088394165	fix_post	2		12.0	40.0	2.5	blank	1.0	281.5584647655487	0.10000896453857422
43	124.35662984848022	fix_pre	0		39.0	41.0	2.5	/experiments/knapen_aot/videos/R_S_yt-ObT9gF8E_tU_250.mp4	0.0	281.6584737300873	0.32497119903564453
43	124.67341899871826	response	0	2		41.0	2.5	/experiments/knapen_aot/videos/R_S_yt-ObT9gF8E_tU_250.mp4	0.0	281.9752628803253	
43	124.68160104751587	movie	1		298.0	41.0	2.5	/experiments/knapen_aot/videos/R_S_yt-ObT9gF8E_tU_250.mp4	0.0	281.9834449291229	2.5083467960357666
43	127.18994784355164	fix_post	2		12.0	41.0	2.5	/experiments/knapen_aot/videos/R_S_yt-ObT9gF8E_tU_250.mp4	0.0	284.4917917251587	0.10007309913635254
44	127.29002094268799	fix_pre	0		16.0	42.0	2.5	/experiments/knapen_aot/videos/S_comp_LW_L001_C006_PSNK_DENOISE_v02_SDR_PS_FINAL_20180709_SDR_2K_AVC.mp4	0.0	284.59186482429504	0.1332690715789795
44	127.41511583328247	response	0	2		42.0	2.5	/experiments/knapen_aot/videos/S_comp_LW_L001_C006_PSNK_DENOISE_v02_SDR_PS_FINAL_20180709_SDR_2K_AVC.mp4	0.0	284.7169597148895	
44	127.42329001426697	movie	1		165.0	42.0	2.5	/experiments/knapen_aot/videos/S_comp_LW_L001_C006_PSNK_DENOISE_v02_SDR_PS_FINAL_20180709_SDR_2K_AVC.mp4	0.0	284.725133895874	2.5083048343658447
44	129.9315948486328	fix_post	2		12.0	42.0	2.5	/experiments/knapen_aot/videos/S_comp_LW_L001_C006_PSNK_DENOISE_v02_SDR_PS_FINAL_20180709_SDR_2K_AVC.mp4	0.0	287.23343873023987	0.09997200965881348
45	130.03156685829163	fix_pre	0		28.0	43.0	2.5	/experiments/knapen_aot/videos/R_S_production_ID_4101244.mp4	0.0	287.3334107398987	0.2333540916442871
45	130.2567059993744	response	0	2		43.0	2.5	/experiments/knapen_aot/videos/R_S_production_ID_4101244.mp4	0.0	287.55854988098145	
45	130.2649209499359	movie	1		199.0	43.0	2.5	/experiments/knapen_aot/videos/R_S_production_ID_4101244.mp4	0.0	287.56676483154297	2.508362054824829
45	132.77328300476074	fix_post	2		12.0	43.0	2.5	/experiments/knapen_aot/videos/R_S_production_ID_4101244.mp4	0.0	290.0751268863678	0.10007596015930176
46	132.87335896492004	fix_pre	0		23.0	44.0	2.5	/experiments/knapen_aot/videos/S_g201_AK_A003_C014_SDR_20191113_SDR_2K_AVC.mp4	0.0	290.1752028465271	0.19154906272888184
46	133.0567328929901	response	0	2		44.0	2.5	/experiments/knapen_aot/videos/S_g201_AK_A003_C014_SDR_20191113_SDR_2K_AVC.mp4	0.0	290.35857677459717	
46	133.06490802764893	movie	1		165.0	44.0	2.5	/experiments/knapen_aot/videos/S_g201_AK_A003_C014_SDR_20191113_SDR_2K_AVC.mp4	0.0	290.366751909256	2.508409023284912
46	135.57331705093384	fix_post	2		12.0	44.0	2.5	/experiments/knapen_aot/videos/S_g201_AK_A003_C014_SDR_20191113_SDR_2K_AVC.mp4	0.0	292.8751609325409	0.09990501403808594
47	135.67322206497192	fix_pre	0		51.0	45.0	2.5	/experiments/knapen_aot/videos/R_S_comp_GMT026_363A_103NC_E1027_KOREA_JAPAN_NIGHT_v18_SDR_PS_20180907_SDR_2K_AVC.mp4	0.0	292.975065946579	0.4249839782714844
47	136.09007096290588	response	0	2		45.0	2.5	/experiments/knapen_aot/videos/R_S_comp_GMT026_363A_103NC_E1027_KOREA_JAPAN_NIGHT_v18_SDR_PS_20180907_SDR_2K_AVC.mp4	0.0	293.39191484451294	
47	136.0982060432434	movie	1		169.0	45.0	2.5	/experiments/knapen_aot/videos/R_S_comp_GMT026_363A_103NC_E1027_KOREA_JAPAN_NIGHT_v18_SDR_PS_20180907_SDR_2K_AVC.mp4	0.0	293.40004992485046	2.5083868503570557
47	138.60659289360046	fix_post	2		12.0	45.0	2.5	/experiments/knapen_aot/videos/R_S_comp_GMT026_363A_103NC_E1027_KOREA_JAPAN_NIGHT_v18_SDR_PS_20180907_SDR_2K_AVC.mp4	0.0	295.9084367752075	0.10006999969482422
48	138.7066628932953	fix_pre	0		17.0	46.0	2.5	/experiments/knapen_aot/videos/S_yt-J2PiBa1MXI0_210.mp4	0.0	296.00850677490234	0.14161300659179688
48	138.84003901481628	response	0	2		46.0	2.5	/experiments/knapen_aot/videos/S_yt-J2PiBa1MXI0_210.mp4	0.0	296.14188289642334	
48	138.84827589988708	movie	1		300.0	46.0	2.5	/experiments/knapen_aot/videos/S_yt-J2PiBa1MXI0_210.mp4	0.0	296.15011978149414	2.5082881450653076
48	141.3565640449524	fix_post	2		12.0	46.0	2.5	/experiments/knapen_aot/videos/S_yt-J2PiBa1MXI0_210.mp4	0.0	298.65840792655945	0.10001802444458008
49	141.45658206939697	fix_pre	0		92.0	47.0	2.5	/experiments/knapen_aot/videos/S_pexels-koolshooters-7327412_1.mp4	0.0	298.758425951004	0.7666587829589844
49	142.21496987342834	response	0	2		47.0	2.5	/experiments/knapen_aot/videos/S_pexels-koolshooters-7327412_1.mp4	0.0	299.5168137550354	
49	142.22324085235596	movie	1		164.0	47.0	2.5	/experiments/knapen_aot/videos/S_pexels-koolshooters-7327412_1.mp4	0.0	299.525084733963	2.5082950592041016
49	144.73153591156006	fix_post	2		12.0	47.0	2.5	/experiments/knapen_aot/videos/S_pexels-koolshooters-7327412_1.mp4	0.0	302.0333797931671	0.10009193420410156
50	144.83162784576416	fix_pre	0		78.0	48.0	2.5	blank	1.0	302.1334717273712	0.6499390602111816
50	145.47340202331543	response	0	2		48.0	2.5	blank	1.0	302.7752459049225	
50	145.48156690597534	movie	1		301.0	48.0	2.5	blank	1.0	302.7834107875824	2.508329153060913
50	147.98989605903625	fix_post	2		12.0	48.0	2.5	blank	1.0	305.2917399406433	0.10000181198120117
51	148.08989787101746	fix_pre	0		76.0	49.0	2.5	/experiments/knapen_aot/videos/R_S_yt-eLQydFSMGCU_75.mp4	0.0	305.3917417526245	0.6333479881286621
51	148.71504092216492	response	0	2		49.0	2.5	/experiments/knapen_aot/videos/R_S_yt-eLQydFSMGCU_75.mp4	0.0	306.016884803772	
51	148.72324585914612	movie	1		301.0	49.0	2.5	/experiments/knapen_aot/videos/R_S_yt-eLQydFSMGCU_75.mp4	0.0	306.0250897407532	2.5083701610565186
51	151.23161602020264	fix_post	2		12.0	49.0	2.5	/experiments/knapen_aot/videos/R_S_yt-eLQydFSMGCU_75.mp4	0.0	308.5334599018097	0.09998083114624023
52	151.33159685134888	fix_pre	0		19.0	50.0	2.5	/experiments/knapen_aot/videos/S_comp_HK_H004_C008_PSNK_v19_SDR_PS_20180914_SDR_2K_AVC.mp4	0.0	308.63344073295593	0.15965509414672852
52	151.48169898986816	response	0	2		50.0	2.5	/experiments/knapen_aot/videos/S_comp_HK_H004_C008_PSNK_v19_SDR_PS_20180914_SDR_2K_AVC.mp4	0.0	308.7835428714752	
52	151.4912519454956	movie	1		167.0	50.0	2.5	/experiments/knapen_aot/videos/S_comp_HK_H004_C008_PSNK_v19_SDR_PS_20180914_SDR_2K_AVC.mp4	0.0	308.79309582710266	2.506999969482422
52	153.99825191497803	fix_post	2		12.0	50.0	2.5	/experiments/knapen_aot/videos/S_comp_HK_H004_C008_PSNK_v19_SDR_PS_20180914_SDR_2K_AVC.mp4	0.0	311.3000957965851	0.0999600887298584
53	154.09821200370789	fix_pre	0		15.0	51.0	2.5	/experiments/knapen_aot/videos/R_S_yt-UPgF4YAHBQY_33.mp4	0.0	311.40005588531494	0.12495183944702148
53	154.21502089500427	response	0	2		51.0	2.5	/experiments/knapen_aot/videos/R_S_yt-UPgF4YAHBQY_33.mp4	0.0	311.5168647766113	
53	154.2231638431549	movie	1		301.0	51.0	2.5	/experiments/knapen_aot/videos/R_S_yt-UPgF4YAHBQY_33.mp4	0.0	311.52500772476196	2.5083420276641846
53	156.7315058708191	fix_post	2		12.0	51.0	2.5	/experiments/knapen_aot/videos/R_S_yt-UPgF4YAHBQY_33.mp4	0.0	314.03334975242615	0.1000521183013916
54	156.83155798912048	fix_pre	0		17.0	52.0	2.5	/experiments/knapen_aot/videos/S_yt-9CY7rDYBYUI_40.mp4	0.0	314.13340187072754	0.14157700538635254
54	156.96499300003052	response	0	2		52.0	2.5	/experiments/knapen_aot/videos/S_yt-9CY7rDYBYUI_40.mp4	0.0	314.2668368816376	
54	156.97313499450684	movie	1		301.0	52.0	2.5	/experiments/knapen_aot/videos/S_yt-9CY7rDYBYUI_40.mp4	0.0	314.2749788761139	2.508357048034668
54	159.4814920425415	fix_post	2		12.0	52.0	2.5	/experiments/knapen_aot/videos/S_yt-9CY7rDYBYUI_40.mp4	0.0	316.78333592414856	0.1000518798828125
55	159.58154392242432	fix_pre	0		21.0	53.0	2.5	/experiments/knapen_aot/videos/R_S_pexels-koolshooters-7689098.mp4	0.0	316.8833878040314	0.17492914199829102
55	159.74838089942932	response	0	2		53.0	2.5	/experiments/knapen_aot/videos/R_S_pexels-koolshooters-7689098.mp4	0.0	317.0502247810364	
55	159.7564730644226	movie	1		164.0	53.0	2.5	/experiments/knapen_aot/videos/R_S_pexels-koolshooters-7689098.mp4	0.0	317.05831694602966	2.5082859992980957
55	162.2647590637207	fix_post	2		12.0	53.0	2.5	/experiments/knapen_aot/videos/R_S_pexels-koolshooters-7689098.mp4	0.0	319.56660294532776	0.10000085830688477
56	162.3647599220276	fix_pre	0		30.0	54.0	2.5	/experiments/knapen_aot/videos/R_S_bing-www_msn_com_en-us_video_news_tommy-lasorda-salutes-national-league-champs_vp-AAtLThQ_4.mp4	0.0	319.66660380363464	0.25017404556274414
56	162.5990788936615	response	0	2		54.0	2.5	/experiments/knapen_aot/videos/R_S_bing-www_msn_com_en-us_video_news_tommy-lasorda-salutes-national-league-champs_vp-AAtLThQ_4.mp4	0.0	319.90092277526855	
56	162.61493396759033	movie	1		162.0	54.0	2.5	/experiments/knapen_aot/videos/R_S_bing-www_msn_com_en-us_video_news_tommy-lasorda-salutes-national-league-champs_vp-AAtLThQ_4.mp4	0.0	319.9167778491974	2.5082199573516846
56	165.12315392494202	fix_post	2		12.0	54.0	2.5	/experiments/knapen_aot/videos/R_S_bing-www_msn_com_en-us_video_news_tommy-lasorda-salutes-national-league-champs_vp-AAtLThQ_4.mp4	0.0	322.4249978065491	0.09998393058776855
57	165.22313785552979	fix_pre	0		21.0	55.0	2.5	blank	1.0	322.52498173713684	0.17498207092285156
57	165.38988590240479	response	0	2		55.0	2.5	blank	1.0	322.69172978401184	
57	165.39811992645264	movie	1		301.0	55.0	2.5	blank	1.0	322.6999638080597	2.5083260536193848
57	167.90644598007202	fix_post	2		12.0	55.0	2.5	blank	1.0	325.2082898616791	0.10003399848937988
58	168.0064799785614	fix_pre	0		25.0	56.0	2.5	/experiments/knapen_aot/videos/R_S_pexels-tima-miroshnichenko-8724308.mp4	0.0	325.30832386016846	0.2082068920135498
58	168.20659589767456	response	0	2		56.0	2.5	/experiments/knapen_aot/videos/R_S_pexels-tima-miroshnichenko-8724308.mp4	0.0	325.5084397792816	
58	168.21468687057495	movie	1		200.0	56.0	2.5	/experiments/knapen_aot/videos/R_S_pexels-tima-miroshnichenko-8724308.mp4	0.0	325.516530752182	2.508540153503418
58	170.72322702407837	fix_post	2		12.0	56.0	2.5	/experiments/knapen_aot/videos/R_S_pexels-tima-miroshnichenko-8724308.mp4	0.0	328.0250709056854	0.09985995292663574
59	170.823086977005	fix_pre	0		18.0	57.0	2.5	/experiments/knapen_aot/videos/R_S_ILSVRC2015_train_00369000.mp4	0.0	328.12493085861206	0.1499950885772705
59	170.96481585502625	response	0	2		57.0	2.5	/experiments/knapen_aot/videos/R_S_ILSVRC2015_train_00369000.mp4	0.0	328.2666597366333	
59	170.97308206558228	movie	1		301.0	57.0	2.5	/experiments/knapen_aot/videos/R_S_ILSVRC2015_train_00369000.mp4	0.0	328.27492594718933	2.508356809616089
59	173.48143887519836	fix_post	2		12.0	57.0	2.5	/experiments/knapen_aot/videos/R_S_ILSVRC2015_train_00369000.mp4	0.0	330.7832827568054	0.09997105598449707
60	173.58140993118286	fix_pre	0		20.0	58.0	2.5	/experiments/knapen_aot/videos/R_S_comp_LW_L001_C006_PSNK_DENOISE_v02_SDR_PS_FINAL_20180709_SDR_2K_AVC.mp4	0.0	330.8832538127899	0.16667795181274414
60	173.73992490768433	response	0	2		58.0	2.5	/experiments/knapen_aot/videos/R_S_comp_LW_L001_C006_PSNK_DENOISE_v02_SDR_PS_FINAL_20180709_SDR_2K_AVC.mp4	0.0	331.0417687892914	
60	173.7480878829956	movie	1		167.0	58.0	2.5	/experiments/knapen_aot/videos/R_S_comp_LW_L001_C006_PSNK_DENOISE_v02_SDR_PS_FINAL_20180709_SDR_2K_AVC.mp4	0.0	331.04993176460266	2.508342981338501
60	176.2564308643341	fix_post	2		12.0	58.0	2.5	/experiments/knapen_aot/videos/R_S_comp_LW_L001_C006_PSNK_DENOISE_v02_SDR_PS_FINAL_20180709_SDR_2K_AVC.mp4	0.0	333.55827474594116	0.09989309310913086
61	176.35632395744324	fix_pre	0		19.0	59.0	2.5	/experiments/knapen_aot/videos/S_comp_GMT026_363A_103NC_E1027_KOREA_JAPAN_NIGHT_v18_SDR_PS_20180907_SDR_2K_AVC.mp4	0.0	333.6581678390503	0.15839099884033203
61	176.50652384757996	response	0	2		59.0	2.5	/experiments/knapen_aot/videos/S_comp_GMT026_363A_103NC_E1027_KOREA_JAPAN_NIGHT_v18_SDR_PS_20180907_SDR_2K_AVC.mp4	0.0	333.808367729187	
61	176.51471495628357	movie	1		194.0	59.0	2.5	/experiments/knapen_aot/videos/S_comp_GMT026_363A_103NC_E1027_KOREA_JAPAN_NIGHT_v18_SDR_PS_20180907_SDR_2K_AVC.mp4	0.0	333.8165588378906	2.508357048034668
61	179.02307200431824	fix_post	2		12.0	59.0	2.5	/experiments/knapen_aot/videos/S_comp_GMT026_363A_103NC_E1027_KOREA_JAPAN_NIGHT_v18_SDR_PS_20180907_SDR_2K_AVC.mp4	0.0	336.3249158859253	0.0999610424041748
62	179.1230330467224	fix_pre	0		12.0	60.0	2.5	/experiments/knapen_aot/videos/S_yt-9aKqMX9IHPg_242.mp4	0.0	336.42487692832947	0.10000181198120117
62	179.21476984024048	response	0	2		60.0	2.5	/experiments/knapen_aot/videos/S_yt-9aKqMX9IHPg_242.mp4	0.0	336.51661372184753	
62	179.2230348587036	movie	1		301.0	60.0	2.5	/experiments/knapen_aot/videos/S_yt-9aKqMX9IHPg_242.mp4	0.0	336.52487874031067	2.5083630084991455
62	181.73139786720276	fix_post	2		12.0	60.0	2.5	/experiments/knapen_aot/videos/S_yt-9aKqMX9IHPg_242.mp4	0.0	339.0332417488098	0.09996914863586426
63	181.83136701583862	fix_pre	0		31.0	61.0	2.5	blank	1.0	339.1332108974457	0.2583439350128174
63	182.08155989646912	response	0	2		61.0	2.5	blank	1.0	339.3834037780762	
63	182.08971095085144	movie	1		301.0	61.0	2.5	blank	1.0	339.3915548324585	2.5082991123199463
63	184.5980100631714	fix_post	2		12.0	61.0	2.5	blank	1.0	341.89985394477844	0.1000509262084961
64	184.69806098937988	fix_pre	0		19.0	62.0	2.5	/experiments/knapen_aot/videos/S_yt-etF_WUW5D68_3.mp4	0.0	341.99990487098694	0.15828895568847656
64	184.84813404083252	response	0	2		62.0	2.5	/experiments/knapen_aot/videos/S_yt-etF_WUW5D68_3.mp4	0.0	342.1499779224396	
64	184.85634994506836	movie	1		301.0	62.0	2.5	/experiments/knapen_aot/videos/S_yt-etF_WUW5D68_3.mp4	0.0	342.1581938266754	2.508255958557129
64	187.3646059036255	fix_post	2		12.0	62.0	2.5	/experiments/knapen_aot/videos/S_yt-etF_WUW5D68_3.mp4	0.0	344.66644978523254	0.10003209114074707
65	187.46463799476624	fix_pre	0		13.0	63.0	2.5	/experiments/knapen_aot/videos/R_S_yt-11VGDAOVEag_8.mp4	0.0	344.7664818763733	0.1083979606628418
65	187.5574369430542	response	0	2		63.0	2.5	/experiments/knapen_aot/videos/R_S_yt-11VGDAOVEag_8.mp4	0.0	344.85928082466125	
65	187.57303595542908	movie	1		301.0	63.0	2.5	/experiments/knapen_aot/videos/R_S_yt-11VGDAOVEag_8.mp4	0.0	344.87487983703613	2.508366107940674
65	190.08140206336975	fix_post	2		12.0	63.0	2.5	/experiments/knapen_aot/videos/R_S_yt-11VGDAOVEag_8.mp4	0.0	347.3832459449768	0.09996485710144043
66	190.1813669204712	fix_pre	0		14.0	64.0	2.5	/experiments/knapen_aot/videos/S_wc-PqINyFk_ku4u_18.mp4	0.0	347.48321080207825	0.12499403953552246
66	190.29072904586792	response	0	2		64.0	2.5	/experiments/knapen_aot/videos/S_wc-PqINyFk_ku4u_18.mp4	0.0	347.592572927475	
66	190.3063609600067	movie	1		165.0	64.0	2.5	/experiments/knapen_aot/videos/S_wc-PqINyFk_ku4u_18.mp4	0.0	347.60820484161377	2.5083260536193848
66	192.8146870136261	fix_post	2		12.0	64.0	2.5	/experiments/knapen_aot/videos/S_wc-PqINyFk_ku4u_18.mp4	0.0	350.11653089523315	0.1000208854675293
67	192.91470789909363	fix_pre	0		70.0	65.0	2.5	/experiments/knapen_aot/videos/S_video_inspire_sanfrancisco_castro_005.1080-h264.mp4	0.0	350.2165517807007	0.5833630561828613
67	193.49100303649902	response	0	2		65.0	2.5	/experiments/knapen_aot/videos/S_video_inspire_sanfrancisco_castro_005.1080-h264.mp4	0.0	350.7928469181061	
67	193.4980709552765	movie	1		169.0	65.0	2.5	/experiments/knapen_aot/videos/S_video_inspire_sanfrancisco_castro_005.1080-h264.mp4	0.0	350.79991483688354	2.5083370208740234
67	196.0064079761505	fix_post	2		12.0	65.0	2.5	/experiments/knapen_aot/videos/S_video_inspire_sanfrancisco_castro_005.1080-h264.mp4	0.0	353.30825185775757	0.09992790222167969
68	196.1063358783722	fix_pre	0		65.0	66.0	2.5	/experiments/knapen_aot/videos/S_yt-giRwl4yChlw_9.mp4	0.0	353.40817975997925	0.5416760444641113
68	196.63981103897095	response	0	2		66.0	2.5	/experiments/knapen_aot/videos/S_yt-giRwl4yChlw_9.mp4	0.0	353.941654920578	
68	196.6480119228363	movie	1		301.0	66.0	2.5	/experiments/knapen_aot/videos/S_yt-giRwl4yChlw_9.mp4	0.0	353.94985580444336	2.5083510875701904
68	199.1563630104065	fix_post	2		12.0	66.0	2.5	/experiments/knapen_aot/videos/S_yt-giRwl4yChlw_9.mp4	0.0	356.45820689201355	0.10001897811889648
69	199.2563819885254	fix_pre	0		16.0	67.0	2.5	/experiments/knapen_aot/videos/R_S_yt-qiPhBL4lBr0_44.mp4	0.0	356.55822587013245	0.13328886032104492
69	199.38150095939636	response	0	2		67.0	2.5	/experiments/knapen_aot/videos/R_S_yt-qiPhBL4lBr0_44.mp4	0.0	356.6833448410034	
69	199.38967084884644	movie	1		301.0	67.0	2.5	/experiments/knapen_aot/videos/R_S_yt-qiPhBL4lBr0_44.mp4	0.0	356.6915147304535	2.50829815864563
69	201.89796900749207	fix_post	2		12.0	67.0	2.5	/experiments/knapen_aot/videos/R_S_yt-qiPhBL4lBr0_44.mp4	0.0	359.1998128890991	0.10008001327514648
70	201.9980490207672	fix_pre	0		31.0	68.0	2.5	/experiments/knapen_aot/videos/S_yt-QQPv17nfR_E_2.mp4	0.0	359.29989290237427	0.25829291343688965
70	202.24814987182617	response	0	2		68.0	2.5	/experiments/knapen_aot/videos/S_yt-QQPv17nfR_E_2.mp4	0.0	359.5499937534332	
70	202.2563419342041	movie	1		297.0	68.0	2.5	/experiments/knapen_aot/videos/S_yt-QQPv17nfR_E_2.mp4	0.0	359.55818581581116	2.5083229541778564
70	204.76466488838196	fix_post	2		12.0	68.0	2.5	/experiments/knapen_aot/videos/S_yt-QQPv17nfR_E_2.mp4	0.0	362.066508769989	0.09998011589050293
71	204.86464500427246	fix_pre	0		17.0	69.0	2.5	blank	1.0	362.1664888858795	0.1417238712310791
71	204.99811506271362	response	0	2		69.0	2.5	blank	1.0	362.2999589443207	
71	205.00636887550354	movie	1		301.0	69.0	2.5	blank	1.0	362.3082127571106	2.5083019733428955
71	207.51467084884644	fix_post	2		12.0	69.0	2.5	blank	1.0	364.8165147304535	0.09999704360961914
72	207.61466789245605	fix_pre	0		23.0	70.0	2.5	/experiments/knapen_aot/videos/S_yt-ZBhTpmrAlUY_70.mp4	0.0	364.9165117740631	0.1916520595550537
72	207.79814100265503	response	0	2		70.0	2.5	/experiments/knapen_aot/videos/S_yt-ZBhTpmrAlUY_70.mp4	0.0	365.0999848842621	
72	207.8063199520111	movie	1		301.0	70.0	2.5	/experiments/knapen_aot/videos/S_yt-ZBhTpmrAlUY_70.mp4	0.0	365.10816383361816	2.508294105529785
72	210.3146140575409	fix_post	2		12.0	70.0	2.5	/experiments/knapen_aot/videos/S_yt-ZBhTpmrAlUY_70.mp4	0.0	367.61645793914795	0.09991288185119629
73	210.4145269393921	fix_pre	0		20.0	71.0	2.5	/experiments/knapen_aot/videos/R_S_yt-KpOAdMtPGFs_17.mp4	0.0	367.71637082099915	0.1667020320892334
73	210.573068857193	response	0	2		71.0	2.5	/experiments/knapen_aot/videos/R_S_yt-KpOAdMtPGFs_17.mp4	0.0	367.87491273880005	
73	210.58122897148132	movie	1		301.0	71.0	2.5	/experiments/knapen_aot/videos/R_S_yt-KpOAdMtPGFs_17.mp4	0.0	367.8830728530884	2.508305072784424
73	213.08953404426575	fix_post	2		12.0	71.0	2.5	/experiments/knapen_aot/videos/R_S_yt-KpOAdMtPGFs_17.mp4	0.0	370.3913779258728	0.10006380081176758
74	213.18959784507751	fix_pre	0		30.0	72.0	2.5	/experiments/knapen_aot/videos/R_S_yt-25xuzTBhwPk_109.mp4	0.0	370.49144172668457	0.2499392032623291
74	213.4314000606537	response	0	2		72.0	2.5	/experiments/knapen_aot/videos/R_S_yt-25xuzTBhwPk_109.mp4	0.0	370.73324394226074	
74	213.43953704833984	movie	1		301.0	72.0	2.5	/experiments/knapen_aot/videos/R_S_yt-25xuzTBhwPk_109.mp4	0.0	370.7413809299469	2.50832200050354
74	215.94785904884338	fix_post	2		12.0	72.0	2.5	/experiments/knapen_aot/videos/R_S_yt-25xuzTBhwPk_109.mp4	0.0	373.24970293045044	0.10003089904785156
75	216.04788994789124	fix_pre	0		19.0	73.0	2.5	/experiments/knapen_aot/videos/S_yt-9CY7rDYBYUI_40.mp4	0.0	373.3497338294983	0.15828609466552734
75	216.198068857193	response	0	2		73.0	2.5	/experiments/knapen_aot/videos/S_yt-9CY7rDYBYUI_40.mp4	0.0	373.49991273880005	
75	216.20617604255676	movie	1		300.0	73.0	2.5	/experiments/knapen_aot/videos/S_yt-9CY7rDYBYUI_40.mp4	0.0	373.5080199241638	2.50832200050354
75	218.7144980430603	fix_post	2		12.0	73.0	2.5	/experiments/knapen_aot/videos/S_yt-9CY7rDYBYUI_40.mp4	0.0	376.01634192466736	0.10006380081176758
76	218.81456184387207	fix_pre	0		17.0	74.0	2.5	/experiments/knapen_aot/videos/R_S_comp_HK_H004_C008_PSNK_v19_SDR_PS_20180914_SDR_2K_AVC.mp4	0.0	376.1164057254791	0.1416640281677246
76	218.94805884361267	response	0	2		74.0	2.5	/experiments/knapen_aot/videos/R_S_comp_HK_H004_C008_PSNK_v19_SDR_PS_20180914_SDR_2K_AVC.mp4	0.0	376.2499027252197	
76	218.9562258720398	movie	1		174.0	74.0	2.5	/experiments/knapen_aot/videos/R_S_comp_HK_H004_C008_PSNK_v19_SDR_PS_20180914_SDR_2K_AVC.mp4	0.0	376.25806975364685	2.508362054824829
76	221.46458792686462	fix_post	2		12.0	74.0	2.5	/experiments/knapen_aot/videos/R_S_comp_HK_H004_C008_PSNK_v19_SDR_PS_20180914_SDR_2K_AVC.mp4	0.0	378.7664318084717	0.09998202323913574
77	221.56456995010376	fix_pre	0		7.0	75.0	2.5	/experiments/knapen_aot/videos/R_S_yt-F2x6e7e7cAE_70.mp4	0.0	378.8664138317108	0.05833697319030762
77	221.6071138381958	response	0	2		75.0	2.5	/experiments/knapen_aot/videos/R_S_yt-F2x6e7e7cAE_70.mp4	0.0	378.90895771980286	
77	221.62290692329407	movie	1		301.0	75.0	2.5	/experiments/knapen_aot/videos/R_S_yt-F2x6e7e7cAE_70.mp4	0.0	378.9247508049011	2.508310079574585
77	224.13121700286865	fix_post	2		12.0	75.0	2.5	/experiments/knapen_aot/videos/R_S_yt-F2x6e7e7cAE_70.mp4	0.0	381.4330608844757	0.09997987747192383
78	224.23119688034058	fix_pre	0		24.0	76.0	2.5	/experiments/knapen_aot/videos/R_S_yt-RKo978aBdzw_173.mp4	0.0	381.53304076194763	0.1999950408935547
78	224.42299795150757	response	0	2		76.0	2.5	/experiments/knapen_aot/videos/R_S_yt-RKo978aBdzw_173.mp4	0.0	381.7248418331146	
78	224.43119192123413	movie	1		301.0	76.0	2.5	/experiments/knapen_aot/videos/R_S_yt-RKo978aBdzw_173.mp4	0.0	381.7330358028412	2.5083141326904297
78	226.93950605392456	fix_post	2		12.0	76.0	2.5	/experiments/knapen_aot/videos/R_S_yt-RKo978aBdzw_173.mp4	0.0	384.2413499355316	0.10008382797241211
79	227.03958988189697	fix_pre	0		78.0	77.0	2.5	blank	1.0	384.341433763504	0.6499199867248535
79	227.68133902549744	response	0	2		77.0	2.5	blank	1.0	384.9831829071045	
79	227.68950986862183	movie	1		301.0	77.0	2.5	blank	1.0	384.9913537502289	2.5085551738739014
79	230.19806504249573	fix_post	2		12.0	77.0	2.5	blank	1.0	387.4999089241028	0.09983181953430176
80	230.29789686203003	fix_pre	0		49.0	78.0	2.5	/experiments/knapen_aot/videos/R_S_yt-JGKdBO2Ldzo_93.mp4	0.0	387.5997407436371	0.4082942008972168
80	230.69054293632507	response	0	2		78.0	2.5	/experiments/knapen_aot/videos/R_S_yt-JGKdBO2Ldzo_93.mp4	0.0	387.99238681793213	
80	230.70619106292725	movie	1		301.0	78.0	2.5	/experiments/knapen_aot/videos/R_S_yt-JGKdBO2Ldzo_93.mp4	0.0	388.0080349445343	2.50826096534729
80	233.21445202827454	fix_post	2		12.0	78.0	2.5	/experiments/knapen_aot/videos/R_S_yt-JGKdBO2Ldzo_93.mp4	0.0	390.5162959098816	0.10002589225769043
81	233.31447792053223	fix_pre	0		17.0	79.0	2.5	/experiments/knapen_aot/videos/R_S_yt-9T99N7Cvi_o_112.mp4	0.0	390.6163218021393	0.14165496826171875
81	233.4479730129242	response	0	2		79.0	2.5	/experiments/knapen_aot/videos/R_S_yt-9T99N7Cvi_o_112.mp4	0.0	390.74981689453125	
81	233.45613288879395	movie	1		301.0	79.0	2.5	/experiments/knapen_aot/videos/R_S_yt-9T99N7Cvi_o_112.mp4	0.0	390.757976770401	2.5083470344543457
81	235.9644799232483	fix_post	2		12.0	79.0	2.5	/experiments/knapen_aot/videos/R_S_yt-9T99N7Cvi_o_112.mp4	0.0	393.26632380485535	0.09996509552001953
82	236.0644450187683	fix_pre	0		32.0	80.0	2.5	/experiments/knapen_aot/videos/R_S_yt-c-H45QS0CF4_147.mp4	0.0	393.36628890037537	0.266664981842041
82	236.32292890548706	response	0	2		80.0	2.5	/experiments/knapen_aot/videos/R_S_yt-c-H45QS0CF4_147.mp4	0.0	393.6247727870941	
82	236.33111000061035	movie	1		301.0	80.0	2.5	/experiments/knapen_aot/videos/R_S_yt-c-H45QS0CF4_147.mp4	0.0	393.6329538822174	2.5083439350128174
82	238.83945393562317	fix_post	2		12.0	80.0	2.5	/experiments/knapen_aot/videos/R_S_yt-c-H45QS0CF4_147.mp4	0.0	396.1412978172302	0.09993600845336914
83	238.93938994407654	fix_pre	0		23.0	81.0	2.5	/experiments/knapen_aot/videos/S_yt-mWlx1SIXl5M_850.mp4	0.0	396.2412338256836	0.19170403480529785
83	239.12290406227112	response	0	2		81.0	2.5	/experiments/knapen_aot/videos/S_yt-mWlx1SIXl5M_850.mp4	0.0	396.4247479438782	
83	239.13109397888184	movie	1		301.0	81.0	2.5	/experiments/knapen_aot/videos/S_yt-mWlx1SIXl5M_850.mp4	0.0	396.4329378604889	2.50833797454834
83	241.63943195343018	fix_post	2		12.0	81.0	2.5	/experiments/knapen_aot/videos/S_yt-mWlx1SIXl5M_850.mp4	0.0	398.94127583503723	0.09994792938232422
84	241.7393798828125	fix_pre	0		124.0	82.0	2.5	blank	1.0	399.04122376441956	1.0334131717681885
84	242.76458191871643	response	0	2		82.0	2.5	blank	1.0	400.0664258003235	
84	242.7727930545807	movie	1		301.0	82.0	2.5	blank	1.0	400.07463693618774	2.5083048343658447
84	245.28109788894653	fix_post	2		12.0	82.0	2.5	blank	1.0	402.5829417705536	0.09997296333312988
85	245.38107085227966	fix_pre	0		66.0	83.0	2.5	/experiments/knapen_aot/videos/S_yt-tEzCpMrjOHs_24.mp4	0.0	402.6829147338867	0.549964189529419
85	245.92285799980164	response	0	2		83.0	2.5	/experiments/knapen_aot/videos/S_yt-tEzCpMrjOHs_24.mp4	0.0	403.2247018814087	
85	245.93103504180908	movie	1		301.0	83.0	2.5	/experiments/knapen_aot/videos/S_yt-tEzCpMrjOHs_24.mp4	0.0	403.23287892341614	2.5084269046783447
85	248.43946194648743	fix_post	2		12.0	83.0	2.5	/experiments/knapen_aot/videos/S_yt-tEzCpMrjOHs_24.mp4	0.0	405.7413058280945	0.09998607635498047
87	248.5394480228424	stim	0		144.0					405.84129190444946	1.200834035873413
87	249.72863388061523	response	0	space						407.0304777622223	
