trial_nr	onset	event_type	phase	response	nr_frames	movie_index	movie_duration	movie_file	blank	onset_abs	duration
0	0.15807318687438965	stim	0		64.0					130.73895025253296	0.535193920135498
0	0.6835250854492188	response	0	space						131.2644021511078	
1	0.6932671070098877	stim	0		121.0					131.27414417266846	1.0064098834991455
1	1.299781084060669	response	0	space						131.88065814971924	
1	1.6996769905090332	stim	1		120.0					132.2805540561676	1.0001020431518555
1	2.4415152072906494	response	1	space						133.02239227294922	
2	2.6997790336608887	fix_pre	0		54.0	0.0	2.5	/experiments/knapen_aot/oldvideos/S_yt-fCjjH_4i8Fg_115.mp4	0.0	133.28065609931946	0.45120811462402344
2	3.1413869857788086	response	0	space		0.0	2.5	/experiments/knapen_aot/oldvideos/S_yt-fCjjH_4i8Fg_115.mp4	0.0	133.72226405143738	
2	3.150987148284912	movie	1		300.0	0.0	2.5	/experiments/knapen_aot/oldvideos/S_yt-fCjjH_4i8Fg_115.mp4	0.0	133.73186421394348	2.506985902786255
2	5.657973051071167	fix_post	2		12.0	0.0	2.5	/experiments/knapen_aot/oldvideos/S_yt-fCjjH_4i8Fg_115.mp4	0.0	136.23885011672974	0.10003399848937988
3	5.758007049560547	fix_pre	0		30.0	1.0	2.5	/experiments/knapen_aot/oldvideos/R_S_yt-XF0fyyFEgWo_280.mp4	0.0	136.33888411521912	0.25397515296936035
3	6.003965139389038	response	0	2		1.0	2.5	/experiments/knapen_aot/oldvideos/R_S_yt-XF0fyyFEgWo_280.mp4	0.0	136.5848422050476	
3	6.011982202529907	movie	1		297.0	1.0	2.5	/experiments/knapen_aot/oldvideos/R_S_yt-XF0fyyFEgWo_280.mp4	0.0	136.59285926818848	2.5043439865112305
3	8.516326189041138	fix_post	2		12.0	1.0	2.5	/experiments/knapen_aot/oldvideos/R_S_yt-XF0fyyFEgWo_280.mp4	0.0	139.0972032546997	0.09998393058776855
4	8.616310119628906	fix_pre	0		292.0	2.0	2.5	/experiments/knapen_aot/oldvideos/S_G007_C004_UHD_SDR_2K_AVC.mp4	0.0	139.19718718528748	2.433306932449341
4	11.041397094726562	response	0	2		2.0	2.5	/experiments/knapen_aot/oldvideos/S_G007_C004_UHD_SDR_2K_AVC.mp4	0.0	141.62227416038513	
4	11.049617052078247	movie	1		168.0	2.0	2.5	/experiments/knapen_aot/oldvideos/S_G007_C004_UHD_SDR_2K_AVC.mp4	0.0	141.63049411773682	2.5083980560302734
4	13.55801510810852	fix_post	2		12.0	2.0	2.5	/experiments/knapen_aot/oldvideos/S_G007_C004_UHD_SDR_2K_AVC.mp4	0.0	144.1388921737671	0.10002994537353516
5	13.658045053482056	fix_pre	0		9.0	3.0	2.5	/experiments/knapen_aot/oldvideos/S_ILSVRC2015_train_00756000.mp4	0.0	144.23892211914062	0.07490396499633789
5	13.724772214889526	response	0	2		3.0	2.5	/experiments/knapen_aot/oldvideos/S_ILSVRC2015_train_00756000.mp4	0.0	144.3056492805481	
5	13.732949018478394	movie	1		301.0	3.0	2.5	/experiments/knapen_aot/oldvideos/S_ILSVRC2015_train_00756000.mp4	0.0	144.31382608413696	2.5083720684051514
5	16.241321086883545	fix_post	2		12.0	3.0	2.5	/experiments/knapen_aot/oldvideos/S_ILSVRC2015_train_00756000.mp4	0.0	146.82219815254211	0.09997391700744629
6	16.34129500389099	fix_pre	0		7.0	4.0	2.5	/experiments/knapen_aot/oldvideos/R_S_yt-mHLTJkMrkZI_143.mp4	0.0	146.92217206954956	0.058294057846069336
6	16.391427040100098	response	0	4		4.0	2.5	/experiments/knapen_aot/oldvideos/R_S_yt-mHLTJkMrkZI_143.mp4	0.0	146.97230410575867	
6	16.39958906173706	movie	1		301.0	4.0	2.5	/experiments/knapen_aot/oldvideos/R_S_yt-mHLTJkMrkZI_143.mp4	0.0	146.98046612739563	2.5083470344543457
6	18.907936096191406	fix_post	2		12.0	4.0	2.5	/experiments/knapen_aot/oldvideos/R_S_yt-mHLTJkMrkZI_143.mp4	0.0	149.48881316184998	0.1000969409942627
7	19.00803303718567	fix_pre	0		4.0	5.0	2.5	/experiments/knapen_aot/oldvideos/S_yt-n6aLw10f2Yw_317.mp4	0.0	149.58891010284424	0.03319811820983887
7	19.03302502632141	response	0	4		5.0	2.5	/experiments/knapen_aot/oldvideos/S_yt-n6aLw10f2Yw_317.mp4	0.0	149.61390209197998	
7	19.041231155395508	movie	1		301.0	5.0	2.5	/experiments/knapen_aot/oldvideos/S_yt-n6aLw10f2Yw_317.mp4	0.0	149.62210822105408	2.508441925048828
7	21.52467918395996	response	1	4		5.0	2.5	/experiments/knapen_aot/oldvideos/S_yt-n6aLw10f2Yw_317.mp4	0.0	152.10555624961853	
7	21.549673080444336	fix_post	2		12.0	5.0	2.5	/experiments/knapen_aot/oldvideos/S_yt-n6aLw10f2Yw_317.mp4	0.0	152.1305501461029	0.1011810302734375
8	21.650854110717773	fix_pre	0		20.0	6.0	2.5	/experiments/knapen_aot/oldvideos/S_P001_C005_UHD_SDR_2K_AVC.mp4	0.0	152.23173117637634	0.1652839183807373
8	21.807965993881226	response	0	4		6.0	2.5	/experiments/knapen_aot/oldvideos/S_P001_C005_UHD_SDR_2K_AVC.mp4	0.0	152.3888430595398	
8	21.81613802909851	movie	1		170.0	6.0	2.5	/experiments/knapen_aot/oldvideos/S_P001_C005_UHD_SDR_2K_AVC.mp4	0.0	152.39701509475708	2.508449077606201
8	24.199656009674072	response	1	4		6.0	2.5	/experiments/knapen_aot/oldvideos/S_P001_C005_UHD_SDR_2K_AVC.mp4	0.0	154.78053307533264	
8	24.324587106704712	fix_post	2		12.0	6.0	2.5	/experiments/knapen_aot/oldvideos/S_P001_C005_UHD_SDR_2K_AVC.mp4	0.0	154.90546417236328	0.10000205039978027
9	24.424589157104492	fix_pre	0		5.0	7.0	2.5	blank	1.0	155.00546622276306	0.04166698455810547
9	24.457953214645386	response	0	4		7.0	2.5	blank	1.0	155.03883028030396	
9	24.466256141662598	movie	1		301.0	7.0	2.5	blank	1.0	155.04713320732117	2.508312940597534
9	26.674735069274902	response	1	4		7.0	2.5	blank	1.0	157.25561213493347	
9	26.94125008583069	response	1	4		7.0	2.5	blank	1.0	157.52212715148926	
9	26.974569082260132	fix_post	2		12.0	7.0	2.5	blank	1.0	157.5554461479187	0.09999513626098633
10	27.074564218521118	fix_pre	0		12.0	8.0	2.5	/experiments/knapen_aot/oldvideos/R_S_yt-fryIS5Itzig_124.mp4	0.0	157.6554412841797	0.09998488426208496
10	27.16627311706543	response	0	4		8.0	2.5	/experiments/knapen_aot/oldvideos/R_S_yt-fryIS5Itzig_124.mp4	0.0	157.747150182724	
10	27.174549102783203	movie	1		301.0	8.0	2.5	/experiments/knapen_aot/oldvideos/R_S_yt-fryIS5Itzig_124.mp4	0.0	157.75542616844177	2.5083370208740234
10	29.682886123657227	fix_post	2		12.0	8.0	2.5	/experiments/knapen_aot/oldvideos/R_S_yt-fryIS5Itzig_124.mp4	0.0	160.2637631893158	0.09998488426208496
10	29.77458906173706	response	2	4		8.0	2.5	/experiments/knapen_aot/oldvideos/R_S_yt-fryIS5Itzig_124.mp4	0.0	160.35546612739563	
11	29.78287100791931	fix_pre	0		43.0	9.0	2.5	/experiments/knapen_aot/oldvideos/S_yt-Q9fI2ar05IE_77.mp4	0.0	160.36374807357788	0.3582332134246826
11	30.133028030395508	response	0	4		9.0	2.5	/experiments/knapen_aot/oldvideos/S_yt-Q9fI2ar05IE_77.mp4	0.0	160.71390509605408	
11	30.141104221343994	movie	1		301.0	9.0	2.5	/experiments/knapen_aot/oldvideos/S_yt-Q9fI2ar05IE_77.mp4	0.0	160.72198128700256	2.5084757804870605
11	32.22850298881531	response	1	4		9.0	2.5	/experiments/knapen_aot/oldvideos/S_yt-Q9fI2ar05IE_77.mp4	0.0	162.80938005447388	
11	32.649580001831055	fix_post	2		12.0	9.0	2.5	/experiments/knapen_aot/oldvideos/S_yt-Q9fI2ar05IE_77.mp4	0.0	163.23045706748962	0.09995603561401367
11	32.68296217918396	response	2	4		9.0	2.5	/experiments/knapen_aot/oldvideos/S_yt-Q9fI2ar05IE_77.mp4	0.0	163.26383924484253	
12	32.74953603744507	fix_pre	0		48.0	10.0	2.5	/experiments/knapen_aot/oldvideos/S_yt-Xq6uX1jfFRk_21.mp4	0.0	163.33041310310364	0.4012410640716553
12	33.141276121139526	response	0	4		10.0	2.5	/experiments/knapen_aot/oldvideos/S_yt-Xq6uX1jfFRk_21.mp4	0.0	163.7221531867981	
12	33.150777101516724	movie	1		301.0	10.0	2.5	/experiments/knapen_aot/oldvideos/S_yt-Xq6uX1jfFRk_21.mp4	0.0	163.7316541671753	2.507107973098755
12	35.65788507461548	fix_post	2		12.0	10.0	2.5	/experiments/knapen_aot/oldvideos/S_yt-Xq6uX1jfFRk_21.mp4	0.0	166.23876214027405	0.09996199607849121
13	35.75784707069397	fix_pre	0		9.0	11.0	2.5	/experiments/knapen_aot/oldvideos/S_yt-28ODBE9bVh0_44.mp4	0.0	166.33872413635254	0.07494592666625977
13	35.82465314865112	response	0	4		11.0	2.5	/experiments/knapen_aot/oldvideos/S_yt-28ODBE9bVh0_44.mp4	0.0	166.4055302143097	
13	35.83279299736023	movie	1		301.0	11.0	2.5	/experiments/knapen_aot/oldvideos/S_yt-28ODBE9bVh0_44.mp4	0.0	166.4136700630188	2.5084140300750732
13	38.3412070274353	fix_post	2		12.0	11.0	2.5	/experiments/knapen_aot/oldvideos/S_yt-28ODBE9bVh0_44.mp4	0.0	168.92208409309387	0.09997296333312988
14	38.44117999076843	fix_pre	0		17.0	12.0	2.5	/experiments/knapen_aot/oldvideos/S_yt-NuZy8Rjk4d0_156.mp4	0.0	169.022057056427	0.1416940689086914
14	38.57462120056152	response	0	4		12.0	2.5	/experiments/knapen_aot/oldvideos/S_yt-NuZy8Rjk4d0_156.mp4	0.0	169.1554982662201	
14	38.582874059677124	movie	1		301.0	12.0	2.5	/experiments/knapen_aot/oldvideos/S_yt-NuZy8Rjk4d0_156.mp4	0.0	169.1637511253357	2.5086820125579834
14	41.09155607223511	fix_post	2		12.0	12.0	2.5	/experiments/knapen_aot/oldvideos/S_yt-NuZy8Rjk4d0_156.mp4	0.0	171.67243313789368	0.09958314895629883
15	41.191139221191406	fix_pre	0		6.0	13.0	2.5	/experiments/knapen_aot/oldvideos/S_yt-BG-G7m5wLZ4_94.mp4	0.0	171.77201628684998	0.050003767013549805
15	41.232869148254395	response	0	4		13.0	2.5	/experiments/knapen_aot/oldvideos/S_yt-BG-G7m5wLZ4_94.mp4	0.0	171.81374621391296	
15	41.241142988204956	movie	1		301.0	13.0	2.5	/experiments/knapen_aot/oldvideos/S_yt-BG-G7m5wLZ4_94.mp4	0.0	171.82202005386353	2.5084280967712402
15	43.749571084976196	fix_post	2		12.0	13.0	2.5	/experiments/knapen_aot/oldvideos/S_yt-BG-G7m5wLZ4_94.mp4	0.0	174.33044815063477	0.09985804557800293
16	43.8494291305542	fix_pre	0		13.0	14.0	2.5	blank	1.0	174.43030619621277	0.10837507247924805
16	43.94957399368286	response	0	4		14.0	2.5	blank	1.0	174.53045105934143	
16	43.95780420303345	movie	1		301.0	14.0	2.5	blank	1.0	174.53868126869202	2.5083889961242676
16	46.466193199157715	fix_post	2		12.0	14.0	2.5	blank	1.0	177.04707026481628	0.10004687309265137
17	46.566240072250366	fix_pre	0		30.0	15.0	2.5	/experiments/knapen_aot/oldvideos/S_yt-2dRSJcaJIXw_32.mp4	0.0	177.14711713790894	0.2509620189666748
17	46.80793309211731	response	0	4		15.0	2.5	/experiments/knapen_aot/oldvideos/S_yt-2dRSJcaJIXw_32.mp4	0.0	177.38881015777588	
17	46.81720209121704	movie	1		301.0	15.0	2.5	/experiments/knapen_aot/oldvideos/S_yt-2dRSJcaJIXw_32.mp4	0.0	177.3980791568756	2.5074000358581543
17	49.324602127075195	fix_post	2		12.0	15.0	2.5	/experiments/knapen_aot/oldvideos/S_yt-2dRSJcaJIXw_32.mp4	0.0	179.90547919273376	0.09978103637695312
18	49.42438316345215	fix_pre	0		7.0	16.0	2.5	/experiments/knapen_aot/oldvideos/R_S_DL_B002_C011_SDR_20191122_SDR_2K_AVC.mp4	0.0	180.00526022911072	0.059519052505493164
18	49.47465705871582	response	0	4		16.0	2.5	/experiments/knapen_aot/oldvideos/R_S_DL_B002_C011_SDR_20191122_SDR_2K_AVC.mp4	0.0	180.0555341243744	
18	49.48390221595764	movie	1		168.0	16.0	2.5	/experiments/knapen_aot/oldvideos/R_S_DL_B002_C011_SDR_20191122_SDR_2K_AVC.mp4	0.0	180.0647792816162	2.5072479248046875
18	51.99115014076233	fix_post	2		12.0	16.0	2.5	/experiments/knapen_aot/oldvideos/R_S_DL_B002_C011_SDR_20191122_SDR_2K_AVC.mp4	0.0	182.5720272064209	0.09997200965881348
19	52.09112215042114	fix_pre	0		35.0	17.0	2.5	/experiments/knapen_aot/oldvideos/R_S_yt-RqWnxg1wT-0_41.mp4	0.0	182.6719992160797	0.29160094261169434
19	52.37466216087341	response	0	4		17.0	2.5	/experiments/knapen_aot/oldvideos/R_S_yt-RqWnxg1wT-0_41.mp4	0.0	182.95553922653198	
19	52.38272309303284	movie	1		301.0	17.0	2.5	/experiments/knapen_aot/oldvideos/R_S_yt-RqWnxg1wT-0_41.mp4	0.0	182.9636001586914	2.5083959102630615
19	54.8911190032959	fix_post	2		12.0	17.0	2.5	/experiments/knapen_aot/oldvideos/R_S_yt-RqWnxg1wT-0_41.mp4	0.0	185.47199606895447	0.10010004043579102
20	54.99121904373169	fix_pre	0		11.0	18.0	2.5	/experiments/knapen_aot/oldvideos/S_yt-Fci3dBzt2T4_223.mp4	0.0	185.57209610939026	0.09173798561096191
20	55.074570178985596	response	0	4		18.0	2.5	/experiments/knapen_aot/oldvideos/S_yt-Fci3dBzt2T4_223.mp4	0.0	185.65544724464417	
20	55.08295702934265	movie	1		301.0	18.0	2.5	/experiments/knapen_aot/oldvideos/S_yt-Fci3dBzt2T4_223.mp4	0.0	185.66383409500122	2.5081961154937744
20	57.591153144836426	fix_post	2		12.0	18.0	2.5	/experiments/knapen_aot/oldvideos/S_yt-Fci3dBzt2T4_223.mp4	0.0	188.172030210495	0.10094404220581055
21	57.692097187042236	fix_pre	0		15.0	19.0	2.5	/experiments/knapen_aot/oldvideos/S_ILSVRC2015_train_00368000.mp4	0.0	188.2729742527008	0.1250309944152832
21	57.80789113044739	response	0	4		19.0	2.5	/experiments/knapen_aot/oldvideos/S_ILSVRC2015_train_00368000.mp4	0.0	188.38876819610596	
21	57.81712818145752	movie	1		301.0	19.0	2.5	/experiments/knapen_aot/oldvideos/S_ILSVRC2015_train_00368000.mp4	0.0	188.3980052471161	2.507297992706299
21	60.32442617416382	fix_post	2		12.0	19.0	2.5	/experiments/knapen_aot/oldvideos/S_ILSVRC2015_train_00368000.mp4	0.0	190.9053032398224	0.10002899169921875
22	60.42445516586304	fix_pre	0		20.0	20.0	2.5	/experiments/knapen_aot/oldvideos/S_production_ID_4584682.mp4	0.0	191.0053322315216	0.16660785675048828
22	60.58277702331543	response	0	4		20.0	2.5	/experiments/knapen_aot/oldvideos/S_production_ID_4584682.mp4	0.0	191.163654088974	
22	60.591063022613525	movie	1		165.0	20.0	2.5	/experiments/knapen_aot/oldvideos/S_production_ID_4584682.mp4	0.0	191.1719400882721	2.5084471702575684
22	63.099510192871094	fix_post	2		12.0	20.0	2.5	/experiments/knapen_aot/oldvideos/S_production_ID_4584682.mp4	0.0	193.68038725852966	0.0999000072479248
23	63.19941020011902	fix_pre	0		51.0	21.0	2.5	blank	1.0	193.7802872657776	0.4250218868255615
23	63.61618614196777	response	0	4		21.0	2.5	blank	1.0	194.19706320762634	
23	63.62443208694458	movie	1		301.0	21.0	2.5	blank	1.0	194.20530915260315	2.508316993713379
23	66.13274908065796	fix_post	2		12.0	21.0	2.5	blank	1.0	196.71362614631653	0.09998703002929688
24	66.23273611068726	fix_pre	0		36.0	22.0	2.5	/experiments/knapen_aot/oldvideos/S_G007_C004_UHD_SDR_2K_AVC.mp4	0.0	196.81361317634583	0.29997897148132324
24	66.52449202537537	response	0	4		22.0	2.5	/experiments/knapen_aot/oldvideos/S_G007_C004_UHD_SDR_2K_AVC.mp4	0.0	197.10536909103394	
24	66.53271508216858	movie	1		165.0	22.0	2.5	/experiments/knapen_aot/oldvideos/S_G007_C004_UHD_SDR_2K_AVC.mp4	0.0	197.11359214782715	2.508323907852173
24	69.04103899002075	fix_post	2		12.0	22.0	2.5	/experiments/knapen_aot/oldvideos/S_G007_C004_UHD_SDR_2K_AVC.mp4	0.0	199.62191605567932	0.10001611709594727
25	69.1410551071167	fix_pre	0		40.0	23.0	2.5	/experiments/knapen_aot/oldvideos/S_ILSVRC2015_train_00363000.mp4	0.0	199.72193217277527	0.33329296112060547
25	69.45874905586243	response	0	4		23.0	2.5	/experiments/knapen_aot/oldvideos/S_ILSVRC2015_train_00363000.mp4	0.0	200.039626121521	
25	69.4743480682373	movie	1		301.0	23.0	2.5	/experiments/knapen_aot/oldvideos/S_ILSVRC2015_train_00363000.mp4	0.0	200.05522513389587	2.508430004119873
25	71.98277807235718	fix_post	2		12.0	23.0	2.5	/experiments/knapen_aot/oldvideos/S_ILSVRC2015_train_00363000.mp4	0.0	202.56365513801575	0.09990406036376953
26	72.08268213272095	fix_pre	0		18.0	24.0	2.5	/experiments/knapen_aot/oldvideos/R_S_yt-BG-G7m5wLZ4_94.mp4	0.0	202.66355919837952	0.15097308158874512
26	72.22448015213013	response	0	4		24.0	2.5	/experiments/knapen_aot/oldvideos/R_S_yt-BG-G7m5wLZ4_94.mp4	0.0	202.8053572177887	
26	72.23365521430969	movie	1		301.0	24.0	2.5	/experiments/knapen_aot/oldvideos/R_S_yt-BG-G7m5wLZ4_94.mp4	0.0	202.81453227996826	2.5073649883270264
26	74.74102020263672	fix_post	2		12.0	24.0	2.5	/experiments/knapen_aot/oldvideos/R_S_yt-BG-G7m5wLZ4_94.mp4	0.0	205.3218972682953	0.10010790824890137
27	74.84112811088562	fix_pre	0		25.0	25.0	2.5	/experiments/knapen_aot/oldvideos/S_yt-0buqUbXVTn8_48.mp4	0.0	205.4220051765442	0.20818710327148438
27	75.04139304161072	response	0	4		25.0	2.5	/experiments/knapen_aot/oldvideos/S_yt-0buqUbXVTn8_48.mp4	0.0	205.6222701072693	
27	75.0493152141571	movie	1		301.0	25.0	2.5	/experiments/knapen_aot/oldvideos/S_yt-0buqUbXVTn8_48.mp4	0.0	205.63019227981567	2.5083138942718506
27	77.55762910842896	fix_post	2		12.0	25.0	2.5	/experiments/knapen_aot/oldvideos/S_yt-0buqUbXVTn8_48.mp4	0.0	208.13850617408752	0.10019493103027344
28	77.65782403945923	fix_pre	0		6.0	26.0	2.5	blank	1.0	208.2387011051178	0.04986906051635742
28	77.69945406913757	response	0	4		26.0	2.5	blank	1.0	208.28033113479614	
28	77.70769309997559	movie	1		301.0	26.0	2.5	blank	1.0	208.28857016563416	2.5083351135253906
28	80.21602821350098	fix_post	2		12.0	26.0	2.5	blank	1.0	210.79690527915955	0.09999394416809082
29	80.31602215766907	fix_pre	0		16.0	27.0	2.5	/experiments/knapen_aot/oldvideos/S_KP_A010_C002_SDR_20190717_SDR_2K_AVC.mp4	0.0	210.89689922332764	0.13328886032104492
29	80.44111204147339	response	0	4		27.0	2.5	/experiments/knapen_aot/oldvideos/S_KP_A010_C002_SDR_20190717_SDR_2K_AVC.mp4	0.0	211.02198910713196	
29	80.44931101799011	movie	1		162.0	27.0	2.5	/experiments/knapen_aot/oldvideos/S_KP_A010_C002_SDR_20190717_SDR_2K_AVC.mp4	0.0	211.03018808364868	2.5084500312805176
29	82.95776104927063	fix_post	2		12.0	27.0	2.5	/experiments/knapen_aot/oldvideos/S_KP_A010_C002_SDR_20190717_SDR_2K_AVC.mp4	0.0	213.5386381149292	0.0998220443725586
30	83.05758309364319	fix_pre	0		8.0	28.0	2.5	/experiments/knapen_aot/oldvideos/R_S_yt-X6ivH9SqGu8_306.mp4	0.0	213.63846015930176	0.06667804718017578
30	83.1160991191864	response	0	4		28.0	2.5	/experiments/knapen_aot/oldvideos/R_S_yt-X6ivH9SqGu8_306.mp4	0.0	213.69697618484497	
30	83.12426114082336	movie	1		301.0	28.0	2.5	/experiments/knapen_aot/oldvideos/R_S_yt-X6ivH9SqGu8_306.mp4	0.0	213.70513820648193	2.508401870727539
30	85.6326630115509	fix_post	2		12.0	28.0	2.5	/experiments/knapen_aot/oldvideos/R_S_yt-X6ivH9SqGu8_306.mp4	0.0	216.21354007720947	0.09994912147521973
31	85.73261213302612	fix_pre	0		12.0	29.0	2.5	/experiments/knapen_aot/oldvideos/R_S_yt-yQrDeFlFmfM_138.mp4	0.0	216.3134891986847	0.10000205039978027
31	85.82438707351685	response	0	4		29.0	2.5	/experiments/knapen_aot/oldvideos/R_S_yt-yQrDeFlFmfM_138.mp4	0.0	216.40526413917542	
31	85.8326141834259	movie	1		301.0	29.0	2.5	/experiments/knapen_aot/oldvideos/R_S_yt-yQrDeFlFmfM_138.mp4	0.0	216.41349124908447	2.508410930633545
31	88.34102511405945	fix_post	2		12.0	29.0	2.5	/experiments/knapen_aot/oldvideos/R_S_yt-yQrDeFlFmfM_138.mp4	0.0	218.92190217971802	0.0999460220336914
32	88.44097113609314	fix_pre	0		13.0	30.0	2.5	/experiments/knapen_aot/oldvideos/R_S_yt-4r-oovk9JWg_85.mp4	0.0	219.0218482017517	0.10832095146179199
32	88.54107618331909	response	0	4		30.0	2.5	/experiments/knapen_aot/oldvideos/R_S_yt-4r-oovk9JWg_85.mp4	0.0	219.12195324897766	
32	88.54929208755493	movie	1		301.0	30.0	2.5	/experiments/knapen_aot/oldvideos/R_S_yt-4r-oovk9JWg_85.mp4	0.0	219.1301691532135	2.5084190368652344
32	91.05771112442017	fix_post	2		12.0	30.0	2.5	/experiments/knapen_aot/oldvideos/R_S_yt-4r-oovk9JWg_85.mp4	0.0	221.63858819007874	0.09995293617248535
33	91.15766406059265	fix_pre	0		45.0	31.0	2.5	/experiments/knapen_aot/oldvideos/S_yt-yJmHtBFyhH4_15.mp4	0.0	221.73854112625122	0.37497496604919434
33	91.52436399459839	response	0	4		31.0	2.5	/experiments/knapen_aot/oldvideos/S_yt-yJmHtBFyhH4_15.mp4	0.0	222.10524106025696	
33	91.53263902664185	movie	1		301.0	31.0	2.5	/experiments/knapen_aot/oldvideos/S_yt-yJmHtBFyhH4_15.mp4	0.0	222.11351609230042	2.508316993713379
33	94.04095602035522	fix_post	2		12.0	31.0	2.5	/experiments/knapen_aot/oldvideos/S_yt-yJmHtBFyhH4_15.mp4	0.0	224.6218330860138	0.0999760627746582
34	94.14093208312988	fix_pre	0		31.0	32.0	2.5	/experiments/knapen_aot/oldvideos/R_S_yt-icd9UxxxeW0_255.mp4	0.0	224.72180914878845	0.2592000961303711
34	94.39107918739319	response	0	4		32.0	2.5	/experiments/knapen_aot/oldvideos/R_S_yt-icd9UxxxeW0_255.mp4	0.0	224.97195625305176	
34	94.40013217926025	movie	1		301.0	32.0	2.5	/experiments/knapen_aot/oldvideos/R_S_yt-icd9UxxxeW0_255.mp4	0.0	224.98100924491882	2.5074679851531982
34	96.90760016441345	fix_post	2		12.0	32.0	2.5	/experiments/knapen_aot/oldvideos/R_S_yt-icd9UxxxeW0_255.mp4	0.0	227.48847723007202	0.09999299049377441
35	97.00759315490723	fix_pre	0		25.0	33.0	2.5	/experiments/knapen_aot/oldvideos/R_S_yt-I2n2eo2zoZs_112.mp4	0.0	227.5884702205658	0.2082679271697998
35	97.20768904685974	response	0	4		33.0	2.5	/experiments/knapen_aot/oldvideos/R_S_yt-I2n2eo2zoZs_112.mp4	0.0	227.7885661125183	
35	97.21586108207703	movie	1		301.0	33.0	2.5	/experiments/knapen_aot/oldvideos/R_S_yt-I2n2eo2zoZs_112.mp4	0.0	227.7967381477356	2.508430004119873
35	99.7242910861969	fix_post	2		12.0	33.0	2.5	/experiments/knapen_aot/oldvideos/R_S_yt-I2n2eo2zoZs_112.mp4	0.0	230.30516815185547	0.09989500045776367
35	99.81603002548218	response	2	4		33.0	2.5	/experiments/knapen_aot/oldvideos/R_S_yt-I2n2eo2zoZs_112.mp4	0.0	230.39690709114075	
36	99.82418608665466	fix_pre	0		53.0	34.0	2.5	blank	1.0	230.40506315231323	0.4416639804840088
36	100.25771903991699	response	0	4		34.0	2.5	blank	1.0	230.83859610557556	
36	100.26585006713867	movie	1		301.0	34.0	2.5	blank	1.0	230.84672713279724	2.5083699226379395
36	102.77421998977661	fix_post	2		12.0	34.0	2.5	blank	1.0	233.35509705543518	0.1000680923461914
37	102.8742880821228	fix_pre	0		17.0	35.0	2.5	/experiments/knapen_aot/oldvideos/S_ILSVRC2015_train_00405001.mp4	0.0	233.45516514778137	0.14164996147155762
37	103.00761413574219	response	0	4		35.0	2.5	/experiments/knapen_aot/oldvideos/S_ILSVRC2015_train_00405001.mp4	0.0	233.58849120140076	
37	103.01593804359436	movie	1		301.0	35.0	2.5	/experiments/knapen_aot/oldvideos/S_ILSVRC2015_train_00405001.mp4	0.0	233.59681510925293	2.508255958557129
37	105.52419400215149	fix_post	2		12.0	35.0	2.5	/experiments/knapen_aot/oldvideos/S_ILSVRC2015_train_00405001.mp4	0.0	236.10507106781006	0.10005521774291992
38	105.62424921989441	fix_pre	0		1.0	36.0	2.5	/experiments/knapen_aot/oldvideos/R_S_yt-roThCERxVCs_133.mp4	0.0	236.20512628555298	0.008304834365844727
38	105.62578821182251	response	0	4		36.0	2.5	/experiments/knapen_aot/oldvideos/R_S_yt-roThCERxVCs_133.mp4	0.0	236.20666527748108	
38	105.63255405426025	movie	1		301.0	36.0	2.5	/experiments/knapen_aot/oldvideos/R_S_yt-roThCERxVCs_133.mp4	0.0	236.21343111991882	2.5084221363067627
38	107.9032371044159	response	1	4		36.0	2.5	/experiments/knapen_aot/oldvideos/R_S_yt-roThCERxVCs_133.mp4	0.0	238.48411417007446	
38	108.14097619056702	fix_post	2		12.0	36.0	2.5	/experiments/knapen_aot/oldvideos/R_S_yt-roThCERxVCs_133.mp4	0.0	238.7218532562256	0.10006189346313477
38	108.17425417900085	response	2	4		36.0	2.5	/experiments/knapen_aot/oldvideos/R_S_yt-roThCERxVCs_133.mp4	0.0	238.75513124465942	
39	108.24103808403015	fix_pre	0		25.0	37.0	2.5	/experiments/knapen_aot/oldvideos/S_yt-t-wpKypNysg_27.mp4	0.0	238.82191514968872	0.2081010341644287
39	108.43346118927002	response	0	4		37.0	2.5	/experiments/knapen_aot/oldvideos/S_yt-t-wpKypNysg_27.mp4	0.0	239.0143382549286	
39	108.44913911819458	movie	1		301.0	37.0	2.5	/experiments/knapen_aot/oldvideos/S_yt-t-wpKypNysg_27.mp4	0.0	239.03001618385315	2.5083870887756348
39	110.95752620697021	fix_post	2		12.0	37.0	2.5	/experiments/knapen_aot/oldvideos/S_yt-t-wpKypNysg_27.mp4	0.0	241.53840327262878	0.10002279281616211
39	110.98265600204468	response	2	4		37.0	2.5	/experiments/knapen_aot/oldvideos/S_yt-t-wpKypNysg_27.mp4	0.0	241.56353306770325	
40	111.05754899978638	fix_pre	0		21.0	38.0	2.5	/experiments/knapen_aot/oldvideos/R_S_ILSVRC2015_train_00594001.mp4	0.0	241.63842606544495	0.1757051944732666
40	111.2242841720581	response	0	4		38.0	2.5	/experiments/knapen_aot/oldvideos/R_S_ILSVRC2015_train_00594001.mp4	0.0	241.80516123771667	
40	111.23325419425964	movie	1		301.0	38.0	2.5	/experiments/knapen_aot/oldvideos/R_S_ILSVRC2015_train_00594001.mp4	0.0	241.8141312599182	2.5077099800109863
40	113.74096417427063	fix_post	2		12.0	38.0	2.5	/experiments/knapen_aot/oldvideos/R_S_ILSVRC2015_train_00594001.mp4	0.0	244.3218412399292	0.09991693496704102
41	113.84088110923767	fix_pre	0		329.0	39.0	2.5	/experiments/knapen_aot/oldvideos/R_S_comp_DB_D001_C005_COMP_PSNK_v12_SDR_PS_20180912_SDR_2K_AVC.mp4	0.0	244.42175817489624	2.741554021835327
41	116.5743100643158	response	0	2		39.0	2.5	/experiments/knapen_aot/oldvideos/R_S_comp_DB_D001_C005_COMP_PSNK_v12_SDR_PS_20180912_SDR_2K_AVC.mp4	0.0	247.15518712997437	
41	116.582435131073	movie	1		167.0	39.0	2.5	/experiments/knapen_aot/oldvideos/R_S_comp_DB_D001_C005_COMP_PSNK_v12_SDR_PS_20180912_SDR_2K_AVC.mp4	0.0	247.16331219673157	2.5085389614105225
41	118.8445520401001	response	1	2		39.0	2.5	/experiments/knapen_aot/oldvideos/R_S_comp_DB_D001_C005_COMP_PSNK_v12_SDR_PS_20180912_SDR_2K_AVC.mp4	0.0	249.42542910575867	
41	119.09097409248352	fix_post	2		12.0	39.0	2.5	/experiments/knapen_aot/oldvideos/R_S_comp_DB_D001_C005_COMP_PSNK_v12_SDR_PS_20180912_SDR_2K_AVC.mp4	0.0	249.6718511581421	0.10066103935241699
41	119.1014142036438	response	2	2		39.0	2.5	/experiments/knapen_aot/oldvideos/R_S_comp_DB_D001_C005_COMP_PSNK_v12_SDR_PS_20180912_SDR_2K_AVC.mp4	0.0	249.68229126930237	
42	119.19163513183594	fix_pre	0		20.0	40.0	2.5	/experiments/knapen_aot/oldvideos/S_yt-11S5tcT2Tm0_254.mp4	0.0	249.7725121974945	0.16663289070129395
42	119.34927320480347	response	0	2		40.0	2.5	/experiments/knapen_aot/oldvideos/S_yt-11S5tcT2Tm0_254.mp4	0.0	249.93015027046204	
42	119.35826802253723	movie	1		300.0	40.0	2.5	/experiments/knapen_aot/oldvideos/S_yt-11S5tcT2Tm0_254.mp4	0.0	249.9391450881958	2.507636070251465
42	119.57433700561523	response	1	2		40.0	2.5	/experiments/knapen_aot/oldvideos/S_yt-11S5tcT2Tm0_254.mp4	0.0	250.1552140712738	
42	119.82427620887756	response	1	2		40.0	2.5	/experiments/knapen_aot/oldvideos/S_yt-11S5tcT2Tm0_254.mp4	0.0	250.40515327453613	
42	120.0575761795044	response	1	2		40.0	2.5	/experiments/knapen_aot/oldvideos/S_yt-11S5tcT2Tm0_254.mp4	0.0	250.63845324516296	
42	120.2993471622467	response	1	2		40.0	2.5	/experiments/knapen_aot/oldvideos/S_yt-11S5tcT2Tm0_254.mp4	0.0	250.88022422790527	
42	120.5409300327301	response	1	2		40.0	2.5	/experiments/knapen_aot/oldvideos/S_yt-11S5tcT2Tm0_254.mp4	0.0	251.12180709838867	
42	120.76146507263184	response	1	2		40.0	2.5	/experiments/knapen_aot/oldvideos/S_yt-11S5tcT2Tm0_254.mp4	0.0	251.3423421382904	
42	120.98327422142029	response	1	2		40.0	2.5	/experiments/knapen_aot/oldvideos/S_yt-11S5tcT2Tm0_254.mp4	0.0	251.56415128707886	
42	121.22627019882202	response	1	2		40.0	2.5	/experiments/knapen_aot/oldvideos/S_yt-11S5tcT2Tm0_254.mp4	0.0	251.8071472644806	
42	121.4576141834259	response	1	2		40.0	2.5	/experiments/knapen_aot/oldvideos/S_yt-11S5tcT2Tm0_254.mp4	0.0	252.03849124908447	
42	121.67424607276917	response	1	2		40.0	2.5	/experiments/knapen_aot/oldvideos/S_yt-11S5tcT2Tm0_254.mp4	0.0	252.25512313842773	
42	121.8659040927887	fix_post	2		12.0	40.0	2.5	/experiments/knapen_aot/oldvideos/S_yt-11S5tcT2Tm0_254.mp4	0.0	252.44678115844727	0.09990692138671875
42	121.90754914283752	response	2	2		40.0	2.5	/experiments/knapen_aot/oldvideos/S_yt-11S5tcT2Tm0_254.mp4	0.0	252.4884262084961	
43	121.96581101417542	fix_pre	0		23.0	41.0	2.5	blank	1.0	252.54668807983398	0.19182705879211426
43	122.14922904968262	response	0	2		41.0	2.5	blank	1.0	252.7301061153412	
43	122.15763807296753	movie	1		301.0	41.0	2.5	blank	1.0	252.7385151386261	2.5081779956817627
43	122.63255405426025	response	1	2		41.0	2.5	blank	1.0	253.21343111991882	
43	122.8574891090393	response	1	2		41.0	2.5	blank	1.0	253.43836617469788	
43	123.10759115219116	response	1	2		41.0	2.5	blank	1.0	253.68846821784973	
43	123.29912900924683	response	1	2		41.0	2.5	blank	1.0	253.8800060749054	
43	123.51585412025452	response	1	2		41.0	2.5	blank	1.0	254.0967311859131	
43	124.66581606864929	fix_post	2		12.0	41.0	2.5	blank	1.0	255.24669313430786	0.10001611709594727
44	124.76583218574524	fix_pre	0		30.0	42.0	2.5	/experiments/knapen_aot/oldvideos/S_yt-pB9w3AA-woE_37.mp4	0.0	255.3467092514038	0.24995899200439453
44	125.00760102272034	response	0	4		42.0	2.5	/experiments/knapen_aot/oldvideos/S_yt-pB9w3AA-woE_37.mp4	0.0	255.5884780883789	
44	125.01579117774963	movie	1		301.0	42.0	2.5	/experiments/knapen_aot/oldvideos/S_yt-pB9w3AA-woE_37.mp4	0.0	255.5966682434082	2.5083730220794678
44	125.19921112060547	response	1	2		42.0	2.5	/experiments/knapen_aot/oldvideos/S_yt-pB9w3AA-woE_37.mp4	0.0	255.78008818626404	
44	127.5241641998291	fix_post	2		12.0	42.0	2.5	/experiments/knapen_aot/oldvideos/S_yt-pB9w3AA-woE_37.mp4	0.0	258.10504126548767	0.09990882873535156
45	127.62407302856445	fix_pre	0		10.0	43.0	2.5	/experiments/knapen_aot/oldvideos/R_S_yt-XBAU3cq0rZs_150.mp4	0.0	258.204950094223	0.08338618278503418
45	127.69924402236938	response	0	2		43.0	2.5	/experiments/knapen_aot/oldvideos/R_S_yt-XBAU3cq0rZs_150.mp4	0.0	258.28012108802795	
45	127.70745921134949	movie	1		301.0	43.0	2.5	/experiments/knapen_aot/oldvideos/R_S_yt-XBAU3cq0rZs_150.mp4	0.0	258.28833627700806	2.5083279609680176
45	130.2157871723175	fix_post	2		12.0	43.0	2.5	/experiments/knapen_aot/oldvideos/R_S_yt-XBAU3cq0rZs_150.mp4	0.0	260.7966642379761	0.09994292259216309
46	130.31573009490967	fix_pre	0		2.0	44.0	2.5	/experiments/knapen_aot/oldvideos/R_S_yt-0MB_IYX1fgo_44.mp4	0.0	260.89660716056824	0.016755104064941406
46	130.32427501678467	response	0	2		44.0	2.5	/experiments/knapen_aot/oldvideos/R_S_yt-0MB_IYX1fgo_44.mp4	0.0	260.90515208244324	
46	130.3324851989746	movie	1		301.0	44.0	2.5	/experiments/knapen_aot/oldvideos/R_S_yt-0MB_IYX1fgo_44.mp4	0.0	260.9133622646332	2.5084879398345947
46	132.8409731388092	fix_post	2		12.0	44.0	2.5	/experiments/knapen_aot/oldvideos/R_S_yt-0MB_IYX1fgo_44.mp4	0.0	263.4218502044678	0.09982585906982422
47	132.94079899787903	fix_pre	0		24.0	45.0	2.5	/experiments/knapen_aot/oldvideos/R_S_production_ID_3709168.mp4	0.0	263.5216760635376	0.19995713233947754
47	133.13261699676514	response	0	2		45.0	2.5	/experiments/knapen_aot/oldvideos/R_S_production_ID_3709168.mp4	0.0	263.7134940624237	
47	133.1407561302185	movie	1		199.0	45.0	2.5	/experiments/knapen_aot/oldvideos/R_S_production_ID_3709168.mp4	0.0	263.7216331958771	2.508319854736328
47	135.64907598495483	fix_post	2		12.0	45.0	2.5	/experiments/knapen_aot/oldvideos/R_S_production_ID_3709168.mp4	0.0	266.2299530506134	0.10001802444458008
48	135.7490940093994	fix_pre	0		18.0	46.0	2.5	/experiments/knapen_aot/oldvideos/R_S_yt-rPYBHkUEwwc_10.mp4	0.0	266.329971075058	0.15072917938232422
48	135.89091300964355	response	0	2		46.0	2.5	/experiments/knapen_aot/oldvideos/R_S_yt-rPYBHkUEwwc_10.mp4	0.0	266.4717900753021	
48	135.89982318878174	movie	1		301.0	46.0	2.5	/experiments/knapen_aot/oldvideos/R_S_yt-rPYBHkUEwwc_10.mp4	0.0	266.4807002544403	2.507606029510498
48	138.40742921829224	fix_post	2		12.0	46.0	2.5	/experiments/knapen_aot/oldvideos/R_S_yt-rPYBHkUEwwc_10.mp4	0.0	268.9883062839508	0.09997987747192383
49	138.50740909576416	fix_pre	0		15.0	47.0	2.5	/experiments/knapen_aot/oldvideos/S_Pexels_Videos_2795171.mp4	0.0	269.08828616142273	0.12501001358032227
49	138.6241819858551	response	0	2		47.0	2.5	/experiments/knapen_aot/oldvideos/S_Pexels_Videos_2795171.mp4	0.0	269.2050590515137	
49	138.63241910934448	movie	1		164.0	47.0	2.5	/experiments/knapen_aot/oldvideos/S_Pexels_Videos_2795171.mp4	0.0	269.21329617500305	2.508349895477295
49	141.14076900482178	fix_post	2		12.0	47.0	2.5	/experiments/knapen_aot/oldvideos/S_Pexels_Videos_2795171.mp4	0.0	271.72164607048035	0.0999290943145752
50	141.24069809913635	fix_pre	0		7.0	48.0	2.5	/experiments/knapen_aot/oldvideos/R_S_yt-wLylWnZs3z0_27.mp4	0.0	271.8215751647949	0.05834794044494629
50	141.29100513458252	response	0	2		48.0	2.5	/experiments/knapen_aot/oldvideos/R_S_yt-wLylWnZs3z0_27.mp4	0.0	271.8718822002411	
50	141.2990460395813	movie	1		301.0	48.0	2.5	/experiments/knapen_aot/oldvideos/R_S_yt-wLylWnZs3z0_27.mp4	0.0	271.87992310523987	2.5083000659942627
50	143.80734610557556	fix_post	2		12.0	48.0	2.5	/experiments/knapen_aot/oldvideos/R_S_yt-wLylWnZs3z0_27.mp4	0.0	274.38822317123413	0.10004901885986328
51	143.90739512443542	fix_pre	0		6.0	49.0	2.5	blank	1.0	274.488272190094	0.050026893615722656
51	143.9417281150818	response	0	2		49.0	2.5	blank	1.0	274.52260518074036	
51	143.95742201805115	movie	1		301.0	49.0	2.5	blank	1.0	274.5382990837097	2.5083000659942627
51	146.4657220840454	fix_post	2		12.0	49.0	2.5	blank	1.0	277.046599149704	0.10000896453857422
52	146.56573104858398	fix_pre	0		18.0	50.0	2.5	/experiments/knapen_aot/oldvideos/R_S_pexels-mikael-blomkvist-8689852.mp4	0.0	277.14660811424255	0.14995598793029785
52	146.7074739933014	response	0	2		50.0	2.5	/experiments/knapen_aot/oldvideos/R_S_pexels-mikael-blomkvist-8689852.mp4	0.0	277.28835105895996	
52	146.71568703651428	movie	1		167.0	50.0	2.5	/experiments/knapen_aot/oldvideos/R_S_pexels-mikael-blomkvist-8689852.mp4	0.0	277.29656410217285	2.5083861351013184
52	148.46584510803223	response	1	2		50.0	2.5	/experiments/knapen_aot/oldvideos/R_S_pexels-mikael-blomkvist-8689852.mp4	0.0	279.0467221736908	
52	148.71585512161255	response	1	2		50.0	2.5	/experiments/knapen_aot/oldvideos/R_S_pexels-mikael-blomkvist-8689852.mp4	0.0	279.2967321872711	
52	148.9491400718689	response	1	2		50.0	2.5	/experiments/knapen_aot/oldvideos/R_S_pexels-mikael-blomkvist-8689852.mp4	0.0	279.53001713752747	
52	149.2240731716156	fix_post	2		12.0	50.0	2.5	/experiments/knapen_aot/oldvideos/R_S_pexels-mikael-blomkvist-8689852.mp4	0.0	279.80495023727417	0.09999299049377441
53	149.32406616210938	fix_pre	0		36.0	51.0	2.5	/experiments/knapen_aot/oldvideos/R_S_yt-rlEPywo5BEQ_36.mp4	0.0	279.90494322776794	0.2999720573425293
53	149.61575508117676	response	0	2		51.0	2.5	/experiments/knapen_aot/oldvideos/R_S_yt-rlEPywo5BEQ_36.mp4	0.0	280.1966321468353	
53	149.6240382194519	movie	1		301.0	51.0	2.5	/experiments/knapen_aot/oldvideos/R_S_yt-rlEPywo5BEQ_36.mp4	0.0	280.2049152851105	2.5082647800445557
53	152.13230299949646	fix_post	2		12.0	51.0	2.5	/experiments/knapen_aot/oldvideos/R_S_yt-rlEPywo5BEQ_36.mp4	0.0	282.71318006515503	0.10009312629699707
54	152.23239612579346	fix_pre	0		11.0	52.0	2.5	/experiments/knapen_aot/oldvideos/R_S_yt-2dRSJcaJIXw_32.mp4	0.0	282.813273191452	0.09162592887878418
54	152.3158791065216	response	0	2		52.0	2.5	/experiments/knapen_aot/oldvideos/R_S_yt-2dRSJcaJIXw_32.mp4	0.0	282.8967561721802	
54	152.32402205467224	movie	1		301.0	52.0	2.5	/experiments/knapen_aot/oldvideos/R_S_yt-2dRSJcaJIXw_32.mp4	0.0	282.9048991203308	2.5083420276641846
54	154.83236408233643	fix_post	2		12.0	52.0	2.5	/experiments/knapen_aot/oldvideos/R_S_yt-2dRSJcaJIXw_32.mp4	0.0	285.413241147995	0.10016608238220215
55	154.93253016471863	fix_pre	0		9.0	53.0	2.5	/experiments/knapen_aot/oldvideos/R_S_pexels-c-technical-6753390_2.mp4	0.0	285.5134072303772	0.0747230052947998
55	154.99157309532166	response	0	2		53.0	2.5	/experiments/knapen_aot/oldvideos/R_S_pexels-c-technical-6753390_2.mp4	0.0	285.5724501609802	
55	155.00725317001343	movie	1		198.0	53.0	2.5	/experiments/knapen_aot/oldvideos/R_S_pexels-c-technical-6753390_2.mp4	0.0	285.588130235672	2.5083909034729004
55	157.51564407348633	fix_post	2		12.0	53.0	2.5	/experiments/knapen_aot/oldvideos/R_S_pexels-c-technical-6753390_2.mp4	0.0	288.0965211391449	0.10004305839538574
56	157.6156871318817	fix_pre	0		17.0	54.0	2.5	blank	1.0	288.1965641975403	0.14158391952514648
56	157.74913907051086	response	0	2		54.0	2.5	blank	1.0	288.33001613616943	
56	157.75727105140686	movie	1		301.0	54.0	2.5	blank	1.0	288.33814811706543	2.5083351135253906
56	160.26560616493225	fix_post	2		12.0	54.0	2.5	blank	1.0	290.8464832305908	0.10007691383361816
57	160.36568307876587	fix_pre	0		24.0	55.0	2.5	/experiments/knapen_aot/oldvideos/S_yt-FsylDeYfcxU_24.mp4	0.0	290.94656014442444	0.20052313804626465
57	160.55735301971436	response	0	2		55.0	2.5	/experiments/knapen_aot/oldvideos/S_yt-FsylDeYfcxU_24.mp4	0.0	291.1382300853729	
57	160.56620621681213	movie	1		301.0	55.0	2.5	/experiments/knapen_aot/oldvideos/S_yt-FsylDeYfcxU_24.mp4	0.0	291.1470832824707	2.507847785949707
57	163.07405400276184	fix_post	2		12.0	55.0	2.5	/experiments/knapen_aot/oldvideos/S_yt-FsylDeYfcxU_24.mp4	0.0	293.6549310684204	0.09993910789489746
58	163.17399311065674	fix_pre	0		4.0	56.0	2.5	/experiments/knapen_aot/oldvideos/R_S_yt-JG2OY_7B-gI_537.mp4	0.0	293.7548701763153	0.03328704833984375
58	163.19914317131042	response	0	2		56.0	2.5	/experiments/knapen_aot/oldvideos/R_S_yt-JG2OY_7B-gI_537.mp4	0.0	293.780020236969	
58	163.20728015899658	movie	1		301.0	56.0	2.5	/experiments/knapen_aot/oldvideos/R_S_yt-JG2OY_7B-gI_537.mp4	0.0	293.78815722465515	2.5084240436553955
58	165.44117212295532	response	1	2		56.0	2.5	/experiments/knapen_aot/oldvideos/R_S_yt-JG2OY_7B-gI_537.mp4	0.0	296.0220491886139	
58	165.71570420265198	fix_post	2		12.0	56.0	2.5	/experiments/knapen_aot/oldvideos/R_S_yt-JG2OY_7B-gI_537.mp4	0.0	296.29658126831055	0.09993791580200195
59	165.81564211845398	fix_pre	0		51.0	57.0	2.5	/experiments/knapen_aot/oldvideos/S_yt-r7PeFd-hIp0_378.mp4	0.0	296.39651918411255	0.4249739646911621
59	166.23261308670044	response	0	2		57.0	2.5	/experiments/knapen_aot/oldvideos/S_yt-r7PeFd-hIp0_378.mp4	0.0	296.813490152359	
59	166.24061608314514	movie	1		301.0	57.0	2.5	/experiments/knapen_aot/oldvideos/S_yt-r7PeFd-hIp0_378.mp4	0.0	296.8214931488037	2.5083200931549072
59	168.74893617630005	fix_post	2		12.0	57.0	2.5	/experiments/knapen_aot/oldvideos/S_yt-r7PeFd-hIp0_378.mp4	0.0	299.3298132419586	0.1000509262084961
60	168.84898710250854	fix_pre	0		25.0	58.0	2.5	/experiments/knapen_aot/oldvideos/S_yt-v8e_DlCsP4w_10.mp4	0.0	299.4298641681671	0.20820093154907227
60	169.04909205436707	response	0	2		58.0	2.5	/experiments/knapen_aot/oldvideos/S_yt-v8e_DlCsP4w_10.mp4	0.0	299.62996912002563	
60	169.05718803405762	movie	1		301.0	58.0	2.5	/experiments/knapen_aot/oldvideos/S_yt-v8e_DlCsP4w_10.mp4	0.0	299.6380650997162	2.5084211826324463
60	171.56560921669006	fix_post	2		12.0	58.0	2.5	/experiments/knapen_aot/oldvideos/S_yt-v8e_DlCsP4w_10.mp4	0.0	302.14648628234863	0.10002684593200684
61	171.66563606262207	fix_pre	0		25.0	59.0	2.5	/experiments/knapen_aot/oldvideos/R_S_yt-cM5PvgE7aJs_243.mp4	0.0	302.24651312828064	0.20831894874572754
61	171.85824608802795	response	0	2		59.0	2.5	/experiments/knapen_aot/oldvideos/R_S_yt-cM5PvgE7aJs_243.mp4	0.0	302.4391231536865	
61	171.8739550113678	movie	1		301.0	59.0	2.5	/experiments/knapen_aot/oldvideos/R_S_yt-cM5PvgE7aJs_243.mp4	0.0	302.45483207702637	2.5083200931549072
61	174.3822751045227	fix_post	2		12.0	59.0	2.5	/experiments/knapen_aot/oldvideos/R_S_yt-cM5PvgE7aJs_243.mp4	0.0	304.9631521701813	0.09995102882385254
62	174.48222613334656	fix_pre	0		22.0	60.0	2.5	/experiments/knapen_aot/oldvideos/R_S_8amznWxLS04_212.mp4	0.0	305.0631031990051	0.18339204788208008
62	174.65741300582886	response	0	2		60.0	2.5	/experiments/knapen_aot/oldvideos/R_S_8amznWxLS04_212.mp4	0.0	305.2382900714874	
62	174.66561818122864	movie	1		301.0	60.0	2.5	/experiments/knapen_aot/oldvideos/R_S_8amznWxLS04_212.mp4	0.0	305.2464952468872	2.5083179473876953
62	177.17393612861633	fix_post	2		12.0	60.0	2.5	/experiments/knapen_aot/oldvideos/R_S_8amznWxLS04_212.mp4	0.0	307.7548131942749	0.10009598731994629
63	177.27403211593628	fix_pre	0		17.0	61.0	2.5	/experiments/knapen_aot/oldvideos/R_S_pexels-mikhail-nilov-8410084.mp4	0.0	307.85490918159485	0.14147400856018066
63	177.40733003616333	response	0	2		61.0	2.5	/experiments/knapen_aot/oldvideos/R_S_pexels-mikhail-nilov-8410084.mp4	0.0	307.9882071018219	
63	177.41550612449646	movie	1		168.0	61.0	2.5	/experiments/knapen_aot/oldvideos/R_S_pexels-mikhail-nilov-8410084.mp4	0.0	307.99638319015503	2.508641004562378
63	179.92414712905884	fix_post	2		12.0	61.0	2.5	/experiments/knapen_aot/oldvideos/R_S_pexels-mikhail-nilov-8410084.mp4	0.0	310.5050241947174	0.09978103637695312
64	180.0239281654358	fix_pre	0		2.0	62.0	2.5	blank	1.0	310.60480523109436	0.01661205291748047
64	180.0324351787567	response	0	2		62.0	2.5	blank	1.0	310.6133122444153	
64	180.04054021835327	movie	1		301.0	62.0	2.5	blank	1.0	310.62141728401184	2.5083959102630615
64	182.54893612861633	fix_post	2		12.0	62.0	2.5	blank	1.0	313.1298131942749	0.10040998458862305
65	182.64934611320496	fix_pre	0		23.0	63.0	2.5	/experiments/knapen_aot/oldvideos/R_S_cST9H3zu3zQ_126.mp4	0.0	313.2302231788635	0.191148042678833
65	182.83237504959106	response	0	2		63.0	2.5	/experiments/knapen_aot/oldvideos/R_S_cST9H3zu3zQ_126.mp4	0.0	313.41325211524963	
65	182.8404941558838	movie	1		301.0	63.0	2.5	/experiments/knapen_aot/oldvideos/R_S_cST9H3zu3zQ_126.mp4	0.0	313.42137122154236	2.5084168910980225
65	185.3489110469818	fix_post	2		12.0	63.0	2.5	/experiments/knapen_aot/oldvideos/R_S_cST9H3zu3zQ_126.mp4	0.0	315.9297881126404	0.10002398490905762
66	185.44893503189087	fix_pre	0		16.0	64.0	2.5	/experiments/knapen_aot/oldvideos/R_S_ILSVRC2015_train_00251004.mp4	0.0	316.02981209754944	0.13323307037353516
66	185.57400012016296	response	0	2		64.0	2.5	/experiments/knapen_aot/oldvideos/R_S_ILSVRC2015_train_00251004.mp4	0.0	316.15487718582153	
66	185.5821681022644	movie	1		301.0	64.0	2.5	/experiments/knapen_aot/oldvideos/R_S_ILSVRC2015_train_00251004.mp4	0.0	316.163045167923	2.508392095565796
66	188.0905601978302	fix_post	2		12.0	64.0	2.5	/experiments/knapen_aot/oldvideos/R_S_ILSVRC2015_train_00251004.mp4	0.0	318.67143726348877	0.1003878116607666
67	188.19094800949097	fix_pre	0		13.0	65.0	2.5	/experiments/knapen_aot/oldvideos/S_yt-lCb_efvJcdE_5.mp4	0.0	318.77182507514954	0.10786604881286621
67	188.29069209098816	response	0	2		65.0	2.5	/experiments/knapen_aot/oldvideos/S_yt-lCb_efvJcdE_5.mp4	0.0	318.87156915664673	
67	188.29881405830383	movie	1		301.0	65.0	2.5	/experiments/knapen_aot/oldvideos/S_yt-lCb_efvJcdE_5.mp4	0.0	318.8796911239624	2.5083999633789062
67	190.80721402168274	fix_post	2		12.0	65.0	2.5	/experiments/knapen_aot/oldvideos/S_yt-lCb_efvJcdE_5.mp4	0.0	321.3880910873413	0.09997916221618652
68	190.90719318389893	fix_pre	0		28.0	66.0	2.5	/experiments/knapen_aot/oldvideos/S_yt-fCjjH_4i8Fg_115.mp4	0.0	321.4880702495575	0.23329591751098633
68	191.13232517242432	response	0	2		66.0	2.5	/experiments/knapen_aot/oldvideos/S_yt-fCjjH_4i8Fg_115.mp4	0.0	321.7132022380829	
68	191.1404891014099	movie	1		301.0	66.0	2.5	/experiments/knapen_aot/oldvideos/S_yt-fCjjH_4i8Fg_115.mp4	0.0	321.7213661670685	2.50838303565979
68	193.6488721370697	fix_post	2		12.0	66.0	2.5	/experiments/knapen_aot/oldvideos/S_yt-fCjjH_4i8Fg_115.mp4	0.0	324.22974920272827	0.10000205039978027
69	193.74887418746948	fix_pre	0		39.0	67.0	2.5	/experiments/knapen_aot/oldvideos/R_S_gHYomsO1dSU_5.mp4	0.0	324.32975125312805	0.32493090629577637
69	194.06563901901245	response	0	2		67.0	2.5	/experiments/knapen_aot/oldvideos/R_S_gHYomsO1dSU_5.mp4	0.0	324.646516084671	
69	194.07380509376526	movie	1		301.0	67.0	2.5	/experiments/knapen_aot/oldvideos/R_S_gHYomsO1dSU_5.mp4	0.0	324.6546821594238	2.508358955383301
69	196.58216404914856	fix_post	2		12.0	67.0	2.5	/experiments/knapen_aot/oldvideos/R_S_gHYomsO1dSU_5.mp4	0.0	327.16304111480713	0.10002398490905762
70	196.68218803405762	fix_pre	0		16.0	68.0	2.5	/experiments/knapen_aot/oldvideos/S_yt-C0INfEJ4Awk_53.mp4	0.0	327.2630650997162	0.133558988571167
70	196.80726218223572	response	0	2		68.0	2.5	/experiments/knapen_aot/oldvideos/S_yt-C0INfEJ4Awk_53.mp4	0.0	327.3881392478943	
70	196.81574702262878	movie	1		301.0	68.0	2.5	/experiments/knapen_aot/oldvideos/S_yt-C0INfEJ4Awk_53.mp4	0.0	327.39662408828735	2.508113145828247
70	199.32386016845703	fix_post	2		12.0	68.0	2.5	/experiments/knapen_aot/oldvideos/S_yt-C0INfEJ4Awk_53.mp4	0.0	329.9047372341156	0.10014891624450684
71	199.42400908470154	fix_pre	0		19.0	69.0	2.5	/experiments/knapen_aot/oldvideos/R_S_yt-aQfM-NhNSsA_136.mp4	0.0	330.0048861503601	0.15816593170166016
71	199.57390308380127	response	0	2		69.0	2.5	/experiments/knapen_aot/oldvideos/R_S_yt-aQfM-NhNSsA_136.mp4	0.0	330.15478014945984	
71	199.5821750164032	movie	1		301.0	69.0	2.5	/experiments/knapen_aot/oldvideos/R_S_yt-aQfM-NhNSsA_136.mp4	0.0	330.16305208206177	2.508721113204956
71	202.09089612960815	fix_post	2		12.0	69.0	2.5	/experiments/knapen_aot/oldvideos/R_S_yt-aQfM-NhNSsA_136.mp4	0.0	332.6717731952667	0.09981489181518555
72	202.19071102142334	fix_pre	0		12.0	70.0	2.5	blank	1.0	332.7715880870819	0.09989404678344727
72	202.2822790145874	response	0	2		70.0	2.5	blank	1.0	332.863156080246	
72	202.2906050682068	movie	1		301.0	70.0	2.5	blank	1.0	332.87148213386536	2.5083911418914795
72	204.79899621009827	fix_post	2		12.0	70.0	2.5	blank	1.0	335.37987327575684	0.10007500648498535
73	204.89907121658325	fix_pre	0		24.0	71.0	2.5	/experiments/knapen_aot/oldvideos/R_S_production_ID_4584682.mp4	0.0	335.4799482822418	0.19974088668823242
73	205.0905740261078	response	0	2		71.0	2.5	/experiments/knapen_aot/oldvideos/R_S_production_ID_4584682.mp4	0.0	335.67145109176636	
73	205.09881210327148	movie	1		165.0	71.0	2.5	/experiments/knapen_aot/oldvideos/R_S_production_ID_4584682.mp4	0.0	335.67968916893005	2.5085999965667725
73	207.60741209983826	fix_post	2		12.0	71.0	2.5	/experiments/knapen_aot/oldvideos/R_S_production_ID_4584682.mp4	0.0	338.1882891654968	0.09984302520751953
74	207.70725512504578	fix_pre	0		13.0	72.0	2.5	/experiments/knapen_aot/oldvideos/S_meta-11482036_235.mp4	0.0	338.28813219070435	0.10838603973388672
74	207.807195186615	response	0	2		72.0	2.5	/experiments/knapen_aot/oldvideos/S_meta-11482036_235.mp4	0.0	338.38807225227356	
74	207.81564116477966	movie	1		301.0	72.0	2.5	/experiments/knapen_aot/oldvideos/S_meta-11482036_235.mp4	0.0	338.39651823043823	2.5081429481506348
74	210.3237841129303	fix_post	2		12.0	72.0	2.5	/experiments/knapen_aot/oldvideos/S_meta-11482036_235.mp4	0.0	340.90466117858887	0.09999799728393555
75	210.42378211021423	fix_pre	0		21.0	73.0	2.5	/experiments/knapen_aot/oldvideos/R_S_yt-H-qQ0oE1kwM_6.mp4	0.0	341.0046591758728	0.17497801780700684
75	210.59053015708923	response	0	2		73.0	2.5	/experiments/knapen_aot/oldvideos/R_S_yt-H-qQ0oE1kwM_6.mp4	0.0	341.1714072227478	
75	210.59876012802124	movie	1		301.0	73.0	2.5	/experiments/knapen_aot/oldvideos/R_S_yt-H-qQ0oE1kwM_6.mp4	0.0	341.1796371936798	2.50858998298645
75	213.1073501110077	fix_post	2		12.0	73.0	2.5	/experiments/knapen_aot/oldvideos/R_S_yt-H-qQ0oE1kwM_6.mp4	0.0	343.68822717666626	0.09973597526550293
76	213.2070860862732	fix_pre	0		43.0	74.0	2.5	/experiments/knapen_aot/oldvideos/R_S_yt-mHLTJkMrkZI_143.mp4	0.0	343.78796315193176	0.3585059642791748
76	213.55727219581604	response	0	2		74.0	2.5	/experiments/knapen_aot/oldvideos/R_S_yt-mHLTJkMrkZI_143.mp4	0.0	344.1381492614746	
76	213.56559205055237	movie	1		301.0	74.0	2.5	/experiments/knapen_aot/oldvideos/R_S_yt-mHLTJkMrkZI_143.mp4	0.0	344.14646911621094	2.5082180500030518
76	216.07381010055542	fix_post	2		12.0	74.0	2.5	/experiments/knapen_aot/oldvideos/R_S_yt-mHLTJkMrkZI_143.mp4	0.0	346.654687166214	0.0999600887298584
77	216.17377018928528	fix_pre	0		16.0	75.0	2.5	/experiments/knapen_aot/oldvideos/S_yt-5ws2gxbcjs4_381.mp4	0.0	346.75464725494385	0.13325095176696777
77	216.29123306274414	response	0	2		75.0	2.5	/experiments/knapen_aot/oldvideos/S_yt-5ws2gxbcjs4_381.mp4	0.0	346.8721101284027	
77	216.30702114105225	movie	1		301.0	75.0	2.5	/experiments/knapen_aot/oldvideos/S_yt-5ws2gxbcjs4_381.mp4	0.0	346.8878982067108	2.5090320110321045
77	218.81605315208435	fix_post	2		12.0	75.0	2.5	/experiments/knapen_aot/oldvideos/S_yt-5ws2gxbcjs4_381.mp4	0.0	349.3969302177429	0.0993340015411377
78	218.9153871536255	fix_pre	0		28.0	76.0	2.5	blank	1.0	349.49626421928406	0.23354792594909668
78	219.13294100761414	response	0	2		76.0	2.5	blank	1.0	349.7138180732727	
78	219.14893507957458	movie	1		301.0	76.0	2.5	blank	1.0	349.72981214523315	2.5081520080566406
78	221.65708708763123	fix_post	2		12.0	76.0	2.5	blank	1.0	352.2379641532898	0.09999394416809082
79	221.75708103179932	fix_pre	0		23.0	77.0	2.5	/experiments/knapen_aot/oldvideos/R_S_ILSVRC2015_train_00044004.mp4	0.0	352.3379580974579	0.19160795211791992
79	221.94056606292725	response	0	2		77.0	2.5	/experiments/knapen_aot/oldvideos/R_S_ILSVRC2015_train_00044004.mp4	0.0	352.5214431285858	
79	221.94868898391724	movie	1		301.0	77.0	2.5	/experiments/knapen_aot/oldvideos/R_S_ILSVRC2015_train_00044004.mp4	0.0	352.5295660495758	2.5083770751953125
79	224.45706605911255	fix_post	2		12.0	77.0	2.5	/experiments/knapen_aot/oldvideos/R_S_ILSVRC2015_train_00044004.mp4	0.0	355.0379431247711	0.10001111030578613
79	224.54050612449646	response	2	2		77.0	2.5	/experiments/knapen_aot/oldvideos/R_S_ILSVRC2015_train_00044004.mp4	0.0	355.12138319015503	
80	224.55707716941833	fix_pre	0		46.0	78.0	2.5	/experiments/knapen_aot/oldvideos/S_yt-RKo978aBdzw_173.mp4	0.0	355.1379542350769	0.3834519386291504
80	224.93220615386963	response	0	2		78.0	2.5	/experiments/knapen_aot/oldvideos/S_yt-RKo978aBdzw_173.mp4	0.0	355.5130832195282	
80	224.94052910804749	movie	1		301.0	78.0	2.5	/experiments/knapen_aot/oldvideos/S_yt-RKo978aBdzw_173.mp4	0.0	355.52140617370605	2.508241891860962
80	227.44877099990845	fix_post	2		12.0	78.0	2.5	/experiments/knapen_aot/oldvideos/S_yt-RKo978aBdzw_173.mp4	0.0	358.029648065567	0.09999918937683105
81	227.54877018928528	fix_pre	0		2.0	79.0	2.5	/experiments/knapen_aot/oldvideos/S_ILSVRC2015_train_00594001.mp4	0.0	358.12964725494385	0.01719498634338379
81	227.55901718139648	response	0	2		79.0	2.5	/experiments/knapen_aot/oldvideos/S_ILSVRC2015_train_00594001.mp4	0.0	358.13989424705505	
81	227.56596517562866	movie	1		301.0	79.0	2.5	/experiments/knapen_aot/oldvideos/S_ILSVRC2015_train_00594001.mp4	0.0	358.14684224128723	2.50779390335083
81	230.0737590789795	fix_post	2		12.0	79.0	2.5	/experiments/knapen_aot/oldvideos/S_ILSVRC2015_train_00594001.mp4	0.0	360.65463614463806	0.09997391700744629
82	230.17373299598694	fix_pre	0		12.0	80.0	2.5	/experiments/knapen_aot/oldvideos/R_S_comp_A001_C004_1207W5_v23_SDR_FINAL_20180706_SDR_2K_AVC.mp4	0.0	360.7546100616455	0.10004711151123047
82	230.2580051422119	response	0	2		80.0	2.5	/experiments/knapen_aot/oldvideos/R_S_comp_A001_C004_1207W5_v23_SDR_FINAL_20180706_SDR_2K_AVC.mp4	0.0	360.8388822078705	
82	230.27378010749817	movie	1		166.0	80.0	2.5	/experiments/knapen_aot/oldvideos/R_S_comp_A001_C004_1207W5_v23_SDR_FINAL_20180706_SDR_2K_AVC.mp4	0.0	360.85465717315674	2.5082950592041016
82	232.78207516670227	fix_post	2		12.0	80.0	2.5	/experiments/knapen_aot/oldvideos/R_S_comp_A001_C004_1207W5_v23_SDR_FINAL_20180706_SDR_2K_AVC.mp4	0.0	363.36295223236084	0.09999799728393555
83	232.8820731639862	fix_pre	0		1.0	81.0	2.5	/experiments/knapen_aot/oldvideos/R_S_yt-GETRVzxihhM_74.mp4	0.0	363.4629502296448	0.010135889053344727
83	232.88371515274048	response	0	2		81.0	2.5	/experiments/knapen_aot/oldvideos/R_S_yt-GETRVzxihhM_74.mp4	0.0	363.46459221839905	
83	232.89220905303955	movie	1		301.0	81.0	2.5	/experiments/knapen_aot/oldvideos/R_S_yt-GETRVzxihhM_74.mp4	0.0	363.4730861186981	2.5067570209503174
83	235.39896607398987	fix_post	2		12.0	81.0	2.5	/experiments/knapen_aot/oldvideos/R_S_yt-GETRVzxihhM_74.mp4	0.0	365.97984313964844	0.09975695610046387
84	235.49872303009033	fix_pre	0		7.0	82.0	2.5	/experiments/knapen_aot/oldvideos/S_KP_A010_C002_SDR_20190717_SDR_2K_AVC.mp4	0.0	366.0796000957489	0.05829501152038574
84	235.54879117012024	response	0	2		82.0	2.5	/experiments/knapen_aot/oldvideos/S_KP_A010_C002_SDR_20190717_SDR_2K_AVC.mp4	0.0	366.1296682357788	
84	235.55701804161072	movie	1		165.0	82.0	2.5	/experiments/knapen_aot/oldvideos/S_KP_A010_C002_SDR_20190717_SDR_2K_AVC.mp4	0.0	366.1378951072693	2.5084850788116455
84	238.06550312042236	fix_post	2		12.0	82.0	2.5	/experiments/knapen_aot/oldvideos/S_KP_A010_C002_SDR_20190717_SDR_2K_AVC.mp4	0.0	368.64638018608093	0.09990787506103516
85	238.1654109954834	fix_pre	0		7.0	83.0	2.5	blank	1.0	368.74628806114197	0.05831599235534668
85	238.2154769897461	response	0	2		83.0	2.5	blank	1.0	368.79635405540466	
85	238.22372698783875	movie	1		301.0	83.0	2.5	blank	1.0	368.8046040534973	2.508390188217163
85	240.7321171760559	fix_post	2		12.0	83.0	2.5	blank	1.0	371.3129942417145	0.09993696212768555
87	240.8320541381836	stim	0		457.0					371.41293120384216	3.8082468509674072
87	241.11549019813538	response	0	2						371.69636726379395	
87	244.63247418403625	response	0	space						375.2133512496948	
