trial_nr	onset	event_type	phase	response	nr_frames	movie_index	movie_duration	movie_file	blank	onset_abs	duration
0	0.1584780216217041	stim	0		60.0					117.6046130657196	0.5000009536743164
0	0.6500680446624756	response	0	space						118.09620308876038	
1	0.6584789752960205	stim	0		121.0					118.10461401939392	1.007767915725708
1	1.6662468910217285	stim	1		120.0					119.11238193511963	1.0001111030578613
1	1.9413599967956543	response	1	space						119.38749504089355	
2	2.66635799407959	fix_pre	0		3.0	0.0	2.5	/experiments/knapen_aot/videos/R_S_bing-www_nbcnews_com_storyline_isis-terror_fall-isis-stronghold-raqqa-will-change-war-extremists-not-end-n808621_86.mp4	0.0	120.11249303817749	0.02649402618408203
2	2.683548927307129	response	0	space		0.0	2.5	/experiments/knapen_aot/videos/R_S_bing-www_nbcnews_com_storyline_isis-terror_fall-isis-stronghold-raqqa-will-change-war-extremists-not-end-n808621_86.mp4	0.0	120.12968397140503	
2	2.692852020263672	movie	1		167.0	0.0	2.5	/experiments/knapen_aot/videos/R_S_bing-www_nbcnews_com_storyline_isis-terror_fall-isis-stronghold-raqqa-will-change-war-extremists-not-end-n808621_86.mp4	0.0	120.13898706436157	2.5066490173339844
2	5.199501037597656	fix_post	2		12.0	0.0	2.5	/experiments/knapen_aot/videos/R_S_bing-www_nbcnews_com_storyline_isis-terror_fall-isis-stronghold-raqqa-will-change-war-extremists-not-end-n808621_86.mp4	0.0	122.64563608169556	0.10003995895385742
3	5.299540996551514	fix_pre	0		4.0	1.0	2.5	/experiments/knapen_aot/videos/R_S_yt-N7ztk2fa3Ls_137.mp4	0.0	122.74567604064941	0.042143821716308594
3	5.330190896987915	response	0	2		1.0	2.5	/experiments/knapen_aot/videos/R_S_yt-N7ztk2fa3Ls_137.mp4	0.0	122.77632594108582	
3	5.341684818267822	movie	1		300.0	1.0	2.5	/experiments/knapen_aot/videos/R_S_yt-N7ztk2fa3Ls_137.mp4	0.0	122.78781986236572	2.4994702339172363
3	7.841155052185059	fix_post	2		12.0	1.0	2.5	/experiments/knapen_aot/videos/R_S_yt-N7ztk2fa3Ls_137.mp4	0.0	125.28729009628296	0.10007381439208984
4	7.941228866577148	fix_pre	0		1.0	2.0	2.5	/experiments/knapen_aot/videos/R_S_yt-CNq5mTA8oXY_176.mp4	0.0	125.38736391067505	0.008533954620361328
4	7.942931890487671	response	0	2		2.0	2.5	/experiments/knapen_aot/videos/R_S_yt-CNq5mTA8oXY_176.mp4	0.0	125.38906693458557	
4	7.94976282119751	movie	1		301.0	2.0	2.5	/experiments/knapen_aot/videos/R_S_yt-CNq5mTA8oXY_176.mp4	0.0	125.39589786529541	2.508071184158325
4	10.457834005355835	fix_post	2		12.0	2.0	2.5	/experiments/knapen_aot/videos/R_S_yt-CNq5mTA8oXY_176.mp4	0.0	127.90396904945374	0.09998488426208496
5	10.55781888961792	fix_pre	0		12.0	3.0	2.5	/experiments/knapen_aot/videos/S_pexels-anthony-shkraba-7569650.mp4	0.0	128.00395393371582	0.10022211074829102
5	10.642278909683228	response	0	2		3.0	2.5	/experiments/knapen_aot/videos/S_pexels-anthony-shkraba-7569650.mp4	0.0	128.08841395378113	
5	10.658041000366211	movie	1		191.0	3.0	2.5	/experiments/knapen_aot/videos/S_pexels-anthony-shkraba-7569650.mp4	0.0	128.1041760444641	2.508178949356079
5	13.16621994972229	fix_post	2		12.0	3.0	2.5	/experiments/knapen_aot/videos/S_pexels-anthony-shkraba-7569650.mp4	0.0	130.6123549938202	0.10001397132873535
6	13.266233921051025	fix_pre	0		20.0	4.0	2.5	/experiments/knapen_aot/videos/R_S_yt-x7TqP8l4lCA_39.mp4	0.0	130.71236896514893	0.16662812232971191
6	13.424695014953613	response	0	2		4.0	2.5	/experiments/knapen_aot/videos/R_S_yt-x7TqP8l4lCA_39.mp4	0.0	130.8708300590515	
6	13.432862043380737	movie	1		300.0	4.0	2.5	/experiments/knapen_aot/videos/R_S_yt-x7TqP8l4lCA_39.mp4	0.0	130.87899708747864	2.5082669258117676
6	15.941128969192505	fix_post	2		12.0	4.0	2.5	/experiments/knapen_aot/videos/R_S_yt-x7TqP8l4lCA_39.mp4	0.0	133.3872640132904	0.09998393058776855
7	16.041112899780273	fix_pre	0		29.0	5.0	2.5	/experiments/knapen_aot/videos/R_S_yt-ybH6uAiFbjc_273.mp4	0.0	133.48724794387817	0.24183297157287598
7	16.274610996246338	response	0	2		5.0	2.5	/experiments/knapen_aot/videos/R_S_yt-ybH6uAiFbjc_273.mp4	0.0	133.72074604034424	
7	16.28294587135315	movie	1		301.0	5.0	2.5	/experiments/knapen_aot/videos/R_S_yt-ybH6uAiFbjc_273.mp4	0.0	133.72908091545105	2.508157968521118
7	18.791103839874268	fix_post	2		12.0	5.0	2.5	/experiments/knapen_aot/videos/R_S_yt-ybH6uAiFbjc_273.mp4	0.0	136.23723888397217	0.09994006156921387
8	18.89104390144348	fix_pre	0		36.0	6.0	2.5	/experiments/knapen_aot/videos/S_production_ID_3927047.mp4	0.0	136.33717894554138	0.30008411407470703
8	19.182960033416748	response	0	2		6.0	2.5	/experiments/knapen_aot/videos/S_production_ID_3927047.mp4	0.0	136.62909507751465	
8	19.19112801551819	movie	1		198.0	6.0	2.5	/experiments/knapen_aot/videos/S_production_ID_3927047.mp4	0.0	136.6372630596161	2.5084338188171387
8	21.699561834335327	fix_post	2		12.0	6.0	2.5	/experiments/knapen_aot/videos/S_production_ID_3927047.mp4	0.0	139.14569687843323	0.09992504119873047
9	21.799486875534058	fix_pre	0		29.0	7.0	2.5	blank	1.0	139.24562191963196	0.24166512489318848
9	22.032958984375	response	0	2		7.0	2.5	blank	1.0	139.4790940284729	
9	22.041152000427246	movie	1		301.0	7.0	2.5	blank	1.0	139.48728704452515	2.5082578659057617
9	24.549409866333008	fix_post	2		12.0	7.0	2.5	blank	1.0	141.9955449104309	0.10002899169921875
10	24.649438858032227	fix_pre	0		37.0	8.0	2.5	/experiments/knapen_aot/videos/R_S_pexels-rodnae-productions-5993237.mp4	0.0	142.09557390213013	0.3083610534667969
10	24.94957995414734	response	0	2		8.0	2.5	/experiments/knapen_aot/videos/R_S_pexels-rodnae-productions-5993237.mp4	0.0	142.39571499824524	
10	24.957799911499023	movie	1		162.0	8.0	2.5	/experiments/knapen_aot/videos/R_S_pexels-rodnae-productions-5993237.mp4	0.0	142.40393495559692	2.508327007293701
10	27.466126918792725	fix_post	2		12.0	8.0	2.5	/experiments/knapen_aot/videos/R_S_pexels-rodnae-productions-5993237.mp4	0.0	144.91226196289062	0.09995293617248535
11	27.56607985496521	fix_pre	0		11.0	9.0	2.5	/experiments/knapen_aot/videos/R_S_production_ID_3709168.mp4	0.0	145.0122148990631	0.09173917770385742
11	27.6496000289917	response	0	2		9.0	2.5	/experiments/knapen_aot/videos/R_S_production_ID_3709168.mp4	0.0	145.0957350730896	
11	27.657819032669067	movie	1		207.0	9.0	2.5	/experiments/knapen_aot/videos/R_S_production_ID_3709168.mp4	0.0	145.10395407676697	2.508286952972412
11	30.16610598564148	fix_post	2		12.0	9.0	2.5	/experiments/knapen_aot/videos/R_S_production_ID_3709168.mp4	0.0	147.61224102973938	0.09999990463256836
12	30.266105890274048	fix_pre	0		36.0	10.0	2.5	/experiments/knapen_aot/videos/R_S_yt-ZTAaH5XbtfE_3.mp4	0.0	147.71224093437195	0.29996514320373535
12	30.550281047821045	response	0	2		10.0	2.5	/experiments/knapen_aot/videos/R_S_yt-ZTAaH5XbtfE_3.mp4	0.0	147.99641609191895	
12	30.566071033477783	movie	1		301.0	10.0	2.5	/experiments/knapen_aot/videos/R_S_yt-ZTAaH5XbtfE_3.mp4	0.0	148.01220607757568	2.5084068775177
12	33.07447791099548	fix_post	2		12.0	10.0	2.5	/experiments/knapen_aot/videos/R_S_yt-ZTAaH5XbtfE_3.mp4	0.0	150.52061295509338	0.09983301162719727
13	33.17431092262268	fix_pre	0		30.0	11.0	2.5	/experiments/knapen_aot/videos/R_S_yt-jcuaf9iSEkI_169.mp4	0.0	150.62044596672058	0.25006699562072754
13	33.41618990898132	response	0	2		11.0	2.5	/experiments/knapen_aot/videos/R_S_yt-jcuaf9iSEkI_169.mp4	0.0	150.86232495307922	
13	33.42437791824341	movie	1		301.0	11.0	2.5	/experiments/knapen_aot/videos/R_S_yt-jcuaf9iSEkI_169.mp4	0.0	150.8705129623413	2.50839900970459
13	35.932776927948	fix_post	2		12.0	11.0	2.5	/experiments/knapen_aot/videos/R_S_yt-jcuaf9iSEkI_169.mp4	0.0	153.3789119720459	0.09998798370361328
14	36.03276491165161	fix_pre	0		14.0	12.0	2.5	/experiments/knapen_aot/videos/S_PA_A002_C009_SDR_20190730_ALT01_SDR_2K_AVC.mp4	0.0	153.4788999557495	0.11660909652709961
14	36.14112997055054	response	0	2		12.0	2.5	/experiments/knapen_aot/videos/S_PA_A002_C009_SDR_20190730_ALT01_SDR_2K_AVC.mp4	0.0	153.58726501464844	
14	36.14937400817871	movie	1		164.0	12.0	2.5	/experiments/knapen_aot/videos/S_PA_A002_C009_SDR_20190730_ALT01_SDR_2K_AVC.mp4	0.0	153.5955090522766	2.5083839893341064
14	38.65775799751282	fix_post	2		12.0	12.0	2.5	/experiments/knapen_aot/videos/S_PA_A002_C009_SDR_20190730_ALT01_SDR_2K_AVC.mp4	0.0	156.10389304161072	0.09994983673095703
15	38.757707834243774	fix_pre	0		45.0	13.0	2.5	/experiments/knapen_aot/videos/S_yt-T9Vwt7wFvPk_100.mp4	0.0	156.20384287834167	0.37497615814208984
15	39.12457990646362	response	0	2		13.0	2.5	/experiments/knapen_aot/videos/S_yt-T9Vwt7wFvPk_100.mp4	0.0	156.57071495056152	
15	39.132683992385864	movie	1		301.0	13.0	2.5	/experiments/knapen_aot/videos/S_yt-T9Vwt7wFvPk_100.mp4	0.0	156.57881903648376	2.5082478523254395
15	41.640931844711304	fix_post	2		12.0	13.0	2.5	/experiments/knapen_aot/videos/S_yt-T9Vwt7wFvPk_100.mp4	0.0	159.0870668888092	0.10008907318115234
16	41.741020917892456	fix_pre	0		23.0	14.0	2.5	blank	1.0	159.18715596199036	0.19160890579223633
16	41.924458026885986	response	0	2		14.0	2.5	blank	1.0	159.3705930709839	
16	41.93262982368469	movie	1		301.0	14.0	2.5	blank	1.0	159.3787648677826	2.508334159851074
16	44.44096398353577	fix_post	2		12.0	14.0	2.5	blank	1.0	161.88709902763367	0.10001087188720703
17	44.540974855422974	fix_pre	0		25.0	15.0	2.5	/experiments/knapen_aot/videos/S_yt-dO0OuozAgt0_225.mp4	0.0	161.98710989952087	0.20836997032165527
17	44.74117302894592	response	0	2		15.0	2.5	/experiments/knapen_aot/videos/S_yt-dO0OuozAgt0_225.mp4	0.0	162.18730807304382	
17	44.74934482574463	movie	1		301.0	15.0	2.5	/experiments/knapen_aot/videos/S_yt-dO0OuozAgt0_225.mp4	0.0	162.19547986984253	2.5082850456237793
17	47.25762987136841	fix_post	2		12.0	15.0	2.5	/experiments/knapen_aot/videos/S_yt-dO0OuozAgt0_225.mp4	0.0	164.7037649154663	0.10004210472106934
18	47.35767197608948	fix_pre	0		11.0	16.0	2.5	/experiments/knapen_aot/videos/S_yt-11VGDAOVEag_8.mp4	0.0	164.80380702018738	0.10007786750793457
18	47.44951295852661	response	0	2		16.0	2.5	/experiments/knapen_aot/videos/S_yt-11VGDAOVEag_8.mp4	0.0	164.8956480026245	
18	47.45774984359741	movie	1		301.0	16.0	2.5	/experiments/knapen_aot/videos/S_yt-11VGDAOVEag_8.mp4	0.0	164.9038848876953	2.508242130279541
18	49.96599197387695	fix_post	2		12.0	16.0	2.5	/experiments/knapen_aot/videos/S_yt-11VGDAOVEag_8.mp4	0.0	167.41212701797485	0.09995484352111816
19	50.06594681739807	fix_pre	0		29.0	17.0	2.5	/experiments/knapen_aot/videos/S_video-8.mp4	0.0	167.51208186149597	0.24167704582214355
19	50.29951786994934	response	0	2		17.0	2.5	/experiments/knapen_aot/videos/S_video-8.mp4	0.0	167.74565291404724	
19	50.307623863220215	movie	1		192.0	17.0	2.5	/experiments/knapen_aot/videos/S_video-8.mp4	0.0	167.75375890731812	2.508251190185547
19	52.81587505340576	fix_post	2		12.0	17.0	2.5	/experiments/knapen_aot/videos/S_video-8.mp4	0.0	170.26201009750366	0.10011076927185059
20	52.91598582267761	fix_pre	0		21.0	18.0	2.5	/experiments/knapen_aot/videos/S_yt-6DJulOrg2-8_122.mp4	0.0	170.3621208667755	0.17490506172180176
20	53.08280682563782	response	0	2		18.0	2.5	/experiments/knapen_aot/videos/S_yt-6DJulOrg2-8_122.mp4	0.0	170.52894186973572	
20	53.090890884399414	movie	1		300.0	18.0	2.5	/experiments/knapen_aot/videos/S_yt-6DJulOrg2-8_122.mp4	0.0	170.53702592849731	2.508345127105713
20	55.59923601150513	fix_post	2		12.0	18.0	2.5	/experiments/knapen_aot/videos/S_yt-6DJulOrg2-8_122.mp4	0.0	173.04537105560303	0.10010194778442383
21	55.69933795928955	fix_pre	0		33.0	19.0	2.5	/experiments/knapen_aot/videos/S_yt-tqxZlasEvZA_43.mp4	0.0	173.14547300338745	0.27496790885925293
21	55.95867300033569	response	0	2		19.0	2.5	/experiments/knapen_aot/videos/S_yt-tqxZlasEvZA_43.mp4	0.0	173.4048080444336	
21	55.974305868148804	movie	1		301.0	19.0	2.5	/experiments/knapen_aot/videos/S_yt-tqxZlasEvZA_43.mp4	0.0	173.4204409122467	2.508334159851074
21	58.48264002799988	fix_post	2		12.0	19.0	2.5	/experiments/knapen_aot/videos/S_yt-tqxZlasEvZA_43.mp4	0.0	175.92877507209778	0.09994292259216309
22	58.58258295059204	fix_pre	0		23.0	20.0	2.5	/experiments/knapen_aot/videos/R_S_yt-Ev39pXXfr1Y_152.mp4	0.0	176.02871799468994	0.19170403480529785
22	58.76600098609924	response	0	2		20.0	2.5	/experiments/knapen_aot/videos/R_S_yt-Ev39pXXfr1Y_152.mp4	0.0	176.21213603019714	
22	58.77428698539734	movie	1		301.0	20.0	2.5	/experiments/knapen_aot/videos/R_S_yt-Ev39pXXfr1Y_152.mp4	0.0	176.22042202949524	2.508384943008423
22	61.28267192840576	fix_post	2		12.0	20.0	2.5	/experiments/knapen_aot/videos/R_S_yt-Ev39pXXfr1Y_152.mp4	0.0	178.72880697250366	0.09993100166320801
23	61.38260293006897	fix_pre	0		13.0	21.0	2.5	blank	1.0	178.82873797416687	0.1083059310913086
23	61.48275089263916	response	0	2		21.0	2.5	blank	1.0	178.92888593673706	
23	61.49090886116028	movie	1		301.0	21.0	2.5	blank	1.0	178.93704390525818	2.508355140686035
23	63.99926400184631	fix_post	2		12.0	21.0	2.5	blank	1.0	181.4453990459442	0.09998703002929688
24	64.09925103187561	fix_pre	0		24.0	22.0	2.5	/experiments/knapen_aot/videos/S_production_ID_4124475.mp4	0.0	181.5453860759735	0.19998788833618164
24	64.2909848690033	response	0	2		22.0	2.5	/experiments/knapen_aot/videos/S_production_ID_4124475.mp4	0.0	181.7371199131012	
24	64.29923892021179	movie	1		166.0	22.0	2.5	/experiments/knapen_aot/videos/S_production_ID_4124475.mp4	0.0	181.7453739643097	2.5082900524139404
24	66.80752897262573	fix_post	2		12.0	22.0	2.5	/experiments/knapen_aot/videos/S_production_ID_4124475.mp4	0.0	184.25366401672363	0.10006594657897949
25	66.90759491920471	fix_pre	0		1.0	23.0	2.5	/experiments/knapen_aot/videos/S_ILSVRC2015_train_00599000.mp4	0.0	184.3537299633026	0.008296012878417969
25	66.9092059135437	response	0	2		23.0	2.5	/experiments/knapen_aot/videos/S_ILSVRC2015_train_00599000.mp4	0.0	184.3553409576416	
25	66.91589093208313	movie	1		301.0	23.0	2.5	/experiments/knapen_aot/videos/S_ILSVRC2015_train_00599000.mp4	0.0	184.36202597618103	2.508358955383301
25	69.42424988746643	fix_post	2		12.0	23.0	2.5	/experiments/knapen_aot/videos/S_ILSVRC2015_train_00599000.mp4	0.0	186.87038493156433	0.0999441146850586
26	69.52419400215149	fix_pre	0		27.0	24.0	2.5	/experiments/knapen_aot/videos/R_S_yt-x7TqP8l4lCA_39.mp4	0.0	186.9703290462494	0.22506499290466309
26	69.73352384567261	response	0	2		24.0	2.5	/experiments/knapen_aot/videos/R_S_yt-x7TqP8l4lCA_39.mp4	0.0	187.1796588897705	
26	69.74925899505615	movie	1		301.0	24.0	2.5	/experiments/knapen_aot/videos/R_S_yt-x7TqP8l4lCA_39.mp4	0.0	187.19539403915405	2.5083329677581787
26	72.25759196281433	fix_post	2		12.0	24.0	2.5	/experiments/knapen_aot/videos/R_S_yt-x7TqP8l4lCA_39.mp4	0.0	189.70372700691223	0.09992694854736328
27	72.3575189113617	fix_pre	0		23.0	25.0	2.5	/experiments/knapen_aot/videos/R_S_ILSVRC2015_train_00599000.mp4	0.0	189.8036539554596	0.19167804718017578
27	72.54102301597595	response	0	2		25.0	2.5	/experiments/knapen_aot/videos/R_S_ILSVRC2015_train_00599000.mp4	0.0	189.98715806007385	
27	72.54919695854187	movie	1		301.0	25.0	2.5	/experiments/knapen_aot/videos/R_S_ILSVRC2015_train_00599000.mp4	0.0	189.99533200263977	2.508380889892578
27	75.05757784843445	fix_post	2		12.0	25.0	2.5	/experiments/knapen_aot/videos/R_S_ILSVRC2015_train_00599000.mp4	0.0	192.50371289253235	0.09998202323913574
28	75.15755987167358	fix_pre	0		24.0	26.0	2.5	/experiments/knapen_aot/videos/R_S_bing-www_cnet_com_videos_amazon-wants-to-put-alexa-on-your-pc__50.mp4	0.0	192.60369491577148	0.2012190818786621
28	75.34928297996521	response	0	2		26.0	2.5	/experiments/knapen_aot/videos/R_S_bing-www_cnet_com_videos_amazon-wants-to-put-alexa-on-your-pc__50.mp4	0.0	192.7954180240631	
28	75.35877895355225	movie	1		162.0	26.0	2.5	/experiments/knapen_aot/videos/R_S_bing-www_cnet_com_videos_amazon-wants-to-put-alexa-on-your-pc__50.mp4	0.0	192.80491399765015	2.507111072540283
28	77.86589002609253	fix_post	2		12.0	26.0	2.5	/experiments/knapen_aot/videos/R_S_bing-www_cnet_com_videos_amazon-wants-to-put-alexa-on-your-pc__50.mp4	0.0	195.31202507019043	0.09994888305664062
29	77.96583890914917	fix_pre	0		47.0	27.0	2.5	blank	1.0	195.41197395324707	0.3917050361633301
29	78.34925389289856	response	0	2		27.0	2.5	blank	1.0	195.79538893699646	
29	78.3575439453125	movie	1		301.0	27.0	2.5	blank	1.0	195.8036789894104	2.5083110332489014
29	80.8658549785614	fix_post	2		12.0	27.0	2.5	blank	1.0	198.3119900226593	0.09997701644897461
30	80.96583199501038	fix_pre	0		43.0	28.0	2.5	/experiments/knapen_aot/videos/S_yt-EuyfT0PuOoQ_91.mp4	0.0	198.41196703910828	0.35831689834594727
30	81.31600189208984	response	0	2		28.0	2.5	/experiments/knapen_aot/videos/S_yt-EuyfT0PuOoQ_91.mp4	0.0	198.76213693618774	
30	81.32414889335632	movie	1		301.0	28.0	2.5	/experiments/knapen_aot/videos/S_yt-EuyfT0PuOoQ_91.mp4	0.0	198.77028393745422	2.508394956588745
30	83.83254384994507	fix_post	2		12.0	28.0	2.5	/experiments/knapen_aot/videos/S_yt-EuyfT0PuOoQ_91.mp4	0.0	201.27867889404297	0.09993314743041992
31	83.93247699737549	fix_pre	0		7.0	29.0	2.5	/experiments/knapen_aot/videos/R_S_comp_A050_C004_1027V8_v16_SDR_FINAL_20180706_SDR_2K_AVC.mp4	0.0	201.3786120414734	0.05845284461975098
31	83.98332285881042	response	0	2		29.0	2.5	/experiments/knapen_aot/videos/R_S_comp_A050_C004_1027V8_v16_SDR_FINAL_20180706_SDR_2K_AVC.mp4	0.0	201.42945790290833	
31	83.99092984199524	movie	1		171.0	29.0	2.5	/experiments/knapen_aot/videos/R_S_comp_A050_C004_1027V8_v16_SDR_FINAL_20180706_SDR_2K_AVC.mp4	0.0	201.43706488609314	2.508254051208496
31	86.49918389320374	fix_post	2		12.0	29.0	2.5	/experiments/knapen_aot/videos/R_S_comp_A050_C004_1027V8_v16_SDR_FINAL_20180706_SDR_2K_AVC.mp4	0.0	203.94531893730164	0.0999460220336914
31	86.5076539516449	response	2	2		29.0	2.5	/experiments/knapen_aot/videos/R_S_comp_A050_C004_1027V8_v16_SDR_FINAL_20180706_SDR_2K_AVC.mp4	0.0	203.9537889957428	
32	86.59912991523743	fix_pre	0		36.0	30.0	2.5	/experiments/knapen_aot/videos/R_S_production_ID_4124475.mp4	0.0	204.04526495933533	0.3011949062347412
32	86.89089393615723	response	0	2		30.0	2.5	/experiments/knapen_aot/videos/R_S_production_ID_4124475.mp4	0.0	204.33702898025513	
32	86.90032482147217	movie	1		171.0	30.0	2.5	/experiments/knapen_aot/videos/R_S_production_ID_4124475.mp4	0.0	204.34645986557007	2.5071492195129395
32	89.40747404098511	fix_post	2		12.0	30.0	2.5	/experiments/knapen_aot/videos/R_S_production_ID_4124475.mp4	0.0	206.853609085083	0.09995579719543457
33	89.50742983818054	fix_pre	0		16.0	31.0	2.5	/experiments/knapen_aot/videos/S_ILSVRC2015_train_00434000.mp4	0.0	206.95356488227844	0.1333479881286621
33	89.63258194923401	response	0	2		31.0	2.5	/experiments/knapen_aot/videos/S_ILSVRC2015_train_00434000.mp4	0.0	207.0787169933319	
33	89.6407778263092	movie	1		301.0	31.0	2.5	/experiments/knapen_aot/videos/S_ILSVRC2015_train_00434000.mp4	0.0	207.0869128704071	2.5082740783691406
33	92.14905190467834	fix_post	2		12.0	31.0	2.5	/experiments/knapen_aot/videos/S_ILSVRC2015_train_00434000.mp4	0.0	209.59518694877625	0.10004711151123047
34	92.24909901618958	fix_pre	0		8.0	32.0	2.5	/experiments/knapen_aot/videos/S_PA_A002_C009_SDR_20190730_ALT01_SDR_2K_AVC.mp4	0.0	209.69523406028748	0.06781387329101562
34	92.3076720237732	response	0	2		32.0	2.5	/experiments/knapen_aot/videos/S_PA_A002_C009_SDR_20190730_ALT01_SDR_2K_AVC.mp4	0.0	209.7538070678711	
34	92.31691288948059	movie	1		165.0	32.0	2.5	/experiments/knapen_aot/videos/S_PA_A002_C009_SDR_20190730_ALT01_SDR_2K_AVC.mp4	0.0	209.7630479335785	2.5071871280670166
34	94.82410001754761	fix_post	2		12.0	32.0	2.5	/experiments/knapen_aot/videos/S_PA_A002_C009_SDR_20190730_ALT01_SDR_2K_AVC.mp4	0.0	212.2702350616455	0.09999299049377441
35	94.92409300804138	fix_pre	0		7.0	33.0	2.5	/experiments/knapen_aot/videos/S_yt-hHdxZ26SImA_17.mp4	0.0	212.37022805213928	0.05945897102355957
35	94.97425103187561	response	0	2		33.0	2.5	/experiments/knapen_aot/videos/S_yt-hHdxZ26SImA_17.mp4	0.0	212.4203860759735	
35	94.98355197906494	movie	1		301.0	33.0	2.5	/experiments/knapen_aot/videos/S_yt-hHdxZ26SImA_17.mp4	0.0	212.42968702316284	2.507251024246216
35	97.49080300331116	fix_post	2		12.0	33.0	2.5	/experiments/knapen_aot/videos/S_yt-hHdxZ26SImA_17.mp4	0.0	214.93693804740906	0.10006499290466309
36	97.59086799621582	fix_pre	0		18.0	34.0	2.5	blank	1.0	215.03700304031372	0.1499018669128418
36	97.7325119972229	response	0	2		34.0	2.5	blank	1.0	215.1786470413208	
36	97.74076986312866	movie	1		301.0	34.0	2.5	blank	1.0	215.18690490722656	2.5082621574401855
36	100.24903202056885	fix_post	2		12.0	34.0	2.5	blank	1.0	217.69516706466675	0.1000218391418457
37	100.3490538597107	fix_pre	0		14.0	35.0	2.5	/experiments/knapen_aot/videos/S_yt-XbNHfZjXuVM_43.mp4	0.0	217.7951889038086	0.11670398712158203
37	100.45759797096252	response	0	2		35.0	2.5	/experiments/knapen_aot/videos/S_yt-XbNHfZjXuVM_43.mp4	0.0	217.90373301506042	
37	100.46575784683228	movie	1		300.0	35.0	2.5	/experiments/knapen_aot/videos/S_yt-XbNHfZjXuVM_43.mp4	0.0	217.91189289093018	2.5083091259002686
37	102.97406697273254	fix_post	2		12.0	35.0	2.5	/experiments/knapen_aot/videos/S_yt-XbNHfZjXuVM_43.mp4	0.0	220.42020201683044	0.09995698928833008
38	103.07402396202087	fix_pre	0		22.0	36.0	2.5	/experiments/knapen_aot/videos/R_S_ILSVRC2015_train_00693000.mp4	0.0	220.52015900611877	0.18333005905151367
38	103.24916195869446	response	0	2		36.0	2.5	/experiments/knapen_aot/videos/R_S_ILSVRC2015_train_00693000.mp4	0.0	220.69529700279236	
38	103.25735402107239	movie	1		301.0	36.0	2.5	/experiments/knapen_aot/videos/R_S_ILSVRC2015_train_00693000.mp4	0.0	220.7034890651703	2.508349895477295
38	105.76570391654968	fix_post	2		12.0	36.0	2.5	/experiments/knapen_aot/videos/R_S_ILSVRC2015_train_00693000.mp4	0.0	223.21183896064758	0.10002613067626953
39	105.86573004722595	fix_pre	0		9.0	37.0	2.5	/experiments/knapen_aot/videos/S_video_inspire_california_santa-barbara_050.1080-h264.mp4	0.0	223.31186509132385	0.07609987258911133
39	105.93250298500061	response	0	2		37.0	2.5	/experiments/knapen_aot/videos/S_video_inspire_california_santa-barbara_050.1080-h264.mp4	0.0	223.3786380290985	
39	105.94182991981506	movie	1		164.0	37.0	2.5	/experiments/knapen_aot/videos/S_video_inspire_california_santa-barbara_050.1080-h264.mp4	0.0	223.38796496391296	2.50718092918396
39	108.44901084899902	fix_post	2		12.0	37.0	2.5	/experiments/knapen_aot/videos/S_video_inspire_california_santa-barbara_050.1080-h264.mp4	0.0	225.89514589309692	0.10005617141723633
40	108.54906702041626	fix_pre	0		14.0	38.0	2.5	/experiments/knapen_aot/videos/R_S_yt-zam74qlzGtQ_122.mp4	0.0	225.99520206451416	0.11657881736755371
40	108.65754795074463	response	0	2		38.0	2.5	/experiments/knapen_aot/videos/R_S_yt-zam74qlzGtQ_122.mp4	0.0	226.10368299484253	
40	108.66564583778381	movie	1		301.0	38.0	2.5	/experiments/knapen_aot/videos/R_S_yt-zam74qlzGtQ_122.mp4	0.0	226.1117808818817	2.508352041244507
40	111.17399787902832	fix_post	2		12.0	38.0	2.5	/experiments/knapen_aot/videos/R_S_yt-zam74qlzGtQ_122.mp4	0.0	228.62013292312622	0.10002708435058594
41	111.2740249633789	fix_pre	0		3.0	39.0	2.5	/experiments/knapen_aot/videos/R_S_yt-zlbtESb7Fcw_28.mp4	0.0	228.7201600074768	0.02501988410949707
41	111.29081583023071	response	0	2		39.0	2.5	/experiments/knapen_aot/videos/R_S_yt-zlbtESb7Fcw_28.mp4	0.0	228.7369508743286	
41	111.2990448474884	movie	1		301.0	39.0	2.5	/experiments/knapen_aot/videos/R_S_yt-zlbtESb7Fcw_28.mp4	0.0	228.7451798915863	2.5083131790161133
41	113.80735802650452	fix_post	2		12.0	39.0	2.5	/experiments/knapen_aot/videos/R_S_yt-zlbtESb7Fcw_28.mp4	0.0	231.25349307060242	0.09994196891784668
42	113.90729999542236	fix_pre	0		7.0	40.0	2.5	blank	1.0	231.35343503952026	0.05840587615966797
42	113.95751690864563	response	0	2		40.0	2.5	blank	1.0	231.40365195274353	
42	113.96570587158203	movie	1		301.0	40.0	2.5	blank	1.0	231.41184091567993	2.5082931518554688
42	116.4739990234375	fix_post	2		12.0	40.0	2.5	blank	1.0	233.9201340675354	0.09997987747192383
43	116.57397890090942	fix_pre	0		20.0	41.0	2.5	/experiments/knapen_aot/videos/S_ILSVRC2015_train_00219004.mp4	0.0	234.02011394500732	0.16667509078979492
43	116.73245191574097	response	0	2		41.0	2.5	/experiments/knapen_aot/videos/S_ILSVRC2015_train_00219004.mp4	0.0	234.17858695983887	
43	116.74065399169922	movie	1		301.0	41.0	2.5	/experiments/knapen_aot/videos/S_ILSVRC2015_train_00219004.mp4	0.0	234.18678903579712	2.50833797454834
43	119.24899196624756	fix_post	2		12.0	41.0	2.5	/experiments/knapen_aot/videos/S_ILSVRC2015_train_00219004.mp4	0.0	236.69512701034546	0.09997105598449707
44	119.34896302223206	fix_pre	0		14.0	42.0	2.5	/experiments/knapen_aot/videos/S_yt-qE70lj3-A78_228.mp4	0.0	236.79509806632996	0.11669492721557617
44	119.45737791061401	response	0	2		42.0	2.5	/experiments/knapen_aot/videos/S_yt-qE70lj3-A78_228.mp4	0.0	236.9035129547119	
44	119.46565794944763	movie	1		299.0	42.0	2.5	/experiments/knapen_aot/videos/S_yt-qE70lj3-A78_228.mp4	0.0	236.91179299354553	2.5083210468292236
44	121.97397899627686	fix_post	2		12.0	42.0	2.5	/experiments/knapen_aot/videos/S_yt-qE70lj3-A78_228.mp4	0.0	239.42011404037476	0.10006594657897949
45	122.07404494285583	fix_pre	0		29.0	43.0	2.5	/experiments/knapen_aot/videos/R_S_yt-bH4nJibL4Jo_164.mp4	0.0	239.52017998695374	0.2425398826599121
45	122.3074369430542	response	0	2		43.0	2.5	/experiments/knapen_aot/videos/R_S_yt-bH4nJibL4Jo_164.mp4	0.0	239.7535719871521	
45	122.31658482551575	movie	1		301.0	43.0	2.5	/experiments/knapen_aot/videos/R_S_yt-bH4nJibL4Jo_164.mp4	0.0	239.76271986961365	2.5073060989379883
45	124.82389092445374	fix_post	2		12.0	43.0	2.5	/experiments/knapen_aot/videos/R_S_yt-bH4nJibL4Jo_164.mp4	0.0	242.27002596855164	0.10007405281066895
46	124.9239649772644	fix_pre	0		29.0	44.0	2.5	/experiments/knapen_aot/videos/S_yt-K-iCphzt_RE_17.mp4	0.0	242.3701000213623	0.24166584014892578
46	125.14997386932373	response	0	2		44.0	2.5	/experiments/knapen_aot/videos/S_yt-K-iCphzt_RE_17.mp4	0.0	242.59610891342163	
46	125.16563081741333	movie	1		301.0	44.0	2.5	/experiments/knapen_aot/videos/S_yt-K-iCphzt_RE_17.mp4	0.0	242.61176586151123	2.5083181858062744
46	127.6739490032196	fix_post	2		12.0	44.0	2.5	/experiments/knapen_aot/videos/S_yt-K-iCphzt_RE_17.mp4	0.0	245.1200840473175	0.09992384910583496
47	127.77387285232544	fix_pre	0		21.0	45.0	2.5	/experiments/knapen_aot/videos/R_S_yt-CNq5mTA8oXY_176.mp4	0.0	245.22000789642334	0.17505598068237305
47	127.9407958984375	response	0	2		45.0	2.5	/experiments/knapen_aot/videos/R_S_yt-CNq5mTA8oXY_176.mp4	0.0	245.3869309425354	
47	127.94892883300781	movie	1		301.0	45.0	2.5	/experiments/knapen_aot/videos/R_S_yt-CNq5mTA8oXY_176.mp4	0.0	245.3950638771057	2.5083870887756348
47	130.45731592178345	fix_post	2		12.0	45.0	2.5	/experiments/knapen_aot/videos/R_S_yt-CNq5mTA8oXY_176.mp4	0.0	247.90345096588135	0.09990596771240234
48	130.55722188949585	fix_pre	0		16.0	46.0	2.5	/experiments/knapen_aot/videos/S_yt-VJ65ukWmdxQ_193.mp4	0.0	248.00335693359375	0.13431000709533691
48	130.68241596221924	response	0	2		46.0	2.5	/experiments/knapen_aot/videos/S_yt-VJ65ukWmdxQ_193.mp4	0.0	248.12855100631714	
48	130.6915318965912	movie	1		301.0	46.0	2.5	/experiments/knapen_aot/videos/S_yt-VJ65ukWmdxQ_193.mp4	0.0	248.1376669406891	2.5073740482330322
48	133.19890594482422	fix_post	2		12.0	46.0	2.5	/experiments/knapen_aot/videos/S_yt-VJ65ukWmdxQ_193.mp4	0.0	250.64504098892212	0.10001707077026367
49	133.29892301559448	fix_pre	0		21.0	47.0	2.5	/experiments/knapen_aot/videos/R_S_video-8.mp4	0.0	250.74505805969238	0.1749880313873291
49	133.4657678604126	response	0	2		47.0	2.5	/experiments/knapen_aot/videos/R_S_video-8.mp4	0.0	250.9119029045105	
49	133.4739110469818	movie	1		198.0	47.0	2.5	/experiments/knapen_aot/videos/R_S_video-8.mp4	0.0	250.9200460910797	2.508331775665283
49	135.9822428226471	fix_post	2		12.0	47.0	2.5	/experiments/knapen_aot/videos/R_S_video-8.mp4	0.0	253.428377866745	0.100006103515625
50	136.08224892616272	fix_pre	0		34.0	48.0	2.5	/experiments/knapen_aot/videos/R_S_flickr-southeasternstar-3464778323_10.mp4	0.0	253.52838397026062	0.28331589698791504
50	136.3573648929596	response	0	2		48.0	2.5	/experiments/knapen_aot/videos/R_S_flickr-southeasternstar-3464778323_10.mp4	0.0	253.8034999370575	
50	136.36556482315063	movie	1		301.0	48.0	2.5	/experiments/knapen_aot/videos/R_S_flickr-southeasternstar-3464778323_10.mp4	0.0	253.81169986724854	2.5084030628204346
50	138.87396788597107	fix_post	2		12.0	48.0	2.5	/experiments/knapen_aot/videos/R_S_flickr-southeasternstar-3464778323_10.mp4	0.0	256.32010293006897	0.09995007514953613
51	138.9739179611206	fix_pre	0		38.0	49.0	2.5	blank	1.0	256.4200530052185	0.31666088104248047
51	139.28226590156555	response	0	2		49.0	2.5	blank	1.0	256.72840094566345	
51	139.2905788421631	movie	1		301.0	49.0	2.5	blank	1.0	256.736713886261	2.508331060409546
51	141.79890990257263	fix_post	2		12.0	49.0	2.5	blank	1.0	259.24504494667053	0.10098505020141602
52	141.89989495277405	fix_pre	0		309.0	50.0	2.5	/experiments/knapen_aot/videos/S_comp_GMT329_113NC_396B_1105_CHINA_v04_SDR_FINAL_20180706_F900F2700_SDR_2K_AVC.mp4	0.0	259.34602999687195	2.5739760398864746
52	144.4656229019165	response	0	2		50.0	2.5	/experiments/knapen_aot/videos/S_comp_GMT329_113NC_396B_1105_CHINA_v04_SDR_FINAL_20180706_F900F2700_SDR_2K_AVC.mp4	0.0	261.9117579460144	
52	144.47387099266052	movie	1		164.0	50.0	2.5	/experiments/knapen_aot/videos/S_comp_GMT329_113NC_396B_1105_CHINA_v04_SDR_FINAL_20180706_F900F2700_SDR_2K_AVC.mp4	0.0	261.9200060367584	2.508283853530884
52	146.9821548461914	fix_post	2		12.0	50.0	2.5	/experiments/knapen_aot/videos/S_comp_GMT329_113NC_396B_1105_CHINA_v04_SDR_FINAL_20180706_F900F2700_SDR_2K_AVC.mp4	0.0	264.4282898902893	0.10003113746643066
53	147.08218598365784	fix_pre	0		1.0	51.0	2.5	/experiments/knapen_aot/videos/S_video_inspire_california_santa-barbara_050.1080-h264.mp4	0.0	264.52832102775574	0.008380889892578125
53	147.08380794525146	response	0	2		51.0	2.5	/experiments/knapen_aot/videos/S_video_inspire_california_santa-barbara_050.1080-h264.mp4	0.0	264.52994298934937	
53	147.09056687355042	movie	1		167.0	51.0	2.5	/experiments/knapen_aot/videos/S_video_inspire_california_santa-barbara_050.1080-h264.mp4	0.0	264.5367019176483	2.5083470344543457
53	149.59891390800476	fix_post	2		12.0	51.0	2.5	/experiments/knapen_aot/videos/S_video_inspire_california_santa-barbara_050.1080-h264.mp4	0.0	267.04504895210266	0.0999760627746582
54	149.69888997077942	fix_pre	0		3.0	52.0	2.5	/experiments/knapen_aot/videos/S_yt-mdLT282PVbE_6.mp4	0.0	267.1450250148773	0.02501201629638672
54	149.71571683883667	response	0	2		52.0	2.5	/experiments/knapen_aot/videos/S_yt-mdLT282PVbE_6.mp4	0.0	267.16185188293457	
54	149.7239019870758	movie	1		300.0	52.0	2.5	/experiments/knapen_aot/videos/S_yt-mdLT282PVbE_6.mp4	0.0	267.1700370311737	2.508302927017212
54	152.23220491409302	fix_post	2		12.0	52.0	2.5	/experiments/knapen_aot/videos/S_yt-mdLT282PVbE_6.mp4	0.0	269.6783399581909	0.09995412826538086
55	152.3321590423584	fix_pre	0		13.0	53.0	2.5	/experiments/knapen_aot/videos/R_S_yt-kuzdrmHa-W0_39.mp4	0.0	269.7782940864563	0.10913681983947754
55	152.43228888511658	response	0	2		53.0	2.5	/experiments/knapen_aot/videos/R_S_yt-kuzdrmHa-W0_39.mp4	0.0	269.8784239292145	
55	152.44129586219788	movie	1		301.0	53.0	2.5	/experiments/knapen_aot/videos/R_S_yt-kuzdrmHa-W0_39.mp4	0.0	269.8874309062958	2.5074961185455322
55	154.9487919807434	fix_post	2		12.0	53.0	2.5	/experiments/knapen_aot/videos/R_S_yt-kuzdrmHa-W0_39.mp4	0.0	272.3949270248413	0.10002398490905762
56	155.04881596565247	fix_pre	0		27.0	54.0	2.5	/experiments/knapen_aot/videos/R_S_ILSVRC2015_train_00371012.mp4	0.0	272.49495100975037	0.22581696510314941
56	155.2656090259552	response	0	2		54.0	2.5	/experiments/knapen_aot/videos/R_S_ILSVRC2015_train_00371012.mp4	0.0	272.7117440700531	
56	155.27463293075562	movie	1		301.0	54.0	2.5	/experiments/knapen_aot/videos/R_S_ILSVRC2015_train_00371012.mp4	0.0	272.7207679748535	2.5075531005859375
56	157.78218603134155	fix_post	2		12.0	54.0	2.5	/experiments/knapen_aot/videos/R_S_ILSVRC2015_train_00371012.mp4	0.0	275.22832107543945	0.09994697570800781
57	157.88213300704956	fix_pre	0		15.0	55.0	2.5	blank	1.0	275.32826805114746	0.12502288818359375
57	157.99898982048035	response	0	2		55.0	2.5	blank	1.0	275.44512486457825	
57	158.00715589523315	movie	1		301.0	55.0	2.5	blank	1.0	275.45329093933105	2.508357048034668
57	160.51551294326782	fix_post	2		12.0	55.0	2.5	blank	1.0	277.9616479873657	0.0999910831451416
58	160.61550402641296	fix_pre	0		25.0	56.0	2.5	/experiments/knapen_aot/videos/S_yt-JG2OY_7B-gI_537.mp4	0.0	278.06163907051086	0.20831680297851562
58	160.81547904014587	response	0	2		56.0	2.5	/experiments/knapen_aot/videos/S_yt-JG2OY_7B-gI_537.mp4	0.0	278.2616140842438	
58	160.82382082939148	movie	1		301.0	56.0	2.5	/experiments/knapen_aot/videos/S_yt-JG2OY_7B-gI_537.mp4	0.0	278.2699558734894	2.5082762241363525
58	163.33209705352783	fix_post	2		11.0	56.0	2.5	/experiments/knapen_aot/videos/S_yt-JG2OY_7B-gI_537.mp4	0.0	280.77823209762573	0.09173989295959473
58	163.41565585136414	response	2	2		56.0	2.5	/experiments/knapen_aot/videos/S_yt-JG2OY_7B-gI_537.mp4	0.0	280.86179089546204	
59	163.42383694648743	fix_pre	0		40.0	57.0	2.5	/experiments/knapen_aot/videos/S_pexels-rodnae-productions-5993237.mp4	0.0	280.8699719905853	0.33340001106262207
59	163.74886083602905	response	0	2		57.0	2.5	/experiments/knapen_aot/videos/S_pexels-rodnae-productions-5993237.mp4	0.0	281.19499588012695	
59	163.75723695755005	movie	1		164.0	57.0	2.5	/experiments/knapen_aot/videos/S_pexels-rodnae-productions-5993237.mp4	0.0	281.20337200164795	2.508220911026001
59	166.26545786857605	fix_post	2		12.0	57.0	2.5	/experiments/knapen_aot/videos/S_pexels-rodnae-productions-5993237.mp4	0.0	283.71159291267395	0.10001516342163086
60	166.36547303199768	fix_pre	0		10.0	58.0	2.5	/experiments/knapen_aot/videos/R_S_pexels-koolshooters-7691440.mp4	0.0	283.8116080760956	0.08336091041564941
60	166.43397688865662	response	0	2		58.0	2.5	/experiments/knapen_aot/videos/R_S_pexels-koolshooters-7691440.mp4	0.0	283.8801119327545	
60	166.44883394241333	movie	1		165.0	58.0	2.5	/experiments/knapen_aot/videos/R_S_pexels-koolshooters-7691440.mp4	0.0	283.89496898651123	2.5082359313964844
60	168.95706987380981	fix_post	2		12.0	58.0	2.5	/experiments/knapen_aot/videos/R_S_pexels-koolshooters-7691440.mp4	0.0	286.4032049179077	0.100006103515625
61	169.05707597732544	fix_pre	0		21.0	59.0	2.5	/experiments/knapen_aot/videos/S_Ds4EKTLx_RI_51.mp4	0.0	286.50321102142334	0.17574691772460938
61	169.22392988204956	response	0	2		59.0	2.5	/experiments/knapen_aot/videos/S_Ds4EKTLx_RI_51.mp4	0.0	286.67006492614746	
61	169.23282289505005	movie	1		300.0	59.0	2.5	/experiments/knapen_aot/videos/S_Ds4EKTLx_RI_51.mp4	0.0	286.67895793914795	2.5075719356536865
61	171.74039483070374	fix_post	2		12.0	59.0	2.5	/experiments/knapen_aot/videos/S_Ds4EKTLx_RI_51.mp4	0.0	289.18652987480164	0.10005021095275879
62	171.8404450416565	fix_pre	0		20.0	60.0	2.5	/experiments/knapen_aot/videos/S_yt-mJzkLd3Mr_c_35.mp4	0.0	289.2865800857544	0.1666109561920166
62	171.9988729953766	response	0	2		60.0	2.5	/experiments/knapen_aot/videos/S_yt-mJzkLd3Mr_c_35.mp4	0.0	289.4450080394745	
62	172.0070559978485	movie	1		301.0	60.0	2.5	/experiments/knapen_aot/videos/S_yt-mJzkLd3Mr_c_35.mp4	0.0	289.4531910419464	2.508394956588745
62	174.51545095443726	fix_post	2		12.0	60.0	2.5	/experiments/knapen_aot/videos/S_yt-mJzkLd3Mr_c_35.mp4	0.0	291.96158599853516	0.09996199607849121
63	174.61541295051575	fix_pre	0		26.0	61.0	2.5	/experiments/knapen_aot/videos/S_yt-y6zr69M0yHI_76.mp4	0.0	292.06154799461365	0.21662497520446777
63	174.82382488250732	response	0	2		61.0	2.5	/experiments/knapen_aot/videos/S_yt-y6zr69M0yHI_76.mp4	0.0	292.2699599266052	
63	174.83203792572021	movie	1		300.0	61.0	2.5	/experiments/knapen_aot/videos/S_yt-y6zr69M0yHI_76.mp4	0.0	292.2781729698181	2.5083799362182617
63	177.34041786193848	fix_post	2		12.0	61.0	2.5	/experiments/knapen_aot/videos/S_yt-y6zr69M0yHI_76.mp4	0.0	294.7865529060364	0.0999600887298584
64	177.44037795066833	fix_pre	0		31.0	62.0	2.5	blank	1.0	294.88651299476624	0.25836801528930664
64	177.69057703018188	response	0	2		62.0	2.5	blank	1.0	295.1367120742798	
64	177.69874596595764	movie	1		301.0	62.0	2.5	blank	1.0	295.14488101005554	2.508213996887207
64	180.20695996284485	fix_post	2		12.0	62.0	2.5	blank	1.0	297.65309500694275	0.10009598731994629
65	180.3070559501648	fix_pre	0		47.0	63.0	2.5	/experiments/knapen_aot/videos/R_S_ILSVRC2015_train_00411000.mp4	0.0	297.7531909942627	0.39162588119506836
65	180.69056391716003	response	0	2		63.0	2.5	/experiments/knapen_aot/videos/R_S_ILSVRC2015_train_00411000.mp4	0.0	298.13669896125793	
65	180.69868183135986	movie	1		299.0	63.0	2.5	/experiments/knapen_aot/videos/R_S_ILSVRC2015_train_00411000.mp4	0.0	298.14481687545776	2.508341073989868
65	183.20702290534973	fix_post	2		12.0	63.0	2.5	/experiments/knapen_aot/videos/R_S_ILSVRC2015_train_00411000.mp4	0.0	300.65315794944763	0.09998703002929688
66	183.30700993537903	fix_pre	0		59.0	64.0	2.5	/experiments/knapen_aot/videos/R_S_g201_TH_803_A001_8_SDR_20191031_SDR_2K_AVC.mp4	0.0	300.75314497947693	0.4916520118713379
66	183.7905080318451	response	0	2		64.0	2.5	/experiments/knapen_aot/videos/R_S_g201_TH_803_A001_8_SDR_20191031_SDR_2K_AVC.mp4	0.0	301.236643075943	
66	183.79866194725037	movie	1		166.0	64.0	2.5	/experiments/knapen_aot/videos/R_S_g201_TH_803_A001_8_SDR_20191031_SDR_2K_AVC.mp4	0.0	301.24479699134827	2.508392095565796
66	186.30705404281616	fix_post	2		12.0	64.0	2.5	/experiments/knapen_aot/videos/R_S_g201_TH_803_A001_8_SDR_20191031_SDR_2K_AVC.mp4	0.0	303.75318908691406	0.09992599487304688
67	186.4069800376892	fix_pre	0		23.0	65.0	2.5	/experiments/knapen_aot/videos/R_S_ILSVRC2015_train_00463000.mp4	0.0	303.8531150817871	0.19171500205993652
67	186.59044885635376	response	0	2		65.0	2.5	/experiments/knapen_aot/videos/R_S_ILSVRC2015_train_00463000.mp4	0.0	304.03658390045166	
67	186.59869503974915	movie	1		301.0	65.0	2.5	/experiments/knapen_aot/videos/R_S_ILSVRC2015_train_00463000.mp4	0.0	304.04483008384705	2.5083208084106445
67	189.1070158481598	fix_post	2		12.0	65.0	2.5	/experiments/knapen_aot/videos/R_S_ILSVRC2015_train_00463000.mp4	0.0	306.5531508922577	0.0999610424041748
68	189.20697689056396	fix_pre	0		18.0	66.0	2.5	/experiments/knapen_aot/videos/S_bing-www_cnet_com_videos_amazon-wants-to-put-alexa-on-your-pc__50.mp4	0.0	306.65311193466187	0.1506330966949463
68	189.34884691238403	response	0	2		66.0	2.5	/experiments/knapen_aot/videos/S_bing-www_cnet_com_videos_amazon-wants-to-put-alexa-on-your-pc__50.mp4	0.0	306.79498195648193	
68	189.3576099872589	movie	1		163.0	66.0	2.5	/experiments/knapen_aot/videos/S_bing-www_cnet_com_videos_amazon-wants-to-put-alexa-on-your-pc__50.mp4	0.0	306.8037450313568	2.5076918601989746
68	191.86530184745789	fix_post	2		12.0	66.0	2.5	/experiments/knapen_aot/videos/S_bing-www_cnet_com_videos_amazon-wants-to-put-alexa-on-your-pc__50.mp4	0.0	309.3114368915558	0.1000361442565918
69	191.96533799171448	fix_pre	0		40.0	67.0	2.5	/experiments/knapen_aot/videos/R_S_yt-GI8BEHw2Lq8_3.mp4	0.0	309.4114730358124	0.33330392837524414
69	192.29047989845276	response	0	2		67.0	2.5	/experiments/knapen_aot/videos/R_S_yt-GI8BEHw2Lq8_3.mp4	0.0	309.73661494255066	
69	192.29864192008972	movie	1		301.0	67.0	2.5	/experiments/knapen_aot/videos/R_S_yt-GI8BEHw2Lq8_3.mp4	0.0	309.7447769641876	2.508341073989868
69	194.8069829940796	fix_post	2		12.0	67.0	2.5	/experiments/knapen_aot/videos/R_S_yt-GI8BEHw2Lq8_3.mp4	0.0	312.2531180381775	0.09995484352111816
70	194.9069378376007	fix_pre	0		12.0	68.0	2.5	/experiments/knapen_aot/videos/R_S_yt-RKo978aBdzw_173.mp4	0.0	312.3530728816986	0.10004115104675293
70	194.99871492385864	response	0	2		68.0	2.5	/experiments/knapen_aot/videos/R_S_yt-RKo978aBdzw_173.mp4	0.0	312.44484996795654	
70	195.00697898864746	movie	1		301.0	68.0	2.5	/experiments/knapen_aot/videos/R_S_yt-RKo978aBdzw_173.mp4	0.0	312.45311403274536	2.508368968963623
70	197.51534795761108	fix_post	2		12.0	68.0	2.5	/experiments/knapen_aot/videos/R_S_yt-RKo978aBdzw_173.mp4	0.0	314.961483001709	0.09998703002929688
71	197.61533498764038	fix_pre	0		21.0	69.0	2.5	/experiments/knapen_aot/videos/S_yt-CJeyOFsd3lg_80.mp4	0.0	315.0614700317383	0.17497801780700684
71	197.77454686164856	response	0	2		69.0	2.5	/experiments/knapen_aot/videos/S_yt-CJeyOFsd3lg_80.mp4	0.0	315.22068190574646	
71	197.7903130054474	movie	1		300.0	69.0	2.5	/experiments/knapen_aot/videos/S_yt-CJeyOFsd3lg_80.mp4	0.0	315.2364480495453	2.50832200050354
71	200.29863500595093	fix_post	2		12.0	69.0	2.5	/experiments/knapen_aot/videos/S_yt-CJeyOFsd3lg_80.mp4	0.0	317.7447700500488	0.09995293617248535
72	200.3985879421234	fix_pre	0		34.0	70.0	2.5	blank	1.0	317.8447229862213	0.2833559513092041
72	200.67378687858582	response	0	2		70.0	2.5	blank	1.0	318.1199219226837	
72	200.68194389343262	movie	1		301.0	70.0	2.5	blank	1.0	318.1280789375305	2.508316993713379
72	203.190260887146	fix_post	2		12.0	70.0	2.5	blank	1.0	320.6363959312439	0.09999203681945801
73	203.29025292396545	fix_pre	0		33.0	71.0	2.5	/experiments/knapen_aot/videos/S_yt-gaXgXGEanCk_140.mp4	0.0	320.73638796806335	0.2755610942840576
73	203.55708694458008	response	0	2		71.0	2.5	/experiments/knapen_aot/videos/S_yt-gaXgXGEanCk_140.mp4	0.0	321.003221988678	
73	203.5658140182495	movie	1		301.0	71.0	2.5	/experiments/knapen_aot/videos/S_yt-gaXgXGEanCk_140.mp4	0.0	321.0119490623474	2.5078179836273193
73	206.07363200187683	fix_post	2		12.0	71.0	2.5	/experiments/knapen_aot/videos/S_yt-gaXgXGEanCk_140.mp4	0.0	323.51976704597473	0.09996986389160156
74	206.17360186576843	fix_pre	0		36.0	72.0	2.5	/experiments/knapen_aot/videos/R_S_ILSVRC2015_train_00484001.mp4	0.0	323.61973690986633	0.2999861240386963
74	206.46529984474182	response	0	2		72.0	2.5	/experiments/knapen_aot/videos/R_S_ILSVRC2015_train_00484001.mp4	0.0	323.9114348888397	
74	206.47358798980713	movie	1		301.0	72.0	2.5	/experiments/knapen_aot/videos/R_S_ILSVRC2015_train_00484001.mp4	0.0	323.91972303390503	2.5083370208740234
74	208.98192501068115	fix_post	2		12.0	72.0	2.5	/experiments/knapen_aot/videos/R_S_ILSVRC2015_train_00484001.mp4	0.0	326.42806005477905	0.09995889663696289
75	209.08188390731812	fix_pre	0		7.0	73.0	2.5	/experiments/knapen_aot/videos/R_S_yt-2pRKCSgdXXU_30.mp4	0.0	326.528018951416	0.05851006507873535
75	209.13223886489868	response	0	2		73.0	2.5	/experiments/knapen_aot/videos/R_S_yt-2pRKCSgdXXU_30.mp4	0.0	326.5783739089966	
75	209.14039397239685	movie	1		301.0	73.0	2.5	/experiments/knapen_aot/videos/R_S_yt-2pRKCSgdXXU_30.mp4	0.0	326.58652901649475	2.5081279277801514
75	211.648521900177	fix_post	2		12.0	73.0	2.5	/experiments/knapen_aot/videos/R_S_yt-2pRKCSgdXXU_30.mp4	0.0	329.0946569442749	0.10010313987731934
76	211.74862504005432	fix_pre	0		48.0	74.0	2.5	/experiments/knapen_aot/videos/S_yt-3ohvpS42xug_184.mp4	0.0	329.1947600841522	0.4004509449005127
76	212.14035987854004	response	0	2		74.0	2.5	/experiments/knapen_aot/videos/S_yt-3ohvpS42xug_184.mp4	0.0	329.58649492263794	
76	212.14907598495483	movie	1		301.0	74.0	2.5	/experiments/knapen_aot/videos/S_yt-3ohvpS42xug_184.mp4	0.0	329.59521102905273	2.507869005203247
76	214.65694499015808	fix_post	2		12.0	74.0	2.5	/experiments/knapen_aot/videos/S_yt-3ohvpS42xug_184.mp4	0.0	332.103080034256	0.09994697570800781
77	214.7568919658661	fix_pre	0		13.0	75.0	2.5	/experiments/knapen_aot/videos/R_S_yt-mJzkLd3Mr_c_35.mp4	0.0	332.203027009964	0.10831594467163086
77	214.85705494880676	response	0	2		75.0	2.5	/experiments/knapen_aot/videos/R_S_yt-mJzkLd3Mr_c_35.mp4	0.0	332.30318999290466	
77	214.86520791053772	movie	1		301.0	75.0	2.5	/experiments/knapen_aot/videos/R_S_yt-mJzkLd3Mr_c_35.mp4	0.0	332.3113429546356	2.508347988128662
77	217.37355589866638	fix_post	2		12.0	75.0	2.5	/experiments/knapen_aot/videos/R_S_yt-mJzkLd3Mr_c_35.mp4	0.0	334.8196909427643	0.09993910789489746
78	217.47349500656128	fix_pre	0		46.0	76.0	2.5	/experiments/knapen_aot/videos/R_S_yt-xvIZtEVkebk_462.mp4	0.0	334.9196300506592	0.38382387161254883
78	217.8486659526825	response	0	2		76.0	2.5	/experiments/knapen_aot/videos/R_S_yt-xvIZtEVkebk_462.mp4	0.0	335.2948009967804	
78	217.85731887817383	movie	1		301.0	76.0	2.5	/experiments/knapen_aot/videos/R_S_yt-xvIZtEVkebk_462.mp4	0.0	335.30345392227173	2.5078670978546143
78	220.36518597602844	fix_post	2		12.0	76.0	2.5	/experiments/knapen_aot/videos/R_S_yt-xvIZtEVkebk_462.mp4	0.0	337.81132102012634	0.10003805160522461
79	220.46522402763367	fix_pre	0		52.0	77.0	2.5	blank	1.0	337.91135907173157	0.4337728023529053
79	220.88287782669067	response	0	2		77.0	2.5	blank	1.0	338.3290128707886	
79	220.89899682998657	movie	1		301.0	77.0	2.5	blank	1.0	338.3451318740845	2.507878065109253
79	223.40687489509583	fix_post	2		12.0	77.0	2.5	blank	1.0	340.8530099391937	0.09996604919433594
80	223.50684094429016	fix_pre	0		29.0	78.0	2.5	/experiments/knapen_aot/videos/R_S_yt-QxNuo4ojvz4_420.mp4	0.0	340.95297598838806	0.2416679859161377
80	223.74028182029724	response	0	2		78.0	2.5	/experiments/knapen_aot/videos/R_S_yt-QxNuo4ojvz4_420.mp4	0.0	341.18641686439514	
80	223.7485089302063	movie	1		301.0	78.0	2.5	/experiments/knapen_aot/videos/R_S_yt-QxNuo4ojvz4_420.mp4	0.0	341.1946439743042	2.508378028869629
80	226.25688695907593	fix_post	2		12.0	78.0	2.5	/experiments/knapen_aot/videos/R_S_yt-QxNuo4ojvz4_420.mp4	0.0	343.7030220031738	0.09996700286865234
81	226.35685396194458	fix_pre	0		4.0	79.0	2.5	/experiments/knapen_aot/videos/S_production_ID_3943965.mp4	0.0	343.8029890060425	0.03334808349609375
81	226.38196301460266	response	0	2		79.0	2.5	/experiments/knapen_aot/videos/S_production_ID_3943965.mp4	0.0	343.82809805870056	
81	226.39020204544067	movie	1		190.0	79.0	2.5	/experiments/knapen_aot/videos/S_production_ID_3943965.mp4	0.0	343.8363370895386	2.508274793624878
81	228.89847683906555	fix_post	2		12.0	79.0	2.5	/experiments/knapen_aot/videos/S_production_ID_3943965.mp4	0.0	346.34461188316345	0.09997105598449707
82	228.99844789505005	fix_pre	0		21.0	80.0	2.5	/experiments/knapen_aot/videos/R_S_yt-XbNHfZjXuVM_43.mp4	0.0	346.44458293914795	0.17504596710205078
82	229.16529893875122	response	0	2		80.0	2.5	/experiments/knapen_aot/videos/R_S_yt-XbNHfZjXuVM_43.mp4	0.0	346.6114339828491	
82	229.1734938621521	movie	1		301.0	80.0	2.5	/experiments/knapen_aot/videos/R_S_yt-XbNHfZjXuVM_43.mp4	0.0	346.61962890625	2.5083670616149902
82	231.6818609237671	fix_post	2		12.0	80.0	2.5	/experiments/knapen_aot/videos/R_S_yt-XbNHfZjXuVM_43.mp4	0.0	349.127995967865	0.09997105598449707
83	231.7818319797516	fix_pre	0		23.0	81.0	2.5	/experiments/knapen_aot/videos/S_flickr-southeasternstar-3464778323_10.mp4	0.0	349.2279670238495	0.1916370391845703
83	231.9652910232544	response	0	2		81.0	2.5	/experiments/knapen_aot/videos/S_flickr-southeasternstar-3464778323_10.mp4	0.0	349.4114260673523	
83	231.97346901893616	movie	1		300.0	81.0	2.5	/experiments/knapen_aot/videos/S_flickr-southeasternstar-3464778323_10.mp4	0.0	349.41960406303406	2.5083680152893066
83	234.48183703422546	fix_post	2		12.0	81.0	2.5	/experiments/knapen_aot/videos/S_flickr-southeasternstar-3464778323_10.mp4	0.0	351.92797207832336	0.09999680519104004
84	234.5818338394165	fix_pre	0		10.0	82.0	2.5	blank	1.0	352.0279688835144	0.08332705497741699
84	234.65687584877014	response	0	2		82.0	2.5	blank	1.0	352.10301089286804	
84	234.66516089439392	movie	1		301.0	82.0	2.5	blank	1.0	352.1112959384918	2.508270025253296
84	237.17343091964722	fix_post	2		12.0	82.0	2.5	blank	1.0	354.6195659637451	0.10046911239624023
85	237.27390003204346	fix_pre	0		25.0	83.0	2.5	/experiments/knapen_aot/videos/R_S_ILSVRC2015_train_00411000.mp4	0.0	354.72003507614136	0.208251953125
85	237.4736189842224	response	0	2		83.0	2.5	/experiments/knapen_aot/videos/R_S_ILSVRC2015_train_00411000.mp4	0.0	354.9197540283203	
85	237.48215198516846	movie	1		301.0	83.0	2.5	/experiments/knapen_aot/videos/R_S_ILSVRC2015_train_00411000.mp4	0.0	354.92828702926636	2.507910966873169
85	239.99006295204163	fix_post	2		12.0	83.0	2.5	/experiments/knapen_aot/videos/R_S_ILSVRC2015_train_00411000.mp4	0.0	357.4361979961395	0.1000220775604248
87	240.09008502960205	stim	0		361.0					357.53622007369995	3.010124921798706
87	240.2235610485077	response	0	2						357.6696960926056	
87	243.09436988830566	response	0	space						360.54050493240356	
