trial_nr	onset	event_type	phase	response	nr_frames	movie_index	movie_duration	movie_file	blank	onset_abs	duration
0	0.15461015701293945	stim	0		37.0					182.1716001033783	0.31201791763305664
0	0.4512050151824951	response	0	space						182.46819496154785	
1	0.4666280746459961	stim	0		121.0					182.48361802101135	1.0079689025878906
1	1.4745969772338867	stim	1		120.0					183.49158692359924	0.9998359680175781
1	1.5162689685821533	response	1	space						183.5332589149475	
1	1.8245790004730225	response	1	space						183.84156894683838	
1	2.3661839962005615	response	1	space						184.38317394256592	
2	2.474432945251465	fix_pre	0		35.0	0.0	2.5	/experiments/knapen_aot/videos/R_S_yt-wIZprsJwxBM_298.mp4	0.0	184.49142289161682	0.291701078414917
2	2.7578890323638916	response	0	space		0.0	2.5	/experiments/knapen_aot/videos/R_S_yt-wIZprsJwxBM_298.mp4	0.0	184.77487897872925	
2	2.766134023666382	movie	1		301.0	0.0	2.5	/experiments/knapen_aot/videos/R_S_yt-wIZprsJwxBM_298.mp4	0.0	184.78312397003174	2.508296012878418
2	5.2744300365448	fix_post	2		12.0	0.0	2.5	/experiments/knapen_aot/videos/R_S_yt-wIZprsJwxBM_298.mp4	0.0	187.29141998291016	0.10012006759643555
3	5.374550104141235	fix_pre	0		10.0	1.0	2.5	/experiments/knapen_aot/videos/R_S_flickr-southeasternstar-3464778323_10.mp4	0.0	187.3915400505066	0.08327484130859375
3	5.454319953918457	response	0	4		1.0	2.5	/experiments/knapen_aot/videos/R_S_flickr-southeasternstar-3464778323_10.mp4	0.0	187.4713099002838	
3	5.457824945449829	movie	1		301.0	1.0	2.5	/experiments/knapen_aot/videos/R_S_flickr-southeasternstar-3464778323_10.mp4	0.0	187.47481489181519	2.5082931518554688
3	7.966118097305298	fix_post	2		12.0	1.0	2.5	/experiments/knapen_aot/videos/R_S_flickr-southeasternstar-3464778323_10.mp4	0.0	189.98310804367065	0.10006403923034668
4	8.066182136535645	fix_pre	0		52.0	2.0	2.5	/experiments/knapen_aot/videos/R_S_ILSVRC2015_train_00479000.mp4	0.0	190.083172082901	0.4333679676055908
4	8.491239070892334	response	0	4		2.0	2.5	/experiments/knapen_aot/videos/R_S_ILSVRC2015_train_00479000.mp4	0.0	190.5082290172577	
4	8.499550104141235	movie	1		301.0	2.0	2.5	/experiments/knapen_aot/videos/R_S_ILSVRC2015_train_00479000.mp4	0.0	190.5165400505066	2.5082309246063232
4	11.007781028747559	fix_post	2		12.0	2.0	2.5	/experiments/knapen_aot/videos/R_S_ILSVRC2015_train_00479000.mp4	0.0	193.02477097511292	0.10005712509155273
5	11.107838153839111	fix_pre	0		218.0	3.0	2.5	/experiments/knapen_aot/videos/S_ILSVRC2015_train_00682003.mp4	0.0	193.12482810020447	1.8166148662567139
5	12.916303157806396	response	0	4		3.0	2.5	/experiments/knapen_aot/videos/S_ILSVRC2015_train_00682003.mp4	0.0	194.93329310417175	
5	12.924453020095825	movie	1		297.0	3.0	2.5	/experiments/knapen_aot/videos/S_ILSVRC2015_train_00682003.mp4	0.0	194.94144296646118	2.5083799362182617
5	15.432832956314087	fix_post	2		12.0	3.0	2.5	/experiments/knapen_aot/videos/S_ILSVRC2015_train_00682003.mp4	0.0	197.44982290267944	0.09992504119873047
6	15.532757997512817	fix_pre	0		70.0	4.0	2.5	/experiments/knapen_aot/videos/S_yt-YykKZWKmLnQ_386.mp4	0.0	197.54974794387817	0.5833261013031006
6	16.107929944992065	response	0	4		4.0	2.5	/experiments/knapen_aot/videos/S_yt-YykKZWKmLnQ_386.mp4	0.0	198.12491989135742	
6	16.116084098815918	movie	1		301.0	4.0	2.5	/experiments/knapen_aot/videos/S_yt-YykKZWKmLnQ_386.mp4	0.0	198.13307404518127	2.508388042449951
6	18.62447214126587	fix_post	2		12.0	4.0	2.5	/experiments/knapen_aot/videos/S_yt-YykKZWKmLnQ_386.mp4	0.0	200.64146208763123	0.09999680519104004
7	18.72446894645691	fix_pre	0		62.0	5.0	2.5	/experiments/knapen_aot/videos/R_S_yt-hWXr5bv2_uA_48.mp4	0.0	200.74145889282227	0.5248610973358154
7	19.24122714996338	response	0	4		5.0	2.5	/experiments/knapen_aot/videos/R_S_yt-hWXr5bv2_uA_48.mp4	0.0	201.25821709632874	
7	19.249330043792725	movie	1		301.0	5.0	2.5	/experiments/knapen_aot/videos/R_S_yt-hWXr5bv2_uA_48.mp4	0.0	201.26631999015808	2.5085089206695557
7	21.75783896446228	fix_post	2		12.0	5.0	2.5	/experiments/knapen_aot/videos/R_S_yt-hWXr5bv2_uA_48.mp4	0.0	203.77482891082764	0.09991312026977539
8	21.857752084732056	fix_pre	0		129.0	6.0	2.5	/experiments/knapen_aot/videos/R_S_pexels-cottonbro-10640532.mp4	0.0	203.8747420310974	1.0749590396881104
8	22.924528121948242	response	0	4		6.0	2.5	/experiments/knapen_aot/videos/R_S_pexels-cottonbro-10640532.mp4	0.0	204.9415180683136	
8	22.932711124420166	movie	1		205.0	6.0	2.5	/experiments/knapen_aot/videos/R_S_pexels-cottonbro-10640532.mp4	0.0	204.94970107078552	2.508378028869629
8	25.441089153289795	fix_post	2		12.0	6.0	2.5	/experiments/knapen_aot/videos/R_S_pexels-cottonbro-10640532.mp4	0.0	207.45807909965515	0.09998679161071777
9	25.541075944900513	fix_pre	0		6.0	7.0	2.5	blank	1.0	207.55806589126587	0.04992222785949707
9	25.582896947860718	response	0	4		7.0	2.5	blank	1.0	207.59988689422607	
9	25.59099817276001	movie	1		301.0	7.0	2.5	blank	1.0	207.60798811912537	2.5083348751068115
9	28.09933304786682	fix_post	2		12.0	7.0	2.5	blank	1.0	210.11632299423218	0.10004711151123047
10	28.19938015937805	fix_pre	0		37.0	8.0	2.5	/experiments/knapen_aot/videos/R_S_yt-BAwvfRmE1LU_79.mp4	0.0	210.2163701057434	0.3083198070526123
10	28.499529123306274	response	0	4		8.0	2.5	/experiments/knapen_aot/videos/R_S_yt-BAwvfRmE1LU_79.mp4	0.0	210.51651906967163	
10	28.507699966430664	movie	1		301.0	8.0	2.5	/experiments/knapen_aot/videos/R_S_yt-BAwvfRmE1LU_79.mp4	0.0	210.52468991279602	2.508263111114502
10	31.015963077545166	fix_post	2		12.0	8.0	2.5	/experiments/knapen_aot/videos/R_S_yt-BAwvfRmE1LU_79.mp4	0.0	213.03295302391052	0.10003495216369629
11	31.115998029708862	fix_pre	0		15.0	9.0	2.5	/experiments/knapen_aot/videos/S_yt-BIDHmbneB10_998.mp4	0.0	213.13298797607422	0.12497091293334961
11	31.232754945755005	response	0	4		9.0	2.5	/experiments/knapen_aot/videos/S_yt-BIDHmbneB10_998.mp4	0.0	213.24974489212036	
11	31.240968942642212	movie	1		301.0	9.0	2.5	/experiments/knapen_aot/videos/S_yt-BIDHmbneB10_998.mp4	0.0	213.25795888900757	2.5084030628204346
11	33.74937200546265	fix_post	2		12.0	9.0	2.5	/experiments/knapen_aot/videos/S_yt-BIDHmbneB10_998.mp4	0.0	215.766361951828	0.10002017021179199
12	33.84939217567444	fix_pre	0		180.0	10.0	2.5	/experiments/knapen_aot/videos/S_wc-AJxbR6daLxMM_5.mp4	0.0	215.8663821220398	1.499952793121338
12	35.341140031814575	response	0	4		10.0	2.5	/experiments/knapen_aot/videos/S_wc-AJxbR6daLxMM_5.mp4	0.0	217.35812997817993	
12	35.349344968795776	movie	1		166.0	10.0	2.5	/experiments/knapen_aot/videos/S_wc-AJxbR6daLxMM_5.mp4	0.0	217.36633491516113	2.5083131790161133
12	37.85765814781189	fix_post	2		12.0	10.0	2.5	/experiments/knapen_aot/videos/S_wc-AJxbR6daLxMM_5.mp4	0.0	219.87464809417725	0.09996390342712402
13	37.957622051239014	fix_pre	0		35.0	11.0	2.5	/experiments/knapen_aot/videos/R_S_yt-4x2eUikn9rw_212.mp4	0.0	219.97461199760437	0.29169702529907227
13	38.24107599258423	response	0	4		11.0	2.5	/experiments/knapen_aot/videos/R_S_yt-4x2eUikn9rw_212.mp4	0.0	220.25806593894958	
13	38.249319076538086	movie	1		301.0	11.0	2.5	/experiments/knapen_aot/videos/R_S_yt-4x2eUikn9rw_212.mp4	0.0	220.26630902290344	2.5083000659942627
13	40.75761914253235	fix_post	2		12.0	11.0	2.5	/experiments/knapen_aot/videos/R_S_yt-4x2eUikn9rw_212.mp4	0.0	222.7746090888977	0.10001492500305176
14	40.8576340675354	fix_pre	0		45.0	12.0	2.5	/experiments/knapen_aot/videos/S_ILSVRC2015_train_00549000.mp4	0.0	222.87462401390076	0.3750300407409668
14	41.224339962005615	response	0	4		12.0	2.5	/experiments/knapen_aot/videos/S_ILSVRC2015_train_00549000.mp4	0.0	223.24132990837097	
14	41.23266410827637	movie	1		301.0	12.0	2.5	/experiments/knapen_aot/videos/S_ILSVRC2015_train_00549000.mp4	0.0	223.24965405464172	2.5082550048828125
14	43.74091911315918	fix_post	2		12.0	12.0	2.5	/experiments/knapen_aot/videos/S_ILSVRC2015_train_00549000.mp4	0.0	225.75790905952454	0.1000359058380127
15	43.84095501899719	fix_pre	0		321.0	13.0	2.5	blank	1.0	225.85794496536255	2.674945116043091
15	46.50771403312683	response	0	4		13.0	2.5	blank	1.0	228.5247039794922	
15	46.51590013504028	movie	1		301.0	13.0	2.5	blank	1.0	228.53289008140564	2.508375883102417
15	49.0242760181427	fix_post	2		12.0	13.0	2.5	blank	1.0	231.04126596450806	0.10000395774841309
16	49.12427997589111	fix_pre	0		149.0	14.0	2.5	/experiments/knapen_aot/videos/R_S_yt-rY_ra5Tb9XU_51.mp4	0.0	231.14126992225647	1.2428979873657227
16	50.357892990112305	response	0	4		14.0	2.5	/experiments/knapen_aot/videos/R_S_yt-rY_ra5Tb9XU_51.mp4	0.0	232.37488293647766	
16	50.367177963256836	movie	1		301.0	14.0	2.5	/experiments/knapen_aot/videos/R_S_yt-rY_ra5Tb9XU_51.mp4	0.0	232.3841679096222	2.507204055786133
16	52.87438201904297	fix_post	2		12.0	14.0	2.5	/experiments/knapen_aot/videos/R_S_yt-rY_ra5Tb9XU_51.mp4	0.0	234.89137196540833	0.0999000072479248
17	52.974282026290894	fix_pre	0		49.0	15.0	2.5	/experiments/knapen_aot/videos/R_S_ILSVRC2015_train_00538001.mp4	0.0	234.99127197265625	0.40828394889831543
17	53.36682605743408	response	0	4		15.0	2.5	/experiments/knapen_aot/videos/R_S_ILSVRC2015_train_00538001.mp4	0.0	235.38381600379944	
17	53.38256597518921	movie	1		301.0	15.0	2.5	/experiments/knapen_aot/videos/R_S_ILSVRC2015_train_00538001.mp4	0.0	235.39955592155457	2.508362054824829
17	55.89092803001404	fix_post	2		12.0	15.0	2.5	/experiments/knapen_aot/videos/R_S_ILSVRC2015_train_00538001.mp4	0.0	237.9079179763794	0.09993100166320801
18	55.990859031677246	fix_pre	0		42.0	16.0	2.5	/experiments/knapen_aot/videos/S_yt-dESxu60Cl10_24.mp4	0.0	238.0078489780426	0.35004401206970215
18	56.33270812034607	response	0	4		16.0	2.5	/experiments/knapen_aot/videos/S_yt-dESxu60Cl10_24.mp4	0.0	238.34969806671143	
18	56.34090304374695	movie	1		301.0	16.0	2.5	/experiments/knapen_aot/videos/S_yt-dESxu60Cl10_24.mp4	0.0	238.3578929901123	2.5084218978881836
18	58.84932494163513	fix_post	2		12.0	16.0	2.5	/experiments/knapen_aot/videos/S_yt-dESxu60Cl10_24.mp4	0.0	240.8663148880005	0.09989023208618164
19	58.94921517372131	fix_pre	0		164.0	17.0	2.5	/experiments/knapen_aot/videos/S_yt-Ul81y6R9YbE_12.mp4	0.0	240.96620512008667	1.3667049407958984
19	60.307718992233276	response	0	4		17.0	2.5	/experiments/knapen_aot/videos/S_yt-Ul81y6R9YbE_12.mp4	0.0	242.32470893859863	
19	60.31592011451721	movie	1		301.0	17.0	2.5	/experiments/knapen_aot/videos/S_yt-Ul81y6R9YbE_12.mp4	0.0	242.33291006088257	2.5082290172576904
19	62.8241491317749	fix_post	2		12.0	17.0	2.5	/experiments/knapen_aot/videos/S_yt-Ul81y6R9YbE_12.mp4	0.0	244.84113907814026	0.10005903244018555
20	62.92420816421509	fix_pre	0		17.0	18.0	2.5	/experiments/knapen_aot/videos/S_yt-Z4W6l0eZza4_6.mp4	0.0	244.94119811058044	0.14164400100708008
20	63.05769610404968	response	0	4		18.0	2.5	/experiments/knapen_aot/videos/S_yt-Z4W6l0eZza4_6.mp4	0.0	245.07468605041504	
20	63.06585216522217	movie	1		301.0	18.0	2.5	/experiments/knapen_aot/videos/S_yt-Z4W6l0eZza4_6.mp4	0.0	245.08284211158752	2.5082879066467285
20	65.5741400718689	fix_post	2		12.0	18.0	2.5	/experiments/knapen_aot/videos/S_yt-Z4W6l0eZza4_6.mp4	0.0	247.59113001823425	0.10004496574401855
21	65.67418503761292	fix_pre	0		36.0	19.0	2.5	/experiments/knapen_aot/videos/R_S_yt-aqrdb6BiFx4_12.mp4	0.0	247.69117498397827	0.29997897148132324
21	65.96601915359497	response	0	4		19.0	2.5	/experiments/knapen_aot/videos/R_S_yt-aqrdb6BiFx4_12.mp4	0.0	247.98300909996033	
21	65.97416400909424	movie	1		300.0	19.0	2.5	/experiments/knapen_aot/videos/R_S_yt-aqrdb6BiFx4_12.mp4	0.0	247.9911539554596	2.5083680152893066
21	68.48253202438354	fix_post	2		12.0	19.0	2.5	/experiments/knapen_aot/videos/R_S_yt-aqrdb6BiFx4_12.mp4	0.0	250.4995219707489	0.09996604919433594
22	68.58249807357788	fix_pre	0		105.0	20.0	2.5	/experiments/knapen_aot/videos/S_yt-uXDyvrm0Tw0_17.mp4	0.0	250.59948801994324	0.8749909400939941
22	69.44932293891907	response	0	4		20.0	2.5	/experiments/knapen_aot/videos/S_yt-uXDyvrm0Tw0_17.mp4	0.0	251.46631288528442	
22	69.45748901367188	movie	1		301.0	20.0	2.5	/experiments/knapen_aot/videos/S_yt-uXDyvrm0Tw0_17.mp4	0.0	251.47447896003723	2.5083041191101074
22	71.96579313278198	fix_post	2		12.0	20.0	2.5	/experiments/knapen_aot/videos/S_yt-uXDyvrm0Tw0_17.mp4	0.0	253.98278307914734	0.1000669002532959
23	72.06586003303528	fix_pre	0		43.0	21.0	2.5	blank	1.0	254.08284997940063	0.35831713676452637
23	72.41598200798035	response	0	4		21.0	2.5	blank	1.0	254.4329719543457	
23	72.4241771697998	movie	1		301.0	21.0	2.5	blank	1.0	254.44116711616516	2.5083019733428955
23	74.9324791431427	fix_post	2		12.0	21.0	2.5	blank	1.0	256.94946908950806	0.10003995895385742
24	75.03251910209656	fix_pre	0		331.0	22.0	2.5	/experiments/knapen_aot/videos/S_production_ID_4673611.mp4	0.0	257.0495090484619	2.7582809925079346
24	77.7826361656189	response	0	4		22.0	2.5	/experiments/knapen_aot/videos/S_production_ID_4673611.mp4	0.0	259.79962611198425	
24	77.79080009460449	movie	1		170.0	22.0	2.5	/experiments/knapen_aot/videos/S_production_ID_4673611.mp4	0.0	259.80779004096985	2.508288860321045
24	80.29908895492554	fix_post	2		12.0	22.0	2.5	/experiments/knapen_aot/videos/S_production_ID_4673611.mp4	0.0	262.3160789012909	0.10002398490905762
25	80.3991129398346	fix_pre	0		21.0	23.0	2.5	/experiments/knapen_aot/videos/S_pexels-cottonbro-5310858.mp4	0.0	262.41610288619995	0.17606806755065918
25	80.56597208976746	response	0	4		23.0	2.5	/experiments/knapen_aot/videos/S_pexels-cottonbro-5310858.mp4	0.0	262.5829620361328	
25	80.57518100738525	movie	1		165.0	23.0	2.5	/experiments/knapen_aot/videos/S_pexels-cottonbro-5310858.mp4	0.0	262.5921709537506	2.5073111057281494
25	83.0824921131134	fix_post	2		12.0	23.0	2.5	/experiments/knapen_aot/videos/S_pexels-cottonbro-5310858.mp4	0.0	265.09948205947876	0.10000300407409668
26	83.1824951171875	fix_pre	0		265.0	24.0	2.5	/experiments/knapen_aot/videos/S_video_inspire_texas_austin_oct2019_evening_00085.1080-h264.mp4	0.0	265.19948506355286	2.2082788944244385
26	85.38259506225586	response	0	4		24.0	2.5	/experiments/knapen_aot/videos/S_video_inspire_texas_austin_oct2019_evening_00085.1080-h264.mp4	0.0	267.3995850086212	
26	85.39077401161194	movie	1		168.0	24.0	2.5	/experiments/knapen_aot/videos/S_video_inspire_texas_austin_oct2019_evening_00085.1080-h264.mp4	0.0	267.4077639579773	2.5083601474761963
26	87.89913415908813	fix_post	2		12.0	24.0	2.5	/experiments/knapen_aot/videos/S_video_inspire_texas_austin_oct2019_evening_00085.1080-h264.mp4	0.0	269.9161241054535	0.09994792938232422
27	87.99908208847046	fix_pre	0		9.0	25.0	2.5	/experiments/knapen_aot/videos/R_S_yt-uXDyvrm0Tw0_17.mp4	0.0	270.0160720348358	0.07621502876281738
27	88.06587505340576	response	0	4		25.0	2.5	/experiments/knapen_aot/videos/R_S_yt-uXDyvrm0Tw0_17.mp4	0.0	270.0828649997711	
27	88.07529711723328	movie	1		301.0	25.0	2.5	/experiments/knapen_aot/videos/R_S_yt-uXDyvrm0Tw0_17.mp4	0.0	270.09228706359863	2.507110834121704
27	90.58240795135498	fix_post	2		12.0	25.0	2.5	/experiments/knapen_aot/videos/R_S_yt-uXDyvrm0Tw0_17.mp4	0.0	272.59939789772034	0.09999799728393555
28	90.68240594863892	fix_pre	0		16.0	26.0	2.5	blank	1.0	272.6993958950043	0.13333606719970703
28	90.8000590801239	response	0	4		26.0	2.5	blank	1.0	272.81704902648926	
28	90.81574201583862	movie	1		301.0	26.0	2.5	blank	1.0	272.832731962204	2.5084030628204346
28	93.32414507865906	fix_post	2		12.0	26.0	2.5	blank	1.0	275.3411350250244	0.09993386268615723
29	93.42407894134521	fix_pre	0		42.0	27.0	2.5	/experiments/knapen_aot/videos/S_yt-iT6jsSikmGM_4.mp4	0.0	275.44106888771057	0.34990715980529785
29	93.76588201522827	response	0	4		27.0	2.5	/experiments/knapen_aot/videos/S_yt-iT6jsSikmGM_4.mp4	0.0	275.7828719615936	
29	93.77398610115051	movie	1		301.0	27.0	2.5	/experiments/knapen_aot/videos/S_yt-iT6jsSikmGM_4.mp4	0.0	275.79097604751587	2.50844407081604
29	96.28243017196655	fix_post	2		12.0	27.0	2.5	/experiments/knapen_aot/videos/S_yt-iT6jsSikmGM_4.mp4	0.0	278.2994201183319	0.0999758243560791
30	96.38240599632263	fix_pre	0		15.0	28.0	2.5	/experiments/knapen_aot/videos/S_yt-c6kLumgTX54_7.mp4	0.0	278.399395942688	0.12497806549072266
30	96.49922704696655	response	0	4		28.0	2.5	/experiments/knapen_aot/videos/S_yt-c6kLumgTX54_7.mp4	0.0	278.5162169933319	
30	96.50738406181335	movie	1		301.0	28.0	2.5	/experiments/knapen_aot/videos/S_yt-c6kLumgTX54_7.mp4	0.0	278.5243740081787	2.508297920227051
30	99.0156819820404	fix_post	2		12.0	28.0	2.5	/experiments/knapen_aot/videos/S_yt-c6kLumgTX54_7.mp4	0.0	281.03267192840576	0.10004210472106934
31	99.11572408676147	fix_pre	0		63.0	29.0	2.5	/experiments/knapen_aot/videos/S_ILSVRC2015_train_00479000.mp4	0.0	281.13271403312683	0.5249490737915039
31	99.63252401351929	response	0	4		29.0	2.5	/experiments/knapen_aot/videos/S_ILSVRC2015_train_00479000.mp4	0.0	281.64951395988464	
31	99.64067316055298	movie	1		301.0	29.0	2.5	/experiments/knapen_aot/videos/S_ILSVRC2015_train_00479000.mp4	0.0	281.65766310691833	2.508316993713379
31	102.14899015426636	fix_post	2		12.0	29.0	2.5	/experiments/knapen_aot/videos/S_ILSVRC2015_train_00479000.mp4	0.0	284.1659801006317	0.10007691383361816
32	102.24906706809998	fix_pre	0		17.0	30.0	2.5	/experiments/knapen_aot/videos/S_yt-GWgG8PVM1iw_34.mp4	0.0	284.26605701446533	0.14164090156555176
32	102.38247799873352	response	0	4		30.0	2.5	/experiments/knapen_aot/videos/S_yt-GWgG8PVM1iw_34.mp4	0.0	284.3994679450989	
32	102.39070796966553	movie	1		301.0	30.0	2.5	/experiments/knapen_aot/videos/S_yt-GWgG8PVM1iw_34.mp4	0.0	284.4076979160309	2.508331060409546
32	104.89903903007507	fix_post	2		12.0	30.0	2.5	/experiments/knapen_aot/videos/S_yt-GWgG8PVM1iw_34.mp4	0.0	286.91602897644043	0.10003805160522461
33	104.9990770816803	fix_pre	0		44.0	31.0	2.5	/experiments/knapen_aot/videos/R_S_video_inspire_oregon_lone-ranch-beach_00015.1080-h264.mp4	0.0	287.01606702804565	0.36754393577575684
33	105.35748100280762	response	0	4		31.0	2.5	/experiments/knapen_aot/videos/R_S_video_inspire_oregon_lone-ranch-beach_00015.1080-h264.mp4	0.0	287.374470949173	
33	105.36662101745605	movie	1		166.0	31.0	2.5	/experiments/knapen_aot/videos/R_S_video_inspire_oregon_lone-ranch-beach_00015.1080-h264.mp4	0.0	287.3836109638214	2.507369041442871
33	107.87399005889893	fix_post	2		12.0	31.0	2.5	/experiments/knapen_aot/videos/R_S_video_inspire_oregon_lone-ranch-beach_00015.1080-h264.mp4	0.0	289.8909800052643	0.09998607635498047
34	107.9739761352539	fix_pre	0		353.0	32.0	2.5	/experiments/knapen_aot/videos/S_yt-kNZUFy3cbjQ_9.mp4	0.0	289.99096608161926	2.9416279792785645
34	110.90739798545837	response	0	4		32.0	2.5	/experiments/knapen_aot/videos/S_yt-kNZUFy3cbjQ_9.mp4	0.0	292.92438793182373	
34	110.91560411453247	movie	1		301.0	32.0	2.5	/experiments/knapen_aot/videos/S_yt-kNZUFy3cbjQ_9.mp4	0.0	292.9325940608978	2.508436918258667
34	113.42404103279114	fix_post	2		12.0	32.0	2.5	/experiments/knapen_aot/videos/S_yt-kNZUFy3cbjQ_9.mp4	0.0	295.4410309791565	0.10010004043579102
35	113.52414107322693	fix_pre	0		25.0	33.0	2.5	/experiments/knapen_aot/videos/S_b1-3.mp4	0.0	295.5411310195923	0.20820188522338867
35	113.71660113334656	response	0	4		33.0	2.5	/experiments/knapen_aot/videos/S_b1-3.mp4	0.0	295.7335910797119	
35	113.73234295845032	movie	1		166.0	33.0	2.5	/experiments/knapen_aot/videos/S_b1-3.mp4	0.0	295.7493329048157	2.508308172225952
35	116.24065113067627	fix_post	2		12.0	33.0	2.5	/experiments/knapen_aot/videos/S_b1-3.mp4	0.0	298.2576410770416	0.10000181198120117
36	116.34065294265747	fix_pre	0		28.0	34.0	2.5	blank	1.0	298.3576428890228	0.23329520225524902
36	116.55833005905151	response	0	4		34.0	2.5	blank	1.0	298.57532000541687	
36	116.57394814491272	movie	1		301.0	34.0	2.5	blank	1.0	298.5909380912781	2.5083329677581787
36	119.0822811126709	fix_post	2		12.0	34.0	2.5	blank	1.0	301.09927105903625	0.10002493858337402
37	119.18230605125427	fix_pre	0		254.0	35.0	2.5	/experiments/knapen_aot/videos/S_comp_DB_D011_D009_SIGNCMP_v15_6Mbps.mp4	0.0	301.19929599761963	2.1166300773620605
37	121.29077911376953	response	0	4		35.0	2.5	/experiments/knapen_aot/videos/S_comp_DB_D011_D009_SIGNCMP_v15_6Mbps.mp4	0.0	303.3077690601349	
37	121.29893612861633	movie	1		166.0	35.0	2.5	/experiments/knapen_aot/videos/S_comp_DB_D011_D009_SIGNCMP_v15_6Mbps.mp4	0.0	303.3159260749817	2.5082919597625732
37	123.8072280883789	fix_post	2		12.0	35.0	2.5	/experiments/knapen_aot/videos/S_comp_DB_D011_D009_SIGNCMP_v15_6Mbps.mp4	0.0	305.82421803474426	0.1000819206237793
38	123.90731000900269	fix_pre	0		156.0	36.0	2.5	/experiments/knapen_aot/videos/R_S_yt-MhW2fU45JK8_544.mp4	0.0	305.92429995536804	1.2999560832977295
38	125.19154405593872	response	0	4		36.0	2.5	/experiments/knapen_aot/videos/R_S_yt-MhW2fU45JK8_544.mp4	0.0	307.2085340023041	
38	125.20726609230042	movie	1		301.0	36.0	2.5	/experiments/knapen_aot/videos/R_S_yt-MhW2fU45JK8_544.mp4	0.0	307.22425603866577	2.5083460807800293
38	127.71561217308044	fix_post	2		12.0	36.0	2.5	/experiments/knapen_aot/videos/R_S_yt-MhW2fU45JK8_544.mp4	0.0	309.7326021194458	0.09998798370361328
39	127.81560015678406	fix_pre	0		25.0	37.0	2.5	/experiments/knapen_aot/videos/S_ILSVRC2015_train_00682003.mp4	0.0	309.8325901031494	0.20830988883972168
39	128.01571011543274	response	0	4		37.0	2.5	/experiments/knapen_aot/videos/S_ILSVRC2015_train_00682003.mp4	0.0	310.0327000617981	
39	128.02391004562378	movie	1		300.0	37.0	2.5	/experiments/knapen_aot/videos/S_ILSVRC2015_train_00682003.mp4	0.0	310.04089999198914	2.508244037628174
39	130.53215408325195	fix_post	2		12.0	37.0	2.5	/experiments/knapen_aot/videos/S_ILSVRC2015_train_00682003.mp4	0.0	312.5491440296173	0.10009193420410156
40	130.63224601745605	fix_pre	0		23.0	38.0	2.5	/experiments/knapen_aot/videos/S_P005_C002_UHD_SDR_2K_AVC.mp4	0.0	312.6492359638214	0.1924741268157959
40	130.81575107574463	response	0	4		38.0	2.5	/experiments/knapen_aot/videos/S_P005_C002_UHD_SDR_2K_AVC.mp4	0.0	312.83274102211	
40	130.82472014427185	movie	1		170.0	38.0	2.5	/experiments/knapen_aot/videos/S_P005_C002_UHD_SDR_2K_AVC.mp4	0.0	312.8417100906372	2.5075528621673584
40	133.3322730064392	fix_post	2		12.0	38.0	2.5	/experiments/knapen_aot/videos/S_P005_C002_UHD_SDR_2K_AVC.mp4	0.0	315.34926295280457	0.09992694854736328
41	133.43219995498657	fix_pre	0		247.0	39.0	2.5	/experiments/knapen_aot/videos/R_S_video_inspire_oregon_lone-ranch-beach_00015.1080-h264.mp4	0.0	315.44918990135193	2.0591440200805664
41	135.47484803199768	response	0	4		39.0	2.5	/experiments/knapen_aot/videos/R_S_video_inspire_oregon_lone-ranch-beach_00015.1080-h264.mp4	0.0	317.49183797836304	
41	135.49134397506714	movie	1		166.0	39.0	2.5	/experiments/knapen_aot/videos/R_S_video_inspire_oregon_lone-ranch-beach_00015.1080-h264.mp4	0.0	317.5083339214325	2.5076000690460205
41	137.99894404411316	fix_post	2		12.0	39.0	2.5	/experiments/knapen_aot/videos/R_S_video_inspire_oregon_lone-ranch-beach_00015.1080-h264.mp4	0.0	320.0159339904785	0.10000395774841309
42	138.09894800186157	fix_pre	0		7.0	40.0	2.5	blank	1.0	320.11593794822693	0.05911993980407715
42	138.14915108680725	response	0	4		40.0	2.5	blank	1.0	320.1661410331726	
42	138.15806794166565	movie	1		301.0	40.0	2.5	blank	1.0	320.175057888031	2.507571220397949
42	140.6656391620636	fix_post	2		12.0	40.0	2.5	blank	1.0	322.68262910842896	0.09997081756591797
43	140.76560997962952	fix_pre	0		75.0	41.0	2.5	/experiments/knapen_aot/videos/S_yt-8vm83GUgYxI_1.mp4	0.0	322.7825999259949	0.6249451637268066
43	141.3823790550232	response	0	4		41.0	2.5	/experiments/knapen_aot/videos/S_yt-8vm83GUgYxI_1.mp4	0.0	323.39936900138855	
43	141.39055514335632	movie	1		301.0	41.0	2.5	/experiments/knapen_aot/videos/S_yt-8vm83GUgYxI_1.mp4	0.0	323.4075450897217	2.508394956588745
43	143.89895009994507	fix_post	2		12.0	41.0	2.5	/experiments/knapen_aot/videos/S_yt-8vm83GUgYxI_1.mp4	0.0	325.9159400463104	0.10010790824890137
44	143.99905800819397	fix_pre	0		39.0	42.0	2.5	/experiments/knapen_aot/videos/S_pexels-tima-miroshnichenko-6077718.mp4	0.0	326.0160479545593	0.32558393478393555
44	144.31568694114685	response	0	4		42.0	2.5	/experiments/knapen_aot/videos/S_pexels-tima-miroshnichenko-6077718.mp4	0.0	326.3326768875122	
44	144.3246419429779	movie	1		169.0	42.0	2.5	/experiments/knapen_aot/videos/S_pexels-tima-miroshnichenko-6077718.mp4	0.0	326.34163188934326	2.5075042247772217
44	146.83214616775513	fix_post	2		12.0	42.0	2.5	/experiments/knapen_aot/videos/S_pexels-tima-miroshnichenko-6077718.mp4	0.0	328.8491361141205	0.09999394416809082
45	146.93214011192322	fix_pre	0		10.0	43.0	2.5	/experiments/knapen_aot/videos/R_S_3WAnGcPubBY_179.mp4	0.0	328.9491300582886	0.08340287208557129
45	147.00735807418823	response	0	4		43.0	2.5	/experiments/knapen_aot/videos/R_S_3WAnGcPubBY_179.mp4	0.0	329.0243480205536	
45	147.0155429840088	movie	1		301.0	43.0	2.5	/experiments/knapen_aot/videos/R_S_3WAnGcPubBY_179.mp4	0.0	329.03253293037415	2.508336067199707
45	149.5238790512085	fix_post	2		12.0	43.0	2.5	/experiments/knapen_aot/videos/R_S_3WAnGcPubBY_179.mp4	0.0	331.54086899757385	0.09998798370361328
46	149.6238670349121	fix_pre	0		24.0	44.0	2.5	/experiments/knapen_aot/videos/R_S_yt-gaCbT4RR9Tw_191.mp4	0.0	331.64085698127747	0.2007129192352295
46	149.81561017036438	response	0	4		44.0	2.5	/experiments/knapen_aot/videos/R_S_yt-gaCbT4RR9Tw_191.mp4	0.0	331.83260011672974	
46	149.82457995414734	movie	1		301.0	44.0	2.5	/experiments/knapen_aot/videos/R_S_yt-gaCbT4RR9Tw_191.mp4	0.0	331.8415699005127	2.5075631141662598
46	152.3321430683136	fix_post	2		12.0	44.0	2.5	/experiments/knapen_aot/videos/R_S_yt-gaCbT4RR9Tw_191.mp4	0.0	334.34913301467896	0.1000208854675293
47	152.43216395378113	fix_pre	0		27.0	45.0	2.5	/experiments/knapen_aot/videos/R_S_ux8Mvi8P16k_168.mp4	0.0	334.4491539001465	0.2256941795349121
47	152.64896416664124	response	0	4		45.0	2.5	/experiments/knapen_aot/videos/R_S_ux8Mvi8P16k_168.mp4	0.0	334.6659541130066	
47	152.65785813331604	movie	1		298.0	45.0	2.5	/experiments/knapen_aot/videos/R_S_ux8Mvi8P16k_168.mp4	0.0	334.6748480796814	2.5076498985290527
47	155.1655080318451	fix_post	2		12.0	45.0	2.5	/experiments/knapen_aot/videos/R_S_ux8Mvi8P16k_168.mp4	0.0	337.18249797821045	0.10001301765441895
48	155.2655210494995	fix_pre	0		27.0	46.0	2.5	/experiments/knapen_aot/videos/R_S_yt-6B69qmkEdTI_1.mp4	0.0	337.28251099586487	0.22574090957641602
48	155.47474694252014	response	0	4		46.0	2.5	/experiments/knapen_aot/videos/R_S_yt-6B69qmkEdTI_1.mp4	0.0	337.4917368888855	
48	155.49126195907593	movie	1		301.0	46.0	2.5	/experiments/knapen_aot/videos/R_S_yt-6B69qmkEdTI_1.mp4	0.0	337.5082519054413	2.5076069831848145
48	157.99886894226074	fix_post	2		12.0	46.0	2.5	/experiments/knapen_aot/videos/R_S_yt-6B69qmkEdTI_1.mp4	0.0	340.0158588886261	0.10001420974731445
49	158.09888315200806	fix_pre	0		18.0	47.0	2.5	/experiments/knapen_aot/videos/S_production_ID_4269182.mp4	0.0	340.1158730983734	0.1499629020690918
49	158.24062299728394	response	0	4		47.0	2.5	/experiments/knapen_aot/videos/S_production_ID_4269182.mp4	0.0	340.2576129436493	
49	158.24884605407715	movie	1		199.0	47.0	2.5	/experiments/knapen_aot/videos/S_production_ID_4269182.mp4	0.0	340.2658360004425	2.5082459449768066
49	160.75709199905396	fix_post	2		12.0	47.0	2.5	/experiments/knapen_aot/videos/S_production_ID_4269182.mp4	0.0	342.7740819454193	0.0999901294708252
50	160.85708212852478	fix_pre	0		22.0	48.0	2.5	/experiments/knapen_aot/videos/R_S_production_ID_4269182.mp4	0.0	342.87407207489014	0.1833348274230957
50	161.03222608566284	response	0	4		48.0	2.5	/experiments/knapen_aot/videos/R_S_production_ID_4269182.mp4	0.0	343.0492160320282	
50	161.04041695594788	movie	1		195.0	48.0	2.5	/experiments/knapen_aot/videos/R_S_production_ID_4269182.mp4	0.0	343.05740690231323	2.508409023284912
50	163.5488259792328	fix_post	2		12.0	48.0	2.5	/experiments/knapen_aot/videos/R_S_production_ID_4269182.mp4	0.0	345.56581592559814	0.10003399848937988
51	163.64885997772217	fix_pre	0		26.0	49.0	2.5	blank	1.0	345.6658499240875	0.21723318099975586
51	163.8572609424591	response	0	4		49.0	2.5	blank	1.0	345.87425088882446	
51	163.86609315872192	movie	1		301.0	49.0	2.5	blank	1.0	345.8830831050873	2.507786989212036
51	166.37388014793396	fix_post	2		12.0	49.0	2.5	blank	1.0	348.3908700942993	0.0999150276184082
52	166.47379517555237	fix_pre	0		170.0	50.0	2.5	/experiments/knapen_aot/videos/R_S_video_inspire_florida_miami_brickell_sunset_00036.1080-h264.mp4	0.0	348.4907851219177	1.4166569709777832
52	167.88224601745605	response	0	4		50.0	2.5	/experiments/knapen_aot/videos/R_S_video_inspire_florida_miami_brickell_sunset_00036.1080-h264.mp4	0.0	349.8992359638214	
52	167.89045214653015	movie	1		169.0	50.0	2.5	/experiments/knapen_aot/videos/R_S_video_inspire_florida_miami_brickell_sunset_00036.1080-h264.mp4	0.0	349.9074420928955	2.5083060264587402
52	170.3987581729889	fix_post	2		12.0	50.0	2.5	/experiments/knapen_aot/videos/R_S_video_inspire_florida_miami_brickell_sunset_00036.1080-h264.mp4	0.0	352.41574811935425	0.10000395774841309
53	170.4987621307373	fix_pre	0		36.0	51.0	2.5	/experiments/knapen_aot/videos/R_S_comp_GMT329_113NC_396B_1105_CHINA_v04_SDR_FINAL_20180706_F900F2700_SDR_2K_AVC.mp4	0.0	352.51575207710266	0.3000049591064453
53	170.79061794281006	response	0	4		51.0	2.5	/experiments/knapen_aot/videos/R_S_comp_GMT329_113NC_396B_1105_CHINA_v04_SDR_FINAL_20180706_F900F2700_SDR_2K_AVC.mp4	0.0	352.8076078891754	
53	170.79876708984375	movie	1		167.0	51.0	2.5	/experiments/knapen_aot/videos/R_S_comp_GMT329_113NC_396B_1105_CHINA_v04_SDR_FINAL_20180706_F900F2700_SDR_2K_AVC.mp4	0.0	352.8157570362091	2.508211851119995
53	173.30697894096375	fix_post	2		12.0	51.0	2.5	/experiments/knapen_aot/videos/R_S_comp_GMT329_113NC_396B_1105_CHINA_v04_SDR_FINAL_20180706_F900F2700_SDR_2K_AVC.mp4	0.0	355.3239688873291	0.10067605972290039
54	173.40765500068665	fix_pre	0		6.0	52.0	2.5	/experiments/knapen_aot/videos/S_yt-4rwBpRuHg-c_1308.mp4	0.0	355.424644947052	0.049436092376708984
54	173.4489369392395	response	0	4		52.0	2.5	/experiments/knapen_aot/videos/S_yt-4rwBpRuHg-c_1308.mp4	0.0	355.46592688560486	
54	173.45709109306335	movie	1		301.0	52.0	2.5	/experiments/knapen_aot/videos/S_yt-4rwBpRuHg-c_1308.mp4	0.0	355.4740810394287	2.508319854736328
54	175.96541094779968	fix_post	2		12.0	52.0	2.5	/experiments/knapen_aot/videos/S_yt-4rwBpRuHg-c_1308.mp4	0.0	357.98240089416504	0.09998011589050293
55	176.06539106369019	fix_pre	0		179.0	53.0	2.5	/experiments/knapen_aot/videos/S_yt-YykKZWKmLnQ_386.mp4	0.0	358.08238101005554	1.4916629791259766
55	177.5488519668579	response	0	4		53.0	2.5	/experiments/knapen_aot/videos/S_yt-YykKZWKmLnQ_386.mp4	0.0	359.56584191322327	
55	177.55705404281616	movie	1		301.0	53.0	2.5	/experiments/knapen_aot/videos/S_yt-YykKZWKmLnQ_386.mp4	0.0	359.5740439891815	2.5083250999450684
55	180.06537914276123	fix_post	2		12.0	53.0	2.5	/experiments/knapen_aot/videos/S_yt-YykKZWKmLnQ_386.mp4	0.0	362.0823690891266	0.09999585151672363
56	180.16537499427795	fix_pre	0		13.0	54.0	2.5	/experiments/knapen_aot/videos/R_S_yt-xKteiAi5h7Q_36.mp4	0.0	362.1823649406433	0.10831117630004883
56	180.2654070854187	response	0	4		54.0	2.5	/experiments/knapen_aot/videos/R_S_yt-xKteiAi5h7Q_36.mp4	0.0	362.28239703178406	
56	180.273686170578	movie	1		301.0	54.0	2.5	/experiments/knapen_aot/videos/R_S_yt-xKteiAi5h7Q_36.mp4	0.0	362.29067611694336	2.508349895477295
56	182.7820360660553	fix_post	2		12.0	54.0	2.5	/experiments/knapen_aot/videos/R_S_yt-xKteiAi5h7Q_36.mp4	0.0	364.79902601242065	0.0999610424041748
57	182.88199710845947	fix_pre	0		29.0	55.0	2.5	blank	1.0	364.89898705482483	0.24175095558166504
57	183.11555910110474	response	0	4		55.0	2.5	blank	1.0	365.1325490474701	
57	183.12374806404114	movie	1		301.0	55.0	2.5	blank	1.0	365.1407380104065	2.5082600116729736
57	185.6320080757141	fix_post	2		12.0	55.0	2.5	blank	1.0	367.64899802207947	0.10004496574401855
58	185.73205304145813	fix_pre	0		20.0	56.0	2.5	/experiments/knapen_aot/videos/S_yt-Dwgpjoikt84_71.mp4	0.0	367.7490429878235	0.16678404808044434
58	185.89040303230286	response	0	4		56.0	2.5	/experiments/knapen_aot/videos/S_yt-Dwgpjoikt84_71.mp4	0.0	367.9073929786682	
58	185.89883708953857	movie	1		301.0	56.0	2.5	/experiments/knapen_aot/videos/S_yt-Dwgpjoikt84_71.mp4	0.0	367.91582703590393	2.508172035217285
58	188.40700912475586	fix_post	2		12.0	56.0	2.5	/experiments/knapen_aot/videos/S_yt-Dwgpjoikt84_71.mp4	0.0	370.4239990711212	0.09996390342712402
59	188.50697302818298	fix_pre	0		33.0	57.0	2.5	/experiments/knapen_aot/videos/R_S_yt-a0axt7n0GuQ_19.mp4	0.0	370.52396297454834	0.27547693252563477
59	188.77383303642273	response	0	4		57.0	2.5	/experiments/knapen_aot/videos/R_S_yt-a0axt7n0GuQ_19.mp4	0.0	370.7908229827881	
59	188.78244996070862	movie	1		301.0	57.0	2.5	/experiments/knapen_aot/videos/R_S_yt-a0axt7n0GuQ_19.mp4	0.0	370.799439907074	2.5079400539398193
59	191.29039001464844	fix_post	2		12.0	57.0	2.5	/experiments/knapen_aot/videos/R_S_yt-a0axt7n0GuQ_19.mp4	0.0	373.3073799610138	0.09992599487304688
60	191.39031600952148	fix_pre	0		31.0	58.0	2.5	/experiments/knapen_aot/videos/R_S_yt-6DJulOrg2-8_122.mp4	0.0	373.40730595588684	0.25833606719970703
60	191.6404299736023	response	0	4		58.0	2.5	/experiments/knapen_aot/videos/R_S_yt-6DJulOrg2-8_122.mp4	0.0	373.65741991996765	
60	191.6486520767212	movie	1		301.0	58.0	2.5	/experiments/knapen_aot/videos/R_S_yt-6DJulOrg2-8_122.mp4	0.0	373.66564202308655	2.508342981338501
60	194.1569950580597	fix_post	2		12.0	58.0	2.5	/experiments/knapen_aot/videos/R_S_yt-6DJulOrg2-8_122.mp4	0.0	376.17398500442505	0.09998011589050293
61	194.2569751739502	fix_pre	0		193.0	59.0	2.5	/experiments/knapen_aot/videos/R_S_yt-8vm83GUgYxI_1.mp4	0.0	376.27396512031555	1.6088128089904785
61	195.85713911056519	response	0	4		59.0	2.5	/experiments/knapen_aot/videos/R_S_yt-8vm83GUgYxI_1.mp4	0.0	377.87412905693054	
61	195.86578798294067	movie	1		299.0	59.0	2.5	/experiments/knapen_aot/videos/R_S_yt-8vm83GUgYxI_1.mp4	0.0	377.88277792930603	2.5079050064086914
61	198.37369298934937	fix_post	2		12.0	59.0	2.5	/experiments/knapen_aot/videos/R_S_yt-8vm83GUgYxI_1.mp4	0.0	380.3906829357147	0.09999299049377441
62	198.47368597984314	fix_pre	0		26.0	60.0	2.5	/experiments/knapen_aot/videos/S_yt-Faxdis4m3Fw_9.mp4	0.0	380.4906759262085	0.21657204627990723
62	198.68206906318665	response	0	4		60.0	2.5	/experiments/knapen_aot/videos/S_yt-Faxdis4m3Fw_9.mp4	0.0	380.699059009552	
62	198.69025802612305	movie	1		301.0	60.0	2.5	/experiments/knapen_aot/videos/S_yt-Faxdis4m3Fw_9.mp4	0.0	380.7072479724884	2.508324146270752
62	201.1985821723938	fix_post	2		12.0	60.0	2.5	/experiments/knapen_aot/videos/S_yt-Faxdis4m3Fw_9.mp4	0.0	383.21557211875916	0.10001277923583984
63	201.29859495162964	fix_pre	0		24.0	61.0	2.5	/experiments/knapen_aot/videos/R_S_comp_GMT110_112NC_364D_1054_AURORA_ANTARTICA__COMP_FINAL_v34_PS_SDR_20181107_SDR_2K_AVC.mp4	0.0	383.315584897995	0.19998908042907715
63	201.48292899131775	response	0	4		61.0	2.5	/experiments/knapen_aot/videos/R_S_comp_GMT110_112NC_364D_1054_AURORA_ANTARTICA__COMP_FINAL_v34_PS_SDR_20181107_SDR_2K_AVC.mp4	0.0	383.4999189376831	
63	201.49858403205872	movie	1		163.0	61.0	2.5	/experiments/knapen_aot/videos/R_S_comp_GMT110_112NC_364D_1054_AURORA_ANTARTICA__COMP_FINAL_v34_PS_SDR_20181107_SDR_2K_AVC.mp4	0.0	383.5155739784241	2.5083210468292236
63	204.00690507888794	fix_post	2		12.0	61.0	2.5	/experiments/knapen_aot/videos/R_S_comp_GMT110_112NC_364D_1054_AURORA_ANTARTICA__COMP_FINAL_v34_PS_SDR_20181107_SDR_2K_AVC.mp4	0.0	386.0238950252533	0.10001301765441895
64	204.10691809654236	fix_pre	0		170.0	62.0	2.5	/experiments/knapen_aot/videos/S_yt-MhW2fU45JK8_544.mp4	0.0	386.1239080429077	1.4166569709777832
64	205.51532196998596	response	0	4		62.0	2.5	/experiments/knapen_aot/videos/S_yt-MhW2fU45JK8_544.mp4	0.0	387.5323119163513	
64	205.52357506752014	movie	1		301.0	62.0	2.5	/experiments/knapen_aot/videos/S_yt-MhW2fU45JK8_544.mp4	0.0	387.5405650138855	2.508378028869629
64	208.03195309638977	fix_post	2		12.0	62.0	2.5	/experiments/knapen_aot/videos/S_yt-MhW2fU45JK8_544.mp4	0.0	390.0489430427551	0.09999990463256836
65	208.13195300102234	fix_pre	0		20.0	63.0	2.5	blank	1.0	390.1489429473877	0.16653704643249512
65	208.29041409492493	response	0	4		63.0	2.5	blank	1.0	390.3074040412903	
65	208.29849004745483	movie	1		301.0	63.0	2.5	blank	1.0	390.3154799938202	2.5084640979766846
65	210.80695414543152	fix_post	2		12.0	63.0	2.5	blank	1.0	392.8239440917969	0.0999917984008789
66	210.9069459438324	fix_pre	0		126.0	64.0	2.5	/experiments/knapen_aot/videos/S_ILSVRC2015_train_00762000.mp4	0.0	392.92393589019775	1.0499792098999023
66	211.94870495796204	response	0	4		64.0	2.5	/experiments/knapen_aot/videos/S_ILSVRC2015_train_00762000.mp4	0.0	393.9656949043274	
66	211.9569251537323	movie	1		301.0	64.0	2.5	/experiments/knapen_aot/videos/S_ILSVRC2015_train_00762000.mp4	0.0	393.97391510009766	2.508309841156006
66	214.4652349948883	fix_post	2		12.0	64.0	2.5	/experiments/knapen_aot/videos/S_ILSVRC2015_train_00762000.mp4	0.0	396.48222494125366	0.09999394416809082
67	214.5652289390564	fix_pre	0		14.0	65.0	2.5	/experiments/knapen_aot/videos/S_yt-xBwq6sHHF5M_21.mp4	0.0	396.58221888542175	0.11667013168334961
67	214.67379713058472	response	0	4		65.0	2.5	/experiments/knapen_aot/videos/S_yt-xBwq6sHHF5M_21.mp4	0.0	396.6907870769501	
67	214.68189907073975	movie	1		301.0	65.0	2.5	/experiments/knapen_aot/videos/S_yt-xBwq6sHHF5M_21.mp4	0.0	396.6988890171051	2.5083930492401123
67	217.19029211997986	fix_post	2		12.0	65.0	2.5	/experiments/knapen_aot/videos/S_yt-xBwq6sHHF5M_21.mp4	0.0	399.2072820663452	0.09995484352111816
68	217.29024696350098	fix_pre	0		17.0	66.0	2.5	/experiments/knapen_aot/videos/S_yt-UKrWbJEs7pw_74.mp4	0.0	399.30723690986633	0.1416029930114746
68	217.42371010780334	response	0	4		66.0	2.5	/experiments/knapen_aot/videos/S_yt-UKrWbJEs7pw_74.mp4	0.0	399.4407000541687	
68	217.43184995651245	movie	1		301.0	66.0	2.5	/experiments/knapen_aot/videos/S_yt-UKrWbJEs7pw_74.mp4	0.0	399.4488399028778	2.5083601474761963
68	219.94021010398865	fix_post	2		12.0	66.0	2.5	/experiments/knapen_aot/videos/S_yt-UKrWbJEs7pw_74.mp4	0.0	401.957200050354	0.09997200965881348
69	220.04018211364746	fix_pre	0		11.0	67.0	2.5	/experiments/knapen_aot/videos/S_yt-CXn1PGH67_s_20.mp4	0.0	402.0571720600128	0.09165787696838379
69	220.12366914749146	response	0	4		67.0	2.5	/experiments/knapen_aot/videos/S_yt-CXn1PGH67_s_20.mp4	0.0	402.1406590938568	
69	220.13183999061584	movie	1		301.0	67.0	2.5	/experiments/knapen_aot/videos/S_yt-CXn1PGH67_s_20.mp4	0.0	402.1488299369812	2.50844407081604
69	222.64028406143188	fix_post	2		12.0	67.0	2.5	/experiments/knapen_aot/videos/S_yt-CXn1PGH67_s_20.mp4	0.0	404.65727400779724	0.1003260612487793
70	222.74061012268066	fix_pre	0		128.0	68.0	2.5	/experiments/knapen_aot/videos/S_ILSVRC2015_train_00549000.mp4	0.0	404.757600069046	1.0662658214569092
70	223.79871606826782	response	0	4		68.0	2.5	/experiments/knapen_aot/videos/S_ILSVRC2015_train_00549000.mp4	0.0	405.8157060146332	
70	223.80687594413757	movie	1		301.0	68.0	2.5	/experiments/knapen_aot/videos/S_ILSVRC2015_train_00549000.mp4	0.0	405.82386589050293	2.5082590579986572
70	226.31513500213623	fix_post	2		12.0	68.0	2.5	/experiments/knapen_aot/videos/S_ILSVRC2015_train_00549000.mp4	0.0	408.3321249485016	0.09998798370361328
71	226.41512298583984	fix_pre	0		16.0	69.0	2.5	blank	1.0	408.4321129322052	0.1333940029144287
71	226.54037308692932	response	0	4		69.0	2.5	blank	1.0	408.5573630332947	
71	226.54851698875427	movie	1		301.0	69.0	2.5	blank	1.0	408.56550693511963	2.5083279609680176
71	229.0568449497223	fix_post	2		12.0	69.0	2.5	blank	1.0	411.07383489608765	0.10001611709594727
72	229.15686106681824	fix_pre	0		24.0	70.0	2.5	/experiments/knapen_aot/videos/R_S_yt-FR_Y1Mm8BwQ_53.mp4	0.0	411.1738510131836	0.1999669075012207
72	229.34855794906616	response	0	4		70.0	2.5	/experiments/knapen_aot/videos/R_S_yt-FR_Y1Mm8BwQ_53.mp4	0.0	411.3655478954315	
72	229.35682797431946	movie	1		301.0	70.0	2.5	/experiments/knapen_aot/videos/R_S_yt-FR_Y1Mm8BwQ_53.mp4	0.0	411.3738179206848	2.508357048034668
72	231.86518502235413	fix_post	2		12.0	70.0	2.5	/experiments/knapen_aot/videos/R_S_yt-FR_Y1Mm8BwQ_53.mp4	0.0	413.8821749687195	0.09996509552001953
73	231.96515011787415	fix_pre	0		35.0	71.0	2.5	/experiments/knapen_aot/videos/R_S_bing-www_break_com_video_like-a-cat-catching-a-fly-3131008_12.mp4	0.0	413.9821400642395	0.29173898696899414
73	232.2486400604248	response	0	4		71.0	2.5	/experiments/knapen_aot/videos/R_S_bing-www_break_com_video_like-a-cat-catching-a-fly-3131008_12.mp4	0.0	414.26563000679016	
73	232.25688910484314	movie	1		301.0	71.0	2.5	/experiments/knapen_aot/videos/R_S_bing-www_break_com_video_like-a-cat-catching-a-fly-3131008_12.mp4	0.0	414.2738790512085	2.508237838745117
73	234.76512694358826	fix_post	2		12.0	71.0	2.5	/experiments/knapen_aot/videos/R_S_bing-www_break_com_video_like-a-cat-catching-a-fly-3131008_12.mp4	0.0	416.7821168899536	0.10000109672546387
74	234.86512804031372	fix_pre	0		7.0	72.0	2.5	/experiments/knapen_aot/videos/S_production_ID_4121250.mp4	0.0	416.8821179866791	0.05838203430175781
74	234.90779995918274	response	0	4		72.0	2.5	/experiments/knapen_aot/videos/S_production_ID_4121250.mp4	0.0	416.9247899055481	
74	234.92351007461548	movie	1		166.0	72.0	2.5	/experiments/knapen_aot/videos/S_production_ID_4121250.mp4	0.0	416.94050002098083	2.5083038806915283
74	237.431813955307	fix_post	2		12.0	72.0	2.5	/experiments/knapen_aot/videos/S_production_ID_4121250.mp4	0.0	419.44880390167236	0.1002349853515625
75	237.53204894065857	fix_pre	0		40.0	73.0	2.5	/experiments/knapen_aot/videos/R_S_pexels-kelly-lacy-6756531.mp4	0.0	419.5490388870239	0.3332991600036621
75	237.8569791316986	response	0	4		73.0	2.5	/experiments/knapen_aot/videos/R_S_pexels-kelly-lacy-6756531.mp4	0.0	419.87396907806396	
75	237.86534810066223	movie	1		164.0	73.0	2.5	/experiments/knapen_aot/videos/R_S_pexels-kelly-lacy-6756531.mp4	0.0	419.8823380470276	2.508117914199829
75	240.37346601486206	fix_post	2		12.0	73.0	2.5	/experiments/knapen_aot/videos/R_S_pexels-kelly-lacy-6756531.mp4	0.0	422.3904559612274	0.09992694854736328
76	240.47339296340942	fix_pre	0		26.0	74.0	2.5	/experiments/knapen_aot/videos/S_comp_DB_D011_C010_PSNK_DENOISE_v19_SDR_PS_20180914_SDR_2K_AVC.mp4	0.0	422.4903829097748	0.2167360782623291
76	240.6744680404663	response	0	4		74.0	2.5	/experiments/knapen_aot/videos/S_comp_DB_D011_C010_PSNK_DENOISE_v19_SDR_PS_20180914_SDR_2K_AVC.mp4	0.0	422.69145798683167	
76	240.69012904167175	movie	1		167.0	74.0	2.5	/experiments/knapen_aot/videos/S_comp_DB_D011_C010_PSNK_DENOISE_v19_SDR_PS_20180914_SDR_2K_AVC.mp4	0.0	422.7071189880371	2.5083250999450684
76	243.19845414161682	fix_post	2		12.0	74.0	2.5	/experiments/knapen_aot/videos/S_comp_DB_D011_C010_PSNK_DENOISE_v19_SDR_PS_20180914_SDR_2K_AVC.mp4	0.0	425.2154440879822	0.09994792938232422
77	243.29840207099915	fix_pre	0		26.0	75.0	2.5	/experiments/knapen_aot/videos/R_S_MEX_A006_C008_SDR_20190923_SDR_2K_AVC.mp4	0.0	425.3153920173645	0.21668410301208496
77	243.50690698623657	response	0	4		75.0	2.5	/experiments/knapen_aot/videos/R_S_MEX_A006_C008_SDR_20190923_SDR_2K_AVC.mp4	0.0	425.52389693260193	
77	243.51508617401123	movie	1		166.0	75.0	2.5	/experiments/knapen_aot/videos/R_S_MEX_A006_C008_SDR_20190923_SDR_2K_AVC.mp4	0.0	425.5320761203766	2.5083580017089844
77	246.02344417572021	fix_post	2		12.0	75.0	2.5	/experiments/knapen_aot/videos/R_S_MEX_A006_C008_SDR_20190923_SDR_2K_AVC.mp4	0.0	428.04043412208557	0.09989690780639648
78	246.1233410835266	fix_pre	0		44.0	76.0	2.5	blank	1.0	428.14033102989197	0.3669428825378418
78	246.4819049835205	response	0	4		76.0	2.5	blank	1.0	428.49889492988586	
78	246.49028396606445	movie	1		301.0	76.0	2.5	blank	1.0	428.5072739124298	2.5080771446228027
78	248.99836111068726	fix_post	2		12.0	76.0	2.5	blank	1.0	431.0153510570526	0.10010385513305664
79	249.0984649658203	fix_pre	0		47.0	77.0	2.5	/experiments/knapen_aot/videos/S_yt-M5qZo3CUXYE_27.mp4	0.0	431.11545491218567	0.3917810916900635
79	249.48193407058716	response	0	4		77.0	2.5	/experiments/knapen_aot/videos/S_yt-M5qZo3CUXYE_27.mp4	0.0	431.4989240169525	
79	249.49024605751038	movie	1		301.0	77.0	2.5	/experiments/knapen_aot/videos/S_yt-M5qZo3CUXYE_27.mp4	0.0	431.50723600387573	2.508155107498169
79	251.99840116500854	fix_post	2		12.0	77.0	2.5	/experiments/knapen_aot/videos/S_yt-M5qZo3CUXYE_27.mp4	0.0	434.0153911113739	0.10004591941833496
80	252.09844708442688	fix_pre	0		87.0	78.0	2.5	/experiments/knapen_aot/videos/R_S_yt-VTNBCfQxnsk_59.mp4	0.0	434.11543703079224	0.7251060009002686
80	252.81522512435913	response	0	4		78.0	2.5	/experiments/knapen_aot/videos/R_S_yt-VTNBCfQxnsk_59.mp4	0.0	434.8322150707245	
80	252.82355308532715	movie	1		301.0	78.0	2.5	/experiments/knapen_aot/videos/R_S_yt-VTNBCfQxnsk_59.mp4	0.0	434.8405430316925	2.5082199573516846
80	255.33177304267883	fix_post	2		12.0	78.0	2.5	/experiments/knapen_aot/videos/R_S_yt-VTNBCfQxnsk_59.mp4	0.0	437.3487629890442	0.09999299049377441
81	255.4317660331726	fix_pre	0		25.0	79.0	2.5	/experiments/knapen_aot/videos/R_S_yt-o0Hbe7kcPps_70.mp4	0.0	437.44875597953796	0.20824408531188965
81	255.63193011283875	response	0	4		79.0	2.5	/experiments/knapen_aot/videos/R_S_yt-o0Hbe7kcPps_70.mp4	0.0	437.6489200592041	
81	255.6400101184845	movie	1		301.0	79.0	2.5	/experiments/knapen_aot/videos/R_S_yt-o0Hbe7kcPps_70.mp4	0.0	437.65700006484985	2.5083959102630615
81	258.14840602874756	fix_post	2		12.0	79.0	2.5	/experiments/knapen_aot/videos/R_S_yt-o0Hbe7kcPps_70.mp4	0.0	440.1653959751129	0.09993696212768555
82	258.24834299087524	fix_pre	0		26.0	80.0	2.5	/experiments/knapen_aot/videos/S_yt-CEQnXB0LxQU_278.mp4	0.0	440.2653329372406	0.21667695045471191
82	258.45688009262085	response	0	4		80.0	2.5	/experiments/knapen_aot/videos/S_yt-CEQnXB0LxQU_278.mp4	0.0	440.4738700389862	
82	258.46501994132996	movie	1		301.0	80.0	2.5	/experiments/knapen_aot/videos/S_yt-CEQnXB0LxQU_278.mp4	0.0	440.4820098876953	2.508418083190918
82	260.9734380245209	fix_post	2		12.0	80.0	2.5	/experiments/knapen_aot/videos/S_yt-CEQnXB0LxQU_278.mp4	0.0	442.99042797088623	0.10013794898986816
83	261.07357597351074	fix_pre	0		123.0	81.0	2.5	/experiments/knapen_aot/videos/R_S_yt-BIDHmbneB10_998.mp4	0.0	443.0905659198761	1.0247530937194824
83	262.0901851654053	response	0	4		81.0	2.5	/experiments/knapen_aot/videos/R_S_yt-BIDHmbneB10_998.mp4	0.0	444.10717511177063	
83	262.0983290672302	movie	1		301.0	81.0	2.5	/experiments/knapen_aot/videos/R_S_yt-BIDHmbneB10_998.mp4	0.0	444.1153190135956	2.5084049701690674
83	264.6067340373993	fix_post	2		12.0	81.0	2.5	/experiments/knapen_aot/videos/R_S_yt-BIDHmbneB10_998.mp4	0.0	446.62372398376465	0.0999901294708252
84	264.7067241668701	fix_pre	0		21.0	82.0	2.5	/experiments/knapen_aot/videos/S_bing-www_nbcnews_com_storyline_isis-terror_fall-isis-stronghold-raqqa-will-change-war-extremists-not-end-n808621_86.mp4	0.0	446.7237141132355	0.17500782012939453
84	264.8734450340271	response	0	4		82.0	2.5	/experiments/knapen_aot/videos/S_bing-www_nbcnews_com_storyline_isis-terror_fall-isis-stronghold-raqqa-will-change-war-extremists-not-end-n808621_86.mp4	0.0	446.89043498039246	
84	264.8817319869995	movie	1		163.0	82.0	2.5	/experiments/knapen_aot/videos/S_bing-www_nbcnews_com_storyline_isis-terror_fall-isis-stronghold-raqqa-will-change-war-extremists-not-end-n808621_86.mp4	0.0	446.89872193336487	2.5081939697265625
84	267.3899259567261	fix_post	2		12.0	82.0	2.5	/experiments/knapen_aot/videos/S_bing-www_nbcnews_com_storyline_isis-terror_fall-isis-stronghold-raqqa-will-change-war-extremists-not-end-n808621_86.mp4	0.0	449.40691590309143	0.10018110275268555
85	267.49010705947876	fix_pre	0		19.0	83.0	2.5	blank	1.0	449.5070970058441	0.1581730842590332
85	267.6401650905609	response	0	4		83.0	2.5	blank	1.0	449.65715503692627	
85	267.6482801437378	movie	1		301.0	83.0	2.5	blank	1.0	449.66527009010315	2.5084388256073
85	270.1567189693451	fix_post	2		12.0	83.0	2.5	blank	1.0	452.17370891571045	0.09992098808288574
87	270.256639957428	stim	0		137.0					452.27362990379333	1.1432030200958252
87	271.38717103004456	response	0	space						453.4041609764099	
