trial_nr	onset	event_type	phase	response	nr_frames	movie_index	movie_duration	movie_file	blank	onset_abs	duration
0	0.12497520446777344	stim	0		56.0					110.57952499389648	0.4680209159851074
0	0.5834081172943115	response	0	space						111.03795790672302	
1	0.5929961204528809	stim	0		121.0					111.04754590988159	1.0066790580749512
1	1.599675178527832	stim	1		120.0					112.05422496795654	1.0000109672546387
1	1.8247270584106445	response	1	space						112.27927684783936	
2	2.5996861457824707	fix_pre	0		17.0	0.0	2.5	/experiments/knapen_aot/videos/R_S_g201_AK_A003_C014_SDR_20191113_SDR_2K_AVC.mp4	0.0	113.05423593521118	0.14160990715026855
2	2.7330100536346436	response	0	space		0.0	2.5	/experiments/knapen_aot/videos/R_S_g201_AK_A003_C014_SDR_20191113_SDR_2K_AVC.mp4	0.0	113.18755984306335	
2	2.7412960529327393	movie	1		166.0	0.0	2.5	/experiments/knapen_aot/videos/R_S_g201_AK_A003_C014_SDR_20191113_SDR_2K_AVC.mp4	0.0	113.19584584236145	2.508301019668579
2	5.249597072601318	fix_post	2		12.0	0.0	2.5	/experiments/knapen_aot/videos/R_S_g201_AK_A003_C014_SDR_20191113_SDR_2K_AVC.mp4	0.0	115.70414686203003	0.10000801086425781
3	5.349605083465576	fix_pre	0		29.0	1.0	2.5	/experiments/knapen_aot/videos/R_S_ILSVRC2015_train_00594000.mp4	0.0	115.80415487289429	0.2430419921875
3	5.584814071655273	response	0	2		1.0	2.5	/experiments/knapen_aot/videos/R_S_ILSVRC2015_train_00594000.mp4	0.0	116.03936386108398	
3	5.592647075653076	movie	1		301.0	1.0	2.5	/experiments/knapen_aot/videos/R_S_ILSVRC2015_train_00594000.mp4	0.0	116.04719686508179	2.5069220066070557
3	8.099569082260132	fix_post	2		12.0	1.0	2.5	/experiments/knapen_aot/videos/R_S_ILSVRC2015_train_00594000.mp4	0.0	118.55411887168884	0.10002493858337402
4	8.199594020843506	fix_pre	0		61.0	2.0	2.5	/experiments/knapen_aot/videos/S_G008_C015_UHD_SDR_2K_AVC.mp4	0.0	118.65414381027222	0.5082581043243408
4	8.699651002883911	response	0	2		2.0	2.5	/experiments/knapen_aot/videos/S_G008_C015_UHD_SDR_2K_AVC.mp4	0.0	119.15420079231262	
4	8.707852125167847	movie	1		178.0	2.0	2.5	/experiments/knapen_aot/videos/S_G008_C015_UHD_SDR_2K_AVC.mp4	0.0	119.16240191459656	2.508357048034668
4	11.216209173202515	fix_post	2		12.0	2.0	2.5	/experiments/knapen_aot/videos/S_G008_C015_UHD_SDR_2K_AVC.mp4	0.0	121.67075896263123	0.10000491142272949
5	11.316214084625244	fix_pre	0		153.0	3.0	2.5	/experiments/knapen_aot/videos/R_S_yt-VTNBCfQxnsk_59.mp4	0.0	121.77076387405396	1.2749929428100586
5	12.583049058914185	response	0	2		3.0	2.5	/experiments/knapen_aot/videos/R_S_yt-VTNBCfQxnsk_59.mp4	0.0	123.0375988483429	
5	12.591207027435303	movie	1		301.0	3.0	2.5	/experiments/knapen_aot/videos/R_S_yt-VTNBCfQxnsk_59.mp4	0.0	123.04575681686401	2.5083811283111572
5	15.09958815574646	fix_post	2		12.0	3.0	2.5	/experiments/knapen_aot/videos/R_S_yt-VTNBCfQxnsk_59.mp4	0.0	125.55413794517517	0.09999394416809082
6	15.19958209991455	fix_pre	0		46.0	4.0	2.5	/experiments/knapen_aot/videos/R_S_yt-MyL1VlXiZa4_25.mp4	0.0	125.65413188934326	0.38327693939208984
6	15.574632167816162	response	0	2		4.0	2.5	/experiments/knapen_aot/videos/R_S_yt-MyL1VlXiZa4_25.mp4	0.0	126.02918195724487	
6	15.58285903930664	movie	1		301.0	4.0	2.5	/experiments/knapen_aot/videos/R_S_yt-MyL1VlXiZa4_25.mp4	0.0	126.03740882873535	2.5083141326904297
6	18.09117317199707	fix_post	2		12.0	4.0	2.5	/experiments/knapen_aot/videos/R_S_yt-MyL1VlXiZa4_25.mp4	0.0	128.54572296142578	0.09999489784240723
7	18.191168069839478	fix_pre	0		26.0	5.0	2.5	/experiments/knapen_aot/videos/S_yt-GWgG8PVM1iw_34.mp4	0.0	128.6457178592682	0.21669292449951172
7	18.399688005447388	response	0	2		5.0	2.5	/experiments/knapen_aot/videos/S_yt-GWgG8PVM1iw_34.mp4	0.0	128.8542377948761	
7	18.40786099433899	movie	1		301.0	5.0	2.5	/experiments/knapen_aot/videos/S_yt-GWgG8PVM1iw_34.mp4	0.0	128.8624107837677	2.5083160400390625
7	20.91617703437805	fix_post	2		12.0	5.0	2.5	/experiments/knapen_aot/videos/S_yt-GWgG8PVM1iw_34.mp4	0.0	131.37072682380676	0.09998703002929688
8	21.01616406440735	fix_pre	0		46.0	6.0	2.5	blank	1.0	131.47071385383606	0.38328099250793457
8	21.39132308959961	response	0	2		6.0	2.5	blank	1.0	131.84587287902832	
8	21.399445056915283	movie	1		301.0	6.0	2.5	blank	1.0	131.853994846344	2.50832200050354
8	22.95796799659729	response	1	2		6.0	2.5	blank	1.0	133.412517786026	
8	23.907767057418823	fix_post	2		12.0	6.0	2.5	blank	1.0	134.36231684684753	0.10002398490905762
9	24.00779104232788	fix_pre	0		31.0	7.0	2.5	/experiments/knapen_aot/videos/R_S_yt-hvuC_2YXsTQ_159.mp4	0.0	134.4623408317566	0.2584199905395508
9	24.257978200912476	response	0	2		7.0	2.5	/experiments/knapen_aot/videos/R_S_yt-hvuC_2YXsTQ_159.mp4	0.0	134.7125279903412	
9	24.26621103286743	movie	1		301.0	7.0	2.5	/experiments/knapen_aot/videos/R_S_yt-hvuC_2YXsTQ_159.mp4	0.0	134.72076082229614	2.5083200931549072
9	26.082959175109863	response	1	2		7.0	2.5	/experiments/knapen_aot/videos/R_S_yt-hvuC_2YXsTQ_159.mp4	0.0	136.53750896453857	
9	26.77453112602234	fix_post	2		12.0	7.0	2.5	/experiments/knapen_aot/videos/R_S_yt-hvuC_2YXsTQ_159.mp4	0.0	137.22908091545105	0.09993100166320801
9	26.791349172592163	response	2	2		7.0	2.5	/experiments/knapen_aot/videos/R_S_yt-hvuC_2YXsTQ_159.mp4	0.0	137.24589896202087	
10	26.874462127685547	fix_pre	0		34.0	8.0	2.5	/experiments/knapen_aot/videos/S_yt-JDHApyT5ngs_128.mp4	0.0	137.32901191711426	0.2833719253540039
10	27.149532079696655	response	0	2		8.0	2.5	/experiments/knapen_aot/videos/S_yt-JDHApyT5ngs_128.mp4	0.0	137.60408186912537	
10	27.15783405303955	movie	1		301.0	8.0	2.5	/experiments/knapen_aot/videos/S_yt-JDHApyT5ngs_128.mp4	0.0	137.61238384246826	2.5083069801330566
10	29.666141033172607	fix_post	2		12.0	8.0	2.5	/experiments/knapen_aot/videos/S_yt-JDHApyT5ngs_128.mp4	0.0	140.12069082260132	0.10004615783691406
11	29.76618719100952	fix_pre	0		6.0	9.0	2.5	/experiments/knapen_aot/videos/S_yt-cgYmOmMzn98_103.mp4	0.0	140.22073698043823	0.049957990646362305
11	29.807950019836426	response	0	2		9.0	2.5	/experiments/knapen_aot/videos/S_yt-cgYmOmMzn98_103.mp4	0.0	140.26249980926514	
11	29.816145181655884	movie	1		301.0	9.0	2.5	/experiments/knapen_aot/videos/S_yt-cgYmOmMzn98_103.mp4	0.0	140.2706949710846	2.508340835571289
11	32.32448601722717	fix_post	2		12.0	9.0	2.5	/experiments/knapen_aot/videos/S_yt-cgYmOmMzn98_103.mp4	0.0	142.77903580665588	0.09994316101074219
11	32.40793704986572	response	2	2		9.0	2.5	/experiments/knapen_aot/videos/S_yt-cgYmOmMzn98_103.mp4	0.0	142.86248683929443	
12	32.424429178237915	fix_pre	0		26.0	10.0	2.5	/experiments/knapen_aot/videos/R_S_flickr-53807584@N00-5566422012_16.mp4	0.0	142.87897896766663	0.2166919708251953
12	32.63287115097046	response	0	2		10.0	2.5	/experiments/knapen_aot/videos/R_S_flickr-53807584@N00-5566422012_16.mp4	0.0	143.08742094039917	
12	32.64112114906311	movie	1		301.0	10.0	2.5	/experiments/knapen_aot/videos/R_S_flickr-53807584@N00-5566422012_16.mp4	0.0	143.09567093849182	2.5083630084991455
12	35.149484157562256	fix_post	2		12.0	10.0	2.5	/experiments/knapen_aot/videos/R_S_flickr-53807584@N00-5566422012_16.mp4	0.0	145.60403394699097	0.10005688667297363
13	35.24954104423523	fix_pre	0		25.0	11.0	2.5	/experiments/knapen_aot/videos/R_S_yt-OLDm2slgfA4_3.mp4	0.0	145.70409083366394	0.20826506614685059
13	35.44956016540527	response	0	2		11.0	2.5	/experiments/knapen_aot/videos/R_S_yt-OLDm2slgfA4_3.mp4	0.0	145.90410995483398	
13	35.45780611038208	movie	1		301.0	11.0	2.5	/experiments/knapen_aot/videos/R_S_yt-OLDm2slgfA4_3.mp4	0.0	145.9123558998108	2.5082359313964844
13	37.966042041778564	fix_post	2		12.0	11.0	2.5	/experiments/knapen_aot/videos/R_S_yt-OLDm2slgfA4_3.mp4	0.0	148.42059183120728	0.10007810592651367
14	38.06612014770508	fix_pre	0		115.0	12.0	2.5	/experiments/knapen_aot/videos/S_yt-SyePE8wOlxs_321.mp4	0.0	148.5206699371338	0.9582810401916504
14	39.01626420021057	response	0	2		12.0	2.5	/experiments/knapen_aot/videos/S_yt-SyePE8wOlxs_321.mp4	0.0	149.47081398963928	
14	39.02440118789673	movie	1		301.0	12.0	2.5	/experiments/knapen_aot/videos/S_yt-SyePE8wOlxs_321.mp4	0.0	149.47895097732544	2.5083889961242676
14	41.532790184020996	fix_post	2		12.0	12.0	2.5	/experiments/knapen_aot/videos/S_yt-SyePE8wOlxs_321.mp4	0.0	151.9873399734497	0.09997081756591797
15	41.632761001586914	fix_pre	0		56.0	13.0	2.5	blank	1.0	152.08731079101562	0.4666740894317627
15	42.083678007125854	response	0	2		13.0	2.5	blank	1.0	152.53822779655457	
15	42.09943509101868	movie	1		301.0	13.0	2.5	blank	1.0	152.5539848804474	2.508310079574585
15	44.60774517059326	fix_post	2		12.0	13.0	2.5	blank	1.0	155.06229496002197	0.0999908447265625
16	44.707736015319824	fix_pre	0		42.0	14.0	2.5	/experiments/knapen_aot/videos/R_S_yt-y6JsUW0eSW8_32.mp4	0.0	155.16228580474854	0.34996604919433594
16	45.04955220222473	response	0	2		14.0	2.5	/experiments/knapen_aot/videos/R_S_yt-y6JsUW0eSW8_32.mp4	0.0	155.50410199165344	
16	45.05770206451416	movie	1		301.0	14.0	2.5	/experiments/knapen_aot/videos/R_S_yt-y6JsUW0eSW8_32.mp4	0.0	155.51225185394287	2.508355140686035
16	47.566057205200195	fix_post	2		12.0	14.0	2.5	/experiments/knapen_aot/videos/R_S_yt-y6JsUW0eSW8_32.mp4	0.0	158.0206069946289	0.09997987747192383
17	47.66603708267212	fix_pre	0		54.0	15.0	2.5	/experiments/knapen_aot/videos/S_yt-c6kLumgTX54_7.mp4	0.0	158.12058687210083	0.45002007484436035
17	48.10792899131775	response	0	2		15.0	2.5	/experiments/knapen_aot/videos/S_yt-c6kLumgTX54_7.mp4	0.0	158.56247878074646	
17	48.11605715751648	movie	1		301.0	15.0	2.5	/experiments/knapen_aot/videos/S_yt-c6kLumgTX54_7.mp4	0.0	158.5706069469452	2.5083839893341064
17	50.624441146850586	fix_post	2		12.0	15.0	2.5	/experiments/knapen_aot/videos/S_yt-c6kLumgTX54_7.mp4	0.0	161.0789909362793	0.10002398490905762
18	50.724465131759644	fix_pre	0		90.0	16.0	2.5	/experiments/knapen_aot/videos/R_S_yt-lkpfs_4qAGE_50.mp4	0.0	161.17901492118835	0.7499699592590332
18	51.46618700027466	response	0	2		16.0	2.5	/experiments/knapen_aot/videos/R_S_yt-lkpfs_4qAGE_50.mp4	0.0	161.92073678970337	
18	51.47443509101868	movie	1		301.0	16.0	2.5	/experiments/knapen_aot/videos/R_S_yt-lkpfs_4qAGE_50.mp4	0.0	161.9289848804474	2.5083351135253906
18	53.98277020454407	fix_post	2		12.0	16.0	2.5	/experiments/knapen_aot/videos/R_S_yt-lkpfs_4qAGE_50.mp4	0.0	164.43731999397278	0.09994888305664062
19	54.08271908760071	fix_pre	0		29.0	17.0	2.5	/experiments/knapen_aot/videos/R_S_yt--cAfxH1WnPo_3.mp4	0.0	164.53726887702942	0.24166512489318848
19	54.316320180892944	response	0	2		17.0	2.5	/experiments/knapen_aot/videos/R_S_yt--cAfxH1WnPo_3.mp4	0.0	164.77086997032166	
19	54.3243842124939	movie	1		301.0	17.0	2.5	/experiments/knapen_aot/videos/R_S_yt--cAfxH1WnPo_3.mp4	0.0	164.7789340019226	2.508312940597534
19	56.83269715309143	fix_post	2		12.0	17.0	2.5	/experiments/knapen_aot/videos/R_S_yt--cAfxH1WnPo_3.mp4	0.0	167.28724694252014	0.09999799728393555
20	56.932695150375366	fix_pre	0		26.0	18.0	2.5	/experiments/knapen_aot/videos/R_S_yt-c6kLumgTX54_7.mp4	0.0	167.38724493980408	0.21662306785583496
20	57.141096115112305	response	0	2		18.0	2.5	/experiments/knapen_aot/videos/R_S_yt-c6kLumgTX54_7.mp4	0.0	167.59564590454102	
20	57.1493182182312	movie	1		301.0	18.0	2.5	/experiments/knapen_aot/videos/R_S_yt-c6kLumgTX54_7.mp4	0.0	167.6038680076599	2.50837779045105
20	59.65769600868225	fix_post	2		12.0	18.0	2.5	/experiments/knapen_aot/videos/R_S_yt-c6kLumgTX54_7.mp4	0.0	170.11224579811096	0.10001802444458008
21	59.75771403312683	fix_pre	0		65.0	19.0	2.5	/experiments/knapen_aot/videos/S_yt-PP93D7b7Ni4_10.mp4	0.0	170.21226382255554	0.5427610874176025
21	60.291290044784546	response	0	2		19.0	2.5	/experiments/knapen_aot/videos/S_yt-PP93D7b7Ni4_10.mp4	0.0	170.74583983421326	
21	60.300475120544434	movie	1		300.0	19.0	2.5	/experiments/knapen_aot/videos/S_yt-PP93D7b7Ni4_10.mp4	0.0	170.75502490997314	2.5072128772735596
21	62.80768799781799	fix_post	2		12.0	19.0	2.5	/experiments/knapen_aot/videos/S_yt-PP93D7b7Ni4_10.mp4	0.0	173.2622377872467	0.10001015663146973
22	62.90769815444946	fix_pre	0		25.0	20.0	2.5	blank	1.0	173.36224794387817	0.20826983451843262
22	63.10781407356262	response	0	2		20.0	2.5	blank	1.0	173.56236386299133	
22	63.115967988967896	movie	1		301.0	20.0	2.5	blank	1.0	173.5705177783966	2.508294105529785
22	65.62426209449768	fix_post	2		12.0	20.0	2.5	blank	1.0	176.0788118839264	0.10007405281066895
23	65.72433614730835	fix_pre	0		23.0	21.0	2.5	/experiments/knapen_aot/videos/R_S_S005_C015_SDR_2K_AVC.mp4	0.0	176.17888593673706	0.19160890579223633
23	65.9003381729126	response	0	2		21.0	2.5	/experiments/knapen_aot/videos/R_S_S005_C015_SDR_2K_AVC.mp4	0.0	176.3548879623413	
23	65.91594505310059	movie	1		169.0	21.0	2.5	/experiments/knapen_aot/videos/R_S_S005_C015_SDR_2K_AVC.mp4	0.0	176.3704948425293	2.508415937423706
23	68.42436099052429	fix_post	2		12.0	21.0	2.5	/experiments/knapen_aot/videos/R_S_S005_C015_SDR_2K_AVC.mp4	0.0	178.878910779953	0.0999600887298584
24	68.52432107925415	fix_pre	0		5.0	22.0	2.5	/experiments/knapen_aot/videos/R_S_ILSVRC2015_train_00599000.mp4	0.0	178.97887086868286	0.04184103012084961
24	68.55796504020691	response	0	2		22.0	2.5	/experiments/knapen_aot/videos/R_S_ILSVRC2015_train_00599000.mp4	0.0	179.01251482963562	
24	68.566162109375	movie	1		301.0	22.0	2.5	/experiments/knapen_aot/videos/R_S_ILSVRC2015_train_00599000.mp4	0.0	179.0207118988037	2.508096933364868
24	71.07425904273987	fix_post	2		12.0	22.0	2.5	/experiments/knapen_aot/videos/R_S_ILSVRC2015_train_00599000.mp4	0.0	181.52880883216858	0.1000521183013916
25	71.17431116104126	fix_pre	0		12.0	23.0	2.5	/experiments/knapen_aot/videos/S_3dzza09VbXY_235.mp4	0.0	181.62886095046997	0.09996294975280762
25	71.26614499092102	response	0	2		23.0	2.5	/experiments/knapen_aot/videos/S_3dzza09VbXY_235.mp4	0.0	181.72069478034973	
25	71.27427411079407	movie	1		299.0	23.0	2.5	/experiments/knapen_aot/videos/S_3dzza09VbXY_235.mp4	0.0	181.72882390022278	2.5083229541778564
25	73.78259706497192	fix_post	2		12.0	23.0	2.5	/experiments/knapen_aot/videos/S_3dzza09VbXY_235.mp4	0.0	184.23714685440063	0.10001993179321289
26	73.88261699676514	fix_pre	0		29.0	24.0	2.5	/experiments/knapen_aot/videos/R_S_ILSVRC2015_train_00723001.mp4	0.0	184.33716678619385	0.2417311668395996
26	74.10872411727905	response	0	2		24.0	2.5	/experiments/knapen_aot/videos/R_S_ILSVRC2015_train_00723001.mp4	0.0	184.56327390670776	
26	74.12434816360474	movie	1		301.0	24.0	2.5	/experiments/knapen_aot/videos/R_S_ILSVRC2015_train_00723001.mp4	0.0	184.57889795303345	2.5082249641418457
26	76.63257312774658	fix_post	2		12.0	24.0	2.5	/experiments/knapen_aot/videos/R_S_ILSVRC2015_train_00723001.mp4	0.0	187.0871229171753	0.09993696212768555
27	76.73251008987427	fix_pre	0		18.0	25.0	2.5	/experiments/knapen_aot/videos/S_yt-06XMUn9DTKc_35.mp4	0.0	187.18705987930298	0.15112900733947754
27	76.87443518638611	response	0	2		25.0	2.5	/experiments/knapen_aot/videos/S_yt-06XMUn9DTKc_35.mp4	0.0	187.32898497581482	
27	76.88363909721375	movie	1		301.0	25.0	2.5	/experiments/knapen_aot/videos/S_yt-06XMUn9DTKc_35.mp4	0.0	187.33818888664246	2.507314920425415
27	79.39095401763916	fix_post	2		12.0	25.0	2.5	/experiments/knapen_aot/videos/S_yt-06XMUn9DTKc_35.mp4	0.0	189.84550380706787	0.09999608993530273
28	79.49095010757446	fix_pre	0		22.0	26.0	2.5	/experiments/knapen_aot/videos/S_FZ0hLmjCR0s_26.mp4	0.0	189.94549989700317	0.18431806564331055
28	79.66609501838684	response	0	2		26.0	2.5	/experiments/knapen_aot/videos/S_FZ0hLmjCR0s_26.mp4	0.0	190.12064480781555	
28	79.67526817321777	movie	1		301.0	26.0	2.5	/experiments/knapen_aot/videos/S_FZ0hLmjCR0s_26.mp4	0.0	190.12981796264648	2.5073368549346924
28	82.18260502815247	fix_post	2		12.0	26.0	2.5	/experiments/knapen_aot/videos/S_FZ0hLmjCR0s_26.mp4	0.0	192.63715481758118	0.09993696212768555
29	82.28254199028015	fix_pre	0		17.0	27.0	2.5	/experiments/knapen_aot/videos/S_production_ID_5020953.mp4	0.0	192.73709177970886	0.14276814460754395
29	82.41604113578796	response	0	2		27.0	2.5	/experiments/knapen_aot/videos/S_production_ID_5020953.mp4	0.0	192.87059092521667	
29	82.4253101348877	movie	1		195.0	27.0	2.5	/experiments/knapen_aot/videos/S_production_ID_5020953.mp4	0.0	192.8798599243164	2.5073189735412598
29	84.93262910842896	fix_post	2		12.0	27.0	2.5	/experiments/knapen_aot/videos/S_production_ID_5020953.mp4	0.0	195.38717889785767	0.09989595413208008
30	85.03252506256104	fix_pre	0		25.0	28.0	2.5	blank	1.0	195.48707485198975	0.20833706855773926
30	85.23273301124573	response	0	2		28.0	2.5	blank	1.0	195.68728280067444	
30	85.24086213111877	movie	1		301.0	28.0	2.5	blank	1.0	195.69541192054749	2.508409023284912
30	87.74927115440369	fix_post	2		12.0	28.0	2.5	blank	1.0	198.2038209438324	0.09998893737792969
31	87.84926009178162	fix_pre	0		32.0	29.0	2.5	/experiments/knapen_aot/videos/R_S_dnLAfffA-kU_53.mp4	0.0	198.30380988121033	0.26663994789123535
31	88.10763621330261	response	0	2		29.0	2.5	/experiments/knapen_aot/videos/R_S_dnLAfffA-kU_53.mp4	0.0	198.56218600273132	
31	88.11590003967285	movie	1		301.0	29.0	2.5	/experiments/knapen_aot/videos/R_S_dnLAfffA-kU_53.mp4	0.0	198.57044982910156	2.508345127105713
31	90.62424516677856	fix_post	2		12.0	29.0	2.5	/experiments/knapen_aot/videos/R_S_dnLAfffA-kU_53.mp4	0.0	201.07879495620728	0.1000208854675293
32	90.7242660522461	fix_pre	0		49.0	30.0	2.5	/experiments/knapen_aot/videos/R_S_video-10.mp4	0.0	201.1788158416748	0.40923404693603516
32	91.1243851184845	response	0	2		30.0	2.5	/experiments/knapen_aot/videos/R_S_video-10.mp4	0.0	201.5789349079132	
32	91.13350009918213	movie	1		165.0	30.0	2.5	/experiments/knapen_aot/videos/R_S_video-10.mp4	0.0	201.58804988861084	2.5074360370635986
32	93.64093613624573	fix_post	2		12.0	30.0	2.5	/experiments/knapen_aot/videos/R_S_video-10.mp4	0.0	204.09548592567444	0.10003185272216797
33	93.7409679889679	fix_pre	0		52.0	31.0	2.5	/experiments/knapen_aot/videos/R_S_wc-NzEeGIXLxvwp_19.mp4	0.0	204.1955177783966	0.43418312072753906
33	94.1659791469574	response	0	2		31.0	2.5	/experiments/knapen_aot/videos/R_S_wc-NzEeGIXLxvwp_19.mp4	0.0	204.6205289363861	
33	94.17515110969543	movie	1		165.0	31.0	2.5	/experiments/knapen_aot/videos/R_S_wc-NzEeGIXLxvwp_19.mp4	0.0	204.62970089912415	2.5073649883270264
33	96.68251609802246	fix_post	2		12.0	31.0	2.5	/experiments/knapen_aot/videos/R_S_wc-NzEeGIXLxvwp_19.mp4	0.0	207.13706588745117	0.10004305839538574
34	96.78255915641785	fix_pre	0		48.0	32.0	2.5	/experiments/knapen_aot/videos/S_ILSVRC2015_train_00601000.mp4	0.0	207.23710894584656	0.3998899459838867
34	97.17436599731445	response	0	2		32.0	2.5	/experiments/knapen_aot/videos/S_ILSVRC2015_train_00601000.mp4	0.0	207.62891578674316	
34	97.18244910240173	movie	1		301.0	32.0	2.5	/experiments/knapen_aot/videos/S_ILSVRC2015_train_00601000.mp4	0.0	207.63699889183044	2.508352041244507
34	99.69080114364624	fix_post	2		12.0	32.0	2.5	/experiments/knapen_aot/videos/S_ILSVRC2015_train_00601000.mp4	0.0	210.14535093307495	0.10005998611450195
35	99.79086112976074	fix_pre	0		102.0	33.0	2.5	/experiments/knapen_aot/videos/R_S_yt-uXDyvrm0Tw0_17.mp4	0.0	210.24541091918945	0.8499319553375244
35	100.63267922401428	response	0	2		33.0	2.5	/experiments/knapen_aot/videos/R_S_yt-uXDyvrm0Tw0_17.mp4	0.0	211.087229013443	
35	100.64079308509827	movie	1		301.0	33.0	2.5	/experiments/knapen_aot/videos/R_S_yt-uXDyvrm0Tw0_17.mp4	0.0	211.09534287452698	2.5084729194641113
35	103.14926600456238	fix_post	2		12.0	33.0	2.5	/experiments/knapen_aot/videos/R_S_yt-uXDyvrm0Tw0_17.mp4	0.0	213.6038157939911	0.09996509552001953
36	103.2492311000824	fix_pre	0		35.0	34.0	2.5	blank	1.0	213.7037808895111	0.29160594940185547
36	103.53268218040466	response	0	2		34.0	2.5	blank	1.0	213.98723196983337	
36	103.54083704948425	movie	1		301.0	34.0	2.5	blank	1.0	213.99538683891296	2.508371114730835
36	106.04920816421509	fix_post	2		12.0	34.0	2.5	blank	1.0	216.5037579536438	0.09995603561401367
37	106.1491641998291	fix_pre	0		26.0	35.0	2.5	/experiments/knapen_aot/videos/S_yt-OdTWn1U1mO4_68.mp4	0.0	216.6037139892578	0.2166459560394287
37	106.3575930595398	response	0	2		35.0	2.5	/experiments/knapen_aot/videos/S_yt-OdTWn1U1mO4_68.mp4	0.0	216.8121428489685	
37	106.36581015586853	movie	1		301.0	35.0	2.5	/experiments/knapen_aot/videos/S_yt-OdTWn1U1mO4_68.mp4	0.0	216.82035994529724	2.508349895477295
37	108.87416005134583	fix_post	2		12.0	35.0	2.5	/experiments/knapen_aot/videos/S_yt-OdTWn1U1mO4_68.mp4	0.0	219.32870984077454	0.10002613067626953
38	108.9741861820221	fix_pre	0		62.0	36.0	2.5	/experiments/knapen_aot/videos/R_S_yt-TbdZrcl_Jso_5.mp4	0.0	219.4287359714508	0.5165719985961914
38	109.48264217376709	response	0	2		36.0	2.5	/experiments/knapen_aot/videos/R_S_yt-TbdZrcl_Jso_5.mp4	0.0	219.9371919631958	
38	109.49075818061829	movie	1		300.0	36.0	2.5	/experiments/knapen_aot/videos/R_S_yt-TbdZrcl_Jso_5.mp4	0.0	219.945307970047	2.5083208084106445
38	111.99907898902893	fix_post	2		12.0	36.0	2.5	/experiments/knapen_aot/videos/R_S_yt-TbdZrcl_Jso_5.mp4	0.0	222.45362877845764	0.10002708435058594
39	112.09910607337952	fix_pre	0		22.0	37.0	2.5	/experiments/knapen_aot/videos/S_yt-Id-f63kUHsE_20.mp4	0.0	222.55365586280823	0.18337297439575195
39	112.2742030620575	response	0	2		37.0	2.5	/experiments/knapen_aot/videos/S_yt-Id-f63kUHsE_20.mp4	0.0	222.7287528514862	
39	112.28247904777527	movie	1		301.0	37.0	2.5	/experiments/knapen_aot/videos/S_yt-Id-f63kUHsE_20.mp4	0.0	222.73702883720398	2.5083210468292236
39	114.79080009460449	fix_post	2		12.0	37.0	2.5	/experiments/knapen_aot/videos/S_yt-Id-f63kUHsE_20.mp4	0.0	225.2453498840332	0.10002303123474121
40	114.89082312583923	fix_pre	0		22.0	38.0	2.5	/experiments/knapen_aot/videos/S_yt-VTNBCfQxnsk_59.mp4	0.0	225.34537291526794	0.18330001831054688
40	115.06593203544617	response	0	2		38.0	2.5	/experiments/knapen_aot/videos/S_yt-VTNBCfQxnsk_59.mp4	0.0	225.52048182487488	
40	115.07412314414978	movie	1		301.0	38.0	2.5	/experiments/knapen_aot/videos/S_yt-VTNBCfQxnsk_59.mp4	0.0	225.5286729335785	2.5083699226379395
40	117.58249306678772	fix_post	2		12.0	38.0	2.5	/experiments/knapen_aot/videos/S_yt-VTNBCfQxnsk_59.mp4	0.0	228.03704285621643	0.09995508193969727
41	117.68244814872742	fix_pre	0		75.0	39.0	2.5	/experiments/knapen_aot/videos/R_S_yt-7W50lcw5FCo_37.mp4	0.0	228.13699793815613	0.625014066696167
41	118.29923915863037	response	0	2		39.0	2.5	/experiments/knapen_aot/videos/R_S_yt-7W50lcw5FCo_37.mp4	0.0	228.75378894805908	
41	118.30746221542358	movie	1		301.0	39.0	2.5	/experiments/knapen_aot/videos/R_S_yt-7W50lcw5FCo_37.mp4	0.0	228.7620120048523	2.5083279609680176
41	120.8157901763916	fix_post	2		12.0	39.0	2.5	/experiments/knapen_aot/videos/R_S_yt-7W50lcw5FCo_37.mp4	0.0	231.2703399658203	0.10001301765441895
42	120.91580319404602	fix_pre	0		62.0	40.0	2.5	/experiments/knapen_aot/videos/S_ILSVRC2015_train_00354001.mp4	0.0	231.37035298347473	0.5166139602661133
42	121.42422318458557	response	0	2		40.0	2.5	/experiments/knapen_aot/videos/S_ILSVRC2015_train_00354001.mp4	0.0	231.87877297401428	
42	121.43241715431213	movie	1		301.0	40.0	2.5	/experiments/knapen_aot/videos/S_ILSVRC2015_train_00354001.mp4	0.0	231.88696694374084	2.5082919597625732
42	123.9407091140747	fix_post	2		12.0	40.0	2.5	/experiments/knapen_aot/videos/S_ILSVRC2015_train_00354001.mp4	0.0	234.39525890350342	0.10001707077026367
43	124.04072618484497	fix_pre	0		42.0	41.0	2.5	/experiments/knapen_aot/videos/R_S_ILSVRC2015_train_00379000.mp4	0.0	234.49527597427368	0.3500239849090576
43	124.3825011253357	response	0	2		41.0	2.5	/experiments/knapen_aot/videos/R_S_ILSVRC2015_train_00379000.mp4	0.0	234.8370509147644	
43	124.39075016975403	movie	1		301.0	41.0	2.5	/experiments/knapen_aot/videos/R_S_ILSVRC2015_train_00379000.mp4	0.0	234.84529995918274	2.5083279609680176
43	126.89907813072205	fix_post	2		12.0	41.0	2.5	/experiments/knapen_aot/videos/R_S_ILSVRC2015_train_00379000.mp4	0.0	237.35362792015076	0.09997797012329102
44	126.99905610084534	fix_pre	0		133.0	42.0	2.5	blank	1.0	237.45360589027405	1.108375072479248
44	128.0991871356964	response	0	2		42.0	2.5	blank	1.0	238.55373692512512	
44	128.10743117332458	movie	1		301.0	42.0	2.5	blank	1.0	238.5619809627533	2.508267879486084
44	130.61569905281067	fix_post	2		12.0	42.0	2.5	blank	1.0	241.07024884223938	0.10003805160522461
45	130.7157371044159	fix_pre	0		21.0	43.0	2.5	/experiments/knapen_aot/videos/S_yt-l6WPyKg_3is_154.mp4	0.0	241.1702868938446	0.17499303817749023
45	130.88256001472473	response	0	4		43.0	2.5	/experiments/knapen_aot/videos/S_yt-l6WPyKg_3is_154.mp4	0.0	241.33710980415344	
45	130.89073014259338	movie	1		301.0	43.0	2.5	/experiments/knapen_aot/videos/S_yt-l6WPyKg_3is_154.mp4	0.0	241.3452799320221	2.5083060264587402
45	133.39903616905212	fix_post	2		12.0	43.0	2.5	/experiments/knapen_aot/videos/S_yt-l6WPyKg_3is_154.mp4	0.0	243.85358595848083	0.10007405281066895
46	133.4991102218628	fix_pre	0		25.0	44.0	2.5	/experiments/knapen_aot/videos/R_S_yt-nMWqezngycw_10.mp4	0.0	243.9536600112915	0.20823884010314941
46	133.699294090271	response	0	2		44.0	2.5	/experiments/knapen_aot/videos/R_S_yt-nMWqezngycw_10.mp4	0.0	244.1538438796997	
46	133.70734906196594	movie	1		301.0	44.0	2.5	/experiments/knapen_aot/videos/R_S_yt-nMWqezngycw_10.mp4	0.0	244.16189885139465	2.508327007293701
46	136.21567606925964	fix_post	2		12.0	44.0	2.5	/experiments/knapen_aot/videos/R_S_yt-nMWqezngycw_10.mp4	0.0	246.67022585868835	0.09998393058776855
47	136.3156599998474	fix_pre	0		29.0	45.0	2.5	/experiments/knapen_aot/videos/R_S_X-D3lUv-atE_376.mp4	0.0	246.77020978927612	0.24167704582214355
47	136.54919719696045	response	0	4		45.0	2.5	/experiments/knapen_aot/videos/R_S_X-D3lUv-atE_376.mp4	0.0	247.00374698638916	
47	136.55733704566956	movie	1		301.0	45.0	2.5	/experiments/knapen_aot/videos/R_S_X-D3lUv-atE_376.mp4	0.0	247.01188683509827	2.5083601474761963
47	139.06569719314575	fix_post	2		12.0	45.0	2.5	/experiments/knapen_aot/videos/R_S_X-D3lUv-atE_376.mp4	0.0	249.52024698257446	0.0999758243560791
48	139.16567301750183	fix_pre	0		80.0	46.0	2.5	/experiments/knapen_aot/videos/S_wc-hmW1OnCPF_xn_37.mp4	0.0	249.62022280693054	0.6668391227722168
48	139.8242301940918	response	0	4		46.0	2.5	/experiments/knapen_aot/videos/S_wc-hmW1OnCPF_xn_37.mp4	0.0	250.2787799835205	
48	139.83251214027405	movie	1		171.0	46.0	2.5	/experiments/knapen_aot/videos/S_wc-hmW1OnCPF_xn_37.mp4	0.0	250.28706192970276	2.5081350803375244
48	142.34064722061157	fix_post	2		12.0	46.0	2.5	/experiments/knapen_aot/videos/S_wc-hmW1OnCPF_xn_37.mp4	0.0	252.79519701004028	0.09997177124023438
49	142.4406189918518	fix_pre	0		39.0	47.0	2.5	/experiments/knapen_aot/videos/R_S_ILSVRC2015_train_00165009.mp4	0.0	252.89516878128052	0.3250570297241211
49	142.7574610710144	response	0	2		47.0	2.5	/experiments/knapen_aot/videos/R_S_ILSVRC2015_train_00165009.mp4	0.0	253.21201086044312	
49	142.76567602157593	movie	1		301.0	47.0	2.5	/experiments/knapen_aot/videos/R_S_ILSVRC2015_train_00165009.mp4	0.0	253.22022581100464	2.508352041244507
49	145.27402806282043	fix_post	2		12.0	47.0	2.5	/experiments/knapen_aot/videos/R_S_ILSVRC2015_train_00165009.mp4	0.0	255.72857785224915	0.1000051498413086
50	145.37403321266174	fix_pre	0		159.0	48.0	2.5	blank	1.0	255.82858300209045	1.3250148296356201
50	146.69081211090088	response	0	2		48.0	2.5	blank	1.0	257.1453619003296	
50	146.69904804229736	movie	1		301.0	48.0	2.5	blank	1.0	257.1535978317261	2.508270025253296
50	149.20731806755066	fix_post	2		12.0	48.0	2.5	blank	1.0	259.66186785697937	0.1000051498413086
51	149.30732321739197	fix_pre	0		28.0	49.0	2.5	/experiments/knapen_aot/videos/R_S_yt-nMWqezngycw_10.mp4	0.0	259.7618730068207	0.23340892791748047
51	149.5324101448059	response	0	2		49.0	2.5	/experiments/knapen_aot/videos/R_S_yt-nMWqezngycw_10.mp4	0.0	259.9869599342346	
51	149.54073214530945	movie	1		301.0	49.0	2.5	/experiments/knapen_aot/videos/R_S_yt-nMWqezngycw_10.mp4	0.0	259.99528193473816	2.5082569122314453
51	152.0489890575409	fix_post	2		12.0	49.0	2.5	/experiments/knapen_aot/videos/R_S_yt-nMWqezngycw_10.mp4	0.0	262.5035388469696	0.09992408752441406
52	152.1489131450653	fix_pre	0		60.0	50.0	2.5	/experiments/knapen_aot/videos/R_S_Y003_C009_SDR_2K_AVC.mp4	0.0	262.603462934494	0.5000429153442383
52	152.63319611549377	response	0	2		50.0	2.5	/experiments/knapen_aot/videos/R_S_Y003_C009_SDR_2K_AVC.mp4	0.0	263.0877459049225	
52	152.64895606040955	movie	1		176.0	50.0	2.5	/experiments/knapen_aot/videos/R_S_Y003_C009_SDR_2K_AVC.mp4	0.0	263.10350584983826	2.5083420276641846
52	155.15729808807373	fix_post	2		12.0	50.0	2.5	/experiments/knapen_aot/videos/R_S_Y003_C009_SDR_2K_AVC.mp4	0.0	265.61184787750244	0.1000521183013916
53	155.25735020637512	fix_pre	0		91.0	51.0	2.5	/experiments/knapen_aot/videos/R_S_yt-D9uD7yM6bxQ_269.mp4	0.0	265.71189999580383	0.7582488059997559
53	156.00743317604065	response	0	2		51.0	2.5	/experiments/knapen_aot/videos/R_S_yt-D9uD7yM6bxQ_269.mp4	0.0	266.46198296546936	
53	156.01559901237488	movie	1		301.0	51.0	2.5	/experiments/knapen_aot/videos/R_S_yt-D9uD7yM6bxQ_269.mp4	0.0	266.4701488018036	2.508301019668579
53	158.52390003204346	fix_post	2		12.0	51.0	2.5	/experiments/knapen_aot/videos/R_S_yt-D9uD7yM6bxQ_269.mp4	0.0	268.97844982147217	0.10002303123474121
54	158.6239230632782	fix_pre	0		78.0	52.0	2.5	/experiments/knapen_aot/videos/S_ILSVRC2015_train_00079001.mp4	0.0	269.0784728527069	0.6500260829925537
54	159.2657651901245	response	0	2		52.0	2.5	/experiments/knapen_aot/videos/S_ILSVRC2015_train_00079001.mp4	0.0	269.7203149795532	
54	159.27394914627075	movie	1		301.0	52.0	2.5	/experiments/knapen_aot/videos/S_ILSVRC2015_train_00079001.mp4	0.0	269.72849893569946	2.5083508491516113
54	161.78229999542236	fix_post	2		12.0	52.0	2.5	/experiments/knapen_aot/videos/S_ILSVRC2015_train_00079001.mp4	0.0	272.2368497848511	0.09999704360961914
55	161.88229703903198	fix_pre	0		128.0	53.0	2.5	/experiments/knapen_aot/videos/R_S_yt-AOP7QYQntPI_28.mp4	0.0	272.3368468284607	1.066606044769287
55	162.94072103500366	response	0	2		53.0	2.5	/experiments/knapen_aot/videos/R_S_yt-AOP7QYQntPI_28.mp4	0.0	273.3952708244324	
55	162.94890308380127	movie	1		301.0	53.0	2.5	/experiments/knapen_aot/videos/R_S_yt-AOP7QYQntPI_28.mp4	0.0	273.40345287323	2.5084099769592285
55	165.4573130607605	fix_post	2		12.0	53.0	2.5	/experiments/knapen_aot/videos/R_S_yt-AOP7QYQntPI_28.mp4	0.0	275.9118628501892	0.09992408752441406
56	165.5572371482849	fix_pre	0		41.0	54.0	2.5	/experiments/knapen_aot/videos/S_yt-ayx4rU9bJrU_179.mp4	0.0	276.0117869377136	0.3416860103607178
56	165.89069819450378	response	0	2		54.0	2.5	/experiments/knapen_aot/videos/S_yt-ayx4rU9bJrU_179.mp4	0.0	276.3452479839325	
56	165.89892315864563	movie	1		301.0	54.0	2.5	/experiments/knapen_aot/videos/S_yt-ayx4rU9bJrU_179.mp4	0.0	276.35347294807434	2.5083248615264893
56	168.40724802017212	fix_post	2		12.0	54.0	2.5	/experiments/knapen_aot/videos/S_yt-ayx4rU9bJrU_179.mp4	0.0	278.86179780960083	0.09994316101074219
57	168.50719118118286	fix_pre	0		46.0	55.0	2.5	/experiments/knapen_aot/videos/R_S_production_ID_3712945.mp4	0.0	278.9617409706116	0.3834109306335449
57	168.8748002052307	response	0	2		55.0	2.5	/experiments/knapen_aot/videos/R_S_production_ID_3712945.mp4	0.0	279.3293499946594	
57	168.8906021118164	movie	1		179.0	55.0	2.5	/experiments/knapen_aot/videos/R_S_production_ID_3712945.mp4	0.0	279.3451519012451	2.5083160400390625
57	171.39891815185547	fix_post	2		12.0	55.0	2.5	/experiments/knapen_aot/videos/R_S_production_ID_3712945.mp4	0.0	281.8534679412842	0.09994697570800781
58	171.49886512756348	fix_pre	0		105.0	56.0	2.5	blank	1.0	281.9534149169922	0.8749818801879883
58	172.3656530380249	response	0	2		56.0	2.5	blank	1.0	282.8202028274536	
58	172.37384700775146	movie	1		301.0	56.0	2.5	blank	1.0	282.8283967971802	2.508366107940674
58	174.88221311569214	fix_post	2		12.0	56.0	2.5	blank	1.0	285.33676290512085	0.10001206398010254
59	174.98222517967224	fix_pre	0		41.0	57.0	2.5	/experiments/knapen_aot/videos/R_S_production_ID_4101244.mp4	0.0	285.43677496910095	0.3416099548339844
59	175.3156599998474	response	0	2		57.0	2.5	/experiments/knapen_aot/videos/R_S_production_ID_4101244.mp4	0.0	285.7702097892761	
59	175.32383513450623	movie	1		191.0	57.0	2.5	/experiments/knapen_aot/videos/R_S_production_ID_4101244.mp4	0.0	285.77838492393494	2.508362054824829
59	177.83219718933105	fix_post	2		11.0	57.0	2.5	/experiments/knapen_aot/videos/R_S_production_ID_4101244.mp4	0.0	288.28674697875977	0.09992790222167969
60	177.93212509155273	fix_pre	0		33.0	58.0	2.5	/experiments/knapen_aot/videos/S_ILSVRC2015_train_00379000.mp4	0.0	288.38667488098145	0.2750210762023926
60	178.1915271282196	response	0	2		58.0	2.5	/experiments/knapen_aot/videos/S_ILSVRC2015_train_00379000.mp4	0.0	288.6460769176483	
60	178.20714616775513	movie	1		301.0	58.0	2.5	/experiments/knapen_aot/videos/S_ILSVRC2015_train_00379000.mp4	0.0	288.66169595718384	2.508378028869629
60	180.71552419662476	fix_post	2		12.0	58.0	2.5	/experiments/knapen_aot/videos/S_ILSVRC2015_train_00379000.mp4	0.0	291.17007398605347	0.1000509262084961
61	180.81557512283325	fix_pre	0		114.0	59.0	2.5	/experiments/knapen_aot/videos/R_S_ILSVRC2015_train_00495000.mp4	0.0	291.27012491226196	0.9499409198760986
61	181.7573001384735	response	0	2		59.0	2.5	/experiments/knapen_aot/videos/R_S_ILSVRC2015_train_00495000.mp4	0.0	292.2118499279022	
61	181.76551604270935	movie	1		301.0	59.0	2.5	/experiments/knapen_aot/videos/R_S_ILSVRC2015_train_00495000.mp4	0.0	292.22006583213806	2.5082740783691406
61	184.2737901210785	fix_post	2		12.0	59.0	2.5	/experiments/knapen_aot/videos/R_S_ILSVRC2015_train_00495000.mp4	0.0	294.7283399105072	0.10004901885986328
62	184.37383913993835	fix_pre	0		69.0	60.0	2.5	/experiments/knapen_aot/videos/S_yt-i4kSCZ8rNC0_11.mp4	0.0	294.82838892936707	0.5750749111175537
62	184.94067406654358	response	0	2		60.0	2.5	/experiments/knapen_aot/videos/S_yt-i4kSCZ8rNC0_11.mp4	0.0	295.3952238559723	
62	184.9489140510559	movie	1		301.0	60.0	2.5	/experiments/knapen_aot/videos/S_yt-i4kSCZ8rNC0_11.mp4	0.0	295.4034638404846	2.5082969665527344
62	187.45721101760864	fix_post	2		12.0	60.0	2.5	/experiments/knapen_aot/videos/S_yt-i4kSCZ8rNC0_11.mp4	0.0	297.91176080703735	0.09997320175170898
63	187.55718421936035	fix_pre	0		107.0	61.0	2.5	/experiments/knapen_aot/videos/S_yt-M5qZo3CUXYE_27.mp4	0.0	298.01173400878906	0.8916749954223633
63	188.4406430721283	response	0	2		61.0	2.5	/experiments/knapen_aot/videos/S_yt-M5qZo3CUXYE_27.mp4	0.0	298.895192861557	
63	188.44885921478271	movie	1		301.0	61.0	2.5	/experiments/knapen_aot/videos/S_yt-M5qZo3CUXYE_27.mp4	0.0	298.9034090042114	2.5082948207855225
63	190.95715403556824	fix_post	2		12.0	61.0	2.5	/experiments/knapen_aot/videos/S_yt-M5qZo3CUXYE_27.mp4	0.0	301.41170382499695	0.10003399848937988
64	191.05718803405762	fix_pre	0		63.0	62.0	2.5	/experiments/knapen_aot/videos/S_yt--xKSTYy9mcA_54.mp4	0.0	301.5117378234863	0.5249731540679932
64	191.5739061832428	response	0	2		62.0	2.5	/experiments/knapen_aot/videos/S_yt--xKSTYy9mcA_54.mp4	0.0	302.0284559726715	
64	191.5821611881256	movie	1		301.0	62.0	2.5	/experiments/knapen_aot/videos/S_yt--xKSTYy9mcA_54.mp4	0.0	302.0367109775543	2.5084028244018555
64	194.09056401252747	fix_post	2		12.0	62.0	2.5	/experiments/knapen_aot/videos/S_yt--xKSTYy9mcA_54.mp4	0.0	304.5451138019562	0.100006103515625
65	194.1905701160431	fix_pre	0		53.0	63.0	2.5	blank	1.0	304.6451199054718	0.4420759677886963
65	194.62399005889893	response	0	2		63.0	2.5	blank	1.0	305.07853984832764	
65	194.6326460838318	movie	1		301.0	63.0	2.5	blank	1.0	305.0871958732605	2.507988929748535
65	197.14063501358032	fix_post	2		12.0	63.0	2.5	blank	1.0	307.59518480300903	0.09988212585449219
66	197.24051713943481	fix_pre	0		41.0	64.0	2.5	/experiments/knapen_aot/videos/S_yt-kA0ybjmoiMc_284.mp4	0.0	307.6950669288635	0.34160494804382324
66	197.5739769935608	response	0	2		64.0	2.5	/experiments/knapen_aot/videos/S_yt-kA0ybjmoiMc_284.mp4	0.0	308.0285267829895	
66	197.58212208747864	movie	1		301.0	64.0	2.5	/experiments/knapen_aot/videos/S_yt-kA0ybjmoiMc_284.mp4	0.0	308.03667187690735	2.5083439350128174
66	200.09046602249146	fix_post	2		12.0	64.0	2.5	/experiments/knapen_aot/videos/S_yt-kA0ybjmoiMc_284.mp4	0.0	310.54501581192017	0.10005998611450195
67	200.19052600860596	fix_pre	0		65.0	65.0	2.5	/experiments/knapen_aot/videos/R_S_yt-Ev39pXXfr1Y_152.mp4	0.0	310.64507579803467	0.5416049957275391
67	200.72398710250854	response	0	2		65.0	2.5	/experiments/knapen_aot/videos/R_S_yt-Ev39pXXfr1Y_152.mp4	0.0	311.17853689193726	
67	200.7321310043335	movie	1		301.0	65.0	2.5	/experiments/knapen_aot/videos/R_S_yt-Ev39pXXfr1Y_152.mp4	0.0	311.1866807937622	2.5083231925964355
67	203.24045419692993	fix_post	2		12.0	65.0	2.5	/experiments/knapen_aot/videos/R_S_yt-Ev39pXXfr1Y_152.mp4	0.0	313.69500398635864	0.10004496574401855
68	203.34049916267395	fix_pre	0		41.0	66.0	2.5	/experiments/knapen_aot/videos/S_yt-nMWqezngycw_10.mp4	0.0	313.79504895210266	0.34165287017822266
68	203.67393517494202	response	0	2		66.0	2.5	/experiments/knapen_aot/videos/S_yt-nMWqezngycw_10.mp4	0.0	314.1284849643707	
68	203.68215203285217	movie	1		300.0	66.0	2.5	/experiments/knapen_aot/videos/S_yt-nMWqezngycw_10.mp4	0.0	314.1367018222809	2.5083210468292236
68	206.1904730796814	fix_post	2		12.0	66.0	2.5	/experiments/knapen_aot/videos/S_yt-nMWqezngycw_10.mp4	0.0	316.6450228691101	0.09992504119873047
69	206.29039812088013	fix_pre	0		91.0	67.0	2.5	/experiments/knapen_aot/videos/R_S_yt-t-wpKypNysg_27.mp4	0.0	316.74494791030884	0.7587180137634277
69	207.04073405265808	response	0	2		67.0	2.5	/experiments/knapen_aot/videos/R_S_yt-t-wpKypNysg_27.mp4	0.0	317.4952838420868	
69	207.04911613464355	movie	1		301.0	67.0	2.5	/experiments/knapen_aot/videos/R_S_yt-t-wpKypNysg_27.mp4	0.0	317.50366592407227	2.5080270767211914
69	209.55714321136475	fix_post	2		12.0	67.0	2.5	/experiments/knapen_aot/videos/R_S_yt-t-wpKypNysg_27.mp4	0.0	320.01169300079346	0.10001897811889648
70	209.65716218948364	fix_pre	0		145.0	68.0	2.5	blank	1.0	320.11171197891235	1.2083559036254883
70	210.8572599887848	response	0	2		68.0	2.5	blank	1.0	321.3118097782135	
70	210.86551809310913	movie	1		301.0	68.0	2.5	blank	1.0	321.32006788253784	2.508263111114502
70	213.37378120422363	fix_post	2		12.0	68.0	2.5	blank	1.0	323.82833099365234	0.1000359058380127
71	213.47381711006165	fix_pre	0		33.0	69.0	2.5	/experiments/knapen_aot/videos/S_yt-fLNDhX22diw_98.mp4	0.0	323.92836689949036	0.274960994720459
71	213.7405140399933	response	0	2		69.0	2.5	/experiments/knapen_aot/videos/S_yt-fLNDhX22diw_98.mp4	0.0	324.195063829422	
71	213.7487781047821	movie	1		301.0	69.0	2.5	/experiments/knapen_aot/videos/S_yt-fLNDhX22diw_98.mp4	0.0	324.2033278942108	2.50832200050354
71	216.25710010528564	fix_post	2		12.0	69.0	2.5	/experiments/knapen_aot/videos/S_yt-fLNDhX22diw_98.mp4	0.0	326.71164989471436	0.10001206398010254
72	216.35711216926575	fix_pre	0		26.0	70.0	2.5	/experiments/knapen_aot/videos/S_video-6.mp4	0.0	326.81166195869446	0.2165689468383789
72	216.56551003456116	response	0	2		70.0	2.5	/experiments/knapen_aot/videos/S_video-6.mp4	0.0	327.02005982398987	
72	216.57368111610413	movie	1		172.0	70.0	2.5	/experiments/knapen_aot/videos/S_video-6.mp4	0.0	327.02823090553284	2.5084030628204346
72	219.08208417892456	fix_post	2		12.0	70.0	2.5	/experiments/knapen_aot/videos/S_video-6.mp4	0.0	329.53663396835327	0.10001587867736816
73	219.18210005760193	fix_pre	0		127.0	71.0	2.5	/experiments/knapen_aot/videos/R_S_WO9z7lBUvOs_151.mp4	0.0	329.63664984703064	1.058305025100708
73	220.23220419883728	response	0	2		71.0	2.5	/experiments/knapen_aot/videos/R_S_WO9z7lBUvOs_151.mp4	0.0	330.686753988266	
73	220.24040508270264	movie	1		301.0	71.0	2.5	/experiments/knapen_aot/videos/R_S_WO9z7lBUvOs_151.mp4	0.0	330.69495487213135	2.508270025253296
73	222.74867510795593	fix_post	2		12.0	71.0	2.5	/experiments/knapen_aot/videos/R_S_WO9z7lBUvOs_151.mp4	0.0	333.20322489738464	0.10009288787841797
74	222.84876799583435	fix_pre	0		66.0	72.0	2.5	/experiments/knapen_aot/videos/S_yt--jzScB82vKI_212.mp4	0.0	333.30331778526306	0.5499320030212402
74	223.38308906555176	response	0	2		72.0	2.5	/experiments/knapen_aot/videos/S_yt--jzScB82vKI_212.mp4	0.0	333.83763885498047	
74	223.3986999988556	movie	1		301.0	72.0	2.5	/experiments/knapen_aot/videos/S_yt--jzScB82vKI_212.mp4	0.0	333.8532497882843	2.5083370208740234
74	225.90703701972961	fix_post	2		12.0	72.0	2.5	/experiments/knapen_aot/videos/S_yt--jzScB82vKI_212.mp4	0.0	336.3615868091583	0.10027313232421875
75	226.00731015205383	fix_pre	0		136.0	73.0	2.5	/experiments/knapen_aot/videos/S_yt-UBqUhu-GEVg_6.mp4	0.0	336.46185994148254	1.133059024810791
75	227.13218116760254	response	0	2		73.0	2.5	/experiments/knapen_aot/videos/S_yt-UBqUhu-GEVg_6.mp4	0.0	337.58673095703125	
75	227.14036917686462	movie	1		301.0	73.0	2.5	/experiments/knapen_aot/videos/S_yt-UBqUhu-GEVg_6.mp4	0.0	337.59491896629333	2.5083248615264893
75	229.6486940383911	fix_post	2		12.0	73.0	2.5	/experiments/knapen_aot/videos/S_yt-UBqUhu-GEVg_6.mp4	0.0	340.1032438278198	0.09996414184570312
76	229.74865818023682	fix_pre	0		156.0	74.0	2.5	/experiments/knapen_aot/videos/S_yt-XHYYkaHcEtM_72.mp4	0.0	340.2032079696655	1.30023193359375
76	231.04051303863525	response	0	2		74.0	2.5	/experiments/knapen_aot/videos/S_yt-XHYYkaHcEtM_72.mp4	0.0	341.49506282806396	
76	231.04889011383057	movie	1		301.0	74.0	2.5	/experiments/knapen_aot/videos/S_yt-XHYYkaHcEtM_72.mp4	0.0	341.5034399032593	2.5081100463867188
76	233.55700016021729	fix_post	2		12.0	74.0	2.5	/experiments/knapen_aot/videos/S_yt-XHYYkaHcEtM_72.mp4	0.0	344.011549949646	0.10000991821289062
77	233.65701007843018	fix_pre	0		166.0	75.0	2.5	/experiments/knapen_aot/videos/R_S_yt-0qfEA1ZFWjA_123.mp4	0.0	344.1115598678589	1.3833370208740234
77	235.0321340560913	response	0	2		75.0	2.5	/experiments/knapen_aot/videos/R_S_yt-0qfEA1ZFWjA_123.mp4	0.0	345.48668384552	
77	235.0403470993042	movie	1		301.0	75.0	2.5	/experiments/knapen_aot/videos/R_S_yt-0qfEA1ZFWjA_123.mp4	0.0	345.4948968887329	2.5083069801330566
77	237.54865407943726	fix_post	2		12.0	75.0	2.5	/experiments/knapen_aot/videos/R_S_yt-0qfEA1ZFWjA_123.mp4	0.0	348.00320386886597	0.10004997253417969
78	237.64870405197144	fix_pre	0		97.0	76.0	2.5	/experiments/knapen_aot/videos/S_comp_HK_H004_C013_t9_6M_HB_tag0.mp4	0.0	348.10325384140015	0.8082690238952637
78	238.44132113456726	response	0	2		76.0	2.5	/experiments/knapen_aot/videos/S_comp_HK_H004_C013_t9_6M_HB_tag0.mp4	0.0	348.895870923996	
78	238.4569730758667	movie	1		173.0	76.0	2.5	/experiments/knapen_aot/videos/S_comp_HK_H004_C013_t9_6M_HB_tag0.mp4	0.0	348.9115228652954	2.5086309909820557
78	240.96560406684875	fix_post	2		12.0	76.0	2.5	/experiments/knapen_aot/videos/S_comp_HK_H004_C013_t9_6M_HB_tag0.mp4	0.0	351.42015385627747	0.09974408149719238
79	241.06534814834595	fix_pre	0		33.0	77.0	2.5	blank	1.0	351.51989793777466	0.27521800994873047
79	241.33218908309937	response	0	2		77.0	2.5	blank	1.0	351.7867388725281	
79	241.34056615829468	movie	1		301.0	77.0	2.5	blank	1.0	351.7951159477234	2.5081169605255127
79	243.8486831188202	fix_post	2		12.0	77.0	2.5	blank	1.0	354.3032329082489	0.09999489784240723
80	243.9486780166626	fix_pre	0		21.0	78.0	2.5	/experiments/knapen_aot/videos/R_S_yt-gDZnJCR2uXI_18.mp4	0.0	354.4032278060913	0.17496705055236816
80	244.1154661178589	response	0	2		78.0	2.5	/experiments/knapen_aot/videos/R_S_yt-gDZnJCR2uXI_18.mp4	0.0	354.5700159072876	
80	244.12364506721497	movie	1		301.0	78.0	2.5	/experiments/knapen_aot/videos/R_S_yt-gDZnJCR2uXI_18.mp4	0.0	354.5781948566437	2.508484125137329
80	246.6321291923523	fix_post	2		12.0	78.0	2.5	/experiments/knapen_aot/videos/R_S_yt-gDZnJCR2uXI_18.mp4	0.0	357.086678981781	0.09987187385559082
81	246.73200106620789	fix_pre	0		38.0	79.0	2.5	/experiments/knapen_aot/videos/S_yt-VrEuTDQxtD0_226.mp4	0.0	357.1865508556366	0.31676602363586426
81	247.04040718078613	response	0	2		79.0	2.5	/experiments/knapen_aot/videos/S_yt-VrEuTDQxtD0_226.mp4	0.0	357.49495697021484	
81	247.04876708984375	movie	1		300.0	79.0	2.5	/experiments/knapen_aot/videos/S_yt-VrEuTDQxtD0_226.mp4	0.0	357.50331687927246	2.508246898651123
81	249.55701398849487	fix_post	2		12.0	79.0	2.5	/experiments/knapen_aot/videos/S_yt-VrEuTDQxtD0_226.mp4	0.0	360.0115637779236	0.09997010231018066
82	249.65698409080505	fix_pre	0		30.0	80.0	2.5	/experiments/knapen_aot/videos/S_yt-loYSF41PfgI_79.mp4	0.0	360.11153388023376	0.24999094009399414
82	249.89879322052002	response	0	2		80.0	2.5	/experiments/knapen_aot/videos/S_yt-loYSF41PfgI_79.mp4	0.0	360.35334300994873	
82	249.90697503089905	movie	1		301.0	80.0	2.5	/experiments/knapen_aot/videos/S_yt-loYSF41PfgI_79.mp4	0.0	360.36152482032776	2.5083119869232178
82	252.41528701782227	fix_post	2		12.0	80.0	2.5	/experiments/knapen_aot/videos/S_yt-loYSF41PfgI_79.mp4	0.0	362.869836807251	0.09995698928833008
83	252.5152440071106	fix_pre	0		122.0	81.0	2.5	/experiments/knapen_aot/videos/R_S_yt-452RKqKIeRU_16.mp4	0.0	362.9697937965393	1.0166490077972412
83	253.52373099327087	response	0	2		81.0	2.5	/experiments/knapen_aot/videos/R_S_yt-452RKqKIeRU_16.mp4	0.0	363.9782807826996	
83	253.53189301490784	movie	1		301.0	81.0	2.5	/experiments/knapen_aot/videos/R_S_yt-452RKqKIeRU_16.mp4	0.0	363.98644280433655	2.5083861351013184
83	256.04027915000916	fix_post	2		12.0	81.0	2.5	/experiments/knapen_aot/videos/R_S_yt-452RKqKIeRU_16.mp4	0.0	366.49482893943787	0.09996700286865234
84	256.1402461528778	fix_pre	0		61.0	82.0	2.5	blank	1.0	366.5947959423065	0.5082299709320068
84	256.64042711257935	response	0	2		82.0	2.5	blank	1.0	367.09497690200806	
84	256.6484761238098	movie	1		301.0	82.0	2.5	blank	1.0	367.1030259132385	2.508486032485962
84	259.1569621562958	fix_post	2		12.0	82.0	2.5	blank	1.0	369.6115119457245	0.10003495216369629
85	259.2569971084595	fix_pre	0		19.0	83.0	2.5	/experiments/knapen_aot/videos/R_S_yt-K_gHa2x2OQA_319.mp4	0.0	369.7115468978882	0.158128023147583
85	259.4069800376892	response	0	2		83.0	2.5	/experiments/knapen_aot/videos/R_S_yt-K_gHa2x2OQA_319.mp4	0.0	369.8615298271179	
85	259.41512513160706	movie	1		301.0	83.0	2.5	/experiments/knapen_aot/videos/R_S_yt-K_gHa2x2OQA_319.mp4	0.0	369.86967492103577	2.5086209774017334
85	261.9237461090088	fix_post	2		12.0	83.0	2.5	/experiments/knapen_aot/videos/R_S_yt-K_gHa2x2OQA_319.mp4	0.0	372.3782958984375	0.09985494613647461
87	262.02360105514526	stim	0		192.0					372.478150844574	1.601384162902832
87	262.140417098999	response	0	2						372.59496688842773	
87	263.6170120239258	response	0	space						374.0715618133545	
