trial_nr	onset	event_type	phase	response	nr_frames	movie_index	movie_duration	movie_file	blank	onset_abs	duration
0	0.15819287300109863	stim	0		30.0					247.89550685882568	0.24997711181640625
0	0.40069580078125	response	0	space						248.13800978660583	
1	0.4081699848175049	stim	0		121.0					248.1454839706421	1.008301019668579
1	1.2679328918457031	response	0	space						249.0052468776703	
1	1.416471004486084	stim	1		120.0					249.15378499031067	0.9998419284820557
1	1.8329849243164062	response	1	space						249.570298910141	
2	2.4163129329681396	fix_pre	0		34.0	0.0	2.5	/experiments/knapen_aot/videos/S_SE_A016_C009_SDR_20190717_SDR_2K_AVC.mp4	0.0	250.15362691879272	0.2832310199737549
2	2.683952808380127	response	0	space		0.0	2.5	/experiments/knapen_aot/videos/S_SE_A016_C009_SDR_20190717_SDR_2K_AVC.mp4	0.0	250.4212667942047	
2	2.6995439529418945	movie	1		165.0	0.0	2.5	/experiments/knapen_aot/videos/S_SE_A016_C009_SDR_20190717_SDR_2K_AVC.mp4	0.0	250.43685793876648	2.5082390308380127
2	5.207782983779907	fix_post	2		12.0	0.0	2.5	/experiments/knapen_aot/videos/S_SE_A016_C009_SDR_20190717_SDR_2K_AVC.mp4	0.0	252.9450969696045	0.1000828742980957
3	5.307865858078003	fix_pre	0		14.0	1.0	2.5	/experiments/knapen_aot/videos/R_S_yt-IyxCMODHSSE_29.mp4	0.0	253.0451798439026	0.11995792388916016
3	5.418917894363403	response	0	2		1.0	2.5	/experiments/knapen_aot/videos/R_S_yt-IyxCMODHSSE_29.mp4	0.0	253.156231880188	
3	5.427823781967163	movie	1		298.0	1.0	2.5	/experiments/knapen_aot/videos/R_S_yt-IyxCMODHSSE_29.mp4	0.0	253.16513776779175	2.5050160884857178
3	7.932839870452881	fix_post	2		12.0	1.0	2.5	/experiments/knapen_aot/videos/R_S_yt-IyxCMODHSSE_29.mp4	0.0	255.67015385627747	0.09997010231018066
4	8.032809972763062	fix_pre	0		23.0	2.0	2.5	/experiments/knapen_aot/videos/R_S_yt-HRuCkU_kBoE_239.mp4	0.0	255.77012395858765	0.191694974899292
4	8.21629786491394	response	0	2		2.0	2.5	/experiments/knapen_aot/videos/R_S_yt-HRuCkU_kBoE_239.mp4	0.0	255.95361185073853	
4	8.224504947662354	movie	1		301.0	2.0	2.5	/experiments/knapen_aot/videos/R_S_yt-HRuCkU_kBoE_239.mp4	0.0	255.96181893348694	2.5084218978881836
4	10.732926845550537	fix_post	2		12.0	2.0	2.5	/experiments/knapen_aot/videos/R_S_yt-HRuCkU_kBoE_239.mp4	0.0	258.4702408313751	0.1000220775604248
5	10.832948923110962	fix_pre	0		21.0	3.0	2.5	/experiments/knapen_aot/videos/S_yt-PYHK810V_n8_1375.mp4	0.0	258.57026290893555	0.1749260425567627
5	10.999688863754272	response	0	2		3.0	2.5	/experiments/knapen_aot/videos/S_yt-PYHK810V_n8_1375.mp4	0.0	258.73700284957886	
5	11.007874965667725	movie	1		301.0	3.0	2.5	/experiments/knapen_aot/videos/S_yt-PYHK810V_n8_1375.mp4	0.0	258.7451889514923	2.5083370208740234
5	13.516211986541748	fix_post	2		12.0	3.0	2.5	/experiments/knapen_aot/videos/S_yt-PYHK810V_n8_1375.mp4	0.0	261.25352597236633	0.09995698928833008
6	13.616168975830078	fix_pre	0		26.0	4.0	2.5	/experiments/knapen_aot/videos/R_S_yt-Jo6PxivsTOg_247.mp4	0.0	261.35348296165466	0.21668291091918945
6	13.824702978134155	response	0	4		4.0	2.5	/experiments/knapen_aot/videos/R_S_yt-Jo6PxivsTOg_247.mp4	0.0	261.56201696395874	
6	13.832851886749268	movie	1		301.0	4.0	2.5	/experiments/knapen_aot/videos/R_S_yt-Jo6PxivsTOg_247.mp4	0.0	261.57016587257385	2.508410930633545
6	16.341262817382812	fix_post	2		12.0	4.0	2.5	/experiments/knapen_aot/videos/R_S_yt-Jo6PxivsTOg_247.mp4	0.0	264.0785768032074	0.09994316101074219
7	16.441205978393555	fix_pre	0		35.0	5.0	2.5	blank	1.0	264.17851996421814	0.2921459674835205
7	16.724647998809814	response	0	2		5.0	2.5	blank	1.0	264.4619619846344	
7	16.733351945877075	movie	1		301.0	5.0	2.5	blank	1.0	264.47066593170166	2.5077998638153076
7	19.241151809692383	fix_post	2		12.0	5.0	2.5	blank	1.0	266.97846579551697	0.10004115104675293
8	19.341192960739136	fix_pre	0		41.0	6.0	2.5	/experiments/knapen_aot/videos/R_S_yt-ujTY1igjc3E_2.mp4	0.0	267.0785069465637	0.34165000915527344
8	19.67469096183777	response	0	2		6.0	2.5	/experiments/knapen_aot/videos/R_S_yt-ujTY1igjc3E_2.mp4	0.0	267.41200494766235	
8	19.68284296989441	movie	1		301.0	6.0	2.5	/experiments/knapen_aot/videos/R_S_yt-ujTY1igjc3E_2.mp4	0.0	267.420156955719	2.50833797454834
8	22.19118094444275	fix_post	2		12.0	6.0	2.5	/experiments/knapen_aot/videos/R_S_yt-ujTY1igjc3E_2.mp4	0.0	269.92849493026733	0.10004591941833496
9	22.291226863861084	fix_pre	0		28.0	7.0	2.5	/experiments/knapen_aot/videos/S_comp_H007_C003_PS_v01_SDR_PS_20180925_SDR_2K_AVC.mp4	0.0	270.02854084968567	0.233720064163208
9	22.50884985923767	response	0	2		7.0	2.5	/experiments/knapen_aot/videos/S_comp_H007_C003_PS_v01_SDR_PS_20180925_SDR_2K_AVC.mp4	0.0	270.24616384506226	
9	22.524946928024292	movie	1		167.0	7.0	2.5	/experiments/knapen_aot/videos/S_comp_H007_C003_PS_v01_SDR_PS_20180925_SDR_2K_AVC.mp4	0.0	270.2622609138489	2.507835865020752
9	25.032782793045044	fix_post	2		12.0	7.0	2.5	/experiments/knapen_aot/videos/S_comp_H007_C003_PS_v01_SDR_PS_20180925_SDR_2K_AVC.mp4	0.0	272.77009677886963	0.09997916221618652
10	25.13276195526123	fix_pre	0		14.0	8.0	2.5	/experiments/knapen_aot/videos/S_pexels-polina-tankilevitch-8203088.mp4	0.0	272.8700759410858	0.1166839599609375
10	25.241307973861694	response	0	2		8.0	2.5	/experiments/knapen_aot/videos/S_pexels-polina-tankilevitch-8203088.mp4	0.0	272.9786219596863	
10	25.249445915222168	movie	1		164.0	8.0	2.5	/experiments/knapen_aot/videos/S_pexels-polina-tankilevitch-8203088.mp4	0.0	272.98675990104675	2.5083608627319336
10	27.7578067779541	fix_post	2		12.0	8.0	2.5	/experiments/knapen_aot/videos/S_pexels-polina-tankilevitch-8203088.mp4	0.0	275.4951207637787	0.09999513626098633
11	27.857801914215088	fix_pre	0		1.0	9.0	2.5	/experiments/knapen_aot/videos/R_S_video_inspire_italy_como_cerano-dintelvi_006.1080-h264.mp4	0.0	275.5951159000397	0.008322954177856445
11	27.85953187942505	response	0	2		9.0	2.5	/experiments/knapen_aot/videos/R_S_video_inspire_italy_como_cerano-dintelvi_006.1080-h264.mp4	0.0	275.59684586524963	
11	27.866124868392944	movie	1		171.0	9.0	2.5	/experiments/knapen_aot/videos/R_S_video_inspire_italy_como_cerano-dintelvi_006.1080-h264.mp4	0.0	275.60343885421753	2.5083351135253906
11	30.374459981918335	fix_post	2		12.0	9.0	2.5	/experiments/knapen_aot/videos/R_S_video_inspire_italy_como_cerano-dintelvi_006.1080-h264.mp4	0.0	278.1117739677429	0.09991288185119629
11	30.400372982025146	response	2	2		9.0	2.5	/experiments/knapen_aot/videos/R_S_video_inspire_italy_como_cerano-dintelvi_006.1080-h264.mp4	0.0	278.13768696784973	
12	30.47437286376953	fix_pre	0		52.0	10.0	2.5	/experiments/knapen_aot/videos/S_ILSVRC2015_train_00292006.mp4	0.0	278.2116868495941	0.433380126953125
12	30.899516820907593	response	0	2		10.0	2.5	/experiments/knapen_aot/videos/S_ILSVRC2015_train_00292006.mp4	0.0	278.6368308067322	
12	30.907752990722656	movie	1		301.0	10.0	2.5	/experiments/knapen_aot/videos/S_ILSVRC2015_train_00292006.mp4	0.0	278.64506697654724	2.5083329677581787
12	33.416085958480835	fix_post	2		12.0	10.0	2.5	/experiments/knapen_aot/videos/S_ILSVRC2015_train_00292006.mp4	0.0	281.1533999443054	0.09994292259216309
12	33.474546909332275	response	2	2		10.0	2.5	/experiments/knapen_aot/videos/S_ILSVRC2015_train_00292006.mp4	0.0	281.21186089515686	
13	33.516028881073	fix_pre	0		43.0	11.0	2.5	/experiments/knapen_aot/videos/R_S_pexels-kelly-lacy-6756531.mp4	0.0	281.2533428668976	0.35840702056884766
13	33.85879182815552	response	0	2		11.0	2.5	/experiments/knapen_aot/videos/R_S_pexels-kelly-lacy-6756531.mp4	0.0	281.5961058139801	
13	33.874435901641846	movie	1		173.0	11.0	2.5	/experiments/knapen_aot/videos/R_S_pexels-kelly-lacy-6756531.mp4	0.0	281.61174988746643	2.508310079574585
13	36.38274598121643	fix_post	2		12.0	11.0	2.5	/experiments/knapen_aot/videos/R_S_pexels-kelly-lacy-6756531.mp4	0.0	284.120059967041	0.10006093978881836
14	36.48280692100525	fix_pre	0		2.0	12.0	2.5	/experiments/knapen_aot/videos/R_S_video-5.mp4	0.0	284.22012090682983	0.016627073287963867
14	36.49123287200928	response	0	2		12.0	2.5	/experiments/knapen_aot/videos/R_S_video-5.mp4	0.0	284.22854685783386	
14	36.49943399429321	movie	1		180.0	12.0	2.5	/experiments/knapen_aot/videos/R_S_video-5.mp4	0.0	284.2367479801178	2.4999759197235107
14	38.99113893508911	response	1	2		12.0	2.5	/experiments/knapen_aot/videos/R_S_video-5.mp4	0.0	286.7284529209137	
14	38.999409914016724	fix_post	2		13.0	12.0	2.5	/experiments/knapen_aot/videos/R_S_video-5.mp4	0.0	286.7367238998413	0.10871005058288574
15	39.10811996459961	fix_pre	0		31.0	13.0	2.5	blank	1.0	286.8454339504242	0.2578439712524414
15	39.357850790023804	response	0	2		13.0	2.5	blank	1.0	287.0951647758484	
15	39.36596393585205	movie	1		301.0	13.0	2.5	blank	1.0	287.10327792167664	2.5083649158477783
15	41.87432885169983	fix_post	2		12.0	13.0	2.5	blank	1.0	289.6116428375244	0.10001707077026367
16	41.97434592247009	fix_pre	0		14.0	14.0	2.5	/experiments/knapen_aot/videos/R_S_yt-PYHK810V_n8_1375.mp4	0.0	289.7116599082947	0.11670207977294922
16	42.082809925079346	response	0	2		14.0	2.5	/experiments/knapen_aot/videos/R_S_yt-PYHK810V_n8_1375.mp4	0.0	289.82012391090393	
16	42.09104800224304	movie	1		301.0	14.0	2.5	/experiments/knapen_aot/videos/R_S_yt-PYHK810V_n8_1375.mp4	0.0	289.8283619880676	2.5083048343658447
16	44.59935283660889	fix_post	2		12.0	14.0	2.5	/experiments/knapen_aot/videos/R_S_yt-PYHK810V_n8_1375.mp4	0.0	292.3366668224335	0.09994816780090332
17	44.69930100440979	fix_pre	0		4.0	15.0	2.5	/experiments/knapen_aot/videos/R_S_pexels-koolshooters-7327412_1.mp4	0.0	292.4366149902344	0.03377699851989746
17	44.72447991371155	response	0	2		15.0	2.5	/experiments/knapen_aot/videos/R_S_pexels-koolshooters-7327412_1.mp4	0.0	292.46179389953613	
17	44.73307800292969	movie	1		172.0	15.0	2.5	/experiments/knapen_aot/videos/R_S_pexels-koolshooters-7327412_1.mp4	0.0	292.4703919887543	2.5080080032348633
17	47.24108600616455	fix_post	2		12.0	15.0	2.5	/experiments/knapen_aot/videos/R_S_pexels-koolshooters-7327412_1.mp4	0.0	294.97839999198914	0.09990096092224121
18	47.34098696708679	fix_pre	0		5.0	16.0	2.5	/experiments/knapen_aot/videos/S_wc-NVeGRb_y_y_5_36.mp4	0.0	295.0783009529114	0.04171895980834961
18	47.374592781066895	response	0	2		16.0	2.5	/experiments/knapen_aot/videos/S_wc-NVeGRb_y_y_5_36.mp4	0.0	295.1119067668915	
18	47.38270592689514	movie	1		167.0	16.0	2.5	/experiments/knapen_aot/videos/S_wc-NVeGRb_y_y_5_36.mp4	0.0	295.1200199127197	2.5083088874816895
18	49.89101481437683	fix_post	2		12.0	16.0	2.5	/experiments/knapen_aot/videos/S_wc-NVeGRb_y_y_5_36.mp4	0.0	297.6283288002014	0.10001015663146973
19	49.9910249710083	fix_pre	0		11.0	17.0	2.5	/experiments/knapen_aot/videos/S_G010_C026_UHD_SDR_v02_2K_AVC.mp4	0.0	297.7283389568329	0.09165787696838379
19	50.07447791099548	response	0	2		17.0	2.5	/experiments/knapen_aot/videos/S_G010_C026_UHD_SDR_v02_2K_AVC.mp4	0.0	297.81179189682007	
19	50.082682847976685	movie	1		169.0	17.0	2.5	/experiments/knapen_aot/videos/S_G010_C026_UHD_SDR_v02_2K_AVC.mp4	0.0	297.81999683380127	2.508376121520996
19	52.59105896949768	fix_post	2		12.0	17.0	2.5	/experiments/knapen_aot/videos/S_G010_C026_UHD_SDR_v02_2K_AVC.mp4	0.0	300.32837295532227	0.10031795501708984
19	52.66619896888733	response	2	2		17.0	2.5	/experiments/knapen_aot/videos/S_G010_C026_UHD_SDR_v02_2K_AVC.mp4	0.0	300.4035129547119	
20	52.69137692451477	fix_pre	0		52.0	18.0	2.5	/experiments/knapen_aot/videos/R_S_yt-mHLTJkMrkZI_143.mp4	0.0	300.42869091033936	0.43297600746154785
20	53.116023778915405	response	0	2		18.0	2.5	/experiments/knapen_aot/videos/R_S_yt-mHLTJkMrkZI_143.mp4	0.0	300.85333776474	
20	53.12435293197632	movie	1		301.0	18.0	2.5	/experiments/knapen_aot/videos/R_S_yt-mHLTJkMrkZI_143.mp4	0.0	300.8616669178009	2.508316993713379
20	55.6326699256897	fix_post	2		12.0	18.0	2.5	/experiments/knapen_aot/videos/R_S_yt-mHLTJkMrkZI_143.mp4	0.0	303.3699839115143	0.10036301612854004
21	55.73303294181824	fix_pre	0		11.0	19.0	2.5	/experiments/knapen_aot/videos/R_S_yt-hWXr5bv2_uA_48.mp4	0.0	303.4703469276428	0.09128189086914062
21	55.81614589691162	response	0	2		19.0	2.5	/experiments/knapen_aot/videos/R_S_yt-hWXr5bv2_uA_48.mp4	0.0	303.5534598827362	
21	55.82431483268738	movie	1		301.0	19.0	2.5	/experiments/knapen_aot/videos/R_S_yt-hWXr5bv2_uA_48.mp4	0.0	303.56162881851196	2.5084240436553955
21	58.33273887634277	fix_post	2		12.0	19.0	2.5	/experiments/knapen_aot/videos/R_S_yt-hWXr5bv2_uA_48.mp4	0.0	306.07005286216736	0.09995698928833008
22	58.4326958656311	fix_pre	0		12.0	20.0	2.5	/experiments/knapen_aot/videos/R_S_yt-2cwARrUMj40_67.mp4	0.0	306.1700098514557	0.10008001327514648
22	58.5244619846344	response	0	2		20.0	2.5	/experiments/knapen_aot/videos/R_S_yt-2cwARrUMj40_67.mp4	0.0	306.261775970459	
22	58.53277587890625	movie	1		301.0	20.0	2.5	/experiments/knapen_aot/videos/R_S_yt-2cwARrUMj40_67.mp4	0.0	306.27008986473083	2.5082740783691406
22	61.04104995727539	fix_post	2		12.0	20.0	2.5	/experiments/knapen_aot/videos/R_S_yt-2cwARrUMj40_67.mp4	0.0	308.7783639431	0.10156583786010742
22	61.12576389312744	response	2	2		20.0	2.5	/experiments/knapen_aot/videos/R_S_yt-2cwARrUMj40_67.mp4	0.0	308.863077878952	
23	61.1426157951355	fix_pre	0		47.0	21.0	2.5	blank	1.0	308.8799297809601	0.3899722099304199
23	61.52435493469238	response	0	2		21.0	2.5	blank	1.0	309.26166892051697	
23	61.53258800506592	movie	1		301.0	21.0	2.5	blank	1.0	309.2699019908905	2.5083158016204834
23	64.0409038066864	fix_post	2		12.0	21.0	2.5	blank	1.0	311.778217792511	0.10000300407409668
24	64.1409068107605	fix_pre	0		17.0	22.0	2.5	/experiments/knapen_aot/videos/R_S_BO_A018_C029_SDR_20190812_SDR_2K_AVC.mp4	0.0	311.8782207965851	0.14174604415893555
24	64.2744209766388	response	0	2		22.0	2.5	/experiments/knapen_aot/videos/R_S_BO_A018_C029_SDR_20190812_SDR_2K_AVC.mp4	0.0	312.0117349624634	
24	64.28265285491943	movie	1		166.0	22.0	2.5	/experiments/knapen_aot/videos/R_S_BO_A018_C029_SDR_20190812_SDR_2K_AVC.mp4	0.0	312.019966840744	2.5082900524139404
24	66.79094290733337	fix_post	2		12.0	22.0	2.5	/experiments/knapen_aot/videos/R_S_BO_A018_C029_SDR_20190812_SDR_2K_AVC.mp4	0.0	314.52825689315796	0.09998893737792969
25	66.8909318447113	fix_pre	0		12.0	23.0	2.5	/experiments/knapen_aot/videos/R_S_yt-PYHK810V_n8_1375.mp4	0.0	314.6282458305359	0.09996294975280762
25	66.98271894454956	response	0	2		23.0	2.5	/experiments/knapen_aot/videos/R_S_yt-PYHK810V_n8_1375.mp4	0.0	314.72003293037415	
25	66.99089479446411	movie	1		301.0	23.0	2.5	/experiments/knapen_aot/videos/R_S_yt-PYHK810V_n8_1375.mp4	0.0	314.7282087802887	2.5083911418914795
25	69.49928593635559	fix_post	2		12.0	23.0	2.5	/experiments/knapen_aot/videos/R_S_yt-PYHK810V_n8_1375.mp4	0.0	317.2365999221802	0.09997892379760742
26	69.5992648601532	fix_pre	0		9.0	24.0	2.5	/experiments/knapen_aot/videos/S_ILSVRC2015_train_00404000.mp4	0.0	317.3365788459778	0.07499504089355469
26	69.66630291938782	response	0	2		24.0	2.5	/experiments/knapen_aot/videos/S_ILSVRC2015_train_00404000.mp4	0.0	317.4036169052124	
26	69.67425990104675	movie	1		301.0	24.0	2.5	/experiments/knapen_aot/videos/S_ILSVRC2015_train_00404000.mp4	0.0	317.41157388687134	2.508323907852173
26	72.18258380889893	fix_post	2		12.0	24.0	2.5	/experiments/knapen_aot/videos/S_ILSVRC2015_train_00404000.mp4	0.0	319.9198977947235	0.09996914863586426
27	72.28255295753479	fix_pre	0		6.0	25.0	2.5	/experiments/knapen_aot/videos/S_yt-Tt_LkR4iAt4_11.mp4	0.0	320.0198669433594	0.05002284049987793
27	72.32439684867859	response	0	2		25.0	2.5	/experiments/knapen_aot/videos/S_yt-Tt_LkR4iAt4_11.mp4	0.0	320.0617108345032	
27	72.33257579803467	movie	1		298.0	25.0	2.5	/experiments/knapen_aot/videos/S_yt-Tt_LkR4iAt4_11.mp4	0.0	320.06988978385925	2.508357048034668
27	74.84093284606934	fix_post	2		12.0	25.0	2.5	/experiments/knapen_aot/videos/S_yt-Tt_LkR4iAt4_11.mp4	0.0	322.5782468318939	0.10014104843139648
28	74.94107389450073	fix_pre	0		14.0	26.0	2.5	/experiments/knapen_aot/videos/R_S_yt-w5lh_rKyKtE_21.mp4	0.0	322.6783878803253	0.11650705337524414
28	75.04932188987732	response	0	2		26.0	2.5	/experiments/knapen_aot/videos/R_S_yt-w5lh_rKyKtE_21.mp4	0.0	322.7866358757019	
28	75.05758094787598	movie	1		301.0	26.0	2.5	/experiments/knapen_aot/videos/R_S_yt-w5lh_rKyKtE_21.mp4	0.0	322.79489493370056	2.5084869861602783
28	77.56606793403625	fix_post	2		12.0	26.0	2.5	/experiments/knapen_aot/videos/R_S_yt-w5lh_rKyKtE_21.mp4	0.0	325.30338191986084	0.09985804557800293
29	77.66592597961426	fix_pre	0		29.0	27.0	2.5	blank	1.0	325.40323996543884	0.24156594276428223
29	77.89951992034912	response	0	2		27.0	2.5	blank	1.0	325.6368339061737	
29	77.90749192237854	movie	1		301.0	27.0	2.5	blank	1.0	325.6448059082031	2.5082969665527344
29	80.41578888893127	fix_post	2		12.0	27.0	2.5	blank	1.0	328.15310287475586	0.10009503364562988
30	80.5158839225769	fix_pre	0		23.0	28.0	2.5	/experiments/knapen_aot/videos/S_yt-dqcUJzNOzbM_156.mp4	0.0	328.2531979084015	0.19163894653320312
30	80.69932579994202	response	0	2		28.0	2.5	/experiments/knapen_aot/videos/S_yt-dqcUJzNOzbM_156.mp4	0.0	328.4366397857666	
30	80.70752286911011	movie	1		301.0	28.0	2.5	/experiments/knapen_aot/videos/S_yt-dqcUJzNOzbM_156.mp4	0.0	328.4448368549347	2.5083670616149902
30	83.2158899307251	fix_post	2		12.0	28.0	2.5	/experiments/knapen_aot/videos/S_yt-dqcUJzNOzbM_156.mp4	0.0	330.9532039165497	0.1000969409942627
31	83.31598687171936	fix_pre	0		20.0	29.0	2.5	/experiments/knapen_aot/videos/S_P007_C027_UHD_SDR_2K_AVC.mp4	0.0	331.05330085754395	0.16664910316467285
31	83.47424483299255	response	0	2		29.0	2.5	/experiments/knapen_aot/videos/S_P007_C027_UHD_SDR_2K_AVC.mp4	0.0	331.21155881881714	
31	83.48263597488403	movie	1		165.0	29.0	2.5	/experiments/knapen_aot/videos/S_P007_C027_UHD_SDR_2K_AVC.mp4	0.0	331.2199499607086	2.5082449913024902
31	85.99088096618652	fix_post	2		12.0	29.0	2.5	/experiments/knapen_aot/videos/S_P007_C027_UHD_SDR_2K_AVC.mp4	0.0	333.7281949520111	0.10002589225769043
32	86.09090685844421	fix_pre	0		1.0	30.0	2.5	/experiments/knapen_aot/videos/R_S_ILSVRC2015_train_00682000.mp4	0.0	333.8282208442688	0.009849071502685547
32	86.0925920009613	response	0	2		30.0	2.5	/experiments/knapen_aot/videos/R_S_ILSVRC2015_train_00682000.mp4	0.0	333.8299059867859	
32	86.1007559299469	movie	1		301.0	30.0	2.5	/experiments/knapen_aot/videos/R_S_ILSVRC2015_train_00682000.mp4	0.0	333.8380699157715	2.5068519115448
32	88.6076078414917	fix_post	2		12.0	30.0	2.5	/experiments/knapen_aot/videos/R_S_ILSVRC2015_train_00682000.mp4	0.0	336.3449218273163	0.09996604919433594
33	88.70757389068604	fix_pre	0		9.0	31.0	2.5	/experiments/knapen_aot/videos/R_S_flickr-53807584@N00-5565833509_7.mp4	0.0	336.4448878765106	0.07504701614379883
33	88.7748019695282	response	0	2		31.0	2.5	/experiments/knapen_aot/videos/R_S_flickr-53807584@N00-5565833509_7.mp4	0.0	336.5121159553528	
33	88.78262090682983	movie	1		301.0	31.0	2.5	/experiments/knapen_aot/videos/R_S_flickr-53807584@N00-5565833509_7.mp4	0.0	336.5199348926544	2.508241891860962
33	91.2908627986908	fix_post	2		12.0	31.0	2.5	/experiments/knapen_aot/videos/R_S_flickr-53807584@N00-5565833509_7.mp4	0.0	339.0281767845154	0.10001015663146973
34	91.39087295532227	fix_pre	0		9.0	32.0	2.5	/experiments/knapen_aot/videos/R_S_pexels-kelly-lacy-6756531.mp4	0.0	339.12818694114685	0.07494401931762695
34	91.45772385597229	response	0	2		32.0	2.5	/experiments/knapen_aot/videos/R_S_pexels-kelly-lacy-6756531.mp4	0.0	339.1950378417969	
34	91.46581697463989	movie	1		172.0	32.0	2.5	/experiments/knapen_aot/videos/R_S_pexels-kelly-lacy-6756531.mp4	0.0	339.2031309604645	2.5084309577941895
34	93.97424793243408	fix_post	2		12.0	32.0	2.5	/experiments/knapen_aot/videos/R_S_pexels-kelly-lacy-6756531.mp4	0.0	341.71156191825867	0.09998607635498047
35	94.07423400878906	fix_pre	0		5.0	33.0	2.5	/experiments/knapen_aot/videos/R_S_wc-oyG6AjP_W2EL_15.mp4	0.0	341.81154799461365	0.0418238639831543
35	94.10833477973938	response	0	2		33.0	2.5	/experiments/knapen_aot/videos/R_S_wc-oyG6AjP_W2EL_15.mp4	0.0	341.84564876556396	
35	94.11605787277222	movie	1		301.0	33.0	2.5	/experiments/knapen_aot/videos/R_S_wc-oyG6AjP_W2EL_15.mp4	0.0	341.8533718585968	2.5081400871276855
35	96.6241979598999	fix_post	2		12.0	33.0	2.5	/experiments/knapen_aot/videos/R_S_wc-oyG6AjP_W2EL_15.mp4	0.0	344.3615119457245	0.09996390342712402
36	96.72416186332703	fix_pre	0		34.0	34.0	2.5	/experiments/knapen_aot/videos/R_S_yt-_BvMLZo0MG0_1226.mp4	0.0	344.4614758491516	0.28334903717041016
36	96.9993269443512	response	0	2		34.0	2.5	/experiments/knapen_aot/videos/R_S_yt-_BvMLZo0MG0_1226.mp4	0.0	344.7366409301758	
36	97.00751090049744	movie	1		298.0	34.0	2.5	/experiments/knapen_aot/videos/R_S_yt-_BvMLZo0MG0_1226.mp4	0.0	344.744824886322	2.5082719326019287
36	99.51578283309937	fix_post	2		12.0	34.0	2.5	/experiments/knapen_aot/videos/R_S_yt-_BvMLZo0MG0_1226.mp4	0.0	347.25309681892395	0.09991598129272461
37	99.61569881439209	fix_pre	0		5.0	35.0	2.5	blank	1.0	347.3530128002167	0.04182314872741699
37	99.64953994750977	response	0	2		35.0	2.5	blank	1.0	347.38685393333435	
37	99.6575219631195	movie	1		301.0	35.0	2.5	blank	1.0	347.3948359489441	2.508232831954956
37	102.16575479507446	fix_post	2		12.0	35.0	2.5	blank	1.0	349.90306878089905	0.10000419616699219
38	102.26575899124146	fix_pre	0		16.0	36.0	2.5	/experiments/knapen_aot/videos/R_S_yt-0d5TkclKWVA_146.mp4	0.0	350.00307297706604	0.13332581520080566
38	102.39087700843811	response	0	2		36.0	2.5	/experiments/knapen_aot/videos/R_S_yt-0d5TkclKWVA_146.mp4	0.0	350.1281909942627	
38	102.39908480644226	movie	1		301.0	36.0	2.5	/experiments/knapen_aot/videos/R_S_yt-0d5TkclKWVA_146.mp4	0.0	350.13639879226685	2.5083870887756348
38	104.9074718952179	fix_post	2		12.0	36.0	2.5	/experiments/knapen_aot/videos/R_S_yt-0d5TkclKWVA_146.mp4	0.0	352.6447858810425	0.10000896453857422
39	105.00748085975647	fix_pre	0		1.0	37.0	2.5	/experiments/knapen_aot/videos/R_S_yt-j3Sk8ZnAiEA_32.mp4	0.0	352.74479484558105	0.009720087051391602
39	105.00915598869324	response	0	2		37.0	2.5	/experiments/knapen_aot/videos/R_S_yt-j3Sk8ZnAiEA_32.mp4	0.0	352.7464699745178	
39	105.01720094680786	movie	1		301.0	37.0	2.5	/experiments/knapen_aot/videos/R_S_yt-j3Sk8ZnAiEA_32.mp4	0.0	352.75451493263245	2.5068888664245605
39	107.45759797096252	response	1	2		37.0	2.5	/experiments/knapen_aot/videos/R_S_yt-j3Sk8ZnAiEA_32.mp4	0.0	355.1949119567871	
39	107.52408981323242	fix_post	2		12.0	37.0	2.5	/experiments/knapen_aot/videos/R_S_yt-j3Sk8ZnAiEA_32.mp4	0.0	355.261403799057	0.10004901885986328
40	107.62413883209229	fix_pre	0		38.0	38.0	2.5	/experiments/knapen_aot/videos/S_yt-Jo6PxivsTOg_247.mp4	0.0	355.36145281791687	0.3165931701660156
40	107.93250179290771	response	0	2		38.0	2.5	/experiments/knapen_aot/videos/S_yt-Jo6PxivsTOg_247.mp4	0.0	355.6698157787323	
40	107.9407320022583	movie	1		301.0	38.0	2.5	/experiments/knapen_aot/videos/S_yt-Jo6PxivsTOg_247.mp4	0.0	355.6780459880829	2.508331775665283
40	110.44906377792358	fix_post	2		12.0	38.0	2.5	/experiments/knapen_aot/videos/S_yt-Jo6PxivsTOg_247.mp4	0.0	358.18637776374817	0.09995102882385254
41	110.54901480674744	fix_pre	0		7.0	39.0	2.5	/experiments/knapen_aot/videos/S_pexels-kampus-production-5991896.mp4	0.0	358.286328792572	0.058403968811035156
41	110.59927582740784	response	0	2		39.0	2.5	/experiments/knapen_aot/videos/S_pexels-kampus-production-5991896.mp4	0.0	358.3365898132324	
41	110.60741877555847	movie	1		161.0	39.0	2.5	/experiments/knapen_aot/videos/S_pexels-kampus-production-5991896.mp4	0.0	358.34473276138306	2.5083041191101074
41	113.11572289466858	fix_post	2		12.0	39.0	2.5	/experiments/knapen_aot/videos/S_pexels-kampus-production-5991896.mp4	0.0	360.85303688049316	0.10001993179321289
42	113.21574282646179	fix_pre	0		2.0	40.0	2.5	blank	1.0	360.9530568122864	0.016685009002685547
42	113.22567701339722	response	0	2		40.0	2.5	blank	1.0	360.9629909992218	
42	113.23242783546448	movie	1		301.0	40.0	2.5	blank	1.0	360.96974182128906	2.508273124694824
42	115.7407009601593	fix_post	2		12.0	40.0	2.5	blank	1.0	363.4780149459839	0.10002803802490234
43	115.8407289981842	fix_pre	0		17.0	41.0	2.5	/experiments/knapen_aot/videos/S_yt-PltpRRYmQQk_62.mp4	0.0	363.5780429840088	0.14162683486938477
43	115.97414898872375	response	0	2		41.0	2.5	/experiments/knapen_aot/videos/S_yt-PltpRRYmQQk_62.mp4	0.0	363.71146297454834	
43	115.98235583305359	movie	1		301.0	41.0	2.5	/experiments/knapen_aot/videos/S_yt-PltpRRYmQQk_62.mp4	0.0	363.7196698188782	2.5083720684051514
43	118.49072790145874	fix_post	2		12.0	41.0	2.5	/experiments/knapen_aot/videos/S_yt-PltpRRYmQQk_62.mp4	0.0	366.2280418872833	0.0999600887298584
44	118.5906879901886	fix_pre	0		16.0	42.0	2.5	/experiments/knapen_aot/videos/R_S_production_ID_4360158.mp4	0.0	366.3280019760132	0.13338899612426758
44	118.71583294868469	response	0	2		42.0	2.5	/experiments/knapen_aot/videos/R_S_production_ID_4360158.mp4	0.0	366.4531469345093	
44	118.72407698631287	movie	1		165.0	42.0	2.5	/experiments/knapen_aot/videos/R_S_production_ID_4360158.mp4	0.0	366.46139097213745	2.5082898139953613
44	121.23236680030823	fix_post	2		12.0	42.0	2.5	/experiments/knapen_aot/videos/R_S_production_ID_4360158.mp4	0.0	368.9696807861328	0.09995913505554199
44	121.32422089576721	response	2	2		42.0	2.5	/experiments/knapen_aot/videos/R_S_production_ID_4360158.mp4	0.0	369.0615348815918	
45	121.33232593536377	fix_pre	0		51.0	43.0	2.5	/experiments/knapen_aot/videos/S_yt-1uk2k3PnTNw_37.0.mp4	0.0	369.06963992118835	0.4250349998474121
45	121.74909782409668	response	0	2		43.0	2.5	/experiments/knapen_aot/videos/S_yt-1uk2k3PnTNw_37.0.mp4	0.0	369.48641180992126	
45	121.75736093521118	movie	1		301.0	43.0	2.5	/experiments/knapen_aot/videos/S_yt-1uk2k3PnTNw_37.0.mp4	0.0	369.49467492103577	2.508327007293701
45	124.26568794250488	fix_post	2		12.0	43.0	2.5	/experiments/knapen_aot/videos/S_yt-1uk2k3PnTNw_37.0.mp4	0.0	372.00300192832947	0.10000395774841309
46	124.3656919002533	fix_pre	0		5.0	44.0	2.5	/experiments/knapen_aot/videos/S_G010_C026_UHD_SDR_v02_2K_AVC.mp4	0.0	372.1030058860779	0.0416409969329834
46	124.39934396743774	response	0	2		44.0	2.5	/experiments/knapen_aot/videos/S_G010_C026_UHD_SDR_v02_2K_AVC.mp4	0.0	372.13665795326233	
46	124.40733289718628	movie	1		169.0	44.0	2.5	/experiments/knapen_aot/videos/S_G010_C026_UHD_SDR_v02_2K_AVC.mp4	0.0	372.14464688301086	2.508357048034668
46	126.91568994522095	fix_post	2		12.0	44.0	2.5	/experiments/knapen_aot/videos/S_G010_C026_UHD_SDR_v02_2K_AVC.mp4	0.0	374.65300393104553	0.09997391700744629
46	126.91825294494629	response	2	2		44.0	2.5	/experiments/knapen_aot/videos/S_G010_C026_UHD_SDR_v02_2K_AVC.mp4	0.0	374.6555669307709	
47	127.0156638622284	fix_pre	0		33.0	45.0	2.5	/experiments/knapen_aot/videos/R_S_production_ID_4820868.mp4	0.0	374.752977848053	0.27501606941223145
47	127.28245186805725	response	0	2		45.0	2.5	/experiments/knapen_aot/videos/R_S_production_ID_4820868.mp4	0.0	375.01976585388184	
47	127.29067993164062	movie	1		166.0	45.0	2.5	/experiments/knapen_aot/videos/R_S_production_ID_4820868.mp4	0.0	375.0279939174652	2.5082249641418457
47	129.79890489578247	fix_post	2		12.0	45.0	2.5	/experiments/knapen_aot/videos/R_S_production_ID_4820868.mp4	0.0	377.53621888160706	0.10009002685546875
47	129.88244080543518	response	2	2		45.0	2.5	/experiments/knapen_aot/videos/R_S_production_ID_4820868.mp4	0.0	377.61975479125977	
48	129.89899492263794	fix_pre	0		37.0	46.0	2.5	/experiments/knapen_aot/videos/S_yt-3eQHOLBzOqA_100.mp4	0.0	377.6363089084625	0.30831003189086914
48	130.19912481307983	response	0	2		46.0	2.5	/experiments/knapen_aot/videos/S_yt-3eQHOLBzOqA_100.mp4	0.0	377.9364387989044	
48	130.2073049545288	movie	1		301.0	46.0	2.5	/experiments/knapen_aot/videos/S_yt-3eQHOLBzOqA_100.mp4	0.0	377.9446189403534	2.5083630084991455
48	132.71566796302795	fix_post	2		12.0	46.0	2.5	/experiments/knapen_aot/videos/S_yt-3eQHOLBzOqA_100.mp4	0.0	380.45298194885254	0.09999203681945801
49	132.8156599998474	fix_pre	0		9.0	47.0	2.5	/experiments/knapen_aot/videos/S_yt-1_xoCNmTn3Y_1.mp4	0.0	380.552973985672	0.07624578475952148
49	132.88246178627014	response	0	2		47.0	2.5	/experiments/knapen_aot/videos/S_yt-1_xoCNmTn3Y_1.mp4	0.0	380.6197757720947	
49	132.89190578460693	movie	1		301.0	47.0	2.5	/experiments/knapen_aot/videos/S_yt-1_xoCNmTn3Y_1.mp4	0.0	380.6292197704315	2.5070641040802
49	135.39896988868713	fix_post	2		12.0	47.0	2.5	/experiments/knapen_aot/videos/S_yt-1_xoCNmTn3Y_1.mp4	0.0	383.1362838745117	0.10002398490905762
50	135.4989938735962	fix_pre	0		8.0	48.0	2.5	/experiments/knapen_aot/videos/S_ILSVRC2015_train_00378000.mp4	0.0	383.2363078594208	0.06665992736816406
50	135.54986190795898	response	0	2		48.0	2.5	/experiments/knapen_aot/videos/S_ILSVRC2015_train_00378000.mp4	0.0	383.28717589378357	
50	135.56565380096436	movie	1		301.0	48.0	2.5	/experiments/knapen_aot/videos/S_ILSVRC2015_train_00378000.mp4	0.0	383.30296778678894	2.508355140686035
50	138.0740089416504	fix_post	2		12.0	48.0	2.5	/experiments/knapen_aot/videos/S_ILSVRC2015_train_00378000.mp4	0.0	385.811322927475	0.0999760627746582
51	138.17398500442505	fix_pre	0		2.0	49.0	2.5	blank	1.0	385.91129899024963	0.016658782958984375
51	138.18375778198242	response	0	2		49.0	2.5	blank	1.0	385.921071767807	
51	138.19064378738403	movie	1		301.0	49.0	2.5	blank	1.0	385.9279577732086	2.5082931518554688
51	140.6989369392395	fix_post	2		12.0	49.0	2.5	blank	1.0	388.4362509250641	0.09997797012329102
52	140.7989149093628	fix_pre	0		20.0	50.0	2.5	/experiments/knapen_aot/videos/S_yt-ujTY1igjc3E_2.mp4	0.0	388.5362288951874	0.16669487953186035
52	140.9573450088501	response	0	2		50.0	2.5	/experiments/knapen_aot/videos/S_yt-ujTY1igjc3E_2.mp4	0.0	388.6946589946747	
52	140.96560978889465	movie	1		298.0	50.0	2.5	/experiments/knapen_aot/videos/S_yt-ujTY1igjc3E_2.mp4	0.0	388.70292377471924	2.5082809925079346
52	143.4738907814026	fix_post	2		12.0	50.0	2.5	/experiments/knapen_aot/videos/S_yt-ujTY1igjc3E_2.mp4	0.0	391.2112047672272	0.1000361442565918
53	143.57392692565918	fix_pre	0		11.0	51.0	2.5	/experiments/knapen_aot/videos/S_wc-1MzpHfRq1MUK_32.mp4	0.0	391.31124091148376	0.09165191650390625
53	143.65741300582886	response	0	2		51.0	2.5	/experiments/knapen_aot/videos/S_wc-1MzpHfRq1MUK_32.mp4	0.0	391.39472699165344	
53	143.6655788421631	movie	1		298.0	51.0	2.5	/experiments/knapen_aot/videos/S_wc-1MzpHfRq1MUK_32.mp4	0.0	391.40289282798767	2.5084140300750732
53	146.17399287223816	fix_post	2		12.0	51.0	2.5	/experiments/knapen_aot/videos/S_wc-1MzpHfRq1MUK_32.mp4	0.0	393.91130685806274	0.09991812705993652
54	146.2739109992981	fix_pre	0		30.0	52.0	2.5	/experiments/knapen_aot/videos/R_S_ILSVRC2015_train_00165012.mp4	0.0	394.0112249851227	0.24999094009399414
54	146.51569294929504	response	0	2		52.0	2.5	/experiments/knapen_aot/videos/R_S_ILSVRC2015_train_00165012.mp4	0.0	394.25300693511963	
54	146.5239019393921	movie	1		301.0	52.0	2.5	/experiments/knapen_aot/videos/R_S_ILSVRC2015_train_00165012.mp4	0.0	394.2612159252167	2.5083580017089844
54	149.03225994110107	fix_post	2		12.0	52.0	2.5	/experiments/knapen_aot/videos/R_S_ILSVRC2015_train_00165012.mp4	0.0	396.76957392692566	0.09993290901184082
54	149.12404584884644	response	2	2		52.0	2.5	/experiments/knapen_aot/videos/R_S_ILSVRC2015_train_00165012.mp4	0.0	396.861359834671	
55	149.13219285011292	fix_pre	0		52.0	53.0	2.5	/experiments/knapen_aot/videos/S_yt-MsSEF0krKE4_149.mp4	0.0	396.8695068359375	0.4333779811859131
55	149.54981184005737	response	0	2		53.0	2.5	/experiments/knapen_aot/videos/S_yt-MsSEF0krKE4_149.mp4	0.0	397.28712582588196	
55	149.56557083129883	movie	1		301.0	53.0	2.5	/experiments/knapen_aot/videos/S_yt-MsSEF0krKE4_149.mp4	0.0	397.3028848171234	2.508284091949463
55	152.0738549232483	fix_post	2		12.0	53.0	2.5	/experiments/knapen_aot/videos/S_yt-MsSEF0krKE4_149.mp4	0.0	399.8111689090729	0.10000085830688477
56	152.17385578155518	fix_pre	0		2.0	54.0	2.5	blank	1.0	399.91116976737976	0.016756057739257812
56	152.18353986740112	response	0	2		54.0	2.5	blank	1.0	399.9208538532257	
56	152.19061183929443	movie	1		301.0	54.0	2.5	blank	1.0	399.927925825119	2.5082831382751465
56	154.69889497756958	fix_post	2		12.0	54.0	2.5	blank	1.0	402.43620896339417	0.09992384910583496
57	154.79881882667542	fix_pre	0		19.0	55.0	2.5	/experiments/knapen_aot/videos/R_S_Ds4EKTLx_RI_51.mp4	0.0	402.5361328125	0.15840911865234375
57	154.9490659236908	response	0	2		55.0	2.5	/experiments/knapen_aot/videos/R_S_Ds4EKTLx_RI_51.mp4	0.0	402.6863799095154	
57	154.95722794532776	movie	1		301.0	55.0	2.5	/experiments/knapen_aot/videos/R_S_Ds4EKTLx_RI_51.mp4	0.0	402.69454193115234	2.5083398818969727
57	157.46556782722473	fix_post	2		12.0	55.0	2.5	/experiments/knapen_aot/videos/R_S_Ds4EKTLx_RI_51.mp4	0.0	405.2028818130493	0.09997200965881348
58	157.56553983688354	fix_pre	0		3.0	56.0	2.5	/experiments/knapen_aot/videos/S_yt-y-boY803u9A_12.mp4	0.0	405.30285382270813	0.024981021881103516
58	157.5823109149933	response	0	2		56.0	2.5	/experiments/knapen_aot/videos/S_yt-y-boY803u9A_12.mp4	0.0	405.31962490081787	
58	157.59052085876465	movie	1		297.0	56.0	2.5	/experiments/knapen_aot/videos/S_yt-y-boY803u9A_12.mp4	0.0	405.32783484458923	2.508286952972412
58	160.09880781173706	fix_post	2		12.0	56.0	2.5	/experiments/knapen_aot/videos/S_yt-y-boY803u9A_12.mp4	0.0	407.83612179756165	0.10001015663146973
59	160.19881796836853	fix_pre	0		33.0	57.0	2.5	/experiments/knapen_aot/videos/S_yt-GyMWMiWvuiA_237.mp4	0.0	407.9361319541931	0.2761409282684326
59	160.46565580368042	response	0	2		57.0	2.5	/experiments/knapen_aot/videos/S_yt-GyMWMiWvuiA_237.mp4	0.0	408.202969789505	
59	160.47495889663696	movie	1		301.0	57.0	2.5	/experiments/knapen_aot/videos/S_yt-GyMWMiWvuiA_237.mp4	0.0	408.21227288246155	2.5072200298309326
59	162.9821789264679	fix_post	2		12.0	57.0	2.5	/experiments/knapen_aot/videos/S_yt-GyMWMiWvuiA_237.mp4	0.0	410.7194929122925	0.09994697570800781
60	163.0821259021759	fix_pre	0		28.0	58.0	2.5	/experiments/knapen_aot/videos/R_S_yt-MsSEF0krKE4_149.mp4	0.0	410.8194398880005	0.23339509963989258
60	163.30733394622803	response	0	2		58.0	2.5	/experiments/knapen_aot/videos/R_S_yt-MsSEF0krKE4_149.mp4	0.0	411.0446479320526	
60	163.3155210018158	movie	1		301.0	58.0	2.5	/experiments/knapen_aot/videos/R_S_yt-MsSEF0krKE4_149.mp4	0.0	411.0528349876404	2.508312940597534
60	165.82383394241333	fix_post	2		12.0	58.0	2.5	/experiments/knapen_aot/videos/R_S_yt-MsSEF0krKE4_149.mp4	0.0	413.5611479282379	0.10004591941833496
61	165.92387986183167	fix_pre	0		6.0	59.0	2.5	/experiments/knapen_aot/videos/R_S_yt-N1ZrWT4xyzc_85.mp4	0.0	413.66119384765625	0.05113506317138672
61	165.96570086479187	response	0	2		59.0	2.5	/experiments/knapen_aot/videos/R_S_yt-N1ZrWT4xyzc_85.mp4	0.0	413.70301485061646	
61	165.97501492500305	movie	1		301.0	59.0	2.5	/experiments/knapen_aot/videos/R_S_yt-N1ZrWT4xyzc_85.mp4	0.0	413.71232891082764	2.507128953933716
61	168.48214387893677	fix_post	2		12.0	59.0	2.5	/experiments/knapen_aot/videos/R_S_yt-N1ZrWT4xyzc_85.mp4	0.0	416.21945786476135	0.10009908676147461
61	168.5323429107666	response	2	2		59.0	2.5	/experiments/knapen_aot/videos/R_S_yt-N1ZrWT4xyzc_85.mp4	0.0	416.2696568965912	
62	168.58224296569824	fix_pre	0		36.0	60.0	2.5	/experiments/knapen_aot/videos/S_yt-uSHBdUi8_V0_24.mp4	0.0	416.3195569515228	0.3000650405883789
62	168.87391996383667	response	0	2		60.0	2.5	/experiments/knapen_aot/videos/S_yt-uSHBdUi8_V0_24.mp4	0.0	416.61123394966125	
62	168.88230800628662	movie	1		301.0	60.0	2.5	/experiments/knapen_aot/videos/S_yt-uSHBdUi8_V0_24.mp4	0.0	416.6196219921112	2.508187770843506
62	171.39049577713013	fix_post	2		12.0	60.0	2.5	/experiments/knapen_aot/videos/S_yt-uSHBdUi8_V0_24.mp4	0.0	419.1278097629547	0.100006103515625
63	171.49050188064575	fix_pre	0		14.0	61.0	2.5	/experiments/knapen_aot/videos/R_S_yt-HRuCkU_kBoE_239.mp4	0.0	419.22781586647034	0.11663198471069336
63	171.5989317893982	response	0	2		61.0	2.5	/experiments/knapen_aot/videos/R_S_yt-HRuCkU_kBoE_239.mp4	0.0	419.3362457752228	
63	171.60713386535645	movie	1		301.0	61.0	2.5	/experiments/knapen_aot/videos/R_S_yt-HRuCkU_kBoE_239.mp4	0.0	419.34444785118103	2.508404016494751
63	174.1155378818512	fix_post	2		12.0	61.0	2.5	/experiments/knapen_aot/videos/R_S_yt-HRuCkU_kBoE_239.mp4	0.0	421.8528518676758	0.09995698928833008
64	174.21549487113953	fix_pre	0		11.0	62.0	2.5	blank	1.0	421.9528088569641	0.09274101257324219
64	174.29895782470703	response	0	2		62.0	2.5	blank	1.0	422.0362718105316	
64	174.30823588371277	movie	1		301.0	62.0	2.5	blank	1.0	422.04554986953735	2.5072450637817383
64	176.8154809474945	fix_post	2		12.0	62.0	2.5	blank	1.0	424.5527949333191	0.10003185272216797
65	176.91551280021667	fix_pre	0		34.0	63.0	2.5	/experiments/knapen_aot/videos/R_S_yt-be7r-ha8BpA_1045.mp4	0.0	424.65282678604126	0.2833120822906494
65	177.1905918121338	response	0	2		63.0	2.5	/experiments/knapen_aot/videos/R_S_yt-be7r-ha8BpA_1045.mp4	0.0	424.9279057979584	
65	177.19882488250732	movie	1		299.0	63.0	2.5	/experiments/knapen_aot/videos/R_S_yt-be7r-ha8BpA_1045.mp4	0.0	424.9361388683319	2.5083189010620117
65	179.70714378356934	fix_post	2		12.0	63.0	2.5	/experiments/knapen_aot/videos/R_S_yt-be7r-ha8BpA_1045.mp4	0.0	427.4444577693939	0.10100722312927246
65	179.79892086982727	response	2	2		63.0	2.5	/experiments/knapen_aot/videos/R_S_yt-be7r-ha8BpA_1045.mp4	0.0	427.53623485565186	
66	179.8081510066986	fix_pre	0		50.0	64.0	2.5	/experiments/knapen_aot/videos/R_S_yt-mDil5vGZb14_4049.mp4	0.0	427.5454649925232	0.4166419506072998
66	180.2155168056488	response	0	2		64.0	2.5	/experiments/knapen_aot/videos/R_S_yt-mDil5vGZb14_4049.mp4	0.0	427.9528307914734	
66	180.2247929573059	movie	1		301.0	64.0	2.5	/experiments/knapen_aot/videos/R_S_yt-mDil5vGZb14_4049.mp4	0.0	427.9621069431305	2.507340908050537
66	182.73213386535645	fix_post	2		12.0	64.0	2.5	/experiments/knapen_aot/videos/R_S_yt-mDil5vGZb14_4049.mp4	0.0	430.46944785118103	0.09999513626098633
67	182.83212900161743	fix_pre	0		15.0	65.0	2.5	/experiments/knapen_aot/videos/S_yt-ET5YTz1laWo_108.mp4	0.0	430.569442987442	0.12495088577270508
67	182.94910192489624	response	0	2		65.0	2.5	/experiments/knapen_aot/videos/S_yt-ET5YTz1laWo_108.mp4	0.0	430.6864159107208	
67	182.95707988739014	movie	1		301.0	65.0	2.5	/experiments/knapen_aot/videos/S_yt-ET5YTz1laWo_108.mp4	0.0	430.6943938732147	2.5084149837493896
67	185.46549487113953	fix_post	2		12.0	65.0	2.5	/experiments/knapen_aot/videos/S_yt-ET5YTz1laWo_108.mp4	0.0	433.2028088569641	0.09998393058776855
68	185.5654788017273	fix_pre	0		7.0	66.0	2.5	/experiments/knapen_aot/videos/R_S_video-5.mp4	0.0	433.3027927875519	0.058326005935668945
68	185.60881400108337	response	0	2		66.0	2.5	/experiments/knapen_aot/videos/R_S_video-5.mp4	0.0	433.34612798690796	
68	185.62380480766296	movie	1		171.0	66.0	2.5	/experiments/knapen_aot/videos/R_S_video-5.mp4	0.0	433.36111879348755	2.5082530975341797
68	188.13205790519714	fix_post	2		12.0	66.0	2.5	/experiments/knapen_aot/videos/R_S_video-5.mp4	0.0	435.86937189102173	0.09999299049377441
69	188.23205089569092	fix_pre	0		8.0	67.0	2.5	/experiments/knapen_aot/videos/S_video_inspire_california_big-sur_bixby_005.1080-h264.mp4	0.0	435.9693648815155	0.06672406196594238
69	188.2905728816986	response	0	2		67.0	2.5	/experiments/knapen_aot/videos/S_video_inspire_california_big-sur_bixby_005.1080-h264.mp4	0.0	436.0278868675232	
69	188.29877495765686	movie	1		169.0	67.0	2.5	/experiments/knapen_aot/videos/S_video_inspire_california_big-sur_bixby_005.1080-h264.mp4	0.0	436.03608894348145	2.508281946182251
69	190.8070569038391	fix_post	2		12.0	67.0	2.5	/experiments/knapen_aot/videos/S_video_inspire_california_big-sur_bixby_005.1080-h264.mp4	0.0	438.5443708896637	0.09998703002929688
70	190.9070439338684	fix_pre	0		15.0	68.0	2.5	/experiments/knapen_aot/videos/R_S_ILSVRC2015_train_00471000.mp4	0.0	438.644357919693	0.1250629425048828
70	191.02381300926208	response	0	2		68.0	2.5	/experiments/knapen_aot/videos/R_S_ILSVRC2015_train_00471000.mp4	0.0	438.76112699508667	
70	191.0321068763733	movie	1		301.0	68.0	2.5	/experiments/knapen_aot/videos/R_S_ILSVRC2015_train_00471000.mp4	0.0	438.7694208621979	2.508305072784424
70	193.54041194915771	fix_post	2		12.0	68.0	2.5	/experiments/knapen_aot/videos/R_S_ILSVRC2015_train_00471000.mp4	0.0	441.2777259349823	0.10098505020141602
71	193.64139699935913	fix_pre	0		9.0	69.0	2.5	/experiments/knapen_aot/videos/R_S_yt-Y3pi1bgUwIg_78.mp4	0.0	441.3787109851837	0.07398390769958496
71	193.70005679130554	response	0	2		69.0	2.5	/experiments/knapen_aot/videos/R_S_yt-Y3pi1bgUwIg_78.mp4	0.0	441.4373707771301	
71	193.71538090705872	movie	1		301.0	69.0	2.5	/experiments/knapen_aot/videos/R_S_yt-Y3pi1bgUwIg_78.mp4	0.0	441.4526948928833	2.5083510875701904
71	196.2237319946289	fix_post	2		12.0	69.0	2.5	/experiments/knapen_aot/videos/R_S_yt-Y3pi1bgUwIg_78.mp4	0.0	443.9610459804535	0.09994983673095703
72	196.32368183135986	fix_pre	0		29.0	70.0	2.5	blank	1.0	444.06099581718445	0.24164509773254395
72	196.55706882476807	response	0	2		70.0	2.5	blank	1.0	444.29438281059265	
72	196.5653269290924	movie	1		301.0	70.0	2.5	blank	1.0	444.302640914917	2.508349895477295
72	199.0736768245697	fix_post	2		12.0	70.0	2.5	blank	1.0	446.8109908103943	0.09993600845336914
73	199.17361283302307	fix_pre	0		19.0	71.0	2.5	/experiments/knapen_aot/videos/S_yt-i3-YlGenYmk_411.mp4	0.0	446.91092681884766	0.15836501121520996
73	199.32385683059692	response	0	2		71.0	2.5	/experiments/knapen_aot/videos/S_yt-i3-YlGenYmk_411.mp4	0.0	447.0611708164215	
73	199.33197784423828	movie	1		301.0	71.0	2.5	/experiments/knapen_aot/videos/S_yt-i3-YlGenYmk_411.mp4	0.0	447.06929183006287	2.5083260536193848
73	201.84030389785767	fix_post	2		12.0	71.0	2.5	/experiments/knapen_aot/videos/S_yt-i3-YlGenYmk_411.mp4	0.0	449.57761788368225	0.09998703002929688
74	201.94029092788696	fix_pre	0		29.0	72.0	2.5	/experiments/knapen_aot/videos/S_yt-8aJDzfAaArQ_75.mp4	0.0	449.67760491371155	0.24260187149047852
74	202.17379093170166	response	0	2		72.0	2.5	/experiments/knapen_aot/videos/S_yt-8aJDzfAaArQ_75.mp4	0.0	449.91110491752625	
74	202.18289279937744	movie	1		301.0	72.0	2.5	/experiments/knapen_aot/videos/S_yt-8aJDzfAaArQ_75.mp4	0.0	449.920206785202	2.507343053817749
74	204.6902358531952	fix_post	2		12.0	72.0	2.5	/experiments/knapen_aot/videos/S_yt-8aJDzfAaArQ_75.mp4	0.0	452.4275498390198	0.10005807876586914
75	204.79029393196106	fix_pre	0		27.0	73.0	2.5	/experiments/knapen_aot/videos/S_pexels-pavel-danilyuk-8057714.mp4	0.0	452.52760791778564	0.2259690761566162
75	205.00713992118835	response	0	2		73.0	2.5	/experiments/knapen_aot/videos/S_pexels-pavel-danilyuk-8057714.mp4	0.0	452.74445390701294	
75	205.01626300811768	movie	1		165.0	73.0	2.5	/experiments/knapen_aot/videos/S_pexels-pavel-danilyuk-8057714.mp4	0.0	452.75357699394226	2.507415771484375
75	207.52367877960205	fix_post	2		12.0	73.0	2.5	/experiments/knapen_aot/videos/S_pexels-pavel-danilyuk-8057714.mp4	0.0	455.26099276542664	0.0999760627746582
76	207.6236548423767	fix_pre	0		14.0	74.0	2.5	/experiments/knapen_aot/videos/S_bing-www_yahoo_com_entertainment_anastasia-karanikolaou-chantel-jeffries-discuss-182400502_html_9.mp4	0.0	455.3609688282013	0.1166231632232666
76	207.73210883140564	response	0	2		74.0	2.5	/experiments/knapen_aot/videos/S_bing-www_yahoo_com_entertainment_anastasia-karanikolaou-chantel-jeffries-discuss-182400502_html_9.mp4	0.0	455.4694228172302	
76	207.74027800559998	movie	1		165.0	74.0	2.5	/experiments/knapen_aot/videos/S_bing-www_yahoo_com_entertainment_anastasia-karanikolaou-chantel-jeffries-discuss-182400502_html_9.mp4	0.0	455.47759199142456	2.50836181640625
76	210.24863982200623	fix_post	2		12.0	74.0	2.5	/experiments/knapen_aot/videos/S_bing-www_yahoo_com_entertainment_anastasia-karanikolaou-chantel-jeffries-discuss-182400502_html_9.mp4	0.0	457.9859538078308	0.09998106956481934
77	210.34862089157104	fix_pre	0		1.0	75.0	2.5	blank	1.0	458.08593487739563	0.0083160400390625
77	210.35029077529907	response	0	2		75.0	2.5	blank	1.0	458.08760476112366	
77	210.3569369316101	movie	1		301.0	75.0	2.5	blank	1.0	458.0942509174347	2.5083370208740234
77	212.86527395248413	fix_post	2		12.0	75.0	2.5	blank	1.0	460.6025879383087	0.10000896453857422
78	212.9652829170227	fix_pre	0		26.0	76.0	2.5	/experiments/knapen_aot/videos/R_S_yt-7NjoFHBdP7c_102.mp4	0.0	460.7025969028473	0.21748685836791992
78	213.17395877838135	response	0	2		76.0	2.5	/experiments/knapen_aot/videos/R_S_yt-7NjoFHBdP7c_102.mp4	0.0	460.91127276420593	
78	213.18276977539062	movie	1		301.0	76.0	2.5	/experiments/knapen_aot/videos/R_S_yt-7NjoFHBdP7c_102.mp4	0.0	460.9200837612152	2.507484197616577
78	215.6902539730072	fix_post	2		12.0	76.0	2.5	/experiments/knapen_aot/videos/R_S_yt-7NjoFHBdP7c_102.mp4	0.0	463.4275679588318	0.10004782676696777
79	215.79030179977417	fix_pre	0		27.0	77.0	2.5	/experiments/knapen_aot/videos/R_S_yt-9t5-3Qe_t9A_591.mp4	0.0	463.52761578559875	0.22583913803100586
79	216.00709080696106	response	0	2		77.0	2.5	/experiments/knapen_aot/videos/R_S_yt-9t5-3Qe_t9A_591.mp4	0.0	463.74440479278564	
79	216.01614093780518	movie	1		301.0	77.0	2.5	/experiments/knapen_aot/videos/R_S_yt-9t5-3Qe_t9A_591.mp4	0.0	463.75345492362976	2.5074498653411865
79	218.52359080314636	fix_post	2		12.0	77.0	2.5	/experiments/knapen_aot/videos/R_S_yt-9t5-3Qe_t9A_591.mp4	0.0	466.26090478897095	0.1000211238861084
80	218.62361192703247	fix_pre	0		5.0	78.0	2.5	/experiments/knapen_aot/videos/R_S_pexels-rodnae-productions-5993671.mp4	0.0	466.36092591285706	0.04167795181274414
80	218.65709400177002	response	0	2		78.0	2.5	/experiments/knapen_aot/videos/R_S_pexels-rodnae-productions-5993671.mp4	0.0	466.3944079875946	
80	218.66528987884521	movie	1		165.0	78.0	2.5	/experiments/knapen_aot/videos/R_S_pexels-rodnae-productions-5993671.mp4	0.0	466.4026038646698	2.5083041191101074
80	221.17359399795532	fix_post	2		11.0	78.0	2.5	/experiments/knapen_aot/videos/R_S_pexels-rodnae-productions-5993671.mp4	0.0	468.9109079837799	0.09252190589904785
80	221.2571737766266	response	2	2		78.0	2.5	/experiments/knapen_aot/videos/R_S_pexels-rodnae-productions-5993671.mp4	0.0	468.9944877624512	
81	221.26611590385437	fix_pre	0		44.0	79.0	2.5	/experiments/knapen_aot/videos/R_S_pexels-mart-production-7698693.mp4	0.0	469.00342988967896	0.3658409118652344
81	221.6237609386444	response	0	2		79.0	2.5	/experiments/knapen_aot/videos/R_S_pexels-mart-production-7698693.mp4	0.0	469.361074924469	
81	221.6319568157196	movie	1		195.0	79.0	2.5	/experiments/knapen_aot/videos/R_S_pexels-mart-production-7698693.mp4	0.0	469.3692708015442	2.5082080364227295
81	224.14016485214233	fix_post	2		12.0	79.0	2.5	/experiments/knapen_aot/videos/R_S_pexels-mart-production-7698693.mp4	0.0	471.8774788379669	0.10003495216369629
82	224.24019980430603	fix_pre	0		22.0	80.0	2.5	/experiments/knapen_aot/videos/S_m-aeoYPMqfg_185.mp4	0.0	471.9775137901306	0.1833631992340088
82	224.4152548313141	response	0	2		80.0	2.5	/experiments/knapen_aot/videos/S_m-aeoYPMqfg_185.mp4	0.0	472.1525688171387	
82	224.42356300354004	movie	1		301.0	80.0	2.5	/experiments/knapen_aot/videos/S_m-aeoYPMqfg_185.mp4	0.0	472.1608769893646	2.5082998275756836
82	226.93186283111572	fix_post	2		12.0	80.0	2.5	/experiments/knapen_aot/videos/S_m-aeoYPMqfg_185.mp4	0.0	474.6691768169403	0.09997797012329102
83	227.031840801239	fix_pre	0		87.0	81.0	2.5	/experiments/knapen_aot/videos/R_S_comp_HK_H004_C013_t9_6M_HB_tag0.mp4	0.0	474.7691547870636	0.7250320911407471
83	227.74867582321167	response	0	2		81.0	2.5	/experiments/knapen_aot/videos/R_S_comp_HK_H004_C013_t9_6M_HB_tag0.mp4	0.0	475.48598980903625	
83	227.75687289237976	movie	1		176.0	81.0	2.5	/experiments/knapen_aot/videos/R_S_comp_HK_H004_C013_t9_6M_HB_tag0.mp4	0.0	475.49418687820435	2.508359909057617
83	230.26523280143738	fix_post	2		12.0	81.0	2.5	/experiments/knapen_aot/videos/R_S_comp_HK_H004_C013_t9_6M_HB_tag0.mp4	0.0	478.00254678726196	0.09998297691345215
83	230.3319239616394	response	2	2		81.0	2.5	/experiments/knapen_aot/videos/R_S_comp_HK_H004_C013_t9_6M_HB_tag0.mp4	0.0	478.069237947464	
84	230.36521577835083	fix_pre	0		38.0	82.0	2.5	/experiments/knapen_aot/videos/R_S_wc-eJe3wXMgTLRV_20.mp4	0.0	478.1025297641754	0.31740617752075195
84	230.67365884780884	response	0	2		82.0	2.5	/experiments/knapen_aot/videos/R_S_wc-eJe3wXMgTLRV_20.mp4	0.0	478.4109728336334	
84	230.68262195587158	movie	1		165.0	82.0	2.5	/experiments/knapen_aot/videos/R_S_wc-eJe3wXMgTLRV_20.mp4	0.0	478.41993594169617	2.507668972015381
84	233.19029092788696	fix_post	2		12.0	82.0	2.5	/experiments/knapen_aot/videos/R_S_wc-eJe3wXMgTLRV_20.mp4	0.0	480.92760491371155	0.09991097450256348
84	233.27456879615784	response	2	2		82.0	2.5	/experiments/knapen_aot/videos/R_S_wc-eJe3wXMgTLRV_20.mp4	0.0	481.0118827819824	
85	233.29020190238953	fix_pre	0		35.0	83.0	2.5	blank	1.0	481.0275158882141	0.29166507720947266
85	233.57365798950195	response	0	2		83.0	2.5	blank	1.0	481.31097197532654	
85	233.581866979599	movie	1		301.0	83.0	2.5	blank	1.0	481.3191809654236	2.508281946182251
85	236.09014892578125	fix_post	2		12.0	83.0	2.5	blank	1.0	483.82746291160583	0.10005998611450195
87	236.19020891189575	stim	0		196.0					483.92752289772034	1.6382088661193848
87	236.45697498321533	response	0	2						484.1942889690399	
87	237.81998896598816	response	0	space						485.55730295181274	
