trial_nr	onset	event_type	phase	response	nr_frames	movie_index	movie_duration	movie_file	blank	onset_abs	duration
0	0.15075993537902832	stim	0		19.0					68.7742760181427	0.157883882522583
0	0.30005788803100586	response	0	space						68.92357397079468	
1	0.30864381790161133	stim	0		121.0					68.93215990066528	1.0077340602874756
1	0.7917628288269043	response	0	space						69.41527891159058	
1	1.0667839050292969	response	0	space						69.69029998779297	
1	1.2831778526306152	response	0	space						69.90669393539429	
1	1.316377878189087	stim	1		120.0					69.93989396095276	1.000087022781372
1	1.524751901626587	response	1	space						70.14826798439026	
1	1.7914278507232666	response	1	space						70.41494393348694	
1	2.0331900119781494	response	1	space						70.65670609474182	
2	2.316464900970459	fix_pre	0		3.0	0.0	2.5	/experiments/knapen_aot/oldvideos/R_S_ILSVRC2015_train_00652001.mp4	0.0	70.93998098373413	0.026803016662597656
2	2.3331990242004395	response	0	space		0.0	2.5	/experiments/knapen_aot/oldvideos/R_S_ILSVRC2015_train_00652001.mp4	0.0	70.95671510696411	
2	2.3432679176330566	movie	1		301.0	0.0	2.5	/experiments/knapen_aot/oldvideos/R_S_ILSVRC2015_train_00652001.mp4	0.0	70.96678400039673	2.506434917449951
2	4.849702835083008	fix_post	2		12.0	0.0	2.5	/experiments/knapen_aot/oldvideos/R_S_ILSVRC2015_train_00652001.mp4	0.0	73.47321891784668	0.09988212585449219
3	4.9495849609375	fix_pre	0		29.0	1.0	2.5	/experiments/knapen_aot/oldvideos/S_yt-DmlSN7mzczI_62.mp4	0.0	73.57310104370117	0.24172687530517578
3	5.184319972991943	response	0	2		1.0	2.5	/experiments/knapen_aot/oldvideos/S_yt-DmlSN7mzczI_62.mp4	0.0	73.80783605575562	
3	5.191311836242676	movie	1		301.0	1.0	2.5	/experiments/knapen_aot/oldvideos/S_yt-DmlSN7mzczI_62.mp4	0.0	73.81482791900635	2.508296012878418
3	7.699607849121094	fix_post	2		12.0	1.0	2.5	/experiments/knapen_aot/oldvideos/S_yt-DmlSN7mzczI_62.mp4	0.0	76.32312393188477	0.1000211238861084
4	7.799628973007202	fix_pre	0		6.0	2.0	2.5	/experiments/knapen_aot/oldvideos/S_yt-PYHK810V_n8_1375.mp4	0.0	76.42314505577087	0.05067086219787598
4	7.8415069580078125	response	0	2		2.0	2.5	/experiments/knapen_aot/oldvideos/S_yt-PYHK810V_n8_1375.mp4	0.0	76.46502304077148	
4	7.850299835205078	movie	1		301.0	2.0	2.5	/experiments/knapen_aot/oldvideos/S_yt-PYHK810V_n8_1375.mp4	0.0	76.47381591796875	2.507594108581543
4	10.357893943786621	fix_post	2		12.0	2.0	2.5	/experiments/knapen_aot/oldvideos/S_yt-PYHK810V_n8_1375.mp4	0.0	78.9814100265503	0.10013103485107422
5	10.458024978637695	fix_pre	0		3.0	3.0	2.5	/experiments/knapen_aot/oldvideos/R_S_production_ID_5119260.mp4	0.0	79.08154106140137	0.024932861328125
5	10.474745988845825	response	0	2		3.0	2.5	/experiments/knapen_aot/oldvideos/R_S_production_ID_5119260.mp4	0.0	79.0982620716095	
5	10.48295783996582	movie	1		163.0	3.0	2.5	/experiments/knapen_aot/oldvideos/R_S_production_ID_5119260.mp4	0.0	79.10647392272949	2.5083401203155518
5	12.991297960281372	fix_post	2		12.0	3.0	2.5	/experiments/knapen_aot/oldvideos/R_S_production_ID_5119260.mp4	0.0	81.61481404304504	0.09987688064575195
5	13.066550016403198	response	2	2		3.0	2.5	/experiments/knapen_aot/oldvideos/R_S_production_ID_5119260.mp4	0.0	81.69006609916687	
6	13.091174840927124	fix_pre	0		37.0	4.0	2.5	/experiments/knapen_aot/oldvideos/R_S_yt-b7bIulV49DQ_81.mp4	0.0	81.7146909236908	0.3084220886230469
6	13.391341924667358	response	0	2		4.0	2.5	/experiments/knapen_aot/oldvideos/R_S_yt-b7bIulV49DQ_81.mp4	0.0	82.01485800743103	
6	13.399596929550171	movie	1		301.0	4.0	2.5	/experiments/knapen_aot/oldvideos/R_S_yt-b7bIulV49DQ_81.mp4	0.0	82.02311301231384	2.5085558891296387
6	15.90815281867981	fix_post	2		12.0	4.0	2.5	/experiments/knapen_aot/oldvideos/R_S_yt-b7bIulV49DQ_81.mp4	0.0	84.53166890144348	0.09978604316711426
7	16.007938861846924	fix_pre	0		8.0	5.0	2.5	blank	1.0	84.6314549446106	0.06668496131896973
7	16.066362857818604	response	0	2		5.0	2.5	blank	1.0	84.68987894058228	
7	16.074623823165894	movie	1		301.0	5.0	2.5	blank	1.0	84.69813990592957	2.508327007293701
7	18.582950830459595	fix_post	2		12.0	5.0	2.5	blank	1.0	87.20646691322327	0.09998917579650879
8	18.682940006256104	fix_pre	0		16.0	6.0	2.5	/experiments/knapen_aot/oldvideos/S_ILSVRC2015_train_00251004.mp4	0.0	87.30645608901978	0.13330888748168945
8	18.800642013549805	response	0	2		6.0	2.5	/experiments/knapen_aot/oldvideos/S_ILSVRC2015_train_00251004.mp4	0.0	87.42415809631348	
8	18.816248893737793	movie	1		301.0	6.0	2.5	/experiments/knapen_aot/oldvideos/S_ILSVRC2015_train_00251004.mp4	0.0	87.43976497650146	2.508352041244507
8	21.3246009349823	fix_post	2		12.0	6.0	2.5	/experiments/knapen_aot/oldvideos/S_ILSVRC2015_train_00251004.mp4	0.0	89.94811701774597	0.1000208854675293
9	21.42462182044983	fix_pre	0		5.0	7.0	2.5	/experiments/knapen_aot/oldvideos/S_ILSVRC2015_train_00044004.mp4	0.0	90.0481379032135	0.041596174240112305
9	21.45804190635681	response	0	2		7.0	2.5	/experiments/knapen_aot/oldvideos/S_ILSVRC2015_train_00044004.mp4	0.0	90.08155798912048	
9	21.46621799468994	movie	1		301.0	7.0	2.5	/experiments/knapen_aot/oldvideos/S_ILSVRC2015_train_00044004.mp4	0.0	90.08973407745361	2.5082948207855225
9	23.974512815475464	fix_post	2		12.0	7.0	2.5	/experiments/knapen_aot/oldvideos/S_ILSVRC2015_train_00044004.mp4	0.0	92.59802889823914	0.10005998611450195
9	24.033023834228516	response	2	2		7.0	2.5	/experiments/knapen_aot/oldvideos/S_ILSVRC2015_train_00044004.mp4	0.0	92.65653991699219	
10	24.074572801589966	fix_pre	0		44.0	8.0	2.5	/experiments/knapen_aot/oldvideos/R_S_yt-thmqgEV-sYY_91.mp4	0.0	92.69808888435364	0.3666391372680664
10	24.432909965515137	response	0	2		8.0	2.5	/experiments/knapen_aot/oldvideos/R_S_yt-thmqgEV-sYY_91.mp4	0.0	93.05642604827881	
10	24.441211938858032	movie	1		301.0	8.0	2.5	/experiments/knapen_aot/oldvideos/R_S_yt-thmqgEV-sYY_91.mp4	0.0	93.0647280216217	2.508333921432495
10	26.949545860290527	fix_post	2		12.0	8.0	2.5	/experiments/knapen_aot/oldvideos/R_S_yt-thmqgEV-sYY_91.mp4	0.0	95.5730619430542	0.10010695457458496
11	27.049652814865112	fix_pre	0		3.0	9.0	2.5	/experiments/knapen_aot/oldvideos/R_S_yt-KQq7vTlXUiQ_173.mp4	0.0	95.67316889762878	0.02487015724182129
11	27.066377878189087	response	0	2		9.0	2.5	/experiments/knapen_aot/oldvideos/R_S_yt-KQq7vTlXUiQ_173.mp4	0.0	95.68989396095276	
11	27.074522972106934	movie	1		301.0	9.0	2.5	/experiments/knapen_aot/oldvideos/R_S_yt-KQq7vTlXUiQ_173.mp4	0.0	95.6980390548706	2.5084259510040283
11	29.582948923110962	fix_post	2		12.0	9.0	2.5	/experiments/knapen_aot/oldvideos/R_S_yt-KQq7vTlXUiQ_173.mp4	0.0	98.20646500587463	0.10041999816894531
12	29.683368921279907	fix_pre	0		11.0	10.0	2.5	/experiments/knapen_aot/oldvideos/R_S_yt-pbFpqAQJCJo_149.mp4	0.0	98.30688500404358	0.09125590324401855
12	29.76631999015808	response	0	4		10.0	2.5	/experiments/knapen_aot/oldvideos/R_S_yt-pbFpqAQJCJo_149.mp4	0.0	98.38983607292175	
12	29.774624824523926	movie	1		301.0	10.0	2.5	/experiments/knapen_aot/oldvideos/R_S_yt-pbFpqAQJCJo_149.mp4	0.0	98.3981409072876	2.5082449913024902
12	32.282869815826416	fix_post	2		12.0	10.0	2.5	/experiments/knapen_aot/oldvideos/R_S_yt-pbFpqAQJCJo_149.mp4	0.0	100.90638589859009	0.10007619857788086
13	32.3829460144043	fix_pre	0		4.0	11.0	2.5	/experiments/knapen_aot/oldvideos/S_DV6V38rplag_215.mp4	0.0	101.00646209716797	0.033258914947509766
13	32.40805983543396	response	0	4		11.0	2.5	/experiments/knapen_aot/oldvideos/S_DV6V38rplag_215.mp4	0.0	101.03157591819763	
13	32.41620492935181	movie	1		301.0	11.0	2.5	/experiments/knapen_aot/oldvideos/S_DV6V38rplag_215.mp4	0.0	101.03972101211548	2.508352041244507
13	34.92455697059631	fix_post	2		12.0	11.0	2.5	/experiments/knapen_aot/oldvideos/S_DV6V38rplag_215.mp4	0.0	103.54807305335999	0.09997081756591797
14	35.02452778816223	fix_pre	0		10.0	12.0	2.5	blank	1.0	103.6480438709259	0.08337903022766113
14	35.09962701797485	response	0	4		12.0	2.5	blank	1.0	103.72314310073853	
14	35.10790681838989	movie	1		301.0	12.0	2.5	blank	1.0	103.73142290115356	2.50828218460083
14	37.61618900299072	fix_post	2		12.0	12.0	2.5	blank	1.0	106.2397050857544	0.10015296936035156
15	37.716341972351074	fix_pre	0		14.0	13.0	2.5	/experiments/knapen_aot/oldvideos/R_S_yt-3DM_SqT4RII_10.mp4	0.0	106.33985805511475	0.11644196510314941
15	37.824527978897095	response	0	2		13.0	2.5	/experiments/knapen_aot/oldvideos/R_S_yt-3DM_SqT4RII_10.mp4	0.0	106.44804406166077	
15	37.832783937454224	movie	1		301.0	13.0	2.5	/experiments/knapen_aot/oldvideos/R_S_yt-3DM_SqT4RII_10.mp4	0.0	106.4563000202179	2.5084469318389893
15	39.75971698760986	response	1	4		13.0	2.5	/experiments/knapen_aot/oldvideos/R_S_yt-3DM_SqT4RII_10.mp4	0.0	108.38323307037354	
15	40.02462983131409	response	1	4		13.0	2.5	/experiments/knapen_aot/oldvideos/R_S_yt-3DM_SqT4RII_10.mp4	0.0	108.64814591407776	
15	40.22464179992676	response	1	4		13.0	2.5	/experiments/knapen_aot/oldvideos/R_S_yt-3DM_SqT4RII_10.mp4	0.0	108.84815788269043	
15	40.34123086929321	fix_post	2		12.0	13.0	2.5	/experiments/knapen_aot/oldvideos/R_S_yt-3DM_SqT4RII_10.mp4	0.0	108.96474695205688	0.10005402565002441
15	40.424582958221436	response	2	4		13.0	2.5	/experiments/knapen_aot/oldvideos/R_S_yt-3DM_SqT4RII_10.mp4	0.0	109.04809904098511	
16	40.44128489494324	fix_pre	0		22.0	14.0	2.5	/experiments/knapen_aot/oldvideos/S_pexels-mikhail-nilov-8410063_1.mp4	0.0	109.06480097770691	0.18321490287780762
16	40.61625599861145	response	0	4		14.0	2.5	/experiments/knapen_aot/oldvideos/S_pexels-mikhail-nilov-8410063_1.mp4	0.0	109.23977208137512	
16	40.624499797821045	movie	1		164.0	14.0	2.5	/experiments/knapen_aot/oldvideos/S_pexels-mikhail-nilov-8410063_1.mp4	0.0	109.24801588058472	2.5083110332489014
16	43.132810831069946	fix_post	2		12.0	14.0	2.5	/experiments/knapen_aot/oldvideos/S_pexels-mikhail-nilov-8410063_1.mp4	0.0	111.75632691383362	0.10001897811889648
16	43.1912739276886	response	2	2		14.0	2.5	/experiments/knapen_aot/oldvideos/S_pexels-mikhail-nilov-8410063_1.mp4	0.0	111.81479001045227	
17	43.23282980918884	fix_pre	0		48.0	15.0	2.5	/experiments/knapen_aot/oldvideos/S_yt-26obL-Z5obg_131.mp4	0.0	111.85634589195251	0.3999640941619873
17	43.624560832977295	response	0	2		15.0	2.5	/experiments/knapen_aot/oldvideos/S_yt-26obL-Z5obg_131.mp4	0.0	112.24807691574097	
17	43.63279390335083	movie	1		300.0	15.0	2.5	/experiments/knapen_aot/oldvideos/S_yt-26obL-Z5obg_131.mp4	0.0	112.2563099861145	2.508402109146118
17	46.14119601249695	fix_post	2		12.0	15.0	2.5	/experiments/knapen_aot/oldvideos/S_yt-26obL-Z5obg_131.mp4	0.0	114.76471209526062	0.10002589225769043
18	46.24122190475464	fix_pre	0		23.0	16.0	2.5	/experiments/knapen_aot/oldvideos/R_S_ILSVRC2015_train_00565000.mp4	0.0	114.86473798751831	0.19186711311340332
18	46.42455792427063	response	0	2		16.0	2.5	/experiments/knapen_aot/oldvideos/R_S_ILSVRC2015_train_00565000.mp4	0.0	115.0480740070343	
18	46.43308901786804	movie	1		300.0	16.0	2.5	/experiments/knapen_aot/oldvideos/R_S_ILSVRC2015_train_00565000.mp4	0.0	115.05660510063171	2.5081698894500732
18	48.941258907318115	fix_post	2		12.0	16.0	2.5	/experiments/knapen_aot/oldvideos/R_S_ILSVRC2015_train_00565000.mp4	0.0	117.56477499008179	0.09994792938232422
19	49.04120683670044	fix_pre	0		5.0	17.0	2.5	/experiments/knapen_aot/oldvideos/S_ILSVRC2015_train_00457000.mp4	0.0	117.66472291946411	0.041589975357055664
19	49.074636936187744	response	0	2		17.0	2.5	/experiments/knapen_aot/oldvideos/S_ILSVRC2015_train_00457000.mp4	0.0	117.69815301895142	
19	49.082796812057495	movie	1		301.0	17.0	2.5	/experiments/knapen_aot/oldvideos/S_ILSVRC2015_train_00457000.mp4	0.0	117.70631289482117	2.508275032043457
19	51.59107184410095	fix_post	2		12.0	17.0	2.5	/experiments/knapen_aot/oldvideos/S_ILSVRC2015_train_00457000.mp4	0.0	120.21458792686462	0.10006117820739746
20	51.69113302230835	fix_pre	0		4.0	18.0	2.5	/experiments/knapen_aot/oldvideos/R_S_yt-n_eO-7KedAE_21.mp4	0.0	120.31464910507202	0.03386497497558594
20	51.71627998352051	response	0	2		18.0	2.5	/experiments/knapen_aot/oldvideos/R_S_yt-n_eO-7KedAE_21.mp4	0.0	120.33979606628418	
20	51.724997997283936	movie	1		301.0	18.0	2.5	/experiments/knapen_aot/oldvideos/R_S_yt-n_eO-7KedAE_21.mp4	0.0	120.34851408004761	2.5077109336853027
20	54.23270893096924	fix_post	2		12.0	18.0	2.5	/experiments/knapen_aot/oldvideos/R_S_yt-n_eO-7KedAE_21.mp4	0.0	122.85622501373291	0.10004997253417969
21	54.33275890350342	fix_pre	0		6.0	19.0	2.5	blank	1.0	122.95627498626709	0.0500340461730957
21	54.374521017074585	response	0	2		19.0	2.5	blank	1.0	122.99803709983826	
21	54.382792949676514	movie	1		301.0	19.0	2.5	blank	1.0	123.00630903244019	2.508233070373535
21	56.89102602005005	fix_post	2		12.0	19.0	2.5	blank	1.0	125.51454210281372	0.10007286071777344
22	56.99109888076782	fix_pre	0		7.0	20.0	2.5	/experiments/knapen_aot/oldvideos/R_S_yt-9yxWUrtQJnw_11.mp4	0.0	125.6146149635315	0.05832695960998535
22	57.04116487503052	response	0	2		20.0	2.5	/experiments/knapen_aot/oldvideos/R_S_yt-9yxWUrtQJnw_11.mp4	0.0	125.66468095779419	
22	57.04942584037781	movie	1		301.0	20.0	2.5	/experiments/knapen_aot/oldvideos/R_S_yt-9yxWUrtQJnw_11.mp4	0.0	125.67294192314148	2.508342981338501
22	59.55776882171631	fix_post	2		12.0	20.0	2.5	/experiments/knapen_aot/oldvideos/R_S_yt-9yxWUrtQJnw_11.mp4	0.0	128.18128490447998	0.09990215301513672
23	59.657670974731445	fix_pre	0		21.0	21.0	2.5	/experiments/knapen_aot/oldvideos/S_yt-MWX0EtpWIs8_286.mp4	0.0	128.28118705749512	0.17505383491516113
23	59.82444882392883	response	0	2		21.0	2.5	/experiments/knapen_aot/oldvideos/S_yt-MWX0EtpWIs8_286.mp4	0.0	128.4479649066925	
23	59.832724809646606	movie	1		301.0	21.0	2.5	/experiments/knapen_aot/oldvideos/S_yt-MWX0EtpWIs8_286.mp4	0.0	128.45624089241028	2.508406162261963
23	62.34113097190857	fix_post	2		12.0	21.0	2.5	/experiments/knapen_aot/oldvideos/S_yt-MWX0EtpWIs8_286.mp4	0.0	130.96464705467224	0.10006189346313477
24	62.441192865371704	fix_pre	0		9.0	22.0	2.5	/experiments/knapen_aot/oldvideos/S_yt-e9AZJKNv9ow_359.mp4	0.0	131.06470894813538	0.07509994506835938
24	62.507807970047	response	0	2		22.0	2.5	/experiments/knapen_aot/oldvideos/S_yt-e9AZJKNv9ow_359.mp4	0.0	131.13132405281067	
24	62.51629281044006	movie	1		300.0	22.0	2.5	/experiments/knapen_aot/oldvideos/S_yt-e9AZJKNv9ow_359.mp4	0.0	131.13980889320374	2.5080971717834473
24	65.02438998222351	fix_post	2		12.0	22.0	2.5	/experiments/knapen_aot/oldvideos/S_yt-e9AZJKNv9ow_359.mp4	0.0	133.64790606498718	0.09999990463256836
25	65.12438988685608	fix_pre	0		16.0	23.0	2.5	/experiments/knapen_aot/oldvideos/R_S_flickr-hapanine-31880782705_22.mp4	0.0	133.74790596961975	0.13328790664672852
25	65.24942088127136	response	0	2		23.0	2.5	/experiments/knapen_aot/oldvideos/R_S_flickr-hapanine-31880782705_22.mp4	0.0	133.87293696403503	
25	65.25767779350281	movie	1		166.0	23.0	2.5	/experiments/knapen_aot/oldvideos/R_S_flickr-hapanine-31880782705_22.mp4	0.0	133.88119387626648	2.508416175842285
25	67.76609396934509	fix_post	2		12.0	23.0	2.5	/experiments/knapen_aot/oldvideos/R_S_flickr-hapanine-31880782705_22.mp4	0.0	136.38961005210876	0.10014200210571289
26	67.8662359714508	fix_pre	0		4.0	24.0	2.5	/experiments/knapen_aot/oldvideos/R_S_8J_zE6r82MY_71.mp4	0.0	136.48975205421448	0.03316903114318848
26	67.89119982719421	response	0	2		24.0	2.5	/experiments/knapen_aot/oldvideos/R_S_8J_zE6r82MY_71.mp4	0.0	136.51471590995789	
26	67.899405002594	movie	1		301.0	24.0	2.5	/experiments/knapen_aot/oldvideos/R_S_8J_zE6r82MY_71.mp4	0.0	136.52292108535767	2.5083370208740234
26	70.40774202346802	fix_post	2		12.0	24.0	2.5	/experiments/knapen_aot/oldvideos/R_S_8J_zE6r82MY_71.mp4	0.0	139.0312581062317	0.09996986389160156
27	70.50771188735962	fix_pre	0		3.0	25.0	2.5	/experiments/knapen_aot/oldvideos/S_yt-7lULOC_rSE0_747.mp4	0.0	139.1312279701233	0.024977922439575195
27	70.52450585365295	response	0	2		25.0	2.5	/experiments/knapen_aot/oldvideos/S_yt-7lULOC_rSE0_747.mp4	0.0	139.14802193641663	
27	70.5326898097992	movie	1		301.0	25.0	2.5	/experiments/knapen_aot/oldvideos/S_yt-7lULOC_rSE0_747.mp4	0.0	139.15620589256287	2.5082921981811523
27	73.04098200798035	fix_post	2		12.0	25.0	2.5	/experiments/knapen_aot/oldvideos/S_yt-7lULOC_rSE0_747.mp4	0.0	141.66449809074402	0.10034584999084473
28	73.14132785797119	fix_pre	0		29.0	26.0	2.5	/experiments/knapen_aot/oldvideos/R_S_82eJpVKGnC0_188.mp4	0.0	141.76484394073486	0.24131107330322266
28	73.37447190284729	response	0	2		26.0	2.5	/experiments/knapen_aot/oldvideos/R_S_82eJpVKGnC0_188.mp4	0.0	141.99798798561096	
28	73.38263893127441	movie	1		301.0	26.0	2.5	/experiments/knapen_aot/oldvideos/R_S_82eJpVKGnC0_188.mp4	0.0	142.0061550140381	2.5086028575897217
28	75.89124178886414	fix_post	2		12.0	26.0	2.5	/experiments/knapen_aot/oldvideos/R_S_82eJpVKGnC0_188.mp4	0.0	144.5147578716278	0.09973311424255371
29	75.99097490310669	fix_pre	0		4.0	27.0	2.5	blank	1.0	144.61449098587036	0.0334169864654541
29	76.01684188842773	response	0	2		27.0	2.5	blank	1.0	144.6403579711914	
29	76.02439188957214	movie	1		301.0	27.0	2.5	blank	1.0	144.64790797233582	2.5084190368652344
29	78.53281092643738	fix_post	2		12.0	27.0	2.5	blank	1.0	147.15632700920105	0.1001129150390625
30	78.63292384147644	fix_pre	0		17.0	28.0	2.5	/experiments/knapen_aot/oldvideos/S_yt-8vm83GUgYxI_1.mp4	0.0	147.2564399242401	0.14136910438537598
30	78.76608490943909	response	0	2		28.0	2.5	/experiments/knapen_aot/oldvideos/S_yt-8vm83GUgYxI_1.mp4	0.0	147.38960099220276	
30	78.77429294586182	movie	1		301.0	28.0	2.5	/experiments/knapen_aot/oldvideos/S_yt-8vm83GUgYxI_1.mp4	0.0	147.3978090286255	2.508436918258667
30	81.28272986412048	fix_post	2		12.0	28.0	2.5	/experiments/knapen_aot/oldvideos/S_yt-8vm83GUgYxI_1.mp4	0.0	149.90624594688416	0.09992098808288574
31	81.38265085220337	fix_pre	0		14.0	29.0	2.5	/experiments/knapen_aot/oldvideos/S_ILSVRC2015_train_00652001.mp4	0.0	150.00616693496704	0.11661911010742188
31	81.49099779129028	response	0	2		29.0	2.5	/experiments/knapen_aot/oldvideos/S_ILSVRC2015_train_00652001.mp4	0.0	150.11451387405396	
31	81.49926996231079	movie	1		301.0	29.0	2.5	/experiments/knapen_aot/oldvideos/S_ILSVRC2015_train_00652001.mp4	0.0	150.12278604507446	2.5085010528564453
31	84.00777101516724	fix_post	2		12.0	29.0	2.5	/experiments/knapen_aot/oldvideos/S_ILSVRC2015_train_00652001.mp4	0.0	152.6312870979309	0.09985685348510742
32	84.10762786865234	fix_pre	0		9.0	30.0	2.5	/experiments/knapen_aot/oldvideos/S_yt-fA0nOetbOJY_580.mp4	0.0	152.73114395141602	0.07513594627380371
32	84.16679883003235	response	0	2		30.0	2.5	/experiments/knapen_aot/oldvideos/S_yt-fA0nOetbOJY_580.mp4	0.0	152.79031491279602	
32	84.18276381492615	movie	1		301.0	30.0	2.5	/experiments/knapen_aot/oldvideos/S_yt-fA0nOetbOJY_580.mp4	0.0	152.80627989768982	2.5082590579986572
32	86.59943795204163	response	1	2		30.0	2.5	/experiments/knapen_aot/oldvideos/S_yt-fA0nOetbOJY_580.mp4	0.0	155.2229540348053	
32	86.6910228729248	fix_post	2		12.0	30.0	2.5	/experiments/knapen_aot/oldvideos/S_yt-fA0nOetbOJY_580.mp4	0.0	155.31453895568848	0.0999751091003418
33	86.79099798202515	fix_pre	0		9.0	31.0	2.5	/experiments/knapen_aot/oldvideos/R_S_yt-e9AZJKNv9ow_359.mp4	0.0	155.41451406478882	0.07494688034057617
33	86.85775399208069	response	0	2		31.0	2.5	/experiments/knapen_aot/oldvideos/R_S_yt-e9AZJKNv9ow_359.mp4	0.0	155.48127007484436	
33	86.86594486236572	movie	1		301.0	31.0	2.5	/experiments/knapen_aot/oldvideos/R_S_yt-e9AZJKNv9ow_359.mp4	0.0	155.4894609451294	2.5083420276641846
33	89.37428689002991	fix_post	2		12.0	31.0	2.5	/experiments/knapen_aot/oldvideos/R_S_yt-e9AZJKNv9ow_359.mp4	0.0	157.99780297279358	0.10021591186523438
34	89.47450280189514	fix_pre	0		6.0	32.0	2.5	/experiments/knapen_aot/oldvideos/R_S_yt-_BvMLZo0MG0_1226.mp4	0.0	158.0980188846588	0.04979109764099121
34	89.51607084274292	response	0	2		32.0	2.5	/experiments/knapen_aot/oldvideos/R_S_yt-_BvMLZo0MG0_1226.mp4	0.0	158.1395869255066	
34	89.52429389953613	movie	1		301.0	32.0	2.5	/experiments/knapen_aot/oldvideos/R_S_yt-_BvMLZo0MG0_1226.mp4	0.0	158.1478099822998	2.5083210468292236
34	92.03261494636536	fix_post	2		12.0	32.0	2.5	/experiments/knapen_aot/oldvideos/R_S_yt-_BvMLZo0MG0_1226.mp4	0.0	160.65613102912903	0.1001119613647461
35	92.1327269077301	fix_pre	0		14.0	33.0	2.5	blank	1.0	160.75624299049377	0.11658501625061035
35	92.24104595184326	response	0	2		33.0	2.5	blank	1.0	160.86456203460693	
35	92.24931192398071	movie	1		301.0	33.0	2.5	blank	1.0	160.87282800674438	2.50832200050354
35	94.75763392448425	fix_post	2		12.0	33.0	2.5	blank	1.0	163.38115000724792	0.10000395774841309
36	94.85763788223267	fix_pre	0		17.0	34.0	2.5	/experiments/knapen_aot/oldvideos/S_yt-z16pdVTZK1o_3.mp4	0.0	163.48115396499634	0.1416029930114746
36	94.99103379249573	response	0	2		34.0	2.5	/experiments/knapen_aot/oldvideos/S_yt-z16pdVTZK1o_3.mp4	0.0	163.6145498752594	
36	94.99924087524414	movie	1		301.0	34.0	2.5	/experiments/knapen_aot/oldvideos/S_yt-z16pdVTZK1o_3.mp4	0.0	163.6227569580078	2.508423089981079
36	97.50766396522522	fix_post	2		12.0	34.0	2.5	/experiments/knapen_aot/oldvideos/S_yt-z16pdVTZK1o_3.mp4	0.0	166.1311800479889	0.09996604919433594
37	97.60763001441956	fix_pre	0		20.0	35.0	2.5	/experiments/knapen_aot/oldvideos/S_comp_N008_C003_PS_v01_SDR_PS_20180925_SDR_2K_AVC.mp4	0.0	166.23114609718323	0.1666409969329834
37	97.76609802246094	response	0	2		35.0	2.5	/experiments/knapen_aot/oldvideos/S_comp_N008_C003_PS_v01_SDR_PS_20180925_SDR_2K_AVC.mp4	0.0	166.3896141052246	
37	97.77427101135254	movie	1		163.0	35.0	2.5	/experiments/knapen_aot/oldvideos/S_comp_N008_C003_PS_v01_SDR_PS_20180925_SDR_2K_AVC.mp4	0.0	166.3977870941162	2.508302927017212
37	100.28257393836975	fix_post	2		12.0	35.0	2.5	/experiments/knapen_aot/oldvideos/S_comp_N008_C003_PS_v01_SDR_PS_20180925_SDR_2K_AVC.mp4	0.0	168.90609002113342	0.0999898910522461
38	100.382563829422	fix_pre	0		15.0	36.0	2.5	/experiments/knapen_aot/oldvideos/S_yt-Zn0YwrsCFOQ_44.mp4	0.0	169.00607991218567	0.12498116493225098
38	100.49932193756104	response	0	2		36.0	2.5	/experiments/knapen_aot/oldvideos/S_yt-Zn0YwrsCFOQ_44.mp4	0.0	169.1228380203247	
38	100.50754499435425	movie	1		301.0	36.0	2.5	/experiments/knapen_aot/oldvideos/S_yt-Zn0YwrsCFOQ_44.mp4	0.0	169.13106107711792	2.508457899093628
38	103.01600289344788	fix_post	2		12.0	36.0	2.5	/experiments/knapen_aot/oldvideos/S_yt-Zn0YwrsCFOQ_44.mp4	0.0	171.63951897621155	0.09996294975280762
39	103.11596584320068	fix_pre	0		95.0	37.0	2.5	/experiments/knapen_aot/oldvideos/R_S_yt-Ul81y6R9YbE_12.mp4	0.0	171.73948192596436	0.7915389537811279
39	103.8993239402771	response	0	2		37.0	2.5	/experiments/knapen_aot/oldvideos/R_S_yt-Ul81y6R9YbE_12.mp4	0.0	172.52284002304077	
39	103.90750479698181	movie	1		301.0	37.0	2.5	/experiments/knapen_aot/oldvideos/R_S_yt-Ul81y6R9YbE_12.mp4	0.0	172.53102087974548	2.5083680152893066
39	106.41587281227112	fix_post	2		12.0	37.0	2.5	/experiments/knapen_aot/oldvideos/R_S_yt-Ul81y6R9YbE_12.mp4	0.0	175.0393888950348	0.10011506080627441
40	106.51598787307739	fix_pre	0		28.0	38.0	2.5	/experiments/knapen_aot/oldvideos/R_S_yt-BW6jWEVbxxk_4.mp4	0.0	175.13950395584106	0.23323392868041992
40	106.740966796875	response	0	2		38.0	2.5	/experiments/knapen_aot/oldvideos/R_S_yt-BW6jWEVbxxk_4.mp4	0.0	175.36448287963867	
40	106.74922180175781	movie	1		301.0	38.0	2.5	/experiments/knapen_aot/oldvideos/R_S_yt-BW6jWEVbxxk_4.mp4	0.0	175.37273788452148	2.508347988128662
40	109.25756978988647	fix_post	2		12.0	38.0	2.5	/experiments/knapen_aot/oldvideos/R_S_yt-BW6jWEVbxxk_4.mp4	0.0	177.88108587265015	0.09999203681945801
41	109.35756182670593	fix_pre	0		12.0	39.0	2.5	/experiments/knapen_aot/oldvideos/R_S_pexels-mikhail-nilov-8410063_1.mp4	0.0	177.9810779094696	0.09992098808288574
41	109.44935584068298	response	0	2		39.0	2.5	/experiments/knapen_aot/oldvideos/R_S_pexels-mikhail-nilov-8410063_1.mp4	0.0	178.07287192344666	
41	109.45748281478882	movie	1		166.0	39.0	2.5	/experiments/knapen_aot/oldvideos/R_S_pexels-mikhail-nilov-8410063_1.mp4	0.0	178.0809988975525	2.508484125137329
41	111.96596693992615	fix_post	2		12.0	39.0	2.5	/experiments/knapen_aot/oldvideos/R_S_pexels-mikhail-nilov-8410063_1.mp4	0.0	180.58948302268982	0.09984707832336426
41	112.0492148399353	response	2	2		39.0	2.5	/experiments/knapen_aot/oldvideos/R_S_pexels-mikhail-nilov-8410063_1.mp4	0.0	180.67273092269897	
42	112.06581401824951	fix_pre	0		32.0	40.0	2.5	/experiments/knapen_aot/oldvideos/S_yt-e9AZJKNv9ow_359.mp4	0.0	180.68933010101318	0.2667109966278076
42	112.32422685623169	response	0	2		40.0	2.5	/experiments/knapen_aot/oldvideos/S_yt-e9AZJKNv9ow_359.mp4	0.0	180.94774293899536	
42	112.33252501487732	movie	1		301.0	40.0	2.5	/experiments/knapen_aot/oldvideos/S_yt-e9AZJKNv9ow_359.mp4	0.0	180.956041097641	2.508373975753784
42	114.8408989906311	fix_post	2		12.0	40.0	2.5	/experiments/knapen_aot/oldvideos/S_yt-e9AZJKNv9ow_359.mp4	0.0	183.46441507339478	0.09993195533752441
43	114.94083094596863	fix_pre	0		10.0	41.0	2.5	blank	1.0	183.5643470287323	0.08334803581237793
43	115.01592779159546	response	0	2		41.0	2.5	blank	1.0	183.63944387435913	
43	115.024178981781	movie	1		301.0	41.0	2.5	blank	1.0	183.64769506454468	2.508342981338501
43	117.5325219631195	fix_post	2		12.0	41.0	2.5	blank	1.0	186.15603804588318	0.09998202323913574
44	117.63250398635864	fix_pre	0		14.0	42.0	2.5	/experiments/knapen_aot/oldvideos/R_S_yt-fjOsq03OC2c_188.mp4	0.0	186.25602006912231	0.11660385131835938
44	117.73349380493164	response	0	2		42.0	2.5	/experiments/knapen_aot/oldvideos/R_S_yt-fjOsq03OC2c_188.mp4	0.0	186.3570098876953	
44	117.749107837677	movie	1		301.0	42.0	2.5	/experiments/knapen_aot/oldvideos/R_S_yt-fjOsq03OC2c_188.mp4	0.0	186.37262392044067	2.508363962173462
44	120.25747179985046	fix_post	2		12.0	42.0	2.5	/experiments/knapen_aot/oldvideos/R_S_yt-fjOsq03OC2c_188.mp4	0.0	188.88098788261414	0.10002708435058594
45	120.35749888420105	fix_pre	0		8.0	43.0	2.5	/experiments/knapen_aot/oldvideos/R_S_yt-STL3ejY9u_Q_73.mp4	0.0	188.98101496696472	0.06659698486328125
45	120.41593790054321	response	0	2		43.0	2.5	/experiments/knapen_aot/oldvideos/R_S_yt-STL3ejY9u_Q_73.mp4	0.0	189.03945398330688	
45	120.42409586906433	movie	1		301.0	43.0	2.5	/experiments/knapen_aot/oldvideos/R_S_yt-STL3ejY9u_Q_73.mp4	0.0	189.047611951828	2.508578062057495
45	122.93267393112183	fix_post	2		12.0	43.0	2.5	/experiments/knapen_aot/oldvideos/R_S_yt-STL3ejY9u_Q_73.mp4	0.0	191.5561900138855	0.0998690128326416
46	123.03254294395447	fix_pre	0		7.0	44.0	2.5	/experiments/knapen_aot/oldvideos/S_yt-l6WPyKg_3is_154.mp4	0.0	191.65605902671814	0.0582270622253418
46	123.08252000808716	response	0	2		44.0	2.5	/experiments/knapen_aot/oldvideos/S_yt-l6WPyKg_3is_154.mp4	0.0	191.70603609085083	
46	123.09077000617981	movie	1		301.0	44.0	2.5	/experiments/knapen_aot/oldvideos/S_yt-l6WPyKg_3is_154.mp4	0.0	191.71428608894348	2.5083889961242676
46	125.59915900230408	fix_post	2		12.0	44.0	2.5	/experiments/knapen_aot/oldvideos/S_yt-l6WPyKg_3is_154.mp4	0.0	194.22267508506775	0.10000181198120117
47	125.69916081428528	fix_pre	0		22.0	45.0	2.5	/experiments/knapen_aot/oldvideos/R_S_pexels-c-technical-6754008.mp4	0.0	194.32267689704895	0.18332314491271973
47	125.87433695793152	response	0	2		45.0	2.5	/experiments/knapen_aot/oldvideos/R_S_pexels-c-technical-6754008.mp4	0.0	194.4978530406952	
47	125.882483959198	movie	1		185.0	45.0	2.5	/experiments/knapen_aot/oldvideos/R_S_pexels-c-technical-6754008.mp4	0.0	194.50600004196167	2.5084009170532227
47	128.39088487625122	fix_post	2		12.0	45.0	2.5	/experiments/knapen_aot/oldvideos/R_S_pexels-c-technical-6754008.mp4	0.0	197.0144009590149	0.09984898567199707
47	128.46590280532837	response	2	2		45.0	2.5	/experiments/knapen_aot/oldvideos/R_S_pexels-c-technical-6754008.mp4	0.0	197.08941888809204	
48	128.49073386192322	fix_pre	0		40.0	46.0	2.5	/experiments/knapen_aot/oldvideos/S_yt-IX6uxR5DSKk_2.mp4	0.0	197.1142499446869	0.33336496353149414
48	128.81588792800903	response	0	2		46.0	2.5	/experiments/knapen_aot/oldvideos/S_yt-IX6uxR5DSKk_2.mp4	0.0	197.4394040107727	
48	128.8240988254547	movie	1		301.0	46.0	2.5	/experiments/knapen_aot/oldvideos/S_yt-IX6uxR5DSKk_2.mp4	0.0	197.44761490821838	2.5084071159362793
48	131.332505941391	fix_post	2		12.0	46.0	2.5	/experiments/knapen_aot/oldvideos/S_yt-IX6uxR5DSKk_2.mp4	0.0	199.95602202415466	0.1000070571899414
49	131.43251299858093	fix_pre	0		4.0	47.0	2.5	/experiments/knapen_aot/oldvideos/S_yt-z16pdVTZK1o_3.mp4	0.0	200.0560290813446	0.03454399108886719
49	131.4575719833374	response	0	2		47.0	2.5	/experiments/knapen_aot/oldvideos/S_yt-z16pdVTZK1o_3.mp4	0.0	200.08108806610107	
49	131.4670569896698	movie	1		301.0	47.0	2.5	/experiments/knapen_aot/oldvideos/S_yt-z16pdVTZK1o_3.mp4	0.0	200.09057307243347	2.5071048736572266
49	133.97416186332703	fix_post	2		12.0	47.0	2.5	/experiments/knapen_aot/oldvideos/S_yt-z16pdVTZK1o_3.mp4	0.0	202.5976779460907	0.10019207000732422
49	134.04091095924377	response	2	2		47.0	2.5	/experiments/knapen_aot/oldvideos/S_yt-z16pdVTZK1o_3.mp4	0.0	202.66442704200745	
50	134.07435393333435	fix_pre	0		36.0	48.0	2.5	blank	1.0	202.69787001609802	0.29979801177978516
50	134.36598181724548	response	0	2		48.0	2.5	blank	1.0	202.98949790000916	
50	134.37415194511414	movie	1		301.0	48.0	2.5	blank	1.0	202.9976680278778	2.508283853530884
50	136.88243579864502	fix_post	2		12.0	48.0	2.5	blank	1.0	205.5059518814087	0.10004520416259766
51	136.98248100280762	fix_pre	0		18.0	49.0	2.5	/experiments/knapen_aot/oldvideos/S_comp_HK_H004_C008_PSNK_v19_SDR_PS_20180914_SDR_2K_AVC.mp4	0.0	205.6059970855713	0.15125083923339844
51	137.12419486045837	response	0	2		49.0	2.5	/experiments/knapen_aot/oldvideos/S_comp_HK_H004_C008_PSNK_v19_SDR_PS_20180914_SDR_2K_AVC.mp4	0.0	205.74771094322205	
51	137.13373184204102	movie	1		167.0	49.0	2.5	/experiments/knapen_aot/oldvideos/S_comp_HK_H004_C008_PSNK_v19_SDR_PS_20180914_SDR_2K_AVC.mp4	0.0	205.7572479248047	2.507112979888916
51	139.64084482192993	fix_post	2		12.0	49.0	2.5	/experiments/knapen_aot/oldvideos/S_comp_HK_H004_C008_PSNK_v19_SDR_PS_20180914_SDR_2K_AVC.mp4	0.0	208.2643609046936	0.09995818138122559
52	139.74080300331116	fix_pre	0		9.0	50.0	2.5	/experiments/knapen_aot/oldvideos/R_S_yt-w_e3sxIzepA_27.mp4	0.0	208.36431908607483	0.07497382164001465
52	139.80752897262573	response	0	2		50.0	2.5	/experiments/knapen_aot/oldvideos/R_S_yt-w_e3sxIzepA_27.mp4	0.0	208.4310450553894	
52	139.81577682495117	movie	1		301.0	50.0	2.5	/experiments/knapen_aot/oldvideos/R_S_yt-w_e3sxIzepA_27.mp4	0.0	208.43929290771484	2.5084071159362793
52	142.32418394088745	fix_post	2		12.0	50.0	2.5	/experiments/knapen_aot/oldvideos/R_S_yt-w_e3sxIzepA_27.mp4	0.0	210.94770002365112	0.10117387771606445
53	142.42535781860352	fix_pre	0		7.0	51.0	2.5	/experiments/knapen_aot/oldvideos/S_yt-MXLxcvKZDHw_22.mp4	0.0	211.0488739013672	0.05705618858337402
53	142.47421193122864	response	0	2		51.0	2.5	/experiments/knapen_aot/oldvideos/S_yt-MXLxcvKZDHw_22.mp4	0.0	211.0977280139923	
53	142.4824140071869	movie	1		301.0	51.0	2.5	/experiments/knapen_aot/oldvideos/S_yt-MXLxcvKZDHw_22.mp4	0.0	211.10593008995056	2.5083558559417725
53	144.99076986312866	fix_post	2		12.0	51.0	2.5	/experiments/knapen_aot/oldvideos/S_yt-MXLxcvKZDHw_22.mp4	0.0	213.61428594589233	0.09994792938232422
54	145.090717792511	fix_pre	0		8.0	52.0	2.5	/experiments/knapen_aot/oldvideos/S_yt-Xs-YKSogfak_24.mp4	0.0	213.71423387527466	0.06678104400634766
54	145.14916682243347	response	0	2		52.0	2.5	/experiments/knapen_aot/oldvideos/S_yt-Xs-YKSogfak_24.mp4	0.0	213.77268290519714	
54	145.15749883651733	movie	1		301.0	52.0	2.5	/experiments/knapen_aot/oldvideos/S_yt-Xs-YKSogfak_24.mp4	0.0	213.781014919281	2.5082740783691406
54	147.66577291488647	fix_post	2		12.0	52.0	2.5	/experiments/knapen_aot/oldvideos/S_yt-Xs-YKSogfak_24.mp4	0.0	216.28928899765015	0.1000359058380127
54	147.70765686035156	response	2	2		52.0	2.5	/experiments/knapen_aot/oldvideos/S_yt-Xs-YKSogfak_24.mp4	0.0	216.33117294311523	
55	147.7658088207245	fix_pre	0		28.0	53.0	2.5	/experiments/knapen_aot/oldvideos/S_82eJpVKGnC0_188.mp4	0.0	216.38932490348816	0.2332592010498047
55	147.9832727909088	response	0	2		53.0	2.5	/experiments/knapen_aot/oldvideos/S_82eJpVKGnC0_188.mp4	0.0	216.60678887367249	
55	147.9990680217743	movie	1		301.0	53.0	2.5	/experiments/knapen_aot/oldvideos/S_82eJpVKGnC0_188.mp4	0.0	216.62258410453796	2.5083329677581787
55	150.50740098953247	fix_post	2		12.0	53.0	2.5	/experiments/knapen_aot/oldvideos/S_82eJpVKGnC0_188.mp4	0.0	219.13091707229614	0.09995698928833008
56	150.6073579788208	fix_pre	0		1.0	54.0	2.5	/experiments/knapen_aot/oldvideos/R_S_yt-R-SETZtYWaA_336.mp4	0.0	219.23087406158447	0.008358955383300781
56	150.60044384002686	response	0	2		54.0	2.5	/experiments/knapen_aot/oldvideos/R_S_yt-R-SETZtYWaA_336.mp4	0.0	219.22395992279053	
56	150.6157169342041	movie	1		301.0	54.0	2.5	/experiments/knapen_aot/oldvideos/R_S_yt-R-SETZtYWaA_336.mp4	0.0	219.23923301696777	2.508349895477295
56	153.1240668296814	fix_post	2		12.0	54.0	2.5	/experiments/knapen_aot/oldvideos/R_S_yt-R-SETZtYWaA_336.mp4	0.0	221.74758291244507	0.09999918937683105
57	153.22406601905823	fix_pre	0		28.0	55.0	2.5	blank	1.0	221.8475821018219	0.23332595825195312
57	153.44916081428528	response	0	2		55.0	2.5	blank	1.0	222.07267689704895	
57	153.45739197731018	movie	1		301.0	55.0	2.5	blank	1.0	222.08090806007385	2.508314847946167
57	155.96570682525635	fix_post	2		12.0	55.0	2.5	blank	1.0	224.58922290802002	0.10000205039978027
58	156.06570887565613	fix_pre	0		36.0	56.0	2.5	/experiments/knapen_aot/oldvideos/S_yt-w_e3sxIzepA_27.mp4	0.0	224.6892249584198	0.29996395111083984
58	156.35743594169617	response	0	2		56.0	2.5	/experiments/knapen_aot/oldvideos/S_yt-w_e3sxIzepA_27.mp4	0.0	224.98095202445984	
58	156.36567282676697	movie	1		301.0	56.0	2.5	/experiments/knapen_aot/oldvideos/S_yt-w_e3sxIzepA_27.mp4	0.0	224.98918890953064	2.5083940029144287
58	158.8740668296814	fix_post	2		12.0	56.0	2.5	/experiments/knapen_aot/oldvideos/S_yt-w_e3sxIzepA_27.mp4	0.0	227.49758291244507	0.09999918937683105
59	158.97406601905823	fix_pre	0		26.0	57.0	2.5	/experiments/knapen_aot/oldvideos/S_Y005_C003_SDR_2K_AVC.mp4	0.0	227.5975821018219	0.21660089492797852
59	159.17495584487915	response	0	2		57.0	2.5	/experiments/knapen_aot/oldvideos/S_Y005_C003_SDR_2K_AVC.mp4	0.0	227.79847192764282	
59	159.1906669139862	movie	1		163.0	57.0	2.5	/experiments/knapen_aot/oldvideos/S_Y005_C003_SDR_2K_AVC.mp4	0.0	227.81418299674988	2.508333921432495
59	161.6990008354187	fix_post	2		12.0	57.0	2.5	/experiments/knapen_aot/oldvideos/S_Y005_C003_SDR_2K_AVC.mp4	0.0	230.32251691818237	0.10001611709594727
60	161.79901695251465	fix_pre	0		20.0	58.0	2.5	/experiments/knapen_aot/oldvideos/S_ILSVRC2015_train_00762000.mp4	0.0	230.42253303527832	0.16785693168640137
60	161.95745587348938	response	0	2		58.0	2.5	/experiments/knapen_aot/oldvideos/S_ILSVRC2015_train_00762000.mp4	0.0	230.58097195625305	
60	161.96687388420105	movie	1		301.0	58.0	2.5	/experiments/knapen_aot/oldvideos/S_ILSVRC2015_train_00762000.mp4	0.0	230.59038996696472	2.5071659088134766
60	164.47403979301453	fix_post	2		12.0	58.0	2.5	/experiments/knapen_aot/oldvideos/S_ILSVRC2015_train_00762000.mp4	0.0	233.0975558757782	0.09992718696594238
61	164.57396697998047	fix_pre	0		22.0	59.0	2.5	/experiments/knapen_aot/oldvideos/R_S_ILSVRC2015_train_00574000.mp4	0.0	233.19748306274414	0.18451499938964844
61	164.74914002418518	response	0	2		59.0	2.5	/experiments/knapen_aot/oldvideos/R_S_ILSVRC2015_train_00574000.mp4	0.0	233.37265610694885	
61	164.75848197937012	movie	1		301.0	59.0	2.5	/experiments/knapen_aot/oldvideos/R_S_ILSVRC2015_train_00574000.mp4	0.0	233.3819980621338	2.5072360038757324
61	167.26571798324585	fix_post	2		12.0	59.0	2.5	/experiments/knapen_aot/oldvideos/R_S_ILSVRC2015_train_00574000.mp4	0.0	235.88923406600952	0.09991097450256348
62	167.3656289577484	fix_pre	0		19.0	60.0	2.5	/experiments/knapen_aot/oldvideos/R_S_yt-lazG9z4VQAw_99.mp4	0.0	235.98914504051208	0.15831398963928223
62	167.50819492340088	response	0	2		60.0	2.5	/experiments/knapen_aot/oldvideos/R_S_yt-lazG9z4VQAw_99.mp4	0.0	236.13171100616455	
62	167.5239429473877	movie	1		301.0	60.0	2.5	/experiments/knapen_aot/oldvideos/R_S_yt-lazG9z4VQAw_99.mp4	0.0	236.14745903015137	2.5083539485931396
62	170.03229689598083	fix_post	2		12.0	60.0	2.5	/experiments/knapen_aot/oldvideos/R_S_yt-lazG9z4VQAw_99.mp4	0.0	238.6558129787445	0.1000220775604248
63	170.13231897354126	fix_pre	0		7.0	61.0	2.5	blank	1.0	238.75583505630493	0.058444976806640625
63	170.17503595352173	response	0	2		61.0	2.5	blank	1.0	238.7985520362854	
63	170.1907639503479	movie	1		301.0	61.0	2.5	blank	1.0	238.81428003311157	2.508225917816162
63	172.69898986816406	fix_post	2		12.0	61.0	2.5	blank	1.0	241.32250595092773	0.10003995895385742
64	172.79902982711792	fix_pre	0		12.0	62.0	2.5	/experiments/knapen_aot/oldvideos/R_S_yt-ak01CHYgEOs_1383.mp4	0.0	241.4225459098816	0.09994816780090332
64	172.89068484306335	response	0	2		62.0	2.5	/experiments/knapen_aot/oldvideos/R_S_yt-ak01CHYgEOs_1383.mp4	0.0	241.51420092582703	
64	172.89897799491882	movie	1		301.0	62.0	2.5	/experiments/knapen_aot/oldvideos/R_S_yt-ak01CHYgEOs_1383.mp4	0.0	241.5224940776825	2.508314847946167
64	175.24080801010132	response	1	2		62.0	2.5	/experiments/knapen_aot/oldvideos/R_S_yt-ak01CHYgEOs_1383.mp4	0.0	243.864324092865	
64	175.407292842865	fix_post	2		12.0	62.0	2.5	/experiments/knapen_aot/oldvideos/R_S_yt-ak01CHYgEOs_1383.mp4	0.0	244.03080892562866	0.10003995895385742
65	175.50733280181885	fix_pre	0		21.0	63.0	2.5	/experiments/knapen_aot/oldvideos/R_S_ILSVRC2015_train_00251004.mp4	0.0	244.13084888458252	0.17496204376220703
65	175.67405581474304	response	0	2		63.0	2.5	/experiments/knapen_aot/oldvideos/R_S_ILSVRC2015_train_00251004.mp4	0.0	244.2975718975067	
65	175.68229484558105	movie	1		301.0	63.0	2.5	/experiments/knapen_aot/oldvideos/R_S_ILSVRC2015_train_00251004.mp4	0.0	244.30581092834473	2.508284091949463
65	177.19897484779358	response	1	2		63.0	2.5	/experiments/knapen_aot/oldvideos/R_S_ILSVRC2015_train_00251004.mp4	0.0	245.82249093055725	
65	178.19057893753052	fix_post	2		12.0	63.0	2.5	/experiments/knapen_aot/oldvideos/R_S_ILSVRC2015_train_00251004.mp4	0.0	246.8140950202942	0.10006093978881836
66	178.29063987731934	fix_pre	0		29.0	64.0	2.5	/experiments/knapen_aot/oldvideos/S_yt-aSEKRE_FNaI_62.mp4	0.0	246.914155960083	0.24165797233581543
66	178.52389979362488	response	0	2		64.0	2.5	/experiments/knapen_aot/oldvideos/S_yt-aSEKRE_FNaI_62.mp4	0.0	247.14741587638855	
66	178.53229784965515	movie	1		301.0	64.0	2.5	/experiments/knapen_aot/oldvideos/S_yt-aSEKRE_FNaI_62.mp4	0.0	247.15581393241882	2.508324146270752
66	180.45986485481262	response	1	2		64.0	2.5	/experiments/knapen_aot/oldvideos/S_yt-aSEKRE_FNaI_62.mp4	0.0	249.0833809375763	
66	181.0406219959259	fix_post	2		12.0	64.0	2.5	/experiments/knapen_aot/oldvideos/S_yt-aSEKRE_FNaI_62.mp4	0.0	249.66413807868958	0.0999758243560791
67	181.14059782028198	fix_pre	0		571.0	65.0	2.5	/experiments/knapen_aot/oldvideos/S_yt-R-SETZtYWaA_336.mp4	0.0	249.76411390304565	4.7582690715789795
67	185.8906328678131	response	0	2		65.0	2.5	/experiments/knapen_aot/oldvideos/S_yt-R-SETZtYWaA_336.mp4	0.0	254.51414895057678	
67	185.89886689186096	movie	1		301.0	65.0	2.5	/experiments/knapen_aot/oldvideos/S_yt-R-SETZtYWaA_336.mp4	0.0	254.52238297462463	2.5083889961242676
67	186.72424697875977	response	1	2		65.0	2.5	/experiments/knapen_aot/oldvideos/S_yt-R-SETZtYWaA_336.mp4	0.0	255.34776306152344	
67	188.40725588798523	fix_post	2		12.0	65.0	2.5	/experiments/knapen_aot/oldvideos/S_yt-R-SETZtYWaA_336.mp4	0.0	257.0307719707489	0.0999901294708252
68	188.50724601745605	fix_pre	0		30.0	66.0	2.5	/experiments/knapen_aot/oldvideos/R_S_yt-UojTppgtyCE_121.mp4	0.0	257.1307621002197	0.25099992752075195
68	188.74156880378723	response	0	2		66.0	2.5	/experiments/knapen_aot/oldvideos/R_S_yt-UojTppgtyCE_121.mp4	0.0	257.3650848865509	
68	188.7582459449768	movie	1		301.0	66.0	2.5	/experiments/knapen_aot/oldvideos/R_S_yt-UojTppgtyCE_121.mp4	0.0	257.3817620277405	2.507327079772949
68	191.26557302474976	fix_post	2		12.0	66.0	2.5	/experiments/knapen_aot/oldvideos/R_S_yt-UojTppgtyCE_121.mp4	0.0	259.8890891075134	0.09998297691345215
69	191.3655560016632	fix_pre	0		16.0	67.0	2.5	/experiments/knapen_aot/oldvideos/R_S_yt-w_e3sxIzepA_27.mp4	0.0	259.9890720844269	0.13330578804016113
69	191.48314595222473	response	0	2		67.0	2.5	/experiments/knapen_aot/oldvideos/R_S_yt-w_e3sxIzepA_27.mp4	0.0	260.1066620349884	
69	191.49886178970337	movie	1		301.0	67.0	2.5	/experiments/knapen_aot/oldvideos/R_S_yt-w_e3sxIzepA_27.mp4	0.0	260.12237787246704	2.508371114730835
69	194.0072329044342	fix_post	2		12.0	67.0	2.5	/experiments/knapen_aot/oldvideos/R_S_yt-w_e3sxIzepA_27.mp4	0.0	262.6307489871979	0.10009503364562988
69	194.0823199748993	response	2	2		67.0	2.5	/experiments/knapen_aot/oldvideos/R_S_yt-w_e3sxIzepA_27.mp4	0.0	262.70583605766296	
70	194.10732793807983	fix_pre	0		61.0	68.0	2.5	blank	1.0	262.7308440208435	0.5082108974456787
70	194.60731101036072	response	0	2		68.0	2.5	blank	1.0	263.2308270931244	
70	194.6155388355255	movie	1		301.0	68.0	2.5	blank	1.0	263.2390549182892	2.5083119869232178
70	196.19885802268982	response	1	2		68.0	2.5	blank	1.0	264.8223741054535	
70	196.5489149093628	response	1	2		68.0	2.5	blank	1.0	265.17243099212646	
70	196.87393379211426	response	1	2		68.0	2.5	blank	1.0	265.49744987487793	
70	197.12385082244873	fix_post	2		12.0	68.0	2.5	blank	1.0	265.7473669052124	0.100006103515625
71	197.22385692596436	fix_pre	0		367.0	69.0	2.5	/experiments/knapen_aot/oldvideos/S_yt-KQq7vTlXUiQ_173.mp4	0.0	265.847373008728	3.0582289695739746
71	200.27389192581177	response	0	2		69.0	2.5	/experiments/knapen_aot/oldvideos/S_yt-KQq7vTlXUiQ_173.mp4	0.0	268.89740800857544	
71	200.28208589553833	movie	1		301.0	69.0	2.5	/experiments/knapen_aot/oldvideos/S_yt-KQq7vTlXUiQ_173.mp4	0.0	268.905601978302	2.5084710121154785
71	201.89062786102295	response	1	2		69.0	2.5	/experiments/knapen_aot/oldvideos/S_yt-KQq7vTlXUiQ_173.mp4	0.0	270.5141439437866	
71	202.7905569076538	fix_post	2		12.0	69.0	2.5	/experiments/knapen_aot/oldvideos/S_yt-KQq7vTlXUiQ_173.mp4	0.0	271.4140729904175	0.09987902641296387
72	202.89043593406677	fix_pre	0		5.0	70.0	2.5	/experiments/knapen_aot/oldvideos/S_Xq0a2BWE3zA_53.mp4	0.0	271.51395201683044	0.041728973388671875
72	202.92382097244263	response	0	2		70.0	2.5	/experiments/knapen_aot/oldvideos/S_Xq0a2BWE3zA_53.mp4	0.0	271.5473370552063	
72	202.93216490745544	movie	1		301.0	70.0	2.5	/experiments/knapen_aot/oldvideos/S_Xq0a2BWE3zA_53.mp4	0.0	271.5556809902191	2.508296012878418
72	203.30729985237122	response	1	2		70.0	2.5	/experiments/knapen_aot/oldvideos/S_Xq0a2BWE3zA_53.mp4	0.0	271.9308159351349	
72	205.44046092033386	fix_post	2		12.0	70.0	2.5	/experiments/knapen_aot/oldvideos/S_Xq0a2BWE3zA_53.mp4	0.0	274.06397700309753	0.10000991821289062
73	205.54047083854675	fix_pre	0		17.0	71.0	2.5	/experiments/knapen_aot/oldvideos/R_S_yt-3JApfnMu5cU_378.mp4	0.0	274.1639869213104	0.14164209365844727
73	205.6738748550415	response	0	2		71.0	2.5	/experiments/knapen_aot/oldvideos/R_S_yt-3JApfnMu5cU_378.mp4	0.0	274.2973909378052	
73	205.6821129322052	movie	1		301.0	71.0	2.5	/experiments/knapen_aot/oldvideos/R_S_yt-3JApfnMu5cU_378.mp4	0.0	274.3056290149689	2.508388042449951
73	208.19050097465515	fix_post	2		12.0	71.0	2.5	/experiments/knapen_aot/oldvideos/R_S_yt-3JApfnMu5cU_378.mp4	0.0	276.8140170574188	0.0999448299407959
74	208.29044580459595	fix_pre	0		2.0	72.0	2.5	/experiments/knapen_aot/oldvideos/R_S_yt-i1h9ZiYZ86U_28.mp4	0.0	276.9139618873596	0.016657114028930664
74	208.29982900619507	response	0	2		72.0	2.5	/experiments/knapen_aot/oldvideos/R_S_yt-i1h9ZiYZ86U_28.mp4	0.0	276.92334508895874	
74	208.30710291862488	movie	1		301.0	72.0	2.5	/experiments/knapen_aot/oldvideos/R_S_yt-i1h9ZiYZ86U_28.mp4	0.0	276.93061900138855	2.5083301067352295
74	210.8154330253601	fix_post	2		12.0	72.0	2.5	/experiments/knapen_aot/oldvideos/R_S_yt-i1h9ZiYZ86U_28.mp4	0.0	279.4389491081238	0.10009098052978516
74	210.8739140033722	response	2	2		72.0	2.5	/experiments/knapen_aot/oldvideos/R_S_yt-i1h9ZiYZ86U_28.mp4	0.0	279.49743008613586	
75	210.9155240058899	fix_pre	0		36.0	73.0	2.5	/experiments/knapen_aot/oldvideos/R_S_bing-vimeo_com_161378598_22.mp4	0.0	279.53904008865356	0.30089688301086426
75	211.2071669101715	response	0	2		73.0	2.5	/experiments/knapen_aot/oldvideos/R_S_bing-vimeo_com_161378598_22.mp4	0.0	279.8306829929352	
75	211.21642088890076	movie	1		169.0	73.0	2.5	/experiments/knapen_aot/oldvideos/R_S_bing-vimeo_com_161378598_22.mp4	0.0	279.83993697166443	2.507357120513916
75	213.72377800941467	fix_post	2		12.0	73.0	2.5	/experiments/knapen_aot/oldvideos/R_S_bing-vimeo_com_161378598_22.mp4	0.0	282.34729409217834	0.10007596015930176
75	213.79051184654236	response	2	2		73.0	2.5	/experiments/knapen_aot/oldvideos/R_S_bing-vimeo_com_161378598_22.mp4	0.0	282.41402792930603	
76	213.82385396957397	fix_pre	0		67.0	74.0	2.5	/experiments/knapen_aot/oldvideos/R_S_ILSVRC2015_test_00001002.mp4	0.0	282.44737005233765	0.5591709613800049
76	214.37381601333618	response	0	2		74.0	2.5	/experiments/knapen_aot/oldvideos/R_S_ILSVRC2015_test_00001002.mp4	0.0	282.99733209609985	
76	214.38302493095398	movie	1		301.0	74.0	2.5	/experiments/knapen_aot/oldvideos/R_S_ILSVRC2015_test_00001002.mp4	0.0	283.00654101371765	2.507305860519409
76	216.69879698753357	response	1	2		74.0	2.5	/experiments/knapen_aot/oldvideos/R_S_ILSVRC2015_test_00001002.mp4	0.0	285.32231307029724	
76	216.8821268081665	response	1	2		74.0	2.5	/experiments/knapen_aot/oldvideos/R_S_ILSVRC2015_test_00001002.mp4	0.0	285.5056428909302	
76	216.8903307914734	fix_post	2		12.0	74.0	2.5	/experiments/knapen_aot/oldvideos/R_S_ILSVRC2015_test_00001002.mp4	0.0	285.51384687423706	0.10008621215820312
77	216.9904170036316	fix_pre	0		9.0	75.0	2.5	blank	1.0	285.61393308639526	0.07512784004211426
77	217.05708289146423	response	0	2		75.0	2.5	blank	1.0	285.6805989742279	
77	217.0655448436737	movie	1		301.0	75.0	2.5	blank	1.0	285.6890609264374	2.5081939697265625
77	217.24045491218567	response	1	2		75.0	2.5	blank	1.0	285.86397099494934	
77	218.54883694648743	response	1	2		75.0	2.5	blank	1.0	287.1723530292511	
77	219.57373881340027	fix_post	2		12.0	75.0	2.5	blank	1.0	288.19725489616394	0.09995603561401367
78	219.67369484901428	fix_pre	0		136.0	76.0	2.5	/experiments/knapen_aot/oldvideos/R_S_comp_HK_H004_C008_PSNK_v19_SDR_PS_20180914_SDR_2K_AVC.mp4	0.0	288.29721093177795	1.133368968963623
78	220.79132080078125	response	0	2		76.0	2.5	/experiments/knapen_aot/oldvideos/R_S_comp_HK_H004_C008_PSNK_v19_SDR_PS_20180914_SDR_2K_AVC.mp4	0.0	289.4148368835449	
78	220.8070638179779	movie	1		172.0	76.0	2.5	/experiments/knapen_aot/oldvideos/R_S_comp_HK_H004_C008_PSNK_v19_SDR_PS_20180914_SDR_2K_AVC.mp4	0.0	289.4305799007416	2.508419990539551
78	222.48285388946533	response	1	2		76.0	2.5	/experiments/knapen_aot/oldvideos/R_S_comp_HK_H004_C008_PSNK_v19_SDR_PS_20180914_SDR_2K_AVC.mp4	0.0	291.106369972229	
78	223.31548380851746	fix_post	2		12.0	76.0	2.5	/experiments/knapen_aot/oldvideos/R_S_comp_HK_H004_C008_PSNK_v19_SDR_PS_20180914_SDR_2K_AVC.mp4	0.0	291.9389998912811	0.10010313987731934
79	223.41558694839478	fix_pre	0		28.0	77.0	2.5	/experiments/knapen_aot/oldvideos/R_S_ILSVRC2015_train_00446000.mp4	0.0	292.03910303115845	0.2331218719482422
79	223.64046692848206	response	0	2		77.0	2.5	/experiments/knapen_aot/oldvideos/R_S_ILSVRC2015_train_00446000.mp4	0.0	292.2639830112457	
79	223.64870882034302	movie	1		301.0	77.0	2.5	/experiments/knapen_aot/oldvideos/R_S_ILSVRC2015_train_00446000.mp4	0.0	292.2722249031067	2.508342981338501
79	226.15705180168152	fix_post	2		12.0	77.0	2.5	/experiments/knapen_aot/oldvideos/R_S_ILSVRC2015_train_00446000.mp4	0.0	294.7805678844452	0.10002517700195312
79	226.215430021286	response	2	2		77.0	2.5	/experiments/knapen_aot/oldvideos/R_S_ILSVRC2015_train_00446000.mp4	0.0	294.8389461040497	
80	226.25707697868347	fix_pre	0		95.0	78.0	2.5	/experiments/knapen_aot/oldvideos/R_S_ILSVRC2015_train_00457000.mp4	0.0	294.88059306144714	0.7924189567565918
80	227.040522813797	response	0	2		78.0	2.5	/experiments/knapen_aot/oldvideos/R_S_ILSVRC2015_train_00457000.mp4	0.0	295.66403889656067	
80	227.04949593544006	movie	1		301.0	78.0	2.5	/experiments/knapen_aot/oldvideos/R_S_ILSVRC2015_train_00457000.mp4	0.0	295.67301201820374	2.507972002029419
80	229.55746793746948	fix_post	2		12.0	78.0	2.5	/experiments/knapen_aot/oldvideos/R_S_ILSVRC2015_train_00457000.mp4	0.0	298.18098402023315	0.09954404830932617
80	229.60713601112366	response	2	2		78.0	2.5	/experiments/knapen_aot/oldvideos/R_S_ILSVRC2015_train_00457000.mp4	0.0	298.23065209388733	
81	229.6570119857788	fix_pre	0		33.0	79.0	2.5	/experiments/knapen_aot/oldvideos/S_yt-roThCERxVCs_133.mp4	0.0	298.2805280685425	0.2749958038330078
81	229.92373991012573	response	0	2		79.0	2.5	/experiments/knapen_aot/oldvideos/S_yt-roThCERxVCs_133.mp4	0.0	298.5472559928894	
81	229.93200778961182	movie	1		300.0	79.0	2.5	/experiments/knapen_aot/oldvideos/S_yt-roThCERxVCs_133.mp4	0.0	298.5555238723755	2.508341073989868
81	230.16758489608765	response	1	2		79.0	2.5	/experiments/knapen_aot/oldvideos/S_yt-roThCERxVCs_133.mp4	0.0	298.7911009788513	
81	230.3521900177002	response	1	2		79.0	2.5	/experiments/knapen_aot/oldvideos/S_yt-roThCERxVCs_133.mp4	0.0	298.97570610046387	
81	230.52383184432983	response	1	2		79.0	2.5	/experiments/knapen_aot/oldvideos/S_yt-roThCERxVCs_133.mp4	0.0	299.1473479270935	
81	230.72383880615234	response	1	2		79.0	2.5	/experiments/knapen_aot/oldvideos/S_yt-roThCERxVCs_133.mp4	0.0	299.347354888916	
81	230.8829038143158	response	1	2		79.0	2.5	/experiments/knapen_aot/oldvideos/S_yt-roThCERxVCs_133.mp4	0.0	299.50641989707947	
81	231.07407689094543	response	1	2		79.0	2.5	/experiments/knapen_aot/oldvideos/S_yt-roThCERxVCs_133.mp4	0.0	299.6975929737091	
81	231.35718202590942	response	1	2		79.0	2.5	/experiments/knapen_aot/oldvideos/S_yt-roThCERxVCs_133.mp4	0.0	299.9806981086731	
81	231.88625383377075	response	1	2		79.0	2.5	/experiments/knapen_aot/oldvideos/S_yt-roThCERxVCs_133.mp4	0.0	300.5097699165344	
81	232.0354368686676	response	1	2		79.0	2.5	/experiments/knapen_aot/oldvideos/S_yt-roThCERxVCs_133.mp4	0.0	300.6589529514313	
81	232.21615600585938	response	1	2		79.0	2.5	/experiments/knapen_aot/oldvideos/S_yt-roThCERxVCs_133.mp4	0.0	300.83967208862305	
81	232.39039993286133	response	1	2		79.0	2.5	/experiments/knapen_aot/oldvideos/S_yt-roThCERxVCs_133.mp4	0.0	301.013916015625	
81	232.44034886360168	fix_post	2		12.0	79.0	2.5	/experiments/knapen_aot/oldvideos/S_yt-roThCERxVCs_133.mp4	0.0	301.06386494636536	0.10007309913635254
82	232.54042196273804	fix_pre	0		5.0	80.0	2.5	/experiments/knapen_aot/oldvideos/S_yt-fymgyhmYnMI_557.mp4	0.0	301.1639380455017	0.04158186912536621
82	232.5737760066986	response	0	2		80.0	2.5	/experiments/knapen_aot/oldvideos/S_yt-fymgyhmYnMI_557.mp4	0.0	301.1972920894623	
82	232.5820038318634	movie	1		300.0	80.0	2.5	/experiments/knapen_aot/oldvideos/S_yt-fymgyhmYnMI_557.mp4	0.0	301.2055199146271	2.508258104324341
82	232.74050378799438	response	1	2		80.0	2.5	/experiments/knapen_aot/oldvideos/S_yt-fymgyhmYnMI_557.mp4	0.0	301.36401987075806	
82	232.91540694236755	response	1	2		80.0	2.5	/experiments/knapen_aot/oldvideos/S_yt-fymgyhmYnMI_557.mp4	0.0	301.5389230251312	
82	233.08207488059998	response	1	2		80.0	2.5	/experiments/knapen_aot/oldvideos/S_yt-fymgyhmYnMI_557.mp4	0.0	301.70559096336365	
82	233.26542592048645	response	1	2		80.0	2.5	/experiments/knapen_aot/oldvideos/S_yt-fymgyhmYnMI_557.mp4	0.0	301.8889420032501	
82	233.44874596595764	response	1	2		80.0	2.5	/experiments/knapen_aot/oldvideos/S_yt-fymgyhmYnMI_557.mp4	0.0	302.0722620487213	
82	233.57739782333374	response	1	2		80.0	2.5	/experiments/knapen_aot/oldvideos/S_yt-fymgyhmYnMI_557.mp4	0.0	302.2009139060974	
82	233.79949188232422	response	1	2		80.0	2.5	/experiments/knapen_aot/oldvideos/S_yt-fymgyhmYnMI_557.mp4	0.0	302.4230079650879	
82	235.09026193618774	fix_post	2		12.0	80.0	2.5	/experiments/knapen_aot/oldvideos/S_yt-fymgyhmYnMI_557.mp4	0.0	303.7137780189514	0.10007286071777344
83	235.19033479690552	fix_pre	0		4.0	81.0	2.5	/experiments/knapen_aot/oldvideos/R_S_yt-cokedWwwYYs_136.mp4	0.0	303.8138508796692	0.03332710266113281
83	235.21552681922913	response	0	2		81.0	2.5	/experiments/knapen_aot/oldvideos/R_S_yt-cokedWwwYYs_136.mp4	0.0	303.8390429019928	
83	235.22366189956665	movie	1		301.0	81.0	2.5	/experiments/knapen_aot/oldvideos/R_S_yt-cokedWwwYYs_136.mp4	0.0	303.8471779823303	2.5083420276641846
83	237.37919092178345	response	1	2		81.0	2.5	/experiments/knapen_aot/oldvideos/R_S_yt-cokedWwwYYs_136.mp4	0.0	306.0027070045471	
83	237.54955291748047	response	1	2		81.0	2.5	/experiments/knapen_aot/oldvideos/R_S_yt-cokedWwwYYs_136.mp4	0.0	306.17306900024414	
83	237.73200392723083	fix_post	2		12.0	81.0	2.5	/experiments/knapen_aot/oldvideos/R_S_yt-cokedWwwYYs_136.mp4	0.0	306.3555200099945	0.10000109672546387
83	237.74882292747498	response	2	2		81.0	2.5	/experiments/knapen_aot/oldvideos/R_S_yt-cokedWwwYYs_136.mp4	0.0	306.37233901023865	
84	237.8320050239563	fix_pre	0		12.0	82.0	2.5	/experiments/knapen_aot/oldvideos/S_yt-QFGyhhr1KSQ_9.mp4	0.0	306.45552110671997	0.09990787506103516
84	237.92372584342957	response	0	2		82.0	2.5	/experiments/knapen_aot/oldvideos/S_yt-QFGyhhr1KSQ_9.mp4	0.0	306.54724192619324	
84	237.93191289901733	movie	1		300.0	82.0	2.5	/experiments/knapen_aot/oldvideos/S_yt-QFGyhhr1KSQ_9.mp4	0.0	306.555428981781	2.5083909034729004
84	238.0988118648529	response	1	2		82.0	2.5	/experiments/knapen_aot/oldvideos/S_yt-QFGyhhr1KSQ_9.mp4	0.0	306.7223279476166	
84	238.29940390586853	response	1	2		82.0	2.5	/experiments/knapen_aot/oldvideos/S_yt-QFGyhhr1KSQ_9.mp4	0.0	306.9229199886322	
84	238.48570585250854	response	1	2		82.0	2.5	/experiments/knapen_aot/oldvideos/S_yt-QFGyhhr1KSQ_9.mp4	0.0	307.1092219352722	
84	238.6486849784851	response	1	2		82.0	2.5	/experiments/knapen_aot/oldvideos/S_yt-QFGyhhr1KSQ_9.mp4	0.0	307.2722010612488	
84	238.8487548828125	response	1	2		82.0	2.5	/experiments/knapen_aot/oldvideos/S_yt-QFGyhhr1KSQ_9.mp4	0.0	307.4722709655762	
84	239.0426459312439	response	1	2		82.0	2.5	/experiments/knapen_aot/oldvideos/S_yt-QFGyhhr1KSQ_9.mp4	0.0	307.66616201400757	
84	239.25193786621094	response	1	2		82.0	2.5	/experiments/knapen_aot/oldvideos/S_yt-QFGyhhr1KSQ_9.mp4	0.0	307.8754539489746	
84	240.44030380249023	fix_post	2		12.0	82.0	2.5	/experiments/knapen_aot/oldvideos/S_yt-QFGyhhr1KSQ_9.mp4	0.0	309.0638198852539	0.10005712509155273
85	240.5403609275818	fix_pre	0		11.0	83.0	2.5	blank	1.0	309.16387701034546	0.09240102767944336
85	240.6238498687744	response	0	2		83.0	2.5	blank	1.0	309.2473659515381	
85	240.63276195526123	movie	1		301.0	83.0	2.5	blank	1.0	309.2562780380249	2.5075738430023193
85	243.14033579826355	fix_post	2		12.0	83.0	2.5	blank	1.0	311.7638518810272	0.10000801086425781
87	243.2403438091278	stim	0		204.0					311.8638598918915	1.7000000476837158
87	243.37379598617554	response	0	2						311.9973120689392	
87	244.93465185165405	response	0	space						313.5581679344177	
